SpectraSuite Data File
++++++++++++++++++++++++++++++++++++
Date: Fri Oct 25 11:33:22 EDT 2013
User: price-jones
Dark Spectrum Present: No
Reference Spectrum Present: No
Number of Sampled Component Spectra: 1
Spectrometers: USB2+H05261
Integration Time (usec): 100000 (USB2+H05261)
Spectra Averaged: 1 (USB2+H05261)
Boxcar Smoothing: 0 (USB2+H05261)
Correct for Electrical Dark: No (USB2+H05261)
Strobe/Lamp Enabled: No (USB2+H05261)
Correct for Detector Non-linearity: No (USB2+H05261)
Correct for Stray Light: No (USB2+H05261)
Number of Pixels in Processed Spectrum: 2048
>>>>>Begin Processed Spectral Data<<<<<
365.73	280.86
365.92	280.86
366.12	280.86
366.32	215.33
366.52	147.45
366.72	238.73
366.91	205.97
367.11	194.26
367.31	212.99
367.51	222.35
367.70	208.31
367.90	142.77
368.10	191.92
368.30	170.86
368.49	170.86
368.69	159.16
368.89	198.95
369.09	152.13
369.28	287.89
369.48	245.76
369.68	196.60
369.87	229.37
370.07	257.46
370.27	276.18
370.47	318.31
370.66	442.36
370.86	468.11
371.06	477.47
371.25	517.26
371.45	561.73
371.65	587.47
371.84	557.05
372.04	557.05
372.24	535.98
372.44	613.22
372.63	603.86
372.83	596.84
373.03	571.09
373.22	538.32
373.42	617.90
373.62	650.67
373.81	587.47
374.01	608.54
374.21	662.37
374.40	648.33
374.60	758.33
374.79	629.60
374.99	657.69
375.19	702.16
375.38	727.91
375.58	615.56
375.78	615.56
375.97	582.79
376.17	706.84
376.37	594.50
376.56	664.71
376.76	730.25
376.95	648.33
377.15	751.31
377.35	727.91
377.54	664.71
377.74	716.20
377.93	695.14
378.13	730.25
378.33	720.88
378.52	713.86
378.72	664.71
378.91	741.95
379.11	685.78
379.31	681.10
379.50	695.14
379.70	777.06
379.89	702.16
380.09	758.33
380.28	643.65
380.48	676.41
380.68	645.99
380.87	758.33
381.07	655.35
381.26	856.64
381.46	741.95
381.65	748.97
381.85	779.40
382.04	779.40
382.24	685.78
382.43	760.67
382.63	786.42
382.83	713.86
383.02	819.19
383.22	898.77
383.41	774.72
383.61	812.17
383.80	896.43
384.00	786.42
384.19	809.83
384.39	924.51
384.58	842.59
384.78	828.55
384.97	788.76
385.17	858.98
385.36	835.57
385.56	814.51
385.75	861.32
385.95	887.06
386.14	777.06
386.34	837.91
386.53	873.02
386.72	877.70
386.92	898.77
387.11	929.19
387.31	826.21
387.50	847.27
387.70	833.23
387.89	851.96
388.09	898.77
388.28	821.53
388.48	936.21
388.67	1027.50
388.86	978.34
389.06	889.40
389.25	1015.79
389.45	968.98
389.64	891.74
389.84	987.71
390.03	875.36
390.22	919.83
390.42	985.37
390.61	1027.50
390.81	1020.47
391.00	966.64
391.19	1008.77
391.39	999.41
391.58	968.98
391.78	1041.54
391.97	1057.92
392.16	1071.97
392.36	1041.54
392.55	1032.18
392.75	1074.31
392.94	1071.97
393.13	1121.12
393.33	1074.31
393.52	1055.58
393.71	1032.18
393.91	1071.97
394.10	1097.71
394.29	1100.05
394.49	1062.60
394.68	1118.78
394.88	1224.10
395.07	1240.48
395.26	1163.25
395.46	1095.37
395.65	1163.25
395.84	1104.73
396.04	1259.21
396.23	1167.93
396.42	1205.38
396.62	1198.35
396.81	1259.21
397.00	1217.08
397.19	1158.57
397.39	1196.01
397.58	1224.10
397.77	1242.82
397.97	1284.95
398.16	1291.98
398.35	1259.21
398.55	1240.48
398.74	1322.40
398.93	1444.11
399.12	1303.68
399.32	1371.55
399.51	1327.08
399.70	1247.51
399.90	1392.62
400.09	1369.21
400.28	1437.09
400.47	1420.71
400.67	1519.01
400.86	1331.76
401.05	1401.98
401.24	1416.02
401.44	1418.36
401.63	1521.35
401.82	1317.72
402.01	1516.67
402.21	1439.43
402.40	1502.62
402.59	1519.01
402.78	1556.46
402.97	1495.60
403.17	1495.60
403.36	1486.24
403.55	1537.73
403.74	1582.20
403.93	1575.18
404.13	1577.52
404.32	1570.50
404.51	1633.69
404.70	1680.50
404.89	1647.74
405.09	1750.72
405.28	1746.04
405.47	1647.74
405.66	1703.91
405.85	1692.21
406.05	1650.08
406.24	1771.79
406.43	1696.89
406.62	1696.89
406.81	1818.60
407.00	1708.59
407.20	1802.21
407.39	1746.04
407.58	1846.68
407.77	1900.52
407.96	1909.88
408.15	1912.22
408.34	1863.07
408.54	1783.49
408.73	1893.49
408.92	1968.39
409.11	1919.24
409.30	2024.56
409.49	1937.96
409.68	1982.43
409.87	2076.06
410.07	1989.46
410.26	2043.29
410.45	2062.01
410.64	2127.55
410.83	2080.74
411.02	2174.36
411.21	2146.27
411.40	2251.60
411.59	2244.57
411.78	2118.18
411.98	2214.15
412.17	2209.47
412.36	2314.79
412.55	2420.11
412.74	2452.88
412.93	2284.36
413.12	2251.60
413.31	2471.61
413.50	2450.54
413.69	2284.36
413.88	2443.52
414.07	2502.03
414.26	2450.54
414.45	2471.61
414.64	2513.74
414.83	2651.83
415.02	2637.78
415.22	2651.83
415.41	2602.68
415.60	2729.06
415.79	2757.15
415.98	2747.79
416.17	2775.88
416.36	2609.70
416.55	2885.88
416.74	2806.30
416.93	2890.56
417.12	2787.58
417.31	2843.75
417.50	2916.31
417.69	2946.73
417.88	3026.31
418.07	2949.08
418.26	3061.42
418.45	2946.73
418.64	3222.92
418.83	3082.49
419.02	3117.59
419.21	3143.34
419.39	3042.70
419.58	2995.89
419.77	3105.89
419.96	3180.79
420.15	3157.38
420.34	3164.40
420.53	3091.85
420.72	3236.96
420.91	3157.38
421.10	3213.56
421.29	3302.50
421.48	3185.47
421.67	3302.50
421.86	3288.45
422.05	3309.52
422.24	3377.39
422.43	3407.82
422.61	3265.05
422.80	3459.31
422.99	3447.61
423.18	3440.59
423.37	3424.20
423.56	3541.23
423.75	3478.04
423.94	3332.92
424.13	3222.92
424.32	3323.56
424.50	3463.99
424.69	3515.48
424.88	3606.77
425.07	3489.74
425.26	3337.60
425.45	3400.80
425.64	3499.10
425.83	3379.73
426.01	3393.78
426.20	3506.12
426.39	3559.95
426.58	3520.17
426.77	3435.91
426.96	3494.42
427.15	3756.56
427.33	3517.83
427.52	3576.34
427.71	3691.02
427.90	3576.34
428.09	3632.51
428.28	3602.08
428.46	3571.66
428.65	3714.43
428.84	3829.12
429.03	3798.69
429.22	3782.31
429.40	3714.43
429.59	3875.93
429.78	3772.94
429.97	3592.72
430.16	3826.78
430.34	3829.12
430.53	3904.01
430.72	3850.18
430.91	4042.11
431.10	3803.37
431.28	3904.01
431.47	4074.87
431.66	4030.40
431.85	3812.73
432.03	4060.83
432.22	4086.58
432.41	4072.53
432.60	4049.13
432.79	4142.75
432.97	4112.32
433.16	4135.73
433.35	4152.11
433.54	4262.12
433.72	4234.03
433.91	4180.20
434.10	4297.22
434.28	4212.96
434.47	4170.83
434.66	4259.78
434.85	4454.04
435.03	4337.01
435.22	4430.63
435.41	4444.68
435.59	4454.04
435.78	4484.47
435.97	4498.51
436.16	4531.28
436.34	4535.96
436.53	4386.16
436.72	4428.29
436.90	4447.02
437.09	4512.55
437.28	4557.02
437.46	4582.77
437.65	4557.02
437.84	4594.47
438.02	4582.77
438.21	4669.37
438.40	4573.41
438.58	4837.89
438.77	4844.91
438.96	4800.44
439.14	4882.36
439.33	4849.59
439.52	4999.38
439.70	4798.10
439.89	4992.36
440.08	4877.68
440.26	5001.72
440.45	4959.60
440.63	5100.03
440.82	5177.26
441.01	5217.05
441.19	5219.39
441.38	5263.86
441.57	5329.40
441.75	5493.24
441.94	5397.28
442.12	5357.49
442.31	5547.07
442.50	5408.98
442.68	5341.10
442.87	5348.12
443.05	5467.49
443.24	5392.59
443.43	5509.62
443.61	5575.16
443.80	5678.14
443.98	5577.50
444.17	5350.46
444.35	5760.06
444.54	5636.01
444.73	5607.92
444.91	5614.95
445.10	5701.54
445.28	5715.59
445.47	5753.04
445.65	5643.03
445.84	5802.19
446.02	5959.00
446.21	5682.82
446.39	5823.25
446.58	5762.40
446.77	5865.38
446.95	5465.15
447.14	5837.30
447.32	5783.46
447.51	5727.29
447.69	5799.85
447.88	5937.94
448.06	5680.48
448.25	5949.64
448.43	5771.76
448.62	5921.56
448.80	5984.75
448.99	6071.35
449.17	6008.16
449.36	5870.06
449.54	6040.92
449.73	5991.77
449.91	6024.54
450.10	6171.99
450.28	6092.41
450.46	6321.79
450.65	6108.80
450.83	6157.95
451.02	6237.53
451.20	6239.87
451.39	6113.48
451.57	6319.45
451.76	6115.82
451.94	6076.03
452.13	6492.65
452.31	6335.83
452.49	6286.68
452.68	6394.34
452.86	6483.28
453.05	6349.87
453.23	6333.49
453.42	6328.81
453.60	6370.94
453.78	6377.96
453.97	6408.39
454.15	6408.39
454.34	6490.31
454.52	6623.72
454.70	6527.75
454.89	6724.36
455.07	6663.51
455.26	6558.18
455.44	6736.06
455.62	6794.58
455.81	6665.85
455.99	6703.29
456.17	6834.36
456.36	6876.49
456.54	6803.94
456.73	7007.56
456.91	7066.08
457.09	7115.23
457.28	7136.29
457.46	6778.19
457.64	7124.59
457.83	7049.69
458.01	6974.80
458.19	7290.77
458.38	7138.63
458.56	7293.11
458.74	7316.51
458.93	7475.67
459.11	7384.39
459.29	7302.47
459.48	7581.00
459.66	7295.45
459.84	7510.78
460.03	7602.06
460.21	7478.01
460.39	7297.79
460.57	7592.70
460.76	7515.46
460.94	7503.76
461.12	7510.78
461.31	7543.55
461.49	7548.23
461.67	7482.69
461.85	7676.96
462.04	7705.04
462.22	8039.74
462.40	7782.28
462.59	7817.39
462.77	7784.62
462.95	7859.52
463.13	7878.24
463.32	7868.88
463.50	7859.52
463.68	8051.44
463.86	8114.64
464.05	7798.66
464.23	7948.46
464.41	8086.55
464.59	7943.78
464.78	8173.15
464.96	8222.30
465.14	7950.80
465.32	8187.19
465.50	8182.51
465.69	8208.26
465.87	7953.14
466.05	8170.81
466.23	8224.64
466.41	8222.30
466.60	8430.61
466.78	8322.94
466.96	8308.90
467.14	8287.84
467.32	8383.80
467.51	8400.18
467.69	8063.15
467.87	8187.19
468.05	8407.20
468.23	8374.44
468.41	8243.37
468.60	8355.71
468.78	8582.74
468.96	8606.15
469.14	8524.23
469.32	8678.71
469.50	8533.59
469.69	8697.43
469.87	8826.16
470.05	8765.31
470.23	8954.89
470.41	8746.58
470.59	9137.45
470.77	8938.51
470.95	8671.68
471.14	8987.66
471.32	8833.18
471.50	9193.62
471.68	9092.98
471.86	9088.30
472.04	9266.18
472.22	9310.65
472.40	9048.51
472.58	9247.46
472.77	9408.95
472.95	9582.15
473.13	9827.91
473.31	9490.87
473.49	9521.30
473.67	9544.70
473.85	9558.75
474.03	9984.73
474.21	9834.93
474.39	9877.06
474.57	9937.91
474.75	10054.94
474.93	10066.64
475.12	10047.92
475.30	10083.03
475.48	9881.74
475.66	10211.76
475.84	10202.40
476.02	10277.29
476.20	10068.98
476.38	10319.42
476.56	10761.78
476.74	10747.74
476.92	10621.35
477.10	10633.05
477.28	10780.51
477.46	10647.10
477.64	11066.05
477.82	11073.07
478.00	11234.57
478.18	11157.33
478.36	11138.61
478.54	11501.39
478.72	11335.21
478.90	11590.33
479.08	11726.08
479.26	11751.83
479.44	11669.91
479.62	11768.21
479.80	11955.46
479.98	12086.53
480.16	12290.15
480.34	12189.51
480.52	12329.94
480.70	12280.79
480.88	12313.56
481.06	12212.92
481.24	12784.01
481.41	12741.88
481.59	12894.01
481.77	12950.18
481.95	12917.42
482.13	13071.89
482.31	13170.19
482.49	13371.48
482.67	13212.32
482.85	13729.58
483.03	13640.64
483.21	14005.77
483.39	13951.93
483.57	14024.49
483.74	13703.84
483.92	14176.62
484.10	13961.30
484.28	14721.97
484.46	14766.44
484.64	14712.61
484.82	14574.52
485.00	14721.97
485.18	15049.64
485.35	15321.15
485.53	15304.76
485.71	15391.36
485.89	15197.10
486.07	15358.60
486.25	15374.98
486.43	15639.46
486.61	15831.38
486.78	16020.97
486.96	16133.31
487.14	16166.08
487.32	16182.46
487.50	16367.37
487.68	16510.14
487.85	16791.00
488.03	16737.17
488.21	17062.51
488.39	17074.21
488.57	17132.72
488.75	17371.46
488.92	17334.01
489.10	17762.33
489.28	17891.06
489.46	17811.48
489.64	17874.67
489.81	17984.68
489.99	18031.49
490.17	18555.77
490.35	18377.89
490.53	18523.00
490.70	18958.34
490.88	18710.24
491.06	19117.50
491.24	18981.74
491.41	19293.04
491.59	19424.11
491.77	19248.57
491.95	19693.27
492.13	19707.31
492.30	19910.94
492.48	19669.86
492.66	19985.83
492.84	20051.37
493.01	20311.17
493.19	20126.27
493.37	20601.40
493.54	20360.32
493.72	21018.01
493.90	20545.22
494.08	20912.69
494.25	21177.17
494.43	21401.86
494.61	21181.85
494.79	21495.48
494.96	21451.01
495.14	21682.72
495.32	21544.63
495.49	21729.53
495.67	21823.16
495.85	22202.32
496.02	22230.41
496.20	22583.83
496.38	22431.69
496.55	22258.49
496.73	23096.41
496.91	22677.45
497.09	22754.69
497.26	23269.61
497.44	22822.56
497.62	23388.97
497.79	23522.38
497.97	23456.85
498.14	23587.92
498.32	24151.99
498.50	24231.57
498.67	24259.65
498.85	24287.74
499.03	24095.82
499.20	24027.94
499.38	24318.17
499.56	24886.92
499.73	24812.02
499.91	24697.33
500.08	25191.19
500.26	24861.17
500.44	24900.96
500.61	25062.46
500.79	24973.52
500.97	25619.50
501.14	25338.64
501.32	25551.63
501.49	25806.75
501.67	25928.45
501.84	25867.60
502.02	25802.07
502.20	25743.55
502.37	25673.34
502.55	26223.36
502.72	26419.97
502.90	25956.54
503.07	26031.44
503.25	25923.77
503.43	26148.46
503.60	26551.04
503.78	26562.74
503.95	26682.11
504.13	26780.41
504.30	26733.60
504.48	26731.26
504.65	26773.39
504.83	26857.65
505.01	27199.37
505.18	27435.76
505.36	27447.46
505.53	27683.86
505.71	27637.05
505.88	27700.24
506.06	27517.68
506.23	27707.26
506.41	27819.61
506.58	28067.70
506.76	27793.86
506.93	28056.00
507.11	28140.26
507.28	28318.14
507.46	28395.38
507.63	28327.50
507.81	28709.01
507.98	28144.94
508.16	28723.05
508.33	28599.01
508.50	28849.44
508.68	29041.37
508.85	29270.74
509.03	29003.92
509.20	29296.49
509.38	29479.05
509.55	29352.66
509.73	29612.46
509.90	29692.04
510.08	29659.27
510.25	29818.42
510.42	29624.16
510.60	29738.85
510.77	30089.93
510.95	30225.68
511.12	30008.01
511.30	30616.55
511.47	30366.11
511.64	30433.99
511.82	30492.50
511.99	30080.56
512.17	30747.62
512.34	30595.48
512.51	30955.93
512.69	31566.81
512.86	30874.01
513.04	31033.16
513.21	31379.56
513.38	31377.22
513.56	31363.18
513.73	31234.45
513.90	31461.48
514.08	31192.32
514.25	31812.56
514.43	31882.78
514.60	31594.89
514.77	32407.06
514.95	31850.01
515.12	31915.54
515.29	32142.58
515.47	32130.87
515.64	32505.36
515.81	32481.95
515.99	32416.42
516.16	32552.17
516.33	32526.42
516.51	32739.41
516.68	32407.06
516.85	32538.13
517.03	32598.98
517.20	33104.54
517.37	32992.19
517.54	32872.82
517.72	33113.90
517.89	33092.83
518.06	32868.14
518.24	33488.38
518.41	33266.03
518.58	33060.07
518.75	33034.32
518.93	33621.80
519.10	33521.15
519.27	33778.61
519.45	33586.69
519.62	33893.30
519.79	33759.89
519.96	33895.64
520.14	34071.18
520.31	33652.22
520.48	34199.91
520.65	34347.36
520.83	34820.15
521.00	35201.66
521.17	34820.15
521.34	34848.24
521.52	34417.58
521.69	34801.43
521.86	34824.83
522.03	34792.06
522.20	35468.48
522.38	35402.94
522.55	35189.95
522.72	35255.49
522.89	35047.18
523.07	35508.27
523.24	35763.39
523.41	35370.18
523.58	35328.05
523.75	35608.91
523.92	35449.75
524.10	36091.06
524.27	35468.48
524.44	36088.72
524.61	36194.04
524.78	36123.83
524.96	36098.08
525.13	36416.40
525.30	36697.26
525.47	36573.21
525.64	36261.92
525.81	36500.65
525.98	36596.62
526.16	36428.10
526.33	36484.27
526.50	36690.24
526.67	37099.83
526.84	37261.33
527.01	36933.65
527.18	36931.31
527.36	36938.33
527.53	37165.37
527.70	37663.90
527.87	37230.90
528.04	37361.97
528.21	37687.31
528.38	37464.96
528.55	37144.30
528.72	37551.56
528.89	37443.89
529.07	36945.36
529.24	37551.56
529.41	37689.65
529.58	37619.43
529.75	37500.06
529.92	37893.27
530.09	37897.95
530.26	37680.28
530.43	38242.01
530.60	37820.72
530.77	37691.99
530.94	38328.61
531.11	38541.60
531.28	38277.12
531.46	38302.87
531.63	38682.03
531.80	38595.43
531.97	38733.53
532.14	38660.97
532.31	38075.84
532.48	38597.77
532.65	39131.42
532.82	38625.86
532.99	38838.85
533.16	38487.77
533.33	39084.61
533.50	39260.15
533.67	38960.56
533.84	38515.86
534.01	39250.78
534.18	38817.78
534.35	39517.60
534.52	39587.82
534.69	39496.54
534.86	39807.83
535.03	39564.42
535.20	39274.19
535.37	39894.43
535.54	39849.96
535.71	39620.59
535.88	40081.67
536.05	39599.52
536.22	39966.99
536.38	40011.46
536.55	39751.66
536.72	39997.41
536.89	39997.41
537.06	40371.90
537.23	39948.26
537.40	40130.83
537.57	39749.32
537.74	39894.43
537.91	40664.47
538.08	40371.90
538.25	40020.82
538.42	40615.32
538.59	40561.48
538.75	40704.26
538.92	40737.02
539.09	40758.09
539.26	40488.93
539.43	40634.04
539.60	41191.09
539.77	40903.20
539.94	40919.59
540.11	40968.74
540.28	40889.16
540.44	41240.24
540.61	41097.47
540.78	40938.31
540.95	41280.03
541.12	41230.88
541.29	41422.80
541.46	41230.88
541.62	41441.53
541.79	41570.25
541.96	41085.76
542.13	41053.00
542.30	41097.47
542.47	41961.12
542.63	41890.91
542.80	41998.57
542.97	42167.09
543.14	41956.44
543.31	41818.35
543.48	42234.97
543.64	42546.26
543.81	42410.51
543.98	42157.73
544.15	42103.90
544.32	42445.62
544.48	42990.96
544.65	42459.66
544.82	42754.57
544.99	42564.98
545.16	42705.41
545.32	42518.17
545.49	42806.06
545.66	42852.87
545.83	42672.65
546.00	42766.27
546.16	42642.22
546.33	42850.53
546.50	42698.39
546.67	43044.79
546.83	42536.90
547.00	42997.98
547.17	43033.09
547.34	43463.75
547.50	43339.70
547.67	43262.46
547.84	43206.29
548.00	43398.21
548.17	43782.06
548.34	43122.03
548.51	43255.44
548.67	43889.73
548.84	43374.81
549.01	43185.22
549.18	43969.30
549.34	43409.92
549.51	43461.41
549.68	44025.48
549.84	43861.64
550.01	44100.37
550.18	43665.03
550.34	43714.19
550.51	43833.55
550.68	44121.44
550.84	43569.07
551.01	43964.62
551.18	43873.34
551.34	43700.14
551.51	43908.45
551.68	44327.41
551.84	44030.16
552.01	43995.05
552.18	44257.19
552.34	44142.50
552.51	43985.69
552.68	44364.85
552.84	44418.69
553.01	44470.18
553.18	44481.88
553.34	44559.12
553.51	44863.39
553.67	44327.41
553.84	44449.11
554.01	44800.19
554.17	44882.11
554.34	44919.56
554.51	44741.68
554.67	44575.50
554.84	44842.32
555.00	45062.33
555.17	45043.61
555.33	45055.31
555.50	45233.19
555.67	44828.28
555.83	44655.08
556.00	45170.00
556.16	45366.60
556.33	45294.05
556.50	45186.38
556.66	45612.36
556.83	45233.19
556.99	45462.57
557.16	45689.60
557.32	44935.95
557.49	45359.58
557.65	45155.96
557.82	45514.06
557.98	45347.88
558.15	45368.94
558.32	45776.20
558.48	45170.00
558.65	45490.65
558.81	45694.28
558.98	45553.85
559.14	45483.63
559.31	45212.13
559.47	45930.67
559.64	45993.87
559.80	46017.27
559.97	46012.59
560.13	45691.94
560.30	45989.19
560.46	45907.27
560.63	46307.50
560.79	46122.60
560.96	46263.03
561.12	46476.02
561.29	45830.03
561.45	45963.44
561.61	45883.86
561.78	46171.75
561.94	45705.98
562.11	45797.26
562.27	46108.55
562.44	45900.25
562.60	46096.85
562.77	46518.15
562.93	45771.52
563.10	46555.60
563.26	46314.52
563.42	46768.58
563.59	46312.18
563.75	46237.28
563.92	46265.37
564.08	46045.36
564.24	46534.53
564.41	46239.62
564.57	46382.40
564.74	46469.00
564.90	46157.70
565.07	46258.35
565.23	46185.79
565.39	46295.80
565.56	46579.00
565.72	46309.84
565.88	46286.43
566.05	46885.61
566.21	46274.73
566.38	46714.75
566.54	46902.00
566.70	46457.29
566.87	46899.65
567.03	46508.79
567.19	46728.80
567.36	46562.62
567.52	46595.38
567.68	47124.35
567.85	46401.12
568.01	47079.88
568.17	46469.00
568.34	47271.80
568.50	46777.95
568.66	46422.19
568.83	46756.88
568.99	46876.25
569.15	46560.28
569.32	46532.19
569.48	46848.16
569.64	47243.71
569.81	47356.06
569.97	46827.10
570.13	47323.29
570.30	46913.70
570.46	47007.32
570.62	46892.63
570.78	46728.80
570.95	46876.25
571.11	46796.67
571.27	46909.02
571.43	46796.67
571.60	46911.36
571.76	47147.75
571.92	46974.55
572.09	47103.28
572.25	46920.72
572.41	46703.05
572.57	47107.96
572.74	47377.12
572.90	47320.95
573.06	47239.03
573.22	47276.48
573.38	47112.64
573.55	47515.22
573.71	47819.49
573.87	47107.96
574.03	47271.80
574.20	47426.28
574.36	47276.48
574.52	47547.98
574.68	47175.84
574.84	47189.88
575.01	47744.59
575.17	47583.09
575.33	47576.07
575.49	46951.15
575.65	47019.02
575.82	47515.22
575.98	46974.55
576.14	47697.78
576.30	47744.59
576.46	47342.02
576.62	47454.36
576.79	47707.14
576.95	46925.40
577.11	47063.49
577.27	47398.19
577.43	47562.03
577.59	47386.49
577.75	47143.07
577.92	46995.62
578.08	47262.44
578.24	47388.83
578.40	47531.60
578.56	47386.49
578.72	47311.59
578.88	47604.16
579.04	47442.66
579.21	47503.51
579.37	47381.80
579.53	47594.79
579.69	47618.20
579.85	47316.27
580.01	47344.36
580.17	47594.79
580.33	47456.70
580.49	47714.16
580.65	47428.62
580.82	47573.73
580.98	47384.15
581.14	47014.34
581.30	47686.07
581.46	47508.19
581.62	47578.41
581.78	47306.91
581.94	47517.56
582.10	47316.27
582.26	47760.97
582.42	47456.70
582.58	47569.05
582.74	47526.92
582.90	47587.77
583.06	47789.06
583.22	47274.14
583.38	47791.40
583.54	47760.97
583.70	47882.68
583.86	47690.76
584.02	47203.92
584.18	48224.40
584.34	47915.45
584.50	48186.95
584.66	47552.66
584.82	47517.56
584.98	48233.76
585.14	47973.96
585.30	47643.94
585.46	47800.76
585.62	47805.44
585.78	47667.35
585.94	47281.16
586.10	47470.75
586.26	47674.37
586.42	47512.88
586.58	47772.67
586.74	47721.18
586.90	47737.57
587.06	47250.74
587.22	47498.83
587.38	47388.83
587.54	48011.41
587.70	48142.48
587.86	47648.63
588.02	47824.17
588.18	47983.32
588.34	47744.59
588.49	47739.91
588.65	47564.37
588.81	47793.74
588.97	48011.41
589.13	47634.58
589.29	47760.97
589.45	48062.90
589.61	47718.84
589.77	48229.08
589.93	48186.95
590.08	47938.85
590.24	48098.01
590.40	48025.45
590.56	48339.08
590.72	48596.54
590.88	47604.16
591.04	48147.16
591.20	47695.44
591.35	48605.91
591.51	48453.77
591.67	48048.86
591.83	48172.91
591.99	47817.14
592.15	48055.88
592.31	48301.64
592.46	47866.30
592.62	47889.70
592.78	48266.53
592.94	48240.78
593.10	48353.13
593.26	48570.80
593.41	48327.38
593.57	47814.80
593.73	48170.57
593.89	48341.42
594.05	48701.87
594.20	48488.88
594.36	48690.16
594.52	48477.18
594.68	48657.40
594.84	48327.38
594.99	48474.84
595.15	48467.81
595.31	48559.09
595.47	48381.21
595.62	48240.78
595.78	48374.19
595.94	48465.47
596.10	47980.98
596.25	48395.26
596.41	48259.51
596.57	48224.40
596.73	48758.04
596.88	48449.09
597.04	48294.61
597.20	48355.47
597.36	48523.99
597.51	48502.92
597.67	48119.07
597.83	48736.98
597.99	48584.84
598.14	48711.23
598.30	48722.93
598.46	48542.71
598.61	48758.04
598.77	48282.91
598.93	48584.84
599.09	48605.91
599.24	48697.19
599.40	48669.10
599.56	48409.30
599.71	48994.43
599.87	49127.84
600.03	48746.34
600.18	48545.05
600.34	48673.78
600.50	48556.75
600.65	48727.61
600.81	48561.44
600.97	48994.43
601.12	48856.34
601.28	48456.11
601.44	48823.58
601.59	48350.79
601.75	48903.15
601.91	48633.99
602.06	48631.65
602.22	48472.49
602.37	48617.61
602.53	48664.42
602.69	48685.48
602.84	48699.53
603.00	48362.49
603.16	48652.72
603.31	48865.70
603.47	48641.01
603.62	48559.09
603.78	48975.71
603.94	48725.27
604.09	48945.28
604.25	48179.93
604.40	48467.81
604.56	48797.83
604.71	48971.03
604.87	48224.40
605.03	48362.49
605.18	48556.75
605.34	48713.57
605.49	48566.12
605.65	48428.02
605.80	48268.87
605.96	48268.87
606.12	48465.47
606.27	48706.55
606.43	48175.25
606.58	48891.45
606.74	48435.05
606.89	48456.11
607.05	48924.22
607.20	48753.36
607.36	48371.85
607.51	48449.09
607.67	48285.25
607.82	48357.81
607.98	48301.64
608.13	48151.84
608.29	48191.63
608.44	48783.79
608.60	48327.38
608.75	48458.45
608.91	48388.24
609.06	48301.64
609.22	48287.59
609.37	48395.26
609.53	48390.58
609.68	48357.81
609.84	48409.30
609.99	48186.95
610.15	48470.15
610.30	48711.23
610.46	47810.12
610.61	48446.75
610.76	48048.86
610.92	48339.08
611.07	47941.19
611.23	47580.75
611.38	48168.22
611.54	48341.42
611.69	48376.53
611.84	48016.09
612.00	48030.13
612.15	47978.64
612.31	48385.89
612.46	47798.42
612.62	48074.60
612.77	48083.97
612.92	48390.58
613.08	48261.85
613.23	47941.19
613.39	47910.77
613.54	47995.03
613.69	48385.89
613.85	48193.97
614.00	48240.78
614.15	48060.56
614.31	48025.45
614.46	48299.30
614.62	47655.65
614.77	47835.87
614.92	47985.66
615.08	48222.06
615.23	48093.33
615.38	47716.50
615.54	47721.18
615.69	48224.40
615.84	47833.53
616.00	47702.46
616.15	47625.22
616.30	47657.99
616.46	48060.56
616.61	48149.50
616.76	47952.90
616.92	47643.94
617.07	47894.38
617.22	47608.84
617.37	47363.08
617.53	47723.52
617.68	47641.60
617.83	47398.19
617.99	47894.38
618.14	47686.07
618.29	47653.31
618.45	47730.54
618.60	47433.30
618.75	47103.28
618.90	47133.71
619.06	47402.87
619.21	47484.79
619.36	47599.47
619.51	47154.77
619.67	47461.38
619.82	47232.01
619.97	47632.24
620.12	47489.47
620.28	47281.16
620.43	47271.80
620.58	47192.22
620.73	47157.11
620.89	47351.38
621.04	47203.92
621.19	47524.58
621.34	46775.61
621.49	47007.32
621.65	46930.08
621.80	47241.37
621.95	47117.32
622.10	47189.88
622.25	46799.01
622.41	47119.66
622.56	47056.47
622.71	47070.51
622.86	46955.83
623.01	47014.34
623.16	47058.81
623.32	46869.23
623.47	47035.41
623.62	46721.77
623.77	46621.13
623.92	46972.21
624.07	47042.43
624.23	46841.14
624.38	46976.89
624.53	46628.15
624.68	46548.57
624.83	46660.92
624.98	46672.62
625.13	46373.03
625.29	46146.00
625.44	46698.37
625.59	46485.38
625.74	46527.51
625.89	46216.22
626.04	46511.13
626.19	46391.76
626.34	46480.70
626.49	46045.36
626.65	46136.64
626.80	46213.88
626.95	46323.88
627.10	45961.10
627.25	46438.57
627.40	46099.19
627.55	46323.88
627.70	46546.23
627.85	46600.07
628.00	46492.40
628.15	46150.68
628.30	45879.18
628.45	45823.01
628.60	45509.38
628.76	45996.21
628.91	45904.93
629.06	45581.93
629.21	45691.94
629.36	45750.45
629.51	45698.96
629.66	46375.37
629.81	46033.66
629.96	46267.71
630.11	45933.01
630.26	45464.91
630.41	45820.67
630.56	45972.80
630.71	45991.53
630.86	45794.92
631.01	45186.38
631.16	45500.01
631.31	45411.07
631.46	45675.55
631.61	45769.18
631.76	46033.66
631.91	45633.42
632.06	46291.12
632.21	46073.45
632.36	46024.29
632.51	45256.60
632.66	45439.16
632.81	45352.56
632.96	45460.23
633.10	45345.54
633.25	45340.86
633.40	45345.54
633.55	45720.02
633.70	45137.23
633.85	44776.79
634.00	45317.45
634.15	45146.59
634.30	44868.07
634.45	45392.35
634.60	45003.82
634.75	45284.68
634.90	44809.56
635.05	45340.86
635.19	44935.95
635.34	45127.87
635.49	45008.50
635.64	45483.63
635.79	45038.93
635.94	44790.83
636.09	45277.66
636.24	45001.48
636.39	44910.20
636.53	45055.31
636.68	45123.19
636.83	44488.90
636.98	44926.58
637.13	44154.21
637.28	44446.77
637.43	44322.72
637.57	44797.85
637.72	44163.57
637.87	44301.66
638.02	44280.60
638.17	44189.31
638.32	44055.90
638.46	43810.15
638.61	44271.23
638.76	44423.37
638.91	44680.83
639.06	43924.83
639.20	43934.20
639.35	44245.49
639.50	44091.01
639.65	44002.07
639.80	44346.13
639.94	44790.83
640.09	44409.32
640.24	44165.91
640.39	43805.47
640.54	43793.76
640.68	44072.29
640.83	44444.43
640.98	44147.18
641.13	43796.10
641.27	44477.20
641.42	44107.40
641.57	44062.93
641.72	44154.21
641.86	43620.56
642.01	43566.73
642.16	43849.94
642.31	43463.75
642.45	43838.23
642.60	43391.19
642.75	43629.93
642.90	44186.97
643.04	43686.10
643.19	43711.84
643.34	43592.48
643.48	43154.80
643.63	43250.76
643.78	43782.06
643.93	44126.12
644.07	43473.11
644.22	43435.66
644.37	43503.54
644.51	43285.87
644.66	43496.52
644.81	43519.92
644.95	43702.48
645.10	43517.58
645.25	43215.65
645.39	43414.60
645.54	43171.18
645.69	42967.55
645.83	42976.92
645.98	42913.72
646.13	42904.36
646.27	42792.01
646.42	43126.71
646.57	43051.81
646.71	43363.11
646.86	43164.16
647.00	43070.54
647.15	43175.86
647.30	43119.69
647.44	43061.18
647.59	43103.31
647.74	43115.01
647.88	42820.10
648.03	42913.72
648.17	43320.98
648.32	42932.45
648.47	43021.39
648.61	42466.68
648.76	42775.63
648.90	42520.51
649.05	42766.27
649.20	42431.57
649.34	42682.01
649.49	42927.77
649.63	42586.05
649.78	42990.96
649.92	42986.28
650.07	42878.61
650.21	42682.01
650.36	42784.99
650.51	43199.27
650.65	43021.39
650.80	43040.11
650.94	42988.62
651.09	42375.40
651.23	41598.34
651.38	42321.57
651.52	42124.96
651.67	42469.02
651.81	42202.20
651.96	42197.52
652.10	41464.93
652.25	41818.35
652.39	42387.10
652.54	42347.31
652.68	41888.57
652.83	41989.21
652.97	42085.17
653.12	42438.59
653.26	42043.04
653.41	42190.50
653.55	42115.60
653.70	42314.55
653.84	42155.39
653.99	42176.45
654.13	41640.47
654.27	42188.16
654.42	41853.46
654.56	41785.58
654.71	41759.84
654.85	41677.92
655.00	42131.98
655.14	41703.67
655.29	42075.81
655.43	42424.55
655.57	41603.02
655.72	41504.72
655.86	41553.87
656.01	41338.54
656.15	41280.03
656.30	41284.71
656.44	41858.14
656.58	41563.23
656.73	41525.78
656.87	40818.94
657.01	40807.24
657.16	41467.27
657.30	41556.21
657.45	41375.99
657.59	41008.53
657.73	40891.50
657.88	41020.23
658.02	41071.72
658.16	41368.97
658.31	41125.55
658.45	40847.03
658.60	40868.09
658.74	41263.64
658.88	40938.31
659.03	40620.00
659.17	40854.05
659.31	40383.60
659.46	40886.82
659.60	40776.81
659.74	40589.57
659.89	40715.96
660.03	40311.05
660.17	40896.18
660.32	40184.66
660.46	40636.38
660.60	40231.47
660.74	40217.43
660.89	40367.22
661.03	40114.44
661.17	39821.87
661.32	39672.08
661.46	40130.83
661.60	39849.96
661.74	39608.89
661.89	39487.18
662.03	40102.74
662.17	39779.74
662.31	39454.41
662.46	39887.41
662.60	39501.22
662.74	39573.78
662.88	39297.59
663.03	39428.66
663.17	39431.01
663.31	39447.39
663.45	39819.53
663.60	40294.66
663.74	39690.80
663.88	39552.71
664.02	39239.08
664.17	39285.89
664.31	39133.76
664.45	38918.43
664.59	38859.91
664.73	38911.41
664.88	39166.52
665.02	38796.72
665.16	38604.80
665.30	38541.60
665.44	38766.29
665.59	38078.18
665.73	38106.26
665.87	37797.31
666.01	38834.17
666.15	38520.54
666.29	38174.14
666.44	38206.90
666.58	38230.31
666.72	38253.72
666.86	38518.20
667.00	38017.32
667.14	37897.95
667.28	37748.16
667.43	38176.48
667.57	38323.93
667.71	38089.88
667.85	37972.85
667.99	37574.96
668.13	37528.15
668.27	37324.52
668.41	37111.53
668.56	36746.41
668.70	37251.97
668.84	36896.20
668.98	36725.35
669.12	37017.91
669.26	37331.54
669.40	37148.98
669.54	37043.66
669.68	37146.64
669.82	36879.82
669.96	36341.50
670.10	36334.48
670.25	36238.51
670.39	36395.33
670.53	36437.46
670.67	36229.15
670.81	36428.10
670.95	36327.45
671.09	36376.61
671.23	36070.00
671.37	36301.71
671.51	35969.35
671.65	35629.98
671.79	35775.09
671.93	35718.92
672.07	35934.24
672.21	35931.90
672.35	35952.97
672.49	35737.64
672.63	35910.84
672.77	35407.62
672.91	35718.92
673.05	35255.49
673.19	35044.84
673.33	35274.21
673.47	34953.56
673.61	35126.76
673.75	34696.10
673.89	34979.31
674.03	34691.42
674.17	34459.71
674.31	34672.70
674.45	34223.31
674.59	34155.44
674.73	34483.11
674.87	34340.34
675.01	33921.38
675.15	33741.16
675.29	33795.00
675.43	33715.42
675.56	33818.40
675.70	33476.68
675.84	33682.65
675.98	32531.11
676.12	33455.62
676.26	33514.13
676.40	33305.82
676.54	32964.10
676.68	32861.12
676.82	32465.57
676.96	32975.81
677.10	33308.16
677.23	32886.87
677.37	32659.84
677.51	32524.08
677.65	32725.37
677.79	32430.46
677.93	31915.54
678.07	32313.44
678.21	31974.06
678.34	32048.96
678.48	31857.03
678.62	31964.70
678.76	31765.75
678.90	31697.88
679.04	31634.68
679.18	31508.29
679.31	31180.62
679.45	31501.27
679.59	30923.16
679.73	31274.24
679.87	30852.94
680.00	30618.89
680.14	30572.08
680.28	31098.70
680.42	30822.51
680.56	30583.78
680.70	30244.40
680.83	30174.19
680.97	29706.08
681.11	29802.04
681.25	30309.94
681.39	29825.45
681.52	29766.93
681.66	29282.44
681.80	29034.35
681.94	29153.71
682.07	29317.55
682.21	28961.79
682.35	28989.88
682.49	29259.04
682.62	29347.98
682.76	29095.20
682.90	28849.44
683.04	28514.75
683.17	28875.19
683.31	28453.89
683.45	28510.07
683.59	28037.28
683.72	27623.00
683.86	27896.85
684.00	27688.54
684.13	27782.16
684.27	27583.21
684.41	27805.56
684.55	27374.91
684.68	27646.41
684.82	27494.27
684.96	27482.57
685.09	27288.31
685.23	27325.75
685.37	27557.47
685.50	27723.65
685.64	26904.46
685.78	26396.56
685.91	26827.22
686.05	26412.95
686.19	26064.21
686.32	26001.01
686.46	26087.61
686.60	25689.72
686.73	25954.20
686.87	25867.60
687.01	25860.58
687.14	25827.81
687.28	25895.69
687.42	25692.06
687.55	25671.00
687.69	25270.76
687.82	25050.75
687.96	25043.73
688.10	25020.33
688.23	25394.81
688.37	24926.71
688.50	25336.30
688.64	24797.98
688.78	24877.55
688.91	24797.98
689.05	24304.12
689.18	24084.11
689.32	23850.06
689.46	24121.56
689.59	23800.91
689.73	24091.13
689.86	24151.99
690.00	23917.93
690.13	23931.98
690.27	23655.79
690.41	23826.65
690.54	23353.87
690.68	23398.34
690.81	23220.45
690.95	23122.15
691.08	22892.78
691.22	22899.80
691.35	22733.62
691.49	23140.88
691.62	22831.93
691.76	22485.53
691.89	22546.38
692.03	22274.88
692.16	21926.14
692.30	22120.40
692.43	21862.94
692.57	21558.67
692.70	21994.01
692.84	21638.25
692.97	21448.67
693.11	21617.19
693.24	21319.94
693.38	21195.89
693.51	20924.39
693.65	21163.12
693.78	21177.17
693.92	20900.98
694.05	20807.36
694.19	20985.24
694.32	20823.75
694.45	20924.39
694.59	20975.88
694.72	20854.17
694.86	20386.07
694.99	20081.80
695.13	20252.66
695.26	19948.39
695.39	20049.03
695.53	19871.15
695.66	20020.94
695.80	19545.81
695.93	19669.86
696.07	19433.47
696.20	18937.27
696.33	19316.44
696.47	19197.07
696.60	19199.41
696.73	19403.04
696.87	19187.71
697.00	19215.80
697.14	18740.67
697.27	18913.87
697.40	18677.48
697.54	18642.37
697.67	18389.59
697.80	18508.96
697.94	18321.71
698.07	18429.38
698.21	18263.20
698.34	18572.15
698.47	18090.00
698.61	17671.04
698.74	17640.62
698.87	17767.01
699.01	17736.58
699.14	17748.28
699.27	17537.63
699.40	17549.34
699.54	17319.96
699.67	17261.45
699.80	17387.84
699.94	17231.02
700.07	17380.82
700.20	17202.94
700.34	17149.11
700.47	16961.86
700.60	16861.22
700.73	16704.40
700.87	16566.31
701.00	16702.06
701.13	16608.44
701.26	16470.35
701.40	16243.32
701.53	16423.54
701.66	16369.71
701.79	16159.06
701.93	15899.26
702.06	15810.32
702.19	15915.64
702.32	15934.37
702.46	15999.90
702.59	15716.70
702.72	15777.55
702.85	15660.52
702.99	15620.74
703.12	15115.18
703.25	15473.28
703.38	15192.42
703.51	15005.17
703.65	14892.83
703.78	14860.06
703.91	14593.24
704.04	14871.76
704.17	14427.06
704.31	14656.43
704.44	14778.14
704.57	14506.64
704.70	14342.80
704.83	14274.93
704.96	14153.22
705.10	14232.80
705.23	14359.19
>>>>>End Processed Spectral Data<<<<<
