SpectraSuite Data File
++++++++++++++++++++++++++++++++++++
Date: Fri Oct 25 10:47:57 EDT 2013
User: price-jones
Dark Spectrum Present: No
Reference Spectrum Present: No
Number of Sampled Component Spectra: 1
Spectrometers: USB2+H05261
Integration Time (usec): 100000 (USB2+H05261)
Spectra Averaged: 1 (USB2+H05261)
Boxcar Smoothing: 0 (USB2+H05261)
Correct for Electrical Dark: No (USB2+H05261)
Strobe/Lamp Enabled: No (USB2+H05261)
Correct for Detector Non-linearity: No (USB2+H05261)
Correct for Stray Light: No (USB2+H05261)
Number of Pixels in Processed Spectrum: 2048
>>>>>Begin Processed Spectral Data<<<<<
365.73	152.13
365.92	152.13
366.12	152.13
366.32	72.56
366.52	63.19
366.72	56.17
366.91	23.41
367.11	21.06
367.31	23.41
367.51	60.85
367.70	11.70
367.90	16.38
368.10	39.79
368.30	0.00
368.49	86.60
368.69	60.85
368.89	46.81
369.09	138.09
369.28	74.90
369.48	49.15
369.68	93.62
369.87	135.75
370.07	184.90
370.27	224.69
370.47	248.10
370.66	330.02
370.86	437.68
371.06	369.80
371.25	435.34
371.45	409.59
371.65	463.43
371.84	418.96
372.04	475.13
372.24	503.22
372.44	409.59
372.63	505.56
372.83	423.64
373.03	500.87
373.22	545.34
373.42	521.94
373.62	507.90
373.81	528.96
374.01	603.86
374.21	568.75
374.40	559.39
374.60	603.86
374.79	484.49
374.99	580.45
375.19	543.00
375.38	517.26
375.58	547.69
375.78	491.51
375.97	510.24
376.17	557.05
376.37	620.24
376.56	669.39
376.76	528.96
376.95	561.73
377.15	526.62
377.35	641.31
377.54	624.92
377.74	566.41
377.93	486.83
378.13	582.79
378.33	603.86
378.52	601.52
378.72	650.67
378.91	620.24
379.11	610.88
379.31	641.31
379.50	617.90
379.70	685.78
379.89	678.76
380.09	610.88
380.28	608.54
380.48	650.67
380.68	667.05
380.87	641.31
381.07	732.59
381.26	755.99
381.46	685.78
381.65	627.26
381.85	671.73
382.04	615.56
382.24	669.39
382.43	746.63
382.63	655.35
382.83	678.76
383.02	645.99
383.22	655.35
383.41	788.76
383.61	645.99
383.80	718.54
384.00	692.80
384.19	702.16
384.39	692.80
384.58	765.36
384.78	772.38
384.97	758.33
385.17	807.48
385.36	791.10
385.56	702.16
385.75	699.82
385.95	786.42
386.14	779.40
386.34	826.21
386.53	814.51
386.72	788.76
386.92	763.01
387.11	802.80
387.31	828.55
387.50	763.01
387.70	774.72
387.89	779.40
388.09	730.25
388.28	821.53
388.48	823.87
388.67	901.11
388.86	896.43
389.06	823.87
389.25	910.47
389.45	936.21
389.64	903.45
389.84	908.13
390.03	943.24
390.22	861.32
390.42	840.25
390.61	903.45
390.81	924.51
391.00	999.41
391.19	954.94
391.39	971.32
391.58	889.40
391.78	908.13
391.97	929.19
392.16	959.62
392.36	957.28
392.55	931.53
392.75	940.90
392.94	940.90
393.13	947.92
393.33	952.60
393.52	990.05
393.71	915.15
393.91	1055.58
394.10	1027.50
394.29	1034.52
394.49	1076.65
394.68	1109.41
394.88	1132.82
395.07	1097.71
395.26	1100.05
395.46	1081.33
395.65	1111.75
395.84	1067.28
396.04	1116.44
396.23	1116.44
396.42	1118.78
396.62	1004.09
396.81	1156.22
397.00	1144.52
397.19	1252.19
397.39	1224.10
397.58	1245.16
397.77	1256.87
397.97	1207.72
398.16	1240.48
398.35	1235.80
398.55	1247.51
398.74	1261.55
398.93	1409.00
399.12	1362.19
399.32	1362.19
399.51	1448.79
399.70	1490.92
399.90	1397.30
400.09	1460.49
400.28	1348.15
400.47	1413.68
400.67	1444.11
400.86	1441.77
401.05	1434.75
401.24	1504.96
401.44	1474.54
401.63	1523.69
401.82	1568.16
402.01	1394.96
402.21	1596.25
402.40	1458.15
402.59	1558.80
402.78	1488.58
402.97	1523.69
403.17	1614.97
403.36	1530.71
403.55	1701.57
403.74	1577.52
403.93	1614.97
404.13	1682.85
404.32	1561.14
404.51	1696.89
404.70	1678.16
404.89	1631.35
405.09	1820.94
405.28	1739.02
405.47	1699.23
405.66	1792.85
405.85	1813.92
406.05	1877.11
406.24	1858.39
406.43	1687.53
406.62	1874.77
406.81	1970.73
407.00	1823.28
407.20	1790.51
407.39	1839.66
407.58	1919.24
407.77	1830.30
407.96	1799.87
408.15	2015.20
408.34	2012.86
408.54	2029.24
408.73	1886.47
408.92	1977.75
409.11	2008.18
409.30	2008.18
409.49	2083.08
409.68	1994.14
409.87	2064.35
410.07	2069.03
410.26	2139.25
410.45	2101.80
410.64	2071.37
410.83	2202.44
411.02	2150.95
411.21	2230.53
411.40	2193.08
411.59	2207.13
411.78	2312.45
411.98	2317.13
412.17	2167.34
412.36	2375.64
412.55	2349.90
412.74	2441.18
412.93	2375.64
413.12	2438.84
413.31	2572.25
413.50	2490.33
413.69	2590.97
413.88	2621.40
414.07	2649.49
414.26	2658.85
414.45	2574.59
414.64	2544.16
414.83	2633.10
415.02	2670.55
415.22	2743.11
415.41	2661.19
415.60	2628.42
415.79	2710.34
415.98	2778.22
416.17	2750.13
416.36	2771.19
416.55	2813.32
416.74	2881.20
416.93	2949.08
417.12	2839.07
417.31	2988.86
417.50	2878.86
417.69	3014.61
417.88	2998.23
418.07	3098.87
418.26	2951.42
418.45	2899.92
418.64	3204.19
418.83	3164.40
419.02	3040.36
419.21	3222.92
419.39	3185.47
419.58	3136.32
419.77	3089.51
419.96	3232.28
420.15	3293.13
420.34	3290.79
420.53	3258.03
420.72	3368.03
420.91	3445.27
421.10	3396.12
421.29	3382.07
421.48	3311.86
421.67	3482.72
421.86	3506.12
422.05	3466.33
422.24	3445.27
422.43	3461.65
422.61	3513.14
422.80	3461.65
422.99	3438.25
423.18	3658.26
423.37	3644.21
423.56	3480.38
423.75	3424.20
423.94	3463.99
424.13	3243.98
424.32	3461.65
424.50	3506.12
424.69	3569.32
424.88	3588.04
425.07	3417.18
425.26	3391.44
425.45	3609.11
425.64	3522.51
425.83	3454.63
426.01	3648.90
426.20	3721.45
426.39	3506.12
426.58	3501.44
426.77	3660.60
426.96	3581.02
427.15	3620.81
427.33	3749.54
427.52	3611.45
427.71	3646.55
427.90	3672.30
428.09	3592.72
428.28	3632.51
428.46	3850.18
428.65	3735.50
428.84	3782.31
429.03	3861.88
429.22	3679.32
429.40	3815.07
429.59	3775.28
429.78	3515.48
429.97	3576.34
430.16	3646.55
430.34	3899.33
430.53	3817.41
430.72	3995.29
430.91	3985.93
431.10	3845.50
431.28	4058.49
431.47	3950.82
431.66	4187.22
431.85	3992.95
432.03	4152.11
432.22	4245.73
432.41	4215.30
432.60	4133.39
432.79	4168.49
432.97	4084.23
433.16	4252.75
433.35	4273.82
433.54	4159.13
433.72	4219.99
433.91	4234.03
434.10	4280.84
434.28	4227.01
434.47	4519.57
434.66	4369.78
434.85	4423.61
435.03	4344.03
435.22	4374.46
435.41	4566.39
435.59	4477.44
435.78	4512.55
435.97	4613.20
436.16	4599.15
436.34	4517.23
436.53	4629.58
436.72	4706.82
436.90	4606.17
437.09	4493.83
437.28	4414.25
437.46	4535.96
437.65	4685.75
437.84	4856.61
438.02	4662.35
438.21	4636.60
438.40	4573.41
438.58	4772.35
438.77	4959.60
438.96	4697.46
439.14	4840.23
439.33	5008.75
439.52	5160.88
439.70	5163.22
439.89	5039.17
440.08	5135.14
440.26	5203.01
440.45	5153.86
440.63	5160.88
440.82	5371.53
441.01	5387.91
441.19	5210.03
441.38	5371.53
441.57	5516.64
441.75	5373.87
441.94	5518.98
442.12	5341.10
442.31	5694.52
442.50	5600.90
442.68	5689.84
442.87	5633.67
443.05	5518.98
443.24	5802.19
443.43	5561.11
443.61	5692.18
443.80	5760.06
443.98	5654.73
444.17	5544.73
444.35	5645.37
444.54	5781.12
444.73	5762.40
444.91	5706.23
445.10	5832.62
445.28	5738.99
445.47	5767.08
445.65	5820.91
445.84	5949.64
446.02	5703.89
446.21	5874.74
446.39	5921.56
446.58	5937.94
446.77	5881.77
446.95	5713.25
447.14	6008.16
447.32	5956.66
447.51	5837.30
447.69	6080.71
447.88	6092.41
448.06	5851.34
448.25	5982.41
448.43	5935.60
448.62	6017.52
448.80	6038.58
448.99	5977.73
449.17	6033.90
449.36	6122.84
449.54	6087.73
449.73	6356.90
449.91	6331.15
450.10	6235.19
450.28	6424.77
450.46	6267.95
450.65	6513.71
450.83	6284.34
451.02	6424.77
451.20	6497.33
451.39	6422.43
451.57	6179.01
451.76	6349.87
451.94	6698.61
452.13	6466.90
452.31	6377.96
452.49	6394.34
452.68	6354.55
452.86	6406.05
453.05	6502.01
453.23	6663.51
453.42	6509.03
453.60	6476.26
453.78	6555.84
453.97	6399.02
454.15	6576.91
454.34	6609.67
454.52	6764.15
454.70	6724.36
454.89	6827.34
455.07	6869.47
455.26	6848.41
455.44	6853.09
455.62	6782.87
455.81	6913.94
455.99	6899.90
456.17	6857.77
456.36	7012.24
456.54	6977.14
456.73	7208.85
456.91	7206.51
457.09	7133.95
457.28	7475.67
457.46	7077.78
457.64	7302.47
457.83	7309.49
458.01	7192.47
458.19	7400.77
458.38	7243.96
458.56	7297.79
458.74	7194.81
458.93	7323.54
459.11	7253.32
459.29	7335.24
459.48	7363.33
459.66	7489.71
459.84	7400.77
460.03	7445.24
460.21	7676.96
460.39	7744.83
460.57	7588.02
460.76	7588.02
460.94	7815.05
461.12	7632.49
461.31	7730.79
461.49	7723.77
461.67	7875.90
461.85	7854.84
462.04	7747.17
462.22	8444.65
462.40	7796.32
462.59	7915.69
462.77	7882.92
462.95	8116.98
463.13	7857.18
463.32	7974.21
463.50	7960.16
463.68	8226.98
463.86	8138.04
464.05	8023.36
464.23	7920.37
464.41	8250.39
464.59	7920.37
464.78	8252.73
464.96	8135.70
465.14	8212.94
465.32	8304.22
465.50	8229.32
465.69	8390.82
465.87	8381.46
466.05	8255.07
466.23	8189.53
466.41	8294.86
466.60	8444.65
466.78	8318.26
466.96	8210.60
467.14	8442.31
467.32	8592.11
467.51	8531.25
467.69	8252.73
467.87	8297.20
468.05	8454.02
468.23	8393.16
468.41	8692.75
468.60	8465.72
468.78	8828.50
468.96	8528.91
469.14	8643.60
469.32	8835.52
469.50	8564.02
469.69	8802.75
469.87	8882.33
470.05	8823.82
470.23	8847.22
470.41	8833.18
470.59	9006.38
470.77	8830.84
470.95	8786.37
471.14	9006.38
471.32	9076.60
471.50	9376.19
471.68	9312.99
471.86	9301.29
472.04	9027.45
472.22	9502.58
472.40	9156.18
472.58	9123.41
472.77	9434.70
472.95	9525.98
473.13	9729.61
473.31	9430.02
473.49	9537.68
473.67	9493.21
473.85	9462.79
474.03	9958.98
474.21	9748.33
474.39	9961.32
474.57	9935.57
474.75	10080.69
474.93	10080.69
475.12	9994.09
475.30	10270.27
475.48	9977.70
475.66	10218.78
475.84	10146.22
476.02	10181.33
476.20	10401.34
476.38	10581.56
476.56	10642.42
476.74	10700.93
476.92	10443.47
477.10	10733.70
477.28	10995.84
477.46	10815.62
477.64	10881.15
477.82	11117.54
478.00	11169.04
478.18	11316.49
478.36	11269.68
478.54	11485.01
478.72	11279.04
478.90	11651.19
479.08	11845.45
479.26	11726.08
479.44	11765.87
479.62	11983.54
479.80	12088.87
479.98	12217.60
480.16	12393.14
480.34	12222.28
480.52	12461.01
480.70	12360.37
480.88	12444.63
481.06	12685.70
481.24	12512.50
481.41	12835.50
481.59	13062.53
481.77	12919.76
481.95	12954.87
482.13	12957.21
482.31	13151.47
482.49	13673.41
482.67	13425.31
482.85	13226.37
483.03	13549.36
483.21	13813.84
483.39	14085.34
483.57	13839.59
483.74	14125.13
483.92	14162.58
484.10	13853.63
484.28	14274.93
484.46	14581.54
484.64	14733.67
484.82	14726.65
485.00	14843.68
485.18	15007.52
485.35	15080.07
485.53	14949.00
485.71	14960.70
485.89	15267.31
486.07	15264.97
486.25	15169.01
486.43	15232.21
486.61	15660.52
486.78	15681.59
486.96	15997.56
487.14	16027.99
487.32	16046.71
487.50	16287.79
487.68	16517.16
487.85	16720.79
488.03	16744.19
488.21	16987.61
488.39	17097.61
488.57	17046.12
488.75	17254.43
488.92	17341.03
489.10	17689.77
489.28	17528.27
489.46	17701.47
489.64	17947.23
489.81	18101.70
489.99	18078.30
490.17	18328.74
490.35	18609.60
490.53	18466.83
490.70	18726.63
490.88	18647.05
491.06	19159.63
491.24	19077.71
491.41	19026.21
491.59	18972.38
491.77	18899.83
491.95	19405.38
492.13	19709.65
492.30	19527.09
492.48	19714.33
492.66	19826.68
492.84	19847.74
493.01	19894.55
493.19	20311.17
493.37	20589.69
493.54	20465.64
493.72	20575.65
493.90	20659.91
494.08	20943.11
494.25	21095.25
494.43	20807.36
494.61	20943.11
494.79	21345.69
494.96	21123.33
495.14	21488.46
495.32	21631.23
495.49	21561.02
495.67	21549.31
495.85	21755.28
496.02	22141.47
496.20	22457.44
496.38	22525.32
496.55	22429.35
496.73	22895.12
496.91	22515.95
497.09	22841.29
497.26	23023.85
497.44	22888.10
497.62	22958.31
497.79	23143.22
497.97	23042.57
498.14	23562.17
498.32	23452.17
498.50	23325.78
498.67	23838.36
498.85	23742.39
499.03	24159.01
499.20	23754.10
499.38	23880.49
499.56	24276.04
499.73	24491.37
499.91	24400.08
500.08	24477.32
500.26	24479.66
500.44	24606.05
500.61	24692.65
500.79	24329.87
500.97	24898.62
501.14	25001.60
501.32	25392.47
501.49	24957.13
501.67	24826.06
501.84	25064.80
502.02	25516.52
502.20	25450.99
502.37	25776.32
502.55	25495.46
502.72	25486.09
502.90	25778.66
503.07	25923.77
503.25	25743.55
503.43	25687.38
503.60	25879.30
503.78	26047.82
503.95	25989.31
504.13	26232.72
504.30	26391.88
504.48	26188.25
504.65	26494.86
504.83	27227.45
505.01	26916.16
505.18	26986.38
505.36	27243.84
505.53	26918.50
505.71	27126.81
505.88	27475.55
506.06	26892.76
506.23	27510.66
506.41	27115.11
506.58	27494.27
506.76	27812.59
506.93	27716.62
507.11	27765.78
507.28	27728.33
507.46	28112.17
507.63	28016.21
507.81	27913.23
507.98	27641.73
508.16	27990.47
508.33	28212.82
508.50	28386.02
508.68	28460.91
508.85	28765.18
509.03	28458.57
509.20	28659.86
509.38	28863.49
509.55	28975.83
509.73	28765.18
509.90	28727.74
510.08	29106.90
510.25	29294.14
510.42	29230.95
510.60	29027.32
510.77	29455.64
510.95	30019.71
511.12	29406.49
511.30	29708.42
511.47	29802.04
511.64	30012.69
511.82	30286.53
511.99	29972.90
512.17	30010.35
512.34	29823.11
512.51	29984.60
512.69	30204.61
512.86	30265.47
513.04	30761.66
513.21	30574.42
513.38	30504.20
513.56	30742.94
513.73	30623.57
513.90	30621.23
514.08	30562.72
514.25	31037.84
514.43	30780.39
514.60	30548.67
514.77	30881.03
514.95	31150.19
515.12	31344.45
515.29	31140.83
515.47	31662.77
515.64	31833.63
515.81	31489.57
515.99	31569.15
516.16	31791.50
516.33	31732.98
516.51	31931.93
516.68	31405.31
516.85	31772.77
517.03	31700.22
517.20	31952.99
517.37	32004.49
517.54	32051.30
517.72	32196.41
517.89	31964.70
518.06	31999.80
518.24	32123.85
518.41	31985.76
518.58	32453.87
518.75	32425.78
518.93	32826.01
519.10	32706.65
519.27	33024.96
519.45	33163.05
519.62	32708.99
519.79	32826.01
519.96	32900.91
520.14	32992.19
520.31	33443.91
520.48	33092.83
520.65	33200.50
520.83	33610.09
521.00	33617.11
521.17	33582.01
521.34	33848.83
521.52	34015.01
521.69	33684.99
521.86	33647.54
522.03	33741.16
522.20	33897.98
522.38	34190.55
522.55	34043.09
522.72	34143.74
522.89	33975.22
523.07	34354.38
523.24	34150.76
523.41	34356.72
523.58	34455.03
523.75	34792.06
523.92	34490.13
524.10	34698.44
524.27	34483.11
524.44	34953.56
524.61	35196.98
524.78	35379.54
524.96	35192.30
525.13	35349.11
525.30	35363.15
525.47	35189.95
525.64	35166.55
525.81	35342.09
525.98	35339.75
526.16	35105.70
526.33	35023.78
526.50	35716.58
526.67	35356.13
526.84	35756.36
527.01	35075.27
527.18	35393.58
527.36	35761.05
527.53	35761.05
527.70	36411.71
527.87	36203.41
528.04	35952.97
528.21	36168.30
528.38	36107.44
528.55	36275.96
528.72	36538.10
528.89	36116.81
529.07	36266.60
529.24	36184.68
529.41	36559.17
529.58	36219.79
529.75	35896.80
529.92	36498.31
530.09	36423.42
530.26	36896.20
530.43	36479.59
530.60	36486.61
530.77	37001.53
530.94	36982.80
531.11	36938.33
531.28	36931.31
531.46	37399.42
531.63	37097.49
531.80	37074.09
531.97	37120.90
532.14	37165.37
532.31	37020.25
532.48	37619.43
532.65	37177.07
532.82	37717.73
532.99	37663.90
533.16	36896.20
533.33	37703.69
533.50	37916.68
533.67	37804.33
533.84	37266.01
534.01	37900.29
534.18	37801.99
534.35	38134.35
534.52	38075.84
534.69	37867.53
534.86	38452.66
535.03	37776.25
535.20	38342.66
535.37	38260.74
535.54	38270.10
535.71	38019.66
535.88	38270.10
536.05	38094.56
536.22	38452.66
536.38	38314.57
536.55	38431.60
536.72	38412.87
536.89	38707.78
537.06	38267.76
537.23	38869.28
537.40	38632.88
537.57	38742.89
537.74	38696.08
537.91	39508.24
538.08	39185.25
538.25	38782.68
538.42	38880.98
538.59	39407.60
538.75	38700.76
538.92	38897.36
539.09	39372.49
539.26	38871.62
539.43	39292.91
539.60	39122.05
539.77	39522.29
539.94	39295.25
540.11	39166.52
540.28	39442.71
540.44	39372.49
540.61	38941.83
540.78	39248.44
540.95	39164.18
541.12	38976.94
541.29	39482.50
541.46	39159.50
541.62	39629.95
541.79	39936.56
541.96	39629.95
542.13	39707.19
542.30	39625.27
542.47	40002.10
542.63	39880.39
542.80	40067.63
542.97	40147.21
543.14	40187.00
543.31	40208.06
543.48	40362.54
543.64	40587.23
543.81	40641.06
543.98	40451.48
544.15	40502.97
544.32	40875.12
544.48	41163.00
544.65	40928.95
544.82	40870.43
544.99	40378.92
545.16	40531.06
545.32	40741.71
545.49	41017.89
545.66	40809.58
545.83	41186.41
546.00	41029.59
546.16	40800.22
546.33	40271.26
546.50	40673.83
546.67	40989.80
546.83	40456.16
547.00	40760.43
547.17	40907.88
547.34	40989.80
547.50	40896.18
547.67	41069.38
547.84	41345.56
548.00	41729.41
548.17	41291.73
548.34	41359.61
548.51	41476.63
548.67	41268.33
548.84	41654.51
549.01	41661.54
549.18	41277.69
549.34	41408.76
549.51	41619.41
549.68	41778.56
549.84	41518.76
550.01	41790.27
550.18	41965.81
550.34	41787.92
550.51	41684.94
550.68	41816.01
550.84	41453.23
551.01	42487.74
551.18	41832.39
551.34	41944.74
551.51	42225.60
551.68	42340.29
551.84	42267.73
552.01	42071.13
552.18	42424.55
552.34	41958.78
552.51	42246.67
552.68	42309.86
552.84	42401.14
553.01	42820.10
553.18	42347.31
553.34	42249.01
553.51	42099.22
553.67	42260.71
553.84	43030.75
554.01	42873.93
554.17	42686.69
554.34	42845.85
554.51	42864.57
554.67	42927.77
554.84	42941.81
555.00	42396.46
555.17	42487.74
555.33	42572.00
555.50	42904.36
555.67	42396.46
555.83	42564.98
556.00	42719.46
556.16	43248.42
556.33	43007.34
556.50	42698.39
556.66	43290.55
556.83	42682.01
556.99	43054.15
557.16	43068.20
557.32	42920.74
557.49	43096.28
557.65	43075.22
557.82	43246.08
557.98	43257.78
558.15	42714.78
558.32	43054.15
558.48	42955.85
558.65	43220.33
558.81	43086.92
558.98	43426.30
559.14	43229.69
559.31	42871.59
559.47	43452.05
559.64	43608.86
559.80	43725.89
559.97	43405.23
560.13	43262.46
560.30	43409.92
560.46	44074.63
560.63	43264.80
560.79	43353.74
560.96	43229.69
561.12	43737.59
561.29	43253.10
561.45	43585.46
561.61	43342.04
561.78	43648.65
561.94	43398.21
562.11	43515.24
562.27	43454.39
562.44	43618.22
562.60	44016.11
562.77	43643.97
562.93	43730.57
563.10	44126.12
563.26	43126.71
563.42	43655.67
563.59	43765.68
563.75	43639.29
563.92	43875.68
564.08	43828.87
564.24	43803.13
564.41	43648.65
564.57	44191.65
564.74	43576.09
564.90	44062.93
565.07	43751.63
565.23	43880.36
565.39	43793.76
565.56	43800.79
565.72	43812.49
565.88	44002.07
566.05	44198.68
566.21	44161.23
566.38	43882.70
566.54	44353.15
566.70	44369.54
566.87	44659.76
567.03	44151.87
567.19	44301.66
567.36	44357.83
567.52	43863.98
567.68	44130.80
567.85	43878.02
568.01	44016.11
568.17	44107.40
568.34	44025.48
568.50	44353.15
568.66	44072.29
568.83	44186.97
568.99	43716.53
569.15	44201.02
569.32	43709.50
569.48	44116.76
569.64	44334.43
569.81	44308.68
569.97	43782.06
570.13	44315.70
570.30	43791.42
570.46	44072.29
570.62	43688.44
570.78	43615.88
570.95	43999.73
571.11	44076.97
571.27	43840.57
571.43	44311.02
571.60	44348.47
571.76	44428.05
571.92	43753.97
572.09	44156.55
572.25	44439.75
572.41	44299.32
572.57	44172.93
572.74	44692.53
572.90	44348.47
573.06	44172.93
573.22	44589.55
573.38	44273.57
573.55	43777.38
573.71	43981.01
573.87	44219.74
574.03	44051.22
574.20	44032.50
574.36	44409.32
574.52	44608.27
574.68	44556.78
574.84	44416.35
575.01	44210.38
575.17	44458.48
575.33	44472.52
575.49	43838.23
575.65	44587.21
575.82	44744.02
575.98	44634.02
576.14	44535.71
576.30	44308.68
576.46	44432.73
576.62	44112.08
576.79	44949.99
576.95	44151.87
577.11	43973.98
577.27	44266.55
577.43	44758.06
577.59	44318.04
577.75	44140.16
577.92	43739.93
578.08	44414.01
578.24	44161.23
578.40	44528.69
578.56	44198.68
578.72	44718.28
578.88	44521.67
579.04	44495.92
579.21	44676.15
579.37	44596.57
579.53	44554.44
579.69	44198.68
579.85	44587.21
580.01	44580.18
580.17	44528.69
580.33	44765.09
580.49	44472.52
580.65	44580.18
580.82	44589.55
580.98	44664.44
581.14	44512.31
581.30	44732.32
581.46	44648.06
581.62	44247.83
581.78	44861.05
581.94	44753.38
582.10	44601.25
582.26	44830.62
582.42	44158.89
582.58	44357.83
582.74	44589.55
582.90	44678.49
583.06	44531.03
583.22	44699.55
583.38	44992.12
583.54	44559.12
583.70	44549.76
583.86	44596.57
584.02	44512.31
584.18	44741.68
584.34	44708.91
584.50	44451.45
584.66	44322.72
584.82	44172.93
584.98	44783.81
585.14	44872.75
585.30	44463.16
585.46	44598.91
585.62	44362.51
585.78	44807.22
585.94	43906.11
586.10	44533.37
586.26	44215.06
586.42	45202.77
586.58	44718.28
586.74	44280.60
586.90	44783.81
587.06	44357.83
587.22	44725.30
587.38	44952.33
587.54	45469.59
587.70	45001.48
587.86	44554.44
588.02	44825.94
588.18	44655.08
588.34	44729.98
588.49	44397.62
588.65	44680.83
588.81	44641.04
588.97	44650.40
589.13	44612.95
589.29	44818.92
589.45	44753.38
589.61	44701.89
589.77	45045.95
589.93	44648.06
590.08	45052.97
590.24	45036.59
590.40	45027.23
590.56	45247.24
590.72	44891.48
590.88	44790.83
591.04	45020.20
591.20	45106.80
591.35	44842.32
591.51	45125.53
591.67	44973.39
591.83	44472.52
591.99	44711.25
592.15	44573.16
592.31	44732.32
592.46	44795.51
592.62	44821.26
592.78	45294.05
592.94	45057.65
593.10	44931.26
593.26	44933.60
593.41	45050.63
593.57	44877.43
593.73	44715.93
593.89	44652.74
594.05	44652.74
594.20	45130.21
594.36	44849.35
594.52	44811.90
594.68	44994.46
594.84	45233.19
594.99	45165.32
595.15	45382.99
595.31	45310.43
595.47	44884.45
595.62	44942.97
595.78	44582.52
595.94	45338.52
596.10	45523.42
596.25	45258.94
596.41	44961.69
596.57	45345.54
596.73	45425.12
596.88	45116.17
597.04	44935.95
597.20	44662.10
597.36	45048.29
597.51	45280.00
597.67	45277.66
597.83	45287.03
597.99	45038.93
598.14	44790.83
598.30	45357.24
598.46	44921.90
598.61	45123.19
598.77	45078.72
598.93	45139.57
599.09	45368.94
599.24	45462.57
599.40	45434.48
599.56	45420.44
599.71	45254.26
599.87	45298.73
600.03	45305.75
600.18	45244.90
600.34	45088.08
600.50	44762.75
600.65	45104.46
600.81	45209.79
600.97	45425.12
601.12	45244.90
601.28	45766.84
601.44	44942.97
601.59	45193.40
601.75	44863.39
601.91	45162.98
602.06	45588.95
602.22	45193.40
602.37	45074.04
602.53	44648.06
602.69	45411.07
602.84	45689.60
603.00	45247.24
603.16	45331.50
603.31	45097.44
603.47	44336.77
603.62	44662.10
603.78	45165.32
603.94	45120.85
604.09	45214.47
604.25	45263.62
604.40	44992.12
604.56	44954.67
604.71	44847.00
604.87	44933.60
605.03	45125.53
605.18	44657.42
605.34	45045.95
605.49	44474.86
605.65	45240.21
605.80	44837.64
605.96	45184.04
606.12	44926.58
606.27	44959.35
606.43	44886.79
606.58	44664.44
606.74	44744.02
606.89	45109.14
607.05	44928.92
607.20	44868.07
607.36	45134.89
607.51	45123.19
607.67	44755.72
607.82	45088.08
607.98	45130.21
608.13	44835.30
608.29	44872.75
608.44	44715.93
608.60	44563.80
608.75	44678.49
608.91	44608.27
609.06	44397.62
609.22	44886.79
609.37	44423.37
609.53	45095.10
609.68	45015.52
609.84	44788.49
609.99	44516.99
610.15	44500.61
610.30	44811.90
610.46	44549.76
610.61	44729.98
610.76	44858.71
610.92	44357.83
611.07	44472.52
611.23	44271.23
611.38	44690.19
611.54	44318.04
611.69	44320.38
611.84	44444.43
612.00	44254.85
612.15	44083.99
612.31	44392.94
612.46	44226.76
612.62	44390.60
612.77	44367.20
612.92	44648.06
613.08	44477.20
613.23	44421.03
613.39	43854.62
613.54	44058.24
613.69	44051.22
613.85	43955.26
614.00	44278.25
614.15	44706.57
614.31	44027.82
614.46	44240.81
614.62	44236.12
614.77	43833.55
614.92	43812.49
615.08	44039.52
615.23	44273.57
615.38	44025.48
615.54	43442.68
615.69	43966.96
615.84	43487.15
616.00	43611.20
616.15	43526.94
616.30	44212.72
616.46	44095.69
616.61	43529.28
616.76	43416.94
616.92	43871.00
617.07	43840.57
617.22	43641.63
617.37	43545.67
617.53	44100.37
617.68	43910.79
617.83	43730.57
617.99	43981.01
618.14	43791.42
618.29	43435.66
618.45	43180.54
618.60	43550.35
618.75	43419.28
618.90	43765.68
619.06	43950.58
619.21	43295.23
619.36	44037.18
619.51	43646.31
619.67	43320.98
619.82	43845.26
619.97	43978.67
620.12	43625.25
620.28	43220.33
620.43	43016.71
620.58	43217.99
620.73	42965.21
620.89	43566.73
621.04	43196.93
621.19	43070.54
621.34	43274.16
621.49	42979.26
621.65	42497.11
621.80	43243.74
621.95	42944.15
622.10	43079.90
622.25	42965.21
622.41	42597.75
622.56	42712.44
622.71	42967.55
622.86	43007.34
623.01	43112.67
623.16	43171.18
623.32	43044.79
623.47	42848.19
623.62	42862.23
623.77	42993.30
623.92	43103.31
624.07	42415.19
624.23	42588.39
624.38	42328.59
624.53	42700.73
624.68	42827.12
624.83	42529.87
624.98	42993.30
625.13	42464.34
625.29	42497.11
625.44	42347.31
625.59	42211.56
625.74	42146.03
625.89	42185.82
626.04	42281.78
626.19	42396.46
626.34	42597.75
626.49	42031.34
626.65	42256.03
626.80	42094.53
626.95	41970.49
627.10	42014.96
627.25	42263.05
627.40	41827.71
627.55	41855.80
627.70	41727.07
627.85	41378.33
628.00	41689.62
628.15	42241.99
628.30	41883.89
628.45	41830.05
628.60	42014.96
628.76	42000.91
628.91	42078.15
629.06	41984.53
629.21	41729.41
629.36	41783.24
629.51	41706.01
629.66	41689.62
629.81	41645.15
629.96	41486.00
630.11	41965.81
630.26	41736.43
630.41	41691.96
630.56	41656.85
630.71	41748.14
630.86	41816.01
631.01	40924.27
631.16	41521.10
631.31	41085.76
631.46	41006.19
631.61	41462.59
631.76	41469.61
631.91	41387.69
632.06	41261.30
632.21	41474.29
632.36	41640.47
632.51	41240.24
632.66	41390.03
632.81	40802.56
632.96	41586.64
633.10	40879.80
633.25	40687.87
633.40	40945.33
633.55	41455.57
633.70	40931.29
633.85	41261.30
634.00	41326.84
634.15	41422.80
634.30	40491.27
634.45	40865.75
634.60	40615.32
634.75	40601.27
634.90	41181.73
635.05	40856.39
635.19	40900.86
635.34	41301.09
635.49	40907.88
635.64	40610.64
635.79	40631.70
635.94	40547.44
636.09	40528.72
636.24	40650.42
636.39	40521.69
636.53	40509.99
636.68	40224.45
636.83	40378.92
636.98	40879.80
637.13	40388.28
637.28	40378.92
637.43	40715.96
637.57	41057.68
637.72	40336.79
637.87	40233.81
638.02	40650.42
638.17	40133.17
638.32	40287.64
638.46	40517.01
638.61	39945.92
638.76	39751.66
638.91	40076.99
639.06	40301.68
639.20	40322.75
639.35	40390.62
639.50	40137.85
639.65	40484.25
639.80	39913.16
639.94	39899.11
640.09	40222.11
640.24	39803.15
640.39	39374.83
640.54	39416.96
640.68	39805.49
640.83	39819.53
640.98	39700.17
641.13	39700.17
641.27	40098.06
641.42	39662.72
641.57	39981.03
641.72	39985.71
641.86	39512.92
642.01	39557.39
642.16	39206.31
642.31	39367.81
642.45	39419.30
642.60	39150.14
642.75	38836.51
642.90	39583.14
643.04	39196.95
643.19	39313.98
643.34	39456.75
643.48	39423.98
643.63	39044.82
643.78	39297.59
643.93	39199.29
644.07	39129.08
644.22	39164.18
644.37	39276.53
644.51	39051.84
644.66	39028.43
644.81	39304.62
644.95	39332.70
645.10	39220.36
645.25	39136.10
645.39	39187.59
645.54	39290.57
645.69	38754.59
645.83	39126.74
645.98	38703.10
646.13	39089.29
646.27	39257.81
646.42	38848.21
646.57	38714.80
646.71	38993.32
646.86	38958.22
647.00	38745.23
647.15	38721.82
647.30	38560.33
647.44	38370.74
647.59	38719.48
647.74	38309.89
647.88	38534.58
648.03	38321.59
648.17	38373.08
648.32	38136.69
648.47	38724.16
648.61	38492.45
648.76	38588.41
648.90	38677.35
649.05	38899.70
649.20	38934.81
649.34	38522.88
649.49	38136.69
649.63	38384.79
649.78	38281.80
649.92	37982.21
650.07	38665.65
650.21	37970.51
650.36	38237.33
650.51	38752.25
650.65	38536.92
650.80	38450.32
650.94	38335.63
651.09	38576.71
651.23	37769.22
651.38	38026.68
651.52	37825.40
651.67	38096.90
651.81	37956.47
651.96	37741.14
652.10	37560.92
652.25	37642.84
652.39	37153.66
652.54	38073.49
652.68	37935.40
652.83	38113.28
652.97	38024.34
653.12	37610.07
653.26	37879.23
653.41	37928.38
653.55	37289.42
653.70	37188.77
653.84	37844.12
653.99	37713.05
654.13	37977.53
654.27	37656.88
654.42	37221.54
654.56	37439.21
654.71	37577.30
654.85	37661.56
655.00	37343.25
655.14	37184.09
655.29	37048.34
655.43	37022.59
655.57	37144.30
655.72	36917.27
655.86	36629.38
656.01	36900.89
656.15	37195.79
656.30	36875.14
656.44	36870.46
656.58	36886.84
656.73	37226.22
656.87	37083.45
657.01	36931.31
657.16	36591.94
657.30	36837.69
657.45	36414.05
657.59	36907.91
657.73	36732.37
657.88	36809.61
658.02	36357.88
658.16	37022.59
658.31	36765.14
658.45	36601.30
658.60	36797.90
658.74	36767.48
658.88	36697.26
659.03	36163.62
659.17	36198.73
659.31	36374.27
659.46	35798.49
659.60	36512.36
659.74	36486.61
659.89	35819.56
660.03	35627.63
660.17	35969.35
660.32	36273.62
660.46	36086.38
660.60	36610.66
660.74	36353.20
660.89	36107.44
661.03	36102.76
661.17	35810.20
661.32	35618.27
661.46	35936.59
661.60	35426.35
661.74	35798.49
661.89	35281.24
662.03	35571.46
662.17	35543.38
662.31	35529.33
662.46	35952.97
662.60	35526.99
662.74	35040.16
662.88	35470.82
663.03	35576.14
663.17	35218.04
663.31	35063.57
663.45	35381.88
663.60	35679.13
663.74	35000.37
663.88	34511.20
664.02	34728.87
664.17	35042.50
664.31	34314.59
664.45	34902.07
664.59	34754.61
664.73	34763.98
664.88	34824.83
665.02	34452.69
665.16	34822.49
665.30	34815.47
665.44	34712.49
665.59	34110.97
665.73	34237.36
665.87	34073.52
666.01	34096.92
666.15	34106.29
666.29	34363.75
666.44	34349.70
666.58	33991.60
666.72	34218.63
666.86	34227.99
667.00	34602.48
667.14	33741.16
667.28	33895.64
667.43	33762.23
667.57	33811.38
667.71	33844.15
667.85	33574.98
667.99	33607.75
668.13	33572.64
668.27	33450.94
668.41	33497.75
668.56	33326.89
668.70	33406.47
668.84	33156.03
668.98	33259.01
669.12	33034.32
669.26	33109.22
669.40	32842.40
669.54	33230.93
669.68	32783.88
669.82	32980.49
669.96	32961.76
670.10	32601.32
670.25	32776.86
670.39	32739.41
670.53	32608.34
670.67	32683.24
670.81	33097.52
670.95	32409.40
671.09	32582.60
671.23	32772.18
671.37	32854.10
671.51	32217.47
671.65	32343.86
671.79	31924.91
671.93	31899.16
672.07	32116.83
672.21	31857.03
672.35	31920.23
672.49	31873.42
672.63	31562.12
672.77	31903.84
672.91	31517.65
673.05	31515.31
673.19	31718.94
673.33	31281.26
673.47	31510.63
673.61	31185.30
673.75	31367.86
673.89	31087.00
674.03	30616.55
674.17	30501.86
674.31	31000.40
674.45	31096.36
674.59	31047.21
674.73	30724.21
674.87	30852.94
675.01	30534.63
675.15	30892.73
675.29	30820.17
675.43	30885.71
675.56	30579.10
675.70	30464.41
675.84	30326.32
675.98	29237.97
676.12	30110.99
676.26	30307.60
676.40	29727.14
676.54	29722.46
676.68	29773.95
676.82	29181.80
676.96	29364.36
677.10	29553.94
677.23	29490.75
677.37	29514.16
677.51	29123.29
677.65	29488.41
677.79	29078.82
677.93	29343.30
678.07	28973.49
678.21	28666.88
678.34	28673.90
678.48	28896.25
678.62	28732.42
678.76	28315.80
678.90	28163.67
679.04	28498.36
679.18	28390.70
679.31	28217.50
679.45	27974.08
679.59	28037.28
679.73	27859.40
679.87	27824.29
680.00	28002.17
680.14	27386.61
680.28	27419.38
680.42	27527.04
680.56	27391.29
680.70	27468.53
680.83	27026.17
680.97	27065.96
681.11	27215.75
681.25	26586.15
681.39	26637.64
681.52	26764.03
681.66	27007.44
681.80	26824.88
681.94	26565.08
682.07	26314.64
682.21	25827.81
682.35	26328.69
682.49	26663.38
682.62	26295.92
682.76	26225.70
682.90	25895.69
683.04	25965.90
683.17	25935.48
683.31	25865.26
683.45	25965.90
683.59	25589.08
683.72	25083.52
683.86	25202.89
684.00	25331.62
684.13	25371.41
684.27	25191.19
684.41	24985.22
684.55	25055.43
684.68	25266.08
684.82	24875.21
684.96	24802.66
685.09	24748.82
685.23	24559.24
685.37	24465.62
685.50	24542.86
685.64	24355.61
685.78	24236.25
685.91	24411.79
686.05	24283.06
686.19	23758.78
686.32	23833.68
686.46	24060.71
686.60	23520.04
686.73	23618.35
686.87	23257.90
687.01	23133.86
687.14	23363.23
687.28	22951.29
687.42	22817.88
687.55	22581.49
687.69	22995.76
687.82	22611.92
687.96	22838.95
688.10	22780.43
688.23	22686.81
688.37	22286.58
688.50	22366.16
688.64	21998.70
688.78	22288.92
688.91	22108.70
689.05	22155.51
689.18	21916.78
689.32	21743.58
689.46	21996.35
689.59	21984.65
689.73	21778.68
689.86	21708.47
690.00	21542.29
690.13	21792.73
690.27	21692.08
690.41	21631.23
690.54	21088.23
690.68	21139.72
690.81	21151.42
690.95	20989.92
691.08	21125.68
691.22	20964.18
691.35	20854.17
691.49	21172.49
691.62	20842.47
691.76	20561.61
691.89	20819.07
692.03	20350.96
692.16	20222.23
692.30	20475.01
692.43	20166.06
692.57	20042.01
692.70	19927.32
692.84	19997.54
692.97	19936.68
693.11	19859.45
693.24	19700.29
693.38	19461.55
693.51	19508.37
693.65	19599.65
693.78	19337.51
693.92	19442.83
694.05	19447.51
694.19	19232.18
694.32	19129.20
694.45	19173.67
694.59	18913.87
694.72	18759.39
694.86	18806.20
694.99	18836.63
695.13	18588.53
695.26	18412.99
695.39	18164.90
695.53	18621.30
695.66	18356.82
695.80	18665.77
695.93	18204.69
696.07	18066.60
696.20	18270.22
696.33	18139.15
696.47	17797.43
696.60	18019.78
696.73	17703.81
696.87	17619.55
697.00	17706.15
697.14	17680.41
697.27	17575.08
697.40	17542.32
697.54	17500.19
697.67	17341.03
697.80	17181.87
697.94	17121.02
698.07	17184.21
698.21	17041.44
698.34	16879.94
698.47	16786.32
698.61	16650.57
698.74	16650.57
698.87	16765.26
699.01	16496.10
699.14	16348.64
699.27	16313.53
699.40	16390.77
699.54	16362.69
699.67	15953.09
699.80	16145.02
699.94	15950.75
700.07	16030.33
700.20	15892.24
700.34	15658.18
700.47	15800.96
700.60	15602.01
700.73	15964.79
700.87	15494.35
701.00	15461.58
701.13	15517.75
701.26	15302.42
701.40	15477.96
701.53	15655.84
701.66	15611.37
701.79	15325.83
701.93	14916.23
702.06	14904.53
702.19	15094.11
702.32	14871.76
702.46	14768.78
702.59	14740.69
702.72	14721.97
702.85	14963.04
702.99	14611.96
703.12	14647.07
703.25	14516.00
703.38	14122.79
703.51	14284.29
703.65	14471.53
703.78	14188.33
703.91	13942.57
704.04	14193.01
704.17	14099.39
704.31	13837.25
704.44	13738.94
704.57	13745.97
704.70	13434.68
704.83	13451.06
704.96	13673.41
705.10	13682.77
705.23	13654.69
>>>>>End Processed Spectral Data<<<<<
