SpectraSuite Data File
++++++++++++++++++++++++++++++++++++
Date: Fri Oct 25 11:34:04 EDT 2013
User: price-jones
Dark Spectrum Present: No
Reference Spectrum Present: No
Number of Sampled Component Spectra: 1
Spectrometers: USB2+H05261
Integration Time (usec): 100000 (USB2+H05261)
Spectra Averaged: 1 (USB2+H05261)
Boxcar Smoothing: 0 (USB2+H05261)
Correct for Electrical Dark: No (USB2+H05261)
Strobe/Lamp Enabled: No (USB2+H05261)
Correct for Detector Non-linearity: No (USB2+H05261)
Correct for Stray Light: No (USB2+H05261)
Number of Pixels in Processed Spectrum: 2048
>>>>>Begin Processed Spectral Data<<<<<
365.73	355.76
365.92	355.76
366.12	355.76
366.32	138.09
366.52	184.90
366.72	203.63
366.91	53.83
367.11	224.69
367.31	194.26
367.51	159.16
367.70	133.41
367.90	231.71
368.10	163.84
368.30	191.92
368.49	128.73
368.69	182.56
368.89	205.97
369.09	189.58
369.28	208.31
369.48	117.03
369.68	224.69
369.87	173.20
370.07	231.71
370.27	367.46
370.47	262.14
370.66	437.68
370.86	503.22
371.06	519.60
371.25	582.79
371.45	573.43
371.65	601.52
371.84	564.07
372.04	634.29
372.24	561.73
372.44	554.71
372.63	603.86
372.83	596.84
373.03	650.67
373.22	617.90
373.42	578.11
373.62	638.97
373.81	638.97
374.01	690.46
374.21	610.88
374.40	624.92
374.60	674.07
374.79	603.86
374.99	681.10
375.19	622.58
375.38	638.97
375.58	578.11
375.78	711.52
375.97	676.41
376.17	723.23
376.37	788.76
376.56	676.41
376.76	688.12
376.95	655.35
377.15	678.76
377.35	702.16
377.54	725.57
377.74	730.25
377.93	720.88
378.13	683.44
378.33	695.14
378.52	723.23
378.72	730.25
378.91	699.82
379.11	772.38
379.31	711.52
379.50	681.10
379.70	753.65
379.89	858.98
380.09	683.44
380.28	692.80
380.48	720.88
380.68	720.88
380.87	751.31
381.07	669.39
381.26	674.07
381.46	730.25
381.65	821.53
381.85	784.08
382.04	755.99
382.24	751.31
382.43	777.06
382.63	772.38
382.83	739.61
383.02	805.14
383.22	866.00
383.41	898.77
383.61	765.36
383.80	809.83
384.00	744.29
384.19	718.54
384.39	861.32
384.58	835.57
384.78	812.17
384.97	786.42
385.17	828.55
385.36	858.98
385.56	861.32
385.75	889.40
385.95	898.77
386.14	840.25
386.34	814.51
386.53	807.48
386.72	812.17
386.92	889.40
387.11	882.38
387.31	938.55
387.50	819.19
387.70	926.85
387.89	933.87
388.09	910.47
388.28	917.49
388.48	866.00
388.67	943.24
388.86	964.30
389.06	964.30
389.25	973.66
389.45	968.98
389.64	896.43
389.84	915.15
390.03	994.73
390.22	952.60
390.42	901.11
390.61	938.55
390.81	978.34
391.00	947.92
391.19	968.98
391.39	1057.92
391.58	1034.52
391.78	1013.45
391.97	1011.11
392.16	1029.84
392.36	1050.90
392.55	1027.50
392.75	1043.88
392.94	1020.47
393.13	1013.45
393.33	973.66
393.52	1034.52
393.71	1090.69
393.91	980.68
394.10	1100.05
394.29	1008.77
394.49	1074.31
394.68	1060.26
394.88	1095.37
395.07	1144.52
395.26	1210.06
395.46	990.05
395.65	1121.12
395.84	1088.35
396.04	1151.54
396.23	1107.07
396.42	1303.68
396.62	1165.59
396.81	1109.41
397.00	1256.87
397.19	1191.33
397.39	1137.50
397.58	1240.48
397.77	1203.04
397.97	1228.78
398.16	1231.12
398.35	1259.21
398.55	1193.67
398.74	1289.64
398.93	1313.04
399.12	1196.01
399.32	1324.74
399.51	1315.38
399.70	1341.13
399.90	1219.42
400.09	1287.29
400.28	1359.85
400.47	1336.45
400.67	1275.59
400.86	1294.32
401.05	1387.94
401.24	1423.05
401.44	1371.55
401.63	1502.62
401.82	1423.05
402.01	1310.70
402.21	1490.92
402.40	1474.54
402.59	1336.45
402.78	1521.35
402.97	1504.96
403.17	1495.60
403.36	1486.24
403.55	1479.22
403.74	1493.26
403.93	1561.14
404.13	1586.88
404.32	1589.22
404.51	1624.33
404.70	1612.63
404.89	1575.18
405.09	1699.23
405.28	1610.29
405.47	1647.74
405.66	1727.32
405.85	1671.14
406.05	1692.21
406.24	1708.59
406.43	1694.55
406.62	1760.08
406.81	1851.36
407.00	1776.47
407.20	1743.70
407.39	1837.32
407.58	1849.02
407.77	1797.53
407.96	1837.32
408.15	1888.81
408.34	1823.28
408.54	1874.77
408.73	1881.79
408.92	1954.35
409.11	2040.95
409.30	1916.90
409.49	1895.83
409.68	2050.31
409.87	1952.01
410.07	2040.95
410.26	1984.77
410.45	1944.99
410.64	2073.71
410.83	2176.70
411.02	1977.75
411.21	2097.12
411.40	2078.40
411.59	2174.36
411.78	2228.19
411.98	2211.81
412.17	2143.93
412.36	2125.21
412.55	2260.96
412.74	2197.76
412.93	2223.51
413.12	2291.38
413.31	2403.73
413.50	2300.75
413.69	2333.51
413.88	2452.88
414.07	2401.39
414.26	2413.09
414.45	2462.24
414.64	2499.69
414.83	2534.80
415.02	2502.03
415.22	2511.39
415.41	2555.86
415.60	2626.08
415.79	2628.42
415.98	2523.10
416.17	2677.57
416.36	2705.66
416.55	2799.28
416.74	2825.03
416.93	2693.96
417.12	2710.34
417.31	2700.98
417.50	2853.11
417.69	2890.56
417.88	2862.48
418.07	2815.66
418.26	2885.88
418.45	2874.18
418.64	2951.42
418.83	2916.31
419.02	3047.38
419.21	3183.13
419.39	3009.93
419.58	3098.87
419.77	2995.89
419.96	3136.32
420.15	3129.30
420.34	3124.62
420.53	3157.38
420.72	3173.77
420.91	3187.81
421.10	3211.22
421.29	3227.60
421.48	3267.39
421.67	3248.66
421.86	3269.73
422.05	3243.98
422.24	3234.62
422.43	3262.71
422.61	3192.49
422.80	3290.79
422.99	3358.67
423.18	3344.63
423.37	3361.01
423.56	3197.17
423.75	3318.88
423.94	3323.56
424.13	3150.36
424.32	3138.66
424.50	3417.18
424.69	3676.98
424.88	3431.23
425.07	3379.73
425.26	3368.03
425.45	3344.63
425.64	3302.50
425.83	3517.83
426.01	3466.33
426.20	3410.16
426.39	3353.99
426.58	3302.50
426.77	3414.84
426.96	3527.19
427.15	3639.53
427.33	3489.74
427.52	3473.36
427.71	3630.17
427.90	3588.04
428.09	3590.38
428.28	3637.19
428.46	3545.91
428.65	3597.40
428.84	3662.94
429.03	3660.60
429.22	3637.19
429.40	3742.52
429.59	3698.05
429.78	3562.30
429.97	3588.04
430.16	3705.07
430.34	3709.75
430.53	3840.82
430.72	3866.56
430.91	3733.15
431.10	3911.04
431.28	3946.14
431.47	3878.27
431.66	3904.01
431.85	3716.77
432.03	3864.22
432.22	4072.53
432.41	4002.32
432.60	3925.08
432.79	4004.66
432.97	3960.19
433.16	4133.39
433.35	3953.16
433.54	4138.07
433.72	4060.83
433.91	4154.45
434.10	4086.58
434.28	4124.02
434.47	4124.02
434.66	4255.09
434.85	4297.22
435.03	4161.47
435.22	4196.58
435.41	4451.70
435.59	4315.95
435.78	4287.86
435.97	4365.10
436.16	4243.39
436.34	4297.22
436.53	4409.57
436.72	4407.23
436.90	4311.27
437.09	4477.44
437.28	4409.57
437.46	4365.10
437.65	4535.96
437.84	4535.96
438.02	4475.10
438.21	4327.65
438.40	4528.94
438.58	4648.30
438.77	4739.58
438.96	4786.40
439.14	4856.61
439.33	4833.21
439.52	4784.06
439.70	4847.25
439.89	4901.08
440.08	4833.21
440.26	4828.53
440.45	4910.44
440.63	4837.89
440.82	5144.50
441.01	4936.19
441.19	4947.89
441.38	5191.31
441.57	5064.92
441.75	5069.60
441.94	5186.63
442.12	5310.68
442.31	5352.81
442.50	5451.11
442.68	5481.53
442.87	5348.12
443.05	5298.97
443.24	5596.22
443.43	5647.71
443.61	5441.75
443.80	5696.86
443.98	5249.82
444.17	5085.98
444.35	5406.64
444.54	5282.59
444.73	5514.30
444.91	5514.30
445.10	5614.95
445.28	5579.84
445.47	5504.94
445.65	5472.17
445.84	5675.80
446.02	5671.12
446.21	5666.44
446.39	5619.63
446.58	5598.56
446.77	5565.79
446.95	5504.94
447.14	5516.64
447.32	5685.16
447.51	5584.52
447.69	5636.01
447.88	5738.99
448.06	5706.23
448.25	5591.54
448.43	5760.06
448.62	5584.52
448.80	5748.36
448.99	5783.46
449.17	5762.40
449.36	5762.40
449.54	5731.97
449.73	5909.85
449.91	5900.49
450.10	6099.44
450.28	5996.45
450.46	5916.87
450.65	5949.64
450.83	6076.03
451.02	6005.81
451.20	6045.60
451.39	6134.54
451.57	5888.79
451.76	6005.81
451.94	6010.50
452.13	6235.19
452.31	6197.74
452.49	6010.50
452.68	6136.88
452.86	6115.82
453.05	6174.33
453.23	6356.90
453.42	6197.74
453.60	6242.21
453.78	6087.73
453.97	6193.06
454.15	6200.08
454.34	6207.10
454.52	6450.52
454.70	6354.55
454.89	6471.58
455.07	6490.31
455.26	6494.99
455.44	6427.11
455.62	6623.72
455.81	6558.18
455.99	6686.91
456.17	6551.16
456.36	6558.18
456.54	6693.93
456.73	6621.38
456.91	6946.71
457.09	6897.56
457.28	6881.18
457.46	6958.41
457.64	6953.73
457.83	6909.26
458.01	6878.83
458.19	7040.33
458.38	6925.65
458.56	7002.88
458.74	6981.82
458.93	7089.48
459.11	7033.31
459.29	6953.73
459.48	7150.34
459.66	7112.89
459.84	7349.28
460.03	7302.47
460.21	7456.95
460.39	7293.11
460.57	7323.54
460.76	7318.86
460.94	7316.51
461.12	7391.41
461.31	7431.20
461.49	7178.42
461.67	7377.37
461.85	7590.36
462.04	7356.30
462.22	7911.01
462.40	7543.55
462.59	7513.12
462.77	7353.96
462.95	7599.72
463.13	7758.88
463.32	7754.19
463.50	7534.18
463.68	7768.24
463.86	7756.54
464.05	7672.28
464.23	7597.38
464.41	7796.32
464.59	7543.55
464.78	7805.69
464.96	7878.24
465.14	7756.54
465.32	7852.50
465.50	7969.52
465.69	8032.72
465.87	7969.52
466.05	7941.44
466.23	7852.50
466.41	8170.81
466.60	8074.85
466.78	7892.29
466.96	7969.52
467.14	8114.64
467.32	8070.17
467.51	8095.91
467.69	8121.66
467.87	8203.58
468.05	8292.52
468.23	8105.28
468.41	7985.91
468.60	8212.94
468.78	8355.71
468.96	8362.73
469.14	8353.37
469.32	8475.08
469.50	8409.54
469.69	8498.49
469.87	8524.23
470.05	8561.68
470.23	8510.19
470.41	8638.92
470.59	8690.41
470.77	8730.20
470.95	8795.73
471.14	8727.86
471.32	8863.61
471.50	8898.72
471.68	8966.59
471.86	8905.74
472.04	9057.87
472.22	9022.77
472.40	8912.76
472.58	9088.30
472.77	9217.03
472.95	9102.34
473.13	9289.59
473.31	9329.38
473.49	9242.78
473.67	9254.48
473.85	9359.80
474.03	9451.08
474.21	9561.09
474.39	9591.52
474.57	9699.18
474.75	9647.69
474.93	9680.46
475.12	9652.37
475.30	9881.74
475.48	9799.82
475.66	9919.19
475.84	9848.97
476.02	10132.18
476.20	10092.39
476.38	10094.73
476.56	10422.41
476.74	10497.30
476.92	10342.83
477.10	10010.47
477.28	10434.11
477.46	10466.88
477.64	10520.71
477.82	10707.95
478.00	10869.45
478.18	10918.60
478.36	10890.51
478.54	11087.12
478.72	11040.31
478.90	11250.96
479.08	11405.43
479.26	11386.71
479.44	11470.97
479.62	11737.79
479.80	11805.66
479.98	11784.60
480.16	11918.01
480.34	11791.62
480.52	12128.66
480.70	11859.49
480.88	11941.41
481.06	12308.88
481.24	12346.33
481.41	12203.55
481.59	12386.12
481.77	12594.42
481.95	12610.81
482.13	12720.81
482.31	12784.01
482.49	12863.58
482.67	13011.04
482.85	13083.59
483.03	13179.56
483.21	13289.56
483.39	13532.98
483.57	13591.49
483.74	13549.36
483.92	13762.35
484.10	13760.01
484.28	14080.66
484.46	14064.28
484.64	14230.46
484.82	13942.57
485.00	14111.09
485.18	14455.15
485.35	14850.70
485.53	14665.80
485.71	14960.70
485.89	15126.88
486.07	15154.97
486.25	15009.86
486.43	15208.80
486.61	15489.67
486.78	15501.37
486.96	15669.89
487.14	16072.46
487.32	15775.21
487.50	15953.09
487.68	16084.16
487.85	16271.40
488.03	16453.97
488.21	16744.19
488.39	16837.81
488.57	16695.04
488.75	16582.70
488.92	16854.20
489.10	17163.15
489.28	17039.10
489.46	17214.64
489.64	17341.03
489.81	17802.11
489.99	17628.92
490.17	17696.79
490.35	18022.12
490.53	18338.10
490.70	18324.05
490.88	18366.18
491.06	18485.55
491.24	18609.60
491.41	18647.05
491.59	18810.89
491.77	18731.31
491.95	18991.11
492.13	18878.76
492.30	19381.98
492.48	19187.71
492.66	19318.78
492.84	19513.05
493.01	19613.69
493.19	19894.55
493.37	20006.90
493.54	19934.34
493.72	19995.20
493.90	20039.67
494.08	20210.53
494.25	20552.24
494.43	20575.65
494.61	20585.01
494.79	20697.36
494.96	20898.64
495.14	21249.72
495.32	21132.70
495.49	21490.80
495.67	21163.12
495.85	21675.70
496.02	21884.01
496.20	22040.82
496.38	21834.86
496.55	22111.04
496.73	22480.85
496.91	21893.37
497.09	22174.24
497.26	22724.26
497.44	22471.48
497.62	22614.26
497.79	23154.92
497.97	22504.25
498.14	23152.58
498.32	23388.97
498.50	23522.38
498.67	23168.96
498.85	23349.18
499.03	23339.82
499.20	23821.97
499.38	23639.41
499.56	23857.08
499.73	24121.56
499.91	24135.60
500.08	24086.45
500.26	24079.43
500.44	24261.99
500.61	24346.25
500.79	24477.32
500.97	24734.78
501.14	24994.58
501.32	24706.70
501.49	24816.70
501.67	24769.89
501.84	25266.08
502.02	24994.58
502.20	24889.26
502.37	25324.60
502.55	25090.54
502.72	25160.76
502.90	25221.61
503.07	25439.28
503.25	25296.51
503.43	25378.43
503.60	25804.41
503.78	25816.11
503.95	25682.70
504.13	25862.92
504.30	26258.47
504.48	26312.30
504.65	26366.13
504.83	26560.40
505.01	26485.50
505.18	26232.72
505.36	26471.46
505.53	26757.00
505.71	26424.65
505.88	26930.20
506.06	26597.85
506.23	26934.88
506.41	27171.28
506.58	27281.28
506.76	27005.10
506.93	27599.60
507.11	27250.86
507.28	27534.06
507.46	27311.71
507.63	27517.68
507.81	28086.43
507.98	27880.46
508.16	27810.25
508.33	28161.33
508.50	28350.91
508.68	28105.15
508.85	28051.32
509.03	28320.48
509.20	28425.81
509.38	28753.48
509.55	28489.00
509.73	28884.55
509.90	28418.78
510.08	29074.13
510.25	28603.69
510.42	29266.06
510.60	29195.84
510.77	29158.39
510.95	29530.54
511.12	29252.02
511.30	29132.65
511.47	29575.01
511.64	29617.14
511.82	29673.31
511.99	29277.76
512.17	30125.04
512.34	30199.93
512.51	30000.99
512.69	30157.80
512.86	29816.08
513.04	30195.25
513.21	30183.55
513.38	30422.28
513.56	30644.63
513.73	30398.88
513.90	30326.32
514.08	30525.27
514.25	30923.16
514.43	30749.96
514.60	31089.34
514.77	30995.71
514.95	31349.14
515.12	31229.77
515.29	31110.40
515.47	31281.26
515.64	31318.71
515.81	31723.62
515.99	31580.85
516.16	32023.21
516.33	31477.86
516.51	31732.98
516.68	31608.93
516.85	31669.79
517.03	31999.80
517.20	32205.77
517.37	32116.83
517.54	32037.25
517.72	32074.70
517.89	32093.43
518.06	32327.48
518.24	31978.74
518.41	32203.43
518.58	32484.30
518.75	32170.66
518.93	32643.45
519.10	32596.64
519.27	33088.15
519.45	32779.20
519.62	32910.27
519.79	33027.30
519.96	33078.79
520.14	33378.38
520.31	32720.69
520.48	33240.29
520.65	33090.49
520.83	33415.83
521.00	34092.24
521.17	33502.43
521.34	33626.48
521.52	33905.00
521.69	33876.91
521.86	33525.83
522.03	34087.56
522.20	34363.75
522.38	34382.47
522.55	34075.86
522.72	34326.30
522.89	34590.78
523.07	34899.73
523.24	34328.64
523.41	35103.35
523.58	34209.27
523.75	34581.42
523.92	34300.55
524.10	34852.92
524.27	34703.12
524.44	35105.70
524.61	34895.05
524.78	35215.70
524.96	35426.35
525.13	35587.85
525.30	35606.57
525.47	35374.86
525.64	35194.64
525.81	35449.75
525.98	35864.03
526.16	35711.89
526.33	35892.12
526.50	35957.65
526.67	35566.78
526.84	35852.33
527.01	35641.68
527.18	35948.29
527.36	36278.30
527.53	36432.78
527.70	36549.81
527.87	36266.60
528.04	36163.62
528.21	36149.57
528.38	36409.37
528.55	36144.89
528.72	36114.47
528.89	36271.28
529.07	36306.39
529.24	36437.46
529.41	36683.22
529.58	36900.89
529.75	37188.77
529.92	37174.73
530.09	36833.01
530.26	36996.85
530.43	36900.89
530.60	36713.64
530.77	36758.11
530.94	37017.91
531.11	36715.98
531.28	37427.51
531.46	36898.55
531.63	37397.08
531.80	37310.48
531.97	37680.28
532.14	37649.86
532.31	37717.73
532.48	37542.19
532.65	38366.06
532.82	37563.26
532.99	38459.68
533.16	37759.86
533.33	38092.22
533.50	38099.24
533.67	38218.61
533.84	37811.35
534.01	37954.13
534.18	38169.46
534.35	38518.20
534.52	38745.23
534.69	38845.87
534.86	38988.64
535.03	38181.16
535.20	38590.75
535.37	38990.98
535.54	38958.22
535.71	38834.17
535.88	38775.66
536.05	38455.00
536.22	39115.03
536.38	38742.89
536.55	39199.29
536.72	38642.24
536.89	38457.34
537.06	38866.94
537.23	39295.25
537.40	38834.17
537.57	38960.56
537.74	39033.11
537.91	39564.42
538.08	39248.44
538.25	38752.25
538.42	39419.30
538.59	39676.76
538.75	39264.83
538.92	40126.14
539.09	39796.13
539.26	39665.06
539.43	39686.12
539.60	39618.25
539.77	39651.02
539.94	40128.48
540.11	39796.13
540.28	40004.44
540.44	39779.74
540.61	39969.33
540.78	39873.37
540.95	40163.59
541.12	40168.27
541.29	40114.44
541.46	40311.05
541.62	40203.38
541.79	40355.52
541.96	40076.99
542.13	39856.98
542.30	40222.11
542.47	41015.55
542.63	40528.72
542.80	40453.82
542.97	40924.27
543.14	40917.25
543.31	40575.53
543.48	41167.68
543.64	41298.75
543.81	41691.96
543.98	41174.70
544.15	41017.89
544.32	41186.41
544.48	41530.47
544.65	41139.60
544.82	41371.31
544.99	40919.59
545.16	41137.26
545.32	41273.01
545.49	41862.82
545.66	41808.99
545.83	41930.70
546.00	41876.86
546.16	41825.37
546.33	41698.98
546.50	41663.88
546.67	41689.62
546.83	41415.78
547.00	41902.61
547.17	41921.34
547.34	41340.88
547.50	41975.17
547.67	41806.65
547.84	41979.85
548.00	42267.73
548.17	42642.22
548.34	42394.12
548.51	42548.60
548.67	42611.79
548.84	42176.45
549.01	42253.69
549.18	42593.07
549.34	42682.01
549.51	42504.13
549.68	42487.74
549.84	42782.65
550.01	42520.51
550.18	42726.48
550.34	42799.04
550.51	42239.65
550.68	42815.42
550.84	42534.56
551.01	43058.84
551.18	42784.99
551.34	42726.48
551.51	43089.26
551.68	43203.95
551.84	42532.22
552.01	42834.14
552.18	43030.75
552.34	42808.40
552.51	42782.65
552.68	43241.40
552.84	43084.58
553.01	43618.22
553.18	43234.38
553.34	42995.64
553.51	43234.38
553.67	43416.94
553.84	43632.27
554.01	43728.23
554.17	43246.08
554.34	43653.33
554.51	43519.92
554.67	43639.29
554.84	43264.80
555.00	43569.07
555.17	43833.55
555.33	43971.64
555.50	43381.83
555.67	43599.50
555.83	43744.61
556.00	43761.00
556.16	43833.55
556.33	44023.14
556.50	44046.54
556.66	44219.74
556.83	43704.82
556.99	44341.45
557.16	44540.39
557.32	44535.71
557.49	44477.20
557.65	43922.49
557.82	44081.65
557.98	44591.89
558.15	43906.11
558.32	44575.50
558.48	44020.80
558.65	44451.45
558.81	44636.36
558.98	44524.01
559.14	44477.20
559.31	44507.63
559.47	44371.88
559.64	44378.90
559.80	44294.64
559.97	44601.25
560.13	44360.17
560.30	44687.85
560.46	44729.98
560.63	44545.08
560.79	45132.55
560.96	45083.40
561.12	44964.03
561.29	44673.81
561.45	45069.36
561.61	44701.89
561.78	44701.89
561.94	44460.82
562.11	44903.18
562.27	44762.75
562.44	44711.25
562.60	45120.85
562.77	45223.83
562.93	44727.64
563.10	45329.16
563.26	44720.62
563.42	45593.64
563.59	44793.17
563.75	44907.86
563.92	45247.24
564.08	44793.17
564.24	45514.06
564.41	45195.74
564.57	45226.17
564.74	45048.29
564.90	45038.93
565.07	45153.62
565.23	45226.17
565.39	45205.11
565.56	45514.06
565.72	45177.02
565.88	45394.69
566.05	45567.89
566.21	45757.47
566.38	45577.25
566.54	45106.80
566.70	45350.22
566.87	45141.91
567.03	45312.77
567.19	45530.44
567.36	45368.94
567.52	45242.56
567.68	45872.16
567.85	45333.84
568.01	45354.90
568.17	45326.81
568.34	45631.08
568.50	45785.56
568.66	45492.99
568.83	45492.99
568.99	45787.90
569.15	45780.88
569.32	45146.59
569.48	45720.02
569.64	45949.40
569.81	45574.91
569.97	45921.31
570.13	45556.19
570.30	45457.88
570.46	45930.67
570.62	45830.03
570.78	46052.38
570.95	45741.09
571.11	46036.00
571.27	45860.46
571.43	45572.57
571.60	46045.36
571.76	45558.53
571.92	45666.19
572.09	45928.33
572.25	45947.06
572.41	46108.55
572.57	45907.27
572.74	46190.47
572.90	45645.13
573.06	46136.64
573.22	45979.82
573.38	45773.86
573.55	45951.74
573.71	46239.62
573.87	46279.41
574.03	46080.47
574.20	45998.55
574.36	46028.98
574.52	46330.90
574.68	45783.22
574.84	46485.38
575.01	46192.81
575.17	46298.14
575.33	46319.20
575.49	45851.09
575.65	45977.48
575.82	46279.41
575.98	46110.89
576.14	46237.28
576.30	46614.11
576.46	46000.89
576.62	45965.78
576.79	45577.25
576.95	45801.94
577.11	45865.14
577.27	46047.70
577.43	45900.25
577.59	46061.74
577.75	45937.69
577.92	46033.66
578.08	46143.66
578.24	46415.16
578.40	45949.40
578.56	46183.45
578.72	46197.49
578.88	46607.09
579.04	46616.45
579.21	46265.37
579.37	46555.60
579.53	46358.99
579.69	46075.79
579.85	45888.54
580.01	46204.52
580.17	46099.19
580.33	46351.97
580.49	46267.71
580.65	46216.22
580.82	46351.97
580.98	46555.60
581.14	46272.39
581.30	46181.11
581.46	45862.80
581.62	46279.41
581.78	46211.54
581.94	46518.15
582.10	46314.52
582.26	46501.76
582.42	46085.15
582.58	46232.60
582.74	46384.74
582.90	46426.87
583.06	46642.20
583.22	46342.61
583.38	46337.93
583.54	46501.76
583.70	46735.82
583.86	46422.19
584.02	46611.77
584.18	46822.42
584.34	46206.86
584.50	46490.06
584.66	47026.04
584.82	46791.99
584.98	46660.92
585.14	46265.37
585.30	47004.98
585.46	46492.40
585.62	46358.99
585.78	46415.16
585.94	46052.38
586.10	46429.21
586.26	46117.92
586.42	46548.57
586.58	46611.77
586.74	46485.38
586.90	46476.02
587.06	46499.42
587.22	47049.45
587.38	46366.01
587.54	46354.31
587.70	46878.59
587.86	46527.51
588.02	47058.81
588.18	46483.04
588.34	46483.04
588.49	46859.87
588.65	46686.67
588.81	46333.24
588.97	46717.09
589.13	46583.68
589.29	46461.97
589.45	46742.84
589.61	46387.08
589.77	46934.76
589.93	46939.44
590.08	46717.09
590.24	47346.70
590.40	47122.01
590.56	47143.07
590.72	47009.66
590.88	46768.58
591.04	46902.00
591.20	47028.38
591.35	47194.56
591.51	47026.04
591.67	47222.65
591.83	47138.39
591.99	46986.25
592.15	46801.35
592.31	47290.52
592.46	47145.41
592.62	46293.46
592.78	47267.12
592.94	47648.63
593.10	46990.94
593.26	47459.04
593.41	47325.63
593.57	47044.77
593.73	47320.95
593.89	47498.83
594.05	47089.24
594.20	47381.80
594.36	47178.18
594.52	47173.50
594.68	47334.99
594.84	47323.29
594.99	47723.52
595.15	47531.60
595.31	47377.12
595.47	46946.47
595.62	47126.69
595.78	47292.86
595.94	47100.94
596.10	46820.08
596.25	47386.49
596.41	47365.42
596.57	47065.83
596.73	47482.45
596.88	47365.42
597.04	47150.09
597.20	47344.36
597.36	46974.55
597.51	47342.02
597.67	47084.56
597.83	46890.29
597.99	47133.71
598.14	47529.26
598.30	47077.54
598.46	46784.97
598.61	47622.88
598.77	47330.31
598.93	47213.29
599.09	47306.91
599.24	47611.18
599.40	47384.15
599.56	47562.03
599.71	47835.87
599.87	47735.23
600.03	47526.92
600.18	47725.86
600.34	47203.92
600.50	47653.31
600.65	47585.43
600.81	47908.43
600.97	47489.47
601.12	47122.01
601.28	47381.80
601.44	47594.79
601.59	47367.76
601.75	47133.71
601.91	47547.98
602.06	47342.02
602.22	47505.85
602.37	47536.28
602.53	47337.33
602.69	47739.91
602.84	47288.18
603.00	47236.69
603.16	47559.69
603.31	47342.02
603.47	47707.14
603.62	47430.96
603.78	47882.68
603.94	47672.03
604.09	47414.57
604.25	47161.79
604.40	47433.30
604.56	47337.33
604.71	47571.39
604.87	46986.25
605.03	46691.35
605.18	47423.93
605.34	47540.96
605.49	47220.31
605.65	47524.58
605.80	47213.29
605.96	47093.92
606.12	47269.46
606.27	47344.36
606.43	47119.66
606.58	47517.56
606.74	46969.87
606.89	47327.97
607.05	47665.01
607.20	47767.99
607.36	47117.32
607.51	47194.56
607.67	47241.37
607.82	47372.44
607.98	47536.28
608.13	47227.33
608.29	47313.93
608.44	47571.39
608.60	47379.46
608.75	47370.10
608.91	47217.97
609.06	47281.16
609.22	47360.74
609.37	46967.53
609.53	47196.90
609.68	47564.37
609.84	47264.78
609.99	47288.18
610.15	47044.77
610.30	47255.42
610.46	47248.39
610.61	47334.99
610.76	46981.57
610.92	47107.96
611.07	46932.42
611.23	46820.08
611.38	46813.05
611.54	46951.15
611.69	47145.41
611.84	46672.62
612.00	46976.89
612.15	46787.31
612.31	47044.77
612.46	46611.77
612.62	46899.65
612.77	47119.66
612.92	46969.87
613.08	46490.06
613.23	47217.97
613.39	46887.95
613.54	46658.58
613.69	46897.31
613.85	47136.05
614.00	47037.75
614.15	47114.98
614.31	46351.97
614.46	46759.22
614.62	46401.12
614.77	46513.47
614.92	46689.01
615.08	46852.84
615.23	47133.71
615.38	46511.13
615.54	46782.63
615.69	46749.86
615.84	46541.55
616.00	46738.16
616.15	46906.68
616.30	46824.76
616.46	46380.06
616.61	46351.97
616.76	46525.17
616.92	46211.54
617.07	46588.36
617.22	46454.95
617.37	46028.98
617.53	46588.36
617.68	46555.60
617.83	46560.28
617.99	46326.22
618.14	46611.77
618.29	46232.60
618.45	46349.63
618.60	45937.69
618.75	46068.76
618.90	46256.01
619.06	46281.75
619.21	46403.46
619.36	46445.59
619.51	46094.51
619.67	46366.01
619.82	46031.32
619.97	46375.37
620.12	45982.16
620.28	46050.04
620.43	46323.88
620.58	45881.52
620.73	46328.56
620.89	46284.09
621.04	46075.79
621.19	45958.76
621.34	45778.54
621.49	45933.01
621.65	45825.35
621.80	46036.00
621.95	46087.49
622.10	45846.41
622.25	45715.34
622.41	46024.29
622.56	45738.75
622.71	46124.94
622.86	45907.27
623.01	45804.28
623.16	45965.78
623.32	45649.81
623.47	45605.34
623.62	45315.11
623.77	45570.23
623.92	45907.27
624.07	45820.67
624.23	45647.47
624.38	45654.49
624.53	45188.72
624.68	45048.29
624.83	45251.92
624.98	45464.91
625.13	45069.36
625.29	45265.96
625.44	45331.50
625.59	45219.15
625.74	45141.91
625.89	45141.91
626.04	44994.46
626.19	45345.54
626.34	45382.99
626.49	44692.53
626.65	45305.75
626.80	45160.64
626.95	45153.62
627.10	44809.56
627.25	45502.35
627.40	45235.53
627.55	45235.53
627.70	45111.49
627.85	45067.02
628.00	45308.09
628.15	44961.69
628.30	45120.85
628.45	44582.52
628.60	43969.30
628.76	44942.97
628.91	44605.93
629.06	44245.49
629.21	44191.65
629.36	44589.55
629.51	44196.34
629.66	45078.72
629.81	44673.81
629.96	44872.75
630.11	44685.51
630.26	44175.27
630.41	44914.88
630.56	44580.18
630.71	44610.61
630.86	44425.71
631.01	44069.95
631.16	44416.35
631.31	44322.72
631.46	44140.16
631.61	44837.64
631.76	44240.81
631.91	44275.91
632.06	44477.20
632.21	44491.24
632.36	44533.37
632.51	44107.40
632.66	44121.44
632.81	44385.92
632.96	44137.82
633.10	44205.70
633.25	44435.07
633.40	44224.42
633.55	44631.68
633.70	44140.16
633.85	44229.10
634.00	43728.23
634.15	43615.88
634.30	44140.16
634.45	43892.07
634.60	43824.19
634.75	43835.89
634.90	43791.42
635.05	44463.16
635.19	43889.73
635.34	43775.04
635.49	43592.48
635.64	43466.09
635.79	43880.36
635.94	43533.96
636.09	43548.01
636.24	43543.33
636.39	43969.30
636.53	43590.14
636.68	43484.81
636.83	42880.95
636.98	43124.37
637.13	43320.98
637.28	43438.00
637.43	43257.78
637.57	43496.52
637.72	43288.21
637.87	43391.19
638.02	43232.04
638.17	43346.72
638.32	43643.97
638.46	43084.58
638.61	43021.39
638.76	42974.58
638.91	42810.74
639.06	43203.95
639.20	42799.04
639.35	42904.36
639.50	42401.14
639.65	43096.28
639.80	43313.95
639.94	43435.66
640.09	42864.57
640.24	43051.81
640.39	42930.11
640.54	42897.34
640.68	42766.27
640.83	43185.22
640.98	42560.30
641.13	42506.47
641.27	43129.05
641.42	42574.34
641.57	42115.60
641.72	42777.97
641.86	43012.02
642.01	42206.88
642.16	42431.57
642.31	42756.91
642.45	42564.98
642.60	42375.40
642.75	42375.40
642.90	42803.72
643.04	42740.52
643.19	42171.77
643.34	42167.09
643.48	42026.66
643.63	42124.96
643.78	42078.15
643.93	42979.26
644.07	42384.76
644.22	42351.99
644.37	41954.10
644.51	42747.54
644.66	42139.00
644.81	42078.15
644.95	42019.64
645.10	41727.07
645.25	42307.52
645.39	41853.46
645.54	41972.83
645.69	41743.45
645.83	41605.36
645.98	41696.64
646.13	41493.02
646.27	41851.12
646.42	42040.70
646.57	41890.91
646.71	41804.31
646.86	42150.71
647.00	42347.31
647.15	41626.43
647.30	41916.65
647.44	41486.00
647.59	41619.41
647.74	41982.19
647.88	41771.54
648.03	41687.28
648.17	42281.78
648.32	42047.72
648.47	41752.82
648.61	41345.56
648.76	41312.80
648.90	41525.78
649.05	41523.44
649.20	41713.03
649.34	41574.94
649.49	41743.45
649.63	41794.95
649.78	41717.71
649.92	41565.57
650.07	41844.10
650.21	41584.30
650.36	41525.78
650.51	41198.11
650.65	41663.88
650.80	41486.00
650.94	41474.29
651.09	41174.70
651.23	41184.07
651.38	40851.71
651.52	40671.49
651.67	41118.53
651.81	40961.72
651.96	40713.62
652.10	41113.85
652.25	40701.92
652.39	41067.04
652.54	40971.08
652.68	40495.95
652.83	40971.08
652.97	41254.28
653.12	41001.50
653.26	40898.52
653.41	40863.41
653.55	41167.68
653.70	40823.62
653.84	41043.63
653.99	41090.44
654.13	40879.80
654.27	40790.86
654.42	40790.86
654.56	40395.31
654.71	40919.59
654.85	40624.68
655.00	40470.20
655.14	40957.03
655.29	40896.18
655.43	40818.94
655.57	40172.96
655.72	40191.68
655.86	40320.41
656.01	39824.22
656.15	40016.14
656.30	40350.84
656.44	40187.00
656.58	40301.68
656.73	40189.34
656.87	39730.59
657.01	40091.04
657.16	40210.40
657.30	40039.54
657.45	39803.15
657.59	40112.10
657.73	39784.43
657.88	40004.44
658.02	39936.56
658.16	39906.13
658.31	39992.73
658.45	40030.18
658.60	39658.04
658.74	39402.92
658.88	39770.38
659.03	39969.33
659.17	39625.27
659.31	39250.78
659.46	39704.85
659.60	39779.74
659.74	39213.34
659.89	39140.78
660.03	39456.75
660.17	39297.59
660.32	39103.33
660.46	39180.57
660.60	38492.45
660.74	39452.07
660.89	38916.09
661.03	38794.38
661.17	38745.23
661.32	38719.48
661.46	39154.82
661.60	38967.58
661.74	38916.09
661.89	38600.12
662.03	38731.18
662.17	38419.89
662.31	38494.79
662.46	38899.70
662.60	38609.48
662.74	38061.79
662.88	38485.43
663.03	38312.23
663.17	38139.03
663.31	38162.43
663.45	38045.41
663.60	38728.84
663.74	37769.22
663.88	37869.87
664.02	38139.03
664.17	38171.80
664.31	37996.26
664.45	37897.95
664.59	37703.69
664.73	37816.04
664.88	37813.70
665.02	37158.34
665.16	37448.57
665.30	37771.57
665.44	37759.86
665.59	37319.84
665.73	37097.49
665.87	36865.78
666.01	37219.20
666.15	37305.80
666.29	37092.81
666.44	37046.00
666.58	36875.14
666.72	37038.98
666.86	37055.36
667.00	36540.44
667.14	36882.16
667.28	36971.10
667.43	36795.56
667.57	36996.85
667.71	36584.91
667.85	36921.95
667.99	36720.66
668.13	36540.44
668.27	36732.37
668.41	36428.10
668.56	35817.22
668.70	36079.36
668.84	36032.55
668.98	35468.48
669.12	35981.06
669.26	36201.07
669.40	35580.82
669.54	35852.33
669.68	36037.23
669.82	35772.75
669.96	35372.52
670.10	35318.68
670.25	35807.86
670.39	35845.30
670.53	35857.01
670.67	35323.36
670.81	35555.08
670.95	35115.06
671.09	35175.91
671.23	35218.04
671.37	35264.85
671.51	35398.26
671.65	34656.31
671.79	34927.81
671.93	34656.31
672.07	34906.75
672.21	35009.73
672.35	34436.30
672.49	34405.88
672.63	34260.76
672.77	34220.97
672.91	34623.54
673.05	34291.19
673.19	34211.61
673.33	33942.45
673.47	34328.64
673.61	33504.77
673.75	33645.20
673.89	33605.41
674.03	33315.19
674.17	33228.59
674.31	33345.61
674.45	33518.81
674.59	33074.11
674.73	33202.84
674.87	33001.55
675.01	33010.92
675.15	32737.07
675.29	33041.34
675.43	32882.19
675.56	33514.13
675.70	32329.82
675.84	32563.87
675.98	31723.62
676.12	32591.96
676.26	32727.71
676.40	32095.77
676.54	32250.24
676.68	31969.38
676.82	31318.71
676.96	31770.43
677.10	32027.89
677.23	31491.91
677.37	31662.77
677.51	31681.49
677.65	31910.86
677.79	30984.01
677.93	31419.35
678.07	31285.94
678.21	31019.12
678.34	30305.26
678.48	31021.46
678.62	31044.87
678.76	30630.59
678.90	30429.30
679.04	30274.83
679.18	30675.06
679.31	29956.52
679.45	30340.36
679.59	29727.14
679.73	30235.04
679.87	29886.30
680.00	29977.58
680.14	29874.60
680.28	29530.54
680.42	29303.51
680.56	29539.90
680.70	29195.84
680.83	28952.43
680.97	29170.10
681.11	28933.70
681.25	28910.30
681.39	28484.32
681.52	29057.75
681.66	28886.89
681.80	28170.69
681.94	28091.11
682.07	28369.63
682.21	28093.45
682.35	27761.09
682.49	28133.24
682.62	27964.72
682.76	28093.45
682.90	27962.38
683.04	27999.83
683.17	27810.25
683.31	27241.50
683.45	27405.33
683.59	27351.50
683.72	26988.72
683.86	26932.54
684.00	27192.34
684.13	26857.65
684.27	26817.86
684.41	27042.55
684.55	26827.22
684.68	26955.95
684.82	26333.37
684.96	26347.41
685.09	26387.20
685.23	26211.66
685.37	26724.24
685.50	26628.27
685.64	26260.81
685.78	25818.45
685.91	25893.35
686.05	25575.03
686.19	25017.99
686.32	25340.98
686.46	25172.46
686.60	25369.07
686.73	25348.00
686.87	25090.54
687.01	25238.00
687.14	25060.12
687.28	24931.39
687.42	25020.33
687.55	24769.89
687.69	24694.99
687.82	24367.32
687.96	24362.64
688.10	24580.31
688.23	24364.98
688.37	24357.96
688.50	24273.70
688.64	24034.96
688.78	23857.08
688.91	23838.36
689.05	23892.19
689.18	23447.49
689.32	23342.16
689.46	23087.04
689.59	23344.50
689.73	23414.72
689.86	23321.10
690.00	23396.00
690.13	23033.21
690.27	22972.36
690.41	23084.70
690.54	22841.29
690.68	22897.46
690.81	22590.85
690.95	22349.78
691.08	22162.53
691.22	22235.09
691.35	22256.15
691.49	22321.69
691.62	21884.01
691.76	21535.27
691.89	21958.91
692.03	21750.60
692.16	21621.87
692.30	21458.03
692.43	21621.87
692.57	21411.22
692.70	21240.36
692.84	21025.03
692.97	20900.98
693.11	20917.37
693.24	20854.17
693.38	20533.52
693.51	20772.25
693.65	20477.35
693.78	20423.51
693.92	20500.75
694.05	20226.91
694.19	20121.59
694.32	20182.44
694.45	20411.81
694.59	20299.47
694.72	20175.42
694.86	19840.72
694.99	19510.71
695.13	19756.46
695.26	19339.85
695.39	19253.25
695.53	19243.88
695.66	19466.24
695.80	19267.29
695.93	19171.33
696.07	19063.66
696.20	18735.99
696.33	18450.44
696.47	18754.71
696.60	18305.33
696.73	18590.88
696.87	18754.71
697.00	18862.38
697.14	18574.49
697.27	18122.77
697.40	18026.81
697.54	18054.89
697.67	17926.16
697.80	18157.88
697.94	18132.13
698.07	17738.92
698.21	17439.33
698.34	17940.21
698.47	17401.88
698.61	17146.76
698.74	17256.77
698.87	17135.06
699.01	16992.29
699.14	17305.92
699.27	17149.11
699.40	17025.06
699.54	16767.60
699.67	16961.86
699.80	16772.28
699.94	16318.22
700.07	16833.13
700.20	16463.33
700.34	16350.98
700.47	16641.21
700.60	16418.86
700.73	16156.72
700.87	16205.87
701.00	15894.58
701.13	16018.63
701.26	15499.03
701.40	15723.72
701.53	15321.15
701.66	15723.72
701.79	15648.82
701.93	15311.78
702.06	15225.18
702.19	15159.65
702.32	15122.20
702.46	15119.86
702.59	15377.32
702.72	15115.18
702.85	15431.15
702.99	15126.88
703.12	14895.17
703.25	14595.58
703.38	14581.54
703.51	14792.19
703.65	14464.51
703.78	14244.50
703.91	14260.88
704.04	14391.95
704.17	14029.17
704.31	14326.42
704.44	13818.52
704.57	14047.90
704.70	13987.04
704.83	13949.59
704.96	13841.93
705.10	13516.59
705.23	13685.11
>>>>>End Processed Spectral Data<<<<<
