SpectraSuite Data File
++++++++++++++++++++++++++++++++++++
Date: Fri Oct 25 10:47:58 EDT 2013
User: price-jones
Dark Spectrum Present: No
Reference Spectrum Present: No
Number of Sampled Component Spectra: 1
Spectrometers: USB2+H05261
Integration Time (usec): 100000 (USB2+H05261)
Spectra Averaged: 1 (USB2+H05261)
Boxcar Smoothing: 0 (USB2+H05261)
Correct for Electrical Dark: No (USB2+H05261)
Strobe/Lamp Enabled: No (USB2+H05261)
Correct for Detector Non-linearity: No (USB2+H05261)
Correct for Stray Light: No (USB2+H05261)
Number of Pixels in Processed Spectrum: 2048
>>>>>Begin Processed Spectral Data<<<<<
365.73	128.73
365.92	128.73
366.12	128.73
366.32	11.70
366.52	21.06
366.72	100.64
366.91	56.17
367.11	79.58
367.31	84.26
367.51	166.18
367.70	49.15
367.90	30.43
368.10	72.56
368.30	65.54
368.49	58.51
368.69	46.81
368.89	126.39
369.09	63.19
369.28	105.32
369.48	95.96
369.68	51.49
369.87	128.73
370.07	46.81
370.27	110.01
370.47	140.43
370.66	351.08
370.86	390.87
371.06	468.11
371.25	458.74
371.45	407.25
371.65	482.15
371.84	479.81
372.04	477.47
372.24	512.58
372.44	491.51
372.63	524.28
372.83	535.98
373.03	430.66
373.22	482.15
373.42	550.03
373.62	510.24
373.81	552.37
374.01	624.92
374.21	545.34
374.40	482.15
374.60	585.13
374.79	510.24
374.99	617.90
375.19	568.75
375.38	596.84
375.58	599.18
375.78	557.05
375.97	528.96
376.17	554.71
376.37	627.26
376.56	484.49
376.76	547.69
376.95	580.45
377.15	636.63
377.35	528.96
377.54	610.88
377.74	615.56
377.93	655.35
378.13	648.33
378.33	603.86
378.52	547.69
378.72	688.12
378.91	662.37
379.11	566.41
379.31	667.05
379.50	617.90
379.70	713.86
379.89	699.82
380.09	664.71
380.28	650.67
380.48	641.31
380.68	648.33
380.87	643.65
381.07	638.97
381.26	709.18
381.46	692.80
381.65	676.41
381.85	709.18
382.04	720.88
382.24	781.74
382.43	688.12
382.63	713.86
382.83	725.57
383.02	725.57
383.22	695.14
383.41	660.03
383.61	734.93
383.80	699.82
384.00	748.97
384.19	732.59
384.39	690.46
384.58	779.40
384.78	786.42
384.97	718.54
385.17	676.41
385.36	807.48
385.56	732.59
385.75	711.52
385.95	732.59
386.14	774.72
386.34	725.57
386.53	648.33
386.72	802.80
386.92	819.19
387.11	767.70
387.31	854.30
387.50	786.42
387.70	826.21
387.89	823.87
388.09	755.99
388.28	795.78
388.48	863.66
388.67	889.40
388.86	901.11
389.06	877.70
389.25	924.51
389.45	830.89
389.64	912.81
389.84	912.81
390.03	866.00
390.22	901.11
390.42	851.96
390.61	880.04
390.81	884.72
391.00	966.64
391.19	933.87
391.39	990.05
391.58	983.02
391.78	882.38
391.97	1008.77
392.16	987.71
392.36	1022.81
392.55	961.96
392.75	1020.47
392.94	887.06
393.13	1001.75
393.33	994.73
393.52	1015.79
393.71	1050.90
393.91	1015.79
394.10	1027.50
394.29	994.73
394.49	1055.58
394.68	1097.71
394.88	1144.52
395.07	1057.92
395.26	1130.48
395.46	1104.73
395.65	1095.37
395.84	1102.39
396.04	1132.82
396.23	1139.84
396.42	1137.50
396.62	1153.88
396.81	1170.27
397.00	1135.16
397.19	1235.80
397.39	1132.82
397.58	1205.38
397.77	1219.42
397.97	1331.76
398.16	1266.23
398.35	1299.00
398.55	1348.15
398.74	1313.04
398.93	1334.11
399.12	1291.98
399.32	1301.34
399.51	1324.74
399.70	1385.60
399.90	1355.17
400.09	1231.12
400.28	1401.98
400.47	1366.87
400.67	1418.36
400.86	1387.94
401.05	1453.47
401.24	1476.88
401.44	1558.80
401.63	1528.37
401.82	1558.80
402.01	1526.03
402.21	1439.43
402.40	1519.01
402.59	1523.69
402.78	1474.54
402.97	1549.43
403.17	1605.61
403.36	1575.18
403.55	1570.50
403.74	1570.50
403.93	1605.61
404.13	1563.48
404.32	1633.69
404.51	1631.35
404.70	1724.97
404.89	1727.32
405.09	1734.34
405.28	1657.10
405.47	1748.38
405.66	1741.36
405.85	1675.82
406.05	1614.97
406.24	1750.72
406.43	1715.61
406.62	1795.19
406.81	1888.81
407.00	1703.91
407.20	1842.00
407.39	1820.94
407.58	1935.62
407.77	1977.75
407.96	1874.77
408.15	1973.07
408.34	1914.56
408.54	1977.75
408.73	2010.52
408.92	2076.06
409.11	1994.14
409.30	1984.77
409.49	2043.29
409.68	2047.97
409.87	2022.22
410.07	2136.91
410.26	2111.16
410.45	2099.46
410.64	2108.82
410.83	2132.23
411.02	2111.16
411.21	2291.38
411.40	2317.13
411.59	2298.41
411.78	2310.11
411.98	2305.43
412.17	2298.41
412.36	2300.75
412.55	2340.54
412.74	2469.27
412.93	2375.64
413.12	2373.30
413.31	2527.78
413.50	2450.54
413.69	2504.37
413.88	2562.89
414.07	2548.84
414.26	2729.06
414.45	2574.59
414.64	2581.61
414.83	2607.36
415.02	2672.89
415.22	2682.25
415.41	2616.72
415.60	2820.35
415.79	2808.64
415.98	2843.75
416.17	2857.79
416.36	2764.17
416.55	2846.09
416.74	2895.24
416.93	2869.50
417.12	3075.46
417.31	2911.63
417.50	2925.67
417.69	3009.93
417.88	3052.06
418.07	2930.35
418.26	3000.57
418.45	3075.46
418.64	3171.43
418.83	3239.30
419.02	3166.74
419.21	3199.51
419.39	3150.36
419.58	3143.34
419.77	3052.06
419.96	3166.74
420.15	3314.20
420.34	3351.65
420.53	3349.31
420.72	3527.19
420.91	3361.01
421.10	3372.71
421.29	3471.01
421.48	3431.23
421.67	3478.04
421.86	3330.58
422.05	3346.97
422.24	3475.70
422.43	3454.63
422.61	3421.86
422.80	3433.57
422.99	3417.18
423.18	3480.38
423.37	3620.81
423.56	3386.76
423.75	3559.95
423.94	3398.46
424.13	3183.13
424.32	3253.34
424.50	3506.12
424.69	3599.74
424.88	3515.48
425.07	3578.68
425.26	3527.19
425.45	3499.10
425.64	3588.04
425.83	3592.72
426.01	3417.18
426.20	3496.76
426.39	3571.66
426.58	3466.33
426.77	3492.08
426.96	3569.32
427.15	3709.75
427.33	3609.11
427.52	3733.15
427.71	3613.79
427.90	3763.58
428.09	3620.81
428.28	3742.52
428.46	3679.32
428.65	3698.05
428.84	3892.31
429.03	3786.99
429.22	3637.19
429.40	3861.88
429.59	3789.33
429.78	3578.68
429.97	3630.17
430.16	3779.97
430.34	3765.92
430.53	3822.09
430.72	3904.01
430.91	3913.38
431.10	3953.16
431.28	4077.21
431.47	4014.02
431.66	4287.86
431.85	3974.23
432.03	4191.90
432.22	4201.26
432.41	4149.77
432.60	4327.65
432.79	4058.49
432.97	4325.31
433.16	4297.22
433.35	4208.28
433.54	4161.47
433.72	4198.92
433.91	4418.93
434.10	4175.52
434.28	4318.29
434.47	4297.22
434.66	4379.14
434.85	4507.87
435.03	4414.25
435.22	4472.76
435.41	4683.41
435.59	4601.49
435.78	4493.83
435.97	4496.17
436.16	4519.57
436.34	4561.70
436.53	4580.43
436.72	4676.39
436.90	4613.20
437.09	4697.46
437.28	4526.60
437.46	4540.64
437.65	4587.45
437.84	4638.94
438.02	4779.37
438.21	4739.58
438.40	4725.54
438.58	4767.67
438.77	4798.10
438.96	4896.40
439.14	4985.34
439.33	5114.07
439.52	4997.04
439.70	5114.07
439.89	5034.49
440.08	5320.04
440.26	5128.11
440.45	5018.11
440.63	5144.50
440.82	5195.99
441.01	5181.95
441.19	5444.09
441.38	5507.28
441.57	5406.64
441.75	5526.00
441.94	5490.90
442.12	5551.75
442.31	5547.07
442.50	5610.26
442.68	5598.56
442.87	5650.05
443.05	5598.56
443.24	5584.52
443.43	5806.87
443.61	5589.20
443.80	5888.79
443.98	5647.71
444.17	5439.40
444.35	5865.38
444.54	5804.53
444.73	5703.89
444.91	5851.34
445.10	5694.52
445.28	5781.12
445.47	5748.36
445.65	5863.04
445.84	5729.63
446.02	6132.20
446.21	5774.10
446.39	5891.13
446.58	6118.16
446.77	5989.43
446.95	5825.59
447.14	5867.72
447.32	5975.39
447.51	5944.96
447.69	5881.77
447.88	5895.81
448.06	6099.44
448.25	5783.46
448.43	5975.39
448.62	5989.43
448.80	5888.79
448.99	5996.45
449.17	6230.51
449.36	5914.53
449.54	6146.25
449.73	6125.18
449.91	6209.44
450.10	6242.21
450.28	6352.21
450.46	6312.42
450.65	6441.15
450.83	6239.87
451.02	6436.47
451.20	6450.52
451.39	6422.43
451.57	6296.04
451.76	6413.07
451.94	6462.22
452.13	6450.52
452.31	6457.54
452.49	6207.10
452.68	6516.05
452.86	6518.39
453.05	6565.20
453.23	6448.18
453.42	6441.15
453.60	6438.81
453.78	6637.76
453.97	6384.98
454.15	6794.58
454.34	6588.61
454.52	6743.08
454.70	6850.75
454.89	6654.14
455.07	6633.08
455.26	6782.87
455.44	6810.96
455.62	6768.83
455.81	7007.56
455.99	6977.14
456.17	6935.01
456.36	6979.48
456.54	6888.20
456.73	7229.91
456.91	7227.57
457.09	7178.42
457.28	7255.66
457.46	7063.74
457.64	7379.71
457.83	7267.36
458.01	7255.66
458.19	7321.20
458.38	7482.69
458.56	7475.67
458.74	7225.23
458.93	7475.67
459.11	7405.46
459.29	7611.42
459.48	7403.11
459.66	7492.05
459.84	7751.85
460.03	7473.33
460.21	7602.06
460.39	7627.81
460.57	7611.42
460.76	7527.16
460.94	7625.47
461.12	7810.37
461.31	7712.07
461.49	7630.15
461.67	7674.62
461.85	7866.54
462.04	7866.54
462.22	8266.77
462.40	7840.79
462.59	7955.48
462.77	7826.75
462.95	7939.10
463.13	7957.82
463.32	8011.65
463.50	8290.18
463.68	8210.60
463.86	8067.83
464.05	7899.31
464.23	7943.78
464.41	8159.11
464.59	8023.36
464.78	8215.28
464.96	8070.17
465.14	8152.09
465.32	8226.98
465.50	8308.90
465.69	8304.22
465.87	8241.03
466.05	8182.51
466.23	8091.23
466.41	8198.90
466.60	8491.46
466.78	8224.64
466.96	8442.31
467.14	8388.48
467.32	8358.05
467.51	8549.98
467.69	8318.26
467.87	8629.56
468.05	8365.07
468.23	8442.31
468.41	8393.16
468.60	8549.98
468.78	8463.38
468.96	8571.04
469.14	8634.24
469.32	8819.14
469.50	8542.96
469.69	8868.29
469.87	8800.41
470.05	8975.95
470.23	8912.76
470.41	8903.40
470.59	9071.92
470.77	8947.87
470.95	8982.98
471.14	9240.44
471.32	8961.91
471.50	9179.58
471.68	9053.19
471.86	9240.44
472.04	9263.84
472.22	9563.43
472.40	9472.15
472.58	9266.18
472.77	9610.24
472.95	9483.85
473.13	9596.20
473.31	9467.47
473.49	9507.26
473.67	9561.09
473.85	9682.80
474.03	9844.29
474.21	9956.64
474.39	10059.62
474.57	10054.94
474.75	10097.07
474.93	10148.56
475.12	10211.76
475.30	10186.01
475.48	10005.79
475.66	10272.61
475.84	10186.01
476.02	10270.27
476.20	10555.82
476.38	10768.80
476.56	10698.59
476.74	10738.38
476.92	10684.55
477.10	10764.12
477.28	10707.95
477.46	11056.69
477.64	10949.03
477.82	11169.04
478.00	11426.50
478.18	11136.27
478.36	11323.51
478.54	11651.19
478.72	11318.83
478.90	11503.73
479.08	11763.53
479.26	11779.92
479.44	11845.45
479.62	11850.13
479.80	12002.27
479.98	12189.51
480.16	12397.82
480.34	12030.35
480.52	12355.69
480.70	12329.94
480.88	12334.62
481.06	12432.93
481.24	12622.51
481.41	12671.66
481.59	13074.23
481.77	13004.02
481.95	12929.12
482.13	13200.62
482.31	13170.19
482.49	13427.65
482.67	13401.91
482.85	13745.97
483.03	13558.72
483.21	13989.38
483.39	13841.93
483.57	13724.90
483.74	14218.75
483.92	14218.75
484.10	13975.34
484.28	14396.64
484.46	14504.30
484.64	14841.34
484.82	14553.45
485.00	14773.46
485.18	15040.28
485.35	15257.95
485.53	14970.07
485.71	15016.88
485.89	15152.63
486.07	15213.48
486.25	15435.83
486.43	15520.09
486.61	15634.78
486.78	15707.34
486.96	15932.03
487.14	16070.12
487.32	16049.05
487.50	16248.00
487.68	16526.52
487.85	16690.36
488.03	16751.21
488.21	16765.26
488.39	17106.98
488.57	17003.99
488.75	17263.79
488.92	17472.10
489.10	17848.93
489.28	17654.66
489.46	17776.37
489.64	17862.97
489.81	18118.09
489.99	18092.34
490.17	18300.65
490.35	18691.52
490.53	18569.81
490.70	19058.98
490.88	18548.75
491.06	19084.73
491.24	18867.06
491.41	19066.00
491.59	19026.21
491.77	19262.61
491.95	19356.23
492.13	19508.37
492.30	19627.73
492.48	19964.77
492.66	19819.66
492.84	19803.27
493.01	20257.34
493.19	20032.65
493.37	20170.74
493.54	20456.28
493.72	20683.31
493.90	20650.55
494.08	20601.40
494.25	21167.80
494.43	20975.88
494.61	21277.81
494.79	21216.96
494.96	21628.89
495.14	21394.84
495.32	21818.47
495.49	21778.68
495.67	21914.44
495.85	21977.63
496.02	21699.11
496.20	22537.02
496.38	22417.65
496.55	22663.41
496.73	22953.63
496.91	22656.39
497.09	22654.05
497.26	23009.81
497.44	22808.52
497.62	23147.90
497.79	23316.42
497.97	23379.61
498.14	23718.99
498.32	23529.41
498.50	23520.04
498.67	23817.29
498.85	23751.76
499.03	24121.56
499.20	23962.40
499.38	24514.77
499.56	24259.65
499.73	24465.62
499.91	24294.76
500.08	24318.17
500.26	24350.93
500.44	24407.11
500.61	24690.31
500.79	24489.03
500.97	24748.82
501.14	25156.08
501.32	25259.06
501.49	25083.52
501.67	24980.54
501.84	25495.46
502.02	25256.72
502.20	25572.69
502.37	25551.63
502.55	25289.49
502.72	25862.92
502.90	25825.47
503.07	25500.14
503.25	25848.88
503.43	25963.56
503.60	26129.74
503.78	26246.77
503.95	26293.58
504.13	26415.29
504.30	26412.95
504.48	26331.03
504.65	26387.20
504.83	26801.47
505.01	26897.44
505.18	26581.46
505.36	27213.41
505.53	27068.30
505.71	27098.72
505.88	27520.02
506.06	27199.37
506.23	27337.46
506.41	27285.97
506.58	27431.08
506.76	27522.36
506.93	27702.58
507.11	27613.64
507.28	28046.64
507.46	28009.19
507.63	27955.36
507.81	28081.75
507.98	27754.07
508.16	28180.05
508.33	27913.23
508.50	28613.05
508.68	28826.04
508.85	28776.89
509.03	28320.48
509.20	28535.81
509.38	29069.45
509.55	28922.00
509.73	29153.71
509.90	28910.30
510.08	28905.62
510.25	28751.14
510.42	29387.77
510.60	29495.43
510.77	29472.03
510.95	29656.93
511.12	29429.90
511.30	29493.09
511.47	30242.06
511.64	30256.11
511.82	30225.68
511.99	29682.67
512.17	30232.70
512.34	29596.07
512.51	30576.76
512.69	30216.32
512.86	30841.24
513.04	30675.06
513.21	30740.60
513.38	30525.27
513.56	30607.19
513.73	30808.47
513.90	30991.03
514.08	30614.21
514.25	30635.27
514.43	30714.85
514.60	30859.96
514.77	30803.79
514.95	31009.76
515.12	31145.51
515.29	31054.23
515.47	31704.90
515.64	31718.94
515.81	31590.21
515.99	31473.18
516.16	31454.46
516.33	31536.38
516.51	31805.54
516.68	31325.73
516.85	31505.95
517.03	31758.73
517.20	31943.63
517.37	31660.43
517.54	32261.94
517.72	32219.81
517.89	31866.39
518.06	32346.20
518.24	31906.18
518.41	32060.66
518.58	32364.93
518.75	31997.46
518.93	32835.38
519.10	32538.13
519.27	32538.13
519.45	32809.63
519.62	32994.53
519.79	33174.75
519.96	33364.34
520.14	33177.09
520.31	32889.21
520.48	32807.29
520.65	33507.11
520.83	33687.33
521.00	33488.38
521.17	34061.82
521.34	33666.27
521.52	33663.93
521.69	34033.73
521.86	33914.36
522.03	33905.00
522.20	34279.49
522.38	33865.21
522.55	34082.88
522.72	33806.70
522.89	34188.21
523.07	34679.72
523.24	34061.82
523.41	34522.90
523.58	34176.50
523.75	34888.03
523.92	35049.52
524.10	34834.19
524.27	34780.36
524.44	34878.66
524.61	34953.56
524.78	34778.02
524.96	34920.79
525.13	35379.54
525.30	35208.68
525.47	34906.75
525.64	35000.37
525.81	35501.25
525.98	35456.78
526.16	35524.65
526.33	35079.95
526.50	35796.15
526.67	35180.59
526.84	35728.28
527.01	35557.42
527.18	35662.74
527.36	35847.64
527.53	35784.45
527.70	36070.00
527.87	35962.33
528.04	35924.88
528.21	36430.44
528.38	35934.24
528.55	36325.11
528.72	36306.39
528.89	36442.14
529.07	36304.05
529.24	36046.59
529.41	36559.17
529.58	36062.97
529.75	36503.00
529.92	36891.52
530.09	36652.79
530.26	36919.61
530.43	36910.25
530.60	36521.72
530.77	36755.77
530.94	37132.60
531.11	36807.26
531.28	36903.23
531.46	37471.98
531.63	37174.73
531.80	36882.16
531.97	37174.73
532.14	37041.32
532.31	36938.33
532.48	37483.68
532.65	37558.58
532.82	37366.65
532.99	37420.48
533.16	37521.13
533.33	37427.51
533.50	37619.43
533.67	37783.27
533.84	37731.78
534.01	37785.61
534.18	38031.36
534.35	38108.60
534.52	37844.12
534.69	37656.88
534.86	38092.22
535.03	37947.11
535.20	38487.77
535.37	38986.30
535.54	38630.54
535.71	38227.97
535.88	38073.49
536.05	38211.59
536.22	38550.96
536.38	38464.36
536.55	38394.15
536.72	38763.95
536.89	38300.53
537.06	38405.85
537.23	39068.22
537.40	38384.79
537.57	38593.09
537.74	38768.63
537.91	39019.07
538.08	39182.91
538.25	38321.59
538.42	39115.03
538.59	39318.66
538.75	38721.82
538.92	38714.80
539.09	38995.67
539.26	39086.95
539.43	39400.58
539.60	39569.10
539.77	39131.42
539.94	39220.36
540.11	39442.71
540.28	39325.68
540.44	39292.91
540.61	39225.04
540.78	39147.80
540.95	39484.84
541.12	39526.97
541.29	39222.70
541.46	39164.18
541.62	39854.64
541.79	39833.58
541.96	39646.33
542.13	39679.10
542.30	39819.53
542.47	40254.87
542.63	39548.03
542.80	40072.31
542.97	40538.08
543.14	41013.21
543.31	40397.65
543.48	40481.91
543.64	40847.03
543.81	40804.90
543.98	40559.14
544.15	40411.69
544.32	40435.10
544.48	41102.15
544.65	40744.05
544.82	40912.56
544.99	40362.54
545.16	41141.94
545.32	40762.77
545.49	41034.27
545.66	40790.86
545.83	40814.26
546.00	41413.44
546.16	41261.30
546.33	41186.41
546.50	40933.63
546.67	41574.94
546.83	40950.01
547.00	41422.80
547.17	41144.28
547.34	41043.63
547.50	41123.21
547.67	41436.84
547.84	41446.21
548.00	41570.25
548.17	41596.00
548.34	41354.93
548.51	41319.82
548.67	41745.80
548.84	41347.90
549.01	41570.25
549.18	41694.30
549.34	41832.39
549.51	41394.71
549.68	41780.90
549.84	41647.49
550.01	42234.97
550.18	41661.54
550.34	41345.56
550.51	41743.45
550.68	41881.55
550.84	41776.22
551.01	42337.95
551.18	42171.77
551.34	41883.89
551.51	42267.73
551.68	42237.31
551.84	41968.15
552.01	42110.92
552.18	42066.45
552.34	42101.56
552.51	42342.63
552.68	42181.13
552.84	42536.90
553.01	42995.64
553.18	42213.90
553.34	42588.39
553.51	42061.77
553.67	42618.81
553.84	42672.65
554.01	42948.83
554.17	42698.39
554.34	42595.41
554.51	42642.22
554.67	43234.38
554.84	42670.31
555.00	42841.17
555.17	42192.84
555.33	42543.92
555.50	43082.24
555.67	43196.93
555.83	42487.74
556.00	43054.15
556.16	43166.50
556.33	43145.44
556.50	42799.04
556.66	42878.61
556.83	42447.96
556.99	43372.47
557.16	43028.41
557.32	43391.19
557.49	43201.61
557.65	43054.15
557.82	43501.20
557.98	43210.97
558.15	43093.94
558.32	43372.47
558.48	43129.05
558.65	43196.93
558.81	43203.95
558.98	43196.93
559.14	43454.39
559.31	43447.36
559.47	43587.80
559.64	43519.92
559.80	43871.00
559.97	43536.30
560.13	43058.84
560.30	43440.34
560.46	43440.34
560.63	43557.37
560.79	43264.80
560.96	43803.13
561.12	43646.31
561.29	43756.32
561.45	43854.62
561.61	43835.89
561.78	43679.08
561.94	43175.86
562.11	43627.59
562.27	43821.85
562.44	43515.24
562.60	43835.89
562.77	43761.00
562.93	43798.44
563.10	44009.09
563.26	43625.25
563.42	43917.81
563.59	43526.94
563.75	43903.77
563.92	43915.47
564.08	43800.79
564.24	43871.00
564.41	44210.38
564.57	43768.02
564.74	43957.60
564.90	43903.77
565.07	43653.33
565.23	43700.14
565.39	43540.99
565.56	44023.14
565.72	43856.96
565.88	44191.65
566.05	44126.12
566.21	43660.35
566.38	43901.43
566.54	44081.65
566.70	44346.13
566.87	44493.58
567.03	43756.32
567.19	44346.13
567.36	43936.54
567.52	43955.26
567.68	44128.46
567.85	43566.73
568.01	43835.89
568.17	44208.04
568.34	43915.47
568.50	44037.18
568.66	44196.34
568.83	43997.39
568.99	43992.71
569.15	44371.88
569.32	44201.02
569.48	43938.88
569.64	44797.85
569.81	44332.09
569.97	44842.32
570.13	44615.29
570.30	44067.61
570.46	44086.33
570.62	44198.68
570.78	44149.53
570.95	44177.61
571.11	44549.76
571.27	44421.03
571.43	44524.01
571.60	44233.78
571.76	44411.67
571.92	44194.00
572.09	44334.43
572.25	44238.47
572.41	43915.47
572.57	44830.62
572.74	44882.11
572.90	44502.95
573.06	44285.28
573.22	44608.27
573.38	44505.29
573.55	44325.07
573.71	44465.50
573.87	44383.58
574.03	44535.71
574.20	44313.36
574.36	44367.20
574.52	44619.97
574.68	44418.69
574.84	44538.05
575.01	44837.64
575.17	44605.93
575.33	44399.96
575.49	44231.44
575.65	44739.34
575.82	44580.18
575.98	44549.76
576.14	44889.13
576.30	44687.85
576.46	44406.98
576.62	44053.56
576.79	44507.63
576.95	43952.92
577.11	44863.39
577.27	44460.82
577.43	44411.67
577.59	44638.70
577.75	44566.14
577.92	44016.11
578.08	44341.45
578.24	44114.42
578.40	44591.89
578.56	44905.52
578.72	44273.57
578.88	44713.59
579.04	44376.56
579.21	44318.04
579.37	44322.72
579.53	44561.46
579.69	44589.55
579.85	44779.13
580.01	44301.66
580.17	44505.29
580.33	45067.02
580.49	44842.32
580.65	44495.92
580.82	44552.10
580.98	44945.31
581.14	44554.44
581.30	44561.46
581.46	44182.29
581.62	44685.51
581.78	44418.69
581.94	45116.17
582.10	44446.77
582.26	45165.32
582.42	44816.58
582.58	44762.75
582.74	44680.83
582.90	44985.10
583.06	44931.26
583.22	44666.78
583.38	45158.30
583.54	44919.56
583.70	44360.17
583.86	44671.46
584.02	44545.08
584.18	44591.89
584.34	44587.21
584.50	44533.37
584.66	44533.37
584.82	44713.59
584.98	45050.63
585.14	44622.31
585.30	44910.20
585.46	44563.80
585.62	44563.80
585.78	44385.92
585.94	44336.77
586.10	44348.47
586.26	44718.28
586.42	44912.54
586.58	44673.81
586.74	44903.18
586.90	44818.92
587.06	44362.51
587.22	44729.98
587.38	44247.83
587.54	44886.79
587.70	45195.74
587.86	45078.72
588.02	44547.42
588.18	45378.31
588.34	44687.85
588.49	44479.54
588.65	44395.28
588.81	44561.46
588.97	44353.15
589.13	44552.10
589.29	44409.32
589.45	45001.48
589.61	45069.36
589.77	45020.20
589.93	44774.45
590.08	45209.79
590.24	45102.12
590.40	44722.96
590.56	45153.62
590.72	45062.33
590.88	44961.69
591.04	44917.22
591.20	44933.60
591.35	44898.50
591.51	45488.31
591.67	44797.85
591.83	44882.11
591.99	44638.70
592.15	44648.06
592.31	44982.76
592.46	45242.56
592.62	44980.42
592.78	44790.83
592.94	45139.57
593.10	45017.86
593.26	44985.10
593.41	45165.32
593.57	45090.42
593.73	45361.92
593.89	44996.80
594.05	44786.15
594.20	45434.48
594.36	45228.51
594.52	45071.70
594.68	45174.68
594.84	45235.53
594.99	45488.31
595.15	44973.39
595.31	45195.74
595.47	45137.23
595.62	45003.82
595.78	44758.06
595.94	45109.14
596.10	45588.95
596.25	45502.35
596.41	45184.04
596.57	44994.46
596.73	45202.77
596.88	44856.37
597.04	45090.42
597.20	45375.97
597.36	45254.26
597.51	45378.31
597.67	44959.35
597.83	45619.38
597.99	45118.51
598.14	45249.58
598.30	45024.89
598.46	45090.42
598.61	44774.45
598.77	44949.99
598.93	45235.53
599.09	45055.31
599.24	45448.52
599.40	45422.78
599.56	45628.74
599.71	45361.92
599.87	45535.12
600.03	45305.75
600.18	45516.40
600.34	44959.35
600.50	45221.49
600.65	45127.87
600.81	45308.09
600.97	45565.55
601.12	45750.45
601.28	45148.93
601.44	45364.26
601.59	45088.08
601.75	44954.67
601.91	44947.65
602.06	45390.01
602.22	44842.32
602.37	44875.09
602.53	44982.76
602.69	45478.95
602.84	45205.11
603.00	45202.77
603.16	45015.52
603.31	44966.37
603.47	44741.68
603.62	44781.47
603.78	45333.84
603.94	44975.73
604.09	45081.06
604.25	45399.37
604.40	44737.00
604.56	45130.21
604.71	45097.44
604.87	45226.17
605.03	45326.81
605.18	45090.42
605.34	44903.18
605.49	45036.59
605.65	44701.89
605.80	44746.36
605.96	44835.30
606.12	45277.66
606.27	45333.84
606.43	44893.82
606.58	45310.43
606.74	44837.64
606.89	44949.99
607.05	44964.03
607.20	44879.77
607.36	45308.09
607.51	45280.00
607.67	45127.87
607.82	45195.74
607.98	45017.86
608.13	45350.22
608.29	44825.94
608.44	44446.77
608.60	44238.47
608.75	44605.93
608.91	44818.92
609.06	44683.17
609.22	45261.28
609.37	44577.84
609.53	44786.15
609.68	44797.85
609.84	44746.36
609.99	44938.29
610.15	45162.98
610.30	44484.22
610.46	44453.79
610.61	44568.48
610.76	44247.83
610.92	44376.56
611.07	44748.70
611.23	44479.54
611.38	44694.87
611.54	44175.27
611.69	44439.75
611.84	44034.84
612.00	44575.50
612.15	44179.95
612.31	44711.25
612.46	44732.32
612.62	44680.83
612.77	44577.84
612.92	44514.65
613.08	44800.19
613.23	44521.67
613.39	43756.32
613.54	44259.53
613.69	44582.52
613.85	44608.27
614.00	44404.64
614.15	44566.14
614.31	44772.11
614.46	44301.66
614.62	44222.08
614.77	44570.82
614.92	44332.09
615.08	44353.15
615.23	44156.55
615.38	44320.38
615.54	43655.67
615.69	44069.95
615.84	43559.71
616.00	44428.05
616.15	44027.82
616.30	43880.36
616.46	43543.33
616.61	43250.76
616.76	43878.02
616.92	43606.52
617.07	43749.29
617.22	43620.56
617.37	43681.42
617.53	44011.43
617.68	43742.27
617.83	43941.22
617.99	44107.40
618.14	43552.69
618.29	43414.60
618.45	43435.66
618.60	43892.07
618.75	43704.82
618.90	43445.02
619.06	43943.56
619.21	43433.32
619.36	43660.35
619.51	43800.79
619.67	43269.48
619.82	43299.91
619.97	43875.68
620.12	43311.61
620.28	43051.81
620.43	43445.02
620.58	43234.38
620.73	43349.06
620.89	43124.37
621.04	42923.08
621.19	42953.51
621.34	43161.82
621.49	43014.37
621.65	43161.82
621.80	43173.52
621.95	43164.16
622.10	43309.27
622.25	43012.02
622.41	42412.85
622.56	43152.46
622.71	42892.66
622.86	42866.91
623.01	43007.34
623.16	42873.93
623.32	43033.09
623.47	43351.40
623.62	43201.61
623.77	43098.62
623.92	42801.38
624.07	42653.92
624.23	42192.84
624.38	42869.25
624.53	42667.97
624.68	42862.23
624.83	42424.55
624.98	43016.71
625.13	42424.55
625.29	42557.96
625.44	42834.14
625.59	42490.09
625.74	42087.51
625.89	41823.03
626.04	41998.57
626.19	42775.63
626.34	42267.73
626.49	42497.11
626.65	41867.50
626.80	42438.59
626.95	42078.15
627.10	41909.63
627.25	42232.63
627.40	42033.68
627.55	41904.95
627.70	41338.54
627.85	41612.38
628.00	41825.37
628.15	42167.09
628.30	41900.27
628.45	42029.00
628.60	41991.55
628.76	41764.52
628.91	42188.16
629.06	42171.77
629.21	41881.55
629.36	41998.57
629.51	41603.02
629.66	41823.03
629.81	41574.94
629.96	41930.70
630.11	41785.58
630.26	42005.59
630.41	41748.14
630.56	41542.17
630.71	41366.63
630.86	41467.27
631.01	41682.60
631.16	41368.97
631.31	40954.69
631.46	41013.21
631.61	41291.73
631.76	41556.21
631.91	41621.75
632.06	41378.33
632.21	41155.98
632.36	41570.25
632.51	41415.78
632.66	41612.38
632.81	40926.61
632.96	40971.08
633.10	40732.34
633.25	40926.61
633.40	41092.79
633.55	41092.79
633.70	41158.32
633.85	41247.26
634.00	40893.84
634.15	41013.21
634.30	41155.98
634.45	41036.61
634.60	40533.40
634.75	40788.52
634.90	40631.70
635.05	40980.44
635.19	41045.97
635.34	41200.45
635.49	40814.26
635.64	40935.97
635.79	40362.54
635.94	40500.63
636.09	40598.93
636.24	40598.93
636.39	40388.28
636.53	40280.62
636.68	40133.17
636.83	40891.50
636.98	40201.04
637.13	40369.56
637.28	40577.87
637.43	40835.33
637.57	40966.40
637.72	40449.14
637.87	40444.46
638.02	40367.22
638.17	40437.44
638.32	40133.17
638.46	40065.29
638.61	40091.04
638.76	40512.33
638.91	40041.88
639.06	40390.62
639.20	39868.69
639.35	40357.86
639.50	40381.26
639.65	39971.67
639.80	40313.39
639.94	40027.84
640.09	39620.59
640.24	39941.24
640.39	39931.88
640.54	40018.48
640.68	39672.08
640.83	39735.27
640.98	39651.02
641.13	39714.21
641.27	39945.92
641.42	40053.59
641.57	40037.20
641.72	39739.96
641.86	39262.49
642.01	39885.07
642.16	39246.10
642.31	39115.03
642.45	39524.63
642.60	38792.04
642.75	39349.09
642.90	39337.38
643.04	39423.98
643.19	39449.73
643.34	39590.16
643.48	39473.13
643.63	39459.09
643.78	39648.68
643.93	39012.05
644.07	39133.76
644.22	39178.23
644.37	39112.69
644.51	39033.11
644.66	39152.48
644.81	39299.94
644.95	39318.66
645.10	39129.08
645.25	39077.58
645.39	39077.58
645.54	39246.10
645.69	38948.85
645.83	38752.25
645.98	39379.51
646.13	39234.40
646.27	39019.07
646.42	39098.65
646.57	38670.33
646.71	38937.15
646.86	39054.18
647.00	39030.77
647.15	39068.22
647.30	38953.54
647.44	38770.97
647.59	38478.41
647.74	38232.65
647.88	38600.12
648.03	38326.27
648.17	39164.18
648.32	38506.49
648.47	38160.09
648.61	38092.22
648.76	39047.16
648.90	38595.43
649.05	38387.13
649.20	38635.22
649.34	38998.01
649.49	38560.33
649.63	38377.76
649.78	38443.30
649.92	38422.23
650.07	38445.64
650.21	38220.95
650.36	38066.47
650.51	38305.21
650.65	38593.09
650.80	38473.73
650.94	38223.29
651.09	38501.81
651.23	38213.93
651.38	38356.70
651.52	37654.54
651.67	38274.78
651.81	37804.33
651.96	38038.39
652.10	37846.46
652.25	37879.23
652.39	37724.75
652.54	37708.37
652.68	38059.45
652.83	37933.06
652.97	37853.48
653.12	37521.13
653.26	37848.80
653.41	37642.84
653.55	37944.76
653.70	37670.92
653.84	37830.08
653.99	37673.26
654.13	37514.11
654.27	37923.70
654.42	37390.06
654.56	37581.98
654.71	37874.55
654.85	37518.79
655.00	37893.27
655.14	37591.34
655.29	36940.68
655.43	36830.67
655.57	37137.28
655.72	36746.41
655.86	37200.47
656.01	37268.35
656.15	37106.85
656.30	37053.02
656.44	36973.44
656.58	36973.44
656.73	36910.25
656.87	36818.97
657.01	36821.31
657.16	36844.71
657.30	36835.35
657.45	36793.22
657.59	36776.84
657.73	36940.68
657.88	37219.20
658.02	36774.50
658.16	36886.84
658.31	36905.57
658.45	37123.24
658.60	36666.83
658.74	36704.28
658.88	36545.12
659.03	36692.58
659.17	36184.68
659.31	36657.47
659.46	36414.05
659.60	36453.84
659.74	35959.99
659.89	36217.45
660.03	36201.07
660.17	36081.70
660.32	36397.67
660.46	36704.28
660.60	36137.87
660.74	35894.46
660.89	36088.72
661.03	35651.04
661.17	35335.07
661.32	35732.96
661.46	35564.44
661.60	35440.39
661.74	35496.56
661.89	35321.02
662.03	35835.94
662.17	35655.72
662.31	35594.87
662.46	35639.34
662.60	35784.45
662.74	35732.96
662.88	35587.85
663.03	35676.79
663.17	35250.81
663.31	35154.85
663.45	35281.24
663.60	35292.94
663.74	35248.47
663.88	34689.08
664.02	34525.24
664.17	34768.66
664.31	34916.11
664.45	34756.96
664.59	34948.88
664.73	34417.58
664.88	34520.56
665.02	34623.54
665.16	34817.81
665.30	34768.66
665.44	34831.85
665.59	34415.24
665.73	34436.30
665.87	34408.22
666.01	34132.03
666.15	34054.79
666.29	34466.73
666.44	34335.66
666.58	34272.46
666.72	34059.48
666.86	34101.61
667.00	34216.29
667.14	33682.65
667.28	33692.01
667.43	33729.46
667.57	33942.45
667.71	33284.76
667.85	33820.74
667.99	33422.85
668.13	33216.88
668.27	33546.90
668.41	33759.89
668.56	33390.08
668.70	33305.82
668.84	33207.52
668.98	33184.12
669.12	32978.15
669.26	33411.15
669.40	33223.90
669.54	32905.59
669.68	32896.23
669.82	32767.50
669.96	32634.09
670.10	32795.59
670.25	33020.28
670.39	32912.61
670.53	32907.93
670.67	32629.41
670.81	32708.99
670.95	32900.91
671.09	32481.95
671.23	32650.47
671.37	32790.91
671.51	31861.71
671.65	32261.94
671.79	31812.56
671.93	32488.98
672.07	32229.18
672.21	31936.61
672.35	32135.56
672.49	32034.91
672.63	31988.10
672.77	31620.64
672.91	32217.47
673.05	31702.56
673.19	31662.77
673.33	31299.98
673.47	31571.49
673.61	31363.18
673.75	31505.95
673.89	31068.27
674.03	30803.79
674.17	30824.86
674.31	31131.47
674.45	31250.83
674.59	31241.47
674.73	30876.35
674.87	30754.64
675.01	30740.60
675.15	30668.04
675.29	30274.83
675.43	30831.88
675.56	30426.96
675.70	30539.31
675.84	30558.03
675.98	29123.29
676.12	30113.33
676.26	30071.20
676.40	29956.52
676.54	29970.56
676.68	30073.54
676.82	29146.69
676.96	29663.95
677.10	29252.02
677.23	29394.79
677.37	29467.34
677.51	29287.12
677.65	29137.33
677.79	28943.06
677.93	29006.26
678.07	28739.44
678.21	28498.36
678.34	28404.74
678.48	28322.82
678.62	28613.05
678.76	28566.24
678.90	28709.01
679.04	28350.91
679.18	28252.61
679.31	28229.20
679.45	27864.08
679.59	27819.61
679.73	28060.68
679.87	27833.65
680.00	27833.65
680.14	27978.76
680.28	27508.32
680.42	27557.47
680.56	27421.72
680.70	27300.01
680.83	27456.82
680.97	26969.99
681.11	26817.86
681.25	26700.83
681.39	26759.34
681.52	26859.99
681.66	26803.82
681.80	26895.10
681.94	26817.86
682.07	26267.83
682.21	26443.37
682.35	26352.09
682.49	26459.76
682.62	26249.11
682.76	25937.82
682.90	26078.25
683.04	26127.40
683.17	25844.20
683.31	25563.33
683.45	25748.23
683.59	25350.34
683.72	25352.68
683.86	25333.96
684.00	25202.89
684.13	25284.81
684.27	25214.59
684.41	25275.45
684.55	24959.47
684.68	25046.07
684.82	24769.89
684.96	25010.96
685.09	24713.72
685.23	24505.41
685.37	24526.47
685.50	24542.86
685.64	24233.91
685.78	24694.99
685.91	24287.74
686.05	24245.61
686.19	23948.36
686.32	24173.05
686.46	23740.05
686.60	23473.23
686.73	23601.96
686.87	23407.70
687.01	23321.10
687.14	23285.99
687.28	23000.44
687.42	23372.59
687.55	23016.83
687.69	22754.69
687.82	23054.28
687.96	22834.27
688.10	22499.57
688.23	22778.09
688.37	22733.62
688.50	22427.01
688.64	22394.25
688.78	22450.42
688.91	22485.53
689.05	22089.98
689.18	21907.41
689.32	21722.51
689.46	21944.86
689.59	21986.99
689.73	22139.13
689.86	22169.55
690.00	21664.00
690.13	21858.26
690.27	21593.78
690.41	21736.56
690.54	21495.48
690.68	21231.00
690.81	21355.05
690.95	21071.84
691.08	21076.52
691.22	20910.35
691.35	20872.90
691.49	20851.83
691.62	20830.77
691.76	20896.30
691.89	20767.57
692.03	20327.55
692.16	20343.94
692.30	20306.49
692.43	20367.34
692.57	20336.91
692.70	20098.18
692.84	19999.88
692.97	19964.77
693.11	19737.74
693.24	19681.56
693.38	19541.13
693.51	19709.65
693.65	19627.73
693.78	19744.76
693.92	19672.20
694.05	19278.99
694.19	19489.64
694.32	19150.26
694.45	19281.33
694.59	19080.05
694.72	19021.53
694.86	18707.90
694.99	18630.66
695.13	18714.92
695.26	18583.85
695.39	18356.82
695.53	18714.92
695.66	18398.95
695.80	18265.54
695.93	18104.04
696.07	18127.45
696.20	18082.98
696.33	18054.89
696.47	18281.92
696.60	18054.89
696.73	17998.72
696.87	17785.73
697.00	17809.14
697.14	17874.67
697.27	17436.99
697.40	17385.50
697.54	17481.46
697.67	17219.32
697.80	17401.88
697.94	17418.27
698.07	17233.36
698.21	17125.70
698.34	16968.88
698.47	17118.68
698.61	16711.42
698.74	16514.82
698.87	16582.70
699.01	16404.81
699.14	16659.93
699.27	16297.15
699.40	16404.81
699.54	15903.94
699.67	16130.97
699.80	16074.80
699.94	15847.77
700.07	16011.60
700.20	15943.73
700.34	16046.71
700.47	15779.89
700.60	15597.33
700.73	16018.63
700.87	15541.16
701.00	15431.15
701.13	15431.15
701.26	15262.63
701.40	15403.07
701.53	15445.20
701.66	15419.45
701.79	15124.54
701.93	15194.76
702.06	14808.57
702.19	14736.01
702.32	15035.60
702.46	14541.75
702.59	14766.44
702.72	14752.40
702.85	14623.67
702.99	14710.27
703.12	14813.25
703.25	14459.83
703.38	14675.16
703.51	14487.92
703.65	14590.90
703.78	14391.95
703.91	14083.00
704.04	14162.58
704.17	14157.90
704.31	14267.91
704.44	13671.07
704.57	13729.58
704.70	13446.38
704.83	13727.24
704.96	13605.53
705.10	13678.09
705.23	13804.48
>>>>>End Processed Spectral Data<<<<<
