SpectraSuite Data File
++++++++++++++++++++++++++++++++++++
Date: Fri Oct 25 10:46:58 EDT 2013
User: price-jones
Dark Spectrum Present: No
Reference Spectrum Present: No
Number of Sampled Component Spectra: 1
Spectrometers: USB2+H05261
Integration Time (usec): 100000 (USB2+H05261)
Spectra Averaged: 1 (USB2+H05261)
Boxcar Smoothing: 0 (USB2+H05261)
Correct for Electrical Dark: No (USB2+H05261)
Strobe/Lamp Enabled: No (USB2+H05261)
Correct for Detector Non-linearity: No (USB2+H05261)
Correct for Stray Light: No (USB2+H05261)
Number of Pixels in Processed Spectrum: 2048
>>>>>Begin Processed Spectral Data<<<<<
365.73	145.11
365.92	145.11
366.12	145.11
366.32	133.41
366.52	105.32
366.72	117.03
366.91	11.70
367.11	18.72
367.31	42.13
367.51	67.88
367.70	53.83
367.90	42.13
368.10	14.04
368.30	35.11
368.49	56.17
368.69	58.51
368.89	70.22
369.09	74.90
369.28	110.01
369.48	67.88
369.68	168.52
369.87	79.58
370.07	95.96
370.27	140.43
370.47	255.12
370.66	344.06
370.86	404.91
371.06	545.34
371.25	533.64
371.45	430.66
371.65	503.22
371.84	397.89
372.04	404.91
372.24	454.06
372.44	500.87
372.63	545.34
372.83	507.90
373.03	519.60
373.22	475.13
373.42	566.41
373.62	486.83
373.81	512.58
374.01	594.50
374.21	564.07
374.40	564.07
374.60	585.13
374.79	638.97
374.99	580.45
375.19	582.79
375.38	610.88
375.58	538.32
375.78	589.82
375.97	526.62
376.17	634.29
376.37	655.35
376.56	634.29
376.76	641.31
376.95	603.86
377.15	603.86
377.35	615.56
377.54	678.76
377.74	641.31
377.93	589.82
378.13	622.58
378.33	704.50
378.52	664.71
378.72	648.33
378.91	653.01
379.11	683.44
379.31	662.37
379.50	599.18
379.70	711.52
379.89	645.99
380.09	650.67
380.28	697.48
380.48	709.18
380.68	741.95
380.87	681.10
381.07	667.05
381.26	760.67
381.46	606.20
381.65	788.76
381.85	702.16
382.04	763.01
382.24	732.59
382.43	819.19
382.63	723.23
382.83	718.54
383.02	737.27
383.22	746.63
383.41	713.86
383.61	716.20
383.80	753.65
384.00	826.21
384.19	809.83
384.39	695.14
384.58	844.93
384.78	821.53
384.97	793.44
385.17	758.33
385.36	847.27
385.56	922.17
385.75	777.06
385.95	781.74
386.14	823.87
386.34	774.72
386.53	882.38
386.72	823.87
386.92	887.06
387.11	861.32
387.31	866.00
387.50	809.83
387.70	858.98
387.89	917.49
388.09	880.04
388.28	809.83
388.48	922.17
388.67	952.60
388.86	922.17
389.06	894.08
389.25	976.00
389.45	961.96
389.64	1036.86
389.84	929.19
390.03	917.49
390.22	1053.24
390.42	950.26
390.61	1015.79
390.81	1008.77
391.00	1083.67
391.19	1046.22
391.39	976.00
391.58	990.05
391.78	983.02
391.97	1032.18
392.16	1083.67
392.36	976.00
392.55	1086.01
392.75	1015.79
392.94	910.47
393.13	1053.24
393.33	1004.09
393.52	1125.80
393.71	1130.48
393.91	1125.80
394.10	1053.24
394.29	1149.20
394.49	1086.01
394.68	1188.99
394.88	1177.29
395.07	1163.25
395.26	1191.33
395.46	1226.44
395.65	1205.38
395.84	1196.01
396.04	1270.91
396.23	1184.31
396.42	1125.80
396.62	1170.27
396.81	1231.12
397.00	1179.63
397.19	1144.52
397.39	1341.13
397.58	1317.72
397.77	1317.72
397.97	1453.47
398.16	1338.79
398.35	1423.05
398.55	1362.19
398.74	1392.62
398.93	1439.43
399.12	1348.15
399.32	1418.36
399.51	1446.45
399.70	1448.79
399.90	1474.54
400.09	1516.67
400.28	1500.28
400.47	1593.90
400.67	1582.20
400.86	1472.20
401.05	1577.52
401.24	1699.23
401.44	1579.86
401.63	1701.57
401.82	1643.06
402.01	1659.44
402.21	1713.27
402.40	1734.34
402.59	1633.69
402.78	1699.23
402.97	1645.40
403.17	1736.68
403.36	1732.00
403.55	1734.34
403.74	1893.49
403.93	1748.38
404.13	1930.94
404.32	1757.74
404.51	1860.73
404.70	1762.42
404.89	1856.04
405.09	1888.81
405.28	1874.77
405.47	1792.85
405.66	1888.81
405.85	1968.39
406.05	1825.62
406.24	1973.07
406.43	1919.24
406.62	2012.86
406.81	2031.58
407.00	1968.39
407.20	2036.27
407.39	1970.73
407.58	2115.84
407.77	2146.27
407.96	2202.44
408.15	2115.84
408.34	2141.59
408.54	2118.18
408.73	2108.82
408.92	2155.63
409.11	2246.91
409.30	2239.89
409.49	2150.95
409.68	2160.31
409.87	2218.83
410.07	2188.40
410.26	2230.53
410.45	2424.80
410.64	2225.85
410.83	2455.22
411.02	2373.30
411.21	2586.29
411.40	2434.16
411.59	2450.54
411.78	2459.90
411.98	2534.80
412.17	2457.56
412.36	2661.19
412.55	2539.48
412.74	2579.27
412.93	2621.40
413.12	2693.96
413.31	2672.89
413.50	2654.17
413.69	2813.32
413.88	2773.53
414.07	2658.85
414.26	2789.92
414.45	2867.16
414.64	2832.05
414.83	2939.71
415.02	2843.75
415.22	2963.12
415.41	2998.23
415.60	2965.46
415.79	3108.23
415.98	3152.70
416.17	3103.55
416.36	3084.83
416.55	3014.61
416.74	3239.30
416.93	3241.64
417.12	3082.49
417.31	3176.11
417.50	3304.84
417.69	3332.92
417.88	3332.92
418.07	3300.16
418.26	3318.88
418.45	3297.81
418.64	3396.12
418.83	3386.76
419.02	3391.44
419.21	3576.34
419.39	3548.25
419.58	3496.76
419.77	3342.28
419.96	3538.89
420.15	3616.13
420.34	3585.70
420.53	3578.68
420.72	3545.91
420.91	3833.80
421.10	3618.47
421.29	3637.19
421.48	3667.62
421.67	3705.07
421.86	3712.09
422.05	3588.04
422.24	3646.55
422.43	3709.75
422.61	3747.20
422.80	3768.26
422.99	3712.09
423.18	3850.18
423.37	3868.91
423.56	3693.37
423.75	3838.48
423.94	3606.77
424.13	3569.32
424.32	3709.75
424.50	3749.54
424.69	3896.99
424.88	3953.16
425.07	3735.50
425.26	3686.34
425.45	3918.06
425.64	3735.50
425.83	3777.62
426.01	3824.44
426.20	3901.67
426.39	3831.46
426.58	3779.97
426.77	3866.56
426.96	3901.67
427.15	3789.33
427.33	3960.19
427.52	3812.73
427.71	3936.78
427.90	3751.88
428.09	4044.45
428.28	3934.44
428.46	4002.32
428.65	4042.11
428.84	4124.02
429.03	4196.58
429.22	3969.55
429.40	4182.54
429.59	3978.91
429.78	3817.41
429.97	3950.82
430.16	4035.08
430.34	3992.95
430.53	4023.38
430.72	4138.07
430.91	4126.36
431.10	4117.00
431.28	4379.14
431.47	4367.44
431.66	4482.13
431.85	4477.44
432.03	4507.87
432.22	4645.96
432.41	4301.90
432.60	4402.55
432.79	4580.43
432.97	4545.32
433.16	4500.85
433.35	4313.61
433.54	4493.83
433.72	4575.75
433.91	4580.43
434.10	4622.56
434.28	4547.66
434.47	4643.62
434.66	4695.11
434.85	4746.61
435.03	4770.01
435.22	4599.15
435.41	4863.63
435.59	4877.68
435.78	4844.91
435.97	4978.32
436.16	4858.95
436.34	4802.78
436.53	4793.42
436.72	5088.32
436.90	4863.63
437.09	4985.34
437.28	4957.25
437.46	5104.71
437.65	5015.77
437.84	5064.92
438.02	5076.62
438.21	4997.04
438.40	4961.94
438.58	5378.55
438.77	5006.41
438.96	5177.26
439.14	5383.23
439.33	5387.91
439.52	5460.47
439.70	5533.03
439.89	5533.03
440.08	5486.22
440.26	5638.35
440.45	5497.92
440.63	5734.31
440.82	5731.97
441.01	5537.71
441.19	5884.11
441.38	5790.49
441.57	5944.96
441.75	6008.16
441.94	6052.63
442.12	6026.88
442.31	6136.88
442.50	5937.94
442.68	6043.26
442.87	6162.63
443.05	5984.75
443.24	6186.04
443.43	6307.74
443.61	6146.25
443.80	6249.23
443.98	6026.88
444.17	5914.53
444.35	6223.48
444.54	6256.25
444.73	6214.12
444.91	6274.98
445.10	6359.24
445.28	6312.42
445.47	6150.93
445.65	6319.45
445.84	6263.27
446.02	6394.34
446.21	6434.13
446.39	6429.45
446.58	6366.26
446.77	6331.15
446.95	6274.98
447.14	6509.03
447.32	6317.11
447.51	6443.49
447.69	6312.42
447.88	6434.13
448.06	6478.60
448.25	6359.24
448.43	6380.30
448.62	6349.87
448.80	6382.64
448.99	6530.09
449.17	6637.76
449.36	6483.28
449.54	6642.44
449.73	6679.89
449.91	6712.66
450.10	6773.51
450.28	6972.46
450.46	6806.28
450.65	6754.79
450.83	6899.90
451.02	6792.23
451.20	7061.40
451.39	7045.01
451.57	6925.65
451.76	6869.47
451.94	6860.11
452.13	7019.27
452.31	6820.32
452.49	6977.14
452.68	6822.66
452.86	6878.83
453.05	7133.95
453.23	7213.53
453.42	7152.68
453.60	6949.05
453.78	7265.02
453.97	7225.23
454.15	7222.89
454.34	7229.91
454.52	7227.57
454.70	7239.28
454.89	7417.16
455.07	7180.76
455.26	7592.70
455.44	7398.43
455.62	7562.27
455.81	7454.61
455.99	7480.35
456.17	7639.51
456.36	7513.12
456.54	7705.04
456.73	7627.81
456.91	7679.30
457.09	7843.14
457.28	7770.58
457.46	7789.30
457.64	7819.73
457.83	7789.30
458.01	7639.51
458.19	7850.16
458.38	7981.23
458.56	7857.18
458.74	7822.07
458.93	8053.78
459.11	8042.08
459.29	7878.24
459.48	7990.59
459.66	8128.68
459.84	8067.83
460.03	8294.86
460.21	8088.89
460.39	8217.62
460.57	8203.58
460.76	8102.93
460.94	8395.50
461.12	8257.41
461.31	8409.54
461.49	8304.22
461.67	8334.65
461.85	8454.02
462.04	8397.84
462.22	9001.70
462.40	8559.34
462.59	8397.84
462.77	8538.27
462.95	8634.24
463.13	8545.30
463.32	8652.96
463.50	8875.31
463.68	8793.39
463.86	8655.30
464.05	8533.59
464.23	8512.53
464.41	8812.12
464.59	8540.61
464.78	8952.55
464.96	8891.70
465.14	8826.16
465.32	8905.74
465.50	8999.36
465.69	9004.04
465.87	8896.38
466.05	8973.61
466.23	8727.86
466.41	8971.27
466.60	8933.82
466.78	8812.12
466.96	8765.31
467.14	8872.97
467.32	9109.36
467.51	9128.09
467.69	8837.86
467.87	9100.00
468.05	9296.61
468.23	9184.26
468.41	9284.91
468.60	9235.75
468.78	9415.98
468.96	9315.33
469.14	9226.39
469.32	9610.24
469.50	9205.33
469.69	9247.46
469.87	9603.22
470.05	9476.83
470.23	9444.06
470.41	9680.46
470.59	9631.30
470.77	9509.60
470.95	9762.37
471.14	9664.07
471.32	9423.00
471.50	9937.91
471.68	9996.43
471.86	10026.86
472.04	9996.43
472.22	10289.00
472.40	10012.81
472.58	9984.73
472.77	10183.67
472.95	10197.71
473.13	10483.26
473.31	10059.62
473.49	10050.26
473.67	10216.44
473.85	10455.17
474.03	10583.90
474.21	10497.30
474.39	10567.52
474.57	10841.36
474.75	10960.73
474.93	10724.33
475.12	10665.82
475.30	10878.81
475.48	11040.31
475.66	10759.44
475.84	10916.26
476.02	11023.92
476.20	11215.85
476.38	11283.72
476.56	11382.03
476.74	11389.05
476.92	11513.10
477.10	11468.62
477.28	11632.46
477.46	11700.34
477.64	11836.09
477.82	11878.22
478.00	12107.59
478.18	12203.55
478.36	12163.76
478.54	12231.64
478.72	12109.93
478.90	12367.39
479.08	12528.89
479.26	12769.96
479.44	13034.44
479.62	12774.64
479.80	12898.69
479.98	12835.50
480.16	13163.17
480.34	13247.43
480.52	13186.58
480.70	13291.90
480.88	13153.81
481.06	13338.71
481.24	13486.17
481.41	13565.74
481.59	13970.66
481.77	13893.42
481.95	14185.99
482.13	14064.28
482.31	14036.19
482.49	14345.14
482.67	14352.16
482.85	14544.09
483.03	14764.10
483.21	14951.34
483.39	14752.40
483.57	14778.14
483.74	15080.07
483.92	14963.04
484.10	14960.70
484.28	15201.78
484.46	15655.84
484.64	15824.36
484.82	15754.15
485.00	15627.76
485.18	15866.49
485.35	15831.38
485.53	15789.25
485.71	15719.04
485.89	16039.69
486.07	15962.45
486.25	16346.30
486.43	16711.42
486.61	16718.45
486.78	16575.67
486.96	16734.83
487.14	17268.47
487.32	17188.89
487.50	17378.48
487.68	17514.23
487.85	17476.78
488.03	17879.35
488.21	18150.85
488.39	18300.65
488.57	18204.69
488.75	18300.65
488.92	18515.98
489.10	18941.96
489.28	18934.93
489.46	19257.93
489.64	19084.73
489.81	19583.26
489.99	19690.93
490.17	19363.25
490.35	19648.80
490.53	19651.14
490.70	20182.44
490.88	19962.43
491.06	19969.45
491.24	20276.06
491.41	20116.90
491.59	20259.68
491.77	20540.54
491.95	20582.67
492.13	20798.00
492.30	20833.11
492.48	20992.26
492.66	21488.46
492.84	21025.03
493.01	21305.90
493.19	21427.60
493.37	21675.70
493.54	21872.31
493.72	21998.70
493.90	22026.78
494.08	22199.98
494.25	22373.18
494.43	22647.02
494.61	22558.08
494.79	22750.01
494.96	22675.11
495.14	22370.84
495.32	23183.01
495.49	23098.75
495.67	22986.40
495.85	23321.10
496.02	23672.18
496.20	23751.76
496.38	23756.44
496.55	24144.97
496.73	24482.00
496.91	23992.83
497.09	24610.73
497.26	24383.70
497.44	24325.19
497.62	24364.98
497.79	24521.79
497.97	24561.58
498.14	25200.55
498.32	24762.87
498.50	25167.78
498.67	25233.32
498.85	25422.90
499.03	25790.36
499.20	25294.17
499.38	25516.52
499.56	25996.33
499.73	25736.53
499.91	25991.65
500.08	26143.78
500.26	25570.35
500.44	25823.13
500.61	26183.57
500.79	26127.40
500.97	26106.34
501.14	26754.66
501.32	26654.02
501.49	26286.56
501.67	26806.16
501.84	26735.94
502.02	26986.38
502.20	27110.43
502.37	26953.61
502.55	26958.29
502.72	27161.92
502.90	27426.40
503.07	27152.55
503.25	27637.05
503.43	27309.37
503.60	27517.68
503.78	27747.05
503.95	27639.39
504.13	27660.45
504.30	27786.84
504.48	27756.41
504.65	28119.20
504.83	28786.25
505.01	28481.98
505.18	28290.06
505.36	28683.27
505.53	28498.36
505.71	28755.82
505.88	29041.37
506.06	28917.32
506.23	29214.57
506.41	28601.35
506.58	28800.29
506.76	28945.41
506.93	28826.04
507.11	29163.08
507.28	29331.59
507.46	29106.90
507.63	29572.67
507.81	29504.79
507.98	29638.20
508.16	29558.63
508.33	29993.97
508.50	30249.08
508.68	30129.72
508.85	30513.56
509.03	30536.97
509.20	29984.60
509.38	30820.17
509.55	30354.41
509.73	30307.60
509.90	30881.03
510.08	30663.36
510.25	30712.51
510.42	30663.36
510.60	30597.82
510.77	30864.64
510.95	31161.89
511.12	30803.79
511.30	31208.70
511.47	31407.65
511.64	31606.59
511.82	31756.39
511.99	31466.16
512.17	31295.30
512.34	31758.73
512.51	31775.11
512.69	31952.99
512.86	32290.03
513.04	32453.87
513.21	32203.43
513.38	32261.94
513.56	32306.41
513.73	32273.65
513.90	31908.52
514.08	32290.03
514.25	32306.41
514.43	32493.66
514.60	32114.49
514.77	32451.53
514.95	33060.07
515.12	32776.86
515.29	33050.70
515.47	33085.81
515.64	33284.76
515.81	33303.48
515.99	33282.42
516.16	33469.66
516.33	33259.01
516.51	33097.52
516.68	32943.04
516.85	33067.09
517.03	32891.55
517.20	33170.07
517.37	33413.49
517.54	33666.27
517.72	33888.62
517.89	33411.15
518.06	33420.51
518.24	33687.33
518.41	33694.35
518.58	33764.57
518.75	34195.23
518.93	34096.92
519.10	34380.13
519.27	34443.32
519.45	34050.11
519.62	34569.71
519.79	34740.57
519.96	34543.97
520.14	34883.34
520.31	34595.46
520.48	34831.85
520.65	34991.01
520.83	35615.93
521.00	35014.41
521.17	35386.56
521.34	35627.63
521.52	35168.89
521.69	35576.14
521.86	35683.81
522.03	35515.29
522.20	35555.08
522.38	35828.92
522.55	35761.05
522.72	35796.15
522.89	35475.50
523.07	36212.77
523.24	35721.26
523.41	36034.89
523.58	35910.84
523.75	36287.67
523.92	36910.25
524.10	36924.29
524.27	36275.96
524.44	36648.11
524.61	36758.11
524.78	36603.64
524.96	37003.87
525.13	37104.51
525.30	37376.01
525.47	37048.34
525.64	36804.92
525.81	36882.16
525.98	36877.48
526.16	36680.88
526.33	37043.66
526.50	37076.43
526.67	36767.48
526.84	36968.76
527.01	36655.13
527.18	37228.56
527.36	37689.65
527.53	37832.42
527.70	38000.94
527.87	38195.20
528.04	37305.80
528.21	37565.60
528.38	37958.81
528.55	38319.25
528.72	37928.38
528.89	38089.88
529.07	38202.22
529.24	37872.21
529.41	37921.36
529.58	37921.36
529.75	38354.36
529.92	38153.07
530.09	38274.78
530.26	38281.80
530.43	38202.22
530.60	38572.03
530.77	38396.49
530.94	38766.29
531.11	38520.54
531.28	38670.33
531.46	39117.37
531.63	39091.63
531.80	38473.73
531.97	38770.97
532.14	38932.47
532.31	38291.16
532.48	38773.31
532.65	39335.04
532.82	39042.48
532.99	39140.78
533.16	39002.69
533.33	39349.09
533.50	39629.95
533.67	39283.55
533.84	38824.81
534.01	39463.77
534.18	39489.52
534.35	39950.60
534.52	39929.54
534.69	39751.66
534.86	39981.03
535.03	39716.55
535.20	40179.98
535.37	40418.71
535.54	40163.59
535.71	39824.22
535.88	39990.39
536.05	39777.40
536.22	40126.14
536.38	39880.39
536.55	40016.14
536.72	39817.19
536.89	39966.99
537.06	39957.63
537.23	40769.79
537.40	40095.72
537.57	40664.47
537.74	40460.84
537.91	40966.40
538.08	40465.52
538.25	40638.72
538.42	40570.85
538.59	40802.56
538.75	40627.02
538.92	40634.04
539.09	40879.80
539.26	40680.85
539.43	40818.94
539.60	41310.46
539.77	40573.19
539.94	41289.39
540.11	41029.59
540.28	40968.74
540.44	40961.72
540.61	40978.10
540.78	41223.86
540.95	40877.46
541.12	40868.09
541.29	40978.10
541.46	41167.68
541.62	41404.08
541.79	41436.84
541.96	41153.64
542.13	41684.94
542.30	41207.47
542.47	41380.67
542.63	41345.56
542.80	41560.89
542.97	42113.26
543.14	42401.14
543.31	42288.80
543.48	41993.89
543.64	42382.42
543.81	42836.48
543.98	42564.98
544.15	42066.45
544.32	42277.10
544.48	42572.00
544.65	42272.42
544.82	42740.52
544.99	41968.15
545.16	42682.01
545.32	42295.82
545.49	42913.72
545.66	42754.57
545.83	42354.33
546.00	42855.21
546.16	42454.98
546.33	42747.54
546.50	42192.84
546.67	42880.95
546.83	42298.16
547.00	43005.00
547.17	42883.30
547.34	42649.24
547.50	42761.59
547.67	43157.14
547.84	43215.65
548.00	42822.44
548.17	43447.36
548.34	43405.23
548.51	43086.92
548.67	43349.06
548.84	43363.11
549.01	43140.75
549.18	42890.32
549.34	42885.64
549.51	43405.23
549.68	43267.14
549.84	43400.55
550.01	43641.63
550.18	43075.22
550.34	43267.14
550.51	43552.69
550.68	43335.02
550.84	43005.00
551.01	43484.81
551.18	43290.55
551.34	43440.34
551.51	43896.75
551.68	44105.06
551.84	44023.14
552.01	43648.65
552.18	43845.26
552.34	43753.97
552.51	44217.40
552.68	43473.11
552.84	43868.66
553.01	44018.46
553.18	43531.62
553.34	44053.56
553.51	43849.94
553.67	44414.01
553.84	44259.53
554.01	44327.41
554.17	44257.19
554.34	44582.52
554.51	44247.83
554.67	44137.82
554.84	44123.78
555.00	44203.36
555.17	43611.20
555.33	44196.34
555.50	43945.90
555.67	44388.26
555.83	44364.85
556.00	44662.10
556.16	44493.58
556.33	44589.55
556.50	44500.61
556.66	45027.23
556.83	44165.91
556.99	44584.86
557.16	44964.03
557.32	44650.40
557.49	44804.88
557.65	43903.77
557.82	44320.38
557.98	44589.55
558.15	44498.26
558.32	44961.69
558.48	44467.84
558.65	44619.97
558.81	44512.31
558.98	44781.47
559.14	44521.67
559.31	44500.61
559.47	44760.40
559.64	45287.03
559.80	44610.61
559.97	45059.99
560.13	44758.06
560.30	45202.77
560.46	44711.25
560.63	44666.78
560.79	45287.03
560.96	45209.79
561.12	45085.74
561.29	44945.31
561.45	44643.38
561.61	45244.90
561.78	44774.45
561.94	44891.48
562.11	44641.04
562.27	44966.37
562.44	45521.08
562.60	45247.24
562.77	45371.28
562.93	45191.06
563.10	45235.53
563.26	44952.33
563.42	45160.64
563.59	45390.01
563.75	45258.94
563.92	45130.21
564.08	45366.60
564.24	45556.19
564.41	45415.76
564.57	45387.67
564.74	45095.10
564.90	45408.73
565.07	45420.44
565.23	45502.35
565.39	45113.83
565.56	45647.47
565.72	45184.04
565.88	45642.79
566.05	45165.32
566.21	45303.41
566.38	45483.63
566.54	45464.91
566.70	45600.66
566.87	45652.15
567.03	45998.55
567.19	45886.20
567.36	45698.96
567.52	45507.04
567.68	45455.54
567.85	45471.93
568.01	45598.32
568.17	45476.61
568.34	45666.19
568.50	45607.68
568.66	45345.54
568.83	45373.63
568.99	45312.77
569.15	45380.65
569.32	45696.62
569.48	45230.85
569.64	45607.68
569.81	45528.10
569.97	45254.26
570.13	45914.29
570.30	45457.88
570.46	45394.69
570.62	45581.93
570.78	45492.99
570.95	45347.88
571.11	45904.93
571.27	45462.57
571.43	45378.31
571.60	45694.28
571.76	45553.85
571.92	45656.83
572.09	45916.63
572.25	45710.66
572.41	46082.81
572.57	45792.58
572.74	46078.13
572.90	45708.32
573.06	45455.54
573.22	45766.84
573.38	45560.87
573.55	45574.91
573.71	45621.72
573.87	45432.14
574.03	45701.30
574.20	45581.93
574.36	45467.25
574.52	45691.94
574.68	46103.87
574.84	45572.57
575.01	45467.25
575.17	46138.98
575.33	45808.96
575.49	45542.14
575.65	46284.09
575.82	45909.61
575.98	45722.37
576.14	46314.52
576.30	45970.46
576.46	46087.49
576.62	46370.69
576.79	45649.81
576.95	45757.47
577.11	45675.55
577.27	45862.80
577.43	45954.08
577.59	45661.51
577.75	45909.61
577.92	45453.20
578.08	45415.76
578.24	45497.67
578.40	45773.86
578.56	45904.93
578.72	46010.25
578.88	45619.38
579.04	45914.29
579.21	45780.88
579.37	45874.50
579.53	45951.74
579.69	45846.41
579.85	45904.93
580.01	46447.93
580.17	46335.59
580.33	45830.03
580.49	45708.32
580.65	45553.85
580.82	45773.86
580.98	45881.52
581.14	45619.38
581.30	46197.49
581.46	45951.74
581.62	46417.50
581.78	45808.96
581.94	46321.54
582.10	45904.93
582.26	46120.26
582.42	45958.76
582.58	46190.47
582.74	45464.91
582.90	45673.21
583.06	45893.22
583.22	46160.05
583.38	46394.10
583.54	45986.85
583.70	45947.06
583.86	46012.59
584.02	45724.71
584.18	46082.81
584.34	46080.47
584.50	45923.65
584.66	46309.84
584.82	46206.86
584.98	46211.54
585.14	46120.26
585.30	45633.42
585.46	45972.80
585.62	46017.27
585.78	46014.93
585.94	45762.15
586.10	45888.54
586.26	45818.33
586.42	46003.23
586.58	46438.57
586.74	46064.08
586.90	46136.64
587.06	46064.08
587.22	46190.47
587.38	45741.09
587.54	46216.22
587.70	46330.90
587.86	46649.22
588.02	45895.56
588.18	46504.10
588.34	45659.17
588.49	45778.54
588.65	45352.56
588.81	45675.55
588.97	45652.15
589.13	45368.94
589.29	45586.61
589.45	45989.19
589.61	46045.36
589.77	46265.37
589.93	45890.88
590.08	45965.78
590.24	46213.88
590.40	46216.22
590.56	46209.20
590.72	46337.93
590.88	46410.48
591.04	46043.02
591.20	46382.40
591.35	45925.99
591.51	46597.73
591.67	46305.16
591.83	46553.26
591.99	46101.53
592.15	45780.88
592.31	46028.98
592.46	46295.80
592.62	46232.60
592.78	46415.16
592.94	46616.45
593.10	46344.95
593.26	46094.51
593.41	46256.01
593.57	46220.90
593.73	46277.07
593.89	46043.02
594.05	46003.23
594.20	46171.75
594.36	46298.14
594.52	45942.38
594.68	46192.81
594.84	46171.75
594.99	46852.84
595.15	46036.00
595.31	46731.14
595.47	46361.33
595.62	46337.93
595.78	46265.37
595.94	46564.96
596.10	46234.94
596.25	46174.09
596.41	46380.06
596.57	45979.82
596.73	46770.93
596.88	46059.40
597.04	46492.40
597.20	46164.73
597.36	46248.99
597.51	46211.54
597.67	45787.90
597.83	46473.68
597.99	46665.60
598.14	46485.38
598.30	46522.83
598.46	46337.93
598.61	46274.73
598.77	46557.94
598.93	46630.49
599.09	46045.36
599.24	46557.94
599.40	46485.38
599.56	46838.80
599.71	46183.45
599.87	46333.24
600.03	46756.88
600.18	46349.63
600.34	46574.32
600.50	45998.55
600.65	46218.56
600.81	46705.39
600.97	47117.32
601.12	46955.83
601.28	46480.70
601.44	46052.38
601.59	46209.20
601.75	46588.36
601.91	46248.99
602.06	46204.52
602.22	46387.08
602.37	46227.92
602.53	45813.65
602.69	46232.60
602.84	46188.13
603.00	46377.72
603.16	45944.72
603.31	46122.60
603.47	46337.93
603.62	45518.74
603.78	46457.29
603.94	46174.09
604.09	46557.94
604.25	46742.84
604.40	46209.20
604.56	46429.21
604.71	46337.93
604.87	45858.12
605.03	46241.96
605.18	45717.68
605.34	46571.98
605.49	46012.59
605.65	46155.36
605.80	46382.40
605.96	46377.72
606.12	46445.59
606.27	46419.84
606.43	46096.85
606.58	46389.42
606.74	45832.37
606.89	45961.10
607.05	45708.32
607.20	46260.69
607.36	46358.99
607.51	46316.86
607.67	46319.20
607.82	45963.44
607.98	45909.61
608.13	45680.24
608.29	45734.07
608.44	45815.99
608.60	45603.00
608.75	45663.85
608.91	45254.26
609.06	45514.06
609.22	45991.53
609.37	45846.41
609.53	45841.73
609.68	45392.35
609.84	45404.05
609.99	45748.11
610.15	46021.95
610.30	45841.73
610.46	45804.28
610.61	45661.51
610.76	45895.56
610.92	45427.46
611.07	45464.91
611.23	45338.52
611.38	45745.77
611.54	45687.26
611.69	45624.06
611.84	45104.46
612.00	45186.38
612.15	45488.31
612.31	45495.33
612.46	45371.28
612.62	45794.92
612.77	45116.17
612.92	45750.45
613.08	45399.37
613.23	45380.65
613.39	45453.20
613.54	44818.92
613.69	45607.68
613.85	45272.98
614.00	44835.30
614.15	45390.01
614.31	45310.43
614.46	45289.37
614.62	45500.01
614.77	45378.31
614.92	45436.82
615.08	45261.28
615.23	45242.56
615.38	45067.02
615.54	44657.42
615.69	44882.11
615.84	44713.59
616.00	45017.86
616.15	45233.19
616.30	45188.72
616.46	45127.87
616.61	44772.11
616.76	44744.02
616.92	45132.55
617.07	44921.90
617.22	44800.19
617.37	44175.27
617.53	44676.15
617.68	44947.65
617.83	44961.69
617.99	44854.03
618.14	45460.23
618.29	44341.45
618.45	44587.21
618.60	44334.43
618.75	44856.37
618.90	44542.74
619.06	44769.77
619.21	44163.57
619.36	44638.70
619.51	44495.92
619.67	44765.09
619.82	44699.55
619.97	44655.08
620.12	44453.79
620.28	44149.53
620.43	44474.86
620.58	44065.27
620.73	44091.01
620.89	44697.21
621.04	44493.58
621.19	43978.67
621.34	44308.68
621.49	43934.20
621.65	44144.84
621.80	44168.25
621.95	43981.01
622.10	44144.84
622.25	43805.47
622.41	43599.50
622.56	43915.47
622.71	44018.46
622.86	43681.42
623.01	43852.28
623.16	43653.33
623.32	43821.85
623.47	44231.44
623.62	44421.03
623.77	43349.06
623.92	43882.70
624.07	43526.94
624.23	43372.47
624.38	43548.01
624.53	43604.18
624.68	43742.27
624.83	43871.00
624.98	43739.93
625.13	43290.55
625.29	43573.75
625.44	43501.20
625.59	43484.81
625.74	43005.00
625.89	43021.39
626.04	42815.42
626.19	42876.27
626.34	43133.73
626.49	43409.92
626.65	43271.82
626.80	43234.38
626.95	43140.75
627.10	43316.29
627.25	42876.27
627.40	42827.12
627.55	42436.25
627.70	42426.89
627.85	42330.93
628.00	42869.25
628.15	42792.01
628.30	42855.21
628.45	42586.05
628.60	42536.90
628.76	43005.00
628.91	43276.51
629.06	42649.24
629.21	42775.63
629.36	42953.51
629.51	42483.06
629.66	42454.98
629.81	42328.59
629.96	42677.33
630.11	42817.76
630.26	42843.51
630.41	42756.91
630.56	42586.05
630.71	42527.53
630.86	42356.67
631.01	42513.49
631.16	42319.23
631.31	42223.26
631.46	41975.17
631.61	42153.05
631.76	42284.12
631.91	42178.79
632.06	42403.49
632.21	42082.83
632.36	42417.53
632.51	41928.36
632.66	42359.02
632.81	41888.57
632.96	42080.49
633.10	41993.89
633.25	41834.74
633.40	42061.77
633.55	42099.22
633.70	41684.94
633.85	42096.88
634.00	41773.88
634.15	41806.65
634.30	41605.36
634.45	41841.76
634.60	41759.84
634.75	41947.08
634.90	41724.73
635.05	41235.56
635.19	41619.41
635.34	42099.22
635.49	41961.12
635.64	41624.09
635.79	41752.82
635.94	41455.57
636.09	41556.21
636.24	41282.37
636.39	41099.81
636.53	41289.39
636.68	41216.83
636.83	41265.99
636.98	41425.14
637.13	41172.36
637.28	41432.16
637.43	41385.35
637.57	41596.00
637.72	41273.01
637.87	41390.03
638.02	41312.80
638.17	41493.02
638.32	41078.74
638.46	40926.61
638.61	40753.41
638.76	40804.90
638.91	40870.43
639.06	40966.40
639.20	41099.81
639.35	41191.09
639.50	40912.56
639.65	41158.32
639.80	41132.57
639.94	40678.51
640.09	40680.85
640.24	40746.39
640.39	40514.67
640.54	40662.13
640.68	40722.98
640.83	40540.42
640.98	40659.79
641.13	40573.19
641.27	41055.34
641.42	40369.56
641.57	40725.32
641.72	40772.13
641.86	40807.24
642.01	40266.58
642.16	40231.47
642.31	39587.82
642.45	40137.85
642.60	39674.42
642.75	40421.05
642.90	40360.20
643.04	40376.58
643.19	40620.00
643.34	39997.41
643.48	40357.86
643.63	40175.30
643.78	40210.40
643.93	40105.08
644.07	40161.25
644.22	39793.79
644.37	39833.58
644.51	40374.24
644.66	40098.06
644.81	40179.98
644.95	40215.08
645.10	39669.74
645.25	39852.30
645.39	40299.34
645.54	39955.29
645.69	39552.71
645.83	39573.78
645.98	39735.27
646.13	39962.31
646.27	39819.53
646.42	39681.44
646.57	39889.75
646.71	39864.00
646.86	39601.86
647.00	39667.40
647.15	39620.59
647.30	39779.74
647.44	39335.04
647.59	39419.30
647.74	39643.99
647.88	39285.89
648.03	39566.76
648.17	39203.97
648.32	39292.91
648.47	38946.51
648.61	39311.64
648.76	39484.84
648.90	39115.03
649.05	39566.76
649.20	39529.31
649.34	39536.33
649.49	39962.31
649.63	38930.13
649.78	39447.39
649.92	38768.63
650.07	39805.49
650.21	39089.29
650.36	38656.29
650.51	39194.61
650.65	39351.43
650.80	39115.03
650.94	39194.61
651.09	39108.01
651.23	38810.76
651.38	39077.58
651.52	38813.10
651.67	38745.23
651.81	38888.00
651.96	38288.82
652.10	39058.86
652.25	38775.66
652.39	38749.91
652.54	38885.66
652.68	38817.78
652.83	38756.93
652.97	38906.73
653.12	38768.63
653.26	38632.88
653.41	38895.02
653.55	38384.79
653.70	38403.51
653.84	38670.33
653.99	38478.41
654.13	38316.91
654.27	38377.76
654.42	38178.82
654.56	38178.82
654.71	38412.87
654.85	38635.22
655.00	37944.76
655.14	37722.41
655.29	37879.23
655.43	38267.76
655.57	37778.59
655.72	37647.52
655.86	37645.18
656.01	37635.81
656.15	37544.53
656.30	37715.39
656.44	37418.14
656.58	37455.59
656.73	37469.64
656.87	37727.10
657.01	37558.58
657.16	37851.14
657.30	37457.93
657.45	36818.97
657.59	37013.23
657.73	37455.59
657.88	37418.14
658.02	37841.78
658.16	37670.92
658.31	37773.91
658.45	37500.06
658.60	37298.78
658.74	37053.02
658.88	37579.64
659.03	37291.76
659.17	36896.20
659.31	37113.87
659.46	36898.55
659.60	37034.30
659.74	36978.12
659.89	37130.26
660.03	36582.57
660.17	37071.75
660.32	36636.41
660.46	37130.26
660.60	36741.73
660.74	36889.18
660.89	37116.22
661.03	36659.81
661.17	36748.75
661.32	36584.91
661.46	36694.92
661.60	36474.91
661.74	36584.91
661.89	36549.81
662.03	36603.64
662.17	36280.64
662.31	36428.10
662.46	36498.31
662.60	36430.44
662.74	36456.18
662.88	36407.03
663.03	35875.73
663.17	36250.22
663.31	35625.29
663.45	36095.74
663.60	35519.97
663.74	36070.00
663.88	35887.43
664.02	35309.32
664.17	35974.03
664.31	35531.67
664.45	35864.03
664.59	35508.27
664.73	35578.48
664.88	35213.36
665.02	35194.64
665.16	35112.72
665.30	35658.06
665.44	35103.35
665.59	34930.16
665.73	34747.59
665.87	34976.97
666.01	34756.96
666.15	34972.28
666.29	35267.19
666.44	34969.94
666.58	34696.10
666.72	34775.68
666.86	35136.12
667.00	34660.99
667.14	34991.01
667.28	34810.79
667.43	34312.25
667.57	34429.28
667.71	34291.19
667.85	34941.86
667.99	34295.87
668.13	34408.22
668.27	34775.68
668.41	34307.57
668.56	34330.98
668.70	34146.08
668.84	33895.64
668.98	33748.18
669.12	34000.96
669.26	33909.68
669.40	34073.52
669.54	33886.28
669.68	33516.47
669.82	34103.95
669.96	33738.82
670.10	33574.98
670.25	33617.11
670.39	33577.33
670.53	33792.65
670.67	33024.96
670.81	33345.61
670.95	33415.83
671.09	33010.92
671.23	33181.77
671.37	33102.20
671.51	33057.73
671.65	32460.89
671.79	32063.00
671.93	32561.53
672.07	32601.32
672.21	33078.79
672.35	32992.19
672.49	32713.67
672.63	32804.95
672.77	32580.26
672.91	32231.52
673.05	32659.84
673.19	32393.01
673.33	31779.79
673.47	31871.07
673.61	31758.73
673.75	31910.86
673.89	31686.17
674.03	31459.14
674.17	31232.11
674.31	31686.17
674.45	31515.31
674.59	31821.92
674.73	31487.23
674.87	31580.85
675.01	31414.67
675.15	31569.15
675.29	31325.73
675.43	31360.84
675.56	31002.74
675.70	31147.85
675.84	30855.28
675.98	30038.44
676.12	30384.83
676.26	30764.00
676.40	30827.20
676.54	30494.84
676.68	30649.32
676.82	29743.53
676.96	30026.73
677.10	30277.17
677.23	30106.31
677.37	29677.99
677.51	29811.40
677.65	29876.94
677.79	29397.13
677.93	29769.27
678.07	29474.37
678.21	29233.29
678.34	29530.54
678.48	29303.51
678.62	29132.65
678.76	28982.85
678.90	28840.08
679.04	28779.23
679.18	28835.40
679.31	28547.51
679.45	28615.39
679.59	28606.03
679.73	28119.20
679.87	28308.78
680.00	28355.59
680.14	28268.99
680.28	28013.87
680.42	27835.99
680.56	27903.87
680.70	27768.12
680.83	27817.27
680.97	27831.31
681.11	27583.21
681.25	27810.25
681.39	27505.98
681.52	27225.11
681.66	27721.30
681.80	27192.34
681.94	27075.32
682.07	27087.02
682.21	26757.00
682.35	26787.43
682.49	26782.75
682.62	26597.85
682.76	26665.72
682.90	26522.95
683.04	26885.73
683.17	26232.72
683.31	26366.13
683.45	26363.79
683.59	26492.52
683.72	25956.54
683.86	25855.90
684.00	25633.55
684.13	25671.00
684.27	25914.41
684.41	25603.12
684.55	25380.77
684.68	25511.84
684.82	25104.59
684.96	25284.81
685.09	25282.47
685.23	25167.78
685.37	25275.45
685.50	24905.64
685.64	24603.71
685.78	24500.73
685.91	24655.20
686.05	24421.15
686.19	24556.90
686.32	24287.74
686.46	24004.53
686.60	23800.91
686.73	23616.01
686.87	23438.12
687.01	23428.76
687.14	23236.84
687.28	23522.38
687.42	23644.09
687.55	23335.14
687.69	23391.31
687.82	22806.18
687.96	22944.27
688.10	22941.93
688.23	23075.34
688.37	22728.94
688.50	22719.58
688.64	22602.55
688.78	22377.86
688.91	22600.21
689.05	22588.51
689.18	22551.06
689.32	22024.44
689.46	22288.92
689.59	22272.54
689.73	22232.75
689.86	21752.94
690.00	22052.53
690.13	22331.05
690.27	21600.80
690.41	21474.42
690.54	21664.00
690.68	21516.54
690.81	21582.08
690.95	21249.72
691.08	21312.92
691.22	21163.12
691.35	21301.22
691.49	21357.39
691.62	21317.60
691.76	21109.29
691.89	21167.80
692.03	20704.38
692.16	20175.42
692.30	20556.93
692.43	20505.43
692.57	20624.80
692.70	20355.64
692.84	20514.80
692.97	19988.18
693.11	19927.32
693.24	20306.49
693.38	19908.60
693.51	20247.97
693.65	20182.44
693.78	20039.67
693.92	19833.70
694.05	20126.27
694.19	19854.76
694.32	19571.56
694.45	19522.41
694.59	19211.12
694.72	19396.02
694.86	19054.30
694.99	18899.83
695.13	18960.68
695.26	19063.66
695.39	19110.47
695.53	18665.77
695.66	18305.33
695.80	18726.63
695.93	18494.91
696.07	18757.05
696.20	18331.08
696.33	18441.08
696.47	18331.08
696.60	18078.30
696.73	18319.37
696.87	18057.23
697.00	17858.29
697.14	17970.63
697.27	17912.12
697.40	17951.91
697.54	17991.70
697.67	17521.25
697.80	17509.55
697.94	17554.02
698.07	17343.37
698.21	17291.88
698.34	17486.14
698.47	17186.55
698.61	16788.66
698.74	16980.59
698.87	17048.46
699.01	16739.51
699.14	16587.38
699.27	16681.00
699.40	16615.46
699.54	16437.58
699.67	16381.41
699.80	16528.86
699.94	16353.32
700.07	16341.62
700.20	16145.02
700.34	16250.34
700.47	16166.08
700.60	16126.29
700.73	16184.80
700.87	16116.93
701.00	15669.89
701.13	16004.58
701.26	15878.19
701.40	15473.28
701.53	15585.63
701.66	15747.12
701.79	15494.35
701.93	15330.51
702.06	15075.39
702.19	15023.90
702.32	15068.37
702.46	15157.31
702.59	14899.85
702.72	14799.21
702.85	15169.01
702.99	14993.47
703.12	15157.31
703.25	14993.47
703.38	14668.14
703.51	14565.15
703.65	14698.56
703.78	14391.95
703.91	14347.48
704.04	14310.04
704.17	14246.84
704.31	14235.14
704.44	14071.30
704.57	14031.51
704.70	14057.26
704.83	14045.55
704.96	13771.71
705.10	13928.53
705.23	14038.53
>>>>>End Processed Spectral Data<<<<<
