SpectraSuite Data File
++++++++++++++++++++++++++++++++++++
Date: Fri Oct 25 10:47:58 EDT 2013
User: price-jones
Dark Spectrum Present: No
Reference Spectrum Present: No
Number of Sampled Component Spectra: 1
Spectrometers: USB2+H05261
Integration Time (usec): 100000 (USB2+H05261)
Spectra Averaged: 1 (USB2+H05261)
Boxcar Smoothing: 0 (USB2+H05261)
Correct for Electrical Dark: No (USB2+H05261)
Strobe/Lamp Enabled: No (USB2+H05261)
Correct for Detector Non-linearity: No (USB2+H05261)
Correct for Stray Light: No (USB2+H05261)
Number of Pixels in Processed Spectrum: 2048
>>>>>Begin Processed Spectral Data<<<<<
365.73	170.86
365.92	170.86
366.12	170.86
366.32	0.00
366.52	18.72
366.72	60.85
366.91	21.06
367.11	0.00
367.31	9.36
367.51	44.47
367.70	28.09
367.90	21.06
368.10	51.49
368.30	56.17
368.49	0.00
368.69	35.11
368.89	25.75
369.09	21.06
369.28	46.81
369.48	63.19
369.68	79.58
369.87	86.60
370.07	37.45
370.27	184.90
370.47	243.42
370.66	395.55
370.86	374.49
371.06	479.81
371.25	411.93
371.45	423.64
371.65	468.11
371.84	367.46
372.04	433.00
372.24	482.15
372.44	454.06
372.63	482.15
372.83	521.94
373.03	468.11
373.22	585.13
373.42	433.00
373.62	561.73
373.81	594.50
374.01	505.56
374.21	592.16
374.40	521.94
374.60	582.79
374.79	592.16
374.99	643.65
375.19	561.73
375.38	540.66
375.58	592.16
375.78	526.62
375.97	648.33
376.17	664.71
376.37	493.85
376.56	580.45
376.76	557.05
376.95	662.37
377.15	561.73
377.35	573.43
377.54	566.41
377.74	622.58
377.93	613.22
378.13	521.94
378.33	660.03
378.52	564.07
378.72	599.18
378.91	566.41
379.11	631.94
379.31	561.73
379.50	580.45
379.70	631.94
379.89	657.69
380.09	699.82
380.28	552.37
380.48	599.18
380.68	599.18
380.87	610.88
381.07	641.31
381.26	685.78
381.46	699.82
381.65	624.92
381.85	624.92
382.04	582.79
382.24	746.63
382.43	678.76
382.63	674.07
382.83	650.67
383.02	695.14
383.22	697.48
383.41	648.33
383.61	683.44
383.80	788.76
384.00	763.01
384.19	779.40
384.39	774.72
384.58	765.36
384.78	702.16
384.97	748.97
385.17	690.46
385.36	770.04
385.56	777.06
385.75	777.06
385.95	699.82
386.14	821.53
386.34	772.38
386.53	842.59
386.72	737.27
386.92	777.06
387.11	737.27
387.31	821.53
387.50	723.23
387.70	798.12
387.89	800.46
388.09	866.00
388.28	830.89
388.48	840.25
388.67	868.34
388.86	884.72
389.06	945.58
389.25	863.66
389.45	826.21
389.64	814.51
389.84	957.28
390.03	856.64
390.22	905.79
390.42	858.98
390.61	964.30
390.81	908.13
391.00	936.21
391.19	938.55
391.39	992.39
391.58	926.85
391.78	936.21
391.97	1013.45
392.16	912.81
392.36	971.32
392.55	889.40
392.75	884.72
392.94	915.15
393.13	1018.13
393.33	971.32
393.52	1029.84
393.71	954.94
393.91	1015.79
394.10	1032.18
394.29	987.71
394.49	1057.92
394.68	980.68
394.88	990.05
395.07	1181.97
395.26	1093.03
395.46	1064.94
395.65	1104.73
395.84	1130.48
396.04	1158.57
396.23	1193.67
396.42	1153.88
396.62	1188.99
396.81	1086.01
397.00	1156.22
397.19	1266.23
397.39	1142.18
397.58	1198.35
397.77	1233.46
397.97	1310.70
398.16	1378.58
398.35	1409.00
398.55	1355.17
398.74	1228.78
398.93	1291.98
399.12	1291.98
399.32	1247.51
399.51	1345.81
399.70	1308.36
399.90	1383.26
400.09	1355.17
400.28	1427.73
400.47	1385.60
400.67	1338.79
400.86	1350.49
401.05	1399.64
401.24	1427.73
401.44	1486.24
401.63	1493.26
401.82	1521.35
402.01	1446.45
402.21	1495.60
402.40	1472.20
402.59	1439.43
402.78	1493.26
402.97	1575.18
403.17	1561.14
403.36	1678.16
403.55	1633.69
403.74	1600.93
403.93	1582.20
404.13	1621.99
404.32	1593.90
404.51	1582.20
404.70	1678.16
404.89	1624.33
405.09	1797.53
405.28	1650.08
405.47	1645.40
405.66	1767.10
405.85	1673.48
406.05	1727.32
406.24	1717.95
406.43	1818.60
406.62	1806.89
406.81	1839.66
407.00	1820.94
407.20	1760.08
407.39	1818.60
407.58	1944.99
407.77	1757.74
407.96	1856.04
408.15	1968.39
408.34	1912.22
408.54	1956.69
408.73	1970.73
408.92	1987.11
409.11	2012.86
409.30	1963.71
409.49	2003.50
409.68	1961.37
409.87	2022.22
410.07	2012.86
410.26	2134.57
410.45	2132.23
410.64	2050.31
410.83	2202.44
411.02	2230.53
411.21	2244.57
411.40	2207.13
411.59	2242.23
411.78	2270.32
411.98	2218.83
412.17	2321.81
412.36	2237.55
412.55	2387.35
412.74	2434.16
412.93	2340.54
413.12	2338.20
413.31	2476.29
413.50	2525.44
413.69	2424.80
413.88	2605.02
414.07	2394.37
414.26	2593.31
414.45	2663.53
414.64	2588.63
414.83	2708.00
415.02	2546.50
415.22	2754.81
415.41	2757.15
415.60	2745.45
415.79	2686.94
415.98	2885.88
416.17	2923.33
416.36	2890.56
416.55	2904.60
416.74	2923.33
416.93	2796.94
417.12	2855.45
417.31	2925.67
417.50	2937.37
417.69	2956.10
417.88	2986.52
418.07	3080.14
418.26	3059.08
418.45	3138.66
418.64	3185.47
418.83	3133.98
419.02	3084.83
419.21	3138.66
419.39	3166.74
419.58	3103.55
419.77	3124.62
419.96	3194.83
420.15	3243.98
420.34	3274.41
420.53	3377.39
420.72	3389.10
420.91	3440.59
421.10	3344.63
421.29	3332.92
421.48	3239.30
421.67	3328.24
421.86	3400.80
422.05	3297.81
422.24	3236.96
422.43	3342.28
422.61	3496.76
422.80	3513.14
422.99	3480.38
423.18	3410.16
423.37	3538.89
423.56	3466.33
423.75	3375.05
423.94	3527.19
424.13	3361.01
424.32	3255.69
424.50	3555.27
424.69	3595.06
424.88	3655.92
425.07	3485.06
425.26	3461.65
425.45	3417.18
425.64	3445.27
425.83	3548.25
426.01	3623.15
426.20	3630.17
426.39	3632.51
426.58	3581.02
426.77	3571.66
426.96	3686.34
427.15	3510.80
427.33	3449.95
427.52	3581.02
427.71	3651.24
427.90	3744.86
428.09	3726.13
428.28	3606.77
428.46	3702.73
428.65	3868.91
428.84	3854.86
429.03	4077.21
429.22	3639.53
429.40	3819.75
429.59	3686.34
429.78	3744.86
429.97	3604.42
430.16	3625.49
430.34	3770.60
430.53	3873.59
430.72	3894.65
430.91	3861.88
431.10	3990.61
431.28	4002.32
431.47	4053.81
431.66	4159.13
431.85	3925.08
432.03	4112.32
432.22	4229.35
432.41	4152.11
432.60	4250.41
432.79	4147.43
432.97	4093.60
433.16	4173.18
433.35	4124.02
433.54	4039.76
433.72	4215.30
433.91	4245.73
434.10	4264.46
434.28	4219.99
434.47	4187.22
434.66	4355.74
434.85	4521.92
435.03	4498.51
435.22	4383.82
435.41	4510.21
435.59	4465.74
435.78	4327.65
435.97	4582.77
436.16	4650.64
436.34	4601.49
436.53	4636.60
436.72	4699.80
436.90	4580.43
437.09	4676.39
437.28	4559.36
437.46	4758.31
437.65	4603.83
437.84	4751.29
438.02	4638.94
438.21	4676.39
438.40	4660.01
438.58	4755.97
438.77	4706.82
438.96	4812.14
439.14	4936.19
439.33	4959.60
439.52	5097.69
439.70	5043.85
439.89	5041.51
440.08	5181.95
440.26	5114.07
440.45	5146.84
440.63	5200.67
440.82	5247.48
441.01	5191.31
441.19	5210.03
441.38	5298.97
441.57	5528.35
441.75	5446.43
441.94	5540.05
442.12	5556.43
442.31	5720.27
442.50	5486.22
442.68	5680.48
442.87	5584.52
443.05	5600.90
443.24	5788.14
443.43	5638.35
443.61	5734.31
443.80	5928.58
443.98	5657.07
444.17	5526.00
444.35	5692.18
444.54	5701.54
444.73	5799.85
444.91	5614.95
445.10	5827.93
445.28	5755.38
445.47	5720.27
445.65	5626.65
445.84	5743.67
446.02	5879.43
446.21	5757.72
446.39	5809.21
446.58	5944.96
446.77	6022.20
446.95	5790.49
447.14	5973.05
447.32	6040.92
447.51	5919.21
447.69	5860.70
447.88	5987.09
448.06	6085.39
448.25	5937.94
448.43	5940.28
448.62	6076.03
448.80	6008.16
448.99	6078.37
449.17	6073.69
449.36	5968.37
449.54	6090.07
449.73	6356.90
449.91	6394.34
450.10	6415.41
450.28	6338.17
450.46	6267.95
450.65	6286.68
450.83	6349.87
451.02	6490.31
451.20	6312.42
451.39	6368.60
451.57	6239.87
451.76	6347.53
451.94	6253.91
452.13	6630.74
452.31	6487.96
452.49	6312.42
452.68	6410.73
452.86	6509.03
453.05	6413.07
453.23	6637.76
453.42	6333.49
453.60	6614.35
453.78	6572.22
453.97	6565.20
454.15	6546.48
454.34	6534.78
454.52	6635.42
454.70	6857.77
454.89	6661.16
455.07	6700.95
455.26	6743.08
455.44	7007.56
455.62	6965.43
455.81	6794.58
455.99	6956.07
456.17	6944.37
456.36	7089.48
456.54	7037.99
456.73	6963.09
456.91	7250.98
457.09	7220.55
457.28	7318.86
457.46	7124.59
457.64	7176.08
457.83	7183.10
458.01	7103.53
458.19	7255.66
458.38	7260.34
458.56	7302.47
458.74	7325.88
458.93	7391.41
459.11	7365.67
459.29	7487.37
459.48	7405.46
459.66	7410.14
459.84	7641.85
460.03	7527.16
460.21	7627.81
460.39	7695.68
460.57	7489.71
460.76	7618.44
460.94	7716.75
461.12	7843.14
461.31	7545.89
461.49	7651.21
461.67	7527.16
461.85	8004.63
462.04	7705.04
462.22	8299.54
462.40	7873.56
462.59	7824.41
462.77	7723.77
462.95	8028.04
463.13	7819.73
463.32	7868.88
463.50	8067.83
463.68	8088.89
463.86	8140.38
464.05	8266.77
464.23	8042.08
464.41	8219.96
464.59	8095.91
464.78	8327.63
464.96	8215.28
465.14	8074.85
465.32	8109.96
465.50	8315.92
465.69	8236.35
465.87	8273.79
466.05	8208.26
466.23	8245.71
466.41	8142.72
466.60	8463.38
466.78	8390.82
466.96	8362.73
467.14	8238.69
467.32	8444.65
467.51	8510.19
467.69	8201.24
467.87	8559.34
468.05	8311.24
468.23	8470.40
468.41	8465.72
468.60	8615.51
468.78	8748.92
468.96	8603.81
469.14	8809.78
469.32	8732.54
469.50	8634.24
469.69	8793.39
469.87	8725.52
470.05	8812.12
470.23	8898.72
470.41	8730.20
470.59	8882.33
470.77	8781.69
470.95	8954.89
471.14	9046.17
471.32	8802.75
471.50	9132.77
471.68	9179.58
471.86	9174.90
472.04	9158.52
472.22	9394.91
472.40	9060.21
472.58	9446.40
472.77	9544.70
472.95	9432.36
473.13	9848.97
473.31	9231.07
473.49	9390.23
473.67	9514.28
473.85	9699.18
474.03	9872.38
474.21	9827.91
474.39	9998.77
474.57	9949.62
474.75	9958.98
474.93	10300.70
475.12	9902.81
475.30	10134.52
475.48	10085.37
475.66	10087.71
475.84	10214.10
476.02	10216.44
476.20	9970.68
476.38	10541.77
476.56	10705.61
476.74	10799.23
476.92	10656.46
477.10	10602.63
477.28	10883.49
477.46	10850.72
477.64	10988.82
477.82	11225.21
478.00	11330.53
478.18	11379.68
478.36	11538.84
478.54	11375.00
478.72	11396.07
478.90	11618.42
479.08	11721.40
479.26	11719.06
479.44	11992.90
479.62	11864.18
479.80	11983.54
479.98	12077.16
480.16	12280.79
480.34	12280.79
480.52	12470.37
480.70	12388.46
480.88	12203.55
481.06	12549.95
481.24	12489.10
481.41	12659.96
481.59	13067.21
481.77	13060.19
481.95	12943.16
482.13	13121.04
482.31	13179.56
482.49	13439.36
482.67	13317.65
482.85	13544.68
483.03	13830.23
483.21	13809.16
483.39	13975.34
483.57	13657.03
483.74	13975.34
483.92	14115.77
484.10	13811.50
484.28	14162.58
484.46	14420.04
484.64	14733.67
484.82	14487.92
485.00	14614.30
485.18	15126.88
485.35	15028.58
485.53	14799.21
485.71	15187.74
485.89	15147.95
486.07	15077.73
486.25	15267.31
486.43	15316.47
486.61	15513.07
486.78	15763.51
486.96	15971.82
487.14	16276.09
487.32	16159.06
487.50	16245.66
487.68	16559.29
487.85	16608.44
488.03	17064.85
488.21	16961.86
488.39	16891.65
488.57	17022.72
488.75	16966.54
488.92	17252.09
489.10	17666.36
489.28	17514.23
489.46	17755.30
489.64	17841.90
489.81	17996.38
489.99	18424.70
490.17	18368.52
490.35	18764.07
490.53	18530.02
490.70	18424.70
490.88	18581.51
491.06	18808.54
491.24	18733.65
491.41	19073.03
491.59	18956.00
491.77	19105.79
491.95	19246.23
492.13	19321.12
492.30	19491.98
492.48	19550.49
492.66	19543.47
492.84	19763.48
493.01	20159.03
493.19	20156.69
493.37	20425.86
493.54	20299.47
493.72	20336.91
493.90	20521.82
494.08	20872.90
494.25	21149.08
494.43	21422.92
494.61	21071.84
494.79	21209.93
494.96	21130.36
495.14	21476.76
495.32	21666.34
495.49	21968.27
495.67	21837.20
495.85	21649.96
496.02	22024.44
496.20	22317.01
496.38	22492.55
496.55	22441.06
496.73	23056.62
496.91	22562.76
497.09	23070.66
497.26	22810.86
497.44	22829.59
497.62	22817.88
497.79	23129.17
497.97	22824.90
498.14	23288.33
498.32	23370.25
498.50	23740.05
498.67	23836.02
498.85	23456.85
499.03	23969.43
499.20	23793.89
499.38	23969.43
499.56	23950.70
499.73	24121.56
499.91	24491.37
500.08	24505.41
500.26	23964.75
500.44	24465.62
500.61	24451.58
500.79	24568.60
500.97	24769.89
501.14	24931.39
501.32	25212.25
501.49	24790.95
501.67	24971.18
501.84	25371.41
502.02	24912.66
502.20	25493.12
502.37	25806.75
502.55	25542.27
502.72	25673.34
502.90	25860.58
503.07	25628.87
503.25	26008.03
503.43	25584.40
503.60	26019.74
503.78	26394.22
503.95	25762.28
504.13	26855.31
504.30	26441.03
504.48	26108.68
504.65	26845.94
504.83	26904.46
505.01	26724.24
505.18	26604.87
505.36	27112.77
505.53	26829.56
505.71	27126.81
505.88	27197.02
506.06	26920.84
506.23	27316.39
506.41	27199.37
506.58	27562.15
506.76	27594.92
506.93	27634.71
507.11	27632.36
507.28	27786.84
507.46	27543.42
507.63	27999.83
507.81	27634.71
507.98	27733.01
508.16	28037.28
508.33	28301.76
508.50	28177.71
508.68	28711.35
508.85	28489.00
509.03	28360.27
509.20	28535.81
509.38	28790.93
509.55	28727.74
509.73	28884.55
509.90	28971.15
510.08	29177.12
510.25	28760.50
510.42	29380.74
510.60	29394.79
510.77	29542.24
510.95	29486.07
511.12	29209.89
511.30	29743.53
511.47	30087.59
511.64	29888.64
511.82	30120.35
511.99	29937.79
512.17	29750.55
512.34	29607.78
512.51	30092.27
512.69	30600.16
512.86	30450.37
513.04	30539.31
513.21	30319.30
513.38	30969.97
513.56	30644.63
513.73	30836.56
513.90	30511.22
514.08	30796.77
514.25	30899.75
514.43	30588.46
514.60	30546.33
514.77	30829.54
514.95	31449.78
515.12	30829.54
515.29	31412.33
515.47	31281.26
515.64	31646.38
515.81	31447.44
515.99	31372.54
516.16	31250.83
516.33	31786.82
516.51	31775.11
516.68	31346.79
516.85	31409.99
517.03	31716.60
517.20	31557.44
517.37	31695.53
517.54	31983.42
517.72	31821.92
517.89	32261.94
518.06	32030.23
518.24	32025.55
518.41	32268.97
518.58	31985.76
518.75	32329.82
518.93	32549.83
519.10	32526.42
519.27	32708.99
519.45	32910.27
519.62	32954.74
519.79	32814.31
519.96	32903.25
520.14	33137.30
520.31	33184.12
520.48	33092.83
520.65	32907.93
520.83	33406.47
521.00	33509.45
521.17	33387.74
521.34	33397.10
521.52	33715.42
521.69	33755.21
521.86	33654.56
522.03	33848.83
522.20	33701.37
522.38	34129.69
522.55	34370.77
522.72	34176.50
522.89	34148.42
523.07	34141.39
523.24	34005.64
523.41	34572.05
523.58	34302.89
523.75	34541.63
523.92	34494.82
524.10	34609.50
524.27	35187.61
524.44	34845.90
524.61	34911.43
524.78	35360.81
524.96	35154.85
525.13	35189.95
525.30	35248.47
525.47	35431.03
525.64	35229.74
525.81	35393.58
525.98	35204.00
526.16	35044.84
526.33	35225.06
526.50	35248.47
526.67	35449.75
526.84	35267.19
527.01	35498.91
527.18	35695.51
527.36	35653.38
527.53	35732.96
527.70	35927.22
527.87	36484.27
528.04	35976.37
528.21	36112.13
528.38	35789.13
528.55	36444.48
528.72	35959.99
528.89	36226.81
529.07	36472.57
529.24	36301.71
529.41	36481.93
529.58	36287.67
529.75	36184.68
529.92	36519.38
530.09	36388.31
530.26	36765.14
530.43	36486.61
530.60	36484.27
530.77	36814.29
530.94	37198.13
531.11	36795.56
531.28	37223.88
531.46	36868.12
531.63	36856.42
531.80	36959.40
531.97	36849.39
532.14	37062.38
532.31	37280.05
532.48	37134.94
532.65	37469.64
532.82	37385.38
532.99	37816.04
533.16	37542.19
533.33	37516.45
533.50	37635.81
533.67	37818.38
533.84	37560.92
534.01	37989.24
534.18	37486.02
534.35	38230.31
534.52	37895.61
534.69	37586.66
534.86	38073.49
535.03	37862.85
535.20	37937.74
535.37	38422.23
535.54	38686.71
535.71	38132.01
535.88	38115.62
536.05	38036.05
536.22	38354.36
536.38	38394.15
536.55	38340.32
536.72	38389.47
536.89	38321.59
537.06	38307.55
537.23	38731.18
537.40	38611.82
537.57	38415.21
537.74	38567.35
537.91	38649.27
538.08	38934.81
538.25	38618.84
538.42	38532.24
538.59	39086.95
538.75	38579.05
538.92	38878.64
539.09	38981.62
539.26	38864.60
539.43	39274.19
539.60	39299.94
539.77	38822.47
539.94	39054.18
540.11	39299.94
540.28	39316.32
540.44	39302.28
540.61	39445.05
540.78	39154.82
540.95	39337.38
541.12	39192.27
541.29	39189.93
541.46	39220.36
541.62	39304.62
541.79	39938.90
541.96	39096.31
542.13	39686.12
542.30	39854.64
542.47	39545.69
542.63	39976.35
542.80	39819.53
542.97	40627.02
543.14	40339.13
543.31	40442.12
543.48	40280.62
543.64	40886.82
543.81	40208.06
543.98	40311.05
544.15	40395.31
544.32	40711.28
544.48	40875.12
544.65	40652.76
544.82	40933.63
544.99	39730.59
545.16	40524.04
545.32	40636.38
545.49	40772.13
545.66	41500.04
545.83	40722.98
546.00	40978.10
546.16	40919.59
546.33	40849.37
546.50	40460.84
546.67	40996.82
546.83	40343.81
547.00	40835.33
547.17	41013.21
547.34	41102.15
547.50	41195.77
547.67	41453.23
547.84	41146.62
548.00	41556.21
548.17	41539.83
548.34	41621.75
548.51	41773.88
548.67	41303.43
548.84	41668.56
549.01	41193.43
549.18	41621.75
549.34	41954.10
549.51	41350.24
549.68	41673.24
549.84	41673.24
550.01	41600.68
550.18	41446.21
550.34	41336.20
550.51	41462.59
550.68	41897.93
550.84	41780.90
551.01	42171.77
551.18	42309.86
551.34	41701.32
551.51	41848.78
551.68	42106.24
551.84	42141.35
552.01	41656.85
552.18	42068.79
552.34	42031.34
552.51	42443.27
552.68	41949.42
552.84	42698.39
553.01	42588.39
553.18	42129.64
553.34	42185.82
553.51	41954.10
553.67	42539.24
553.84	42728.82
554.01	42429.23
554.17	42387.10
554.34	42562.64
554.51	42820.10
554.67	43208.63
554.84	42019.64
555.00	42316.89
555.17	42309.86
555.33	42953.51
555.50	42335.61
555.67	42424.55
555.83	42775.63
556.00	43035.43
556.16	42909.04
556.33	43262.46
556.50	42855.21
556.66	42843.51
556.83	42745.20
556.99	42653.92
557.16	43117.35
557.32	42862.23
557.49	43178.20
557.65	43002.66
557.82	42714.78
557.98	43042.45
558.15	42813.08
558.32	43150.12
558.48	42546.26
558.65	43154.80
558.81	42738.18
558.98	43384.17
559.14	43210.97
559.31	43271.82
559.47	43337.36
559.64	43468.43
559.80	43632.27
559.97	43496.52
560.13	42883.30
560.30	42904.36
560.46	43248.42
560.63	43269.48
560.79	43653.33
560.96	43955.26
561.12	43419.28
561.29	43468.43
561.45	43058.84
561.61	43533.96
561.78	43510.56
561.94	43320.98
562.11	43255.44
562.27	43861.64
562.44	43585.46
562.60	43510.56
562.77	43625.25
562.93	43325.66
563.10	43803.13
563.26	43538.65
563.42	43910.79
563.59	43697.80
563.75	43810.15
563.92	44301.66
564.08	43735.25
564.24	43772.70
564.41	43543.33
564.57	43550.35
564.74	43845.26
564.90	43669.72
565.07	44128.46
565.23	43803.13
565.39	44055.90
565.56	43751.63
565.72	43828.87
565.88	43662.69
566.05	43679.08
566.21	44163.57
566.38	44236.12
566.54	43828.87
566.70	43903.77
566.87	44149.53
567.03	43803.13
567.19	44383.58
567.36	44271.23
567.52	43653.33
567.68	44598.91
567.85	44002.07
568.01	43845.26
568.17	44126.12
568.34	44233.78
568.50	43718.87
568.66	43938.88
568.83	43931.86
568.99	43669.72
569.15	43983.35
569.32	43856.96
569.48	43913.13
569.64	44322.72
569.81	44467.84
569.97	43915.47
570.13	44282.94
570.30	43966.96
570.46	44194.00
570.62	43950.58
570.78	43793.76
570.95	43885.04
571.11	44563.80
571.27	43786.74
571.43	43948.24
571.60	44406.98
571.76	44266.55
571.92	44091.01
572.09	44364.85
572.25	44542.74
572.41	44233.78
572.57	44442.09
572.74	44739.34
572.90	44224.42
573.06	44247.83
573.22	44399.96
573.38	44130.80
573.55	44093.35
573.71	44311.02
573.87	43901.43
574.03	44135.48
574.20	44076.97
574.36	44041.86
574.52	44622.31
574.68	44128.46
574.84	44957.01
575.01	44009.09
575.17	44439.75
575.33	44334.43
575.49	44011.43
575.65	44720.62
575.82	44350.81
575.98	44252.51
576.14	44893.82
576.30	44891.48
576.46	44304.00
576.62	44257.19
576.79	44299.32
576.95	44086.33
577.11	44179.95
577.27	44596.57
577.43	44456.14
577.59	44554.44
577.75	44587.21
577.92	44151.87
578.08	44687.85
578.24	44215.06
578.40	44027.82
578.56	44353.15
578.72	44406.98
578.88	44889.13
579.04	44423.37
579.21	44680.83
579.37	43931.86
579.53	44662.10
579.69	44294.64
579.85	44397.62
580.01	44233.78
580.17	44498.26
580.33	44804.88
580.49	44919.56
580.65	44559.12
580.82	44142.50
580.98	44973.39
581.14	44362.51
581.30	44767.43
581.46	44786.15
581.62	44924.24
581.78	44238.47
581.94	45015.52
582.10	44514.65
582.26	44839.98
582.42	44566.14
582.58	44381.24
582.74	44406.98
582.90	44280.60
583.06	44837.64
583.22	44526.35
583.38	44388.26
583.54	44549.76
583.70	44198.68
583.86	44568.48
584.02	44423.37
584.18	44488.90
584.34	44669.12
584.50	44631.68
584.66	44086.33
584.82	44816.58
584.98	44999.14
585.14	44870.41
585.30	44533.37
585.46	44409.32
585.62	44296.98
585.78	44582.52
585.94	44304.00
586.10	44442.09
586.26	44538.05
586.42	44905.52
586.58	45097.44
586.74	44615.29
586.90	44545.08
587.06	44194.00
587.22	44280.60
587.38	44144.84
587.54	44952.33
587.70	44655.08
587.86	44568.48
588.02	44851.69
588.18	44722.96
588.34	44257.19
588.49	44238.47
588.65	44116.76
588.81	44217.40
588.97	44212.72
589.13	44271.23
589.29	44493.58
589.45	44893.82
589.61	44760.40
589.77	44687.85
589.93	45083.40
590.08	44673.81
590.24	45043.61
590.40	44938.29
590.56	44992.12
590.72	45521.08
590.88	44357.83
591.04	44910.20
591.20	45055.31
591.35	44706.57
591.51	45560.87
591.67	44603.59
591.83	44790.83
591.99	44683.17
592.15	44762.75
592.31	45106.80
592.46	44814.24
592.62	44893.82
592.78	45104.46
592.94	44900.84
593.10	44982.76
593.26	45160.64
593.41	45230.85
593.57	44617.63
593.73	45207.45
593.89	44919.56
594.05	45062.33
594.20	45162.98
594.36	45186.38
594.52	45006.16
594.68	44704.23
594.84	44964.03
594.99	45626.40
595.15	45043.61
595.31	45434.48
595.47	44917.22
595.62	44821.26
595.78	45064.67
595.94	44868.07
596.10	45390.01
596.25	45205.11
596.41	45385.33
596.57	45081.06
596.73	44694.87
596.88	44802.53
597.04	45303.41
597.20	45235.53
597.36	44844.66
597.51	45228.51
597.67	45509.38
597.83	45106.80
597.99	45298.73
598.14	45476.61
598.30	44809.56
598.46	45247.24
598.61	44996.80
598.77	45027.23
598.93	44835.30
599.09	44996.80
599.24	45734.07
599.40	45200.43
599.56	45127.87
599.71	45120.85
599.87	45020.20
600.03	44924.24
600.18	45055.31
600.34	45275.32
600.50	45029.57
600.65	45380.65
600.81	45359.58
600.97	45549.17
601.12	45457.88
601.28	45151.27
601.44	44931.26
601.59	45010.84
601.75	44589.55
601.91	44942.97
602.06	44994.46
602.22	45141.91
602.37	45148.93
602.53	44870.41
602.69	45715.34
602.84	45331.50
603.00	45059.99
603.16	45024.89
603.31	44720.62
603.47	44603.59
603.62	44861.05
603.78	45249.58
603.94	45322.13
604.09	45036.59
604.25	45228.51
604.40	44734.66
604.56	44629.34
604.71	45162.98
604.87	44802.53
605.03	44954.67
605.18	44598.91
605.34	44830.62
605.49	44755.72
605.65	45294.05
605.80	45113.83
605.96	45057.65
606.12	45209.79
606.27	45081.06
606.43	44626.99
606.58	44900.84
606.74	44811.90
606.89	45137.23
607.05	45336.18
607.20	44629.34
607.36	45097.44
607.51	45233.19
607.67	45237.87
607.82	45048.29
607.98	45057.65
608.13	44516.99
608.29	44844.66
608.44	44158.89
608.60	44526.35
608.75	44154.21
608.91	44519.33
609.06	45139.57
609.22	45015.52
609.37	44566.14
609.53	44608.27
609.68	45385.33
609.84	44484.22
609.99	44425.71
610.15	44935.95
610.30	44804.88
610.46	44273.57
610.61	44737.00
610.76	44706.57
610.92	44708.91
611.07	44308.68
611.23	44652.74
611.38	44547.42
611.54	44252.51
611.69	44119.10
611.84	44453.79
612.00	44605.93
612.15	44556.78
612.31	44655.08
612.46	44479.54
612.62	44444.43
612.77	44680.83
612.92	44449.11
613.08	44498.26
613.23	44013.77
613.39	44350.81
613.54	44172.93
613.69	44568.48
613.85	44203.36
614.00	44641.04
614.15	44612.95
614.31	44346.13
614.46	44500.61
614.62	43697.80
614.77	43878.02
614.92	43695.46
615.08	44254.85
615.23	43880.36
615.38	44074.63
615.54	43936.54
615.69	44170.59
615.84	44067.61
616.00	43828.87
616.15	43772.70
616.30	43772.70
616.46	43262.46
616.61	43480.13
616.76	43894.41
616.92	43938.88
617.07	43674.40
617.22	43517.58
617.37	43475.45
617.53	43983.35
617.68	43800.79
617.83	43636.95
617.99	43700.14
618.14	43323.32
618.29	43405.23
618.45	43175.86
618.60	43817.17
618.75	43402.89
618.90	43597.16
619.06	43620.56
619.21	43487.15
619.36	43484.81
619.51	43344.38
619.67	43353.74
619.82	43262.46
619.97	43915.47
620.12	42960.53
620.28	43157.14
620.43	42960.53
620.58	43082.24
620.73	43021.39
620.89	43042.45
621.04	43079.90
621.19	43042.45
621.34	43180.54
621.49	42937.13
621.65	42941.81
621.80	43232.04
621.95	42918.40
622.10	43297.57
622.25	42864.57
622.41	42904.36
622.56	42546.26
622.71	43215.65
622.86	43051.81
623.01	42986.28
623.16	42983.94
623.32	42871.59
623.47	43145.44
623.62	43253.10
623.77	42864.57
623.92	42553.28
624.07	42902.02
624.23	42293.48
624.38	42497.11
624.53	42684.35
624.68	42539.24
624.83	42754.57
624.98	42728.82
625.13	42490.09
625.29	42548.60
625.44	42696.05
625.59	41930.70
625.74	42639.88
625.89	41876.86
626.04	42110.92
626.19	42366.04
626.34	42419.87
626.49	42211.56
626.65	42080.49
626.80	42536.90
626.95	42204.54
627.10	42218.58
627.25	41757.50
627.40	41617.07
627.55	41495.36
627.70	41792.61
627.85	41757.50
628.00	41970.49
628.15	41748.14
628.30	41663.88
628.45	41998.57
628.60	41708.35
628.76	42087.51
628.91	41958.78
629.06	41830.05
629.21	41858.14
629.36	41270.67
629.51	41352.58
629.66	41380.67
629.81	41563.23
629.96	41319.82
630.11	41596.00
630.26	41457.91
630.41	41509.40
630.56	41120.87
630.71	41647.49
630.86	41200.45
631.01	41036.61
631.16	41179.39
631.31	40931.29
631.46	40905.54
631.61	41488.34
631.76	41275.35
631.91	41324.50
632.06	41315.14
632.21	41790.27
632.36	41345.56
632.51	40896.18
632.66	41207.47
632.81	41294.07
632.96	41223.86
633.10	41064.70
633.25	40868.09
633.40	40875.12
633.55	41273.01
633.70	41497.70
633.85	40758.09
634.00	41378.33
634.15	41050.66
634.30	40591.91
634.45	40666.81
634.60	41003.85
634.75	40802.56
634.90	40708.94
635.05	40556.80
635.19	41127.89
635.34	41144.28
635.49	40795.54
635.64	40875.12
635.79	40240.83
635.94	40788.52
636.09	40844.69
636.24	40364.88
636.39	39622.93
636.53	40488.93
636.68	40313.39
636.83	40385.94
636.98	40900.86
637.13	40034.86
637.28	40680.85
637.43	40772.13
637.57	40219.77
637.72	40266.58
637.87	40374.24
638.02	40294.66
638.17	40240.83
638.32	40395.31
638.46	39800.81
638.61	40158.91
638.76	39995.07
638.91	39590.16
639.06	39725.91
639.20	40549.78
639.35	39936.56
639.50	39658.04
639.65	40004.44
639.80	40371.90
639.94	40128.48
640.09	39976.35
640.24	39861.66
640.39	39435.69
640.54	39503.56
640.68	39981.03
640.83	39938.90
640.98	39718.89
641.13	39358.45
641.27	39599.52
641.42	39501.22
641.57	40004.44
641.72	39728.25
641.86	39079.92
642.01	39398.24
642.16	39419.30
642.31	39049.50
642.45	39573.78
642.60	39117.37
642.75	39213.34
642.90	39201.63
643.04	39550.37
643.19	39381.85
643.34	39419.30
643.48	39356.11
643.63	39421.64
643.78	38808.42
643.93	39035.45
644.07	39335.04
644.22	39203.97
644.37	38618.84
644.51	39089.29
644.66	39388.88
644.81	39215.68
644.95	38904.38
645.10	38953.54
645.25	39393.56
645.39	39054.18
645.54	39201.63
645.69	39119.71
645.83	38906.73
645.98	39131.42
646.13	38859.91
646.27	38859.91
646.42	38565.01
646.57	39248.44
646.71	38632.88
646.86	38667.99
647.00	38986.30
647.15	38890.34
647.30	38405.85
647.44	38717.14
647.59	38976.94
647.74	38958.22
647.88	38555.64
648.03	38785.02
648.17	38712.46
648.32	38345.00
648.47	38499.47
648.61	38611.82
648.76	38944.17
648.90	38169.46
649.05	38529.90
649.20	38457.34
649.34	38663.31
649.49	37879.23
649.63	38419.89
649.78	38199.88
649.92	38239.67
650.07	38520.54
650.21	38534.58
650.36	38555.64
650.51	37949.45
650.65	38213.93
650.80	38677.35
650.94	38574.37
651.09	38443.30
651.23	38218.61
651.38	37926.04
651.52	37757.52
651.67	38141.37
651.81	37867.53
651.96	37551.56
652.10	38132.01
652.25	37860.51
652.39	37762.20
652.54	38014.98
652.68	37844.12
652.83	37621.77
652.97	37663.90
653.12	37907.32
653.26	37549.21
653.41	37670.92
653.55	37488.36
653.70	37642.84
653.84	37462.61
653.99	37537.51
654.13	37762.20
654.27	37270.69
654.42	38195.20
654.56	37809.01
654.71	37589.00
654.85	37497.72
655.00	37170.05
655.14	36823.65
655.29	37528.15
655.43	37172.39
655.57	36875.14
655.72	37148.98
655.86	37167.71
656.01	37095.15
656.15	36818.97
656.30	37160.69
656.44	36814.29
656.58	36954.72
656.73	36610.66
656.87	36720.66
657.01	36638.75
657.16	36858.76
657.30	36711.30
657.45	36456.18
657.59	36584.91
657.73	36872.80
657.88	36608.32
658.02	36680.88
658.16	36833.01
658.31	37383.04
658.45	37427.51
658.60	36706.62
658.74	36811.95
658.88	36659.81
659.03	36481.93
659.17	36547.47
659.31	36212.77
659.46	36409.37
659.60	36524.06
659.74	36257.24
659.89	35962.33
660.03	36081.70
660.17	35924.88
660.32	36039.57
660.46	36329.80
660.60	36149.57
660.74	36149.57
660.89	36074.68
661.03	35571.46
661.17	35618.27
661.32	35707.21
661.46	35400.60
661.60	35358.47
661.74	35374.86
661.89	35573.80
662.03	35599.55
662.17	35597.21
662.31	35742.32
662.46	35714.23
662.60	35772.75
662.74	35723.60
662.88	35299.96
663.03	35604.23
663.17	35241.45
663.31	34693.76
663.45	35426.35
663.60	35318.68
663.74	34689.08
663.88	35023.78
664.02	34630.57
664.17	35103.35
664.31	34464.39
664.45	34855.26
664.59	34742.91
664.73	34782.70
664.88	34976.97
665.02	34698.44
665.16	34220.97
665.30	34895.05
665.44	34583.76
665.59	33991.60
665.73	34478.43
665.87	34312.25
666.01	34515.88
666.15	34064.16
666.29	33769.25
666.44	34286.51
666.58	34288.85
666.72	34345.02
666.86	34361.40
667.00	34574.39
667.14	33699.03
667.28	34136.71
667.43	33589.03
667.57	33834.78
667.71	33462.64
667.85	33626.48
667.99	33511.79
668.13	33172.41
668.27	33371.36
668.41	34047.77
668.56	33214.54
668.70	33692.01
668.84	33415.83
668.98	32933.68
669.12	33357.32
669.26	33130.28
669.40	33315.19
669.54	32912.61
669.68	33336.25
669.82	33010.92
669.96	32723.03
670.10	32341.52
670.25	32730.05
670.39	32795.59
670.53	32388.33
670.67	32596.64
670.81	32898.57
670.95	32538.13
671.09	32505.36
671.23	32367.27
671.37	32746.44
671.51	32098.11
671.65	32072.36
671.79	31721.28
671.93	32088.74
672.07	32320.46
672.21	31981.08
672.35	31866.39
672.49	32058.32
672.63	32177.68
672.77	32020.87
672.91	31775.11
673.05	31899.16
673.19	31810.22
673.33	31351.48
673.47	31580.85
673.61	31040.18
673.75	31014.44
673.89	31262.54
674.03	30738.26
674.17	30635.27
674.31	30888.05
674.45	30473.78
674.59	30883.37
674.73	31290.62
674.87	30955.93
675.01	30698.47
675.15	31154.87
675.29	30822.51
675.43	30497.18
675.56	30768.68
675.70	30569.74
675.84	30359.09
675.98	29214.57
676.12	30331.00
676.26	29933.11
676.40	30005.67
676.54	29521.18
676.68	29811.40
676.82	29593.73
676.96	29483.73
677.10	29212.23
677.23	29584.37
677.37	29244.99
677.51	29156.05
677.65	29310.53
677.79	28961.79
677.93	29071.79
678.07	29174.78
678.21	28863.49
678.34	28521.77
678.48	28610.71
678.62	28173.03
678.76	28283.03
678.90	28465.60
679.04	28449.21
679.18	28472.62
679.31	28025.57
679.45	28170.69
679.59	27763.43
679.73	27655.77
679.87	27999.83
680.00	27838.33
680.14	27435.76
680.28	27445.12
680.42	27461.51
680.56	27016.80
680.70	27447.46
680.83	26948.93
680.97	27150.21
681.11	26998.08
681.25	26740.62
681.39	26710.19
681.52	27035.53
681.66	26991.06
681.80	26738.28
681.94	26625.93
682.07	26740.62
682.21	26373.16
682.35	26281.88
682.49	26185.91
682.62	26305.28
682.76	25624.18
682.90	25841.85
683.04	25649.93
683.17	25757.60
683.31	26029.10
683.45	25750.57
683.59	24940.75
683.72	25252.04
683.86	25153.74
684.00	24907.98
684.13	25235.66
684.27	25355.02
684.41	25198.21
684.55	25006.28
684.68	24996.92
684.82	24692.65
684.96	24751.17
685.09	24870.53
685.23	24648.18
685.37	24261.99
685.50	24376.68
685.64	24388.38
685.78	23917.93
685.91	24428.17
686.05	24016.24
686.19	23899.21
686.32	23779.84
686.46	23789.20
686.60	23597.28
686.73	23777.50
686.87	23388.97
687.01	23283.65
687.14	23161.94
687.28	23274.29
687.42	23021.51
687.55	22735.96
687.69	22927.89
687.82	22876.40
687.96	22867.03
688.10	22923.21
688.23	22551.06
688.37	22277.22
688.50	22249.13
688.64	22508.93
688.78	22279.56
688.91	22148.49
689.05	22087.64
689.18	22160.19
689.32	21584.42
689.46	21884.01
689.59	22059.55
689.73	22064.23
689.86	21928.48
690.00	21671.02
690.13	21542.29
690.27	21486.12
690.41	21404.20
690.54	21245.04
690.68	21099.93
690.81	21418.24
690.95	20753.53
691.08	20886.94
691.22	20936.09
691.35	20732.47
691.49	20905.66
691.62	21238.02
691.76	20699.70
691.89	20484.37
692.03	20379.04
692.16	20322.87
692.30	20400.11
692.43	20112.22
692.57	20154.35
692.70	20343.94
692.84	19704.97
692.97	19690.93
693.11	19793.91
693.24	19714.33
693.38	19463.90
693.51	19676.88
693.65	19234.52
693.78	19442.83
693.92	19508.37
694.05	19522.41
694.19	19073.03
694.32	19068.34
694.45	19126.86
694.59	19105.79
694.72	18911.53
694.86	18743.01
694.99	18782.80
695.13	18654.07
695.26	18239.79
695.39	18356.82
695.53	18387.25
695.66	18504.28
695.80	18483.21
695.93	18288.95
696.07	18064.25
696.20	18176.60
696.33	18090.00
696.47	17949.57
696.60	17898.08
696.73	17706.15
696.87	17514.23
697.00	17706.15
697.14	17537.63
697.27	17542.32
697.40	17392.52
697.54	17074.21
697.67	17460.40
697.80	17048.46
697.94	17111.66
698.07	17050.80
698.21	17116.34
698.34	16966.54
698.47	16837.81
698.61	16545.25
698.74	16439.92
698.87	16791.00
699.01	16393.11
699.14	16453.97
699.27	16395.45
699.40	16084.16
699.54	16259.70
699.67	15880.53
699.80	16517.16
699.94	15857.13
700.07	16173.10
700.20	15758.83
700.34	15906.28
700.47	15880.53
700.60	15754.15
700.73	15712.02
700.87	15386.68
701.00	15669.89
701.13	15573.92
701.26	15349.23
701.40	15276.68
701.53	15171.35
701.66	15274.34
701.79	15016.88
701.93	14995.81
702.06	14759.42
702.19	14590.90
702.32	15042.62
702.46	14642.39
702.59	14902.19
702.72	14733.67
702.85	14686.86
702.99	14794.53
703.12	14583.88
703.25	14644.73
703.38	14600.26
703.51	14471.53
703.65	14373.23
703.78	14480.89
703.91	14298.33
704.04	13994.06
704.17	14246.84
704.31	14122.79
704.44	13806.82
704.57	13827.88
704.70	13591.49
704.83	13687.45
704.96	13565.74
705.10	13584.47
705.23	13654.69
>>>>>End Processed Spectral Data<<<<<
