SpectraSuite Data File
++++++++++++++++++++++++++++++++++++
Date: Fri Oct 25 10:47:44 EDT 2013
User: price-jones
Dark Spectrum Present: No
Reference Spectrum Present: No
Number of Sampled Component Spectra: 1
Spectrometers: USB2+H05261
Integration Time (usec): 100000 (USB2+H05261)
Spectra Averaged: 1 (USB2+H05261)
Boxcar Smoothing: 0 (USB2+H05261)
Correct for Electrical Dark: No (USB2+H05261)
Strobe/Lamp Enabled: No (USB2+H05261)
Correct for Detector Non-linearity: No (USB2+H05261)
Correct for Stray Light: No (USB2+H05261)
Number of Pixels in Processed Spectrum: 2048
>>>>>Begin Processed Spectral Data<<<<<
365.73	198.95
365.92	198.95
366.12	198.95
366.32	25.75
366.52	44.47
366.72	95.96
366.91	2.34
367.11	28.09
367.31	67.88
367.51	21.06
367.70	100.64
367.90	46.81
368.10	60.85
368.30	21.06
368.49	56.17
368.69	14.04
368.89	0.00
369.09	49.15
369.28	110.01
369.48	67.88
369.68	74.90
369.87	88.94
370.07	65.54
370.27	166.18
370.47	227.03
370.66	447.04
370.86	425.98
371.06	418.96
371.25	512.58
371.45	428.32
371.65	477.47
371.84	435.34
372.04	437.68
372.24	475.13
372.44	454.06
372.63	500.87
372.83	564.07
373.03	580.45
373.22	493.85
373.42	566.41
373.62	531.30
373.81	603.86
374.01	535.98
374.21	587.47
374.40	561.73
374.60	552.37
374.79	571.09
374.99	454.06
375.19	594.50
375.38	561.73
375.58	596.84
375.78	594.50
375.97	599.18
376.17	547.69
376.37	629.60
376.56	629.60
376.76	638.97
376.95	636.63
377.15	674.07
377.35	631.94
377.54	631.94
377.74	514.92
377.93	592.16
378.13	596.84
378.33	655.35
378.52	589.82
378.72	657.69
378.91	533.64
379.11	578.11
379.31	638.97
379.50	660.03
379.70	655.35
379.89	678.76
380.09	664.71
380.28	692.80
380.48	702.16
380.68	709.18
380.87	634.29
381.07	629.60
381.26	702.16
381.46	655.35
381.65	695.14
381.85	720.88
382.04	723.23
382.24	664.71
382.43	699.82
382.63	746.63
382.83	638.97
383.02	746.63
383.22	786.42
383.41	734.93
383.61	751.31
383.80	777.06
384.00	720.88
384.19	732.59
384.39	798.12
384.58	814.51
384.78	746.63
384.97	788.76
385.17	784.08
385.36	777.06
385.56	774.72
385.75	770.04
385.95	720.88
386.14	816.85
386.34	704.50
386.53	802.80
386.72	730.25
386.92	795.78
387.11	875.36
387.31	746.63
387.50	800.46
387.70	788.76
387.89	922.17
388.09	880.04
388.28	858.98
388.48	873.02
388.67	798.12
388.86	854.30
389.06	842.59
389.25	924.51
389.45	884.72
389.64	802.80
389.84	905.79
390.03	880.04
390.22	954.94
390.42	922.17
390.61	912.81
390.81	952.60
391.00	910.47
391.19	926.85
391.39	898.77
391.58	966.64
391.78	873.02
391.97	945.58
392.16	917.49
392.36	985.37
392.55	943.24
392.75	999.41
392.94	957.28
393.13	933.87
393.33	1008.77
393.52	945.58
393.71	1025.15
393.91	1029.84
394.10	1008.77
394.29	950.26
394.49	1008.77
394.68	1046.22
394.88	1114.10
395.07	1095.37
395.26	1100.05
395.46	1128.14
395.65	1139.84
395.84	1102.39
396.04	1174.95
396.23	1144.52
396.42	1074.31
396.62	1135.16
396.81	1149.20
397.00	1196.01
397.19	1191.33
397.39	1217.08
397.58	1282.61
397.77	1252.19
397.97	1256.87
398.16	1282.61
398.35	1315.38
398.55	1301.34
398.74	1329.42
398.93	1291.98
399.12	1310.70
399.32	1273.25
399.51	1336.45
399.70	1376.24
399.90	1341.13
400.09	1362.19
400.28	1434.75
400.47	1348.15
400.67	1362.19
400.86	1404.32
401.05	1528.37
401.24	1380.92
401.44	1509.65
401.63	1507.30
401.82	1526.03
402.01	1455.81
402.21	1479.22
402.40	1565.82
402.59	1497.94
402.78	1425.39
402.97	1554.12
403.17	1488.58
403.36	1535.39
403.55	1495.60
403.74	1610.29
403.93	1610.29
404.13	1661.78
404.32	1673.48
404.51	1643.06
404.70	1776.47
404.89	1675.82
405.09	1797.53
405.28	1806.89
405.47	1626.67
405.66	1806.89
405.85	1776.47
406.05	1783.49
406.24	1732.00
406.43	1781.15
406.62	1701.57
406.81	1832.64
407.00	1771.79
407.20	1778.81
407.39	1834.98
407.58	1914.56
407.77	1764.76
407.96	1944.99
408.15	1930.94
408.34	1874.77
408.54	2036.27
408.73	1858.39
408.92	2031.58
409.11	2062.01
409.30	1961.37
409.49	1963.71
409.68	1907.54
409.87	2003.50
410.07	2148.61
410.26	2120.53
410.45	2078.40
410.64	2200.10
410.83	2118.18
411.02	2230.53
411.21	2284.36
411.40	2211.81
411.59	2263.30
411.78	2289.04
411.98	2314.79
412.17	2282.02
412.36	2310.11
412.55	2335.85
412.74	2399.05
412.93	2502.03
413.12	2420.11
413.31	2551.18
413.50	2420.11
413.69	2469.27
413.88	2553.52
414.07	2466.92
414.26	2370.96
414.45	2595.65
414.64	2558.21
414.83	2602.68
415.02	2656.51
415.22	2696.30
415.41	2731.41
415.60	2719.70
415.79	2773.53
415.98	2981.84
416.17	2944.39
416.36	2867.16
416.55	2876.52
416.74	2890.56
416.93	2869.50
417.12	2789.92
417.31	3016.95
417.50	2860.13
417.69	3030.99
417.88	2937.37
418.07	3073.12
418.26	2993.55
418.45	3045.04
418.64	3194.83
418.83	3070.78
419.02	3173.77
419.21	3080.14
419.39	3300.16
419.58	3220.58
419.77	3089.51
419.96	3166.74
420.15	3337.60
420.34	3220.58
420.53	3309.52
420.72	3307.18
420.91	3274.41
421.10	3335.26
421.29	3328.24
421.48	3379.73
421.67	3398.46
421.86	3363.35
422.05	3449.95
422.24	3318.88
422.43	3489.74
422.61	3449.95
422.80	3508.46
422.99	3480.38
423.18	3543.57
423.37	3641.87
423.56	3433.57
423.75	3456.97
423.94	3428.88
424.13	3321.22
424.32	3332.92
424.50	3499.10
424.69	3501.44
424.88	3599.74
425.07	3449.95
425.26	3501.44
425.45	3550.59
425.64	3552.93
425.83	3536.55
426.01	3681.66
426.20	3534.21
426.39	3632.51
426.58	3501.44
426.77	3461.65
426.96	3672.30
427.15	3456.97
427.33	3581.02
427.52	3588.04
427.71	3630.17
427.90	3665.28
428.09	3726.13
428.28	3698.05
428.46	3840.82
428.65	3653.58
428.84	3836.14
429.03	3801.03
429.22	3616.13
429.40	3723.79
429.59	3653.58
429.78	3555.27
429.97	3611.45
430.16	3772.94
430.34	3737.84
430.53	3873.59
430.72	3904.01
430.91	3838.48
431.10	3885.29
431.28	4030.40
431.47	4152.11
431.66	4264.46
431.85	3941.46
432.03	4259.78
432.22	4051.47
432.41	3927.42
432.60	4278.50
432.79	4184.88
432.97	4147.43
433.16	4217.65
433.35	4212.96
433.54	4224.67
433.72	4208.28
433.91	4224.67
434.10	4358.08
434.28	4205.94
434.47	4353.40
434.66	4521.92
434.85	4372.12
435.03	4393.19
435.22	4376.80
435.41	4521.92
435.59	4552.34
435.78	4596.81
435.97	4557.02
436.16	4706.82
436.34	4695.11
436.53	4547.66
436.72	4741.93
436.90	4430.63
437.09	4793.42
437.28	4533.62
437.46	4688.09
437.65	4667.03
437.84	4851.93
438.02	4660.01
438.21	4758.31
438.40	4664.69
438.58	4779.37
438.77	4851.93
438.96	4884.70
439.14	5095.35
439.33	4894.06
439.52	5078.96
439.70	5050.88
439.89	5078.96
440.08	5270.89
440.26	5210.03
440.45	5193.65
440.63	5146.84
440.82	5298.97
441.01	5284.93
441.19	5172.58
441.38	5343.44
441.57	5345.78
441.75	5526.00
441.94	5540.05
442.12	5535.37
442.31	5710.91
442.50	5699.20
442.68	5575.16
442.87	5612.60
443.05	5551.75
443.24	5668.78
443.43	5645.37
443.61	5685.16
443.80	5781.12
443.98	5682.82
444.17	5699.20
444.35	5804.53
444.54	5776.44
444.73	5680.48
444.91	5720.27
445.10	5893.47
445.28	5682.82
445.47	5753.04
445.65	5640.69
445.84	5652.39
446.02	5734.31
446.21	5846.66
446.39	5792.83
446.58	5982.41
446.77	5951.98
446.95	5724.95
447.14	5767.08
447.32	5830.27
447.51	5884.11
447.69	5893.47
447.88	5947.30
448.06	6029.22
448.25	5776.44
448.43	5921.56
448.62	5912.19
448.80	5937.94
448.99	5949.64
449.17	5966.03
449.36	5944.96
449.54	6190.72
449.73	6214.12
449.91	6296.04
450.10	6291.36
450.28	6473.92
450.46	6293.70
450.65	6296.04
450.83	6272.64
451.02	6361.58
451.20	6244.55
451.39	6422.43
451.57	6368.60
451.76	6303.06
451.94	6401.37
452.13	6551.16
452.31	6370.94
452.49	6333.49
452.68	6513.71
452.86	6380.30
453.05	6469.24
453.23	6590.95
453.42	6658.82
453.60	6366.26
453.78	6609.67
453.97	6656.48
454.15	6506.69
454.34	6565.20
454.52	6977.14
454.70	6745.42
454.89	6719.68
455.07	6698.61
455.26	6724.36
455.44	6768.83
455.62	6663.51
455.81	6759.47
455.99	6967.77
456.17	6953.73
456.36	6904.58
456.54	7117.57
456.73	7035.65
456.91	7211.19
457.09	7375.03
457.28	7356.30
457.46	7150.34
457.64	7201.83
457.83	7255.66
458.01	7201.83
458.19	7279.07
458.38	7473.33
458.56	7318.86
458.74	7541.21
458.93	7295.45
459.11	7386.73
459.29	7356.30
459.48	7552.91
459.66	7442.90
459.84	7552.91
460.03	7529.50
460.21	7468.65
460.39	7588.02
460.57	7438.22
460.76	7604.40
460.94	7716.75
461.12	7679.30
461.31	7646.53
461.49	7693.34
461.67	7859.52
461.85	7847.82
462.04	7786.96
462.22	8367.42
462.40	7932.08
462.59	8037.40
462.77	7779.94
462.95	8086.55
463.13	7749.51
463.32	8095.91
463.50	8030.38
463.68	7826.75
463.86	8070.17
464.05	7922.71
464.23	8018.68
464.41	8217.62
464.59	7955.48
464.78	8248.05
464.96	8189.53
465.14	8210.60
465.32	8114.64
465.50	8318.26
465.69	8219.96
465.87	8077.19
466.05	8500.83
466.23	8292.52
466.41	8266.77
466.60	8571.04
466.78	8191.88
466.96	8285.50
467.14	8226.98
467.32	8521.89
467.51	8542.96
467.69	8259.75
467.87	8634.24
468.05	8573.38
468.23	8566.36
468.41	8297.20
468.60	8353.37
468.78	8678.71
468.96	8538.27
469.14	8676.37
469.32	8954.89
469.50	8545.30
469.69	8641.26
469.87	8912.76
470.05	8758.28
470.23	8882.33
470.41	8730.20
470.59	8997.02
470.77	8945.53
470.95	9100.00
471.14	9102.34
471.32	8835.52
471.50	9142.13
471.68	9263.84
471.86	9366.82
472.04	9074.26
472.22	9561.09
472.40	9170.22
472.58	9345.76
472.77	9193.62
472.95	9411.29
473.13	9851.31
473.31	9437.04
473.49	9446.40
473.67	9540.02
473.85	9547.05
474.03	9970.68
474.21	9837.27
474.39	9785.78
474.57	9877.06
474.75	9923.87
474.93	10078.35
475.12	9870.04
475.30	10085.37
475.48	10190.69
475.66	10235.16
475.84	10008.13
476.02	10171.97
476.20	10452.83
476.38	10649.44
476.56	10747.74
476.74	10551.14
476.92	10675.18
477.10	10611.99
477.28	10740.72
477.46	10724.33
477.64	10850.72
477.82	11028.60
478.00	11229.89
478.18	11274.36
478.36	11206.48
478.54	11510.75
478.72	11426.50
478.90	11747.15
479.08	11606.72
479.26	11740.13
479.44	11672.25
479.62	11815.02
479.80	11843.11
479.98	12058.44
480.16	12262.07
480.34	12360.37
480.52	12327.60
480.70	12465.69
480.88	12133.34
481.06	12479.74
481.24	12634.21
481.41	12769.96
481.59	12784.01
481.77	12737.20
481.95	12957.21
482.13	13242.75
482.31	12985.29
482.49	13151.47
482.67	13376.16
482.85	13809.16
483.03	13549.36
483.21	13715.54
483.39	13891.08
483.57	14106.41
483.74	14059.60
483.92	13977.68
484.10	13977.68
484.28	14342.80
484.46	14862.40
484.64	14635.37
484.82	14490.26
485.00	14675.16
485.18	15059.01
485.35	14963.04
485.53	14902.19
485.71	14916.23
485.89	15054.33
486.07	15260.29
486.25	15171.35
486.43	15566.90
486.61	15838.41
486.78	15763.51
486.96	15962.45
487.14	16311.19
487.32	16091.18
487.50	16163.74
487.68	16329.92
487.85	16355.66
488.03	16760.58
488.21	16872.92
488.39	16798.02
488.57	16964.20
488.75	17343.37
488.92	17362.09
489.10	17741.26
489.28	17607.85
489.46	17729.56
489.64	17989.36
489.81	18033.83
489.99	18265.54
490.17	18405.97
490.35	18448.10
490.53	18623.64
490.70	18834.29
490.88	18885.78
491.06	19030.90
491.24	18815.57
491.41	18904.51
491.59	19431.13
491.77	18984.09
491.95	19136.22
492.13	19278.99
492.30	19506.02
492.48	19342.19
492.66	19733.06
492.84	20116.90
493.01	20137.97
493.19	19871.15
493.37	20521.82
493.54	20477.35
493.72	20306.49
493.90	20594.37
494.08	20788.64
494.25	21106.95
494.43	21193.55
494.61	21106.95
494.79	21273.13
494.96	21146.74
495.14	21378.45
495.32	21553.99
495.49	21809.11
495.67	21827.84
495.85	22157.85
496.02	21923.80
496.20	22097.00
496.38	22153.17
496.55	22530.00
496.73	22658.73
496.91	22419.99
497.09	22874.06
497.26	22902.14
497.44	22668.09
497.62	22658.73
497.79	23185.35
497.97	23115.13
498.14	23522.38
498.32	23515.36
498.50	23421.74
498.67	23651.11
498.85	23866.44
499.03	23964.75
499.20	23871.12
499.38	24144.97
499.56	24027.94
499.73	24374.34
499.91	24285.40
500.08	24294.76
500.26	24329.87
500.44	24189.44
500.61	24477.32
500.79	24634.14
500.97	24940.75
501.14	24812.02
501.32	25083.52
501.49	24767.55
501.67	25282.47
501.84	25055.43
502.02	25404.17
502.20	25666.31
502.37	25645.25
502.55	25666.31
502.72	25687.38
502.90	25682.70
503.07	25708.44
503.25	26059.52
503.43	25757.60
503.60	26256.13
503.78	26057.18
503.95	26010.37
504.13	25972.92
504.30	26401.24
504.48	26518.27
504.65	26148.46
504.83	26796.79
505.01	27440.44
505.18	26948.93
505.36	27463.85
505.53	27140.85
505.71	27072.98
505.88	27138.51
506.06	26937.23
506.23	27082.34
506.41	27211.07
506.58	27388.95
506.76	27328.10
506.93	27559.81
507.11	27749.39
507.28	27910.89
507.46	27798.54
507.63	28163.67
507.81	27878.12
507.98	27873.44
508.16	28070.04
508.33	27899.19
508.50	28273.67
508.68	28489.00
508.85	28481.98
509.03	28379.00
509.20	28690.29
509.38	28919.66
509.55	28851.78
509.73	28973.49
509.90	28914.98
510.08	29076.48
510.25	29146.69
510.42	29266.06
510.60	29223.93
510.77	29242.65
510.95	29252.02
511.12	29195.84
511.30	29397.13
511.47	29940.13
511.64	30319.30
511.82	30000.99
511.99	29364.36
512.17	29855.87
512.34	30031.41
512.51	30478.46
512.69	30614.21
512.86	30183.55
513.04	30576.76
513.21	30504.20
513.38	30199.93
513.56	30221.00
513.73	30258.45
513.90	31047.21
514.08	30735.92
514.25	31072.95
514.43	30906.77
514.60	30625.91
514.77	31372.54
514.95	31077.63
515.12	30995.71
515.29	30918.48
515.47	31304.67
515.64	31583.19
515.81	31470.84
515.99	31433.39
516.16	31716.60
516.33	31519.99
516.51	31995.12
516.68	31435.74
516.85	31555.10
517.03	31702.56
517.20	31976.40
517.37	31995.12
517.54	32151.94
517.72	31882.78
517.89	31988.10
518.06	32023.21
518.24	32025.55
518.41	32046.62
518.58	31864.05
518.75	32142.58
518.93	33015.60
519.10	32800.27
519.27	32694.94
519.45	32687.92
519.62	32608.34
519.79	33233.27
519.96	32692.60
520.14	33263.69
520.31	33055.39
520.48	33195.82
520.65	33104.54
520.83	33656.90
521.00	33731.80
521.17	33638.18
521.34	33750.52
521.52	33420.51
521.69	33823.08
521.86	33872.23
522.03	33982.24
522.20	33867.55
522.38	33951.81
522.55	34134.37
522.72	34066.50
522.89	34181.18
523.07	34227.99
523.24	33998.62
523.41	34106.29
523.58	34232.68
523.75	35133.78
523.92	34375.45
524.10	34646.95
524.27	34679.72
524.44	34698.44
524.61	35054.20
524.78	34710.14
524.96	35185.27
525.13	35309.32
525.30	35007.39
525.47	35615.93
525.64	35061.22
525.81	35164.21
525.98	35414.65
526.16	35030.80
526.33	35208.68
526.50	35566.78
526.67	35447.41
526.84	35505.93
527.01	35302.30
527.18	35311.66
527.36	35948.29
527.53	35887.43
527.70	36109.78
527.87	35974.03
528.04	35978.72
528.21	36126.17
528.38	35456.78
528.55	36074.68
528.72	36196.38
528.89	36678.54
529.07	36378.95
529.24	36297.03
529.41	36416.40
529.58	36217.45
529.75	36601.30
529.92	36495.97
530.09	36627.04
530.26	37006.21
530.43	36755.77
530.60	36514.70
530.77	36739.39
530.94	36982.80
531.11	36711.30
531.28	36830.67
531.46	37036.64
531.63	37577.30
531.80	36842.37
531.97	36849.39
532.14	37326.86
532.31	37425.17
532.48	37411.12
532.65	37310.48
532.82	37361.97
532.99	37514.11
533.16	37317.50
533.33	37558.58
533.50	37876.89
533.67	37186.43
533.84	37579.64
534.01	37691.99
534.18	37130.26
534.35	38132.01
534.52	38029.02
534.69	37933.06
534.86	38108.60
535.03	37830.08
535.20	38197.54
535.37	38211.59
535.54	38321.59
535.71	38387.13
535.88	38557.99
536.05	38485.43
536.22	38422.23
536.38	38445.64
536.55	38375.42
536.72	38366.06
536.89	38602.46
537.06	38541.60
537.23	38656.29
537.40	38684.37
537.57	38728.84
537.74	38408.19
537.91	38960.56
538.08	39002.69
538.25	38630.54
538.42	39108.01
538.59	38848.21
538.75	38789.70
538.92	39030.77
539.09	39199.29
539.26	39297.59
539.43	39119.71
539.60	39133.76
539.77	38892.68
539.94	39304.62
540.11	39316.32
540.28	39178.23
540.44	39173.55
540.61	39098.65
540.78	39377.17
540.95	39508.24
541.12	39042.48
541.29	39384.19
541.46	39620.59
541.62	39660.38
541.79	39599.52
541.96	39281.21
542.13	39496.54
542.30	39852.30
542.47	39842.94
542.63	39412.28
542.80	40208.06
542.97	40116.78
543.14	40657.45
543.31	40343.81
543.48	40266.58
543.64	41024.91
543.81	40196.36
543.98	40205.72
544.15	40308.71
544.32	40570.85
544.48	40734.68
544.65	40477.22
544.82	40491.27
544.99	40477.22
545.16	40725.32
545.32	40596.59
545.49	41064.70
545.66	41488.34
545.83	40765.11
546.00	41249.60
546.16	40928.95
546.33	41106.83
546.50	40671.49
546.67	40924.27
546.83	40781.49
547.00	41429.82
547.17	41116.19
547.34	41132.57
547.50	41308.11
547.67	41298.75
547.84	41249.60
548.00	41195.77
548.17	41804.31
548.34	41233.22
548.51	41216.83
548.67	41467.27
548.84	41766.86
549.01	41738.77
549.18	41439.18
549.34	41893.25
549.51	42284.12
549.68	41858.14
549.84	41698.98
550.01	41759.84
550.18	41399.40
550.34	41689.62
550.51	41708.35
550.68	41984.53
550.84	41698.98
551.01	41797.29
551.18	41588.98
551.34	41949.42
551.51	41956.44
551.68	41977.51
551.84	42394.12
552.01	42082.83
552.18	42181.13
552.34	42167.09
552.51	42103.90
552.68	42370.72
552.84	42258.37
553.01	42930.11
553.18	42197.52
553.34	42050.06
553.51	42213.90
553.67	42129.64
553.84	42944.15
554.01	42593.07
554.17	43035.43
554.34	42632.86
554.51	42682.01
554.67	42698.39
554.84	42686.69
555.00	42398.80
555.17	42443.27
555.33	42539.24
555.50	42653.92
555.67	42988.62
555.83	42843.51
556.00	42522.85
556.16	43051.81
556.33	43124.37
556.50	42740.52
556.66	43407.58
556.83	42911.38
556.99	43072.88
557.16	43213.31
557.32	42717.12
557.49	43051.81
557.65	42635.20
557.82	42473.70
557.98	42777.97
558.15	42639.88
558.32	43463.75
558.48	43129.05
558.65	43405.23
558.81	43313.95
558.98	43056.50
559.14	43318.64
559.31	43363.11
559.47	43056.50
559.64	43529.28
559.80	43835.89
559.97	43225.01
560.13	43145.44
560.30	43250.76
560.46	43526.94
560.63	42965.21
560.79	43459.07
560.96	43576.09
561.12	43433.32
561.29	43323.32
561.45	43522.26
561.61	43594.82
561.78	43402.89
561.94	43391.19
562.11	43622.90
562.27	43320.98
562.44	43566.73
562.60	43842.92
562.77	43765.68
562.93	43281.19
563.10	44039.52
563.26	43246.08
563.42	43819.51
563.59	43374.81
563.75	43878.02
563.92	44011.43
564.08	43676.74
564.24	44081.65
564.41	44086.33
564.57	43615.88
564.74	43817.17
564.90	43566.73
565.07	43775.04
565.23	43681.42
565.39	43765.68
565.56	43901.43
565.72	43604.18
565.88	43718.87
566.05	44020.80
566.21	43887.39
566.38	43845.26
566.54	43796.10
566.70	44488.90
566.87	44289.96
567.03	44718.28
567.19	44603.59
567.36	43997.39
567.52	43672.06
567.68	43997.39
567.85	44194.00
568.01	44121.44
568.17	44130.80
568.34	44175.27
568.50	43931.86
568.66	43948.24
568.83	44376.56
568.99	44191.65
569.15	43971.64
569.32	44142.50
569.48	44156.55
569.64	44325.07
569.81	44060.58
569.97	43770.36
570.13	44245.49
570.30	44231.44
570.46	44144.84
570.62	43861.64
570.78	43784.40
570.95	44210.38
571.11	44266.55
571.27	44715.93
571.43	44554.44
571.60	44334.43
571.76	44374.22
571.92	44217.40
572.09	44020.80
572.25	43842.92
572.41	44179.95
572.57	44261.87
572.74	44823.60
572.90	44519.33
573.06	44577.84
573.22	44194.00
573.38	44184.63
573.55	43833.55
573.71	44603.59
573.87	44451.45
574.03	43894.41
574.20	44554.44
574.36	44500.61
574.52	44928.92
574.68	44739.34
574.84	44575.50
575.01	44126.12
575.17	44444.43
575.33	44313.36
575.49	44428.05
575.65	44905.52
575.82	44788.49
575.98	44163.57
576.14	44648.06
576.30	44655.08
576.46	44275.91
576.62	44552.10
576.79	44470.18
576.95	43896.75
577.11	44210.38
577.27	44341.45
577.43	44442.09
577.59	44137.82
577.75	44582.52
577.92	43927.17
578.08	44292.30
578.24	44158.89
578.40	44088.67
578.56	44435.07
578.72	44409.32
578.88	44341.45
579.04	44524.01
579.21	44076.97
579.37	44437.41
579.53	44538.05
579.69	44318.04
579.85	44292.30
580.01	44528.69
580.17	44243.15
580.33	44830.62
580.49	44919.56
580.65	44540.39
580.82	44800.19
580.98	44177.61
581.14	44512.31
581.30	44814.24
581.46	44711.25
581.62	44404.64
581.78	44598.91
581.94	45244.90
582.10	44446.77
582.26	44725.30
582.42	44416.35
582.58	44985.10
582.74	44652.74
582.90	44622.31
583.06	45045.95
583.22	45244.90
583.38	44636.36
583.54	44158.89
583.70	44463.16
583.86	44018.46
584.02	44545.08
584.18	44285.28
584.34	44886.79
584.50	44652.74
584.66	44432.73
584.82	44329.75
584.98	44847.00
585.14	44634.02
585.30	44308.68
585.46	44402.30
585.62	44315.70
585.78	44282.94
585.94	44245.49
586.10	44762.75
586.26	44456.14
586.42	44453.79
586.58	44762.75
586.74	44355.49
586.90	44598.91
587.06	44175.27
587.22	44292.30
587.38	44498.26
587.54	45111.49
587.70	45083.40
587.86	44561.46
588.02	44645.72
588.18	44540.39
588.34	44617.63
588.49	44451.45
588.65	44432.73
588.81	44535.71
588.97	44388.26
589.13	44016.11
589.29	44678.49
589.45	44664.44
589.61	44870.41
589.77	44814.24
589.93	44924.24
590.08	44914.88
590.24	44797.85
590.40	44945.31
590.56	44924.24
590.72	45118.51
590.88	44854.03
591.04	44751.04
591.20	44900.84
591.35	45312.77
591.51	45305.75
591.67	44982.76
591.83	44816.58
591.99	44641.04
592.15	45022.54
592.31	45251.92
592.46	44912.54
592.62	44631.68
592.78	45092.76
592.94	44964.03
593.10	44837.64
593.26	45069.36
593.41	44926.58
593.57	44634.02
593.73	45181.70
593.89	44870.41
594.05	44772.11
594.20	44790.83
594.36	45439.16
594.52	45118.51
594.68	45139.57
594.84	44893.82
594.99	45247.24
595.15	45116.17
595.31	45226.17
595.47	44992.12
595.62	45352.56
595.78	45188.72
595.94	45195.74
596.10	45305.75
596.25	45106.80
596.41	44982.76
596.57	44847.00
596.73	44942.97
596.88	44603.59
597.04	45120.85
597.20	45345.54
597.36	44919.56
597.51	45102.12
597.67	45261.28
597.83	45097.44
597.99	45441.50
598.14	44910.20
598.30	44891.48
598.46	45207.45
598.61	44985.10
598.77	44725.30
598.93	45022.54
599.09	45137.23
599.24	45439.16
599.40	45125.53
599.56	44952.33
599.71	45308.09
599.87	45371.28
600.03	44711.25
600.18	45088.08
600.34	44877.43
600.50	44837.64
600.65	45095.10
600.81	45359.58
600.97	45352.56
601.12	45399.37
601.28	45317.45
601.44	45502.35
601.59	44865.73
601.75	44526.35
601.91	44952.33
602.06	44889.13
602.22	44994.46
602.37	45043.61
602.53	45237.87
602.69	45401.71
602.84	45221.49
603.00	45603.00
603.16	45170.00
603.31	44893.82
603.47	44980.42
603.62	45095.10
603.78	44928.92
603.94	45071.70
604.09	44893.82
604.25	45303.41
604.40	44816.58
604.56	44556.78
604.71	44992.12
604.87	44952.33
605.03	45235.53
605.18	45242.56
605.34	45167.66
605.49	44907.86
605.65	45083.40
605.80	45373.63
605.96	44964.03
606.12	45109.14
606.27	45244.90
606.43	44987.44
606.58	44746.36
606.74	44828.28
606.89	44849.35
607.05	44985.10
607.20	45048.29
607.36	45392.35
607.51	45111.49
607.67	44835.30
607.82	44591.89
607.98	44858.71
608.13	44662.10
608.29	44975.73
608.44	44500.61
608.60	44329.75
608.75	44549.76
608.91	44711.25
609.06	44325.07
609.22	44858.71
609.37	44360.17
609.53	44610.61
609.68	44486.56
609.84	44952.33
609.99	44502.95
610.15	44486.56
610.30	44343.79
610.46	44392.94
610.61	44172.93
610.76	44533.37
610.92	44423.37
611.07	44133.14
611.23	44236.12
611.38	44765.09
611.54	44563.80
611.69	44219.74
611.84	44591.89
612.00	44449.11
612.15	44121.44
612.31	44350.81
612.46	44212.72
612.62	44725.30
612.77	44582.52
612.92	44987.44
613.08	44041.86
613.23	44481.88
613.39	44100.37
613.54	43856.96
613.69	44079.31
613.85	44079.31
614.00	44624.65
614.15	44385.92
614.31	44055.90
614.46	44765.09
614.62	43952.92
614.77	44170.59
614.92	44282.94
615.08	43723.55
615.23	43908.45
615.38	44025.48
615.54	44210.38
615.69	43744.61
615.84	43346.72
616.00	44208.04
616.15	43725.89
616.30	44322.72
616.46	43964.62
616.61	43599.50
616.76	43599.50
616.92	43332.68
617.07	43922.49
617.22	43562.05
617.37	43625.25
617.53	43728.23
617.68	43924.83
617.83	43796.10
617.99	43789.08
618.14	44030.16
618.29	43583.12
618.45	43533.96
618.60	43831.21
618.75	43634.61
618.90	43660.35
619.06	43461.41
619.21	43590.14
619.36	43643.97
619.51	43433.32
619.67	43381.83
619.82	43629.93
619.97	43908.45
620.12	43690.78
620.28	42862.23
620.43	42677.33
620.58	43129.05
620.73	43344.38
620.89	42953.51
621.04	43070.54
621.19	42918.40
621.34	43210.97
621.49	43342.04
621.65	42892.66
621.80	42913.72
621.95	43159.48
622.10	42911.38
622.25	42595.41
622.41	42724.14
622.56	43079.90
622.71	42981.60
622.86	43068.20
623.01	42693.71
623.16	43138.41
623.32	43152.46
623.47	43489.49
623.62	42904.36
623.77	42422.21
623.92	42834.14
624.07	42485.40
624.23	42747.54
624.38	42314.55
624.53	42817.76
624.68	42630.52
624.83	42682.01
624.98	42272.42
625.13	42108.58
625.29	42267.73
625.44	42260.71
625.59	42459.66
625.74	42478.38
625.89	42171.77
626.04	42005.59
626.19	42080.49
626.34	42665.63
626.49	42197.52
626.65	41918.99
626.80	42572.00
626.95	42190.50
627.10	42288.80
627.25	41659.20
627.40	41757.50
627.55	41965.81
627.70	41486.00
627.85	41776.22
628.00	41638.13
628.15	42064.11
628.30	42080.49
628.45	41752.82
628.60	41748.14
628.76	42265.39
628.91	41776.22
629.06	42185.82
629.21	41624.09
629.36	41642.81
629.51	41385.35
629.66	41422.80
629.81	41392.37
629.96	41858.14
630.11	41544.51
630.26	42029.00
630.41	41820.69
630.56	41373.65
630.71	41792.61
630.86	41354.93
631.01	41640.47
631.16	41654.51
631.31	41067.04
631.46	40996.82
631.61	41184.07
631.76	41310.46
631.91	41273.01
632.06	41799.63
632.21	41282.37
632.36	41635.79
632.51	41134.92
632.66	41153.64
632.81	41102.15
632.96	41132.57
633.10	40608.29
633.25	40790.86
633.40	40680.85
633.55	41053.00
633.70	40954.69
633.85	40940.65
634.00	41050.66
634.15	40957.03
634.30	40788.52
634.45	41460.25
634.60	40952.35
634.75	40926.61
634.90	40950.01
635.05	41074.06
635.19	40634.04
635.34	41174.70
635.49	40807.24
635.64	40474.88
635.79	40605.95
635.94	40313.39
636.09	40605.95
636.24	40142.53
636.39	40519.35
636.53	40561.48
636.68	40266.58
636.83	40201.04
636.98	40467.86
637.13	40107.42
637.28	40364.88
637.43	40767.45
637.57	40491.27
637.72	40165.93
637.87	40306.37
638.02	40182.32
638.17	40376.58
638.32	40025.50
638.46	40126.14
638.61	39875.71
638.76	39599.52
638.91	40020.82
639.06	40374.24
639.20	40360.20
639.35	40362.54
639.50	39667.40
639.65	40177.64
639.80	40079.33
639.94	39995.07
640.09	39697.83
640.24	39739.96
640.39	39613.57
640.54	39866.34
640.68	39922.52
640.83	39423.98
640.98	39636.97
641.13	39304.62
641.27	39791.45
641.42	39674.42
641.57	39983.37
641.72	39445.05
641.86	39487.18
642.01	39449.73
642.16	39672.08
642.31	38955.88
642.45	39590.16
642.60	39311.64
642.75	39154.82
642.90	38979.28
643.04	39452.07
643.19	39257.81
643.34	39358.45
643.48	39388.88
643.63	39220.36
643.78	38909.07
643.93	38930.13
644.07	39014.39
644.22	39466.11
644.37	38904.38
644.51	38583.73
644.66	38941.83
644.81	39489.52
644.95	38787.36
645.10	39044.82
645.25	39332.70
645.39	39466.11
645.54	39171.21
645.69	38768.63
645.83	38499.47
645.98	38731.18
646.13	39000.35
646.27	39070.56
646.42	38600.12
646.57	38710.12
646.71	38831.83
646.86	38873.96
647.00	39117.37
647.15	39065.88
647.30	38993.32
647.44	38965.24
647.59	38675.01
647.74	39096.31
647.88	38349.68
648.03	38478.41
648.17	38300.53
648.32	37904.98
648.47	38370.74
648.61	38511.17
648.76	38829.49
648.90	38698.42
649.05	38506.49
649.20	38469.04
649.34	38857.57
649.49	38234.99
649.63	38611.82
649.78	38288.82
649.92	38497.13
650.07	38333.29
650.21	37893.27
650.36	38412.87
650.51	38316.91
650.65	38686.71
650.80	38565.01
650.94	38424.57
651.09	37900.29
651.23	38176.48
651.38	38026.68
651.52	37783.27
651.67	38384.79
651.81	38082.86
651.96	37329.20
652.10	37645.18
652.25	37785.61
652.39	37626.45
652.54	37598.37
652.68	37736.46
652.83	37645.18
652.97	38146.05
653.12	38251.38
653.26	37530.49
653.41	37998.60
653.55	37235.58
653.70	37621.77
653.84	37469.64
653.99	37509.43
654.13	38075.84
654.27	37853.48
654.42	37331.54
654.56	37736.46
654.71	37368.99
654.85	37488.36
655.00	37446.23
655.14	37376.01
655.29	37263.67
655.43	37214.52
655.57	37221.54
655.72	37003.87
655.86	37015.57
656.01	37076.43
656.15	36774.50
656.30	36804.92
656.44	36807.26
656.58	36985.15
656.73	36814.29
656.87	36889.18
657.01	36608.32
657.16	36439.80
657.30	36856.42
657.45	36292.35
657.59	36847.05
657.73	36828.33
657.88	36825.99
658.02	36772.16
658.16	36964.08
658.31	36573.21
658.45	36720.66
658.60	36456.18
658.74	36671.51
658.88	36538.10
659.03	36512.36
659.17	36215.11
659.31	36339.16
659.46	36016.16
659.60	36161.28
659.74	36484.27
659.89	36421.08
660.03	35978.72
660.17	36287.67
660.32	36215.11
660.46	36294.69
660.60	36304.05
660.74	36112.13
660.89	36222.13
661.03	35709.55
661.17	35557.42
661.32	35618.27
661.46	35349.11
661.60	35484.86
661.74	35510.61
661.89	35868.71
662.03	35508.27
662.17	35833.60
662.31	35328.05
662.46	35744.66
662.60	35292.94
662.74	35419.33
662.88	35538.69
663.03	35168.89
663.17	35065.91
663.31	35339.75
663.45	34920.79
663.60	35271.87
663.74	34998.03
663.88	34845.90
664.02	35115.06
664.17	34937.18
664.31	34478.43
664.45	34679.72
664.59	34909.09
664.73	34756.96
664.88	34778.02
665.02	34309.91
665.16	34466.73
665.30	34572.05
665.44	34218.63
665.59	33780.95
665.73	33897.98
665.87	33668.61
666.01	34146.08
666.15	34054.79
666.29	33869.89
666.44	34307.57
666.58	34494.82
666.72	34087.56
666.86	34164.80
667.00	34359.06
667.14	33979.90
667.28	33607.75
667.43	33603.07
667.57	33544.56
667.71	33497.75
667.85	33635.84
667.99	33811.38
668.13	33280.08
668.27	33603.07
668.41	33560.94
668.56	33022.62
668.70	33415.83
668.84	33134.96
668.98	33289.44
669.12	33083.47
669.26	33322.21
669.40	32973.47
669.54	32924.32
669.68	33460.30
669.82	33102.20
669.96	32648.13
670.10	32730.05
670.25	33090.49
670.39	32858.78
670.53	32524.08
670.67	32416.42
670.81	32540.47
670.95	32868.14
671.09	32222.16
671.23	32767.50
671.37	32606.00
671.51	32116.83
671.65	31798.52
671.79	31758.73
671.93	32077.04
672.07	32163.64
672.21	32264.28
672.35	31749.37
672.49	31997.46
672.63	31990.44
672.77	31751.71
672.91	31552.76
673.05	31592.55
673.19	31470.84
673.33	31461.48
673.47	31042.53
673.61	31332.75
673.75	30902.09
673.89	31140.83
674.03	31197.00
674.17	31161.89
674.31	31014.44
674.45	31035.50
674.59	30462.07
674.73	31070.61
674.87	30719.53
675.01	30719.53
675.15	30958.27
675.29	30899.75
675.43	30637.61
675.56	30546.33
675.70	30345.05
675.84	29902.68
675.98	29034.35
676.12	29881.62
676.26	30206.95
676.40	29542.24
676.54	29949.50
676.68	29944.81
676.82	29497.77
676.96	29715.44
677.10	29516.50
677.23	29563.31
677.37	29357.34
677.51	29734.17
677.65	28924.34
677.79	28879.87
677.93	29046.05
678.07	29125.63
678.21	28477.30
678.34	28620.07
678.48	28414.10
678.62	28369.63
678.76	28552.20
678.90	28453.89
679.04	28329.84
679.18	28016.21
679.31	27772.80
679.45	27882.80
679.59	27861.74
679.73	27920.25
679.87	27946.00
680.00	27601.94
680.14	27700.24
680.28	27274.26
680.42	27370.22
680.56	27494.27
680.70	26993.40
680.83	26904.46
680.97	27147.87
681.11	27065.96
681.25	26958.29
681.39	26920.84
681.52	26810.84
681.66	26717.22
681.80	26487.84
681.94	26567.42
682.07	26520.61
682.21	26253.79
682.35	25912.07
682.49	26316.98
682.62	26169.53
682.76	26377.84
682.90	26078.25
683.04	26185.91
683.17	26015.05
683.31	25834.83
683.45	26120.38
683.59	25287.15
683.72	25310.55
683.86	25266.08
684.00	24900.96
684.13	25326.94
684.27	25469.71
684.41	25099.90
684.55	24725.42
684.68	24861.17
684.82	24987.56
684.96	24587.33
685.09	24596.69
685.23	24645.84
685.37	24521.79
685.50	24407.11
685.64	24465.62
685.78	24187.10
685.91	24364.98
686.05	23924.96
686.19	23606.64
686.32	23845.38
686.46	23592.60
686.60	23351.52
686.73	23510.68
686.87	23573.88
687.01	23690.90
687.14	23482.59
687.28	22780.43
687.42	22998.10
687.55	22974.70
687.69	22712.56
687.82	22801.50
687.96	23410.04
688.10	22768.73
688.23	22558.08
688.37	22398.93
688.50	22312.33
688.64	22288.92
688.78	22375.52
688.91	21937.84
689.05	22335.73
689.18	22085.30
689.32	21961.25
689.46	21865.28
689.59	22012.74
689.73	21928.48
689.86	21465.05
690.00	21656.98
690.13	21792.73
690.27	21439.31
690.41	21352.71
690.54	21263.77
690.68	21088.23
690.81	21174.83
690.95	20800.34
691.08	20924.39
691.22	20531.18
691.35	21123.33
691.49	20723.10
691.62	21057.80
691.76	20833.11
691.89	20821.41
692.03	20460.96
692.16	20264.36
692.30	19908.60
692.43	20416.49
692.57	19866.47
692.70	19908.60
692.84	20081.80
692.97	19667.52
693.11	19660.50
693.24	19740.08
693.38	19557.52
693.51	19468.58
693.65	19435.81
693.78	19583.26
693.92	19477.94
694.05	19583.26
694.19	19140.90
694.32	19115.16
694.45	19150.26
694.59	19037.92
694.72	19166.65
694.86	18902.17
694.99	18721.95
695.13	18494.91
695.26	18382.57
695.39	18171.92
695.53	18361.50
695.66	18476.19
695.80	18363.84
695.93	18054.89
696.07	18216.39
696.20	17776.37
696.33	17909.78
696.47	18113.41
696.60	18328.74
696.73	17757.64
696.87	17556.36
697.00	17818.50
697.14	17598.49
697.27	17568.06
697.40	17734.24
697.54	17341.03
697.67	17275.49
697.80	17397.20
697.94	16987.61
698.07	16851.86
698.21	17085.91
698.34	17011.01
698.47	16889.31
698.61	16681.00
698.74	16638.87
698.87	16547.59
699.01	16343.96
699.14	16444.60
699.27	16510.14
699.40	16297.15
699.54	16313.53
699.67	16283.11
699.80	16074.80
699.94	15847.77
700.07	16306.51
700.20	15716.70
700.34	15798.62
700.47	15815.00
700.60	15728.40
700.73	15637.12
700.87	15695.63
701.00	15520.09
701.13	15536.48
701.26	15489.67
701.40	15667.55
701.53	15272.00
701.66	14876.44
701.79	15098.80
701.93	14801.55
702.06	14707.93
702.19	14726.65
702.32	14949.00
702.46	14757.08
702.59	15009.86
702.72	14787.50
702.85	14677.50
702.99	14572.18
703.12	14684.52
703.25	14387.27
703.38	14455.15
703.51	14303.01
703.65	14457.49
703.78	14260.88
703.91	14031.51
704.04	14083.00
704.17	13795.12
704.31	14010.45
704.44	13397.23
704.57	13621.92
704.70	13509.57
704.83	13881.72
704.96	13783.41
705.10	13762.35
705.23	13830.23
>>>>>End Processed Spectral Data<<<<<
