SpectraSuite Data File
++++++++++++++++++++++++++++++++++++
Date: Fri Oct 25 10:43:35 EDT 2013
User: price-jones
Dark Spectrum Present: No
Reference Spectrum Present: No
Number of Sampled Component Spectra: 1
Spectrometers: USB2+H05261
Integration Time (usec): 100000 (USB2+H05261)
Spectra Averaged: 1 (USB2+H05261)
Boxcar Smoothing: 0 (USB2+H05261)
Correct for Electrical Dark: No (USB2+H05261)
Strobe/Lamp Enabled: No (USB2+H05261)
Correct for Detector Non-linearity: No (USB2+H05261)
Correct for Stray Light: No (USB2+H05261)
Number of Pixels in Processed Spectrum: 2048
>>>>>Begin Processed Spectral Data<<<<<
365.73	121.71
365.92	121.71
366.12	121.71
366.32	0.00
366.52	0.00
366.72	72.56
366.91	11.70
367.11	0.00
367.31	0.00
367.51	44.47
367.70	25.75
367.90	16.38
368.10	23.41
368.30	16.38
368.49	0.00
368.69	51.49
368.89	70.22
369.09	0.00
369.28	42.13
369.48	39.79
369.68	46.81
369.87	67.88
370.07	46.81
370.27	142.77
370.47	131.07
370.66	416.62
370.86	390.87
371.06	489.17
371.25	456.40
371.45	482.15
371.65	493.85
371.84	423.64
372.04	456.40
372.24	489.17
372.44	496.19
372.63	468.11
372.83	500.87
373.03	507.90
373.22	566.41
373.42	458.74
373.62	512.58
373.81	538.32
374.01	512.58
374.21	627.26
374.40	538.32
374.60	575.77
374.79	489.17
374.99	573.43
375.19	552.37
375.38	657.69
375.58	571.09
375.78	596.84
375.97	645.99
376.17	678.76
376.37	662.37
376.56	594.50
376.76	587.47
376.95	564.07
377.15	617.90
377.35	692.80
377.54	692.80
377.74	601.52
377.93	660.03
378.13	655.35
378.33	638.97
378.52	702.16
378.72	648.33
378.91	681.10
379.11	608.54
379.31	622.58
379.50	594.50
379.70	688.12
379.89	674.07
380.09	650.67
380.28	753.65
380.48	709.18
380.68	692.80
380.87	697.48
381.07	674.07
381.26	669.39
381.46	732.59
381.65	727.91
381.85	692.80
382.04	763.01
382.24	727.91
382.43	704.50
382.63	760.67
382.83	753.65
383.02	755.99
383.22	763.01
383.41	674.07
383.61	826.21
383.80	763.01
384.00	774.72
384.19	809.83
384.39	821.53
384.58	800.46
384.78	880.04
384.97	807.48
385.17	863.66
385.36	814.51
385.56	786.42
385.75	709.18
385.95	807.48
386.14	800.46
386.34	791.10
386.53	875.36
386.72	842.59
386.92	887.06
387.11	842.59
387.31	858.98
387.50	1015.79
387.70	887.06
387.89	964.30
388.09	933.87
388.28	940.90
388.48	926.85
388.67	971.32
388.86	891.74
389.06	933.87
389.25	952.60
389.45	1078.99
389.64	1036.86
389.84	1004.09
390.03	1046.22
390.22	866.00
390.42	1006.43
390.61	1036.86
390.81	1076.65
391.00	1029.84
391.19	1034.52
391.39	997.07
391.58	1097.71
391.78	1086.01
391.97	1039.20
392.16	1097.71
392.36	1067.28
392.55	959.62
392.75	1025.15
392.94	1018.13
393.13	1001.75
393.33	1050.90
393.52	1046.22
393.71	1146.86
393.91	1135.16
394.10	1172.61
394.29	1203.04
394.49	1128.14
394.68	1146.86
394.88	1233.46
395.07	1341.13
395.26	1247.51
395.46	1198.35
395.65	1336.45
395.84	1219.42
396.04	1284.95
396.23	1181.97
396.42	1121.12
396.62	1186.65
396.81	1198.35
397.00	1334.11
397.19	1212.40
397.39	1315.38
397.58	1420.71
397.77	1392.62
397.97	1409.00
398.16	1446.45
398.35	1561.14
398.55	1404.32
398.74	1507.30
398.93	1565.82
399.12	1448.79
399.32	1497.94
399.51	1502.62
399.70	1570.50
399.90	1596.25
400.09	1666.46
400.28	1668.80
400.47	1577.52
400.67	1689.87
400.86	1771.79
401.05	1757.74
401.24	1664.12
401.44	1811.57
401.63	1739.02
401.82	1785.83
402.01	1764.76
402.21	1837.32
402.40	1797.53
402.59	1797.53
402.78	1717.95
402.97	1778.81
403.17	1863.07
403.36	1790.51
403.55	1753.06
403.74	1905.20
403.93	1930.94
404.13	1947.33
404.32	1963.71
404.51	1827.96
404.70	2111.16
404.89	1867.75
405.09	1987.11
405.28	1952.01
405.47	1961.37
405.66	1984.77
405.85	2031.58
406.05	1947.33
406.24	2017.54
406.43	2029.24
406.62	1977.75
406.81	2176.70
407.00	2111.16
407.20	2101.80
407.39	2207.13
407.58	2160.31
407.77	2239.89
407.96	2258.62
408.15	2251.60
408.34	2258.62
408.54	2359.26
408.73	2293.72
408.92	2207.13
409.11	2377.98
409.30	2345.22
409.49	2333.51
409.68	2230.53
409.87	2282.02
410.07	2298.41
410.26	2443.52
410.45	2429.48
410.64	2532.46
410.83	2537.14
411.02	2569.91
411.21	2686.94
411.40	2555.86
411.59	2614.38
411.78	2708.00
411.98	2654.17
412.17	2621.40
412.36	2579.27
412.55	2726.72
412.74	2841.41
412.93	2759.49
413.12	2684.59
413.31	2970.14
413.50	2839.07
413.69	2958.44
413.88	3014.61
414.07	2860.13
414.26	2993.55
414.45	3047.38
414.64	3035.67
414.83	3075.46
415.02	3199.51
415.22	3199.51
415.41	3185.47
415.60	3295.47
415.79	3332.92
415.98	3382.07
416.17	3295.47
416.36	3337.60
416.55	3370.37
416.74	3323.56
416.93	3323.56
417.12	3342.28
417.31	3335.26
417.50	3473.36
417.69	3564.64
417.88	3545.91
418.07	3356.33
418.26	3503.78
418.45	3531.87
418.64	3674.64
418.83	3709.75
419.02	3592.72
419.21	3616.13
419.39	3728.47
419.58	3595.06
419.77	3646.55
419.96	3714.43
420.15	3801.03
420.34	3684.00
420.53	3765.92
420.72	3810.39
420.91	3904.01
421.10	3964.87
421.29	3904.01
421.48	3955.51
421.67	3918.06
421.86	3861.88
422.05	3934.44
422.24	3822.09
422.43	4032.74
422.61	3927.42
422.80	4016.36
422.99	4009.34
423.18	4161.47
423.37	4028.06
423.56	4035.08
423.75	4046.79
423.94	3866.56
424.13	3880.61
424.32	3967.21
424.50	3971.89
424.69	4025.72
424.88	4025.72
425.07	4053.81
425.26	3992.95
425.45	4051.47
425.64	4046.79
425.83	4093.60
426.01	4053.81
426.20	4021.04
426.39	4095.94
426.58	4119.34
426.77	3962.53
426.96	3967.21
427.15	4021.04
427.33	4070.19
427.52	4126.36
427.71	4112.32
427.90	4367.44
428.09	4329.99
428.28	4198.92
428.46	4147.43
428.65	4121.68
428.84	4348.72
429.03	4269.14
429.22	4056.15
429.40	4231.69
429.59	4070.19
429.78	3953.16
429.97	3918.06
430.16	3913.38
430.34	4156.79
430.53	4241.05
430.72	4287.86
430.91	4451.70
431.10	4489.15
431.28	4550.00
431.47	4664.69
431.66	4737.24
431.85	4753.63
432.03	4585.11
432.22	4840.23
432.41	4765.33
432.60	4863.63
432.79	4835.55
432.97	4798.10
433.16	4887.04
433.35	4828.53
433.54	4751.29
433.72	4842.57
433.91	4746.61
434.10	4868.31
434.28	4922.15
434.47	4781.71
434.66	4950.23
434.85	5132.79
435.03	5067.26
435.22	5181.95
435.41	5348.12
435.59	5160.88
435.78	5308.34
435.97	5139.82
436.16	5331.74
436.34	5284.93
436.53	5235.78
436.72	5366.85
436.90	5184.29
437.09	5231.10
437.28	5200.67
437.46	5291.95
437.65	5315.36
437.84	5324.72
438.02	5195.99
438.21	5303.65
438.40	5149.18
438.58	5291.95
438.77	5465.15
438.96	5481.53
439.14	5628.99
439.33	5724.95
439.52	5881.77
439.70	5785.80
439.89	5860.70
440.08	5785.80
440.26	5706.23
440.45	5895.81
440.63	5919.21
440.82	6183.70
441.01	6176.67
441.19	6029.22
441.38	6162.63
441.57	6289.02
441.75	6352.21
441.94	6448.18
442.12	6300.72
442.31	6520.73
442.50	6658.82
442.68	6394.34
442.87	6513.71
443.05	6436.47
443.24	6588.61
443.43	6548.82
443.61	6523.07
443.80	6686.91
443.98	6810.96
444.17	6356.90
444.35	6668.19
444.54	6635.42
444.73	6635.42
444.91	6614.35
445.10	6520.73
445.28	6628.40
445.47	6548.82
445.65	6263.27
445.84	6686.91
446.02	6642.44
446.21	6420.09
446.39	6810.96
446.58	6689.25
446.77	6710.32
446.95	6663.51
447.14	6736.06
447.32	6836.70
447.51	6822.66
447.69	6773.51
447.88	6888.20
448.06	6719.68
448.25	6700.95
448.43	6918.62
448.62	6918.62
448.80	6761.81
448.99	6930.33
449.17	6930.33
449.36	6944.37
449.54	7037.99
449.73	7269.70
449.91	7260.34
450.10	7204.17
450.28	7365.67
450.46	7140.97
450.65	7424.18
450.83	7349.28
451.02	7314.17
451.20	7492.05
451.39	7421.84
451.57	7370.35
451.76	7410.14
451.94	7316.51
452.13	7396.09
452.31	7248.64
452.49	7215.87
452.68	7328.22
452.86	7288.43
453.05	7555.25
453.23	7382.05
453.42	7375.03
453.60	7337.58
453.78	7529.50
453.97	7396.09
454.15	7389.07
454.34	7630.15
454.52	7733.13
454.70	7569.29
454.89	7768.24
455.07	7702.70
455.26	7721.43
455.44	7852.50
455.62	7836.11
455.81	7962.50
455.99	7896.97
456.17	7707.38
456.36	7967.18
456.54	8079.53
456.73	8084.21
456.91	8250.39
457.09	8489.12
457.28	8477.42
457.46	8336.99
457.64	8287.84
457.83	8446.99
458.01	8238.69
458.19	8446.99
458.38	8383.80
458.56	8484.44
458.74	8257.41
458.93	8411.89
459.11	8477.42
459.29	8346.35
459.48	8496.14
459.66	8517.21
459.84	8538.27
460.03	8678.71
460.21	8784.03
460.39	8718.50
460.57	8491.46
460.76	8629.56
460.94	8821.48
461.12	8823.82
461.31	8870.63
461.49	8938.51
461.67	8821.48
461.85	9001.70
462.04	9057.87
462.22	9621.94
462.40	9121.07
462.59	8903.40
462.77	9071.92
462.95	9095.32
463.13	9163.20
463.32	9217.03
463.50	9153.84
463.68	9160.86
463.86	9111.71
464.05	9064.89
464.23	9018.08
464.41	9076.60
464.59	9074.26
464.78	9228.73
464.96	9158.52
465.14	9268.52
465.32	9282.56
465.50	9462.79
465.69	9455.76
465.87	9385.55
466.05	9432.36
466.23	9366.82
466.41	9338.74
466.60	9717.90
466.78	9214.69
466.96	9376.19
467.14	9607.90
467.32	9628.96
467.51	9703.86
467.69	9329.38
467.87	9708.54
468.05	9802.16
468.23	9600.88
468.41	9792.80
468.60	9762.37
468.78	9928.55
468.96	9584.49
469.14	9902.81
469.32	9837.27
469.50	9628.96
469.69	9834.93
469.87	9940.26
470.05	9907.49
470.23	10097.07
470.41	9888.76
470.59	10099.41
470.77	10076.01
470.95	9895.78
471.14	10120.48
471.32	10085.37
471.50	10310.06
471.68	10532.41
471.86	10420.06
472.04	10520.71
472.22	10721.99
472.40	10487.94
472.58	10429.43
472.77	10408.36
472.95	10761.78
473.13	10909.24
473.31	10883.49
473.49	10668.16
473.67	10703.27
473.85	10991.16
474.03	11049.67
474.21	11044.99
474.39	11262.66
474.57	11162.01
474.75	11375.00
474.93	11400.75
475.12	11232.23
475.30	11412.45
475.48	11440.54
475.66	11487.35
475.84	11485.01
476.02	11576.29
476.20	11590.33
476.38	11789.28
476.56	12002.27
476.74	11840.77
476.92	11880.56
477.10	12004.61
477.28	12292.49
477.46	12437.61
477.64	12374.41
477.82	12753.58
478.00	12706.77
478.18	12767.62
478.36	12933.80
478.54	13099.98
478.72	12788.69
478.90	12971.25
479.08	13584.47
479.26	13121.04
479.44	13432.33
479.62	13640.64
479.80	13666.39
479.98	13355.10
480.16	13811.50
480.34	14008.11
480.52	13900.44
480.70	13795.12
480.88	13816.18
481.06	14129.81
481.24	14281.95
481.41	14609.62
481.59	14377.91
481.77	14679.84
481.95	14597.92
482.13	14831.97
482.31	14853.04
482.49	15356.25
482.67	15126.88
482.85	15337.53
483.03	15452.22
483.21	15723.72
483.39	15707.34
483.57	15410.09
483.74	15440.51
483.92	15726.06
484.10	15873.51
484.28	16049.05
484.46	16128.63
484.64	16580.36
484.82	16166.08
485.00	16334.60
485.18	16725.47
485.35	16554.61
485.53	16435.24
485.71	16519.50
485.89	16695.04
486.07	16566.31
486.25	16716.11
486.43	17139.74
486.61	17106.98
486.78	17411.25
486.96	17266.13
487.14	18019.78
487.32	17956.59
487.50	18427.04
487.68	18321.71
487.85	18553.43
488.03	18677.48
488.21	18810.89
488.39	18576.83
488.57	19164.31
488.75	19190.05
488.92	19562.20
489.10	19782.21
489.28	19604.33
489.46	20149.67
489.64	20166.06
489.81	20577.99
489.99	20386.07
490.17	20760.55
490.35	20655.23
490.53	20709.06
490.70	20638.84
490.88	20807.36
491.06	20973.54
491.24	20987.58
491.41	21071.84
491.59	21167.80
491.77	20886.94
491.95	21341.00
492.13	21724.85
492.30	21774.00
492.48	22040.82
492.66	22164.87
492.84	22202.32
493.01	22616.60
493.19	22441.06
493.37	22422.33
493.54	22553.40
493.72	22672.77
493.90	23026.19
494.08	23374.93
494.25	23328.12
494.43	23611.32
494.61	23517.70
494.79	24020.92
494.96	23618.35
495.14	24119.22
495.32	23573.88
495.49	24182.42
495.67	24343.91
495.85	24044.32
496.02	24599.03
496.20	24629.46
496.38	24718.40
496.55	24713.72
496.73	25270.76
496.91	24912.66
497.09	25282.47
497.26	25474.39
497.44	25355.02
497.62	25425.24
497.79	25741.21
497.97	25326.94
498.14	25727.17
498.32	26204.64
498.50	26171.87
498.67	26192.94
498.85	26125.06
499.03	26707.85
499.20	26740.62
499.38	26691.47
499.56	26787.43
499.73	26864.67
499.91	26998.08
500.08	27119.79
500.26	26808.50
500.44	26867.01
500.61	26843.60
500.79	26883.39
500.97	27171.28
501.14	27545.76
501.32	27412.35
501.49	27201.71
501.67	27283.62
501.84	27700.24
502.02	28011.53
502.20	27955.36
502.37	28217.50
502.55	28058.34
502.72	28315.80
502.90	28804.97
503.07	28774.55
503.25	28620.07
503.43	27718.96
503.60	28503.04
503.78	28371.97
503.95	28687.95
504.13	28716.03
504.30	28950.09
504.48	28725.39
504.65	29282.44
504.83	29511.81
505.01	29792.68
505.18	29593.73
505.36	29619.48
505.53	30169.51
505.71	30005.67
505.88	30155.46
506.06	29722.46
506.23	29851.19
506.41	29818.42
506.58	30253.76
506.76	30314.62
506.93	30738.26
507.11	30295.89
507.28	30455.05
507.46	30127.38
507.63	30511.22
507.81	30677.40
507.98	30307.60
508.16	30553.35
508.33	30787.41
508.50	31016.78
508.68	31307.01
508.85	31627.66
509.03	31356.16
509.20	31232.11
509.38	31477.86
509.55	31461.48
509.73	31531.70
509.90	31885.12
510.08	31784.48
510.25	31793.84
510.42	31880.44
510.60	32072.36
510.77	31847.67
510.95	32460.89
511.12	32505.36
511.30	32496.00
511.47	32652.81
511.64	32397.70
511.82	32861.12
511.99	32566.21
512.17	32648.13
512.34	32032.57
512.51	32603.66
512.69	32521.74
512.86	32870.48
513.04	32980.49
513.21	33352.63
513.38	32870.48
513.56	33331.57
513.73	33230.93
513.90	33640.52
514.08	33905.00
514.25	33404.13
514.43	33469.66
514.60	33631.16
514.77	33675.63
514.95	33759.89
515.12	33862.87
515.29	34036.07
515.47	34377.79
515.64	34373.11
515.81	34132.03
515.99	34082.88
516.16	34092.24
516.33	33893.30
516.51	33977.56
516.68	33738.82
516.85	33537.54
517.03	33986.92
517.20	34480.77
517.37	34642.27
517.54	34951.22
517.72	34473.75
517.89	34146.08
518.06	34625.89
518.24	34237.36
518.41	34593.12
518.58	34878.66
518.75	34780.36
518.93	34923.13
519.10	35454.44
519.27	35161.87
519.45	35379.54
519.62	35807.86
519.79	35735.30
519.96	35768.07
520.14	35805.52
520.31	35487.20
520.48	36027.87
520.65	35786.79
520.83	36367.24
521.00	36147.23
521.17	35967.01
521.34	36605.98
521.52	36339.16
521.69	36561.51
521.86	36818.97
522.03	36575.55
522.20	36620.02
522.38	36362.56
522.55	36552.15
522.72	36928.97
522.89	36584.91
523.07	36945.36
523.24	36835.35
523.41	37406.44
523.58	37153.66
523.75	37881.57
523.92	37429.85
524.10	37481.34
524.27	37572.62
524.44	38029.02
524.61	37769.22
524.78	38000.94
524.96	37886.25
525.13	37832.42
525.30	37998.60
525.47	38141.37
525.64	38036.05
525.81	38265.42
525.98	37970.51
526.16	38040.73
526.33	37731.78
526.50	37970.51
526.67	37666.24
526.84	37628.79
527.01	37584.32
527.18	38281.80
527.36	38349.68
527.53	38667.99
527.70	38710.12
527.87	39145.46
528.04	38330.95
528.21	38714.80
528.38	38759.27
528.55	39035.45
528.72	39243.76
528.89	39445.05
529.07	38639.90
529.24	39337.38
529.41	39152.48
529.58	39122.05
529.75	39164.18
529.92	39339.72
530.09	39313.98
530.26	39988.05
530.43	39435.69
530.60	39384.19
530.77	39489.52
530.94	39962.31
531.11	39702.51
531.28	39651.02
531.46	39828.90
531.63	39896.77
531.80	39910.82
531.97	39812.51
532.14	39697.83
532.31	39555.05
532.48	39592.50
532.65	39880.39
532.82	39833.58
532.99	40222.11
533.16	39777.40
533.33	40219.77
533.50	40521.69
533.67	40465.52
533.84	40472.54
534.01	40545.10
534.18	40671.49
534.35	40896.18
534.52	40229.13
534.69	40954.69
534.86	41111.51
535.03	40863.41
535.20	41057.68
535.37	41338.54
535.54	41130.23
535.71	41029.59
535.88	40847.03
536.05	41120.87
536.22	41265.99
536.38	40772.13
536.55	40835.33
536.72	41116.19
536.89	40570.85
537.06	40793.20
537.23	41261.30
537.40	41071.72
537.57	41053.00
537.74	41317.48
537.91	41951.76
538.08	41495.36
538.25	41146.62
538.42	41918.99
538.59	41574.94
538.75	41610.04
538.92	41928.36
539.09	41759.84
539.26	41874.52
539.43	41799.63
539.60	41614.72
539.77	41322.16
539.94	41818.35
540.11	41621.75
540.28	41745.80
540.44	42019.64
540.61	41771.54
540.78	41837.08
540.95	42190.50
541.12	41773.88
541.29	42185.82
541.46	42335.61
541.62	42270.08
541.79	42438.59
541.96	41729.41
542.13	42197.52
542.30	42293.48
542.47	42377.74
542.63	41935.38
542.80	42405.83
542.97	42817.76
543.14	43185.22
543.31	42944.15
543.48	42859.89
543.64	43180.54
543.81	43243.74
543.98	43175.86
544.15	43072.88
544.32	43461.41
544.48	43438.00
544.65	42934.79
544.82	43573.75
544.99	42997.98
545.16	43229.69
545.32	42962.87
545.49	43423.96
545.66	43524.60
545.83	43241.40
546.00	43730.57
546.16	43419.28
546.33	43438.00
546.50	43409.92
546.67	43847.60
546.83	43309.27
547.00	43398.21
547.17	43679.08
547.34	43510.56
547.50	43686.10
547.67	43854.62
547.84	43798.44
548.00	44240.81
548.17	44135.48
548.34	44048.88
548.51	44531.03
548.67	44339.11
548.84	44212.72
549.01	44076.97
549.18	44105.06
549.34	44392.94
549.51	43545.67
549.68	44304.00
549.84	44121.44
550.01	44596.57
550.18	44502.95
550.34	44011.43
550.51	44011.43
550.68	44222.08
550.84	43658.01
551.01	44442.09
551.18	44165.91
551.34	44444.43
551.51	44596.57
551.68	44753.38
551.84	44832.96
552.01	44325.07
552.18	44287.62
552.34	44322.72
552.51	44421.03
552.68	44470.18
552.84	44648.06
553.01	45050.63
553.18	44388.26
553.34	44718.28
553.51	44526.35
553.67	44877.43
553.84	44989.78
554.01	45352.56
554.17	45212.13
554.34	45422.78
554.51	45123.19
554.67	45312.77
554.84	44945.31
555.00	44903.18
555.17	44875.09
555.33	45052.97
555.50	45357.24
555.67	44942.97
555.83	45214.47
556.00	45010.84
556.16	45600.66
556.33	45095.10
556.50	45488.31
556.66	45153.62
556.83	44729.98
556.99	45081.06
557.16	45439.16
557.32	45298.73
557.49	45638.11
557.65	45418.10
557.82	45263.62
557.98	45689.60
558.15	45003.82
558.32	45769.18
558.48	44577.84
558.65	45460.23
558.81	45354.90
558.98	44964.03
559.14	45436.82
559.31	45092.76
559.47	45434.48
559.64	45626.40
559.80	45570.23
559.97	45441.50
560.13	44769.77
560.30	45422.78
560.46	45619.38
560.63	46066.42
560.79	45883.86
560.96	45808.96
561.12	45806.62
561.29	45511.72
561.45	45689.60
561.61	45858.12
561.78	45787.90
561.94	45434.48
562.11	45462.57
562.27	45687.26
562.44	45694.28
562.60	45757.47
562.77	45834.71
562.93	45954.08
563.10	46099.19
563.26	45319.79
563.42	45797.26
563.59	45544.48
563.75	45708.32
563.92	45771.52
564.08	45801.94
564.24	46160.05
564.41	46525.17
564.57	45792.58
564.74	45588.95
564.90	45530.44
565.07	45818.33
565.23	46263.03
565.39	45675.55
565.56	45441.50
565.72	45439.16
565.88	45911.95
566.05	45532.78
566.21	45745.77
566.38	45848.75
566.54	46078.13
566.70	46176.43
566.87	46298.14
567.03	45467.25
567.19	46691.35
567.36	46169.41
567.52	46050.04
567.68	46122.60
567.85	46064.08
568.01	46019.61
568.17	46099.19
568.34	46206.86
568.50	45652.15
568.66	46169.41
568.83	46312.18
568.99	45584.27
569.15	46021.95
569.32	46146.00
569.48	45776.20
569.64	46527.51
569.81	46171.75
569.97	45907.27
570.13	46410.48
570.30	45925.99
570.46	45656.83
570.62	45191.06
570.78	45682.58
570.95	45977.48
571.11	45893.22
571.27	45619.38
571.43	46031.32
571.60	45965.78
571.76	46094.51
571.92	46218.56
572.09	46256.01
572.25	45942.38
572.41	46239.62
572.57	46405.80
572.74	46724.11
572.90	46567.30
573.06	46473.68
573.22	46681.98
573.38	46555.60
573.55	46321.54
573.71	46497.08
573.87	46536.87
574.03	45848.75
574.20	46148.34
574.36	45811.31
574.52	46419.84
574.68	46349.63
574.84	46288.77
575.01	45937.69
575.17	46129.62
575.33	46064.08
575.49	46258.35
575.65	46480.70
575.82	46478.36
575.98	45904.93
576.14	46012.59
576.30	46651.56
576.46	46731.14
576.62	46424.53
576.79	45811.31
576.95	46075.79
577.11	46370.69
577.27	45911.95
577.43	46277.07
577.59	45790.24
577.75	46061.74
577.92	45914.29
578.08	45783.22
578.24	45942.38
578.40	45897.91
578.56	46412.82
578.72	46356.65
578.88	46256.01
579.04	46237.28
579.21	46377.72
579.37	46443.25
579.53	46155.36
579.69	46021.95
579.85	46382.40
580.01	46501.76
580.17	46618.79
580.33	46344.95
580.49	46356.65
580.65	46351.97
580.82	46291.12
580.98	46211.54
581.14	45523.42
581.30	46522.83
581.46	46429.21
581.62	46522.83
581.78	46384.74
581.94	46506.44
582.10	46326.22
582.26	46494.74
582.42	46508.79
582.58	46761.56
582.74	46459.63
582.90	46384.74
583.06	46890.29
583.22	46314.52
583.38	46873.91
583.54	46361.33
583.70	46426.87
583.86	46265.37
584.02	45748.11
584.18	46422.19
584.34	46529.85
584.50	46513.47
584.66	46082.81
584.82	46080.47
584.98	46799.01
585.14	46167.07
585.30	46258.35
585.46	46239.62
585.62	45890.88
585.78	46316.86
585.94	46103.87
586.10	45998.55
586.26	45773.86
586.42	46043.02
586.58	46827.10
586.74	46492.40
586.90	46492.40
587.06	46422.19
587.22	46153.02
587.38	46384.74
587.54	46347.29
587.70	46885.61
587.86	46567.30
588.02	46270.05
588.18	46267.71
588.34	46108.55
588.49	45577.25
588.65	45902.59
588.81	45879.18
588.97	46021.95
589.13	46082.81
589.29	46286.43
589.45	46218.56
589.61	46134.30
589.77	46869.23
589.93	46499.42
590.08	46571.98
590.24	46852.84
590.40	46784.97
590.56	46822.42
590.72	46817.74
590.88	46426.87
591.04	46494.74
591.20	46841.14
591.35	46562.62
591.51	46829.44
591.67	46466.66
591.83	46417.50
591.99	46021.95
592.15	46340.27
592.31	46469.00
592.46	46625.81
592.62	46534.53
592.78	46562.62
592.94	46642.20
593.10	46302.82
593.26	46820.08
593.41	46728.80
593.57	46162.39
593.73	46354.31
593.89	46550.91
594.05	46321.54
594.20	46415.16
594.36	46656.24
594.52	46918.38
594.68	46391.76
594.84	46150.68
594.99	46815.40
595.15	46658.58
595.31	46916.04
595.47	46717.09
595.62	46663.26
595.78	46117.92
595.94	46756.88
596.10	46974.55
596.25	46857.52
596.41	46548.57
596.57	46878.59
596.73	46756.88
596.88	45975.14
597.04	46593.04
597.20	46461.97
597.36	46391.76
597.51	46787.31
597.67	46419.84
597.83	46298.14
597.99	46469.00
598.14	46241.96
598.30	46094.51
598.46	46263.03
598.61	46742.84
598.77	46085.15
598.93	46256.01
599.09	46712.41
599.24	46780.29
599.40	46405.80
599.56	46780.29
599.71	46483.04
599.87	46852.84
600.03	46813.05
600.18	46791.99
600.34	46649.22
600.50	46663.26
600.65	46136.64
600.81	46700.71
600.97	46504.10
601.12	46836.46
601.28	46471.34
601.44	46288.77
601.59	46094.51
601.75	46555.60
601.91	46541.55
602.06	45893.22
602.22	46424.53
602.37	46522.83
602.53	46609.43
602.69	46766.24
602.84	46382.40
603.00	46454.95
603.16	46579.00
603.31	46656.24
603.47	46623.47
603.62	46050.04
603.78	46564.96
603.94	46742.84
604.09	46703.05
604.25	46457.29
604.40	46588.36
604.56	46611.77
604.71	46234.94
604.87	46532.19
605.03	46511.13
605.18	46136.64
605.34	46323.88
605.49	46141.32
605.65	46197.49
605.80	46309.84
605.96	46171.75
606.12	46295.80
606.27	46501.76
606.43	45937.69
606.58	46656.24
606.74	46583.68
606.89	46038.34
607.05	46206.86
607.20	46712.41
607.36	46401.12
607.51	46246.65
607.67	46445.59
607.82	46546.23
607.98	46155.36
608.13	46436.23
608.29	45991.53
608.44	45766.84
608.60	45970.46
608.75	46190.47
608.91	45853.44
609.06	45808.96
609.22	46253.67
609.37	45492.99
609.53	46061.74
609.68	46028.98
609.84	46342.61
609.99	45925.99
610.15	45532.78
610.30	45705.98
610.46	45343.20
610.61	45860.46
610.76	46349.63
610.92	45947.06
611.07	45801.94
611.23	46080.47
611.38	46054.72
611.54	45736.41
611.69	45425.12
611.84	45415.76
612.00	45240.21
612.15	45914.29
612.31	45815.99
612.46	45371.28
612.62	45621.72
612.77	45624.06
612.92	46043.02
613.08	45507.04
613.23	45759.81
613.39	44910.20
613.54	45467.25
613.69	45535.12
613.85	45448.52
614.00	45401.71
614.15	44842.32
614.31	45322.13
614.46	45425.12
614.62	45780.88
614.77	45214.47
614.92	45162.98
615.08	45357.24
615.23	45034.25
615.38	45148.93
615.54	45265.96
615.69	45020.20
615.84	44935.95
616.00	45205.11
616.15	45535.12
616.30	45682.58
616.46	45139.57
616.61	44680.83
616.76	45132.55
616.92	44645.72
617.07	45099.78
617.22	44711.25
617.37	44985.10
617.53	45134.89
617.68	44994.46
617.83	44783.81
617.99	44657.42
618.14	44945.31
618.29	44774.45
618.45	44582.52
618.60	44514.65
618.75	44306.34
618.90	44629.34
619.06	44437.41
619.21	44404.64
619.36	44589.55
619.51	44619.97
619.67	44189.31
619.82	44203.36
619.97	44470.18
620.12	44060.58
620.28	44051.22
620.43	44381.24
620.58	44514.65
620.73	44151.87
620.89	44289.96
621.04	44341.45
621.19	44617.63
621.34	44388.26
621.49	44575.50
621.65	44116.76
621.80	44666.78
621.95	43840.57
622.10	44189.31
622.25	44294.64
622.41	44065.27
622.56	43800.79
622.71	44018.46
622.86	43641.63
623.01	43854.62
623.16	44025.48
623.32	43976.33
623.47	43828.87
623.62	43746.95
623.77	43625.25
623.92	44051.22
624.07	43625.25
624.23	43164.16
624.38	43749.29
624.53	43627.59
624.68	43768.02
624.83	43648.65
624.98	43625.25
625.13	43349.06
625.29	43440.34
625.44	43236.72
625.59	43110.33
625.74	43129.05
625.89	42988.62
626.04	43323.32
626.19	43150.12
626.34	43285.87
626.49	43229.69
626.65	42906.70
626.80	43297.57
626.95	42761.59
627.10	42899.68
627.25	43456.73
627.40	42539.24
627.55	42663.28
627.70	42862.23
627.85	43028.41
628.00	42918.40
628.15	42651.58
628.30	42560.30
628.45	43096.28
628.60	42803.72
628.76	43189.91
628.91	42806.06
629.06	42330.93
629.21	42653.92
629.36	42766.27
629.51	42298.16
629.66	42508.81
629.81	42541.58
629.96	42356.67
630.11	42796.70
630.26	42880.95
630.41	42960.53
630.56	42389.44
630.71	42176.45
630.86	42562.64
631.01	42396.46
631.16	41886.23
631.31	42211.56
631.46	41537.49
631.61	41940.06
631.76	42272.42
631.91	42321.57
632.06	42431.57
632.21	42148.37
632.36	42440.93
632.51	41542.17
632.66	42148.37
632.81	41659.20
632.96	41968.15
633.10	41942.40
633.25	42096.88
633.40	42487.74
633.55	41790.27
633.70	41897.93
633.85	41624.09
634.00	42216.24
634.15	42075.81
634.30	41570.25
634.45	42094.53
634.60	41918.99
634.75	41724.73
634.90	41088.10
635.05	41888.57
635.19	41591.32
635.34	42052.41
635.49	41258.96
635.64	41750.48
635.79	41837.08
635.94	41432.16
636.09	41132.57
636.24	41226.20
636.39	40985.12
636.53	41394.71
636.68	40996.82
636.83	41244.92
636.98	41284.71
637.13	41280.03
637.28	41280.03
637.43	41509.40
637.57	41319.82
637.72	40975.76
637.87	40842.35
638.02	41240.24
638.17	41127.89
638.32	41343.22
638.46	41401.74
638.61	40879.80
638.76	40297.00
638.91	41116.19
639.06	40671.49
639.20	41170.02
639.35	41268.33
639.50	40739.36
639.65	40971.08
639.80	40825.96
639.94	40631.70
640.09	40428.07
640.24	40519.35
640.39	40655.11
640.54	40718.30
640.68	40727.66
640.83	40395.31
640.98	40184.66
641.13	40407.01
641.27	40641.06
641.42	40378.92
641.57	40643.40
641.72	40573.19
641.86	40306.37
642.01	40018.48
642.16	40374.24
642.31	39819.53
642.45	40650.42
642.60	40041.88
642.75	40095.72
642.90	40741.71
643.04	40612.98
643.19	39969.33
643.34	40119.12
643.48	40629.36
643.63	40128.48
643.78	39658.04
643.93	40479.57
644.07	39927.20
644.22	39636.97
644.37	39948.26
644.51	39880.39
644.66	39761.02
644.81	40121.46
644.95	40128.48
645.10	39894.43
645.25	39594.84
645.39	39924.86
645.54	39697.83
645.69	39171.21
645.83	39763.36
645.98	40079.33
646.13	39328.02
646.27	39812.51
646.42	39313.98
646.57	39695.49
646.71	38836.51
646.86	40004.44
647.00	38993.32
647.15	39182.91
647.30	39456.75
647.44	39100.99
647.59	39473.13
647.74	39054.18
647.88	38660.97
648.03	39131.42
648.17	38876.30
648.32	39047.16
648.47	39159.50
648.61	39379.51
648.76	39828.90
648.90	39012.05
649.05	38927.79
649.20	39215.68
649.34	39372.49
649.49	38679.69
649.63	38841.19
649.78	39255.46
649.92	39021.41
650.07	39161.84
650.21	38562.67
650.36	38667.99
650.51	38527.56
650.65	39321.00
650.80	39395.90
650.94	39040.14
651.09	38962.90
651.23	38146.05
651.38	38335.63
651.52	38438.62
651.67	38471.39
651.81	38471.39
651.96	38679.69
652.10	38635.22
652.25	38345.00
652.39	38803.74
652.54	38628.20
652.68	38518.20
652.83	38862.26
652.97	38719.48
653.12	38562.67
653.26	38637.56
653.41	38003.28
653.55	37972.85
653.70	38305.21
653.84	38286.48
653.99	37998.60
654.13	38354.36
654.27	37951.79
654.42	38288.82
654.56	38293.50
654.71	38389.47
654.85	37617.09
655.00	38337.98
655.14	37516.45
655.29	37500.06
655.43	37886.25
655.57	37516.45
655.72	37263.67
655.86	37261.33
656.01	37539.85
656.15	36776.84
656.30	37174.73
656.44	37163.03
656.58	37518.79
656.73	37769.22
656.87	37383.04
657.01	37368.99
657.16	37235.58
657.30	37008.55
657.45	37291.76
657.59	37251.97
657.73	37387.72
657.88	37549.21
658.02	37755.18
658.16	37439.21
658.31	37441.55
658.45	37572.62
658.60	37429.85
658.74	38005.62
658.88	37399.42
659.03	37125.58
659.17	36861.10
659.31	36748.75
659.46	37230.90
659.60	36947.70
659.74	37130.26
659.89	36964.08
660.03	36676.19
660.17	36779.18
660.32	36741.73
660.46	36947.70
660.60	36687.90
660.74	36510.02
660.89	36921.95
661.03	36460.87
661.17	36769.82
661.32	35964.67
661.46	36435.12
661.60	36364.90
661.74	35849.99
661.89	35967.01
662.03	36016.16
662.17	35950.63
662.31	36348.52
662.46	36306.39
662.60	36552.15
662.74	36116.81
662.88	35835.94
663.03	35859.35
663.17	36180.00
663.31	35442.73
663.45	35580.82
663.60	35803.17
663.74	35138.46
663.88	35489.54
664.02	35487.20
664.17	35344.43
664.31	35253.15
664.45	35157.19
664.59	35503.59
664.73	35171.23
664.88	35079.95
665.02	34930.16
665.16	35150.17
665.30	35026.12
665.44	34899.73
665.59	34508.86
665.73	34953.56
665.87	34607.16
666.01	34796.74
666.15	34789.72
666.29	34822.49
666.44	34780.36
666.58	34588.44
666.72	35012.07
666.86	34644.61
667.00	34597.80
667.14	34321.62
667.28	34146.08
667.43	34160.12
667.57	34326.30
667.71	34380.13
667.85	34494.82
667.99	34260.76
668.13	34611.84
668.27	34132.03
668.41	34019.69
668.56	33909.68
668.70	33586.69
668.84	33455.62
668.98	33567.96
669.12	33474.34
669.26	33476.68
669.40	33642.86
669.54	33329.23
669.68	33193.48
669.82	32926.66
669.96	33357.32
670.10	33134.96
670.25	33167.73
670.39	33081.13
670.53	33282.42
670.67	33216.88
670.81	33013.26
670.95	33104.54
671.09	32467.91
671.23	32641.11
671.37	32800.27
671.51	32432.80
671.65	32797.93
671.79	32212.79
671.93	32156.62
672.07	32816.65
672.21	32198.75
672.35	31990.44
672.49	32526.42
672.63	31999.80
672.77	32142.58
672.91	31995.12
673.05	32016.19
673.19	31864.05
673.33	31763.41
673.47	31505.95
673.61	31381.90
673.75	31271.90
673.89	31260.20
674.03	31611.28
674.17	31276.58
674.31	31299.98
674.45	31419.35
674.59	31395.95
674.73	31435.74
674.87	31278.92
675.01	30906.77
675.15	30965.29
675.29	30843.58
675.43	30869.33
675.56	31138.49
675.70	30773.36
675.84	30792.09
675.98	29848.85
676.12	30632.93
676.26	30665.70
676.40	30302.92
676.54	30352.07
676.68	30185.89
676.82	29696.72
676.96	29729.48
677.10	30038.44
677.23	29848.85
677.37	29879.28
677.51	29783.32
677.65	29319.89
677.79	28772.21
677.93	29156.05
678.07	29029.66
678.21	28606.03
678.34	28856.46
678.48	28739.44
678.62	28718.37
678.76	28393.04
678.90	28542.83
679.04	28484.32
679.18	28753.48
679.31	27929.61
679.45	27988.13
679.59	28257.29
679.73	28247.93
679.87	28205.80
680.00	28065.36
680.14	27969.40
680.28	27929.61
680.42	27630.02
680.56	27297.67
680.70	27566.83
680.83	27433.42
680.97	27147.87
681.11	27314.05
681.25	27150.21
681.39	27115.11
681.52	27119.79
681.66	26967.65
681.80	27367.88
681.94	26785.09
682.07	26822.54
682.21	26586.15
682.35	26389.54
682.49	26387.20
682.62	26567.42
682.76	26052.50
682.90	26113.36
683.04	26008.03
683.17	26087.61
683.31	25905.05
683.45	25825.47
683.59	25874.62
683.72	25846.54
683.86	25750.57
684.00	25563.33
684.13	25193.53
684.27	25261.40
684.41	25165.44
684.55	24975.86
684.68	25179.48
684.82	24814.36
684.96	25118.63
685.09	24727.76
685.23	24634.14
685.37	25025.01
685.50	24746.48
685.64	24430.51
685.78	24577.97
685.91	24589.67
686.05	23915.59
686.19	23974.11
686.32	24009.22
686.46	23627.71
686.60	23466.21
686.73	23183.01
686.87	23386.63
687.01	23295.35
687.14	22909.16
687.28	23075.34
687.42	22963.00
687.55	23152.58
687.69	22972.36
687.82	22827.24
687.96	23012.15
688.10	22471.48
688.23	22572.13
688.37	22258.49
688.50	22314.67
688.64	22361.48
688.78	22436.38
688.91	22281.90
689.05	22080.61
689.18	22026.78
689.32	21682.72
689.46	22167.21
689.59	22579.15
689.73	21972.95
689.86	21694.43
690.00	21518.89
690.13	21944.86
690.27	21514.20
690.41	21076.52
690.54	21193.55
690.68	21455.69
690.81	21280.15
690.95	21151.42
691.08	20908.01
691.22	21132.70
691.35	20912.69
691.49	20814.38
691.62	20805.02
691.76	20879.92
691.89	20793.32
692.03	20847.15
692.16	20400.11
692.30	20477.35
692.43	20334.57
692.57	20226.91
692.70	20170.74
692.84	20283.08
692.97	19793.91
693.11	19906.26
693.24	19833.70
693.38	19702.63
693.51	19868.81
693.65	19908.60
693.78	19433.47
693.92	19309.42
694.05	19417.08
694.19	19419.42
694.32	19403.04
694.45	19314.10
694.59	19096.43
694.72	19246.23
694.86	18993.45
694.99	18754.71
695.13	18794.50
695.26	18457.46
695.39	18726.63
695.53	18747.69
695.66	18745.35
695.80	18373.21
695.93	18410.65
696.07	18441.08
696.20	18483.21
696.33	18520.66
696.47	18125.11
696.60	17926.16
696.73	17886.37
696.87	17963.61
697.00	17743.60
697.14	17329.33
697.27	17535.29
697.40	17280.18
697.54	17179.53
697.67	17448.69
697.80	17216.98
697.94	17132.72
698.07	17179.53
698.21	16912.71
698.34	17249.75
698.47	17034.42
698.61	16835.47
698.74	16776.96
698.87	16823.77
699.01	16533.54
699.14	16409.50
699.27	16627.17
699.40	16243.32
699.54	16353.32
699.67	16475.03
699.80	16065.44
699.94	16250.34
700.07	16133.31
700.20	16229.27
700.34	15887.56
700.47	15920.32
700.60	15967.13
700.73	15910.96
700.87	15784.57
701.00	15590.31
701.13	15473.28
701.26	15417.11
701.40	15267.31
701.53	15133.90
701.66	15351.57
701.79	15204.12
701.93	15225.18
702.06	15000.49
702.19	14965.39
702.32	15056.67
702.46	15007.52
702.59	14796.87
702.72	14670.48
702.85	14860.06
702.99	14485.58
703.12	14717.29
703.25	14555.79
703.38	14406.00
703.51	14654.09
703.65	14413.02
703.78	14139.18
703.91	13965.98
704.04	14167.26
704.17	14209.39
704.31	13867.67
704.44	13858.31
704.57	13806.82
704.70	13565.74
704.83	13748.31
704.96	13771.71
705.10	13760.01
705.23	13687.45
>>>>>End Processed Spectral Data<<<<<
