SpectraSuite Data File
++++++++++++++++++++++++++++++++++++
Date: Fri Oct 25 11:33:40 EDT 2013
User: price-jones
Dark Spectrum Present: No
Reference Spectrum Present: No
Number of Sampled Component Spectra: 1
Spectrometers: USB2+H05261
Integration Time (usec): 100000 (USB2+H05261)
Spectra Averaged: 1 (USB2+H05261)
Boxcar Smoothing: 0 (USB2+H05261)
Correct for Electrical Dark: No (USB2+H05261)
Strobe/Lamp Enabled: No (USB2+H05261)
Correct for Detector Non-linearity: No (USB2+H05261)
Correct for Stray Light: No (USB2+H05261)
Number of Pixels in Processed Spectrum: 2048
>>>>>Begin Processed Spectral Data<<<<<
365.73	283.20
365.92	283.20
366.12	283.20
366.32	234.05
366.52	201.29
366.72	215.33
366.91	128.73
367.11	205.97
367.31	170.86
367.51	142.77
367.70	224.69
367.90	257.46
368.10	175.54
368.30	182.56
368.49	168.52
368.69	236.39
368.89	140.43
369.09	112.35
369.28	255.12
369.48	161.50
369.68	276.18
369.87	234.05
370.07	198.95
370.27	393.21
370.47	344.06
370.66	510.24
370.86	552.37
371.06	526.62
371.25	580.45
371.45	580.45
371.65	580.45
371.84	566.41
372.04	575.77
372.24	489.17
372.44	655.35
372.63	624.92
372.83	662.37
373.03	550.03
373.22	650.67
373.42	638.97
373.62	564.07
373.81	624.92
374.01	573.43
374.21	589.82
374.40	660.03
374.60	627.26
374.79	718.54
374.99	624.92
375.19	641.31
375.38	688.12
375.58	671.73
375.78	634.29
375.97	695.14
376.17	716.20
376.37	641.31
376.56	725.57
376.76	683.44
376.95	599.18
377.15	732.59
377.35	636.63
377.54	669.39
377.74	706.84
377.93	706.84
378.13	695.14
378.33	725.57
378.52	709.18
378.72	709.18
378.91	716.20
379.11	777.06
379.31	711.52
379.50	685.78
379.70	730.25
379.89	774.72
380.09	669.39
380.28	720.88
380.48	662.37
380.68	692.80
380.87	720.88
381.07	730.25
381.26	819.19
381.46	795.78
381.65	779.40
381.85	791.10
382.04	734.93
382.24	788.76
382.43	793.44
382.63	744.29
382.83	711.52
383.02	868.34
383.22	788.76
383.41	737.27
383.61	777.06
383.80	919.83
384.00	709.18
384.19	858.98
384.39	744.29
384.58	823.87
384.78	868.34
384.97	840.25
385.17	884.72
385.36	826.21
385.56	844.93
385.75	800.46
385.95	791.10
386.14	896.43
386.34	868.34
386.53	873.02
386.72	894.08
386.92	898.77
387.11	957.28
387.31	814.51
387.50	823.87
387.70	828.55
387.89	912.81
388.09	940.90
388.28	915.15
388.48	884.72
388.67	919.83
388.86	915.15
389.06	1043.88
389.25	954.94
389.45	936.21
389.64	992.39
389.84	952.60
390.03	950.26
390.22	1057.92
390.42	887.06
390.61	964.30
390.81	940.90
391.00	999.41
391.19	1027.50
391.39	1034.52
391.58	1069.62
391.78	1036.86
391.97	1090.69
392.16	1081.33
392.36	1104.73
392.55	987.71
392.75	1074.31
392.94	992.39
393.13	1097.71
393.33	1020.47
393.52	1013.45
393.71	1083.67
393.91	1022.81
394.10	1036.86
394.29	1086.01
394.49	1111.75
394.68	1128.14
394.88	1146.86
395.07	1153.88
395.26	1137.50
395.46	1156.22
395.65	1186.65
395.84	1203.04
396.04	1310.70
396.23	1198.35
396.42	1170.27
396.62	1266.23
396.81	1181.97
397.00	1254.53
397.19	1287.29
397.39	1240.48
397.58	1219.42
397.77	1186.65
397.97	1167.93
398.16	1352.83
398.35	1284.95
398.55	1289.64
398.74	1198.35
398.93	1364.53
399.12	1303.68
399.32	1310.70
399.51	1270.91
399.70	1437.09
399.90	1397.30
400.09	1371.55
400.28	1462.83
400.47	1437.09
400.67	1366.87
400.86	1362.19
401.05	1373.89
401.24	1465.18
401.44	1378.58
401.63	1444.11
401.82	1530.71
402.01	1446.45
402.21	1523.69
402.40	1528.37
402.59	1451.13
402.78	1493.26
402.97	1570.50
403.17	1526.03
403.36	1556.46
403.55	1528.37
403.74	1563.48
403.93	1621.99
404.13	1591.56
404.32	1495.60
404.51	1675.82
404.70	1661.78
404.89	1647.74
405.09	1706.25
405.28	1729.66
405.47	1629.01
405.66	1729.66
405.85	1687.53
406.05	1715.61
406.24	1755.40
406.43	1820.94
406.62	1809.23
406.81	1806.89
407.00	1734.34
407.20	1717.95
407.39	1657.10
407.58	1888.81
407.77	1888.81
407.96	1879.45
408.15	1949.67
408.34	1799.87
408.54	1942.64
408.73	1783.49
408.92	1860.73
409.11	2001.16
409.30	1959.03
409.49	2017.54
409.68	1982.43
409.87	1973.07
410.07	2125.21
410.26	2052.65
410.45	2078.40
410.64	1968.39
410.83	2097.12
411.02	2174.36
411.21	2134.57
411.40	2160.31
411.59	2267.98
411.78	2211.81
411.98	2179.04
412.17	2296.07
412.36	2272.66
412.55	2377.98
412.74	2349.90
412.93	2377.98
413.12	2333.51
413.31	2415.43
413.50	2356.92
413.69	2373.30
413.88	2523.10
414.07	2443.52
414.26	2473.95
414.45	2595.65
414.64	2546.50
414.83	2619.06
415.02	2647.15
415.22	2600.34
415.41	2644.81
415.60	2555.86
415.79	2712.68
415.98	2775.88
416.17	2738.43
416.36	2801.62
416.55	2876.52
416.74	2796.94
416.93	2785.24
417.12	2878.86
417.31	2871.84
417.50	2906.95
417.69	2932.69
417.88	2857.79
418.07	2993.55
418.26	2960.78
418.45	2956.10
418.64	3119.93
418.83	3005.25
419.02	3082.49
419.21	3131.64
419.39	3110.57
419.58	3094.19
419.77	3220.58
419.96	3094.19
420.15	3342.28
420.34	3293.13
420.53	3152.70
420.72	3187.81
420.91	3204.19
421.10	3344.63
421.29	3302.50
421.48	3236.96
421.67	3164.40
421.86	3248.66
422.05	3337.60
422.24	3309.52
422.43	3229.94
422.61	3396.12
422.80	3363.35
422.99	3463.99
423.18	3332.92
423.37	3410.16
423.56	3449.95
423.75	3332.92
423.94	3272.07
424.13	3143.34
424.32	3185.47
424.50	3372.71
424.69	3513.14
424.88	3480.38
425.07	3386.76
425.26	3499.10
425.45	3435.91
425.64	3501.44
425.83	3339.94
426.01	3379.73
426.20	3421.86
426.39	3433.57
426.58	3564.64
426.77	3552.93
426.96	3646.55
427.15	3623.15
427.33	3536.55
427.52	3613.79
427.71	3669.96
427.90	3616.13
428.09	3508.46
428.28	3784.65
428.46	3644.21
428.65	3590.38
428.84	3728.47
429.03	3801.03
429.22	3749.54
429.40	3695.71
429.59	3899.33
429.78	3700.39
429.97	3644.21
430.16	3716.77
430.34	3763.58
430.53	3721.45
430.72	3705.07
430.91	3929.76
431.10	3812.73
431.28	3971.89
431.47	4007.00
431.66	4140.41
431.85	4037.42
432.03	3887.63
432.22	4074.87
432.41	4093.60
432.60	3997.64
432.79	4109.98
432.97	4063.17
433.16	4117.00
433.35	4156.79
433.54	4145.09
433.72	4318.29
433.91	4306.59
434.10	4222.33
434.28	4161.47
434.47	4219.99
434.66	4161.47
434.85	4339.35
435.03	4346.37
435.22	4313.61
435.41	4360.42
435.59	4360.42
435.78	4444.68
435.97	4393.19
436.16	4320.63
436.34	4444.68
436.53	4489.15
436.72	4540.64
436.90	4369.78
437.09	4594.47
437.28	4479.79
437.46	4540.64
437.65	4531.28
437.84	4535.96
438.02	4617.88
438.21	4629.58
438.40	4381.48
438.58	4741.93
438.77	4683.41
438.96	4688.09
439.14	4795.76
439.33	4957.25
439.52	4896.40
439.70	5001.72
439.89	5060.24
440.08	5125.77
440.26	5135.14
440.45	4931.51
440.63	5172.58
440.82	5224.08
441.01	5167.90
441.19	5186.63
441.38	5399.62
441.57	5305.99
441.75	5378.55
441.94	5430.04
442.12	5413.66
442.31	5577.50
442.50	5434.72
442.68	5425.36
442.87	5352.81
443.05	5535.37
443.24	5582.18
443.43	5682.82
443.61	5493.24
443.80	5774.10
443.98	5631.33
444.17	5348.12
444.35	5533.03
444.54	5680.48
444.73	5621.97
444.91	5722.61
445.10	5675.80
445.28	5675.80
445.47	5575.16
445.65	5755.38
445.84	5596.22
446.02	5900.49
446.21	5701.54
446.39	5675.80
446.58	5771.76
446.77	5813.89
446.95	5572.82
447.14	5797.51
447.32	5834.96
447.51	5806.87
447.69	5738.99
447.88	5860.70
448.06	5799.85
448.25	5825.59
448.43	5893.47
448.62	5874.74
448.80	5856.02
448.99	5877.09
449.17	5933.26
449.36	5914.53
449.54	5895.81
449.73	6132.20
449.91	6066.67
450.10	6150.93
450.28	6232.85
450.46	6083.05
450.65	6043.26
450.83	6038.58
451.02	6197.74
451.20	6204.76
451.39	6279.66
451.57	6286.68
451.76	6249.23
451.94	6251.57
452.13	6420.09
452.31	6242.21
452.49	6347.53
452.68	6499.67
452.86	6455.20
453.05	6413.07
453.23	6417.75
453.42	6342.85
453.60	6092.41
453.78	6443.49
453.97	6342.85
454.15	6455.20
454.34	6422.43
454.52	6607.33
454.70	6703.29
454.89	6640.10
455.07	6628.40
455.26	6565.20
455.44	6820.32
455.62	6883.52
455.81	6862.45
455.99	6780.53
456.17	6764.15
456.36	6843.73
456.54	6871.81
456.73	6675.21
456.91	7145.66
457.09	6974.80
457.28	7269.70
457.46	6935.01
457.64	7126.93
457.83	7082.46
458.01	7117.57
458.19	7328.22
458.38	7063.74
458.56	7199.49
458.74	7173.74
458.93	7204.17
459.11	7243.96
459.29	7274.38
459.48	7290.77
459.66	7103.53
459.84	7351.62
460.03	7405.46
460.21	7510.78
460.39	7454.61
460.57	7405.46
460.76	7569.29
460.94	7641.85
461.12	7595.04
461.31	7674.62
461.49	7576.31
461.67	7662.91
461.85	7815.05
462.04	7492.05
462.22	8156.77
462.40	7925.05
462.59	7681.64
462.77	7815.05
462.95	7857.18
463.13	7712.07
463.32	7840.79
463.50	8004.63
463.68	7691.00
463.86	7950.80
464.05	7709.72
464.23	7824.41
464.41	8119.32
464.59	7934.42
464.78	8187.19
464.96	8224.64
465.14	7943.78
465.32	7943.78
465.50	8142.72
465.69	8376.78
465.87	8226.98
466.05	8292.52
466.23	8248.05
466.41	8072.51
466.60	8393.16
466.78	8006.97
466.96	8224.64
467.14	8248.05
467.32	8182.51
467.51	8421.25
467.69	8060.80
467.87	8449.33
468.05	8517.21
468.23	8245.71
468.41	8351.03
468.60	8444.65
468.78	8538.27
468.96	8400.18
469.14	8535.93
469.32	8769.99
469.50	8552.32
469.69	8692.75
469.87	8781.69
470.05	8807.44
470.23	8795.73
470.41	8863.61
470.59	9029.79
470.77	8718.50
470.95	9041.49
471.14	9097.66
471.32	8966.59
471.50	8980.64
471.68	9029.79
471.86	9153.84
472.04	9078.94
472.22	9525.98
472.40	9195.96
472.58	9083.62
472.77	9240.44
472.95	9305.97
473.13	9881.74
473.31	9521.30
473.49	9425.34
473.67	9415.98
473.85	9497.89
474.03	9633.64
474.21	9621.94
474.39	9891.10
474.57	9774.08
474.75	9844.29
474.93	9830.25
475.12	9956.64
475.30	10125.16
475.48	10211.76
475.66	10108.77
475.84	10242.18
476.02	10150.90
476.20	10171.97
476.38	10569.86
476.56	10733.70
476.74	10614.33
476.92	10469.22
477.10	10555.82
477.28	10565.18
477.46	10902.22
477.64	10960.73
477.82	11096.48
478.00	11211.17
478.18	11115.20
478.36	11290.74
478.54	11433.52
478.72	11552.88
478.90	11597.35
479.08	11501.39
479.26	11552.88
479.44	11836.09
479.62	11646.51
479.80	11925.03
479.98	11988.22
480.16	12184.83
480.34	12058.44
480.52	12437.61
480.70	12346.33
480.88	12189.51
481.06	12575.70
481.24	12596.76
481.41	12685.70
481.59	12535.91
481.77	12772.30
481.95	12891.67
482.13	12882.31
482.31	13025.08
482.49	13523.62
482.67	13209.98
482.85	13481.49
483.03	13642.98
483.21	13577.45
483.39	13797.46
483.57	13722.56
483.74	14099.39
483.92	13769.37
484.10	13956.61
484.28	14424.72
484.46	14576.86
484.64	14836.66
484.82	14441.11
485.00	14595.58
485.18	14876.44
485.35	15176.03
485.53	15232.21
485.71	15082.41
485.89	15587.97
486.07	15131.56
486.25	15672.23
486.43	15562.22
486.61	15838.41
486.78	15880.53
486.96	15791.59
487.14	16107.57
487.32	16208.21
487.50	16224.59
487.68	16542.91
487.85	16627.17
488.03	16896.33
488.21	17076.55
488.39	16968.88
488.57	17436.99
488.75	17301.24
488.92	17490.82
489.10	17575.08
489.28	17689.77
489.46	17930.84
489.64	17642.96
489.81	18349.80
489.99	18384.91
490.17	18155.54
490.35	18597.90
490.53	18710.24
490.70	18951.32
490.88	18654.07
491.06	19290.70
491.24	19012.17
491.41	19283.67
491.59	19232.18
491.77	19293.04
491.95	19543.47
492.13	19548.15
492.30	19889.87
492.48	19955.41
492.66	19948.39
492.84	20056.05
493.01	20318.19
493.19	19878.17
493.37	20482.03
493.54	20828.43
493.72	20622.46
493.90	20751.19
494.08	20599.05
494.25	20805.02
494.43	21177.17
494.61	21088.23
494.79	21607.83
494.96	21378.45
495.14	21652.30
495.32	22085.30
495.49	21661.66
495.67	22005.72
495.85	22038.48
496.02	22256.15
496.20	22417.65
496.38	22391.91
496.55	22597.87
496.73	23049.60
496.91	22759.37
497.09	22888.10
497.26	22981.72
497.44	23112.79
497.62	23232.16
497.79	23271.95
497.97	23412.38
498.14	23386.63
498.32	23529.41
498.50	23817.29
498.67	24128.58
498.85	23805.59
499.03	24236.25
499.20	23950.70
499.38	24018.58
499.56	24374.34
499.73	24297.10
499.91	24453.92
500.08	24872.87
500.26	24570.94
500.44	24966.49
500.61	24692.65
500.79	25111.61
500.97	24910.32
501.14	25415.88
501.32	25759.94
501.49	25568.01
501.67	25303.53
501.84	25675.68
502.02	25439.28
502.20	25916.75
502.37	26008.03
502.55	25867.60
502.72	25827.81
502.90	25792.70
503.07	25851.22
503.25	26155.49
503.43	26232.72
503.60	26338.05
503.78	26836.58
503.95	26689.13
504.13	26754.66
504.30	26529.97
504.48	26885.73
504.65	26958.29
504.83	26995.74
505.01	27124.47
505.18	27206.39
505.36	27847.69
505.53	27349.16
505.71	27281.28
505.88	27613.64
506.06	27398.31
506.23	27697.90
506.41	27805.56
506.58	27644.07
506.76	27833.65
506.93	27903.87
507.11	28247.93
507.28	28016.21
507.46	28386.02
507.63	28386.02
507.81	28599.01
507.98	28158.99
508.16	28301.76
508.33	28545.17
508.50	28751.14
508.68	28931.36
508.85	29099.88
509.03	28737.10
509.20	29167.76
509.38	29352.66
509.55	29120.95
509.73	29483.73
509.90	29483.73
510.08	29614.80
510.25	29907.37
510.42	29359.68
510.60	30092.27
510.77	29989.28
510.95	30307.60
511.12	30251.42
511.30	30031.41
511.47	30005.67
511.64	30431.65
511.82	30452.71
511.99	30572.08
512.17	30387.18
512.34	30607.19
512.51	30881.03
512.69	30848.26
512.86	30927.84
513.04	31321.05
513.21	31325.73
513.38	31091.68
513.56	31660.43
513.73	31248.49
513.90	31449.78
514.08	31529.36
514.25	31938.95
514.43	31374.88
514.60	31805.54
514.77	31501.27
514.95	31992.78
515.12	31985.76
515.29	31740.00
515.47	32444.51
515.64	32016.19
515.81	32091.09
515.99	32165.98
516.16	32610.68
516.33	32425.78
516.51	32680.90
516.68	32280.67
516.85	32465.57
517.03	33387.74
517.20	32851.76
517.37	32844.74
517.54	32989.85
517.72	32943.04
517.89	33006.23
518.06	32790.91
518.24	33481.36
518.41	32875.16
518.58	32975.81
518.75	33001.55
518.93	33521.15
519.10	33273.06
519.27	33635.84
519.45	33425.19
519.62	33867.55
519.79	33876.91
519.96	34029.05
520.14	34235.02
520.31	34036.07
520.48	34010.32
520.65	33883.94
520.83	34345.02
521.00	34609.50
521.17	34277.15
521.34	34513.54
521.52	34705.46
521.69	34677.38
521.86	34277.15
522.03	34532.26
522.20	35136.12
522.38	35061.22
522.55	35248.47
522.72	34960.58
522.89	35131.44
523.07	35346.77
523.24	35168.89
523.41	35463.80
523.58	35009.73
523.75	35660.40
523.92	35445.07
524.10	35419.33
524.27	35749.34
524.44	35840.62
524.61	36194.04
524.78	35885.09
524.96	36236.17
525.13	36409.37
525.30	36322.77
525.47	36088.72
525.64	36638.75
525.81	36533.42
525.98	36526.40
526.16	36435.12
526.33	36149.57
526.50	36620.02
526.67	36311.07
526.84	36865.78
527.01	36582.57
527.18	36734.71
527.36	36914.93
527.53	36884.50
527.70	37212.18
527.87	37322.18
528.04	37235.58
528.21	36863.44
528.38	37287.07
528.55	37298.78
528.72	37209.84
528.89	36994.51
529.07	37354.95
529.24	37537.51
529.41	37563.26
529.58	37675.60
529.75	37340.91
529.92	38073.49
530.09	38211.59
530.26	38330.95
530.43	37904.98
530.60	37591.34
530.77	37797.31
530.94	37909.66
531.11	37586.66
531.28	37998.60
531.46	38209.25
531.63	38124.99
531.80	38185.84
531.97	38286.48
532.14	38560.33
532.31	38675.01
532.48	38644.59
532.65	38553.30
532.82	38899.70
532.99	38976.94
533.16	39054.18
533.33	38998.01
533.50	39164.18
533.67	38780.34
533.84	38998.01
534.01	39311.64
534.18	39269.51
534.35	38988.64
534.52	39332.70
534.69	39487.18
534.86	39594.84
535.03	39393.56
535.20	39728.25
535.37	39533.99
535.54	39948.26
535.71	39459.09
535.88	39906.13
536.05	39697.83
536.22	40114.44
536.38	39880.39
536.55	39913.16
536.72	39688.46
536.89	39606.55
537.06	39962.31
537.23	40285.30
537.40	39793.79
537.57	39948.26
537.74	40098.06
537.91	40526.38
538.08	40428.07
538.25	40334.45
538.42	40575.53
538.59	40657.45
538.75	40243.17
538.92	40559.14
539.09	40638.72
539.26	40526.38
539.43	40825.96
539.60	40762.77
539.77	40774.47
539.94	41249.60
540.11	40687.87
540.28	41123.21
540.44	40720.64
540.61	41151.30
540.78	40821.28
540.95	41139.60
541.12	41308.11
541.29	40772.13
541.46	41261.30
541.62	40910.22
541.79	41443.87
541.96	41399.40
542.13	41193.43
542.30	41216.83
542.47	41509.40
542.63	41415.78
542.80	41474.29
542.97	41879.21
543.14	41900.27
543.31	41694.30
543.48	42061.77
543.64	42080.49
543.81	42141.35
543.98	41801.97
544.15	42319.23
544.32	42499.45
544.48	42658.60
544.65	42270.08
544.82	42485.40
544.99	41930.70
545.16	42696.05
545.32	42436.25
545.49	42604.77
545.66	43248.42
545.83	43042.45
546.00	42775.63
546.16	42663.28
546.33	42754.57
546.50	42293.48
546.67	43112.67
546.83	41942.40
547.00	42878.61
547.17	42850.53
547.34	42632.86
547.50	43196.93
547.67	43400.55
547.84	42824.78
548.00	43470.77
548.17	43571.41
548.34	43597.16
548.51	43718.87
548.67	43386.51
548.84	43660.35
549.01	43381.83
549.18	43063.52
549.34	43646.31
549.51	43761.00
549.68	43828.87
549.84	43309.27
550.01	44245.49
550.18	43147.78
550.34	43803.13
550.51	43487.15
550.68	44140.16
550.84	43580.78
551.01	44147.18
551.18	43606.52
551.34	43796.10
551.51	43875.68
551.68	43498.86
551.84	43859.30
552.01	43475.45
552.18	44177.61
552.34	43440.34
552.51	44304.00
552.68	44439.75
552.84	44137.82
553.01	44126.12
553.18	43805.47
553.34	44147.18
553.51	44009.09
553.67	44519.33
553.84	44404.64
554.01	44418.69
554.17	44371.88
554.34	44858.71
554.51	44629.34
554.67	44844.66
554.84	45212.13
555.00	44685.51
555.17	44531.03
555.33	44980.42
555.50	44636.36
555.67	44957.01
555.83	44732.32
556.00	44889.13
556.16	45588.95
556.33	44968.71
556.50	45359.58
556.66	45172.34
556.83	44800.19
556.99	45771.52
557.16	45275.32
557.32	45457.88
557.49	45209.79
557.65	45411.07
557.82	45207.45
557.98	45464.91
558.15	45457.88
558.32	45289.37
558.48	45085.74
558.65	45312.77
558.81	45427.46
558.98	45668.53
559.14	45605.34
559.31	45027.23
559.47	45689.60
559.64	45371.28
559.80	45558.53
559.97	45441.50
560.13	45397.03
560.30	45478.95
560.46	46087.49
560.63	45790.24
560.79	45673.21
560.96	46010.25
561.12	45834.71
561.29	46028.98
561.45	45839.39
561.61	45558.53
561.78	45631.08
561.94	45621.72
562.11	46141.32
562.27	45729.39
562.44	46120.26
562.60	45844.07
562.77	46005.57
562.93	45532.78
563.10	45935.35
563.26	46005.57
563.42	46036.00
563.59	46124.94
563.75	45867.48
563.92	46115.58
564.08	45790.24
564.24	45961.10
564.41	45993.87
564.57	46124.94
564.74	46471.34
564.90	45986.85
565.07	46178.77
565.23	46433.89
565.39	45769.18
565.56	46597.73
565.72	46047.70
565.88	46497.08
566.05	46576.66
566.21	46218.56
566.38	46291.12
566.54	46354.31
566.70	46595.38
566.87	46185.79
567.03	46597.73
567.19	46504.10
567.36	46513.47
567.52	46300.48
567.68	46770.93
567.85	46639.86
568.01	46738.16
568.17	46358.99
568.34	46546.23
568.50	46464.32
568.66	46431.55
568.83	46724.11
568.99	46646.88
569.15	46562.62
569.32	46564.96
569.48	46457.29
569.64	47000.30
569.81	46637.51
569.97	46508.79
570.13	46813.05
570.30	46693.69
570.46	46480.70
570.62	46583.68
570.78	46478.36
570.95	46684.33
571.11	46768.58
571.27	47019.02
571.43	46665.60
571.60	46405.80
571.76	46953.49
571.92	46843.48
572.09	46773.27
572.25	46527.51
572.41	46770.93
572.57	46761.56
572.74	47306.91
572.90	46866.89
573.06	47042.43
573.22	46780.29
573.38	47285.84
573.55	47122.01
573.71	47674.37
573.87	46890.29
574.03	46899.65
574.20	47267.12
574.36	46848.16
574.52	47377.12
574.68	47117.32
574.84	47217.97
575.01	46866.89
575.17	47037.75
575.33	47459.04
575.49	46918.38
575.65	47587.77
575.82	47346.70
575.98	46930.08
576.14	47000.30
576.30	47767.99
576.46	47196.90
576.62	46822.42
576.79	47316.27
576.95	47292.86
577.11	46534.53
577.27	47360.74
577.43	47374.78
577.59	47154.77
577.75	47173.50
577.92	46513.47
578.08	47168.82
578.24	46894.97
578.40	47590.11
578.56	47381.80
578.72	47304.57
578.88	47267.12
579.04	47363.08
579.21	47065.83
579.37	47339.68
579.53	47606.50
579.69	47175.84
579.85	47323.29
580.01	47351.38
580.17	46951.15
580.33	47428.62
580.49	47154.77
580.65	47552.66
580.82	47295.21
580.98	47496.49
581.14	46948.81
581.30	47475.43
581.46	47217.97
581.62	47388.83
581.78	47391.17
581.94	47302.23
582.10	47007.32
582.26	47498.83
582.42	47765.65
582.58	47318.61
582.74	47971.62
582.90	47217.97
583.06	47611.18
583.22	47208.61
583.38	47569.05
583.54	47430.96
583.70	47707.14
583.86	47737.57
584.02	47475.43
584.18	48030.13
584.34	47555.00
584.50	47753.95
584.66	47531.60
584.82	47398.19
584.98	47531.60
585.14	47510.53
585.30	47648.63
585.46	47503.51
585.62	47323.29
585.78	47711.82
585.94	47379.46
586.10	47590.11
586.26	47278.82
586.42	47337.33
586.58	47566.71
586.74	47543.30
586.90	47180.52
587.06	47615.86
587.22	47564.37
587.38	47718.84
587.54	47758.63
587.70	48289.93
587.86	47437.98
588.02	47704.80
588.18	47466.06
588.34	47718.84
588.49	47540.96
588.65	47547.98
588.81	47618.20
588.97	47543.30
589.13	47505.85
589.29	47765.65
589.45	48128.44
589.61	47611.18
589.77	47931.83
589.93	47501.17
590.08	48074.60
590.24	47997.37
590.40	48215.04
590.56	48334.40
590.72	48172.91
590.88	47655.65
591.04	47817.14
591.20	48236.10
591.35	47971.62
591.51	48416.32
591.67	47784.38
591.83	48364.83
591.99	47714.16
592.15	48240.78
592.31	47847.57
592.46	47576.07
592.62	47899.06
592.78	47899.06
592.94	48449.09
593.10	48048.86
593.26	48200.99
593.41	48477.18
593.57	48547.39
593.73	48301.64
593.89	48215.04
594.05	48200.99
594.20	48643.35
594.36	48545.05
594.52	48303.98
594.68	48535.69
594.84	48226.74
594.99	48332.06
595.15	48030.13
595.31	48643.35
595.47	48488.88
595.62	48079.28
595.78	47723.52
595.94	48058.22
596.10	48549.73
596.25	48643.35
596.41	48023.11
596.57	48107.37
596.73	48329.72
596.88	48306.32
597.04	48727.61
597.20	48411.64
597.36	48140.14
597.51	48334.40
597.67	48327.38
597.83	48341.42
597.99	47924.81
598.14	48404.62
598.30	48479.52
598.46	48168.22
598.61	48624.63
598.77	48367.17
598.93	48509.94
599.09	48009.07
599.24	48294.61
599.40	48605.91
599.56	48044.18
599.71	49071.67
599.87	48650.38
600.03	48891.45
600.18	48339.08
600.34	48526.33
600.50	48416.32
600.65	48186.95
600.81	48662.08
600.97	48451.43
601.12	48554.41
601.28	48149.50
601.44	47885.02
601.59	48460.79
601.75	48481.86
601.91	48498.24
602.06	48776.76
602.22	48245.46
602.37	47983.32
602.53	48406.96
602.69	48666.76
602.84	48622.29
603.00	48278.23
603.16	48769.74
603.31	48514.62
603.47	48861.02
603.62	48460.79
603.78	48280.57
603.94	48119.07
604.09	48247.80
604.25	48231.42
604.40	48446.75
604.56	48741.66
604.71	48605.91
604.87	48406.96
605.03	48144.82
605.18	48570.80
605.34	48706.55
605.49	48177.59
605.65	47955.24
605.80	48294.61
605.96	48006.73
606.12	48177.59
606.27	48460.79
606.43	48332.06
606.58	48425.68
606.74	48294.61
606.89	48215.04
607.05	48582.50
607.20	48657.40
607.36	47962.26
607.51	47962.26
607.67	48313.34
607.82	47896.72
607.98	47985.66
608.13	48011.41
608.29	47875.66
608.44	48493.56
608.60	48212.70
608.75	48549.73
608.91	48273.55
609.06	47999.71
609.22	48404.62
609.37	47847.57
609.53	48409.30
609.68	48526.33
609.84	48182.27
609.99	48273.55
610.15	48442.07
610.30	48442.07
610.46	47760.97
610.61	48444.41
610.76	48273.55
610.92	48046.52
611.07	47407.55
611.23	48065.24
611.38	47889.70
611.54	48088.65
611.69	48175.25
611.84	48009.07
612.00	48360.15
612.15	47667.35
612.31	48126.10
612.46	47772.67
612.62	47526.92
612.77	47861.61
612.92	47966.94
613.08	48032.47
613.23	47728.20
613.39	47674.37
613.54	47597.13
613.69	48179.93
613.85	47388.83
614.00	47948.21
614.15	47772.67
614.31	47407.55
614.46	48039.50
614.62	47552.66
614.77	47306.91
614.92	47723.52
615.08	47707.14
615.23	47899.06
615.38	48177.59
615.54	47494.15
615.69	47606.50
615.84	47531.60
616.00	48170.57
616.15	47686.07
616.30	47566.71
616.46	47323.29
616.61	47447.34
616.76	47629.90
616.92	47590.11
617.07	47643.94
617.22	47178.18
617.37	47152.43
617.53	47674.37
617.68	47407.55
617.83	47524.58
617.99	47646.29
618.14	47501.17
618.29	47061.15
618.45	46944.12
618.60	47119.66
618.75	47051.79
618.90	47508.19
619.06	46981.57
619.21	47365.42
619.36	47679.05
619.51	46892.63
619.67	46796.67
619.82	47187.54
619.97	47299.89
620.12	46944.12
620.28	46972.21
620.43	47358.40
620.58	47524.58
620.73	47096.26
620.89	47402.87
621.04	47805.44
621.19	47100.94
621.34	46930.08
621.49	46911.36
621.65	47002.64
621.80	47283.50
621.95	46892.63
622.10	47189.88
622.25	46316.86
622.41	46855.18
622.56	46873.91
622.71	47082.22
622.86	47093.92
623.01	47061.15
623.16	46241.96
623.32	46405.80
623.47	46784.97
623.62	46588.36
623.77	46703.05
623.92	46937.10
624.07	46534.53
624.23	46841.14
624.38	46693.69
624.53	46611.77
624.68	46314.52
624.83	46534.53
624.98	46480.70
625.13	46476.02
625.29	46588.36
625.44	46639.86
625.59	46424.53
625.74	46429.21
625.89	46099.19
626.04	46197.49
626.19	46178.77
626.34	46036.00
626.49	45984.51
626.65	45975.14
626.80	46213.88
626.95	45743.43
627.10	46171.75
627.25	46382.40
627.40	46040.68
627.55	45923.65
627.70	46265.37
627.85	45984.51
628.00	46293.46
628.15	46534.53
628.30	45233.19
628.45	45544.48
628.60	45457.88
628.76	45872.16
628.91	45593.64
629.06	45537.46
629.21	45270.64
629.36	45455.54
629.51	46096.85
629.66	46036.00
629.81	45511.72
629.96	45375.97
630.11	45970.46
630.26	45525.76
630.41	45663.85
630.56	45406.39
630.71	45865.14
630.86	45436.82
631.01	45624.06
631.16	45282.34
631.31	45226.17
631.46	45722.37
631.61	45418.10
631.76	45483.63
631.91	45361.92
632.06	45689.60
632.21	45469.59
632.36	45855.78
632.51	45162.98
632.66	45132.55
632.81	45081.06
632.96	44949.99
633.10	45123.19
633.25	45591.30
633.40	45226.17
633.55	45296.39
633.70	45563.21
633.85	44814.24
634.00	45535.12
634.15	44886.79
634.30	45116.17
634.45	44891.48
634.60	45106.80
634.75	45378.31
634.90	45153.62
635.05	45158.30
635.19	44863.39
635.34	44259.53
635.49	45179.36
635.64	44954.67
635.79	44926.58
635.94	45078.72
636.09	45010.84
636.24	44877.43
636.39	44715.93
636.53	44751.04
636.68	44519.33
636.83	43833.55
636.98	44299.32
637.13	44552.10
637.28	43950.58
637.43	44402.30
637.57	44428.05
637.72	44271.23
637.87	43995.05
638.02	44533.37
638.17	44280.60
638.32	44509.97
638.46	43983.35
638.61	44100.37
638.76	43824.19
638.91	44350.81
639.06	43800.79
639.20	43878.02
639.35	43800.79
639.50	44006.75
639.65	44172.93
639.80	44226.76
639.94	44264.21
640.09	44385.92
640.24	44231.44
640.39	43742.27
640.54	43505.88
640.68	43922.49
640.83	44465.50
640.98	43819.51
641.13	43648.65
641.27	43959.94
641.42	43962.28
641.57	43782.06
641.72	44289.96
641.86	43578.43
642.01	43615.88
642.16	43346.72
642.31	43442.68
642.45	43583.12
642.60	43583.12
642.75	43456.73
642.90	43973.98
643.04	43433.32
643.19	43402.89
643.34	43445.02
643.48	43569.07
643.63	42951.17
643.78	43515.24
643.93	43328.00
644.07	43784.40
644.22	43124.37
644.37	43346.72
644.51	43533.96
644.66	43217.99
644.81	43042.45
644.95	43381.83
645.10	43681.42
645.25	43136.07
645.39	43150.12
645.54	43405.23
645.69	42497.11
645.83	42902.02
645.98	42632.86
646.13	42843.51
646.27	42883.30
646.42	42408.17
646.57	42763.93
646.71	43007.34
646.86	42644.56
647.00	42450.30
647.15	43012.02
647.30	42960.53
647.44	42157.73
647.59	42646.90
647.74	42672.65
647.88	42906.70
648.03	43021.39
648.17	43119.69
648.32	43164.16
648.47	43138.41
648.61	42454.98
648.76	42410.51
648.90	42239.65
649.05	42305.18
649.20	42813.08
649.34	42602.43
649.49	42639.88
649.63	42742.86
649.78	42927.77
649.92	42452.64
650.07	42831.80
650.21	42546.26
650.36	42588.39
650.51	42396.46
650.65	42340.29
650.80	42462.00
650.94	42309.86
651.09	42333.27
651.23	41947.08
651.38	42206.88
651.52	41572.60
651.67	42122.62
651.81	41933.04
651.96	42092.19
652.10	41687.28
652.25	41773.88
652.39	42190.50
652.54	41930.70
652.68	41867.50
652.83	42190.50
652.97	41947.08
653.12	41895.59
653.26	41804.31
653.41	41521.10
653.55	41783.24
653.70	41900.27
653.84	42005.59
653.99	41816.01
654.13	41736.43
654.27	41483.66
654.42	41736.43
654.56	41322.16
654.71	41633.45
654.85	42174.11
655.00	41670.90
655.14	41844.10
655.29	41944.74
655.43	41820.69
655.57	41078.74
655.72	41727.07
655.86	41265.99
656.01	41158.32
656.15	41280.03
656.30	41165.34
656.44	41034.27
656.58	41368.97
656.73	41106.83
656.87	41057.68
657.01	40818.94
657.16	40898.52
657.30	41085.76
657.45	41523.44
657.59	40807.24
657.73	40617.66
657.88	41146.62
658.02	41078.74
658.16	41553.87
658.31	41226.20
658.45	40676.17
658.60	40690.21
658.74	41029.59
658.88	40694.89
659.03	40828.30
659.17	40694.89
659.31	39985.71
659.46	40397.65
659.60	40538.08
659.74	40231.47
659.89	40334.45
660.03	40126.14
660.17	40051.25
660.32	40474.88
660.46	40294.66
660.60	39903.79
660.74	40233.81
660.89	40238.49
661.03	39744.64
661.17	39924.86
661.32	40041.88
661.46	40037.20
661.60	40037.20
661.74	40116.78
661.89	39735.27
662.03	39580.80
662.17	39529.31
662.31	39007.37
662.46	39859.32
662.60	39323.34
662.74	39089.29
662.88	39129.08
663.03	38815.44
663.17	39005.03
663.31	38796.72
663.45	39143.12
663.60	39615.91
663.74	39117.37
663.88	39374.83
664.02	38871.62
664.17	39103.33
664.31	38747.57
664.45	38665.65
664.59	38876.30
664.73	38731.18
664.88	39030.77
665.02	38597.77
665.16	38234.99
665.30	38642.24
665.44	38532.24
665.59	38340.32
665.73	37942.42
665.87	37900.29
666.01	37909.66
666.15	38075.84
666.29	37724.75
666.44	38300.53
666.58	38396.49
666.72	38216.27
666.86	38033.71
667.00	37776.25
667.14	37481.34
667.28	37993.92
667.43	37649.86
667.57	38216.27
667.71	37357.29
667.85	37865.19
667.99	37741.14
668.13	37202.82
668.27	37420.48
668.41	37139.62
668.56	36765.14
668.70	36617.68
668.84	36896.20
668.98	36964.08
669.12	37165.37
669.26	36510.02
669.40	36896.20
669.54	36811.95
669.68	37038.98
669.82	36699.60
669.96	36254.90
670.10	36364.90
670.25	36500.65
670.39	36339.16
670.53	36292.35
670.67	36123.83
670.81	36301.71
670.95	36474.91
671.09	35929.56
671.23	35943.61
671.37	35983.40
671.51	35875.73
671.65	35608.91
671.79	35868.71
671.93	35625.29
672.07	35901.48
672.21	35220.38
672.35	35229.74
672.49	35814.88
672.63	35721.26
672.77	35005.05
672.91	35185.27
673.05	35356.13
673.19	35154.85
673.33	34843.56
673.47	35000.37
673.61	34775.68
673.75	34712.49
673.89	34513.54
674.03	34487.79
674.17	34295.87
674.31	34113.31
674.45	34059.48
674.59	34319.28
674.73	33970.54
674.87	33947.13
675.01	33963.51
675.15	33844.15
675.29	33254.33
675.43	33596.05
675.56	33982.24
675.70	33605.41
675.84	33532.86
675.98	32217.47
676.12	33266.03
676.26	33378.38
676.40	32673.88
676.54	32786.22
676.68	32851.76
676.82	32147.26
676.96	32914.95
677.10	32556.85
677.23	32657.49
677.37	32432.80
677.51	32170.66
677.65	32257.26
677.79	31992.78
677.93	32205.77
678.07	31915.54
678.21	31775.11
678.34	31597.23
678.48	31292.96
678.62	31330.41
678.76	31536.38
678.90	31091.68
679.04	31208.70
679.18	31878.10
679.31	31419.35
679.45	30747.62
679.59	30913.80
679.73	30745.28
679.87	30958.27
680.00	30670.38
680.14	30354.41
680.28	30574.42
680.42	30118.01
680.56	30618.89
680.70	29961.20
680.83	29956.52
680.97	29970.56
681.11	30319.30
681.25	29692.04
681.39	29549.26
681.52	29677.99
681.66	29146.69
681.80	28863.49
681.94	29013.28
682.07	28940.72
682.21	28865.83
682.35	28493.68
682.49	28821.36
682.62	29221.59
682.76	29060.09
682.90	28545.17
683.04	28463.25
683.17	28304.10
683.31	28318.14
683.45	27889.82
683.59	27826.63
683.72	27594.92
683.86	27817.27
684.00	27709.60
684.13	27812.59
684.27	27414.69
684.41	27271.92
684.55	27419.38
684.68	26979.36
684.82	27077.66
684.96	27239.15
685.09	26918.50
685.23	27330.44
685.37	27264.90
685.50	27536.40
685.64	27037.87
685.78	26476.14
685.91	26412.95
686.05	26167.19
686.19	25818.45
686.32	25930.80
686.46	25589.08
686.60	25582.06
686.73	26036.12
686.87	25628.87
687.01	25816.11
687.14	25883.98
687.28	25614.82
687.42	25371.41
687.55	25364.39
687.69	25422.90
687.82	25032.03
687.96	25390.13
688.10	25099.90
688.23	24961.81
688.37	24849.47
688.50	24999.26
688.64	24877.55
688.78	24652.86
688.91	24540.52
689.05	24489.03
689.18	24149.65
689.32	23728.35
689.46	23531.75
689.59	23978.79
689.73	24257.31
689.86	23800.91
690.00	23714.31
690.13	23817.29
690.27	23590.26
690.41	23742.39
690.54	23068.32
690.68	23037.89
690.81	23278.97
690.95	23073.00
691.08	22721.92
691.22	22712.56
691.35	22558.08
691.49	23035.55
691.62	22829.59
691.76	22520.63
691.89	22104.02
692.03	21968.27
692.16	21956.57
692.30	22370.84
692.43	21687.40
692.57	21701.45
692.70	21851.24
692.84	21635.91
692.97	21331.64
693.11	21458.03
693.24	20952.48
693.38	21383.13
693.51	21071.84
693.65	21268.45
693.78	20973.54
693.92	20688.00
694.05	20978.22
694.19	20650.55
694.32	20613.10
694.45	21095.25
694.59	20627.14
694.72	20807.36
694.86	20233.93
694.99	20154.35
695.13	20060.73
695.26	19880.51
695.39	19894.55
695.53	19777.53
695.66	19784.55
695.80	19697.95
695.93	19697.95
696.07	19386.66
696.20	19112.81
696.33	18944.30
696.47	18855.36
696.60	19105.79
696.73	19246.23
696.87	19213.46
697.00	19173.67
697.14	18668.11
697.27	18714.92
697.40	18572.15
697.54	18438.74
697.67	18382.57
697.80	18438.74
697.94	18338.10
698.07	18305.33
698.21	18054.89
698.34	18263.20
698.47	18026.81
698.61	17514.23
698.74	17844.24
698.87	17624.23
699.01	17336.35
699.14	17755.30
699.27	17523.59
699.40	17261.45
699.54	17224.00
699.67	17474.44
699.80	17324.65
699.94	16933.78
700.07	17188.89
700.20	16702.06
700.34	16688.02
700.47	16599.08
700.60	16676.32
700.73	16465.67
700.87	16592.06
701.00	16238.64
701.13	16365.03
701.26	16379.07
701.40	16353.32
701.53	15997.56
701.66	15953.09
701.79	16112.25
701.93	15822.02
702.06	15597.33
702.19	15744.78
702.32	15962.45
702.46	15714.36
702.59	15939.05
702.72	15836.06
702.85	15562.22
702.99	15517.75
703.12	15176.03
703.25	15194.76
703.38	14946.66
703.51	14946.66
703.65	15012.20
703.78	14623.67
703.91	14675.16
704.04	14916.23
704.17	14466.85
704.31	14738.35
704.44	14520.68
704.57	14340.46
704.70	14321.74
704.83	14312.38
704.96	14064.28
705.10	13907.46
705.23	14040.87
>>>>>End Processed Spectral Data<<<<<
