SpectraSuite Data File
++++++++++++++++++++++++++++++++++++
Date: Fri Oct 25 10:43:57 EDT 2013
User: price-jones
Dark Spectrum Present: No
Reference Spectrum Present: No
Number of Sampled Component Spectra: 1
Spectrometers: USB2+H05261
Integration Time (usec): 100000 (USB2+H05261)
Spectra Averaged: 1 (USB2+H05261)
Boxcar Smoothing: 0 (USB2+H05261)
Correct for Electrical Dark: No (USB2+H05261)
Strobe/Lamp Enabled: No (USB2+H05261)
Correct for Detector Non-linearity: No (USB2+H05261)
Correct for Stray Light: No (USB2+H05261)
Number of Pixels in Processed Spectrum: 2048
>>>>>Begin Processed Spectral Data<<<<<
365.73	46.81
365.92	46.81
366.12	46.81
366.32	88.94
366.52	35.11
366.72	65.54
366.91	37.45
367.11	86.60
367.31	28.09
367.51	53.83
367.70	2.34
367.90	4.68
368.10	42.13
368.30	0.00
368.49	18.72
368.69	56.17
368.89	16.38
369.09	77.24
369.28	77.24
369.48	18.72
369.68	56.17
369.87	100.64
370.07	44.47
370.27	32.77
370.47	203.63
370.66	388.53
370.86	514.92
371.06	442.36
371.25	477.47
371.45	444.70
371.65	564.07
371.84	440.02
372.04	512.58
372.24	489.17
372.44	456.40
372.63	540.66
372.83	465.77
373.03	514.92
373.22	458.74
373.42	575.77
373.62	496.19
373.81	610.88
374.01	543.00
374.21	545.34
374.40	568.75
374.60	545.34
374.79	519.60
374.99	606.20
375.19	596.84
375.38	624.92
375.58	599.18
375.78	578.11
375.97	624.92
376.17	550.03
376.37	603.86
376.56	606.20
376.76	662.37
376.95	667.05
377.15	683.44
377.35	650.67
377.54	781.74
377.74	578.11
377.93	615.56
378.13	615.56
378.33	622.58
378.52	667.05
378.72	648.33
378.91	648.33
379.11	685.78
379.31	653.01
379.50	685.78
379.70	706.84
379.89	662.37
380.09	638.97
380.28	650.67
380.48	699.82
380.68	716.20
380.87	681.10
381.07	713.86
381.26	674.07
381.46	720.88
381.65	669.39
381.85	734.93
382.04	788.76
382.24	765.36
382.43	802.80
382.63	748.97
382.83	638.97
383.02	676.41
383.22	734.93
383.41	737.27
383.61	718.54
383.80	755.99
384.00	751.31
384.19	788.76
384.39	849.61
384.58	814.51
384.78	819.19
384.97	732.59
385.17	805.14
385.36	784.08
385.56	784.08
385.75	805.14
385.95	870.68
386.14	847.27
386.34	868.34
386.53	924.51
386.72	774.72
386.92	901.11
387.11	868.34
387.31	884.72
387.50	938.55
387.70	814.51
387.89	933.87
388.09	919.83
388.28	884.72
388.48	924.51
388.67	936.21
388.86	901.11
389.06	915.15
389.25	1020.47
389.45	947.92
389.64	959.62
389.84	1055.58
390.03	961.96
390.22	1114.10
390.42	1064.94
390.61	1013.45
390.81	1013.45
391.00	1100.05
391.19	1118.78
391.39	1128.14
391.58	1041.54
391.78	1018.13
391.97	1071.97
392.16	1043.88
392.36	1064.94
392.55	1032.18
392.75	1046.22
392.94	957.28
393.13	1135.16
393.33	973.66
393.52	1064.94
393.71	1165.59
393.91	1093.03
394.10	1149.20
394.29	1125.80
394.49	1203.04
394.68	1174.95
394.88	1289.64
395.07	1198.35
395.26	1188.99
395.46	1252.19
395.65	1210.06
395.84	1170.27
396.04	1217.08
396.23	1179.63
396.42	1245.16
396.62	1193.67
396.81	1200.69
397.00	1212.40
397.19	1301.34
397.39	1378.58
397.58	1352.83
397.77	1404.32
397.97	1446.45
398.16	1495.60
398.35	1481.56
398.55	1462.83
398.74	1561.14
398.93	1544.75
399.12	1519.01
399.32	1460.49
399.51	1579.86
399.70	1591.56
399.90	1549.43
400.09	1666.46
400.28	1668.80
400.47	1680.50
400.67	1668.80
400.86	1781.15
401.05	1717.95
401.24	1713.27
401.44	1710.93
401.63	1813.92
401.82	1806.89
402.01	1767.10
402.21	1790.51
402.40	1774.13
402.59	1753.06
402.78	1902.86
402.97	1781.15
403.17	1802.21
403.36	1870.09
403.55	1916.90
403.74	1837.32
403.93	1858.39
404.13	1926.26
404.32	1856.04
404.51	1984.77
404.70	1982.43
404.89	1949.67
405.09	1991.80
405.28	2059.67
405.47	2033.93
405.66	2031.58
405.85	2097.12
406.05	1909.88
406.24	2059.67
406.43	2062.01
406.62	2052.65
406.81	2214.15
407.00	2176.70
407.20	2043.29
407.39	2134.57
407.58	2200.10
407.77	2214.15
407.96	2183.72
408.15	2275.00
408.34	2267.98
408.54	2354.58
408.73	2417.77
408.92	2387.35
409.11	2338.20
409.30	2380.32
409.49	2422.45
409.68	2385.01
409.87	2354.58
410.07	2516.08
410.26	2436.50
410.45	2375.64
410.64	2567.57
410.83	2621.40
411.02	2665.87
411.21	2616.72
411.40	2581.61
411.59	2682.25
411.78	2710.34
411.98	2682.25
412.17	2726.72
412.36	2759.49
412.55	2818.00
412.74	2867.16
412.93	2846.09
413.12	2792.26
413.31	2864.82
413.50	2902.26
413.69	2902.26
413.88	3035.67
414.07	3000.57
414.26	3049.72
414.45	3007.59
414.64	3009.93
414.83	3068.44
415.02	3201.85
415.22	3150.36
415.41	3122.27
415.60	3281.43
415.79	3218.24
415.98	3260.37
416.17	3267.39
416.36	3344.63
416.55	3358.67
416.74	3524.85
416.93	3456.97
417.12	3353.99
417.31	3307.18
417.50	3485.06
417.69	3557.61
417.88	3576.34
418.07	3494.42
418.26	3456.97
418.45	3665.28
418.64	3786.99
418.83	3698.05
419.02	3698.05
419.21	3662.94
419.39	3599.74
419.58	3634.85
419.77	3712.09
419.96	3681.66
420.15	3742.52
420.34	3674.64
420.53	3812.73
420.72	3833.80
420.91	3904.01
421.10	3798.69
421.29	3866.56
421.48	3962.53
421.67	3932.10
421.86	3964.87
422.05	3995.29
422.24	3906.35
422.43	3932.10
422.61	3908.69
422.80	3861.88
422.99	3854.86
423.18	4098.28
423.37	4180.20
423.56	4084.23
423.75	3960.19
423.94	4072.53
424.13	3840.82
424.32	3894.65
424.50	3969.55
424.69	4093.60
424.88	4100.62
425.07	4046.79
425.26	3843.16
425.45	3992.95
425.64	4124.02
425.83	4028.06
426.01	4093.60
426.20	4133.39
426.39	4201.26
426.58	4067.85
426.77	4091.26
426.96	4100.62
427.15	4065.51
427.33	4109.98
427.52	4128.70
427.71	4276.16
427.90	4201.26
428.09	4297.22
428.28	4262.12
428.46	4255.09
428.65	4339.35
428.84	4154.45
429.03	4397.87
429.22	4107.64
429.40	4105.30
429.59	4182.54
429.78	3955.51
429.97	3911.04
430.16	4100.62
430.34	4241.05
430.53	4201.26
430.72	4318.29
430.91	4287.86
431.10	4409.57
431.28	4645.96
431.47	4697.46
431.66	4847.25
431.85	4723.20
432.03	4648.30
432.22	4704.48
432.41	4634.26
432.60	4812.14
432.79	4765.33
432.97	4870.65
433.16	4772.35
433.35	4755.97
433.54	4620.22
433.72	4833.21
433.91	4767.67
434.10	4858.95
434.28	4959.60
434.47	5018.11
434.66	5125.77
434.85	5142.16
435.03	4943.21
435.22	5083.64
435.41	5163.22
435.59	5238.12
435.78	5252.16
435.97	5198.33
436.16	5137.48
436.34	5254.50
436.53	5345.78
436.72	5444.09
436.90	5207.69
437.09	5275.57
437.28	5268.55
437.46	5371.53
437.65	5411.32
437.84	5336.42
438.02	5186.63
438.21	5275.57
438.40	5205.35
438.58	5427.70
438.77	5738.99
438.96	5469.83
439.14	5818.57
439.33	5643.03
439.52	5696.86
439.70	5795.17
439.89	5706.23
440.08	5605.58
440.26	5839.64
440.45	5844.32
440.63	5977.73
440.82	6008.16
441.01	6160.29
441.19	6207.10
441.38	6300.72
441.57	6289.02
441.75	6373.28
441.94	6427.11
442.12	6518.39
442.31	6333.49
442.50	6441.15
442.68	6429.45
442.87	6443.49
443.05	6530.09
443.24	6670.53
443.43	6595.63
443.61	6546.48
443.80	6743.08
443.98	6487.96
444.17	6420.09
444.35	6700.95
444.54	6911.60
444.73	6633.08
444.91	6665.85
445.10	6682.23
445.28	6626.06
445.47	6693.93
445.65	6700.95
445.84	6836.70
446.02	6745.42
446.21	6799.26
446.39	6579.25
446.58	6817.98
446.77	6782.87
446.95	6581.59
447.14	7042.67
447.32	6951.39
447.51	6780.53
447.69	6733.72
447.88	6967.77
448.06	6726.70
448.25	6918.62
448.43	6932.67
448.62	6979.48
448.80	6862.45
448.99	7061.40
449.17	7045.01
449.36	7140.97
449.54	7236.94
449.73	7232.26
449.91	7396.09
450.10	7382.05
450.28	7447.58
450.46	7426.52
450.65	7382.05
450.83	7566.95
451.02	7321.20
451.20	7487.37
451.39	7562.27
451.57	7470.99
451.76	7384.39
451.94	7398.43
452.13	7515.46
452.31	7545.89
452.49	7295.45
452.68	7541.21
452.86	7501.42
453.05	7454.61
453.23	7653.55
453.42	7489.71
453.60	7625.47
453.78	7559.93
453.97	7447.58
454.15	7393.75
454.34	7639.51
454.52	7775.26
454.70	7709.72
454.89	7707.38
455.07	7822.07
455.26	7885.26
455.44	8009.31
455.62	8004.63
455.81	7974.21
455.99	8147.40
456.17	8056.12
456.36	8028.04
456.54	7969.52
456.73	8194.22
456.91	8374.44
457.09	8360.39
457.28	8528.91
457.46	8189.53
457.64	8329.97
457.83	8215.28
458.01	8203.58
458.19	8557.00
458.38	8482.10
458.56	8571.04
458.74	8397.84
458.93	8196.56
459.11	8297.20
459.29	8599.13
459.48	8634.24
459.66	8587.43
459.84	8549.98
460.03	8774.67
460.21	8622.53
460.39	8704.45
460.57	8709.13
460.76	8765.31
460.94	8678.71
461.12	8861.27
461.31	8800.41
461.49	8961.91
461.67	8945.53
461.85	8992.34
462.04	9081.28
462.22	9118.73
462.40	9130.43
462.59	9273.20
462.77	9095.32
462.95	9109.36
463.13	9266.18
463.32	9303.63
463.50	9235.75
463.68	9235.75
463.86	9352.78
464.05	9158.52
464.23	9212.35
464.41	9317.67
464.59	9132.77
464.78	9284.91
464.96	9348.10
465.14	9160.86
465.32	9345.76
465.50	9430.02
465.69	9434.70
465.87	9493.21
466.05	9516.62
466.23	9296.61
466.41	9315.33
466.60	9795.14
466.78	9357.46
466.96	9586.83
467.14	9661.73
467.32	9430.02
467.51	9720.24
467.69	9430.02
467.87	9570.45
468.05	9647.69
468.23	9792.80
468.41	9551.73
468.60	9647.69
468.78	10073.67
468.96	9944.94
469.14	10008.13
469.32	10073.67
469.50	9558.75
469.69	10263.25
469.87	9893.44
470.05	9921.53
470.23	9872.38
470.41	10228.14
470.59	10167.29
470.77	10078.35
470.95	10090.05
471.14	10307.72
471.32	10328.78
471.50	10663.48
471.68	10434.11
471.86	10656.46
472.04	10888.17
472.22	10932.64
472.40	10417.72
472.58	10670.50
472.77	10766.46
472.95	10771.15
473.13	11040.31
473.31	10677.52
473.49	10925.62
473.67	11026.26
473.85	10986.47
474.03	11133.93
474.21	11309.47
474.39	11412.45
474.57	11386.71
474.75	11410.11
474.93	11445.22
475.12	11398.41
475.30	11705.02
475.48	11562.25
475.66	11705.02
475.84	11566.93
476.02	11637.14
476.20	11714.38
476.38	12067.80
476.56	11992.90
476.74	12250.36
476.92	12156.74
477.10	12205.89
477.28	12203.55
477.46	12250.36
477.64	12453.99
477.82	12695.07
478.00	12666.98
478.18	12889.33
478.36	12851.88
478.54	13123.38
478.72	12638.89
478.90	13092.96
479.08	13640.64
479.26	13341.05
479.44	13514.25
479.62	13696.82
479.80	13612.56
479.98	13813.84
480.16	14094.71
480.34	14061.94
480.52	14031.51
480.70	14115.77
480.88	13923.85
481.06	14122.79
481.24	14487.92
481.41	14633.03
481.59	14794.53
481.77	14998.15
481.95	14895.17
482.13	15119.86
482.31	15190.08
482.49	15220.50
482.67	15396.04
482.85	15246.25
483.03	15779.89
483.21	15634.78
483.39	15793.94
483.57	15836.06
483.74	15941.39
483.92	15910.96
484.10	15880.53
484.28	16395.45
484.46	16374.39
484.64	16868.24
484.82	16765.26
485.00	16648.23
485.18	16549.93
485.35	16791.00
485.53	16655.25
485.71	16245.66
485.89	16826.11
486.07	16791.00
486.25	16882.28
486.43	17523.59
486.61	17319.96
486.78	17626.57
486.96	17551.68
487.14	18178.94
487.32	17930.84
487.50	18312.35
487.68	18541.72
487.85	18773.44
488.03	18843.65
488.21	19061.32
488.39	19133.88
488.57	19260.27
488.75	19332.82
488.92	19573.90
489.10	19765.82
489.28	19822.00
489.46	20147.33
489.64	20140.31
489.81	20638.84
489.99	20444.58
490.17	20673.95
490.35	20657.57
490.53	20704.38
490.70	20980.56
490.88	20931.41
491.06	21696.77
491.24	21577.40
491.41	20865.88
491.59	21219.30
491.77	21128.02
491.95	21106.95
492.13	21635.91
492.30	22244.45
492.48	22188.28
492.66	22443.40
492.84	22532.34
493.01	22380.20
493.19	22703.20
493.37	22607.23
493.54	22710.22
493.72	23164.28
493.90	23197.05
494.08	23281.31
494.25	23639.41
494.43	23648.77
494.61	24079.43
494.79	24198.80
494.96	24105.18
495.14	23861.76
495.32	24151.99
495.49	24109.86
495.67	24561.58
495.85	24613.07
496.02	24814.36
496.20	24858.83
496.38	24945.43
496.55	25001.60
496.73	25357.36
496.91	25149.06
497.09	25862.92
497.26	25720.15
497.44	26008.03
497.62	25673.34
497.79	25872.28
497.97	25666.31
498.14	25659.29
498.32	26642.32
498.50	25956.54
498.67	26705.51
498.85	26658.70
499.03	27115.11
499.20	26876.37
499.38	26670.40
499.56	27014.46
499.73	27012.12
499.91	27147.87
500.08	27388.95
500.26	26850.63
500.44	26852.97
500.61	27218.09
500.79	27482.57
500.97	27517.68
501.14	27536.40
501.32	27690.88
501.49	27763.43
501.67	27676.83
501.84	28060.68
502.02	28166.01
502.20	28346.23
502.37	28409.42
502.55	28613.05
502.72	28999.24
502.90	28844.76
503.07	28645.82
503.25	28882.21
503.43	28985.19
503.60	28687.95
503.78	28922.00
503.95	28760.50
504.13	29355.00
504.30	29142.01
504.48	29521.18
504.65	29392.45
504.83	29621.82
505.01	30085.25
505.18	29621.82
505.36	30630.59
505.53	30082.91
505.71	29940.13
505.88	30426.96
506.06	30017.37
506.23	30368.45
506.41	30164.82
506.58	30752.30
506.76	30976.99
506.93	30445.69
507.11	30438.67
507.28	30609.53
507.46	30705.49
507.63	30754.64
507.81	31182.96
507.98	31000.40
508.16	30899.75
508.33	31012.10
508.50	31105.72
508.68	31562.12
508.85	31496.59
509.03	31454.46
509.20	31887.46
509.38	32002.14
509.55	31889.80
509.73	32119.17
509.90	31845.33
510.08	32018.53
510.25	32023.21
510.42	32060.66
510.60	32264.28
510.77	32252.58
510.95	32847.08
511.12	32826.01
511.30	32758.14
511.47	32903.25
511.64	32950.06
511.82	33528.17
511.99	32769.84
512.17	32830.69
512.34	32634.09
512.51	33249.65
512.69	33762.23
512.86	33191.14
513.04	33392.42
513.21	33310.50
513.38	33261.35
513.56	33839.47
513.73	33418.17
513.90	33560.94
514.08	33399.44
514.25	33956.49
514.43	33483.70
514.60	34110.97
514.77	33926.07
514.95	34543.97
515.12	34066.50
515.29	34270.12
515.47	34588.44
515.64	34815.47
515.81	34403.53
515.99	34464.39
516.16	34384.81
516.33	34054.79
516.51	34426.94
516.68	33633.50
516.85	33853.51
517.03	34387.15
517.20	34546.31
517.37	34602.48
517.54	35592.53
517.72	35000.37
517.89	34778.02
518.06	34382.47
518.24	34717.17
518.41	35316.34
518.58	35295.28
518.75	34944.20
518.93	35723.60
519.10	35377.20
519.27	35871.05
519.45	36105.10
519.62	35838.28
519.79	35681.47
519.96	35908.50
520.14	36222.13
520.31	36172.98
520.48	36081.70
520.65	36570.87
520.83	36638.75
521.00	36816.63
521.17	36575.55
521.34	36437.46
521.52	36858.76
521.69	36659.81
521.86	37046.00
522.03	37179.41
522.20	37041.32
522.38	36776.84
522.55	37261.33
522.72	36655.13
522.89	36900.89
523.07	37214.52
523.24	37317.50
523.41	37441.55
523.58	37605.39
523.75	38263.08
523.92	37680.28
524.10	38408.19
524.27	37958.81
524.44	37801.99
524.61	38230.31
524.78	38466.70
524.96	38328.61
525.13	38749.91
525.30	38667.99
525.47	38588.41
525.64	38234.99
525.81	38522.88
525.98	38440.96
526.16	37670.92
526.33	38293.50
526.50	38174.14
526.67	38094.56
526.84	37944.76
527.01	38195.20
527.18	38307.55
527.36	38883.32
527.53	38969.92
527.70	38934.81
527.87	39250.78
528.04	39070.56
528.21	38906.73
528.38	39356.11
528.55	39356.11
528.72	39374.83
528.89	39562.08
529.07	39454.41
529.24	39161.84
529.41	39480.16
529.58	39412.28
529.75	39337.38
529.92	39824.22
530.09	39948.26
530.26	39718.89
530.43	39770.38
530.60	39672.08
530.77	39999.76
530.94	40084.01
531.11	40652.76
531.28	40198.70
531.46	40528.72
531.63	40306.37
531.80	40140.19
531.97	40353.18
532.14	40465.52
532.31	40086.36
532.48	40151.89
532.65	40346.15
532.82	40009.12
532.99	40332.11
533.16	40179.98
533.33	40624.68
533.50	40835.33
533.67	40767.45
533.84	40559.14
534.01	40741.71
534.18	40683.19
534.35	40840.01
534.52	41076.40
534.69	40959.38
534.86	41282.37
535.03	40987.46
535.20	41624.09
535.37	41596.00
535.54	41530.47
535.71	41139.60
535.88	41586.64
536.05	41523.44
536.22	41401.74
536.38	41710.69
536.55	41357.27
536.72	41734.09
536.89	40964.06
537.06	41425.14
537.23	41942.40
537.40	41607.70
537.57	42017.30
537.74	41900.27
537.91	42401.14
538.08	41975.17
538.25	42061.77
538.42	41853.46
538.59	42349.65
538.75	41734.09
538.92	42377.74
539.09	42059.43
539.26	42333.27
539.43	42251.35
539.60	42344.97
539.77	41820.69
539.94	42164.75
540.11	42012.62
540.28	42085.17
540.44	42281.78
540.61	41706.01
540.78	42129.64
540.95	42113.26
541.12	42253.69
541.29	42424.55
541.46	42412.85
541.62	42740.52
541.79	42916.06
541.96	42178.79
542.13	42745.20
542.30	42649.24
542.47	42478.38
542.63	43115.01
542.80	42625.84
542.97	43501.20
543.14	43636.95
543.31	43517.58
543.48	43278.85
543.64	43920.15
543.81	43496.52
543.98	43510.56
544.15	43498.86
544.32	43906.11
544.48	44083.99
544.65	43730.57
544.82	43985.69
544.99	43222.67
545.16	43861.64
545.32	43299.91
545.49	44102.71
545.66	44411.67
545.83	44161.23
546.00	44177.61
546.16	43782.06
546.33	43887.39
546.50	43592.48
546.67	44233.78
546.83	43744.61
547.00	44147.18
547.17	43746.95
547.34	44175.27
547.50	43402.89
547.67	44140.16
547.84	43908.45
548.00	44474.86
548.17	44636.36
548.34	44568.48
548.51	44395.28
548.67	44531.03
548.84	44261.87
549.01	43964.62
549.18	44713.59
549.34	44540.39
549.51	44528.69
549.68	44996.80
549.84	44711.25
550.01	44968.71
550.18	44786.15
550.34	44690.19
550.51	44772.11
550.68	44828.28
550.84	44498.26
551.01	44573.16
551.18	44786.15
551.34	44825.94
551.51	44999.14
551.68	45572.57
551.84	45528.10
552.01	44694.87
552.18	44814.24
552.34	44605.93
552.51	44893.82
552.68	44877.43
552.84	45268.30
553.01	44975.73
553.18	45235.53
553.34	45099.78
553.51	45160.64
553.67	45172.34
553.84	45951.74
554.01	45514.06
554.17	45223.83
554.34	45408.73
554.51	45483.63
554.67	45528.10
554.84	45682.58
555.00	45331.50
555.17	45055.31
555.33	45476.61
555.50	45343.20
555.67	45242.56
555.83	45352.56
556.00	45488.31
556.16	46017.27
556.33	45303.41
556.50	45535.12
556.66	45654.49
556.83	45216.81
556.99	45659.17
557.16	45635.77
557.32	45942.38
557.49	45696.62
557.65	45626.40
557.82	45935.35
557.98	45874.50
558.15	45677.90
558.32	45652.15
558.48	45413.41
558.65	45881.52
558.81	45170.00
558.98	45579.59
559.14	45329.16
559.31	45727.05
559.47	45731.73
559.64	45944.72
559.80	45911.95
559.97	46087.49
560.13	45888.54
560.30	45879.18
560.46	45858.12
560.63	45897.91
560.79	45904.93
560.96	46492.40
561.12	45705.98
561.29	46007.91
561.45	45982.16
561.61	46265.37
561.78	46110.89
561.94	45296.39
562.11	45900.25
562.27	45799.60
562.44	45935.35
562.60	46225.58
562.77	45914.29
562.93	46005.57
563.10	46333.24
563.26	45956.42
563.42	46583.68
563.59	46391.76
563.75	46192.81
563.92	46054.72
564.08	46408.14
564.24	46691.35
564.41	46326.22
564.57	46419.84
564.74	46747.52
564.90	46408.14
565.07	46017.27
565.23	46096.85
565.39	46181.11
565.56	46658.58
565.72	45993.87
565.88	46497.08
566.05	46141.32
566.21	46256.01
566.38	46499.42
566.54	46141.32
566.70	46635.17
566.87	46813.05
567.03	46087.49
567.19	46822.42
567.36	46454.95
567.52	46279.41
567.68	46515.81
567.85	46681.98
568.01	46845.82
568.17	46665.60
568.34	46600.07
568.50	46349.63
568.66	46506.44
568.83	46614.11
568.99	46019.61
569.15	46450.27
569.32	46553.26
569.48	46394.10
569.64	46775.61
569.81	46490.06
569.97	46653.90
570.13	46705.39
570.30	46131.96
570.46	46265.37
570.62	46305.16
570.78	46181.11
570.95	46623.47
571.11	46410.48
571.27	46728.80
571.43	46417.50
571.60	46438.57
571.76	46962.85
571.92	46927.74
572.09	46426.87
572.25	46586.02
572.41	47079.88
572.57	46801.35
572.74	47126.69
572.90	46892.63
573.06	46829.44
573.22	46976.89
573.38	46405.80
573.55	46382.40
573.71	46927.74
573.87	46829.44
574.03	46600.07
574.20	46857.52
574.36	46852.84
574.52	47049.45
574.68	46621.13
574.84	46609.43
575.01	46574.32
575.17	46869.23
575.33	46178.77
575.49	46429.21
575.65	46667.94
575.82	46742.84
575.98	46195.15
576.14	46728.80
576.30	47065.83
576.46	46473.68
576.62	46684.33
576.79	46597.73
576.95	46384.74
577.11	46424.53
577.27	46794.33
577.43	46611.77
577.59	46649.22
577.75	46307.50
577.92	46134.30
578.08	46124.94
578.24	46230.26
578.40	46241.96
578.56	46614.11
578.72	46380.06
578.88	46967.53
579.04	46967.53
579.21	46277.07
579.37	46611.77
579.53	46995.62
579.69	46602.41
579.85	47040.09
580.01	46672.62
580.17	46504.10
580.33	46909.02
580.49	46962.85
580.65	46857.52
580.82	46452.61
580.98	46621.13
581.14	46836.46
581.30	46951.15
581.46	46920.72
581.62	47037.75
581.78	46602.41
581.94	47255.42
582.10	46440.91
582.26	47093.92
582.42	46993.28
582.58	47037.75
582.74	46763.90
582.90	47185.20
583.06	47302.23
583.22	46904.34
583.38	46883.27
583.54	46965.19
583.70	46897.31
583.86	46808.37
584.02	46639.86
584.18	46965.19
584.34	46878.59
584.50	46681.98
584.66	46614.11
584.82	46806.03
584.98	46726.46
585.14	46443.25
585.30	46859.87
585.46	46714.75
585.62	46595.38
585.78	46679.64
585.94	46511.13
586.10	46693.69
586.26	46358.99
586.42	47117.32
586.58	46689.01
586.74	46880.93
586.90	46693.69
587.06	47133.71
587.22	46487.72
587.38	46579.00
587.54	46983.91
587.70	46850.50
587.86	46630.49
588.02	46651.56
588.18	46873.91
588.34	46571.98
588.49	46061.74
588.65	46120.26
588.81	46349.63
588.97	46234.94
589.13	46157.70
589.29	46295.80
589.45	46745.18
589.61	46923.06
589.77	46492.40
589.93	46679.64
590.08	46852.84
590.24	46843.48
590.40	47096.26
590.56	47201.58
590.72	47000.30
590.88	46880.93
591.04	46609.43
591.20	47327.97
591.35	46796.67
591.51	47419.25
591.67	47131.37
591.83	46841.14
591.99	46904.34
592.15	46845.82
592.31	46941.78
592.46	46951.15
592.62	46909.02
592.78	46955.83
592.94	47033.07
593.10	46607.09
593.26	46791.99
593.41	47306.91
593.57	46873.91
593.73	46663.26
593.89	47154.77
594.05	47234.35
594.20	46686.67
594.36	46972.21
594.52	46635.17
594.68	47068.17
594.84	46852.84
594.99	46911.36
595.15	46733.48
595.31	47365.42
595.47	46979.23
595.62	46995.62
595.78	46904.34
595.94	47030.72
596.10	47220.31
596.25	46869.23
596.41	47122.01
596.57	46586.02
596.73	47129.03
596.88	46864.55
597.04	46878.59
597.20	47234.35
597.36	47000.30
597.51	47267.12
597.67	47065.83
597.83	47250.74
597.99	46997.96
598.14	47227.33
598.30	47194.56
598.46	46820.08
598.61	46700.71
598.77	46934.76
598.93	46749.86
599.09	47079.88
599.24	47536.28
599.40	47360.74
599.56	47107.96
599.71	46773.27
599.87	47199.24
600.03	46681.98
600.18	46981.57
600.34	46897.31
600.50	46960.51
600.65	47131.37
600.81	47117.32
600.97	47105.62
601.12	47484.79
601.28	46981.57
601.44	47019.02
601.59	46710.07
601.75	47070.51
601.91	46890.29
602.06	46780.29
602.22	46841.14
602.37	46864.55
602.53	46960.51
602.69	47360.74
602.84	46993.28
603.00	46953.49
603.16	46724.11
603.31	46590.70
603.47	46658.58
603.62	46972.21
603.78	46894.97
603.94	46878.59
604.09	47320.95
604.25	46997.96
604.40	46932.42
604.56	46836.46
604.71	46855.18
604.87	47016.68
605.03	46632.83
605.18	46869.23
605.34	46813.05
605.49	46553.26
605.65	46738.16
605.80	46504.10
605.96	47056.47
606.12	46693.69
606.27	47178.18
606.43	46789.65
606.58	46848.16
606.74	46443.25
606.89	46614.11
607.05	46796.67
607.20	46546.23
607.36	46930.08
607.51	46632.83
607.67	46651.56
607.82	46916.04
607.98	46457.29
608.13	46293.46
608.29	46354.31
608.44	46490.06
608.60	45942.38
608.75	46550.91
608.91	46635.17
609.06	46562.62
609.22	46515.81
609.37	45972.80
609.53	46595.38
609.68	46761.56
609.84	46239.62
609.99	46426.87
610.15	45902.59
610.30	46064.08
610.46	46080.47
610.61	46078.13
610.76	46368.35
610.92	46391.76
611.07	46174.09
611.23	46342.61
611.38	46274.73
611.54	46197.49
611.69	45549.17
611.84	46080.47
612.00	46082.81
612.15	45935.35
612.31	46024.29
612.46	46141.32
612.62	46085.15
612.77	46073.45
612.92	46541.55
613.08	46169.41
613.23	46000.89
613.39	45888.54
613.54	45537.46
613.69	45830.03
613.85	45900.25
614.00	46284.09
614.15	45701.30
614.31	45935.35
614.46	45804.28
614.62	45914.29
614.77	45443.84
614.92	45785.56
615.08	45928.33
615.23	45656.83
615.38	45270.64
615.54	45528.10
615.69	45808.96
615.84	45301.07
616.00	45565.55
616.15	45607.68
616.30	45546.82
616.46	45308.09
616.61	45418.10
616.76	45050.63
616.92	45050.63
617.07	45490.65
617.22	45244.90
617.37	44982.76
617.53	45439.16
617.68	45801.94
617.83	45394.69
617.99	45392.35
618.14	44940.63
618.29	45137.23
618.45	45010.84
618.60	44746.36
618.75	44879.77
618.90	44727.64
619.06	44971.05
619.21	45291.71
619.36	45184.04
619.51	45205.11
619.67	44954.67
619.82	45188.72
619.97	45151.27
620.12	44744.02
620.28	44514.65
620.43	44872.75
620.58	44678.49
620.73	44889.13
620.89	44605.93
621.04	44580.18
621.19	44505.29
621.34	44804.88
621.49	44294.64
621.65	44519.33
621.80	44844.66
621.95	44509.97
622.10	44680.83
622.25	44245.49
622.41	44603.59
622.56	44350.81
622.71	44905.52
622.86	44601.25
623.01	44507.63
623.16	44278.25
623.32	44392.94
623.47	43962.28
623.62	44030.16
623.77	44004.41
623.92	44559.12
624.07	44137.82
624.23	44011.43
624.38	44091.01
624.53	43697.80
624.68	44376.56
624.83	43999.73
624.98	43604.18
625.13	43714.19
625.29	43756.32
625.44	43622.90
625.59	43590.14
625.74	43285.87
625.89	43957.60
626.04	43274.16
626.19	43475.45
626.34	43430.98
626.49	43868.66
626.65	43583.12
626.80	44076.97
626.95	43440.34
627.10	43426.30
627.25	43393.53
627.40	43423.96
627.55	43065.86
627.70	43012.02
627.85	43079.90
628.00	43311.61
628.15	43210.97
628.30	43426.30
628.45	43131.39
628.60	43232.04
628.76	43304.59
628.91	43030.75
629.06	43082.24
629.21	43100.97
629.36	43229.69
629.51	42679.67
629.66	42478.38
629.81	42770.95
629.96	43119.69
630.11	43086.92
630.26	43100.97
630.41	42511.15
630.56	42735.84
630.71	42763.93
630.86	42452.64
631.01	42611.79
631.16	42703.07
631.31	42295.82
631.46	42281.78
631.61	42286.46
631.76	42873.93
631.91	42843.51
632.06	42525.19
632.21	43044.79
632.36	42672.65
632.51	42323.91
632.66	42607.11
632.81	42139.00
632.96	42232.63
633.10	42302.84
633.25	42782.65
633.40	42794.36
633.55	42724.14
633.70	42314.55
633.85	42344.97
634.00	42333.27
634.15	42106.24
634.30	41808.99
634.45	41935.38
634.60	42274.76
634.75	42188.16
634.90	41869.84
635.05	41968.15
635.19	42043.04
635.34	42113.26
635.49	42047.72
635.64	41696.64
635.79	42134.32
635.94	41918.99
636.09	42164.75
636.24	41820.69
636.39	41743.45
636.53	41481.31
636.68	41329.18
636.83	41921.34
636.98	41825.37
637.13	41502.38
637.28	41996.23
637.43	42131.98
637.57	41816.01
637.72	41586.64
637.87	41783.24
638.02	41993.89
638.17	41429.82
638.32	41879.21
638.46	41820.69
638.61	41406.42
638.76	41324.50
638.91	41560.89
639.06	41631.11
639.20	41549.19
639.35	41881.55
639.50	41542.17
639.65	41511.74
639.80	41148.96
639.94	40711.28
640.09	40952.35
640.24	41165.34
640.39	41134.92
640.54	41139.60
640.68	41198.11
640.83	40889.16
640.98	41165.34
641.13	41069.38
641.27	41034.27
641.42	40982.78
641.57	40727.66
641.72	40982.78
641.86	40774.47
642.01	40690.21
642.16	40542.76
642.31	40360.20
642.45	40734.68
642.60	40133.17
642.75	40725.32
642.90	40601.27
643.04	40376.58
643.19	40315.73
643.34	40577.87
643.48	40423.39
643.63	40561.48
643.78	40547.44
643.93	40315.73
644.07	40587.23
644.22	40299.34
644.37	39943.58
644.51	40418.71
644.66	40315.73
644.81	40198.70
644.95	40238.49
645.10	40264.24
645.25	40161.25
645.39	40116.78
645.54	40046.57
645.69	39709.53
645.83	40039.54
645.98	39859.32
646.13	40271.26
646.27	40133.17
646.42	39962.31
646.57	39847.62
646.71	40051.25
646.86	39625.27
647.00	39772.72
647.15	40023.16
647.30	39772.72
647.44	39613.57
647.59	39681.44
647.74	39768.04
647.88	39842.94
648.03	40098.06
648.17	39852.30
648.32	38944.17
648.47	39786.77
648.61	39555.05
648.76	39985.71
648.90	39302.28
649.05	39751.66
649.20	39629.95
649.34	39316.32
649.49	39253.12
649.63	38871.62
649.78	39639.31
649.92	39405.26
650.07	39859.32
650.21	39503.56
650.36	39196.95
650.51	39491.86
650.65	39723.57
650.80	39943.58
650.94	39786.77
651.09	39147.80
651.23	38899.70
651.38	39131.42
651.52	38609.48
651.67	38770.97
651.81	39007.37
651.96	38803.74
652.10	38719.48
652.25	39225.04
652.39	38993.32
652.54	38946.51
652.68	38806.08
652.83	38794.38
652.97	38972.26
653.12	38616.50
653.26	38466.70
653.41	38740.55
653.55	38665.65
653.70	38553.30
653.84	38909.07
653.99	38621.18
654.13	38438.62
654.27	38335.63
654.42	38452.66
654.56	38380.10
654.71	38609.48
654.85	38078.18
655.00	38330.95
655.14	38227.97
655.29	38146.05
655.43	37890.93
655.57	37518.79
655.72	37827.74
655.86	37755.18
656.01	37612.41
656.15	37488.36
656.30	37659.22
656.44	37411.12
656.58	37930.72
656.73	37773.91
656.87	37883.91
657.01	37748.16
657.16	37933.06
657.30	37605.39
657.45	37556.24
657.59	37415.80
657.73	36992.17
657.88	37427.51
658.02	38171.80
658.16	38080.52
658.31	37816.04
658.45	38089.88
658.60	37628.79
658.74	37591.34
658.88	37502.40
659.03	37361.97
659.17	37347.93
659.31	37663.90
659.46	37064.72
659.60	37455.59
659.74	37544.53
659.89	37415.80
660.03	37158.34
660.17	37106.85
660.32	37469.64
660.46	37076.43
660.60	37156.00
660.74	37102.17
660.89	36994.51
661.03	36510.02
661.17	36940.68
661.32	36491.29
661.46	36723.01
661.60	36608.32
661.74	36715.98
661.89	36959.40
662.03	36800.24
662.17	36407.03
662.31	36615.34
662.46	36933.65
662.60	36676.19
662.74	36449.16
662.88	36282.98
663.03	35971.69
663.17	36500.65
663.31	35988.08
663.45	36114.47
663.60	35735.30
663.74	35896.80
663.88	35999.78
664.02	35859.35
664.17	36329.80
664.31	35784.45
664.45	35754.02
664.59	35618.27
664.73	35676.79
664.88	35529.33
665.02	35674.45
665.16	35597.21
665.30	35318.68
665.44	35187.61
665.59	35054.20
665.73	34841.21
665.87	34878.66
666.01	35058.88
666.15	35477.84
666.29	35201.66
666.44	35124.42
666.58	34911.43
666.72	35260.17
666.86	34731.21
667.00	34986.33
667.14	34946.54
667.28	34595.46
667.43	34717.17
667.57	34892.71
667.71	34448.00
667.85	34644.61
667.99	34555.67
668.13	34576.73
668.27	34450.35
668.41	34780.36
668.56	34256.08
668.70	34656.31
668.84	33837.12
668.98	33708.40
669.12	33762.23
669.26	33757.55
669.40	33652.22
669.54	33738.82
669.68	33682.65
669.82	33443.91
669.96	33584.35
670.10	33574.98
670.25	33771.59
670.39	33441.57
670.53	33362.00
670.67	33315.19
670.81	33413.49
670.95	33399.44
671.09	33392.42
671.23	32891.55
671.37	33041.34
671.51	32786.22
671.65	32624.73
671.79	32804.95
671.93	32746.44
672.07	32882.19
672.21	32802.61
672.35	32800.27
672.49	32690.26
672.63	32531.11
672.77	33046.02
672.91	32416.42
673.05	32659.84
673.19	32215.13
673.33	32322.80
673.47	31732.98
673.61	32077.04
673.75	31967.04
673.89	31468.50
674.03	31159.55
674.17	31578.51
674.31	31522.34
674.45	31524.68
674.59	31630.00
674.73	31564.46
674.87	31747.03
675.01	31292.96
675.15	31435.74
675.29	31159.55
675.43	31377.22
675.56	31297.64
675.70	31112.74
675.84	31030.82
675.98	30260.79
676.12	30862.30
676.26	31393.61
676.40	30672.72
676.54	30820.17
676.68	30450.37
676.82	29956.52
676.96	30122.69
677.10	30927.84
677.23	29888.64
677.37	29771.61
677.51	29778.64
677.65	29785.66
677.79	29666.29
677.93	29493.09
678.07	29378.40
678.21	29193.50
678.34	29179.46
678.48	29034.35
678.62	29198.18
678.76	28893.91
678.90	29158.39
679.04	28804.97
679.18	28744.12
679.31	28589.64
679.45	28577.94
679.59	28493.68
679.73	28542.83
679.87	28020.89
680.00	28348.57
680.14	28231.54
680.28	28219.84
680.42	28119.20
680.56	27644.07
680.70	27723.65
680.83	28109.83
680.97	27697.90
681.11	27611.30
681.25	27559.81
681.39	27623.00
681.52	27817.27
681.66	27126.81
681.80	27363.20
681.94	26883.39
682.07	26913.82
682.21	26581.46
682.35	27168.94
682.49	26904.46
682.62	26871.69
682.76	26691.47
682.90	26398.90
683.04	26242.09
683.17	26478.48
683.31	25989.31
683.45	26218.68
683.59	26223.36
683.72	26045.48
683.86	26054.84
684.00	26342.73
684.13	25551.63
684.27	25584.40
684.41	25722.49
684.55	25301.19
684.68	25673.34
684.82	25350.34
684.96	25479.07
685.09	25207.57
685.23	24936.07
685.37	25022.67
685.50	24760.53
685.64	24938.41
685.78	24617.75
685.91	24596.69
686.05	24425.83
686.19	24266.67
686.32	24126.24
686.46	23651.11
686.60	23594.94
686.73	23606.64
686.87	23466.21
687.01	23353.87
687.14	23206.41
687.28	23143.22
687.42	23278.97
687.55	23161.94
687.69	23257.90
687.82	23110.45
687.96	23318.76
688.10	22998.10
688.23	22773.41
688.37	22593.19
688.50	22581.49
688.64	22705.54
688.78	22941.93
688.91	22803.84
689.05	22740.64
689.18	22513.61
689.32	22272.54
689.46	22195.30
689.59	22726.60
689.73	22424.67
689.86	22256.15
690.00	21731.87
690.13	21750.60
690.27	22108.70
690.41	22012.74
690.54	21343.35
690.68	21577.40
690.81	21411.22
690.95	21928.48
691.08	21586.76
691.22	21561.02
691.35	21687.40
691.49	21277.81
691.62	21427.60
691.76	21003.97
691.89	20896.30
692.03	20870.56
692.16	20760.55
692.30	20624.80
692.43	20374.36
692.57	20470.33
692.70	20493.73
692.84	20215.21
692.97	20018.60
693.11	20285.42
693.24	20142.65
693.38	19981.15
693.51	20128.61
693.65	19913.28
693.78	19971.79
693.92	19791.57
694.05	19875.83
694.19	19428.79
694.32	19646.46
694.45	19246.23
694.59	19248.57
694.72	19028.56
694.86	19243.88
694.99	18792.16
695.13	18923.23
695.26	19005.15
695.39	18824.93
695.53	19180.69
695.66	18785.14
695.80	18853.02
695.93	18548.75
696.07	18649.39
696.20	18462.15
696.33	18532.36
696.47	18415.34
696.60	17972.97
696.73	17837.22
696.87	18127.45
697.00	18118.09
697.14	17736.58
697.27	17972.97
697.40	17642.96
697.54	17694.45
697.67	17792.75
697.80	17542.32
697.94	17415.93
698.07	17284.86
698.21	17577.42
698.34	17294.22
698.47	17174.85
698.61	16849.52
698.74	16762.92
698.87	17001.65
699.01	16730.15
699.14	16662.27
699.27	16578.01
699.40	16676.32
699.54	16645.89
699.67	16299.49
699.80	16311.19
699.94	16358.00
700.07	16189.49
700.20	16121.61
700.34	15925.00
700.47	16173.10
700.60	16215.23
700.73	16147.36
700.87	15946.07
701.00	15700.31
701.13	15791.59
701.26	15517.75
701.40	15679.25
701.53	15548.18
701.66	15700.31
701.79	15243.91
701.93	15248.59
702.06	15108.16
702.19	15225.18
702.32	15119.86
702.46	14764.10
702.59	15176.03
702.72	14899.85
702.85	15140.93
702.99	14841.34
703.12	14883.47
703.25	14459.83
703.38	14380.25
703.51	14476.21
703.65	14455.15
703.78	14209.39
703.91	13975.34
704.04	14235.14
704.17	14300.67
704.31	13907.46
704.44	14111.09
704.57	14134.50
704.70	13830.23
704.83	13830.23
704.96	13685.11
705.10	13996.40
705.23	13804.48
>>>>>End Processed Spectral Data<<<<<
