SpectraSuite Data File
++++++++++++++++++++++++++++++++++++
Date: Fri Oct 25 10:43:41 EDT 2013
User: price-jones
Dark Spectrum Present: No
Reference Spectrum Present: No
Number of Sampled Component Spectra: 1
Spectrometers: USB2+H05261
Integration Time (usec): 100000 (USB2+H05261)
Spectra Averaged: 1 (USB2+H05261)
Boxcar Smoothing: 0 (USB2+H05261)
Correct for Electrical Dark: No (USB2+H05261)
Strobe/Lamp Enabled: No (USB2+H05261)
Correct for Detector Non-linearity: No (USB2+H05261)
Correct for Stray Light: No (USB2+H05261)
Number of Pixels in Processed Spectrum: 2048
>>>>>Begin Processed Spectral Data<<<<<
365.73	114.69
365.92	114.69
366.12	114.69
366.32	74.90
366.52	114.69
366.72	56.17
366.91	56.17
367.11	93.62
367.31	0.00
367.51	56.17
367.70	21.06
367.90	16.38
368.10	37.45
368.30	49.15
368.49	0.00
368.69	72.56
368.89	37.45
369.09	25.75
369.28	32.77
369.48	11.70
369.68	0.00
369.87	9.36
370.07	81.92
370.27	119.37
370.47	156.82
370.66	372.15
370.86	484.49
371.06	463.43
371.25	512.58
371.45	400.23
371.65	496.19
371.84	489.17
372.04	496.19
372.24	479.81
372.44	517.26
372.63	458.74
372.83	521.94
373.03	533.64
373.22	437.68
373.42	486.83
373.62	514.92
373.81	519.60
374.01	580.45
374.21	519.60
374.40	589.82
374.60	561.73
374.79	575.77
374.99	521.94
375.19	601.52
375.38	624.92
375.58	582.79
375.78	613.22
375.97	631.94
376.17	624.92
376.37	638.97
376.56	596.84
376.76	676.41
376.95	578.11
377.15	641.31
377.35	676.41
377.54	657.69
377.74	662.37
377.93	716.20
378.13	627.26
378.33	695.14
378.52	653.01
378.72	669.39
378.91	683.44
379.11	599.18
379.31	596.84
379.50	669.39
379.70	692.80
379.89	669.39
380.09	645.99
380.28	629.60
380.48	716.20
380.68	664.71
380.87	674.07
381.07	774.72
381.26	741.95
381.46	660.03
381.65	716.20
381.85	739.61
382.04	791.10
382.24	739.61
382.43	784.08
382.63	713.86
382.83	760.67
383.02	739.61
383.22	704.50
383.41	739.61
383.61	763.01
383.80	870.68
384.00	706.84
384.19	706.84
384.39	814.51
384.58	854.30
384.78	802.80
384.97	828.55
385.17	763.01
385.36	774.72
385.56	858.98
385.75	744.29
385.95	819.19
386.14	877.70
386.34	798.12
386.53	896.43
386.72	816.85
386.92	931.53
387.11	894.08
387.31	901.11
387.50	833.23
387.70	877.70
387.89	868.34
388.09	877.70
388.28	931.53
388.48	945.58
388.67	861.32
388.86	910.47
389.06	884.72
389.25	931.53
389.45	976.00
389.64	1018.13
389.84	1034.52
390.03	1006.43
390.22	1074.31
390.42	1020.47
390.61	973.66
390.81	992.39
391.00	1032.18
391.19	1076.65
391.39	1069.62
391.58	1088.35
391.78	1137.50
391.97	1181.97
392.16	1008.77
392.36	1076.65
392.55	990.05
392.75	950.26
392.94	1046.22
393.13	1011.11
393.33	1013.45
393.52	1034.52
393.71	1165.59
393.91	1121.12
394.10	1135.16
394.29	1130.48
394.49	1188.99
394.68	1268.57
394.88	1233.46
395.07	1214.74
395.26	1287.29
395.46	1146.86
395.65	1231.12
395.84	1188.99
396.04	1224.10
396.23	1231.12
396.42	1174.95
396.62	1188.99
396.81	1217.08
397.00	1160.91
397.19	1210.06
397.39	1338.79
397.58	1446.45
397.77	1334.11
397.97	1444.11
398.16	1451.13
398.35	1455.81
398.55	1439.43
398.74	1511.99
398.93	1493.26
399.12	1586.88
399.32	1448.79
399.51	1497.94
399.70	1643.06
399.90	1643.06
400.09	1577.52
400.28	1694.55
400.47	1638.38
400.67	1694.55
400.86	1701.57
401.05	1799.87
401.24	1729.66
401.44	1774.13
401.63	1612.63
401.82	1746.04
402.01	1713.27
402.21	1748.38
402.40	1767.10
402.59	1830.30
402.78	1748.38
402.97	1746.04
403.17	1729.66
403.36	1795.19
403.55	1912.22
403.74	1856.04
403.93	1860.73
404.13	1893.49
404.32	1804.55
404.51	1919.24
404.70	1989.46
404.89	1916.90
405.09	1987.11
405.28	1991.80
405.47	2008.18
405.66	2094.78
405.85	1952.01
406.05	1975.41
406.24	2085.42
406.43	2118.18
406.62	2024.56
406.81	2223.51
407.00	2045.63
407.20	2012.86
407.39	2078.40
407.58	2200.10
407.77	2202.44
407.96	2211.81
408.15	2256.28
408.34	2246.91
408.54	2251.60
408.73	2338.20
408.92	2263.30
409.11	2312.45
409.30	2270.32
409.49	2282.02
409.68	2303.09
409.87	2267.98
410.07	2457.56
410.26	2450.54
410.45	2478.63
410.64	2401.39
410.83	2492.67
411.02	2633.10
411.21	2560.55
411.40	2583.95
411.59	2626.08
411.78	2649.49
411.98	2722.04
412.17	2696.30
412.36	2642.46
412.55	2839.07
412.74	2808.64
412.93	2862.48
413.12	2733.75
413.31	2946.73
413.50	2820.35
413.69	3023.97
413.88	2960.78
414.07	3112.91
414.26	2906.95
414.45	3052.06
414.64	3002.91
414.83	3035.67
415.02	3108.23
415.22	3197.17
415.41	3021.63
415.60	3194.83
415.79	3293.13
415.98	3454.63
416.17	3243.98
416.36	3136.32
416.55	3318.88
416.74	3426.54
416.93	3316.54
417.12	3255.69
417.31	3365.69
417.50	3393.78
417.69	3442.93
417.88	3438.25
418.07	3431.23
418.26	3447.61
418.45	3433.57
418.64	3616.13
418.83	3559.95
419.02	3508.46
419.21	3548.25
419.39	3574.00
419.58	3648.90
419.77	3627.83
419.96	3791.67
420.15	3756.56
420.34	3798.69
420.53	3688.68
420.72	3948.48
420.91	3838.48
421.10	3906.35
421.29	4018.70
421.48	3751.88
421.67	3934.44
421.86	3735.50
422.05	3784.65
422.24	3763.58
422.43	3829.12
422.61	3854.86
422.80	3925.08
422.99	3913.38
423.18	3875.93
423.37	3969.55
423.56	4084.23
423.75	3953.16
423.94	3971.89
424.13	3721.45
424.32	3854.86
424.50	4077.21
424.69	3894.65
424.88	4105.30
425.07	3997.64
425.26	3885.29
425.45	4053.81
425.64	4077.21
425.83	4070.19
426.01	4224.67
426.20	4098.28
426.39	4030.40
426.58	3964.87
426.77	4058.49
426.96	4217.65
427.15	4088.92
427.33	4182.54
427.52	4138.07
427.71	4086.58
427.90	4245.73
428.09	4311.27
428.28	4283.18
428.46	4191.90
428.65	4044.45
428.84	4255.09
429.03	4243.39
429.22	4283.18
429.40	4161.47
429.59	4173.18
429.78	4028.06
429.97	3932.10
430.16	3969.55
430.34	4098.28
430.53	4128.70
430.72	4098.28
430.91	4358.08
431.10	4264.46
431.28	4533.62
431.47	4671.71
431.66	4667.03
431.85	4489.15
432.03	4615.54
432.22	4662.35
432.41	4585.11
432.60	4718.52
432.79	4662.35
432.97	4908.10
433.16	4685.75
433.35	4716.18
433.54	4655.33
433.72	4786.40
433.91	4805.12
434.10	4784.06
434.28	4837.89
434.47	4898.74
434.66	5029.81
434.85	5008.75
435.03	4863.63
435.22	4936.19
435.41	5310.68
435.59	5207.69
435.78	5165.56
435.97	5165.56
436.16	5151.52
436.34	5067.26
436.53	5331.74
436.72	5240.46
436.90	5125.77
437.09	5149.18
437.28	5064.92
437.46	5214.71
437.65	5245.14
437.84	5362.17
438.02	5055.56
438.21	5397.28
438.40	5338.76
438.58	5366.85
438.77	5483.88
438.96	5577.50
439.14	5640.69
439.33	5563.45
439.52	5760.06
439.70	5731.97
439.89	5610.26
440.08	5762.40
440.26	5746.02
440.45	5806.87
440.63	6052.63
440.82	6214.12
441.01	6012.84
441.19	6200.08
441.38	6099.44
441.57	6169.65
441.75	6214.12
441.94	6298.38
442.12	6335.83
442.31	6410.73
442.50	6270.30
442.68	6462.22
442.87	6487.96
443.05	6429.45
443.24	6705.63
443.43	6518.39
443.61	6483.28
443.80	6787.55
443.98	6293.70
444.17	6232.85
444.35	6464.56
444.54	6722.02
444.73	6654.14
444.91	6490.31
445.10	6436.47
445.28	6459.88
445.47	6230.51
445.65	6747.76
445.84	6700.95
446.02	6658.82
446.21	6789.89
446.39	6738.40
446.58	6792.23
446.77	6836.70
446.95	6420.09
447.14	6726.70
447.32	7019.27
447.51	6768.83
447.69	7005.22
447.88	6787.55
448.06	6890.54
448.25	6820.32
448.43	6719.68
448.62	6846.07
448.80	6862.45
448.99	6808.62
449.17	6876.49
449.36	6892.88
449.54	7206.51
449.73	7159.70
449.91	7178.42
450.10	7272.04
450.28	7346.94
450.46	7398.43
450.65	7140.97
450.83	7220.55
451.02	7185.44
451.20	7227.57
451.39	7321.20
451.57	7344.60
451.76	7412.48
451.94	7330.56
452.13	7307.15
452.31	7260.34
452.49	7091.82
452.68	7384.39
452.86	7339.92
453.05	7461.63
453.23	7445.24
453.42	7515.46
453.60	7520.14
453.78	7543.55
453.97	7592.70
454.15	7515.46
454.34	7321.20
454.52	7522.48
454.70	7786.96
454.89	7573.97
455.07	7784.62
455.26	7803.35
455.44	7831.43
455.62	7754.19
455.81	7768.24
455.99	7777.60
456.17	7817.39
456.36	7932.08
456.54	8044.42
456.73	8046.76
456.91	8367.42
457.09	8257.41
457.28	8446.99
457.46	8170.81
457.64	8360.39
457.83	8234.00
458.01	8215.28
458.19	8290.18
458.38	8365.07
458.56	8273.79
458.74	8271.45
458.93	8336.99
459.11	8374.44
459.29	8397.84
459.48	8393.16
459.66	8496.14
459.84	8329.97
460.03	8610.83
460.21	8791.05
460.39	8613.17
460.57	8592.11
460.76	8737.22
460.94	8599.13
461.12	8826.16
461.31	8894.04
461.49	8760.63
461.67	8791.05
461.85	9018.08
462.04	8884.67
462.22	9277.88
462.40	9081.28
462.59	9060.21
462.77	8889.35
462.95	9102.34
463.13	8800.41
463.32	8992.34
463.50	9057.87
463.68	9163.20
463.86	9039.15
464.05	9097.66
464.23	9123.41
464.41	9116.39
464.59	9118.73
464.78	9160.86
464.96	9282.56
465.14	9013.40
465.32	9149.15
465.50	9277.88
465.69	9631.30
465.87	9226.39
466.05	9291.93
466.23	9451.08
466.41	9359.80
466.60	9408.95
466.78	9467.47
466.96	9329.38
467.14	9256.82
467.32	9582.15
467.51	9708.54
467.69	9156.18
467.87	9731.95
468.05	9774.08
468.23	9549.39
468.41	9518.96
468.60	9500.23
468.78	9720.24
468.96	9568.11
469.14	9834.93
469.32	9966.00
469.50	9561.09
469.69	9708.54
469.87	9891.10
470.05	9898.13
470.23	10017.49
470.41	10031.54
470.59	10015.15
470.77	9977.70
470.95	10090.05
471.14	10195.37
471.32	10118.14
471.50	10427.09
471.68	10211.76
471.86	10476.24
472.04	10567.52
472.22	10637.73
472.40	10375.59
472.58	10399.00
472.77	10534.75
472.95	10656.46
473.13	10822.64
473.31	10640.08
473.49	10801.57
473.67	10916.26
473.85	10726.68
474.03	11059.03
474.21	11066.05
474.39	11171.38
474.57	11218.19
474.75	11164.36
474.93	11328.19
475.12	11370.32
475.30	11587.99
475.48	11330.53
475.66	11349.26
475.84	11337.56
476.02	11426.50
476.20	11653.53
476.38	11833.75
476.56	12023.33
476.74	11934.39
476.92	11847.79
477.10	11964.82
477.28	12409.52
477.46	12287.81
477.64	12241.00
477.82	12643.57
478.00	12753.58
478.18	12884.65
478.36	12891.67
478.54	12769.96
478.72	13163.17
478.90	12844.86
479.08	13228.71
479.26	13383.18
479.44	13434.68
479.62	13259.13
479.80	13579.79
479.98	13355.10
480.16	13682.77
480.34	13760.01
480.52	13799.80
480.70	13802.14
480.88	13802.14
481.06	13980.02
481.24	14054.92
481.41	14544.09
481.59	14518.34
481.77	14637.71
481.95	14672.82
482.13	14972.41
482.31	14588.56
482.49	14878.79
482.67	15066.03
482.85	15199.44
483.03	15360.94
483.21	15496.69
483.39	15365.62
483.57	15655.84
483.74	15606.69
483.92	16004.58
484.10	15833.72
484.28	16037.35
484.46	16304.17
484.64	16542.91
484.82	16290.13
485.00	16128.63
485.18	16706.74
485.35	16805.05
485.53	16123.95
485.71	16362.69
485.89	16582.70
486.07	16786.32
486.25	16823.77
486.43	16879.94
486.61	17338.69
486.78	17479.12
486.96	17832.54
487.14	17820.84
487.32	17825.52
487.50	18300.65
487.68	18080.64
487.85	18478.53
488.03	18579.17
488.21	18724.29
488.39	18551.09
488.57	18810.89
488.75	18728.97
488.92	19236.86
489.10	19569.22
489.28	19779.87
489.46	19829.02
489.64	19672.20
489.81	20121.59
489.99	20624.80
490.17	20142.65
490.35	20615.44
490.53	20283.08
490.70	20418.83
490.88	20692.68
491.06	20877.58
491.24	20819.07
491.41	20734.81
491.59	21020.35
491.77	21018.01
491.95	21120.99
492.13	21418.24
492.30	21986.99
492.48	22003.38
492.66	22497.23
492.84	22057.21
493.01	21989.33
493.19	22218.71
493.37	22377.86
493.54	22412.97
493.72	22728.94
493.90	23103.43
494.08	23073.00
494.25	23293.01
494.43	23506.00
494.61	23611.32
494.79	23744.73
494.96	23599.62
495.14	23927.30
495.32	23910.91
495.49	23939.00
495.67	24093.47
495.85	24388.38
496.02	24474.98
496.20	24734.78
496.38	24526.47
496.55	24786.27
496.73	25572.69
496.91	24931.39
497.09	24966.49
497.26	25528.22
497.44	25352.68
497.62	25446.30
497.79	25715.47
497.97	25467.37
498.14	25696.74
498.32	25788.02
498.50	25689.72
498.67	26103.99
498.85	26174.21
499.03	26518.27
499.20	26654.02
499.38	26422.31
499.56	26316.98
499.73	26604.87
499.91	26749.98
500.08	26714.87
500.26	26668.06
500.44	27000.42
500.61	27044.89
500.79	26373.16
500.97	26867.01
501.14	27550.45
501.32	27402.99
501.49	27105.74
501.67	27566.83
501.84	27709.60
502.02	27913.23
502.20	27999.83
502.37	27960.04
502.55	27920.25
502.72	28271.33
502.90	28334.53
503.07	28161.33
503.25	28002.17
503.43	28311.12
503.60	28690.29
503.78	28151.96
503.95	28510.07
504.13	28638.80
504.30	28898.59
504.48	28781.57
504.65	29067.11
504.83	29439.26
505.01	29607.78
505.18	29142.01
505.36	29652.25
505.53	29841.83
505.71	29729.48
505.88	30300.58
506.06	29422.87
506.23	30003.33
506.41	29998.65
506.58	29933.11
506.76	29970.56
506.93	30237.38
507.11	30106.31
507.28	30209.29
507.46	30216.32
507.63	30419.94
507.81	30522.93
507.98	30260.79
508.16	30686.76
508.33	30361.43
508.50	30843.58
508.68	30714.85
508.85	31515.31
509.03	31290.62
509.20	31173.60
509.38	31669.79
509.55	31229.77
509.73	31489.57
509.90	31592.55
510.08	31765.75
510.25	31576.17
510.42	31868.73
510.60	31960.02
510.77	32147.26
510.95	32407.06
511.12	31978.74
511.30	32409.40
511.47	32531.11
511.64	32542.81
511.82	32723.03
511.99	32718.35
512.17	32711.33
512.34	32383.65
512.51	32847.08
512.69	33202.84
512.86	32849.42
513.04	33186.46
513.21	33022.62
513.38	33095.18
513.56	33216.88
513.73	33270.72
513.90	33373.70
514.08	33521.15
514.25	33256.67
514.43	33310.50
514.60	33350.29
514.77	33432.21
514.95	34192.89
515.12	33813.72
515.29	33797.34
515.47	34452.69
515.64	34211.61
515.81	33930.75
515.99	34244.38
516.16	33736.48
516.33	33701.37
516.51	33813.72
516.68	33053.05
516.85	33319.87
517.03	33860.53
517.20	34216.29
517.37	34476.09
517.54	34787.38
517.72	34829.51
517.89	34354.38
518.06	34237.36
518.24	34412.90
518.41	34501.84
518.58	34513.54
518.75	34682.06
518.93	35344.43
519.10	35194.64
519.27	35126.76
519.45	35337.41
519.62	35604.23
519.79	35299.96
519.96	35473.16
520.14	35541.03
520.31	35157.19
520.48	35555.08
520.65	35587.85
520.83	36072.34
521.00	36467.89
521.17	36154.26
521.34	36470.23
521.52	36364.90
521.69	36336.82
521.86	37092.81
522.03	36435.12
522.20	36547.47
522.38	36491.29
522.55	36889.18
522.72	36889.18
522.89	36435.12
523.07	36851.73
523.24	36748.75
523.41	37411.12
523.58	36748.75
523.75	37727.10
523.92	37193.45
524.10	37841.78
524.27	37565.60
524.44	37577.30
524.61	37539.85
524.78	37544.53
524.96	38022.00
525.13	37769.22
525.30	37600.71
525.47	38101.58
525.64	37897.95
525.81	38089.88
525.98	37769.22
526.16	37680.28
526.33	37352.61
526.50	37544.53
526.67	37376.01
526.84	37860.51
527.01	37785.61
527.18	37551.56
527.36	38632.88
527.53	38199.88
527.70	38656.29
527.87	38164.78
528.04	38675.01
528.21	38857.57
528.38	39292.91
528.55	38866.94
528.72	38780.34
528.89	38988.64
529.07	38923.11
529.24	38778.00
529.41	39449.73
529.58	39225.04
529.75	39449.73
529.92	39468.45
530.09	39576.12
530.26	39447.39
530.43	39604.20
530.60	39438.03
530.77	39599.52
530.94	39817.19
531.11	39531.65
531.28	39487.18
531.46	39686.12
531.63	40210.40
531.80	39613.57
531.97	39852.30
532.14	39400.58
532.31	39641.65
532.48	39786.77
532.65	39840.60
532.82	39777.40
532.99	39882.73
533.16	40088.70
533.33	40114.44
533.50	39992.73
533.67	39941.24
533.84	39866.34
534.01	39945.92
534.18	40287.64
534.35	40751.07
534.52	40250.19
534.69	40762.77
534.86	40994.48
535.03	40828.30
535.20	40776.81
535.37	41413.44
535.54	41333.86
535.71	40996.82
535.88	40849.37
536.05	41160.66
536.22	41153.64
536.38	40802.56
536.55	40722.98
536.72	40938.31
536.89	40521.69
537.06	40854.05
537.23	41340.88
537.40	41418.12
537.57	41212.15
537.74	41254.28
537.91	41591.32
538.08	41544.51
538.25	41352.58
538.42	41621.75
538.59	41703.67
538.75	41441.53
538.92	41731.75
539.09	41776.22
539.26	41745.80
539.43	41460.25
539.60	41874.52
539.77	41731.75
539.94	42223.26
540.11	41701.32
540.28	42181.13
540.44	41488.34
540.61	41928.36
540.78	41347.90
540.95	41640.47
541.12	42148.37
541.29	41591.32
541.46	42073.47
541.62	42139.00
541.79	42663.28
541.96	41841.76
542.13	41862.82
542.30	42347.31
542.47	42218.58
542.63	42581.37
542.80	42752.23
542.97	42796.70
543.14	43107.99
543.31	42476.04
543.48	42813.08
543.64	43014.37
543.81	43016.71
543.98	43316.29
544.15	42890.32
544.32	43194.59
544.48	43655.67
544.65	43241.40
544.82	42941.81
544.99	42885.64
545.16	42887.98
545.32	42782.65
545.49	43395.87
545.66	43880.36
545.83	43873.34
546.00	43840.57
546.16	43632.27
546.33	43594.82
546.50	43187.56
546.67	44006.75
546.83	43154.80
547.00	43337.36
547.17	43068.20
547.34	43409.92
547.50	43274.16
547.67	43922.49
547.84	44020.80
548.00	43613.54
548.17	44144.84
548.34	44149.53
548.51	44219.74
548.67	44217.40
548.84	43938.88
549.01	43878.02
549.18	43978.67
549.34	44030.16
549.51	43885.04
549.68	44289.96
549.84	44245.49
550.01	44327.41
550.18	43959.94
550.34	44065.27
550.51	44109.74
550.68	43981.01
550.84	43763.34
551.01	44002.07
551.18	44502.95
551.34	44289.96
551.51	44381.24
551.68	44346.13
551.84	44533.37
552.01	44058.24
552.18	44690.19
552.34	44282.94
552.51	44304.00
552.68	44535.71
552.84	44617.63
553.01	44718.28
553.18	44809.56
553.34	44631.68
553.51	44722.96
553.67	44755.72
553.84	44821.26
554.01	44758.06
554.17	45219.15
554.34	45071.70
554.51	45130.21
554.67	45097.44
554.84	44652.74
555.00	45102.12
555.17	44898.50
555.33	44765.09
555.50	44975.73
555.67	45146.59
555.83	44650.40
556.00	44711.25
556.16	45408.73
556.33	45263.62
556.50	45162.98
556.66	45062.33
556.83	45041.27
556.99	45078.72
557.16	45139.57
557.32	45155.96
557.49	45500.01
557.65	44790.83
557.82	45572.57
557.98	45301.07
558.15	45221.49
558.32	45418.10
558.48	45022.54
558.65	45272.98
558.81	45195.74
558.98	45350.22
559.14	45237.87
559.31	45092.76
559.47	45350.22
559.64	45654.49
559.80	45492.99
559.97	45553.85
560.13	45186.38
560.30	45265.96
560.46	45584.27
560.63	45549.17
560.79	45549.17
560.96	45804.28
561.12	45141.91
561.29	45514.06
561.45	45244.90
561.61	45832.37
561.78	45642.79
561.94	45701.30
562.11	45223.83
562.27	46071.10
562.44	45766.84
562.60	45851.09
562.77	45951.74
562.93	45911.95
563.10	45944.72
563.26	45638.11
563.42	45530.44
563.59	45666.19
563.75	45785.56
563.92	45841.73
564.08	45581.93
564.24	45787.90
564.41	46026.63
564.57	46314.52
564.74	46021.95
564.90	46052.38
565.07	46246.65
565.23	45902.59
565.39	46078.13
565.56	45715.34
565.72	45830.03
565.88	45778.54
566.05	45965.78
566.21	45624.06
566.38	46188.13
566.54	45975.14
566.70	46330.90
566.87	46185.79
567.03	45801.94
567.19	46389.42
567.36	46108.55
567.52	46171.75
567.68	46143.66
567.85	45911.95
568.01	46120.26
568.17	46017.27
568.34	46258.35
568.50	45918.97
568.66	45811.31
568.83	45867.48
568.99	46003.23
569.15	45947.06
569.32	46012.59
569.48	45961.10
569.64	46571.98
569.81	46190.47
569.97	45666.19
570.13	45813.65
570.30	45773.86
570.46	45708.32
570.62	45862.80
570.78	45666.19
570.95	46000.89
571.11	46150.68
571.27	45680.24
571.43	45984.51
571.60	46286.43
571.76	46246.65
571.92	46094.51
572.09	46417.50
572.25	46120.26
572.41	46323.88
572.57	46394.10
572.74	46263.03
572.90	46117.92
573.06	46443.25
573.22	46412.82
573.38	45886.20
573.55	45823.01
573.71	46150.68
573.87	46253.67
574.03	46164.73
574.20	46138.98
574.36	45982.16
574.52	46450.27
574.68	46157.70
574.84	46129.62
575.01	46094.51
575.17	46309.84
575.33	45745.77
575.49	45680.24
575.65	46192.81
575.82	45916.63
575.98	46096.85
576.14	46515.81
576.30	46419.84
576.46	46160.05
576.62	45961.10
576.79	46234.94
576.95	46263.03
577.11	46490.06
577.27	46122.60
577.43	46265.37
577.59	46012.59
577.75	45773.86
577.92	45839.39
578.08	45773.86
578.24	45621.72
578.40	45977.48
578.56	46426.87
578.72	46277.07
578.88	46394.10
579.04	46506.44
579.21	46113.23
579.37	46312.18
579.53	46113.23
579.69	46384.74
579.85	46447.93
580.01	46312.18
580.17	45778.54
580.33	45998.55
580.49	46674.96
580.65	46241.96
580.82	45944.72
580.98	46429.21
581.14	46225.58
581.30	46499.42
581.46	46401.12
581.62	46770.93
581.78	46358.99
581.94	46866.89
582.10	46401.12
582.26	46574.32
582.42	46644.54
582.58	46679.64
582.74	46398.78
582.90	46529.85
583.06	46272.39
583.22	46230.26
583.38	46689.01
583.54	46419.84
583.70	46625.81
583.86	46602.41
584.02	46061.74
584.18	46464.32
584.34	46181.11
584.50	46447.93
584.66	46333.24
584.82	46557.94
584.98	46284.09
585.14	46391.76
585.30	46216.22
585.46	46185.79
585.62	46216.22
585.78	46167.07
585.94	45996.21
586.10	46574.32
586.26	46686.67
586.42	46586.02
586.58	46724.11
586.74	46380.06
586.90	46415.16
587.06	46344.95
587.22	46368.35
587.38	46527.51
587.54	46536.87
587.70	46597.73
587.86	46691.35
588.02	46316.86
588.18	46426.87
588.34	46305.16
588.49	46024.29
588.65	45661.51
588.81	45881.52
588.97	46197.49
589.13	46038.34
589.29	45949.40
589.45	46319.20
589.61	45984.51
589.77	46340.27
589.93	46277.07
590.08	46850.50
590.24	46958.17
590.40	46642.20
590.56	47014.34
590.72	46513.47
590.88	46237.28
591.04	46571.98
591.20	46717.09
591.35	46609.43
591.51	46927.74
591.67	46326.22
591.83	46267.71
591.99	46426.87
592.15	46499.42
592.31	46600.07
592.46	46237.28
592.62	46719.43
592.78	46164.73
592.94	46838.80
593.10	46415.16
593.26	46616.45
593.41	46747.52
593.57	46148.34
593.73	46342.61
593.89	46541.55
594.05	46780.29
594.20	46974.55
594.36	47065.83
594.52	46571.98
594.68	46471.34
594.84	46319.20
594.99	46696.03
595.15	46660.92
595.31	46644.54
595.47	46855.18
595.62	46710.07
595.78	46518.15
595.94	46738.16
596.10	46780.29
596.25	46536.87
596.41	46389.42
596.57	46197.49
596.73	46679.64
596.88	46459.63
597.04	46621.13
597.20	46326.22
597.36	46639.86
597.51	46719.43
597.67	46632.83
597.83	46431.55
597.99	47103.28
598.14	46639.86
598.30	46335.59
598.46	46607.09
598.61	46752.20
598.77	46337.93
598.93	46560.28
599.09	46787.31
599.24	47002.64
599.40	46777.95
599.56	46899.65
599.71	46417.50
599.87	46983.91
600.03	46897.31
600.18	46674.96
600.34	45937.69
600.50	46415.16
600.65	46485.38
600.81	46534.53
600.97	46728.80
601.12	46649.22
601.28	46674.96
601.44	46557.94
601.59	46469.00
601.75	46321.54
601.91	46628.15
602.06	46171.75
602.22	46433.89
602.37	46375.37
602.53	46330.90
602.69	46677.30
602.84	45921.31
603.00	46412.82
603.16	46450.27
603.31	46480.70
603.47	46693.69
603.62	46195.15
603.78	46480.70
603.94	46485.38
604.09	46836.46
604.25	46712.41
604.40	46050.04
604.56	46169.41
604.71	46681.98
604.87	46595.38
605.03	46429.21
605.18	46464.32
605.34	46045.36
605.49	46150.68
605.65	46817.74
605.80	45979.82
605.96	46473.68
606.12	46277.07
606.27	46539.21
606.43	46195.15
606.58	46469.00
606.74	45923.65
606.89	46230.26
607.05	45996.21
607.20	46263.03
607.36	46527.51
607.51	46375.37
607.67	46377.72
607.82	46424.53
607.98	45907.27
608.13	46335.59
608.29	46003.23
608.44	45942.38
608.60	46232.60
608.75	46321.54
608.91	46487.72
609.06	45993.87
609.22	46396.44
609.37	46117.92
609.53	46349.63
609.68	46263.03
609.84	45961.10
609.99	45846.41
610.15	45832.37
610.30	45682.58
610.46	45858.12
610.61	45553.85
610.76	45914.29
610.92	46106.21
611.07	45858.12
611.23	45593.64
611.38	45895.56
611.54	45834.71
611.69	45654.49
611.84	44940.63
612.00	45497.67
612.15	45228.51
612.31	45668.53
612.46	45532.78
612.62	45610.02
612.77	45715.34
612.92	45895.56
613.08	45507.04
613.23	45359.58
613.39	45378.31
613.54	44926.58
613.69	45441.50
613.85	45429.80
614.00	45783.22
614.15	45537.46
614.31	45443.84
614.46	45432.14
614.62	45153.62
614.77	45579.59
614.92	45574.91
615.08	45184.04
615.23	45034.25
615.38	44980.42
615.54	45188.72
615.69	45406.39
615.84	45467.25
616.00	45069.36
616.15	45207.45
616.30	45439.16
616.46	44872.75
616.61	44837.64
616.76	44952.33
616.92	44423.37
617.07	45064.67
617.22	44481.88
617.37	44807.22
617.53	45207.45
617.68	44891.48
617.83	44725.30
617.99	44692.53
618.14	44624.65
618.29	44350.81
618.45	44453.79
618.60	44355.49
618.75	44259.53
618.90	44460.82
619.06	44364.85
619.21	44645.72
619.36	44765.09
619.51	44481.88
619.67	44315.70
619.82	44650.40
619.97	44612.95
620.12	43973.98
620.28	43793.76
620.43	44367.20
620.58	44362.51
620.73	44727.64
620.89	44238.47
621.04	44641.04
621.19	44563.80
621.34	44411.67
621.49	44821.26
621.65	44051.22
621.80	44650.40
621.95	44430.39
622.10	44542.74
622.25	44154.21
622.41	44074.63
622.56	44013.77
622.71	43976.33
622.86	44350.81
623.01	43852.28
623.16	43737.59
623.32	43817.17
623.47	43908.45
623.62	44100.37
623.77	43571.41
623.92	43854.62
624.07	43438.00
624.23	43775.04
624.38	43529.28
624.53	43847.60
624.68	43796.10
624.83	44055.90
624.98	43388.85
625.13	43398.21
625.29	43356.08
625.44	43119.69
625.59	43459.07
625.74	43526.94
625.89	43290.55
626.04	43332.68
626.19	43213.31
626.34	43077.56
626.49	43339.70
626.65	43140.75
626.80	42948.83
626.95	42843.51
627.10	42784.99
627.25	43236.72
627.40	42803.72
627.55	42766.27
627.70	42902.02
627.85	43189.91
628.00	43131.39
628.15	43016.71
628.30	42939.47
628.45	43126.71
628.60	42983.94
628.76	43033.09
628.91	42897.34
629.06	42541.58
629.21	42492.43
629.36	42396.46
629.51	42480.72
629.66	42548.60
629.81	42824.78
629.96	42227.95
630.11	42473.70
630.26	42782.65
630.41	42490.09
630.56	43016.71
630.71	42321.57
630.86	42410.51
631.01	42174.11
631.16	42321.57
631.31	41911.97
631.46	42101.56
631.61	41787.92
631.76	41818.35
631.91	42368.38
632.06	42588.39
632.21	41897.93
632.36	42457.32
632.51	41965.81
632.66	42178.79
632.81	41956.44
632.96	42267.73
633.10	42059.43
633.25	42380.08
633.40	42115.60
633.55	42075.81
633.70	41572.60
633.85	41961.12
634.00	41937.72
634.15	41680.26
634.30	41771.54
634.45	41598.34
634.60	41240.24
634.75	41614.72
634.90	41411.10
635.05	41771.54
635.19	41525.78
635.34	42089.85
635.49	41645.15
635.64	41867.50
635.79	41565.57
635.94	41612.38
636.09	41556.21
636.24	41312.80
636.39	40835.33
636.53	41621.75
636.68	41139.60
636.83	41249.60
636.98	41265.99
637.13	40959.38
637.28	41713.03
637.43	41799.63
637.57	41588.98
637.72	41118.53
637.87	41137.26
638.02	41493.02
638.17	41202.79
638.32	41322.16
638.46	40987.46
638.61	41024.91
638.76	41017.89
638.91	40975.76
639.06	41069.38
639.20	40851.71
639.35	41095.13
639.50	41523.44
639.65	41078.74
639.80	40765.11
639.94	40741.71
640.09	40811.92
640.24	40133.17
640.39	40301.68
640.54	40842.35
640.68	40306.37
640.83	40690.21
640.98	40669.15
641.13	40243.17
641.27	40692.55
641.42	40655.11
641.57	40694.89
641.72	40678.51
641.86	40332.11
642.01	40088.70
642.16	40161.25
642.31	40041.88
642.45	40655.11
642.60	40072.31
642.75	40123.80
642.90	40299.34
643.04	40266.58
643.19	40297.00
643.34	40081.67
643.48	40135.51
643.63	40088.70
643.78	39548.03
643.93	40357.86
644.07	40165.93
644.22	39739.96
644.37	39611.23
644.51	39988.05
644.66	40198.70
644.81	40486.59
644.95	40023.16
645.10	39526.97
645.25	40254.87
645.39	39735.27
645.54	40069.97
645.69	39852.30
645.83	39335.04
645.98	39597.18
646.13	39466.11
646.27	39178.23
646.42	39613.57
646.57	39332.70
646.71	39545.69
646.86	39688.46
647.00	39143.12
647.15	39732.93
647.30	39290.57
647.44	39828.90
647.59	39215.68
647.74	39161.84
647.88	39108.01
648.03	39299.94
648.17	39360.79
648.32	39157.16
648.47	39239.08
648.61	38925.45
648.76	39550.37
648.90	39274.19
649.05	39276.53
649.20	39175.89
649.34	39019.07
649.49	38703.10
649.63	38958.22
649.78	39124.40
649.92	39077.58
650.07	39159.50
650.21	38871.62
650.36	38981.62
650.51	39311.64
650.65	39445.05
650.80	39459.09
650.94	39044.82
651.09	38871.62
651.23	38665.65
651.38	38354.36
651.52	38419.89
651.67	37855.82
651.81	38684.37
651.96	38431.60
652.10	38124.99
652.25	38588.41
652.39	38588.41
652.54	38822.47
652.68	38520.54
652.83	38548.62
652.97	38553.30
653.12	38679.69
653.26	38532.24
653.41	38099.24
653.55	38480.75
653.70	38319.25
653.84	38080.52
653.99	38014.98
654.13	37883.91
654.27	37855.82
654.42	38302.87
654.56	38361.38
654.71	38066.47
654.85	38129.67
655.00	38581.39
655.14	37923.70
655.29	37612.41
655.43	37771.57
655.57	37495.38
655.72	37184.09
655.86	37457.93
656.01	37160.69
656.15	37088.13
656.30	37315.16
656.44	37376.01
656.58	37408.78
656.73	37078.77
656.87	37015.57
657.01	37148.98
657.16	37640.50
657.30	37223.88
657.45	37345.59
657.59	37270.69
657.73	37170.05
657.88	37457.93
658.02	37647.52
658.16	37933.06
658.31	37312.82
658.45	37436.87
658.60	37181.75
658.74	37640.50
658.88	37649.86
659.03	37195.79
659.17	36835.35
659.31	36968.76
659.46	36947.70
659.60	37125.58
659.74	37010.89
659.89	36821.31
660.03	36905.57
660.17	36999.19
660.32	36638.75
660.46	36938.33
660.60	36952.38
660.74	36694.92
660.89	36779.18
661.03	36322.77
661.17	36311.07
661.32	36762.79
661.46	36676.19
661.60	36341.50
661.74	35962.33
661.89	36027.87
662.03	36196.38
662.17	36603.64
662.31	36184.68
662.46	36638.75
662.60	36381.29
662.74	36402.35
662.88	36093.40
663.03	35222.72
663.17	35941.27
663.31	35922.54
663.45	35625.29
663.60	35732.96
663.74	35615.93
663.88	35529.33
664.02	35578.48
664.17	35531.67
664.31	35236.77
664.45	35421.67
664.59	35110.38
664.73	35302.30
664.88	34906.75
665.02	35016.75
665.16	34960.58
665.30	34604.82
665.44	35143.14
665.59	34541.63
665.73	34691.42
665.87	34946.54
666.01	35035.48
666.15	34408.22
666.29	34532.26
666.44	34923.13
666.58	34792.06
666.72	34660.99
666.86	34464.39
667.00	34630.57
667.14	34525.24
667.28	34227.99
667.43	34586.10
667.57	34820.15
667.71	34424.60
667.85	34316.93
667.99	34789.72
668.13	34630.57
668.27	34492.47
668.41	34480.77
668.56	34293.53
668.70	33996.28
668.84	33998.62
668.98	33659.24
669.12	33633.50
669.26	33710.74
669.40	33483.70
669.54	33362.00
669.68	33483.70
669.82	33221.56
669.96	32863.46
670.10	33120.92
670.25	33256.67
670.39	33486.04
670.53	33099.86
670.67	33057.73
670.81	33282.42
670.95	33057.73
671.09	32629.41
671.23	32397.70
671.37	32395.35
671.51	32297.05
671.65	32563.87
671.79	32217.47
671.93	32357.91
672.07	32498.34
672.21	32463.23
672.35	32109.81
672.49	32699.62
672.63	32203.43
672.77	31880.44
672.91	31941.29
673.05	32109.81
673.19	32147.26
673.33	31976.40
673.47	31749.37
673.61	31742.35
673.75	31676.81
673.89	31346.79
674.03	31248.49
674.17	31419.35
674.31	31608.93
674.45	31302.32
674.59	31889.80
674.73	31290.62
674.87	31211.04
675.01	31035.50
675.15	31161.89
675.29	30862.30
675.43	30909.11
675.56	30572.08
675.70	30822.51
675.84	30962.95
675.98	29788.00
676.12	30513.56
676.26	30396.54
676.40	30923.16
676.54	30204.61
676.68	30410.58
676.82	30005.67
676.96	30141.42
677.10	30118.01
677.23	29773.95
677.37	29509.47
677.51	29677.99
677.65	29495.43
677.79	28847.10
677.93	29476.71
678.07	28996.90
678.21	28561.56
678.34	28662.20
678.48	28613.05
678.62	28577.94
678.76	28203.46
678.90	28163.67
679.04	28739.44
679.18	28568.58
679.31	28201.11
679.45	28189.41
679.59	28098.13
679.73	27997.49
679.87	27765.78
680.00	27934.29
680.14	28037.28
680.28	27702.58
680.42	27864.08
680.56	27899.19
680.70	27611.30
680.83	27421.72
680.97	27356.18
681.11	27744.71
681.25	27255.54
681.39	27538.74
681.52	27267.24
681.66	26850.63
681.80	26998.08
681.94	26862.33
682.07	27080.00
682.21	26555.72
682.35	26834.24
682.49	26522.95
682.62	26382.52
682.76	26487.84
682.90	26101.65
683.04	26162.51
683.17	26164.85
683.31	26054.84
683.45	25963.56
683.59	25977.61
683.72	25902.71
683.86	25603.12
684.00	25539.93
684.13	25249.70
684.27	25214.59
684.41	25057.78
684.55	24910.32
684.68	25291.83
684.82	25195.87
684.96	24978.20
685.09	24711.38
685.23	24709.04
685.37	24753.51
685.50	24577.97
685.64	24713.72
685.78	24563.92
685.91	24109.86
686.05	23964.75
686.19	23899.21
686.32	23810.27
686.46	23545.79
686.60	23417.06
686.73	23358.55
686.87	23356.21
687.01	23484.94
687.14	23021.51
687.28	23122.15
687.42	22895.12
687.55	23063.64
687.69	23309.40
687.82	23318.76
687.96	23201.73
688.10	23145.56
688.23	22689.15
688.37	22728.94
688.50	22721.92
688.64	22731.28
688.78	22721.92
688.91	22272.54
689.05	21762.30
689.18	22171.89
689.32	21846.56
689.46	22267.86
689.59	22223.39
689.73	22314.67
689.86	21886.35
690.00	21788.05
690.13	21720.17
690.27	21855.92
690.41	21582.08
690.54	20968.86
690.68	21074.18
690.81	21369.09
690.95	21284.83
691.08	21029.71
691.22	21326.96
691.35	21338.66
691.49	21256.75
691.62	21209.93
691.76	20875.24
691.89	20819.07
692.03	20807.36
692.16	20877.58
692.30	20491.39
692.43	20526.50
692.57	20025.62
692.70	20025.62
692.84	19896.89
692.97	19899.23
693.11	19864.13
693.24	19653.48
693.38	19826.68
693.51	19908.60
693.65	19733.06
693.78	19653.48
693.92	19201.76
694.05	19410.06
694.19	19520.07
694.32	19370.27
694.45	19461.55
694.59	19176.01
694.72	19021.53
694.86	18951.32
694.99	18707.90
695.13	19068.34
695.26	18576.83
695.39	18579.17
695.53	18946.64
695.66	18633.00
695.80	18611.94
695.93	18239.79
696.07	18221.07
696.20	18553.43
696.33	18258.52
696.47	18295.97
696.60	18408.31
696.73	17893.40
696.87	17858.29
697.00	17947.23
697.14	17624.23
697.27	17436.99
697.40	17242.73
697.54	17731.90
697.67	17425.29
697.80	17277.83
697.94	17034.42
698.07	17128.04
698.21	17219.32
698.34	16996.97
698.47	17284.86
698.61	16875.26
698.74	16856.54
698.87	16812.07
699.01	16547.59
699.14	16332.26
699.27	16243.32
699.40	16566.31
699.54	16343.96
699.67	16107.57
699.80	16437.58
699.94	16053.73
700.07	16187.14
700.20	15812.66
700.34	16142.67
700.47	16177.78
700.60	15737.76
700.73	15920.32
700.87	15955.43
701.00	15634.78
701.13	15637.12
701.26	15372.64
701.40	15489.67
701.53	15279.02
701.66	15417.11
701.79	15288.38
701.93	15059.01
702.06	14874.10
702.19	14750.06
702.32	14892.83
702.46	15044.96
702.59	15169.01
702.72	14949.00
702.85	14909.21
702.99	14637.71
703.12	14501.96
703.25	14396.64
703.38	14375.57
703.51	14459.83
703.65	14539.41
703.78	14305.35
703.91	13891.08
704.04	13862.99
704.17	13717.88
704.31	13893.42
704.44	13825.54
704.57	13893.42
704.70	13820.86
704.83	13748.31
704.96	13956.61
705.10	13612.56
705.23	13612.56
>>>>>End Processed Spectral Data<<<<<
