SpectraSuite Data File
++++++++++++++++++++++++++++++++++++
Date: Fri Oct 25 10:44:46 EDT 2013
User: price-jones
Dark Spectrum Present: No
Reference Spectrum Present: No
Number of Sampled Component Spectra: 1
Spectrometers: USB2+H05261
Integration Time (usec): 100000 (USB2+H05261)
Spectra Averaged: 1 (USB2+H05261)
Boxcar Smoothing: 0 (USB2+H05261)
Correct for Electrical Dark: No (USB2+H05261)
Strobe/Lamp Enabled: No (USB2+H05261)
Correct for Detector Non-linearity: No (USB2+H05261)
Correct for Stray Light: No (USB2+H05261)
Number of Pixels in Processed Spectrum: 2048
>>>>>Begin Processed Spectral Data<<<<<
365.73	124.05
365.92	124.05
366.12	124.05
366.32	79.58
366.52	21.06
366.72	32.77
366.91	7.02
367.11	0.00
367.31	0.00
367.51	74.90
367.70	14.04
367.90	4.68
368.10	0.00
368.30	23.41
368.49	56.17
368.69	0.00
368.89	70.22
369.09	84.26
369.28	14.04
369.48	74.90
369.68	77.24
369.87	72.56
370.07	70.22
370.27	86.60
370.47	231.71
370.66	369.80
370.86	367.46
371.06	416.62
371.25	479.81
371.45	425.98
371.65	449.38
371.84	517.26
372.04	376.83
372.24	524.28
372.44	447.04
372.63	477.47
372.83	493.85
373.03	456.40
373.22	411.93
373.42	540.66
373.62	440.02
373.81	505.56
374.01	531.30
374.21	517.26
374.40	489.17
374.60	615.56
374.79	564.07
374.99	557.05
375.19	557.05
375.38	524.28
375.58	547.69
375.78	575.77
375.97	540.66
376.17	667.05
376.37	592.16
376.56	596.84
376.76	587.47
376.95	575.77
377.15	615.56
377.35	622.58
377.54	573.43
377.74	531.30
377.93	596.84
378.13	585.13
378.33	596.84
378.52	631.94
378.72	631.94
378.91	599.18
379.11	648.33
379.31	624.92
379.50	568.75
379.70	716.20
379.89	678.76
380.09	601.52
380.28	603.86
380.48	631.94
380.68	615.56
380.87	748.97
381.07	664.71
381.26	704.50
381.46	657.69
381.65	695.14
381.85	667.05
382.04	674.07
382.24	624.92
382.43	678.76
382.63	671.73
382.83	627.26
383.02	760.67
383.22	730.25
383.41	688.12
383.61	741.95
383.80	746.63
384.00	718.54
384.19	709.18
384.39	814.51
384.58	678.76
384.78	741.95
384.97	802.80
385.17	830.89
385.36	711.52
385.56	741.95
385.75	774.72
385.95	727.91
386.14	786.42
386.34	767.70
386.53	812.17
386.72	777.06
386.92	835.57
387.11	786.42
387.31	844.93
387.50	723.23
387.70	784.08
387.89	781.74
388.09	767.70
388.28	786.42
388.48	833.23
388.67	898.77
388.86	924.51
389.06	891.74
389.25	945.58
389.45	924.51
389.64	924.51
389.84	919.83
390.03	891.74
390.22	924.51
390.42	919.83
390.61	968.98
390.81	898.77
391.00	1022.81
391.19	922.17
391.39	976.00
391.58	880.04
391.78	947.92
391.97	983.02
392.16	924.51
392.36	929.19
392.55	922.17
392.75	880.04
392.94	940.90
393.13	1022.81
393.33	875.36
393.52	1018.13
393.71	1062.60
393.91	978.34
394.10	1036.86
394.29	1069.62
394.49	1029.84
394.68	1083.67
394.88	1081.33
395.07	1144.52
395.26	1132.82
395.46	1179.63
395.65	1167.93
395.84	1125.80
396.04	1078.99
396.23	1111.75
396.42	1163.25
396.62	1132.82
396.81	1128.14
397.00	1224.10
397.19	1193.67
397.39	1193.67
397.58	1235.80
397.77	1224.10
397.97	1303.68
398.16	1277.93
398.35	1350.49
398.55	1226.44
398.74	1343.47
398.93	1376.24
399.12	1294.32
399.32	1256.87
399.51	1369.21
399.70	1418.36
399.90	1369.21
400.09	1469.86
400.28	1373.89
400.47	1404.32
400.67	1446.45
400.86	1490.92
401.05	1451.13
401.24	1516.67
401.44	1519.01
401.63	1462.83
401.82	1579.86
402.01	1523.69
402.21	1537.73
402.40	1612.63
402.59	1551.78
402.78	1526.03
402.97	1537.73
403.17	1495.60
403.36	1568.16
403.55	1654.76
403.74	1638.38
403.93	1603.27
404.13	1692.21
404.32	1647.74
404.51	1659.44
404.70	1652.42
404.89	1675.82
405.09	1755.40
405.28	1797.53
405.47	1661.78
405.66	1806.89
405.85	1703.91
406.05	1762.42
406.24	1811.57
406.43	1834.98
406.62	1893.49
406.81	1820.94
407.00	1928.60
407.20	1781.15
407.39	1781.15
407.58	1947.33
407.77	1973.07
407.96	2029.24
408.15	2001.16
408.34	1998.82
408.54	2099.46
408.73	1954.35
408.92	2080.74
409.11	2064.35
409.30	2003.50
409.49	2001.16
409.68	2057.33
409.87	2101.80
410.07	2094.78
410.26	2099.46
410.45	2165.00
410.64	2176.70
410.83	2174.36
411.02	2181.38
411.21	2314.79
411.40	2340.54
411.59	2347.56
411.78	2352.24
411.98	2279.68
412.17	2342.88
412.36	2342.88
412.55	2469.27
412.74	2532.46
412.93	2581.61
413.12	2436.50
413.31	2504.37
413.50	2424.80
413.69	2534.80
413.88	2689.28
414.07	2600.34
414.26	2609.70
414.45	2665.87
414.64	2703.32
414.83	2780.56
415.02	2778.22
415.22	2628.42
415.41	2862.48
415.60	2813.32
415.79	2855.45
415.98	2876.52
416.17	2864.82
416.36	2923.33
416.55	2942.05
416.74	2935.03
416.93	2895.24
417.12	3040.36
417.31	3023.97
417.50	2956.10
417.69	3117.59
417.88	3049.72
418.07	3035.67
418.26	3155.04
418.45	3101.21
418.64	3267.39
418.83	3173.77
419.02	3241.64
419.21	3403.14
419.39	3176.11
419.58	3220.58
419.77	3234.62
419.96	3396.12
420.15	3330.58
420.34	3318.88
420.53	3335.26
420.72	3393.78
420.91	3358.67
421.10	3543.57
421.29	3503.78
421.48	3447.61
421.67	3435.91
421.86	3410.16
422.05	3461.65
422.24	3599.74
422.43	3438.25
422.61	3541.23
422.80	3534.21
422.99	3499.10
423.18	3548.25
423.37	3548.25
423.56	3442.93
423.75	3531.87
423.94	3489.74
424.13	3339.94
424.32	3463.99
424.50	3545.91
424.69	3564.64
424.88	3712.09
425.07	3548.25
425.26	3693.37
425.45	3620.81
425.64	3461.65
425.83	3686.34
426.01	3796.35
426.20	3515.48
426.39	3686.34
426.58	3684.00
426.77	3508.46
426.96	3702.73
427.15	3618.47
427.33	3669.96
427.52	3698.05
427.71	3749.54
427.90	3676.98
428.09	3658.26
428.28	3723.79
428.46	3864.22
428.65	3836.14
428.84	3918.06
429.03	3758.90
429.22	3796.35
429.40	3896.99
429.59	3896.99
429.78	3578.68
429.97	3637.19
430.16	3749.54
430.34	3786.99
430.53	3871.25
430.72	3918.06
430.91	3880.61
431.10	3969.55
431.28	4028.06
431.47	4079.55
431.66	4219.99
431.85	4142.75
432.03	4278.50
432.22	4236.37
432.41	4294.88
432.60	4442.34
432.79	4219.99
432.97	4386.16
433.16	4348.72
433.35	4086.58
433.54	4276.16
433.72	4308.93
433.91	4241.05
434.10	4252.75
434.28	4292.54
434.47	4358.08
434.66	4482.13
434.85	4568.73
435.03	4493.83
435.22	4521.92
435.41	4617.88
435.59	4702.14
435.78	4650.64
435.97	4662.35
436.16	4650.64
436.34	4554.68
436.53	4613.20
436.72	4882.36
436.90	4690.43
437.09	4751.29
437.28	4587.45
437.46	4861.29
437.65	4531.28
437.84	4711.50
438.02	4755.97
438.21	4730.22
438.40	4842.57
438.58	4758.31
438.77	5020.45
438.96	4915.12
439.14	5083.64
439.33	5233.44
439.52	4987.68
439.70	5027.47
439.89	5107.05
440.08	5198.33
440.26	5303.65
440.45	5200.67
440.63	5390.25
440.82	5394.93
441.01	5404.30
441.19	5369.19
441.38	5497.92
441.57	5556.43
441.75	5547.07
441.94	5647.71
442.12	5636.01
442.31	5760.06
442.50	5823.25
442.68	5724.95
442.87	5696.86
443.05	5734.31
443.24	5893.47
443.43	5746.02
443.61	5900.49
443.80	6108.80
443.98	5764.74
444.17	5481.53
444.35	5802.19
444.54	5820.91
444.73	5963.68
444.91	5741.33
445.10	5919.21
445.28	5860.70
445.47	5820.91
445.65	5884.11
445.84	5858.36
446.02	5827.93
446.21	5944.96
446.39	5820.91
446.58	5949.64
446.77	6029.22
446.95	5865.38
447.14	6083.05
447.32	6239.87
447.51	5916.87
447.69	6120.50
447.88	6029.22
448.06	5956.66
448.25	5830.27
448.43	6136.88
448.62	6157.95
448.80	6169.65
448.99	6012.84
449.17	6190.72
449.36	6143.91
449.54	6335.83
449.73	6272.64
449.91	6401.37
450.10	6352.21
450.28	6483.28
450.46	6347.53
450.65	6466.90
450.83	6335.83
451.02	6553.50
451.20	6459.88
451.39	6647.12
451.57	6562.86
451.76	6623.72
451.94	6768.83
452.13	6537.12
452.31	6490.31
452.49	6576.91
452.68	6457.54
452.86	6560.52
453.05	6537.12
453.23	6640.10
453.42	6656.48
453.60	6637.76
453.78	6803.94
453.97	6736.06
454.15	6626.06
454.34	6607.33
454.52	6768.83
454.70	6839.05
454.89	6820.32
455.07	7007.56
455.26	6693.93
455.44	7190.13
455.62	7080.12
455.81	7129.27
455.99	7045.01
456.17	7304.81
456.36	7225.23
456.54	7152.68
456.73	7494.40
456.91	7384.39
457.09	7250.98
457.28	7515.46
457.46	7281.41
457.64	7375.03
457.83	7297.79
458.01	7323.54
458.19	7365.67
458.38	7492.05
458.56	7506.10
458.74	7641.85
458.93	7297.79
459.11	7641.85
459.29	7569.29
459.48	7541.21
459.66	7442.90
459.84	7599.72
460.03	7590.36
460.21	7805.69
460.39	7662.91
460.57	7793.98
460.76	7801.01
460.94	7812.71
461.12	7852.50
461.31	7920.37
461.49	7742.49
461.67	7812.71
461.85	8126.34
462.04	7913.35
462.22	8262.09
462.40	8074.85
462.59	8025.70
462.77	8079.53
462.95	8107.62
463.13	8163.79
463.32	8095.91
463.50	8042.08
463.68	8224.64
463.86	8325.29
464.05	7929.74
464.23	8107.62
464.41	8360.39
464.59	8105.28
464.78	8393.16
464.96	8514.87
465.14	8222.30
465.32	8201.24
465.50	8535.93
465.69	8617.85
465.87	8329.97
466.05	8285.50
466.23	8287.84
466.41	8519.55
466.60	8641.26
466.78	8327.63
466.96	8465.72
467.14	8461.04
467.32	8493.80
467.51	8613.17
467.69	8498.49
467.87	8706.79
468.05	8631.90
468.23	8667.00
468.41	8667.00
468.60	8594.45
468.78	8805.10
468.96	8837.86
469.14	8772.33
469.32	8908.08
469.50	8643.60
469.69	8800.41
469.87	9100.00
470.05	8964.25
470.23	9048.51
470.41	8917.44
470.59	9291.93
470.77	8922.12
470.95	9085.96
471.14	9308.31
471.32	9048.51
471.50	9472.15
471.68	9554.07
471.86	9523.64
472.04	9591.52
472.22	9525.98
472.40	9327.03
472.58	9418.32
472.77	9408.95
472.95	9399.59
473.13	9809.19
473.31	9738.97
473.49	9844.29
473.67	9694.50
473.85	9898.13
474.03	9961.32
474.21	10066.64
474.39	10221.12
474.57	10125.16
474.75	10064.30
474.93	10221.12
475.12	10143.88
475.30	10427.09
475.48	10167.29
475.66	10342.83
475.84	10427.09
476.02	10635.39
476.20	10541.77
476.38	10675.18
476.56	10899.87
476.74	10806.25
476.92	10778.17
477.10	10927.96
477.28	11138.61
477.46	11000.52
477.64	11218.19
477.82	11438.20
478.00	11501.39
478.18	11510.75
478.36	11431.18
478.54	11693.32
478.72	11653.53
478.90	11798.64
479.08	11775.24
479.26	12067.80
479.44	12121.63
479.62	12051.42
479.80	12121.63
479.98	12362.71
480.16	12507.82
480.34	12290.15
480.52	12992.31
480.70	12365.05
480.88	12559.31
481.06	12482.08
481.24	12582.72
481.41	13053.17
481.59	13221.69
481.77	13163.17
481.95	13163.17
482.13	13446.38
482.31	13319.99
482.49	13729.58
482.67	13694.47
482.85	13813.84
483.03	13795.12
483.21	13912.14
483.39	14167.26
483.57	13909.80
483.74	14223.44
483.92	14094.71
484.10	14373.23
484.28	14567.49
484.46	14810.91
484.64	14977.09
484.82	14604.94
485.00	15241.57
485.18	15377.32
485.35	15021.56
485.53	15007.52
485.71	15243.91
485.89	15363.28
486.07	15267.31
486.25	15477.96
486.43	15833.72
486.61	15679.25
486.78	16079.48
486.96	15969.48
487.14	16067.78
487.32	16414.18
487.50	16545.25
487.68	16673.98
487.85	16938.46
488.03	17104.64
488.21	17165.49
488.39	17198.26
488.57	17296.56
488.75	17359.75
488.92	17584.44
489.10	17741.26
489.28	17813.82
489.46	17991.70
489.64	18111.07
489.81	18487.89
489.99	18586.19
490.17	18829.61
490.35	18911.53
490.53	18759.39
490.70	18869.40
490.88	18883.44
491.06	19241.54
491.24	19000.47
491.41	19335.17
491.59	19257.93
491.77	19248.57
491.95	19431.13
492.13	19693.27
492.30	19761.14
492.48	20114.56
492.66	20290.10
492.84	20093.50
493.01	20166.06
493.19	20229.25
493.37	20386.07
493.54	20673.95
493.72	20641.18
493.90	20851.83
494.08	20973.54
494.25	21282.49
494.43	21376.11
494.61	21280.15
494.79	21741.24
494.96	21607.83
495.14	21750.60
495.32	21944.86
495.49	21839.54
495.67	22127.42
495.85	22448.08
496.02	22391.91
496.20	22562.76
496.38	22719.58
496.55	22621.28
496.73	22972.36
496.91	22843.63
497.09	23201.73
497.26	23044.91
497.44	23309.40
497.62	23468.55
497.79	23761.12
497.97	23283.65
498.14	23330.46
498.32	23906.23
498.50	23578.56
498.67	23896.87
498.85	24081.77
499.03	24203.48
499.20	24208.16
499.38	24168.37
499.56	24678.61
499.73	24596.69
499.91	24652.86
500.08	24741.80
500.26	24664.57
500.44	24835.42
500.61	24599.03
500.79	24767.55
500.97	24608.39
501.14	25500.14
501.32	25591.42
501.49	25247.36
501.67	25745.89
501.84	25116.29
502.02	25441.62
502.20	25834.83
502.37	26045.48
502.55	25916.75
502.72	26153.15
502.90	25848.88
503.07	26225.70
503.25	26237.41
503.43	25743.55
503.60	26359.11
503.78	26197.62
503.95	26380.18
504.13	26829.56
504.30	26843.60
504.48	26719.56
504.65	27072.98
504.83	27232.13
505.01	27175.96
505.18	27154.90
505.36	27061.27
505.53	27534.06
505.71	27747.05
505.88	27496.61
506.06	27159.58
506.23	27646.41
506.41	27108.08
506.58	27494.27
506.76	27938.97
506.93	28161.33
507.11	27594.92
507.28	28060.68
507.46	27974.08
507.63	27974.08
507.81	28290.06
507.98	28112.17
508.16	28261.97
508.33	28568.58
508.50	28704.33
508.68	28854.12
508.85	29095.20
509.03	28804.97
509.20	28863.49
509.38	28968.81
509.55	29179.46
509.73	28947.75
509.90	29301.17
510.08	29144.35
510.25	29230.95
510.42	29631.18
510.60	30043.12
510.77	29788.00
510.95	29883.96
511.12	29933.11
511.30	29809.06
511.47	30370.79
511.64	30221.00
511.82	30345.05
511.99	30146.10
512.17	30295.89
512.34	30075.88
512.51	30511.22
512.69	30658.68
512.86	30967.63
513.04	30981.67
513.21	30801.45
513.38	30649.32
513.56	30520.59
513.73	30834.22
513.90	30745.28
514.08	30595.48
514.25	31262.54
514.43	31133.81
514.60	31058.91
514.77	31302.32
514.95	31782.13
515.12	31262.54
515.29	31452.12
515.47	31740.00
515.64	31796.18
515.81	31592.55
515.99	31695.53
516.16	32240.88
516.33	31517.65
516.51	31880.44
516.68	31672.13
516.85	31695.53
517.03	31765.75
517.20	31985.76
517.37	32187.05
517.54	32381.31
517.72	32505.36
517.89	31945.97
518.06	32027.89
518.24	32233.86
518.41	32524.08
518.58	32318.12
518.75	32496.00
518.93	32926.66
519.10	32465.57
519.27	32938.36
519.45	33156.03
519.62	33240.29
519.79	32952.40
519.96	32917.29
520.14	33574.98
520.31	32606.00
520.48	33308.16
520.65	33310.50
520.83	33785.63
521.00	34192.89
521.17	33710.74
521.34	34038.41
521.52	34127.35
521.69	33993.94
521.86	33743.50
522.03	34277.15
522.20	34150.76
522.38	34113.31
522.55	34473.75
522.72	34426.94
522.89	34455.03
523.07	34466.73
523.24	34258.42
523.41	34869.30
523.58	34604.82
523.75	35051.86
523.92	35037.82
524.10	34944.20
524.27	35077.61
524.44	35173.57
524.61	35159.53
524.78	35175.91
524.96	35171.23
525.13	35526.99
525.30	35585.50
525.47	35187.61
525.64	35700.19
525.81	35590.19
525.98	35669.76
526.16	35271.87
526.33	35091.65
526.50	35393.58
526.67	35255.49
526.84	35482.52
527.01	35517.63
527.18	35564.44
527.36	36091.06
527.53	36114.47
527.70	36301.71
527.87	36297.03
528.04	36128.51
528.21	36374.27
528.38	36442.14
528.55	36594.28
528.72	36582.57
528.89	36671.51
529.07	36301.71
529.24	36280.64
529.41	36418.74
529.58	36704.28
529.75	36802.58
529.92	36650.45
530.09	37076.43
530.26	36973.44
530.43	37258.99
530.60	36830.67
530.77	36746.41
530.94	36713.64
531.11	36903.23
531.28	36912.59
531.46	37521.13
531.63	37324.52
531.80	37570.28
531.97	37350.27
532.14	37542.19
532.31	37347.93
532.48	37469.64
532.65	37530.49
532.82	37270.69
532.99	37958.81
533.16	37443.89
533.33	37684.97
533.50	38057.11
533.67	38113.28
533.84	37792.63
534.01	38284.14
534.18	38000.94
534.35	38447.98
534.52	37895.61
534.69	38340.32
534.86	37968.17
535.03	38265.42
535.20	38445.64
535.37	38466.70
535.54	38967.58
535.71	38029.02
535.88	38398.83
536.05	38541.60
536.22	38815.44
536.38	38913.75
536.55	38639.90
536.72	38890.34
536.89	38246.69
537.06	38862.26
537.23	38979.28
537.40	39164.18
537.57	39026.09
537.74	39051.84
537.91	39463.77
538.08	39063.54
538.25	38625.86
538.42	39065.88
538.59	39573.78
538.75	39335.04
538.92	39000.35
539.09	39213.34
539.26	39262.49
539.43	38998.01
539.60	39274.19
539.77	39260.15
539.94	39491.86
540.11	39257.81
540.28	39789.11
540.44	39164.18
540.61	39269.51
540.78	39541.01
540.95	39283.55
541.12	39761.02
541.29	39746.98
541.46	39674.42
541.62	39833.58
541.79	39676.76
541.96	39545.69
542.13	39992.73
542.30	40266.58
542.47	39782.09
542.63	39997.41
542.80	40217.43
542.97	40439.78
543.14	40957.03
543.31	40570.85
543.48	40678.51
543.64	40781.49
543.81	40755.75
543.98	40362.54
544.15	40900.86
544.32	40896.18
544.48	40713.62
544.65	40526.38
544.82	40957.03
544.99	40966.40
545.16	41331.52
545.32	40460.84
545.49	41216.83
545.66	41434.50
545.83	41186.41
546.00	41134.92
546.16	41558.55
546.33	41179.39
546.50	40987.46
546.67	41038.95
546.83	41055.34
547.00	41591.32
547.17	41420.46
547.34	41507.06
547.50	41453.23
547.67	41596.00
547.84	41237.90
548.00	41617.07
548.17	41656.85
548.34	41743.45
548.51	41717.71
548.67	41757.50
548.84	41722.39
549.01	41549.19
549.18	41336.20
549.34	41963.46
549.51	41902.61
549.68	42124.96
549.84	41881.55
550.01	42183.48
550.18	41937.72
550.34	42129.64
550.51	42012.62
550.68	42234.97
550.84	41610.04
551.01	42103.90
551.18	41858.14
551.34	41677.92
551.51	42258.37
551.68	41785.58
551.84	42595.41
552.01	42108.58
552.18	42316.89
552.34	41581.96
552.51	42712.44
552.68	42426.89
552.84	42644.56
553.01	42728.82
553.18	42417.53
553.34	42424.55
553.51	41991.55
553.67	42721.80
553.84	43035.43
554.01	42595.41
554.17	42696.05
554.34	42871.59
554.51	43227.35
554.67	43021.39
554.84	42880.95
555.00	42742.86
555.17	42824.78
555.33	42946.49
555.50	42937.13
555.67	42824.78
555.83	43009.68
556.00	42890.32
556.16	43564.39
556.33	43093.94
556.50	42534.56
556.66	43442.68
556.83	42703.07
556.99	42887.98
557.16	43346.72
557.32	43093.94
557.49	43330.34
557.65	42693.71
557.82	43295.23
557.98	43072.88
558.15	43313.95
558.32	43215.65
558.48	43428.64
558.65	42916.06
558.81	42990.96
558.98	43140.75
559.14	43313.95
559.31	42988.62
559.47	43487.15
559.64	43538.65
559.80	43405.23
559.97	43536.30
560.13	43690.78
560.30	43510.56
560.46	43370.13
560.63	43824.19
560.79	43674.40
560.96	43796.10
561.12	43585.46
561.29	43339.70
561.45	43168.84
561.61	43358.42
561.78	43498.86
561.94	43650.99
562.11	44072.29
562.27	43650.99
562.44	43847.60
562.60	44137.82
562.77	43835.89
562.93	44048.88
563.10	44086.33
563.26	43599.50
563.42	43847.60
563.59	43182.88
563.75	43526.94
563.92	44112.08
564.08	43927.17
564.24	43990.37
564.41	43833.55
564.57	43880.36
564.74	43807.81
564.90	43779.72
565.07	44154.21
565.23	44025.48
565.39	44079.31
565.56	43732.91
565.72	43519.92
565.88	44053.56
566.05	43838.23
566.21	44175.27
566.38	44189.31
566.54	43906.11
566.70	44149.53
566.87	44509.97
567.03	44069.95
567.19	44535.71
567.36	44168.25
567.52	43969.30
567.68	44294.64
567.85	44238.47
568.01	44114.42
568.17	44081.65
568.34	44294.64
568.50	43971.64
568.66	44023.14
568.83	44065.27
568.99	43971.64
569.15	44100.37
569.32	44081.65
569.48	43826.53
569.64	44067.61
569.81	44318.04
569.97	44458.48
570.13	44556.78
570.30	44086.33
570.46	43971.64
570.62	43861.64
570.78	43924.83
570.95	43913.13
571.11	44149.53
571.27	44039.52
571.43	44191.65
571.60	44282.94
571.76	43871.00
571.92	44067.61
572.09	44388.26
572.25	44168.25
572.41	44062.93
572.57	44374.22
572.74	44568.48
572.90	44828.28
573.06	44624.65
573.22	44399.96
573.38	44364.85
573.55	44273.57
573.71	44428.05
573.87	44381.24
574.03	44327.41
574.20	44086.33
574.36	44411.67
574.52	44477.20
574.68	44666.78
574.84	44339.11
575.01	43915.47
575.17	44243.15
575.33	44514.65
575.49	44285.28
575.65	44554.44
575.82	44552.10
575.98	44561.46
576.14	44828.28
576.30	44598.91
576.46	44250.17
576.62	43962.28
576.79	44282.94
576.95	44130.80
577.11	44439.75
577.27	44575.50
577.43	44547.42
577.59	44566.14
577.75	44301.66
577.92	43981.01
578.08	44449.11
578.24	44140.16
578.40	44116.76
578.56	44208.04
578.72	44601.25
578.88	44533.37
579.04	45067.02
579.21	44491.24
579.37	44509.97
579.53	44128.46
579.69	44460.82
579.85	44519.33
580.01	44538.05
580.17	44376.56
580.33	44715.93
580.49	44751.04
580.65	44402.30
580.82	44399.96
580.98	43985.69
581.14	44437.41
581.30	44399.96
581.46	44715.93
581.62	44465.50
581.78	44411.67
581.94	44952.33
582.10	44259.53
582.26	44472.52
582.42	44273.57
582.58	44619.97
582.74	44449.11
582.90	44781.47
583.06	44648.06
583.22	44753.38
583.38	44748.70
583.54	45045.95
583.70	44823.60
583.86	44832.96
584.02	44463.16
584.18	44652.74
584.34	44760.40
584.50	44158.89
584.66	44409.32
584.82	44343.79
584.98	44575.50
585.14	44722.96
585.30	44758.06
585.46	44982.76
585.62	44992.12
585.78	44552.10
585.94	44542.74
586.10	44760.40
586.26	44573.16
586.42	44662.10
586.58	44704.23
586.74	44985.10
586.90	44559.12
587.06	44669.12
587.22	45141.91
587.38	44507.63
587.54	44758.06
587.70	44549.76
587.86	44514.65
588.02	44538.05
588.18	44765.09
588.34	44751.04
588.49	44706.57
588.65	44116.76
588.81	44559.12
588.97	44079.31
589.13	44680.83
589.29	44718.28
589.45	44481.88
589.61	44568.48
589.77	44818.92
589.93	44809.56
590.08	45408.73
590.24	44903.18
590.40	44928.92
590.56	45116.17
590.72	44961.69
590.88	44151.87
591.04	44987.44
591.20	45226.17
591.35	45247.24
591.51	44964.03
591.67	44835.30
591.83	44844.66
591.99	44811.90
592.15	44720.62
592.31	44788.49
592.46	44821.26
592.62	44849.35
592.78	44711.25
592.94	45275.32
593.10	44615.29
593.26	44978.07
593.41	44587.21
593.57	45069.36
593.73	44760.40
593.89	45071.70
594.05	45162.98
594.20	44687.85
594.36	45043.61
594.52	45034.25
594.68	45214.47
594.84	44863.39
594.99	44868.07
595.15	45378.31
595.31	44823.60
595.47	45179.36
595.62	44788.49
595.78	45350.22
595.94	44919.56
596.10	45340.86
596.25	45345.54
596.41	45071.70
596.57	45181.70
596.73	45099.78
596.88	44718.28
597.04	44603.59
597.20	44746.36
597.36	45123.19
597.51	45116.17
597.67	45675.55
597.83	45219.15
597.99	45251.92
598.14	45179.36
598.30	45027.23
598.46	44994.46
598.61	44926.58
598.77	44896.16
598.93	45050.63
599.09	45069.36
599.24	45425.12
599.40	45151.27
599.56	45139.57
599.71	44889.13
599.87	45516.40
600.03	44978.07
600.18	45191.06
600.34	45048.29
600.50	44788.49
600.65	44847.00
600.81	44987.44
600.97	45535.12
601.12	45001.48
601.28	45151.27
601.44	45022.54
601.59	44868.07
601.75	44732.32
601.91	44959.35
602.06	44765.09
602.22	45270.64
602.37	44800.19
602.53	45696.62
602.69	44928.92
602.84	45324.47
603.00	45357.24
603.16	44992.12
603.31	45057.65
603.47	45001.48
603.62	44650.40
603.78	44755.72
603.94	45010.84
604.09	44727.64
604.25	45315.11
604.40	45184.04
604.56	44847.00
604.71	45282.34
604.87	44994.46
605.03	44758.06
605.18	44762.75
605.34	44795.51
605.49	44655.08
605.65	44306.34
605.80	44737.00
605.96	45137.23
606.12	45071.70
606.27	45425.12
606.43	44769.77
606.58	44776.79
606.74	44540.39
606.89	45174.68
607.05	44615.29
607.20	44659.76
607.36	45062.33
607.51	45059.99
607.67	44594.23
607.82	44605.93
607.98	44889.13
608.13	44472.52
608.29	44332.09
608.44	44683.17
608.60	44259.53
608.75	44320.38
608.91	44299.32
609.06	44432.73
609.22	44444.43
609.37	44542.74
609.53	44954.67
609.68	44289.96
609.84	43924.83
609.99	44722.96
610.15	44495.92
610.30	44287.62
610.46	43868.66
610.61	44715.93
610.76	44694.87
610.92	44374.22
611.07	44947.65
611.23	44704.23
611.38	44327.41
611.54	44266.55
611.69	44364.85
611.84	44112.08
612.00	44009.09
612.15	44346.13
612.31	44577.84
612.46	43973.98
612.62	44137.82
612.77	44130.80
612.92	44655.08
613.08	44051.22
613.23	43917.81
613.39	44304.00
613.54	43309.27
613.69	44196.34
613.85	44491.24
614.00	44168.25
614.15	44516.99
614.31	44369.54
614.46	44378.90
614.62	44388.26
614.77	44142.50
614.92	43941.22
615.08	43931.86
615.23	43505.88
615.38	43704.82
615.54	43618.22
615.69	43948.24
615.84	43285.87
616.00	43779.72
616.15	43730.57
616.30	44250.17
616.46	43730.57
616.61	43414.60
616.76	43587.80
616.92	43278.85
617.07	43264.80
617.22	43320.98
617.37	43592.48
617.53	43697.80
617.68	44137.82
617.83	43533.96
617.99	43718.87
618.14	43372.47
618.29	43686.10
618.45	42962.87
618.60	43093.94
618.75	43510.56
618.90	43452.05
619.06	43309.27
619.21	42974.58
619.36	43672.06
619.51	43264.80
619.67	43335.02
619.82	43433.32
619.97	43456.73
620.12	43269.48
620.28	42852.87
620.43	43159.48
620.58	43056.50
620.73	43487.15
620.89	43077.56
621.04	43054.15
621.19	43119.69
621.34	43171.18
621.49	43129.05
621.65	42752.23
621.80	42965.21
621.95	42583.71
622.10	43194.59
622.25	42983.94
622.41	42583.71
622.56	42457.32
622.71	43047.13
622.86	42845.85
623.01	42883.30
623.16	42656.26
623.32	42787.33
623.47	42511.15
623.62	43005.00
623.77	42368.38
623.92	42792.01
624.07	42817.76
624.23	42211.56
624.38	42586.05
624.53	41677.92
624.68	42452.64
624.83	42466.68
624.98	42227.95
625.13	42038.36
625.29	42380.08
625.44	42080.49
625.59	42134.32
625.74	42024.32
625.89	41490.68
626.04	42024.32
626.19	42202.20
626.34	42410.51
626.49	42157.73
626.65	42108.58
626.80	42019.64
626.95	42012.62
627.10	41794.95
627.25	41720.05
627.40	41897.93
627.55	41282.37
627.70	41537.49
627.85	41422.80
628.00	41397.06
628.15	41612.38
628.30	41654.51
628.45	41628.77
628.60	41617.07
628.76	41888.57
628.91	42024.32
629.06	41230.88
629.21	41567.91
629.36	41471.95
629.51	41558.55
629.66	41471.95
629.81	41413.44
629.96	41521.10
630.11	42150.71
630.26	41797.29
630.41	41249.60
630.56	41045.97
630.71	41172.36
630.86	41074.06
631.01	41179.39
631.16	41139.60
631.31	40938.31
631.46	40671.49
631.61	41146.62
631.76	41354.93
631.91	40928.95
632.06	40928.95
632.21	41287.05
632.36	41532.81
632.51	40348.50
632.66	40961.72
632.81	40821.28
632.96	40821.28
633.10	40861.07
633.25	40912.56
633.40	40772.13
633.55	40907.88
633.70	41048.32
633.85	40463.18
634.00	40928.95
634.15	40240.83
634.30	40800.22
634.45	40348.50
634.60	40467.86
634.75	40872.78
634.90	40355.52
635.05	40362.54
635.19	40341.47
635.34	40378.92
635.49	39941.24
635.64	40329.77
635.79	40163.59
635.94	40313.39
636.09	40596.59
636.24	40137.85
636.39	40458.50
636.53	40041.88
636.68	40093.38
636.83	40140.19
636.98	40285.30
637.13	39821.87
637.28	40149.55
637.43	40009.12
637.57	40350.84
637.72	40175.30
637.87	39955.29
638.02	39770.38
638.17	39805.49
638.32	40236.15
638.46	40334.45
638.61	39899.11
638.76	39835.92
638.91	39882.73
639.06	40311.05
639.20	40254.87
639.35	40205.72
639.50	39690.80
639.65	40301.68
639.80	40016.14
639.94	39805.49
640.09	39739.96
640.24	39489.52
640.39	39356.11
640.54	39632.29
640.68	39688.46
640.83	39693.15
640.98	39920.18
641.13	38883.32
641.27	39859.32
641.42	39601.86
641.57	39761.02
641.72	39335.04
641.86	39522.29
642.01	38969.92
642.16	39093.97
642.31	39035.45
642.45	39386.54
642.60	38955.88
642.75	39388.88
642.90	39225.04
643.04	39096.31
643.19	39138.44
643.34	39203.97
643.48	38759.27
643.63	38981.62
643.78	38770.97
643.93	38756.93
644.07	38880.98
644.22	38733.53
644.37	38796.72
644.51	38775.66
644.66	39147.80
644.81	38780.34
644.95	38852.89
645.10	38937.15
645.25	39248.44
645.39	38885.66
645.54	39005.03
645.69	38543.94
645.83	38862.26
645.98	38466.70
646.13	38885.66
646.27	38738.21
646.42	38579.05
646.57	39133.76
646.71	38824.81
646.86	38728.84
647.00	39009.71
647.15	38616.50
647.30	38471.39
647.44	38096.90
647.59	38157.75
647.74	38611.82
647.88	37996.26
648.03	38171.80
648.17	38391.81
648.32	38424.57
648.47	38689.06
648.61	37809.01
648.76	38658.63
648.90	38291.16
649.05	38078.18
649.20	38143.71
649.34	37921.36
649.49	37771.57
649.63	38082.86
649.78	37841.78
649.92	37785.61
650.07	38440.96
650.21	38026.68
650.36	38160.09
650.51	37684.97
650.65	38155.41
650.80	37968.17
650.94	38117.96
651.09	37874.55
651.23	38087.54
651.38	37682.62
651.52	37631.13
651.67	38052.43
651.81	37759.86
651.96	37607.73
652.10	37420.48
652.25	37872.21
652.39	37909.66
652.54	38012.64
652.68	37794.97
652.83	37495.38
652.97	37144.30
653.12	37507.08
653.26	37617.09
653.41	37839.44
653.55	37209.84
653.70	37378.36
653.84	37830.08
653.99	37572.62
654.13	37345.59
654.27	37331.54
654.42	37146.64
654.56	37280.05
654.71	37057.70
654.85	37493.04
655.00	37191.11
655.14	37151.32
655.29	36907.91
655.43	37031.96
655.57	37240.26
655.72	36713.64
655.86	36715.98
656.01	36648.11
656.15	36570.87
656.30	36753.43
656.44	36484.27
656.58	36648.11
656.73	36587.25
656.87	36341.50
657.01	36449.16
657.16	36453.84
657.30	36472.57
657.45	36341.50
657.59	36746.41
657.73	36561.51
657.88	36725.35
658.02	36807.26
658.16	36914.93
658.31	36081.70
658.45	36470.23
658.60	35969.35
658.74	36608.32
658.88	36189.36
659.03	36367.24
659.17	36240.86
659.31	36060.63
659.46	36484.27
659.60	36613.00
659.74	36285.33
659.89	35824.24
660.03	35903.82
660.17	35878.07
660.32	35711.89
660.46	36102.76
660.60	36201.07
660.74	35534.01
660.89	35784.45
661.03	35784.45
661.17	35878.07
661.32	35126.76
661.46	35555.08
661.60	35321.02
661.74	35646.36
661.89	35388.90
662.03	35718.92
662.17	35321.02
662.31	35175.91
662.46	35264.85
662.60	35292.94
662.74	35056.54
662.88	35143.14
663.03	34951.22
663.17	34817.81
663.31	34850.58
663.45	35124.42
663.60	34787.38
663.74	34906.75
663.88	34836.53
664.02	35035.48
664.17	34864.62
664.31	34689.08
664.45	34593.12
664.59	34536.94
664.73	34572.05
664.88	34155.44
665.02	34171.82
665.16	34291.19
665.30	34031.39
665.44	34174.16
665.59	34068.84
665.73	34003.30
665.87	33996.28
666.01	34033.73
666.15	33970.54
666.29	33692.01
666.44	34078.20
666.58	33823.08
666.72	33867.55
666.86	33890.96
667.00	34068.84
667.14	33450.94
667.28	33631.16
667.43	33574.98
667.57	33858.19
667.71	33378.38
667.85	33574.98
667.99	33233.27
668.13	33156.03
668.27	33343.27
668.41	33532.86
668.56	33048.36
668.70	33626.48
668.84	33603.07
668.98	32580.26
669.12	32879.85
669.26	32746.44
669.40	32381.31
669.54	32816.65
669.68	32900.91
669.82	32809.63
669.96	32484.30
670.10	32357.91
670.25	32479.61
670.39	32755.80
670.53	32446.85
670.67	32180.03
670.81	32264.28
670.95	32348.54
671.09	32306.41
671.23	32030.23
671.37	32383.65
671.51	32027.89
671.65	31840.65
671.79	31435.74
671.93	31562.12
672.07	32041.93
672.21	31969.38
672.35	31920.23
672.49	31889.80
672.63	31847.67
672.77	31398.29
672.91	31730.64
673.05	31562.12
673.19	31580.85
673.33	31367.86
673.47	31243.81
673.61	30817.83
673.75	31168.91
673.89	30918.48
674.03	30787.41
674.17	30448.03
674.31	30761.66
674.45	30487.82
674.59	30614.21
674.73	30909.11
674.87	30560.37
675.01	30312.28
675.15	30480.80
675.29	30422.28
675.43	29879.28
675.56	30235.04
675.70	30377.81
675.84	30361.43
675.98	29422.87
676.12	30150.78
676.26	29652.25
676.40	29582.03
676.54	29603.10
676.68	29738.85
676.82	29151.37
676.96	29394.79
677.10	29420.53
677.23	29364.36
677.37	29607.78
677.51	28905.62
677.65	28636.45
677.79	28711.35
677.93	28793.27
678.07	28819.02
678.21	28641.14
678.34	28484.32
678.48	27882.80
678.62	27934.29
678.76	27948.34
678.90	27676.83
679.04	27833.65
679.18	27613.64
679.31	27807.90
679.45	27819.61
679.59	27475.55
679.73	27566.83
679.87	27126.81
680.00	26831.90
680.14	27047.23
680.28	27248.52
680.42	27129.15
680.56	27332.78
680.70	27274.26
680.83	27063.61
680.97	26637.64
681.11	27421.72
681.25	26672.74
681.39	26574.44
681.52	26726.58
681.66	26735.94
681.80	26417.63
681.94	26492.52
682.07	26745.30
682.21	26272.51
682.35	26211.66
682.49	26073.57
682.62	26331.03
682.76	25902.71
682.90	25820.79
683.04	25844.20
683.17	25296.51
683.31	25284.81
683.45	25198.21
683.59	25418.22
683.72	25106.93
683.86	25039.05
684.00	25076.50
684.13	24940.75
684.27	24842.45
684.41	25003.94
684.55	24416.47
684.68	24842.45
684.82	24372.00
684.96	24734.78
685.09	24322.85
685.23	24421.15
685.37	24116.88
685.50	24250.29
685.64	24252.63
685.78	24320.51
685.91	23871.12
686.05	23915.59
686.19	23587.92
686.32	23828.99
686.46	23353.87
686.60	23126.83
686.73	23335.14
686.87	23178.33
687.01	23061.30
687.14	22916.19
687.28	23164.28
687.42	23070.66
687.55	22808.52
687.69	23150.24
687.82	22642.34
687.96	22689.15
688.10	22494.89
688.23	22494.89
688.37	22143.81
688.50	21921.46
688.64	22377.86
688.78	22026.78
688.91	22209.34
689.05	22347.44
689.18	22073.59
689.32	21446.33
689.46	21741.24
689.59	21830.18
689.73	21855.92
689.86	21556.33
690.00	21647.61
690.13	21399.52
690.27	21226.32
690.41	21102.27
690.54	21003.97
690.68	20833.11
690.81	20905.66
690.95	20952.48
691.08	20631.82
691.22	20891.62
691.35	20552.24
691.49	20732.47
691.62	20594.37
691.76	20400.11
691.89	20648.21
692.03	19997.54
692.16	20147.33
692.30	20063.07
692.43	20152.01
692.57	19786.89
692.70	19943.70
692.84	19740.08
692.97	19779.87
693.11	19826.68
693.24	19339.85
693.38	19225.16
693.51	19442.83
693.65	19370.27
693.78	19672.20
693.92	19435.81
694.05	19091.75
694.19	19414.74
694.32	19035.58
694.45	19066.00
694.59	18820.25
694.72	18757.05
694.86	18820.25
694.99	18637.69
695.13	18553.43
695.26	18637.69
695.39	18209.37
695.53	18359.16
695.66	18333.42
695.80	18129.79
695.93	18104.04
696.07	18036.17
696.20	18288.95
696.33	18015.10
696.47	17729.56
696.60	17600.83
696.73	17731.90
696.87	17408.90
697.00	17497.84
697.14	17748.28
697.27	17336.35
697.40	17462.74
697.54	17200.60
697.67	17516.57
697.80	17186.55
697.94	17041.44
698.07	16702.06
698.21	16664.61
698.34	16713.77
698.47	16676.32
698.61	16159.06
698.74	16765.26
698.87	16526.52
699.01	16184.80
699.14	16425.88
699.27	16159.06
699.40	16304.17
699.54	16154.38
699.67	15983.52
699.80	16016.29
699.94	15838.41
700.07	16140.33
700.20	15594.99
700.34	15690.95
700.47	15578.61
700.60	15922.66
700.73	15887.56
700.87	15463.92
701.00	15524.77
701.13	15358.60
701.26	15442.85
701.40	15171.35
701.53	14995.81
701.66	15028.58
701.79	14867.08
701.93	15103.48
702.06	14927.94
702.19	14576.86
702.32	15030.92
702.46	14530.05
702.59	14607.28
702.72	14654.09
702.85	14637.71
702.99	14572.18
703.12	14649.41
703.25	14384.93
703.38	14057.26
703.51	14174.28
703.65	14068.96
703.78	13848.95
703.91	13987.04
704.04	14211.73
704.17	13809.16
704.31	13973.00
704.44	13612.56
704.57	13659.37
704.70	13502.55
704.83	13516.59
704.96	13563.40
705.10	13514.25
705.23	13130.41
>>>>>End Processed Spectral Data<<<<<
