SpectraSuite Data File
++++++++++++++++++++++++++++++++++++
Date: Fri Oct 25 10:48:06 EDT 2013
User: price-jones
Dark Spectrum Present: No
Reference Spectrum Present: No
Number of Sampled Component Spectra: 1
Spectrometers: USB2+H05261
Integration Time (usec): 100000 (USB2+H05261)
Spectra Averaged: 1 (USB2+H05261)
Boxcar Smoothing: 0 (USB2+H05261)
Correct for Electrical Dark: No (USB2+H05261)
Strobe/Lamp Enabled: No (USB2+H05261)
Correct for Detector Non-linearity: No (USB2+H05261)
Correct for Stray Light: No (USB2+H05261)
Number of Pixels in Processed Spectrum: 2048
>>>>>Begin Processed Spectral Data<<<<<
365.73	156.82
365.92	156.82
366.12	156.82
366.32	128.73
366.52	0.00
366.72	72.56
366.91	98.30
367.11	14.04
367.31	0.00
367.51	37.45
367.70	67.88
367.90	74.90
368.10	63.19
368.30	0.00
368.49	60.85
368.69	0.00
368.89	70.22
369.09	161.50
369.28	35.11
369.48	72.56
369.68	93.62
369.87	100.64
370.07	95.96
370.27	124.05
370.47	163.84
370.66	395.55
370.86	411.93
371.06	461.09
371.25	465.77
371.45	423.64
371.65	465.77
371.84	463.43
372.04	425.98
372.24	482.15
372.44	430.66
372.63	479.81
372.83	449.38
373.03	561.73
373.22	486.83
373.42	498.53
373.62	510.24
373.81	524.28
374.01	638.97
374.21	573.43
374.40	524.28
374.60	603.86
374.79	482.15
374.99	571.09
375.19	629.60
375.38	608.54
375.58	561.73
375.78	676.41
375.97	482.15
376.17	535.98
376.37	603.86
376.56	615.56
376.76	575.77
376.95	517.26
377.15	627.26
377.35	578.11
377.54	615.56
377.74	636.63
377.93	601.52
378.13	653.01
378.33	592.16
378.52	678.76
378.72	648.33
378.91	627.26
379.11	564.07
379.31	653.01
379.50	624.92
379.70	613.22
379.89	643.65
380.09	674.07
380.28	606.20
380.48	653.01
380.68	631.94
380.87	674.07
381.07	669.39
381.26	620.24
381.46	650.67
381.65	683.44
381.85	695.14
382.04	638.97
382.24	655.35
382.43	662.37
382.63	699.82
382.83	678.76
383.02	711.52
383.22	685.78
383.41	676.41
383.61	662.37
383.80	798.12
384.00	734.93
384.19	702.16
384.39	767.70
384.58	706.84
384.78	688.12
384.97	765.36
385.17	793.44
385.36	713.86
385.56	779.40
385.75	746.63
385.95	760.67
386.14	819.19
386.34	802.80
386.53	650.67
386.72	814.51
386.92	847.27
387.11	805.14
387.31	835.57
387.50	702.16
387.70	711.52
387.89	837.91
388.09	791.10
388.28	844.93
388.48	851.96
388.67	908.13
388.86	847.27
389.06	880.04
389.25	980.68
389.45	917.49
389.64	882.38
389.84	896.43
390.03	863.66
390.22	931.53
390.42	875.36
390.61	873.02
390.81	849.61
391.00	931.53
391.19	973.66
391.39	957.28
391.58	992.39
391.78	985.37
391.97	1029.84
392.16	919.83
392.36	961.96
392.55	973.66
392.75	952.60
392.94	837.91
393.13	1004.09
393.33	938.55
393.52	908.13
393.71	1071.97
393.91	1022.81
394.10	1022.81
394.29	1034.52
394.49	987.71
394.68	1109.41
394.88	1125.80
395.07	1039.20
395.26	1086.01
395.46	1100.05
395.65	1200.69
395.84	1086.01
396.04	1179.63
396.23	1083.67
396.42	1048.56
396.62	1158.57
396.81	1078.99
397.00	1125.80
397.19	1142.18
397.39	1144.52
397.58	1191.33
397.77	1153.88
397.97	1158.57
398.16	1221.76
398.35	1193.67
398.55	1210.06
398.74	1226.44
398.93	1373.89
399.12	1322.40
399.32	1341.13
399.51	1306.02
399.70	1406.66
399.90	1306.02
400.09	1420.71
400.28	1331.76
400.47	1406.66
400.67	1366.87
400.86	1427.73
401.05	1392.62
401.24	1453.47
401.44	1549.43
401.63	1472.20
401.82	1495.60
402.01	1446.45
402.21	1530.71
402.40	1430.07
402.59	1453.47
402.78	1643.06
402.97	1462.83
403.17	1558.80
403.36	1579.86
403.55	1593.90
403.74	1556.46
403.93	1657.10
404.13	1586.88
404.32	1540.07
404.51	1640.72
404.70	1591.56
404.89	1626.67
405.09	1736.68
405.28	1741.36
405.47	1563.48
405.66	1636.03
405.85	1771.79
406.05	1652.42
406.24	1736.68
406.43	1610.29
406.62	1799.87
406.81	1717.95
407.00	1818.60
407.20	1753.06
407.39	1874.77
407.58	1767.10
407.77	1930.94
407.96	1783.49
408.15	1856.04
408.34	1877.11
408.54	1956.69
408.73	1973.07
408.92	1991.80
409.11	1923.92
409.30	1933.28
409.49	1928.60
409.68	2033.93
409.87	1874.77
410.07	2010.52
410.26	2040.95
410.45	2078.40
410.64	2064.35
410.83	2143.93
411.02	2228.19
411.21	2200.10
411.40	2232.87
411.59	2172.02
411.78	2167.34
411.98	2244.57
412.17	2298.41
412.36	2195.42
412.55	2359.26
412.74	2333.51
412.93	2394.37
413.12	2377.98
413.31	2502.03
413.50	2473.95
413.69	2415.43
413.88	2338.20
414.07	2466.92
414.26	2485.65
414.45	2553.52
414.64	2597.99
414.83	2630.76
415.02	2569.91
415.22	2682.25
415.41	2605.02
415.60	2808.64
415.79	2675.23
415.98	2942.05
416.17	2743.11
416.36	2733.75
416.55	2871.84
416.74	2932.69
416.93	2935.03
417.12	2832.05
417.31	2885.88
417.50	3101.21
417.69	3084.83
417.88	2993.55
418.07	2895.24
418.26	2991.20
418.45	3052.06
418.64	3162.06
418.83	3133.98
419.02	3133.98
419.21	3112.91
419.39	3119.93
419.58	3110.57
419.77	3035.67
419.96	3185.47
420.15	3344.63
420.34	3133.98
420.53	3183.13
420.72	3323.56
420.91	3335.26
421.10	3290.79
421.29	3405.48
421.48	3283.77
421.67	3365.69
421.86	3304.84
422.05	3353.99
422.24	3246.32
422.43	3279.09
422.61	3414.84
422.80	3527.19
422.99	3461.65
423.18	3431.23
423.37	3377.39
423.56	3424.20
423.75	3426.54
423.94	3363.35
424.13	3314.20
424.32	3332.92
424.50	3442.93
424.69	3407.82
424.88	3503.78
425.07	3419.52
425.26	3410.16
425.45	3396.12
425.64	3454.63
425.83	3503.78
426.01	3602.08
426.20	3426.54
426.39	3550.59
426.58	3311.86
426.77	3508.46
426.96	3578.68
427.15	3578.68
427.33	3686.34
427.52	3627.83
427.71	3620.81
427.90	3686.34
428.09	3559.95
428.28	3646.55
428.46	3831.46
428.65	3604.42
428.84	3808.05
429.03	3794.01
429.22	3775.28
429.40	3840.82
429.59	3735.50
429.78	3613.79
429.97	3613.79
430.16	3634.85
430.34	3775.28
430.53	3871.25
430.72	3833.80
430.91	3716.77
431.10	3908.69
431.28	3904.01
431.47	3878.27
431.66	4145.09
431.85	3950.82
432.03	4161.47
432.22	4234.03
432.41	4212.96
432.60	4168.49
432.79	3967.21
432.97	4194.24
433.16	4238.71
433.35	4140.41
433.54	4135.73
433.72	4229.35
433.91	4145.09
434.10	4222.33
434.28	4149.77
434.47	4402.55
434.66	4379.14
434.85	4334.67
435.03	4440.00
435.22	4332.33
435.41	4437.66
435.59	4458.72
435.78	4404.89
435.97	4568.73
436.16	4482.13
436.34	4505.53
436.53	4510.21
436.72	4610.86
436.90	4486.81
437.09	4678.73
437.28	4458.72
437.46	4526.60
437.65	4564.04
437.84	4667.03
438.02	4566.39
438.21	4744.27
438.40	4568.73
438.58	4704.48
438.77	4952.57
438.96	4851.93
439.14	4842.57
439.33	4910.44
439.52	4968.96
439.70	5013.43
439.89	5069.60
440.08	5139.82
440.26	5118.75
440.45	5149.18
440.63	5085.98
440.82	5146.84
441.01	5186.63
441.19	5296.63
441.38	5191.31
441.57	5334.08
441.75	5359.83
441.94	5406.64
442.12	5563.45
442.31	5507.28
442.50	5589.20
442.68	5591.54
442.87	5593.88
443.05	5633.67
443.24	5619.63
443.43	5460.47
443.61	5568.13
443.80	5710.91
443.98	5488.56
444.17	5509.62
444.35	5640.69
444.54	5596.22
444.73	5582.18
444.91	5746.02
445.10	5731.97
445.28	5647.71
445.47	5549.41
445.65	5572.82
445.84	5774.10
446.02	5802.19
446.21	5846.66
446.39	5785.80
446.58	5811.55
446.77	5830.27
446.95	5746.02
447.14	5799.85
447.32	6019.86
447.51	5802.19
447.69	5795.17
447.88	5900.49
448.06	6010.50
448.25	5968.37
448.43	6017.52
448.62	5865.38
448.80	5951.98
448.99	5930.92
449.17	6052.63
449.36	6003.47
449.54	5942.62
449.73	6078.37
449.91	6265.61
450.10	6251.57
450.28	6434.13
450.46	6181.35
450.65	6312.42
450.83	6408.39
451.02	6237.53
451.20	6377.96
451.39	6274.98
451.57	6204.76
451.76	6317.11
451.94	6293.70
452.13	6459.88
452.31	6289.02
452.49	6270.30
452.68	6450.52
452.86	6361.58
453.05	6457.54
453.23	6438.81
453.42	6450.52
453.60	6469.24
453.78	6396.68
453.97	6408.39
454.15	6595.63
454.34	6480.94
454.52	6733.72
454.70	6764.15
454.89	6731.38
455.07	6726.70
455.26	6581.59
455.44	6904.58
455.62	6759.47
455.81	6715.00
455.99	6906.92
456.17	6841.39
456.36	6956.07
456.54	6841.39
456.73	7047.35
456.91	7162.04
457.09	7047.35
457.28	7162.04
457.46	7042.67
457.64	7283.75
457.83	7204.17
458.01	7187.79
458.19	7250.98
458.38	7332.90
458.56	7419.50
458.74	7131.61
458.93	7201.83
459.11	7456.95
459.29	7286.09
459.48	7485.03
459.66	7520.14
459.84	7344.60
460.03	7417.16
460.21	7370.35
460.39	7456.95
460.57	7541.21
460.76	7564.61
460.94	7599.72
461.12	7513.12
461.31	7768.24
461.49	7606.74
461.67	7620.78
461.85	7616.10
462.04	7859.52
462.22	8198.90
462.40	7932.08
462.59	7721.43
462.77	7838.45
462.95	7847.82
463.13	7716.75
463.32	7892.29
463.50	8044.42
463.68	7932.08
463.86	8037.40
464.05	7932.08
464.23	7936.76
464.41	8112.30
464.59	7999.95
464.78	7992.93
464.96	7922.71
465.14	7918.03
465.32	8203.58
465.50	8102.93
465.69	8226.98
465.87	8257.41
466.05	8128.68
466.23	8187.19
466.41	8259.75
466.60	8383.80
466.78	8102.93
466.96	8332.31
467.14	8184.85
467.32	8269.11
467.51	8407.20
467.69	8074.85
467.87	8575.72
468.05	8376.78
468.23	8540.61
468.41	8294.86
468.60	8339.33
468.78	8454.02
468.96	8332.31
469.14	8674.03
469.32	8856.59
469.50	8339.33
469.69	8842.54
469.87	8798.07
470.05	8788.71
470.23	8744.24
470.41	8641.26
470.59	8863.61
470.77	8931.48
470.95	8922.12
471.14	9312.99
471.32	8964.25
471.50	9177.24
471.68	9125.75
471.86	9053.19
472.04	9156.18
472.22	9533.00
472.40	9090.64
472.58	9144.47
472.77	9343.42
472.95	9259.16
473.13	9844.29
473.31	9364.48
473.49	9348.10
473.67	9659.39
473.85	9591.52
474.03	9741.31
474.21	9572.79
474.39	9895.78
474.57	9778.76
474.75	9839.61
474.93	10127.50
475.12	9856.00
475.30	10195.37
475.48	9893.44
475.66	10249.21
475.84	9984.73
476.02	10186.01
476.20	10132.18
476.38	10670.50
476.56	10712.63
476.74	10441.13
476.92	10249.21
477.10	10375.59
477.28	10574.54
477.46	10764.12
477.64	10916.26
477.82	10977.11
478.00	11145.63
478.18	11384.37
478.36	11403.09
478.54	11239.25
478.72	11391.39
478.90	11412.45
479.08	11452.24
479.26	11768.21
479.44	11726.08
479.62	11889.92
479.80	11726.08
479.98	12175.47
480.16	12203.55
480.34	12060.78
480.52	12320.58
480.70	12336.96
480.88	12074.82
481.06	12294.83
481.24	12512.50
481.41	12746.56
481.59	12809.75
481.77	12798.05
481.95	12896.35
482.13	13104.66
482.31	12929.12
482.49	13446.38
482.67	13287.22
482.85	13097.64
483.03	13504.89
483.21	13624.26
483.39	13710.86
483.57	13750.65
483.74	13809.16
483.92	13806.82
484.10	14265.57
484.28	14101.73
484.46	14413.02
484.64	14654.09
484.82	14616.65
485.00	14516.00
485.18	14848.36
485.35	14941.98
485.53	14562.81
485.71	14766.44
485.89	15089.43
486.07	15009.86
486.25	15410.09
486.43	15250.93
486.61	15332.85
486.78	15580.95
486.96	15852.45
487.14	15892.24
487.32	15754.15
487.50	16336.94
487.68	16290.13
487.85	16671.64
488.03	16727.81
488.21	17064.85
488.39	16872.92
488.57	16720.79
488.75	16835.47
488.92	17387.84
489.10	17252.09
489.28	17518.91
489.46	17666.36
489.64	17530.61
489.81	18010.42
489.99	17972.97
490.17	18204.69
490.35	18148.51
490.53	18272.56
490.70	18293.63
490.88	18471.51
491.06	18670.45
491.24	18778.12
491.41	18743.01
491.59	18806.20
491.77	19000.47
491.95	19159.63
492.13	19473.26
492.30	19751.78
492.48	19569.22
492.66	19484.96
492.84	19744.76
493.01	19854.76
493.19	19716.67
493.37	20243.29
493.54	20329.89
493.72	20678.63
493.90	20835.45
494.08	20713.74
494.25	21062.48
494.43	20863.54
494.61	21184.19
494.79	20947.79
494.96	20875.24
495.14	21418.24
495.32	21507.18
495.49	21778.68
495.67	21605.49
495.85	21497.82
496.02	21631.23
496.20	21986.99
496.38	22274.88
496.55	22164.87
496.73	22642.34
496.91	22178.92
497.09	22256.15
497.26	22878.74
497.44	22827.24
497.62	22682.13
497.79	22841.29
497.97	22707.88
498.14	23054.28
498.32	23466.21
498.50	23393.65
498.67	23466.21
498.85	23552.81
499.03	23489.62
499.20	23634.73
499.38	23817.29
499.56	23934.32
499.73	24325.19
499.91	24077.09
500.08	24336.89
500.26	23885.17
500.44	24208.16
500.61	24720.74
500.79	24432.85
500.97	24472.64
501.14	24865.85
501.32	24762.87
501.49	24812.02
501.67	24952.45
501.84	25081.18
502.02	25160.76
502.20	25315.23
502.37	25301.19
502.55	25270.76
502.72	25532.90
502.90	25558.65
503.07	25582.06
503.25	25556.31
503.43	25722.49
503.60	25893.35
503.78	25930.80
503.95	26089.95
504.13	26494.86
504.30	26096.97
504.48	26452.73
504.65	26651.68
504.83	26279.54
505.01	26670.40
505.18	26742.96
505.36	27239.15
505.53	26710.19
505.71	26714.87
505.88	27157.24
506.06	26981.70
506.23	27454.48
506.41	27243.84
506.58	27105.74
506.76	27218.09
506.93	27487.25
507.11	27384.27
507.28	27365.54
507.46	27363.20
507.63	27662.79
507.81	28236.22
507.98	27524.70
508.16	27454.48
508.33	27880.46
508.50	27714.28
508.68	27882.80
508.85	28421.13
509.03	28273.67
509.20	28507.72
509.38	28594.32
509.55	28840.08
509.73	28950.09
509.90	28744.12
510.08	28601.35
510.25	28727.74
510.42	29039.03
510.60	28943.06
510.77	29282.44
510.95	29345.64
511.12	29406.49
511.30	29645.23
511.47	29401.81
511.64	29898.00
511.82	29921.41
511.99	29476.71
512.17	29776.30
512.34	29898.00
512.51	30012.69
512.69	29940.13
512.86	30066.52
513.04	30443.35
513.21	30373.13
513.38	30574.42
513.56	30518.25
513.73	29752.89
513.90	30382.49
514.08	30497.18
514.25	30761.66
514.43	30696.13
514.60	30600.16
514.77	30562.72
514.95	31079.97
515.12	30946.56
515.29	31257.85
515.47	31072.95
515.64	31463.82
515.81	31133.81
515.99	31377.22
516.16	31395.95
516.33	30967.63
516.51	31697.88
516.68	31260.20
516.85	31309.35
517.03	31454.46
517.20	31550.42
517.37	31564.46
517.54	32023.21
517.72	31971.72
517.89	31704.90
518.06	31611.28
518.24	31693.19
518.41	32123.85
518.58	32306.41
518.75	32346.20
518.93	32479.61
519.10	32486.64
519.27	32456.21
519.45	32355.57
519.62	32828.35
519.79	32606.00
519.96	32720.69
520.14	32966.45
520.31	32802.61
520.48	32699.62
520.65	32512.38
520.83	33631.16
521.00	33249.65
521.17	33453.28
521.34	33577.33
521.52	33596.05
521.69	33816.06
521.86	33799.68
522.03	34045.43
522.20	33343.27
522.38	34068.84
522.55	33961.17
522.72	33645.20
522.89	33907.34
523.07	33846.49
523.24	33935.43
523.41	34038.41
523.58	34092.24
523.75	34274.80
523.92	34445.66
524.10	34600.14
524.27	34572.05
524.44	34256.08
524.61	34857.60
524.78	34717.17
524.96	34714.83
525.13	34974.63
525.30	35016.75
525.47	34820.15
525.64	35002.71
525.81	34981.65
525.98	35093.99
526.16	35054.20
526.33	34787.38
526.50	35402.94
526.67	35026.12
526.84	35147.82
527.01	34925.47
527.18	35274.21
527.36	35409.96
527.53	35751.68
527.70	35768.07
527.87	35700.19
528.04	35770.41
528.21	35810.20
528.38	35510.61
528.55	35873.39
528.72	36079.36
528.89	36400.01
529.07	35831.26
529.24	35732.96
529.41	35812.54
529.58	36355.54
529.75	36596.62
529.92	36669.17
530.09	36601.30
530.26	36690.24
530.43	36856.42
530.60	36210.43
530.77	36428.10
530.94	36783.86
531.11	36491.29
531.28	36495.97
531.46	37071.75
531.63	36664.49
531.80	36825.99
531.97	36723.01
532.14	36926.63
532.31	36683.22
532.48	37223.88
532.65	37060.04
532.82	37104.51
532.99	37038.98
533.16	36811.95
533.33	37703.69
533.50	37624.11
533.67	37280.05
533.84	37354.95
534.01	37591.34
534.18	37663.90
534.35	37954.13
534.52	37792.63
534.69	38007.96
534.86	37467.30
535.03	37586.66
535.20	37624.11
535.37	38220.95
535.54	38466.70
535.71	37888.59
535.88	38036.05
536.05	37921.36
536.22	38164.78
536.38	38003.28
536.55	38216.27
536.72	38443.30
536.89	38330.95
537.06	38452.66
537.23	38445.64
537.40	38265.42
537.57	38373.08
537.74	38321.59
537.91	38642.24
538.08	38717.14
538.25	38614.16
538.42	38684.37
538.59	38883.32
538.75	38576.71
538.92	38586.07
539.09	38508.83
539.26	39187.59
539.43	39283.55
539.60	39358.45
539.77	38803.74
539.94	38763.95
540.11	39061.20
540.28	39215.68
540.44	39079.92
540.61	39126.74
540.78	38969.92
540.95	39103.33
541.12	38651.61
541.29	39016.73
541.46	39117.37
541.62	39704.85
541.79	39339.72
541.96	39133.76
542.13	39768.04
542.30	39744.64
542.47	39704.85
542.63	39735.27
542.80	40126.14
542.97	40095.72
543.14	40275.94
543.31	40481.91
543.48	40137.85
543.64	40762.77
543.81	40140.19
543.98	40669.15
544.15	40135.51
544.32	40793.20
544.48	40954.69
544.65	40795.54
544.82	40381.26
544.99	40245.51
545.16	40657.45
545.32	40751.07
545.49	40933.63
545.66	40627.02
545.83	40603.61
546.00	40978.10
546.16	40886.82
546.33	40617.66
546.50	40364.88
546.67	40928.95
546.83	40357.86
547.00	40643.40
547.17	40643.40
547.34	40942.99
547.50	41228.54
547.67	41165.34
547.84	41214.49
548.00	41308.11
548.17	41090.44
548.34	41177.04
548.51	41425.14
548.67	41820.69
548.84	41486.00
549.01	41631.11
549.18	41401.74
549.34	41144.28
549.51	41689.62
549.68	41303.43
549.84	41647.49
550.01	42054.75
550.18	41415.78
550.34	41191.09
550.51	41361.95
550.68	41078.74
550.84	41706.01
551.01	41729.41
551.18	41827.71
551.34	41858.14
551.51	41900.27
551.68	41900.27
551.84	41989.21
552.01	41766.86
552.18	42000.91
552.34	41649.83
552.51	42321.57
552.68	42239.65
552.84	42241.99
553.01	42433.91
553.18	41635.79
553.34	42480.72
553.51	41633.45
553.67	42366.04
553.84	42674.99
554.01	42389.44
554.17	42497.11
554.34	42405.83
554.51	42597.75
554.67	42871.59
554.84	42260.71
555.00	42333.27
555.17	42497.11
555.33	42351.99
555.50	42646.90
555.67	42239.65
555.83	42356.67
556.00	42635.20
556.16	42857.55
556.33	42813.08
556.50	42738.18
556.66	43157.14
556.83	42253.69
556.99	42883.30
557.16	42770.95
557.32	42813.08
557.49	42848.19
557.65	42719.46
557.82	42962.87
557.98	42813.08
558.15	43019.05
558.32	43335.02
558.48	42665.63
558.65	42761.59
558.81	42988.62
558.98	42794.36
559.14	42937.13
559.31	43449.70
559.47	43461.41
559.64	43283.53
559.80	43372.47
559.97	43438.00
560.13	43072.88
560.30	42937.13
560.46	43480.13
560.63	42696.05
560.79	42775.63
560.96	42892.66
561.12	43122.03
561.29	43278.85
561.45	43152.46
561.61	43070.54
561.78	43452.05
561.94	43304.59
562.11	43468.43
562.27	43491.83
562.44	43217.99
562.60	43744.61
562.77	43695.46
562.93	43428.64
563.10	43978.67
563.26	43281.19
563.42	43613.54
563.59	43592.48
563.75	43571.41
563.92	43585.46
564.08	43648.65
564.24	43564.39
564.41	43620.56
564.57	43222.67
564.74	43620.56
564.90	43882.70
565.07	43545.67
565.23	43763.34
565.39	44072.29
565.56	44098.03
565.72	43695.46
565.88	43510.56
566.05	43866.32
566.21	43913.13
566.38	43978.67
566.54	43784.40
566.70	44032.50
566.87	44414.01
567.03	44006.75
567.19	44444.43
567.36	43648.65
567.52	43599.50
567.68	44006.75
567.85	43845.26
568.01	43583.12
568.17	44093.35
568.34	43885.04
568.50	43894.41
568.66	44341.45
568.83	44114.42
568.99	43646.31
569.15	43646.31
569.32	44044.20
569.48	43550.35
569.64	44334.43
569.81	44388.26
569.97	43934.20
570.13	43854.62
570.30	43782.06
570.46	43789.08
570.62	43679.08
570.78	43971.64
570.95	44135.48
571.11	44280.60
571.27	43899.09
571.43	43709.50
571.60	44175.27
571.76	44116.76
571.92	43805.47
572.09	43763.34
572.25	44165.91
572.41	44348.47
572.57	44289.96
572.74	44737.00
572.90	44360.17
573.06	44121.44
573.22	44165.91
573.38	44170.59
573.55	44133.14
573.71	44215.06
573.87	44257.19
574.03	43966.96
574.20	44009.09
574.36	44105.06
574.52	44392.94
574.68	44058.24
574.84	44488.90
575.01	44112.08
575.17	44257.19
575.33	44205.70
575.49	44158.89
575.65	44526.35
575.82	44332.09
575.98	44318.04
576.14	44701.89
576.30	44570.82
576.46	44006.75
576.62	44179.95
576.79	44296.98
576.95	44170.59
577.11	44395.28
577.27	44463.16
577.43	44451.45
577.59	44353.15
577.75	44390.60
577.92	43922.49
578.08	43763.34
578.24	44025.48
578.40	44299.32
578.56	44201.02
578.72	43962.28
578.88	44704.23
579.04	44364.85
579.21	44086.33
579.37	44053.56
579.53	44294.64
579.69	44257.19
579.85	44184.63
580.01	44737.00
580.17	44346.13
580.33	44474.86
580.49	44524.01
580.65	44509.97
580.82	44048.88
580.98	44610.61
581.14	44268.89
581.30	44528.69
581.46	44334.43
581.62	44493.58
581.78	44018.46
581.94	44612.95
582.10	44423.37
582.26	44659.76
582.42	44828.28
582.58	44210.38
582.74	44439.75
582.90	44596.57
583.06	44704.23
583.22	44903.18
583.38	44575.50
583.54	44779.13
583.70	44491.24
583.86	44304.00
584.02	44355.49
584.18	44304.00
584.34	44360.17
584.50	44491.24
584.66	44383.58
584.82	44198.68
584.98	44509.97
585.14	44708.91
585.30	44371.88
585.46	44676.15
585.62	44397.62
585.78	44643.38
585.94	44006.75
586.10	44542.74
586.26	44229.10
586.42	44926.58
586.58	44360.17
586.74	44589.55
586.90	44229.10
587.06	44343.79
587.22	44355.49
587.38	43992.71
587.54	44802.53
587.70	44842.32
587.86	44907.86
588.02	44797.85
588.18	44418.69
588.34	44299.32
588.49	44004.41
588.65	44116.76
588.81	44339.11
588.97	44327.41
589.13	44161.23
589.29	44156.55
589.45	44905.52
589.61	44577.84
589.77	44753.38
589.93	45015.52
590.08	44460.82
590.24	45111.49
590.40	44531.03
590.56	45127.87
590.72	44521.67
590.88	44708.91
591.04	44535.71
591.20	44961.69
591.35	45015.52
591.51	45155.96
591.67	44435.07
591.83	45017.86
591.99	44746.36
592.15	44680.83
592.31	44751.04
592.46	44964.03
592.62	44329.75
592.78	45029.57
592.94	45015.52
593.10	45020.20
593.26	45310.43
593.41	44584.86
593.57	44680.83
593.73	44790.83
593.89	44690.19
594.05	44521.67
594.20	44477.20
594.36	45055.31
594.52	44999.14
594.68	45191.06
594.84	44947.65
594.99	45411.07
595.15	44741.68
595.31	44996.80
595.47	45027.23
595.62	44858.71
595.78	44877.43
595.94	45148.93
596.10	45291.71
596.25	45106.80
596.41	45120.85
596.57	45200.43
596.73	44793.17
596.88	44783.81
597.04	44472.52
597.20	45064.67
597.36	44978.07
597.51	45284.68
597.67	45109.14
597.83	44694.87
597.99	45399.37
598.14	45041.27
598.30	44802.53
598.46	44903.18
598.61	44706.57
598.77	44732.32
598.93	44753.38
599.09	44498.26
599.24	45457.88
599.40	44807.22
599.56	45397.03
599.71	45074.04
599.87	45401.71
600.03	44662.10
600.18	45097.44
600.34	44643.38
600.50	44949.99
600.65	44865.73
600.81	45270.64
600.97	45359.58
601.12	45310.43
601.28	45111.49
601.44	44823.60
601.59	44978.07
601.75	44694.87
601.91	44870.41
602.06	44568.48
602.22	45118.51
602.37	45036.59
602.53	44584.86
602.69	44954.67
602.84	45408.73
603.00	45207.45
603.16	44751.04
603.31	45013.18
603.47	44346.13
603.62	44381.24
603.78	45158.30
603.94	45244.90
604.09	44985.10
604.25	45088.08
604.40	44589.55
604.56	44540.39
604.71	44671.46
604.87	44877.43
605.03	44776.79
605.18	44582.52
605.34	45109.14
605.49	44273.57
605.65	44804.88
605.80	44919.56
605.96	45055.31
606.12	44868.07
606.27	44797.85
606.43	44383.58
606.58	44683.17
606.74	44690.19
606.89	44931.26
607.05	44912.54
607.20	45013.18
607.36	45521.08
607.51	45193.40
607.67	44884.45
607.82	44732.32
607.98	44898.50
608.13	44760.40
608.29	44753.38
608.44	44507.63
608.60	44584.86
608.75	44147.18
608.91	44126.12
609.06	44655.08
609.22	44816.58
609.37	44449.11
609.53	44488.90
609.68	44406.98
609.84	44144.84
609.99	44825.94
610.15	44549.76
610.30	43868.66
610.46	44603.59
610.61	44233.78
610.76	44657.42
610.92	44093.35
611.07	44198.68
611.23	44210.38
611.38	44261.87
611.54	44505.29
611.69	44259.53
611.84	44341.45
612.00	44500.61
612.15	43620.56
612.31	44535.71
612.46	43824.19
612.62	44687.85
612.77	44573.16
612.92	44325.07
613.08	44058.24
613.23	44215.06
613.39	43812.49
613.54	43578.43
613.69	44116.76
613.85	44432.73
614.00	44257.19
614.15	44060.58
614.31	44175.27
614.46	44315.70
614.62	43917.81
614.77	43756.32
614.92	44058.24
615.08	44151.87
615.23	43681.42
615.38	43753.97
615.54	43681.42
615.69	43861.64
615.84	43915.47
616.00	43604.18
616.15	43702.48
616.30	43962.28
616.46	43370.13
616.61	43456.73
616.76	43821.85
616.92	43519.92
617.07	43466.09
617.22	43484.81
617.37	43323.32
617.53	43562.05
617.68	43812.49
617.83	43522.26
617.99	43866.32
618.14	43679.08
618.29	43379.49
618.45	43157.14
618.60	43288.21
618.75	43194.59
618.90	43496.52
619.06	43501.20
619.21	43173.52
619.36	43086.92
619.51	43629.93
619.67	43201.61
619.82	43835.89
619.97	43402.89
620.12	43021.39
620.28	42555.62
620.43	43447.36
620.58	43332.68
620.73	43068.20
620.89	43117.35
621.04	42974.58
621.19	42707.76
621.34	42913.72
621.49	42616.47
621.65	42906.70
621.80	43154.80
621.95	42909.04
622.10	42918.40
622.25	42923.08
622.41	42946.49
622.56	42618.81
622.71	43070.54
622.86	42969.90
623.01	42590.73
623.16	42609.45
623.32	43262.46
623.47	43133.73
623.62	43098.62
623.77	42824.78
623.92	42686.69
624.07	42513.49
624.23	42359.02
624.38	42354.33
624.53	42506.47
624.68	42230.29
624.83	42829.46
624.98	42621.16
625.13	42541.58
625.29	42405.83
625.44	42181.13
625.59	42408.17
625.74	42286.46
625.89	41930.70
626.04	41963.46
626.19	42501.79
626.34	42120.28
626.49	42295.82
626.65	42202.20
626.80	42260.71
626.95	41869.84
627.10	41661.54
627.25	41329.18
627.40	42007.94
627.55	41261.30
627.70	41493.02
627.85	41556.21
628.00	41914.31
628.15	41904.95
628.30	41879.21
628.45	41462.59
628.60	41865.16
628.76	42117.94
628.91	41324.50
629.06	41698.98
629.21	41537.49
629.36	41462.59
629.51	41256.62
629.66	41324.50
629.81	41523.44
629.96	41755.16
630.11	41357.27
630.26	41799.63
630.41	41221.52
630.56	41570.25
630.71	41048.32
630.86	41715.37
631.01	41324.50
631.16	41001.50
631.31	41048.32
631.46	40722.98
631.61	40905.54
631.76	40973.42
631.91	41340.88
632.06	41020.23
632.21	41577.28
632.36	41322.16
632.51	40842.35
632.66	41106.83
632.81	40126.14
632.96	41282.37
633.10	40601.27
633.25	41020.23
633.40	40912.56
633.55	41244.92
633.70	41139.60
633.85	40940.65
634.00	41048.32
634.15	41090.44
634.30	40758.09
634.45	40722.98
634.60	40945.33
634.75	40479.57
634.90	40624.68
635.05	40952.35
635.19	40868.09
635.34	40875.12
635.49	40683.19
635.64	40189.34
635.79	40311.05
635.94	40252.53
636.09	40608.29
636.24	40484.25
636.39	40058.27
636.53	40027.84
636.68	40086.36
636.83	39983.37
636.98	40350.84
637.13	40053.59
637.28	40334.45
637.43	40535.74
637.57	40128.48
637.72	40266.58
637.87	40187.00
638.02	40311.05
638.17	40561.48
638.32	39798.47
638.46	39433.35
638.61	39634.63
638.76	40002.10
638.91	39913.16
639.06	39957.63
639.20	40119.12
639.35	39894.43
639.50	39936.56
639.65	40133.17
639.80	40093.38
639.94	39807.83
640.09	39283.55
640.24	39386.54
640.39	39131.42
640.54	39613.57
640.68	39779.74
640.83	39503.56
640.98	39629.95
641.13	39674.42
641.27	39962.31
641.42	39421.64
641.57	39695.49
641.72	39370.15
641.86	39253.12
642.01	39402.92
642.16	39365.47
642.31	38618.84
642.45	39510.58
642.60	39007.37
642.75	39269.51
642.90	39250.78
643.04	39096.31
643.19	39374.83
643.34	39494.20
643.48	39328.02
643.63	39477.82
643.78	38848.21
643.93	39091.63
644.07	38913.75
644.22	38934.81
644.37	38813.10
644.51	38859.91
644.66	39042.48
644.81	38864.60
644.95	39304.62
645.10	39133.76
645.25	38965.24
645.39	39164.18
645.54	39239.08
645.69	39178.23
645.83	39035.45
645.98	38859.91
646.13	39257.81
646.27	38796.72
646.42	38845.87
646.57	38967.58
646.71	38548.62
646.86	38906.73
647.00	38850.55
647.15	38883.32
647.30	38937.15
647.44	38485.43
647.59	38754.59
647.74	38480.75
647.88	38579.05
648.03	38256.06
648.17	38588.41
648.32	38431.60
648.47	38267.76
648.61	38490.11
648.76	38506.49
648.90	38059.45
649.05	38920.77
649.20	38794.38
649.34	38204.56
649.49	38059.45
649.63	38132.01
649.78	38333.29
649.92	38197.54
650.07	38471.39
650.21	37965.83
650.36	38218.61
650.51	37649.86
650.65	38834.17
650.80	38452.66
650.94	38108.60
651.09	38242.01
651.23	38115.62
651.38	37883.91
651.52	37954.13
651.67	38132.01
651.81	37626.45
651.96	37984.55
652.10	38181.16
652.25	37806.67
652.39	37680.28
652.54	38134.35
652.68	37691.99
652.83	38012.64
652.97	38433.94
653.12	38164.78
653.26	37715.39
653.41	37387.72
653.55	37158.34
653.70	37919.02
653.84	37411.12
653.99	37897.95
654.13	37399.42
654.27	37460.27
654.42	37432.19
654.56	37352.61
654.71	37495.38
654.85	37659.22
655.00	37443.89
655.14	37184.09
655.29	37076.43
655.43	36935.99
655.57	36744.07
655.72	36854.08
655.86	36992.17
656.01	37139.62
656.15	36343.84
656.30	36524.06
656.44	36713.64
656.58	36704.28
656.73	36613.00
656.87	36879.82
657.01	36769.82
657.16	36875.14
657.30	36414.05
657.45	36669.17
657.59	36549.81
657.73	36484.27
657.88	36446.82
658.02	36488.95
658.16	36744.07
658.31	36751.09
658.45	36996.85
658.60	36657.47
658.74	36720.66
658.88	37034.30
659.03	36407.03
659.17	36325.11
659.31	36605.98
659.46	36404.69
659.60	36287.67
659.74	36371.92
659.89	35756.36
660.03	35981.06
660.17	36336.82
660.32	36369.58
660.46	36329.80
660.60	36421.08
660.74	36498.31
660.89	36091.06
661.03	35999.78
661.17	35992.76
661.32	35779.77
661.46	35789.13
661.60	35168.89
661.74	35342.09
661.89	35782.11
662.03	35257.83
662.17	35583.16
662.31	35552.74
662.46	35456.78
662.60	35604.23
662.74	35161.87
662.88	35555.08
663.03	35070.59
663.17	35140.80
663.31	35023.78
663.45	35501.25
663.60	35035.48
663.74	34958.24
663.88	35005.05
664.02	34698.44
664.17	34792.06
664.31	34555.67
664.45	34838.87
664.59	34754.61
664.73	34813.13
664.88	34763.98
665.02	34120.33
665.16	34546.31
665.30	34541.63
665.44	34700.78
665.59	33853.51
665.73	34340.34
665.87	34129.69
666.01	34450.35
666.15	33933.09
666.29	34204.59
666.44	34022.03
666.58	34134.37
666.72	33872.23
666.86	34235.02
667.00	33916.70
667.14	33804.36
667.28	33895.64
667.43	33432.21
667.57	33565.62
667.71	33951.81
667.85	33731.80
667.99	33537.54
668.13	33626.48
668.27	33490.73
668.41	33591.37
668.56	32830.69
668.70	33092.83
668.84	32973.47
668.98	32893.89
669.12	32849.42
669.26	33207.52
669.40	32954.74
669.54	33207.52
669.68	32936.02
669.82	32786.22
669.96	32507.70
670.10	32493.66
670.25	32769.84
670.39	32950.06
670.53	32608.34
670.67	32477.27
670.81	32636.43
670.95	32510.04
671.09	32676.22
671.23	32023.21
671.37	32472.59
671.51	32184.71
671.65	32102.79
671.79	31751.71
671.93	31763.41
672.07	32184.71
672.21	31798.52
672.35	31517.65
672.49	32203.43
672.63	31721.28
672.77	31768.09
672.91	31583.19
673.05	31248.49
673.19	31587.87
673.33	31896.82
673.47	31527.02
673.61	31288.28
673.75	31058.91
673.89	30976.99
674.03	30789.75
674.17	30719.53
674.31	30415.26
674.45	30178.87
674.59	30801.45
674.73	30953.58
674.87	31049.55
675.01	30637.61
675.15	30504.20
675.29	30508.88
675.43	30590.80
675.56	30380.15
675.70	30146.10
675.84	30356.75
675.98	29390.11
676.12	30092.27
676.26	29603.10
676.40	29603.10
676.54	29759.91
676.68	29619.48
676.82	29268.40
676.96	29406.49
677.10	29137.33
677.23	29268.40
677.37	29097.54
677.51	28980.51
677.65	29427.56
677.79	28753.48
677.93	28985.19
678.07	29053.07
678.21	28484.32
678.34	28397.72
678.48	28699.65
678.62	28264.31
678.76	28051.32
678.90	28484.32
679.04	28432.83
679.18	28533.47
679.31	27756.41
679.45	27985.79
679.59	27552.79
679.73	27749.39
679.87	27845.35
680.00	28266.65
680.14	27271.92
680.28	27199.37
680.42	26946.59
680.56	27096.38
680.70	27300.01
680.83	27318.73
680.97	27105.74
681.11	26803.82
681.25	26738.28
681.39	26944.25
681.52	27056.59
681.66	26934.88
681.80	26628.27
681.94	26459.76
682.07	26316.98
682.21	26103.99
682.35	25914.41
682.49	26459.76
682.62	25977.61
682.76	25909.73
682.90	26026.76
683.04	25816.11
683.17	25944.84
683.31	25940.16
683.45	25659.29
683.59	25399.49
683.72	25088.20
683.86	25376.09
684.00	25193.53
684.13	25446.30
684.27	25085.86
684.41	25139.69
684.55	24580.31
684.68	24704.35
684.82	24662.22
684.96	24430.51
685.09	24896.28
685.23	24400.08
685.37	24577.97
685.50	24194.12
685.64	24514.77
685.78	24212.84
685.91	23929.64
686.05	24098.16
686.19	23571.54
686.32	24013.90
686.46	23716.65
686.60	23185.35
686.73	23463.87
686.87	23513.02
687.01	23445.15
687.14	22876.40
687.28	22888.10
687.42	22836.61
687.55	22878.74
687.69	23021.51
687.82	22796.82
687.96	22766.39
688.10	22480.85
688.23	22698.52
688.37	22408.29
688.50	22019.76
688.64	22169.55
688.78	21977.63
688.91	22260.84
689.05	22134.45
689.18	21909.75
689.32	21717.83
689.46	21495.48
689.59	22148.49
689.73	21853.58
689.86	21605.49
690.00	22097.00
690.13	21930.82
690.27	21521.23
690.41	21855.92
690.54	20987.58
690.68	21135.04
690.81	21097.59
690.95	20936.09
691.08	20814.38
691.22	20793.32
691.35	20758.21
691.49	21095.25
691.62	20812.04
691.76	20411.81
691.89	20428.20
692.03	20362.66
692.16	20002.22
692.30	20156.69
692.43	20290.10
692.57	20112.22
692.70	20095.84
692.84	20102.86
692.97	19866.47
693.11	19726.04
693.24	19782.21
693.38	19700.29
693.51	19772.85
693.65	19662.84
693.78	19676.88
693.92	19353.89
694.05	18979.40
694.19	19267.29
694.32	19274.31
694.45	19124.52
694.59	18878.76
694.72	19028.56
694.86	18738.33
694.99	18801.52
695.13	18307.67
695.26	18508.96
695.39	18192.98
695.53	18396.61
695.66	18546.40
695.80	18555.77
695.93	18274.90
696.07	17881.69
696.20	18054.89
696.33	18277.24
696.47	18059.57
696.60	17886.37
696.73	18033.83
696.87	17706.15
697.00	17706.15
697.14	17743.60
697.27	17404.22
697.40	17837.22
697.54	16924.41
697.67	17006.33
697.80	17231.02
697.94	17060.16
698.07	16952.50
698.21	17048.46
698.34	16999.31
698.47	17067.19
698.61	16624.83
698.74	16690.36
698.87	16753.55
699.01	16746.53
699.14	16149.70
699.27	16142.67
699.40	16299.49
699.54	16166.08
699.67	15997.56
699.80	16114.59
699.94	15960.11
700.07	16283.11
700.20	15857.13
700.34	15632.44
700.47	15819.68
700.60	15805.64
700.73	15910.96
700.87	15559.88
701.00	15494.35
701.13	15417.11
701.26	15325.83
701.40	15499.03
701.53	15288.38
701.66	15124.54
701.79	15056.67
701.93	15026.24
702.06	14572.18
702.19	14658.78
702.32	14850.70
702.46	14569.83
702.59	14846.02
702.72	14626.01
702.85	14808.57
702.99	14998.15
703.12	14668.14
703.25	14150.88
703.38	14104.07
703.51	14288.97
703.65	14326.42
703.78	14209.39
703.91	14197.69
704.04	14024.49
704.17	14104.07
704.31	13764.69
704.44	13596.17
704.57	13521.27
704.70	13429.99
704.83	13540.00
704.96	13724.90
705.10	13727.24
705.23	13666.39
>>>>>End Processed Spectral Data<<<<<
