SpectraSuite Data File
++++++++++++++++++++++++++++++++++++
Date: Fri Oct 25 11:33:23 EDT 2013
User: price-jones
Dark Spectrum Present: No
Reference Spectrum Present: No
Number of Sampled Component Spectra: 1
Spectrometers: USB2+H05261
Integration Time (usec): 100000 (USB2+H05261)
Spectra Averaged: 1 (USB2+H05261)
Boxcar Smoothing: 0 (USB2+H05261)
Correct for Electrical Dark: No (USB2+H05261)
Strobe/Lamp Enabled: No (USB2+H05261)
Correct for Detector Non-linearity: No (USB2+H05261)
Correct for Stray Light: No (USB2+H05261)
Number of Pixels in Processed Spectrum: 2048
>>>>>Begin Processed Spectral Data<<<<<
365.73	313.63
365.92	313.63
366.12	313.63
366.32	154.48
366.52	145.11
366.72	110.01
366.91	91.28
367.11	149.79
367.31	191.92
367.51	184.90
367.70	128.73
367.90	133.41
368.10	215.33
368.30	182.56
368.49	182.56
368.69	220.01
368.89	156.82
369.09	222.35
369.28	243.42
369.48	180.22
369.68	255.12
369.87	175.54
370.07	266.82
370.27	227.03
370.47	358.10
370.66	489.17
370.86	500.87
371.06	496.19
371.25	566.41
371.45	564.07
371.65	528.96
371.84	653.01
372.04	557.05
372.24	575.77
372.44	599.18
372.63	608.54
372.83	613.22
373.03	601.52
373.22	613.22
373.42	627.26
373.62	592.16
373.81	638.97
374.01	688.12
374.21	662.37
374.40	592.16
374.60	561.73
374.79	622.58
374.99	690.46
375.19	629.60
375.38	648.33
375.58	624.92
375.78	671.73
375.97	653.01
376.17	725.57
376.37	645.99
376.56	681.10
376.76	711.52
376.95	676.41
377.15	688.12
377.35	692.80
377.54	723.23
377.74	678.76
377.93	688.12
378.13	688.12
378.33	777.06
378.52	727.91
378.72	713.86
378.91	760.67
379.11	676.41
379.31	711.52
379.50	688.12
379.70	643.65
379.89	723.23
380.09	777.06
380.28	711.52
380.48	755.99
380.68	814.51
380.87	777.06
381.07	788.76
381.26	777.06
381.46	823.87
381.65	767.70
381.85	784.08
382.04	711.52
382.24	751.31
382.43	800.46
382.63	730.25
382.83	758.33
383.02	844.93
383.22	774.72
383.41	739.61
383.61	847.27
383.80	851.96
384.00	844.93
384.19	816.85
384.39	816.85
384.58	854.30
384.78	800.46
384.97	901.11
385.17	863.66
385.36	805.14
385.56	877.70
385.75	863.66
385.95	873.02
386.14	980.68
386.34	844.93
386.53	833.23
386.72	798.12
386.92	929.19
387.11	943.24
387.31	891.74
387.50	898.77
387.70	875.36
387.89	847.27
388.09	976.00
388.28	840.25
388.48	908.13
388.67	884.72
388.86	976.00
389.06	884.72
389.25	1057.92
389.45	866.00
389.64	966.64
389.84	896.43
390.03	1015.79
390.22	882.38
390.42	957.28
390.61	976.00
390.81	1046.22
391.00	938.55
391.19	959.62
391.39	1046.22
391.58	987.71
391.78	999.41
391.97	1046.22
392.16	954.94
392.36	1067.28
392.55	1046.22
392.75	1086.01
392.94	1034.52
393.13	1135.16
393.33	1095.37
393.52	1104.73
393.71	1158.57
393.91	1060.26
394.10	1074.31
394.29	1083.67
394.49	1163.25
394.68	1167.93
394.88	1144.52
395.07	1102.39
395.26	1107.07
395.46	1217.08
395.65	1146.86
395.84	1174.95
396.04	1231.12
396.23	1163.25
396.42	1268.57
396.62	1177.29
396.81	1181.97
397.00	1308.36
397.19	1224.10
397.39	1132.82
397.58	1207.72
397.77	1240.48
397.97	1387.94
398.16	1308.36
398.35	1310.70
398.55	1221.76
398.74	1291.98
398.93	1277.93
399.12	1334.11
399.32	1338.79
399.51	1317.72
399.70	1439.43
399.90	1338.79
400.09	1287.29
400.28	1350.49
400.47	1399.64
400.67	1397.30
400.86	1380.92
401.05	1383.26
401.24	1465.18
401.44	1549.43
401.63	1462.83
401.82	1483.90
402.01	1479.22
402.21	1451.13
402.40	1486.24
402.59	1530.71
402.78	1537.73
402.97	1575.18
403.17	1537.73
403.36	1530.71
403.55	1493.26
403.74	1589.22
403.93	1722.63
404.13	1514.33
404.32	1556.46
404.51	1701.57
404.70	1598.59
404.89	1565.82
405.09	1708.59
405.28	1713.27
405.47	1647.74
405.66	1732.00
405.85	1614.97
406.05	1816.26
406.24	1713.27
406.43	1827.96
406.62	1813.92
406.81	1790.51
407.00	1720.29
407.20	1825.62
407.39	1811.57
407.58	1776.47
407.77	1902.86
407.96	1891.15
408.15	1968.39
408.34	1886.47
408.54	1870.09
408.73	1966.05
408.92	1874.77
409.11	1977.75
409.30	1940.30
409.49	1921.58
409.68	1998.82
409.87	1921.58
410.07	1996.48
410.26	2057.33
410.45	2066.69
410.64	2059.67
410.83	2160.31
411.02	2157.97
411.21	2239.89
411.40	2160.31
411.59	2146.27
411.78	2104.14
411.98	2190.74
412.17	2235.21
412.36	2235.21
412.55	2282.02
412.74	2218.83
412.93	2270.32
413.12	2277.34
413.31	2394.37
413.50	2401.39
413.69	2429.48
413.88	2434.16
414.07	2415.43
414.26	2593.31
414.45	2534.80
414.64	2539.48
414.83	2583.95
415.02	2750.13
415.22	2691.62
415.41	2642.46
415.60	2633.10
415.79	2675.23
415.98	2771.19
416.17	2712.68
416.36	2750.13
416.55	2846.09
416.74	2740.77
416.93	2745.45
417.12	2794.60
417.31	2808.64
417.50	2909.29
417.69	2998.23
417.88	2902.26
418.07	2897.58
418.26	2860.13
418.45	3047.38
418.64	3126.96
418.83	2995.89
419.02	3143.34
419.21	3035.67
419.39	3108.23
419.58	3110.57
419.77	3007.59
419.96	3103.55
420.15	3255.69
420.34	3145.68
420.53	3201.85
420.72	3211.22
420.91	3155.04
421.10	3321.22
421.29	3351.65
421.48	3260.37
421.67	3258.03
421.86	3197.17
422.05	3274.41
422.24	3243.98
422.43	3400.80
422.61	3396.12
422.80	3234.62
422.99	3410.16
423.18	3403.14
423.37	3487.40
423.56	3377.39
423.75	3424.20
423.94	3279.09
424.13	3248.66
424.32	3227.60
424.50	3361.01
424.69	3592.72
424.88	3480.38
425.07	3452.29
425.26	3372.71
425.45	3463.99
425.64	3431.23
425.83	3466.33
426.01	3471.01
426.20	3501.44
426.39	3517.83
426.58	3471.01
426.77	3452.29
426.96	3534.21
427.15	3574.00
427.33	3639.53
427.52	3487.40
427.71	3721.45
427.90	3728.47
428.09	3588.04
428.28	3744.86
428.46	3655.92
428.65	3623.15
428.84	3686.34
429.03	3758.90
429.22	3712.09
429.40	3737.84
429.59	3728.47
429.78	3559.95
429.97	3588.04
430.16	3784.65
430.34	3950.82
430.53	3953.16
430.72	3976.57
430.91	3957.85
431.10	3798.69
431.28	3922.74
431.47	4025.72
431.66	3978.91
431.85	3955.51
432.03	3985.93
432.22	4065.51
432.41	3953.16
432.60	4133.39
432.79	4058.49
432.97	4030.40
433.16	4098.28
433.35	4072.53
433.54	4077.21
433.72	4173.18
433.91	4180.20
434.10	4133.39
434.28	4315.95
434.47	4327.65
434.66	4262.12
434.85	4273.82
435.03	4283.18
435.22	4381.48
435.41	4442.34
435.59	4311.27
435.78	4468.08
435.97	4428.29
436.16	4402.55
436.34	4353.40
436.53	4351.06
436.72	4755.97
436.90	4500.85
437.09	4524.26
437.28	4512.55
437.46	4428.29
437.65	4468.08
437.84	4407.23
438.02	4645.96
438.21	4547.66
438.40	4468.08
438.58	4814.48
438.77	4791.08
438.96	4849.59
439.14	4802.78
439.33	5032.15
439.52	4889.38
439.70	4837.89
439.89	4884.70
440.08	5064.92
440.26	5067.26
440.45	5100.03
440.63	5078.96
440.82	5151.52
441.01	5210.03
441.19	5123.43
441.38	5137.48
441.57	5191.31
441.75	5294.29
441.94	5406.64
442.12	5320.04
442.31	5458.13
442.50	5514.30
442.68	5558.77
442.87	5404.30
443.05	5551.75
443.24	5671.12
443.43	5561.11
443.61	5462.81
443.80	5755.38
443.98	5528.35
444.17	5249.82
444.35	5488.56
444.54	5710.91
444.73	5647.71
444.91	5788.14
445.10	5678.14
445.28	5600.90
445.47	5731.97
445.65	5638.35
445.84	5664.10
446.02	5771.76
446.21	5771.76
446.39	5643.03
446.58	5657.07
446.77	5760.06
446.95	5612.60
447.14	5755.38
447.32	5802.19
447.51	5671.12
447.69	5825.59
447.88	5689.84
448.06	5671.12
448.25	5811.55
448.43	5898.15
448.62	5898.15
448.80	5839.64
448.99	5867.72
449.17	5966.03
449.36	5879.43
449.54	5893.47
449.73	6069.01
449.91	6045.60
450.10	6036.24
450.28	6204.76
450.46	6108.80
450.65	6057.31
450.83	6214.12
451.02	6223.48
451.20	6300.72
451.39	6080.71
451.57	6274.98
451.76	6150.93
451.94	6136.88
452.13	6321.79
452.31	6260.93
452.49	6190.72
452.68	6296.04
452.86	6380.30
453.05	6373.28
453.23	6572.22
453.42	6214.12
453.60	6455.20
453.78	6480.94
453.97	6319.45
454.15	6370.94
454.34	6469.24
454.52	6492.65
454.70	6590.95
454.89	6541.80
455.07	6593.29
455.26	6506.69
455.44	6841.39
455.62	6757.13
455.81	6665.85
455.99	6773.51
456.17	6827.34
456.36	6782.87
456.54	6799.26
456.73	7054.37
456.91	6956.07
457.09	7028.63
457.28	7129.27
457.46	7136.29
457.64	6998.20
457.83	6965.43
458.01	7075.44
458.19	7204.17
458.38	7075.44
458.56	7330.56
458.74	7368.01
458.93	7119.91
459.11	7258.00
459.29	7250.98
459.48	7368.01
459.66	7136.29
459.84	7227.57
460.03	7506.10
460.21	7290.77
460.39	7433.54
460.57	7431.20
460.76	7297.79
460.94	7564.61
461.12	7508.44
461.31	7431.20
461.49	7396.09
461.67	7590.36
461.85	7555.25
462.04	7641.85
462.22	7992.93
462.40	7754.19
462.59	7705.04
462.77	7705.04
462.95	7779.94
463.13	7810.37
463.32	7714.41
463.50	7932.08
463.68	8112.30
463.86	7983.57
464.05	7969.52
464.23	7836.11
464.41	8175.49
464.59	7908.67
464.78	8109.96
464.96	8126.34
465.14	8028.04
465.32	8229.32
465.50	7988.25
465.69	8056.12
465.87	7974.21
466.05	8128.68
466.23	8259.75
466.41	8102.93
466.60	8269.11
466.78	8039.74
466.96	8409.54
467.14	8175.49
467.32	8374.44
467.51	8505.51
467.69	8238.69
467.87	8332.31
468.05	8446.99
468.23	8468.06
468.41	8409.54
468.60	8512.53
468.78	8589.77
468.96	8531.25
469.14	8671.68
469.32	8727.86
469.50	8416.57
469.69	8620.19
469.87	8802.75
470.05	8566.36
470.23	8720.84
470.41	8791.05
470.59	8971.27
470.77	8807.44
470.95	8807.44
471.14	8975.95
471.32	8760.63
471.50	9069.58
471.68	9018.08
471.86	9156.18
472.04	9214.69
472.22	9427.68
472.40	9247.46
472.58	9090.64
472.77	9245.12
472.95	9296.61
473.13	9729.61
473.31	9268.52
473.49	9427.68
473.67	9366.82
473.85	9521.30
474.03	9568.11
474.21	9806.84
474.39	9851.31
474.57	9870.04
474.75	9841.95
474.93	10071.33
475.12	10115.80
475.30	10094.73
475.48	9991.75
475.66	10118.14
475.84	10106.43
476.02	10122.82
476.20	10387.30
476.38	10544.11
476.56	10583.90
476.74	10555.82
476.92	10469.22
477.10	10506.66
477.28	10597.95
477.46	10841.36
477.64	10946.69
477.82	10862.43
478.00	10885.83
478.18	11087.12
478.36	11459.26
478.54	11269.68
478.72	11337.56
478.90	11454.58
479.08	11440.54
479.26	11690.98
479.44	11672.25
479.62	11878.22
479.80	11761.19
479.98	11932.05
480.16	12362.71
480.34	11929.71
480.52	12175.47
480.70	12449.31
480.88	12198.87
481.06	12196.53
481.24	12552.29
481.41	12500.80
481.59	12587.40
481.77	12912.74
481.95	12854.22
482.13	12999.34
482.31	13076.57
482.49	13217.01
482.67	12968.91
482.85	13224.03
483.03	13640.64
483.21	13661.71
483.39	13820.86
483.57	13921.51
483.74	13928.53
483.92	13937.89
484.10	14054.92
484.28	14352.16
484.46	14569.83
484.64	14916.23
484.82	14611.96
485.00	14902.19
485.18	14897.51
485.35	15215.82
485.53	14920.92
485.71	15311.78
485.89	15454.56
486.07	15571.58
486.25	15616.05
486.43	15473.28
486.61	15730.74
486.78	15901.60
486.96	16100.55
487.14	15943.73
487.32	16056.08
487.50	16411.84
487.68	16430.56
487.85	16430.56
488.03	16922.07
488.21	16992.29
488.39	17076.55
488.57	17212.30
488.75	17235.70
488.92	17270.81
489.10	17722.54
489.28	17577.42
489.46	17734.24
489.64	17734.24
489.81	18022.12
489.99	18132.13
490.17	18008.08
490.35	18293.63
490.53	18490.23
490.70	18497.25
490.88	18787.48
491.06	18890.46
491.24	19183.03
491.41	19037.92
491.59	19126.86
491.77	19494.32
491.95	19510.71
492.13	19733.06
492.30	19571.56
492.48	19793.91
492.66	19999.88
492.84	19838.38
493.01	20329.89
493.19	19903.92
493.37	20336.91
493.54	20332.23
493.72	20697.36
493.90	20823.75
494.08	21001.63
494.25	20795.66
494.43	20954.82
494.61	21280.15
494.79	21411.22
494.96	21563.36
495.14	21479.10
495.32	21984.65
495.49	21951.88
495.67	21860.60
495.85	21699.11
496.02	22251.47
496.20	22541.70
496.38	22686.81
496.55	22792.14
496.73	23065.98
496.91	22782.77
497.09	22967.68
497.26	22963.00
497.44	22838.95
497.62	23101.09
497.79	23782.18
497.97	23262.58
498.14	23545.79
498.32	23899.21
498.50	23601.96
498.67	23798.57
498.85	23796.23
499.03	24049.00
499.20	24130.92
499.38	24095.82
499.56	24109.86
499.73	24355.61
499.91	25032.03
500.08	24915.00
500.26	24547.54
500.44	25277.79
500.61	24926.71
500.79	24868.19
500.97	25202.89
501.14	25095.22
501.32	25247.36
501.49	25376.09
501.67	25661.63
501.84	25673.34
502.02	25766.96
502.20	26036.12
502.37	25614.82
502.55	25825.47
502.72	26106.34
502.90	26089.95
503.07	26101.65
503.25	26326.35
503.43	26057.18
503.60	26064.21
503.78	26539.33
503.95	26246.77
504.13	26480.82
504.30	26878.71
504.48	26691.47
504.65	26536.99
504.83	27042.55
505.01	27442.78
505.18	27152.55
505.36	27218.09
505.53	27346.82
505.71	27494.27
505.88	27592.58
506.06	27466.19
506.23	27683.86
506.41	27618.32
506.58	28060.68
506.76	27999.83
506.93	28002.17
507.11	28390.70
507.28	28114.52
507.46	28027.92
507.63	28254.95
507.81	28584.96
507.98	28168.35
508.16	28233.88
508.33	28877.53
508.50	28945.41
508.68	28723.05
508.85	29043.71
509.03	29081.16
509.20	28987.53
509.38	29221.59
509.55	29516.50
509.73	29151.37
509.90	29593.73
510.08	29694.38
510.25	29207.55
510.42	29750.55
510.60	29790.34
510.77	29687.36
510.95	30263.13
511.12	29879.28
511.30	30438.67
511.47	30146.10
511.64	30281.85
511.82	30127.38
511.99	30522.93
512.17	30817.83
512.34	30705.49
512.51	30815.49
512.69	31189.98
512.86	30658.68
513.04	31204.02
513.21	30969.97
513.38	31323.39
513.56	31529.36
513.73	31143.17
513.90	31372.54
514.08	30883.37
514.25	31711.92
514.43	31852.35
514.60	31543.40
514.77	31800.86
514.95	31800.86
515.12	32018.53
515.29	32081.72
515.47	32123.85
515.64	31744.69
515.81	32332.16
515.99	32580.26
516.16	32496.00
516.33	31990.44
516.51	32273.65
516.68	32697.28
516.85	32430.46
517.03	32879.85
517.20	32631.75
517.37	32694.94
517.54	32807.29
517.72	32966.45
517.89	32727.71
518.06	33113.90
518.24	33354.97
518.41	33216.88
518.58	33338.59
518.75	33125.60
518.93	33577.33
519.10	33504.77
519.27	33479.02
519.45	33750.52
519.62	33783.29
519.79	33865.21
519.96	33680.31
520.14	33914.36
520.31	34085.22
520.48	34506.52
520.65	33860.53
520.83	34508.86
521.00	34426.94
521.17	34295.87
521.34	34274.80
521.52	34836.53
521.69	34590.78
521.86	34792.06
522.03	34983.99
522.20	35051.86
522.38	35454.44
522.55	35276.55
522.72	35105.70
522.89	35536.35
523.07	35693.17
523.24	35395.92
523.41	35463.80
523.58	35136.12
523.75	35615.93
523.92	35246.13
524.10	35613.59
524.27	35842.96
524.44	35337.41
524.61	35775.09
524.78	35875.73
524.96	36140.21
525.13	36034.89
525.30	36165.96
525.47	36538.10
525.64	36381.29
525.81	36411.71
525.98	36697.26
526.16	36376.61
526.33	36400.01
526.50	36582.57
526.67	36402.35
526.84	36381.29
527.01	37034.30
527.18	36708.96
527.36	36847.05
527.53	36645.77
527.70	37305.80
527.87	37221.54
528.04	37130.26
528.21	37172.39
528.38	37221.54
528.55	37347.93
528.72	37233.24
528.89	37488.36
529.07	37123.24
529.24	37930.72
529.41	37532.83
529.58	37439.21
529.75	37691.99
529.92	37139.62
530.09	37682.62
530.26	37794.97
530.43	37930.72
530.60	37345.59
530.77	38000.94
530.94	37954.13
531.11	38029.02
531.28	38059.45
531.46	37979.87
531.63	38260.74
531.80	38220.95
531.97	38593.09
532.14	38312.23
532.31	38127.33
532.48	38450.32
532.65	38569.69
532.82	38504.15
532.99	38689.06
533.16	38871.62
533.33	39175.89
533.50	38848.21
533.67	38983.96
533.84	38511.17
534.01	38845.87
534.18	39056.52
534.35	39466.11
534.52	39227.38
534.69	39702.51
534.86	39545.69
535.03	38930.13
535.20	39571.44
535.37	39545.69
535.54	39653.36
535.71	39541.01
535.88	39723.57
536.05	39494.20
536.22	40091.04
536.38	39910.82
536.55	39763.36
536.72	39920.18
536.89	39903.79
537.06	40025.50
537.23	40765.11
537.40	39573.78
537.57	40407.01
537.74	39896.77
537.91	40114.44
538.08	40135.51
538.25	40020.82
538.42	40388.28
538.59	40882.14
538.75	40292.32
538.92	40535.74
539.09	40713.62
539.26	40374.24
539.43	40610.64
539.60	40882.14
539.77	40280.62
539.94	40765.11
540.11	40891.50
540.28	41270.67
540.44	40655.11
540.61	41298.75
540.78	40877.46
540.95	41429.82
541.12	40837.67
541.29	40849.37
541.46	40950.01
541.62	41172.36
541.79	41483.66
541.96	41029.59
542.13	41078.74
542.30	41420.46
542.47	41493.02
542.63	41715.37
542.80	41654.51
542.97	41734.09
543.14	42174.11
543.31	41734.09
543.48	41926.02
543.64	42349.65
543.81	42391.78
543.98	42183.48
544.15	42286.46
544.32	42223.26
544.48	42443.27
544.65	42855.21
544.82	42497.11
544.99	42457.32
545.16	42731.16
545.32	42185.82
545.49	42642.22
545.66	42827.12
545.83	42539.24
546.00	42895.00
546.16	42485.40
546.33	42511.15
546.50	42518.17
546.67	42916.06
546.83	41965.81
547.00	42642.22
547.17	42656.26
547.34	42913.72
547.50	43026.07
547.67	43461.41
547.84	43005.00
548.00	43398.21
548.17	43503.54
548.34	43576.09
548.51	43445.02
548.67	43548.01
548.84	43393.53
549.01	43407.58
549.18	43524.60
549.34	43828.87
549.51	43751.63
549.68	43840.57
549.84	43636.95
550.01	44037.18
550.18	43311.61
550.34	44161.23
550.51	43763.34
550.68	43772.70
550.84	43494.18
551.01	43922.49
551.18	43896.75
551.34	44402.30
551.51	44495.92
551.68	43779.72
551.84	44219.74
552.01	44432.73
552.18	44018.46
552.34	44119.10
552.51	44493.58
552.68	44039.52
552.84	44072.29
553.01	44144.84
553.18	44313.36
553.34	44765.09
553.51	44182.29
553.67	44617.63
553.84	44641.04
554.01	44474.86
554.17	44776.79
554.34	44545.08
554.51	44753.38
554.67	44823.60
554.84	44729.98
555.00	44446.77
555.17	44753.38
555.33	44961.69
555.50	44182.29
555.67	44521.67
555.83	44952.33
556.00	44795.51
556.16	45738.75
556.33	45151.27
556.50	45216.81
556.66	44669.12
556.83	45031.91
556.99	45425.12
557.16	45186.38
557.32	45003.82
557.49	45427.46
557.65	45317.45
557.82	45375.97
557.98	45378.31
558.15	45003.82
558.32	45612.36
558.48	45193.40
558.65	45659.17
558.81	45427.46
558.98	45188.72
559.14	45261.28
559.31	45282.34
559.47	45268.30
559.64	45895.56
559.80	45078.72
559.97	45404.05
560.13	45387.67
560.30	45551.51
560.46	46337.93
560.63	46153.02
560.79	45778.54
560.96	46153.02
561.12	45970.46
561.29	45661.51
561.45	46347.29
561.61	46087.49
561.78	45897.91
561.94	45638.11
562.11	45640.45
562.27	45794.92
562.44	45825.35
562.60	46052.38
562.77	46305.16
562.93	46000.89
563.10	46323.88
563.26	45925.99
563.42	46674.96
563.59	45904.93
563.75	45869.82
563.92	46258.35
564.08	45799.60
564.24	46309.84
564.41	46340.27
564.57	46057.06
564.74	46085.15
564.90	45881.52
565.07	46270.05
565.23	46288.77
565.39	46155.36
565.56	46457.29
565.72	46204.52
565.88	46394.10
566.05	46363.67
566.21	46382.40
566.38	46478.36
566.54	46419.84
566.70	46279.41
566.87	46124.94
567.03	46394.10
567.19	46356.65
567.36	46391.76
567.52	46632.83
567.68	46623.47
567.85	46799.01
568.01	46508.79
568.17	46443.25
568.34	46653.90
568.50	46424.53
568.66	46169.41
568.83	46621.13
568.99	46618.79
569.15	46471.34
569.32	46714.75
569.48	46667.94
569.64	46911.36
569.81	46810.71
569.97	47222.65
570.13	47023.70
570.30	46351.97
570.46	46756.88
570.62	46960.51
570.78	46939.44
570.95	46864.55
571.11	46906.68
571.27	46639.86
571.43	46897.31
571.60	46974.55
571.76	46628.15
571.92	46733.48
572.09	46548.57
572.25	46939.44
572.41	46869.23
572.57	46906.68
572.74	47091.58
572.90	46904.34
573.06	47089.24
573.22	47042.43
573.38	46911.36
573.55	47180.52
573.71	47271.80
573.87	47400.53
574.03	47000.30
574.20	47257.76
574.36	47019.02
574.52	47304.57
574.68	47019.02
574.84	47143.07
575.01	47253.08
575.17	47358.40
575.33	47405.21
575.49	46890.29
575.65	47547.98
575.82	47000.30
575.98	47110.30
576.14	47627.56
576.30	47648.63
576.46	47042.43
576.62	46660.92
576.79	47239.03
576.95	46841.14
577.11	47150.09
577.27	47466.06
577.43	47129.03
577.59	47213.29
577.75	47014.34
577.92	46993.28
578.08	47349.04
578.24	46988.60
578.40	47356.06
578.56	47789.06
578.72	47590.11
578.88	47529.26
579.04	47185.20
579.21	47299.89
579.37	47304.57
579.53	47732.89
579.69	47220.31
579.85	47372.44
580.01	47381.80
580.17	47323.29
580.33	47201.58
580.49	47416.91
580.65	47442.66
580.82	47395.85
580.98	47313.93
581.14	46934.76
581.30	47643.94
581.46	47353.72
581.62	47367.76
581.78	47454.36
581.94	47232.01
582.10	47257.76
582.26	47440.32
582.42	47381.80
582.58	47585.43
582.74	47613.52
582.90	47412.23
583.06	47758.63
583.22	47014.34
583.38	47672.03
583.54	47971.62
583.70	47868.64
583.86	47791.40
584.02	47564.37
584.18	47276.48
584.34	47585.43
584.50	47730.54
584.66	47831.19
584.82	47437.98
584.98	47988.00
585.14	47555.00
585.30	47683.73
585.46	47459.04
585.62	47241.37
585.78	47466.06
585.94	47519.90
586.10	47363.08
586.26	47185.20
586.42	47775.02
586.58	47552.66
586.74	47515.22
586.90	46932.42
587.06	47810.12
587.22	47810.12
587.38	47550.32
587.54	47800.76
587.70	48020.77
587.86	47758.63
588.02	47646.29
588.18	47388.83
588.34	47358.40
588.49	47585.43
588.65	47765.65
588.81	47566.71
588.97	48051.20
589.13	47517.56
589.29	47800.76
589.45	47980.98
589.61	47599.47
589.77	47831.19
589.93	47948.21
590.08	47772.67
590.24	48268.87
590.40	48327.38
590.56	47936.51
590.72	47849.91
590.88	47742.25
591.04	47676.71
591.20	47842.89
591.35	47896.72
591.51	48463.13
591.67	48151.84
591.83	48275.89
591.99	47969.28
592.15	48177.59
592.31	48025.45
592.46	47875.66
592.62	48250.14
592.78	48142.48
592.94	48514.62
593.10	48339.08
593.26	48491.22
593.41	48444.41
593.57	48523.99
593.73	48224.40
593.89	48631.65
594.05	48582.50
594.20	48243.12
594.36	48472.49
594.52	48378.87
594.68	48533.35
594.84	48093.33
594.99	48458.45
595.15	48404.62
595.31	48556.75
595.47	48315.68
595.62	48215.04
595.78	48545.05
595.94	48348.45
596.10	48250.14
596.25	48549.73
596.41	48458.45
596.57	48369.51
596.73	48509.94
596.88	48722.93
597.04	48032.47
597.20	48327.38
597.36	48404.62
597.51	48385.89
597.67	48481.86
597.83	48303.98
597.99	48442.07
598.14	48285.25
598.30	48238.44
598.46	48545.05
598.61	48664.42
598.77	48580.16
598.93	48591.86
599.09	48093.33
599.24	48858.68
599.40	48236.10
599.56	48498.24
599.71	48568.46
599.87	48694.85
600.03	48779.10
600.18	48472.49
600.34	48638.67
600.50	48573.14
600.65	48411.64
600.81	48554.41
600.97	48514.62
601.12	48863.36
601.28	48460.79
601.44	48123.75
601.59	48278.23
601.75	48196.31
601.91	48559.09
602.06	48533.35
602.22	48758.04
602.37	48093.33
602.53	48327.38
602.69	48751.02
602.84	48362.49
603.00	48678.46
603.16	48357.81
603.31	48421.00
603.47	48556.75
603.62	48411.64
603.78	48479.52
603.94	48687.82
604.09	48458.45
604.25	48442.07
604.40	48416.32
604.56	48676.12
604.71	48732.29
604.87	48432.71
605.03	48596.54
605.18	48711.23
605.34	48701.87
605.49	48580.16
605.65	48278.23
605.80	48311.00
605.96	47924.81
606.12	47866.30
606.27	48563.78
606.43	48371.85
606.58	48306.32
606.74	47913.11
606.89	48275.89
607.05	48404.62
607.20	48865.70
607.36	48460.79
607.51	48105.03
607.67	48285.25
607.82	48060.56
607.98	48142.48
608.13	48135.46
608.29	47978.64
608.44	48425.68
608.60	48149.50
608.75	48360.15
608.91	48327.38
609.06	48678.46
609.22	48451.43
609.37	47810.12
609.53	48811.87
609.68	48119.07
609.84	47973.96
609.99	48535.69
610.15	48355.47
610.30	48119.07
610.46	48053.54
610.61	48350.79
610.76	48252.48
610.92	48074.60
611.07	48121.41
611.23	48123.75
611.38	47995.03
611.54	48034.81
611.69	48217.38
611.84	48076.94
612.00	47690.76
612.15	47887.36
612.31	48254.82
612.46	47533.94
612.62	47943.53
612.77	47980.98
612.92	47892.04
613.08	47611.18
613.23	48165.88
613.39	47875.66
613.54	47753.95
613.69	47908.43
613.85	47735.23
614.00	48046.52
614.15	48128.44
614.31	47573.73
614.46	47938.85
614.62	47775.02
614.77	47667.35
614.92	47569.05
615.08	47503.51
615.23	47894.38
615.38	47758.63
615.54	47641.60
615.69	47742.25
615.84	48107.37
616.00	47440.32
616.15	47709.48
616.30	47885.02
616.46	47477.77
616.61	47805.44
616.76	47901.40
616.92	47583.09
617.07	48046.52
617.22	47552.66
617.37	47063.49
617.53	47440.32
617.68	47463.72
617.83	46974.55
617.99	47782.04
618.14	47938.85
618.29	47236.69
618.45	47213.29
618.60	47196.90
618.75	46873.91
618.90	47627.56
619.06	47243.71
619.21	47683.73
619.36	47655.65
619.51	47299.89
619.67	47145.41
619.82	47248.39
619.97	47302.23
620.12	47264.78
620.28	47159.45
620.43	47133.71
620.58	47262.44
620.73	46993.28
620.89	47110.30
621.04	47571.39
621.19	47075.19
621.34	46920.72
621.49	46829.44
621.65	46698.37
621.80	47260.10
621.95	47009.66
622.10	47295.21
622.25	47070.51
622.41	47103.28
622.56	46838.80
622.71	47454.36
622.86	46843.48
623.01	47100.94
623.16	46885.61
623.32	46639.86
623.47	47026.04
623.62	46789.65
623.77	46731.14
623.92	46969.87
624.07	46389.42
624.23	47131.37
624.38	46323.88
624.53	46375.37
624.68	46614.11
624.83	46703.05
624.98	46256.01
625.13	46080.47
625.29	46518.15
625.44	46401.12
625.59	46344.95
625.74	46330.90
625.89	46377.72
626.04	46506.44
626.19	46136.64
626.34	46351.97
626.49	46279.41
626.65	45687.26
626.80	45965.78
626.95	45785.56
627.10	45921.31
627.25	46309.84
627.40	46148.34
627.55	46003.23
627.70	46227.92
627.85	46401.12
628.00	46291.12
628.15	46277.07
628.30	45610.02
628.45	45766.84
628.60	45734.07
628.76	45682.58
628.91	45783.22
629.06	45670.87
629.21	45471.93
629.36	45556.19
629.51	45825.35
629.66	45914.29
629.81	45624.06
629.96	46192.81
630.11	45876.84
630.26	45216.81
630.41	45911.95
630.56	45883.86
630.71	45607.68
630.86	45041.27
631.01	45284.68
631.16	45359.58
631.31	45617.04
631.46	45450.86
631.61	45701.30
631.76	45565.55
631.91	45607.68
632.06	45848.75
632.21	45462.57
632.36	45617.04
632.51	45240.21
632.66	45464.91
632.81	45219.15
632.96	45375.97
633.10	45088.08
633.25	45523.42
633.40	45413.41
633.55	45872.16
633.70	45390.01
633.85	44945.31
634.00	44811.90
634.15	44676.15
634.30	44882.11
634.45	45195.74
634.60	45268.30
634.75	44830.62
634.90	45160.64
635.05	45347.88
635.19	45296.39
635.34	44849.35
635.49	44896.16
635.64	44762.75
635.79	44926.58
635.94	45184.04
636.09	45132.55
636.24	44629.34
636.39	44830.62
636.53	44795.51
636.68	44208.04
636.83	44528.69
636.98	44353.15
637.13	43814.83
637.28	44538.05
637.43	44488.90
637.57	44711.25
637.72	44240.81
637.87	44516.99
638.02	44451.45
638.17	44538.05
638.32	44584.86
638.46	44491.24
638.61	44559.12
638.76	44065.27
638.91	43906.11
639.06	44362.51
639.20	43943.56
639.35	44037.18
639.50	43964.62
639.65	43964.62
639.80	44624.65
639.94	44119.10
640.09	44392.94
640.24	44107.40
640.39	43674.40
640.54	43229.69
640.68	43812.49
640.83	44306.34
640.98	43693.12
641.13	43796.10
641.27	44493.58
641.42	43742.27
641.57	43950.58
641.72	43257.78
641.86	43810.15
642.01	43543.33
642.16	43484.81
642.31	43423.96
642.45	43611.20
642.60	43344.38
642.75	43620.56
642.90	43796.10
643.04	43751.63
643.19	43185.22
643.34	43374.81
643.48	43133.73
643.63	43503.54
643.78	43489.49
643.93	43777.38
644.07	43529.28
644.22	43454.39
644.37	43435.66
644.51	43421.62
644.66	43779.72
644.81	43248.42
644.95	43206.29
645.10	43416.94
645.25	43271.82
645.39	42866.91
645.54	43222.67
645.69	42927.77
645.83	42604.77
645.98	43100.97
646.13	42983.94
646.27	43243.74
646.42	43049.47
646.57	42869.25
646.71	42679.67
646.86	43164.16
647.00	42981.60
647.15	43096.28
647.30	42799.04
647.44	42656.26
647.59	42492.43
647.74	42674.99
647.88	42838.83
648.03	43192.25
648.17	43028.41
648.32	43278.85
648.47	42976.92
648.61	42572.00
648.76	42806.06
648.90	42492.43
649.05	42466.68
649.20	42597.75
649.34	42813.08
649.49	42815.42
649.63	42518.17
649.78	42803.72
649.92	42759.25
650.07	43201.61
650.21	42909.04
650.36	42857.55
650.51	42485.40
650.65	42581.37
650.80	42628.18
650.94	42153.05
651.09	42150.71
651.23	42319.23
651.38	42394.12
651.52	42223.26
651.67	42082.83
651.81	42110.92
651.96	42501.79
652.10	41900.27
652.25	42052.41
652.39	41808.99
652.54	42155.39
652.68	41947.08
652.83	41869.84
652.97	42073.47
653.12	41879.21
653.26	41752.82
653.41	42124.96
653.55	42068.79
653.70	42103.90
653.84	42094.53
653.99	42073.47
654.13	42211.56
654.27	42354.33
654.42	42050.06
654.56	41563.23
654.71	41464.93
654.85	41706.01
655.00	41928.36
655.14	41682.60
655.29	42094.53
655.43	41813.67
655.57	41794.95
655.72	41282.37
655.86	41689.62
656.01	40905.54
656.15	41050.66
656.30	41127.89
656.44	40942.99
656.58	41064.70
656.73	41628.77
656.87	41247.26
657.01	41401.74
657.16	41394.71
657.30	41429.82
657.45	40760.43
657.59	41092.79
657.73	41137.26
657.88	41268.33
658.02	40952.35
658.16	41312.80
658.31	41118.53
658.45	41198.11
658.60	40966.40
658.74	41041.29
658.88	40886.82
659.03	40957.03
659.17	40409.35
659.31	40617.66
659.46	40364.88
659.60	40416.37
659.74	40348.50
659.89	40318.07
660.03	40528.72
660.17	40072.31
660.32	40243.17
660.46	40175.30
660.60	39854.64
660.74	40364.88
660.89	40385.94
661.03	39681.44
661.17	39311.64
661.32	39578.46
661.46	39812.51
661.60	39793.79
661.74	39959.97
661.89	39775.06
662.03	39683.78
662.17	39812.51
662.31	39555.05
662.46	40074.65
662.60	39445.05
662.74	39494.20
662.88	39239.08
663.03	39044.82
663.17	39393.56
663.31	38904.38
663.45	39232.06
663.60	39349.09
663.74	39133.76
663.88	39182.91
664.02	39089.29
664.17	39215.68
664.31	38855.23
664.45	38581.39
664.59	39203.97
664.73	38724.16
664.88	39096.31
665.02	38576.71
665.16	38309.89
665.30	38838.85
665.44	38974.60
665.59	38080.52
665.73	38326.27
665.87	37907.32
666.01	38064.13
666.15	38134.35
666.29	38132.01
666.44	38691.40
666.58	38305.21
666.72	38286.48
666.86	37787.95
667.00	37886.25
667.14	37879.23
667.28	38108.60
667.43	37530.49
667.57	37677.94
667.71	38185.84
667.85	38354.36
667.99	38000.94
668.13	37385.38
668.27	37046.00
668.41	37497.72
668.56	37041.32
668.70	37088.13
668.84	36950.04
668.98	36690.24
669.12	37008.55
669.26	37017.91
669.40	37106.85
669.54	36978.12
669.68	36842.37
669.82	37242.60
669.96	36287.67
670.10	36664.49
670.25	36561.51
670.39	36348.52
670.53	36538.10
670.67	36582.57
670.81	36797.90
670.95	36201.07
671.09	36065.31
671.23	36070.00
671.37	36294.69
671.51	35627.63
671.65	35716.58
671.79	35821.90
671.93	35519.97
672.07	35768.07
672.21	35835.94
672.35	35285.92
672.49	35161.87
672.63	35519.97
672.77	35159.53
672.91	35072.93
673.05	35428.69
673.19	34944.20
673.33	34827.17
673.47	34951.22
673.61	34604.82
673.75	34412.90
673.89	34480.77
674.03	34649.29
674.17	33965.85
674.31	34164.80
674.45	33827.76
674.59	34096.92
674.73	34064.16
674.87	33790.31
675.01	34000.96
675.15	33298.80
675.29	33280.08
675.43	33563.28
675.56	33858.19
675.70	33273.06
675.84	33593.71
675.98	32409.40
676.12	33247.31
676.26	33326.89
676.40	33266.03
676.54	32886.87
676.68	32795.59
676.82	32446.85
676.96	32863.46
677.10	33064.75
677.23	32982.83
677.37	32889.21
677.51	32526.42
677.65	32079.38
677.79	32465.57
677.93	32411.74
678.07	31992.78
678.21	31901.50
678.34	31576.17
678.48	31768.09
678.62	31496.59
678.76	31658.09
678.90	31353.82
679.04	31428.71
679.18	31634.68
679.31	31152.53
679.45	30857.62
679.59	30859.96
679.73	30890.39
679.87	30817.83
680.00	30541.65
680.14	30850.60
680.28	30668.04
680.42	30508.88
680.56	30487.82
680.70	30398.88
680.83	29909.71
680.97	30017.37
681.11	30216.32
681.25	29797.36
681.39	29010.94
681.52	29532.88
681.66	29268.40
681.80	28835.40
681.94	28919.66
682.07	29104.56
682.21	29097.54
682.35	28929.02
682.49	28788.59
682.62	28474.96
682.76	28957.11
682.90	29008.60
683.04	28393.04
683.17	28549.85
683.31	28432.83
683.45	27871.10
683.59	28060.68
683.72	27948.34
683.86	27810.25
684.00	27868.76
684.13	27735.35
684.27	27438.10
684.41	27644.07
684.55	27405.33
684.68	27449.80
684.82	27402.99
684.96	27019.14
685.09	27449.80
685.23	26668.06
685.37	27325.75
685.50	27288.31
685.64	27016.80
685.78	26670.40
685.91	26487.84
686.05	26544.02
686.19	25703.76
686.32	26263.15
686.46	25928.45
686.60	25762.28
686.73	25846.54
686.87	25853.56
687.01	25811.43
687.14	25860.58
687.28	25474.39
687.42	25542.27
687.55	25401.83
687.69	25348.00
687.82	25076.50
687.96	25200.55
688.10	25146.72
688.23	24844.79
688.37	25247.36
688.50	25193.53
688.64	24713.72
688.78	24592.01
688.91	24589.67
689.05	24552.22
689.18	23978.79
689.32	23765.80
689.46	24034.96
689.59	23702.61
689.73	24126.24
689.86	24156.67
690.00	23831.33
690.13	23836.02
690.27	23604.30
690.41	23882.83
690.54	23126.83
690.68	23262.58
690.81	23190.03
690.95	22881.08
691.08	22787.46
691.22	22579.15
691.35	22607.23
691.49	22735.96
691.62	22836.61
691.76	22417.65
691.89	22293.60
692.03	22097.00
692.16	22010.40
692.30	22148.49
692.43	21998.70
692.57	21855.92
692.70	21408.88
692.84	21909.75
692.97	21568.04
693.11	21586.76
693.24	21209.93
693.38	20896.30
693.51	20912.69
693.65	20851.83
693.78	21015.67
693.92	20748.85
694.05	20884.60
694.19	20720.76
694.32	20570.97
694.45	20680.97
694.59	20657.57
694.72	20542.88
694.86	20421.17
694.99	20264.36
695.13	20100.52
695.26	19861.79
695.39	19953.07
695.53	19655.82
695.66	20098.18
695.80	19882.85
695.93	19627.73
696.07	19646.46
696.20	19147.92
696.33	19129.20
696.47	19103.45
696.60	19063.66
696.73	19246.23
696.87	19335.17
697.00	18848.33
697.14	18787.48
697.27	18904.51
697.40	18506.62
697.54	18642.37
697.67	18389.59
697.80	18520.66
697.94	18483.21
698.07	18200.01
698.21	18251.50
698.34	17944.89
698.47	18022.12
698.61	17575.08
698.74	17743.60
698.87	17764.67
699.01	17642.96
699.14	17783.39
699.27	17678.07
699.40	17460.40
699.54	17284.86
699.67	17401.88
699.80	17116.34
699.94	17099.95
700.07	17123.36
700.20	16809.73
700.34	16723.13
700.47	16662.27
700.60	17020.38
700.73	16884.62
700.87	16659.93
701.00	16353.32
701.13	16379.07
701.26	16196.51
701.40	16435.24
701.53	16044.37
701.66	16201.19
701.79	16102.89
701.93	15578.61
702.06	15702.65
702.19	15702.65
702.32	15716.70
702.46	15772.87
702.59	15639.46
702.72	15662.86
702.85	15580.95
702.99	15477.96
703.12	15185.40
703.25	15124.54
703.38	15164.33
703.51	14829.63
703.65	14895.17
703.78	14597.92
703.91	14572.18
704.04	14586.22
704.17	14504.30
704.31	14375.57
704.44	14661.12
704.57	14466.85
704.70	14520.68
704.83	14380.25
704.96	14244.50
705.10	14094.71
705.23	13891.08
>>>>>End Processed Spectral Data<<<<<
