SpectraSuite Data File
++++++++++++++++++++++++++++++++++++
Date: Fri Oct 25 10:43:34 EDT 2013
User: price-jones
Dark Spectrum Present: No
Reference Spectrum Present: No
Number of Sampled Component Spectra: 1
Spectrometers: USB2+H05261
Integration Time (usec): 100000 (USB2+H05261)
Spectra Averaged: 1 (USB2+H05261)
Boxcar Smoothing: 0 (USB2+H05261)
Correct for Electrical Dark: No (USB2+H05261)
Strobe/Lamp Enabled: No (USB2+H05261)
Correct for Detector Non-linearity: No (USB2+H05261)
Correct for Stray Light: No (USB2+H05261)
Number of Pixels in Processed Spectrum: 2048
>>>>>Begin Processed Spectral Data<<<<<
365.73	131.07
365.92	131.07
366.12	131.07
366.32	4.68
366.52	39.79
366.72	49.15
366.91	16.38
367.11	9.36
367.31	25.75
367.51	4.68
367.70	0.00
367.90	44.47
368.10	0.00
368.30	51.49
368.49	0.00
368.69	28.09
368.89	30.43
369.09	100.64
369.28	84.26
369.48	30.43
369.68	46.81
369.87	9.36
370.07	84.26
370.27	112.35
370.47	166.18
370.66	409.59
370.86	451.72
371.06	465.77
371.25	458.74
371.45	411.93
371.65	505.56
371.84	433.00
372.04	489.17
372.24	465.77
372.44	477.47
372.63	484.49
372.83	510.24
373.03	505.56
373.22	535.98
373.42	507.90
373.62	596.84
373.81	517.26
374.01	547.69
374.21	610.88
374.40	465.77
374.60	521.94
374.79	603.86
374.99	550.03
375.19	596.84
375.38	582.79
375.58	547.69
375.78	561.73
375.97	571.09
376.17	723.23
376.37	636.63
376.56	545.34
376.76	608.54
376.95	624.92
377.15	645.99
377.35	631.94
377.54	678.76
377.74	559.39
377.93	627.26
378.13	664.71
378.33	671.73
378.52	697.48
378.72	660.03
378.91	669.39
379.11	617.90
379.31	657.69
379.50	711.52
379.70	760.67
379.89	709.18
380.09	645.99
380.28	638.97
380.48	805.14
380.68	648.33
380.87	685.78
381.07	718.54
381.26	739.61
381.46	720.88
381.65	702.16
381.85	727.91
382.04	741.95
382.24	713.86
382.43	683.44
382.63	741.95
382.83	702.16
383.02	748.97
383.22	748.97
383.41	795.78
383.61	763.01
383.80	786.42
384.00	800.46
384.19	791.10
384.39	784.08
384.58	823.87
384.78	798.12
384.97	826.21
385.17	786.42
385.36	777.06
385.56	830.89
385.75	840.25
385.95	819.19
386.14	875.36
386.34	823.87
386.53	823.87
386.72	755.99
386.92	828.55
387.11	842.59
387.31	915.15
387.50	922.17
387.70	861.32
387.89	917.49
388.09	844.93
388.28	833.23
388.48	774.72
388.67	947.92
388.86	985.37
389.06	933.87
389.25	966.64
389.45	968.98
389.64	1008.77
389.84	1048.56
390.03	1046.22
390.22	985.37
390.42	976.00
390.61	961.96
390.81	1046.22
391.00	1151.54
391.19	1022.81
391.39	1039.20
391.58	1111.75
391.78	1083.67
391.97	1118.78
392.16	1053.24
392.36	1144.52
392.55	980.68
392.75	971.32
392.94	961.96
393.13	894.08
393.33	1004.09
393.52	1004.09
393.71	1139.84
393.91	1149.20
394.10	1081.33
394.29	1177.29
394.49	1198.35
394.68	1212.40
394.88	1165.59
395.07	1277.93
395.26	1280.27
395.46	1270.91
395.65	1301.34
395.84	1165.59
396.04	1233.46
396.23	1219.42
396.42	1188.99
396.62	1235.80
396.81	1320.06
397.00	1170.27
397.19	1284.95
397.39	1397.30
397.58	1437.09
397.77	1380.92
397.97	1418.36
398.16	1500.28
398.35	1465.18
398.55	1479.22
398.74	1516.67
398.93	1647.74
399.12	1596.25
399.32	1460.49
399.51	1537.73
399.70	1612.63
399.90	1561.14
400.09	1593.90
400.28	1563.48
400.47	1659.44
400.67	1626.67
400.86	1804.55
401.05	1530.71
401.24	1593.90
401.44	1741.36
401.63	1647.74
401.82	1624.33
402.01	1680.50
402.21	1795.19
402.40	1809.23
402.59	1809.23
402.78	1710.93
402.97	1802.21
403.17	1774.13
403.36	1762.42
403.55	1884.13
403.74	1902.86
403.93	1877.11
404.13	1914.56
404.32	1912.22
404.51	1816.26
404.70	1937.96
404.89	1949.67
405.09	2036.27
405.28	1982.43
405.47	2029.24
405.66	1956.69
405.85	2010.52
406.05	2005.84
406.24	1980.09
406.43	1987.11
406.62	2165.00
406.81	2157.97
407.00	2157.97
407.20	2122.87
407.39	2153.29
407.58	2242.23
407.77	2118.18
407.96	2342.88
408.15	2303.09
408.34	2136.91
408.54	2314.79
408.73	2265.64
408.92	2317.13
409.11	2289.04
409.30	2314.79
409.49	2293.72
409.68	2420.11
409.87	2342.88
410.07	2387.35
410.26	2392.03
410.45	2420.11
410.64	2502.03
410.83	2607.36
411.02	2581.61
411.21	2630.76
411.40	2602.68
411.59	2548.84
411.78	2621.40
411.98	2644.81
412.17	2656.51
412.36	2731.41
412.55	2799.28
412.74	2731.41
412.93	2738.43
413.12	2623.74
413.31	2869.50
413.50	2930.35
413.69	2974.82
413.88	2778.22
414.07	2942.05
414.26	3129.30
414.45	3087.17
414.64	3007.59
414.83	3141.00
415.02	2984.18
415.22	3192.49
415.41	3080.14
415.60	3061.42
415.79	3190.15
415.98	3276.75
416.17	3239.30
416.36	3400.80
416.55	3459.31
416.74	3265.05
416.93	3353.99
417.12	3389.10
417.31	3538.89
417.50	3449.95
417.69	3494.42
417.88	3412.50
418.07	3382.07
418.26	3499.10
418.45	3482.72
418.64	3522.51
418.83	3637.19
419.02	3564.64
419.21	3651.24
419.39	3543.57
419.58	3534.21
419.77	3592.72
419.96	3674.64
420.15	3733.15
420.34	3758.90
420.53	3784.65
420.72	3882.95
420.91	3925.08
421.10	3831.46
421.29	3915.72
421.48	3803.37
421.67	3939.12
421.86	3852.52
422.05	3896.99
422.24	3794.01
422.43	3779.97
422.61	3871.25
422.80	3999.98
422.99	3913.38
423.18	4060.83
423.37	4067.85
423.56	3859.54
423.75	4032.74
423.94	4032.74
424.13	3686.34
424.32	3854.86
424.50	4070.19
424.69	4173.18
424.88	4091.26
425.07	3964.87
425.26	4051.47
425.45	3995.29
425.64	3936.78
425.83	3918.06
426.01	4198.92
426.20	4084.23
426.39	4037.42
426.58	4112.32
426.77	4014.02
426.96	3985.93
427.15	3962.53
427.33	4154.45
427.52	4196.58
427.71	4088.92
427.90	4313.61
428.09	4051.47
428.28	4238.71
428.46	4161.47
428.65	4133.39
428.84	4201.26
429.03	4367.44
429.22	4098.28
429.40	4227.01
429.59	4238.71
429.78	3978.91
429.97	4032.74
430.16	4088.92
430.34	4105.30
430.53	4255.09
430.72	4273.82
430.91	4313.61
431.10	4437.66
431.28	4559.36
431.47	4667.03
431.66	4720.86
431.85	4762.99
432.03	4507.87
432.22	4774.69
432.41	4676.39
432.60	4643.62
432.79	4734.90
432.97	4861.29
433.16	4952.57
433.35	4624.90
433.54	4695.11
433.72	4720.86
433.91	4896.40
434.10	4737.24
434.28	4774.69
434.47	4910.44
434.66	4910.44
434.85	5055.56
435.03	5013.43
435.22	5100.03
435.41	5158.54
435.59	5100.03
435.78	5181.95
435.97	5093.01
436.16	5151.52
436.34	5083.64
436.53	5322.38
436.72	5308.34
436.90	5198.33
437.09	5301.31
437.28	5235.78
437.46	5212.37
437.65	5301.31
437.84	5273.23
438.02	5240.46
438.21	5195.99
438.40	5095.35
438.58	5301.31
438.77	5322.38
438.96	5549.41
439.14	5586.86
439.33	5743.67
439.52	5500.26
439.70	5746.02
439.89	5785.80
440.08	5678.14
440.26	5825.59
440.45	5769.42
440.63	5879.43
440.82	6057.31
441.01	5963.68
441.19	6216.46
441.38	6104.12
441.57	6139.23
441.75	6171.99
441.94	6466.90
442.12	6338.17
442.31	6279.66
442.50	6387.32
442.68	6328.81
442.87	6305.40
443.05	6298.38
443.24	6698.61
443.43	6478.60
443.61	6455.20
443.80	6635.42
443.98	6452.86
444.17	6345.19
444.35	6612.01
444.54	6691.59
444.73	6691.59
444.91	6530.09
445.10	6581.59
445.28	6452.86
445.47	6562.86
445.65	6523.07
445.84	6619.04
446.02	6633.08
446.21	6492.65
446.39	6551.16
446.58	6633.08
446.77	6733.72
446.95	6766.49
447.14	6715.00
447.32	6733.72
447.51	6750.10
447.69	6623.72
447.88	6874.15
448.06	6799.26
448.25	6691.59
448.43	6881.18
448.62	6918.62
448.80	6719.68
448.99	6970.12
449.17	6923.30
449.36	6960.75
449.54	6892.88
449.73	6984.16
449.91	7220.55
450.10	7166.72
450.28	7276.73
450.46	7328.22
450.65	7321.20
450.83	7342.26
451.02	7335.24
451.20	7283.75
451.39	7157.36
451.57	7323.54
451.76	7405.46
451.94	7148.00
452.13	7332.90
452.31	7236.94
452.49	7353.96
452.68	7253.32
452.86	7360.98
453.05	7414.82
453.23	7468.65
453.42	7403.11
453.60	7447.58
453.78	7660.57
453.97	7255.66
454.15	7522.48
454.34	7524.82
454.52	7644.19
454.70	7644.19
454.89	7576.31
455.07	7592.70
455.26	7698.02
455.44	7775.26
455.62	7878.24
455.81	7770.58
455.99	7903.99
456.17	8011.65
456.36	7992.93
456.54	8102.93
456.73	8035.06
456.91	8280.82
457.09	8266.77
457.28	8152.09
457.46	8168.47
457.64	8468.06
457.83	8002.29
458.01	8140.38
458.19	8451.67
458.38	8226.98
458.56	8334.65
458.74	8334.65
458.93	8360.39
459.11	8311.24
459.29	8311.24
459.48	8248.05
459.66	8353.37
459.84	8428.27
460.03	8746.58
460.21	8805.10
460.39	8531.25
460.57	8430.61
460.76	8517.21
460.94	8669.34
461.12	8882.33
461.31	8856.59
461.49	8840.20
461.67	8781.69
461.85	9268.52
462.04	8837.86
462.22	9572.79
462.40	9151.49
462.59	9165.54
462.77	9062.55
462.95	9074.26
463.13	8975.95
463.32	9029.79
463.50	9015.74
463.68	8992.34
463.86	9018.08
464.05	8854.25
464.23	9022.77
464.41	9275.54
464.59	8994.68
464.78	9277.88
464.96	9415.98
465.14	9039.15
465.32	9282.56
465.50	9212.35
465.69	9369.16
465.87	9233.41
466.05	9029.79
466.23	9249.80
466.41	9149.15
466.60	9568.11
466.78	9266.18
466.96	9139.79
467.14	9467.47
467.32	9460.45
467.51	9537.68
467.69	9193.62
467.87	9589.17
468.05	9483.85
468.23	9511.94
468.41	9699.18
468.60	9439.38
468.78	9635.99
468.96	9490.87
469.14	9734.29
469.32	9753.01
469.50	9535.34
469.69	9753.01
469.87	9680.46
470.05	10104.09
470.23	9919.19
470.41	9982.38
470.59	10160.27
470.77	9827.91
470.95	10115.80
471.14	10284.31
471.32	10270.27
471.50	10279.63
471.68	10370.91
471.86	10499.64
472.04	10459.85
472.22	10628.37
472.40	10218.78
472.58	10485.60
472.77	10459.85
472.95	10473.90
473.13	10850.72
473.31	10782.85
473.49	10523.05
473.67	10878.81
473.85	10778.17
474.03	10902.22
474.21	11026.26
474.39	11087.12
474.57	11246.27
474.75	11353.94
474.93	11475.65
475.12	11328.19
475.30	11482.67
475.48	11274.36
475.66	11475.65
475.84	11403.09
476.02	11644.17
476.20	11487.35
476.38	11679.27
476.56	11861.84
476.74	11808.00
476.92	11831.41
477.10	11969.50
477.28	12145.04
477.46	12011.63
477.64	12386.12
477.82	12643.57
478.00	12793.37
478.18	12573.36
478.36	12573.36
478.54	12791.03
478.72	12367.39
478.90	13102.32
479.08	12966.57
479.26	13231.05
479.44	13298.92
479.62	13427.65
479.80	13685.11
479.98	13418.29
480.16	13752.99
480.34	13734.26
480.52	13804.48
480.70	13947.25
480.88	13811.50
481.06	13827.88
481.24	14476.21
481.41	14237.48
481.59	14293.65
481.77	14427.06
481.95	14413.02
482.13	14597.92
482.31	14764.10
482.49	14937.30
482.67	15035.60
482.85	15070.71
483.03	15555.20
483.21	15325.83
483.39	15543.50
483.57	15309.44
483.74	15653.50
483.92	15632.44
484.10	15819.68
484.28	16006.92
484.46	16292.47
484.64	16463.33
484.82	15901.60
485.00	16184.80
485.18	16451.63
485.35	16575.67
485.53	16325.24
485.71	16547.59
485.89	16615.46
486.07	16636.53
486.25	16711.42
486.43	16893.99
486.61	17118.68
486.78	17439.33
486.96	17247.41
487.14	17530.61
487.32	17783.39
487.50	18017.44
487.68	18214.05
487.85	18473.85
488.03	18459.81
488.21	18553.43
488.39	18780.46
488.57	18799.18
488.75	19089.41
488.92	19089.41
489.10	19506.02
489.28	19419.42
489.46	19702.63
489.64	19917.96
489.81	20027.96
489.99	20411.81
490.17	20233.93
490.35	20592.03
490.53	20695.02
490.70	20657.57
490.88	20255.00
491.06	20608.42
491.24	20865.88
491.41	20889.28
491.59	21095.25
491.77	20900.98
491.95	21165.46
492.13	21582.08
492.30	21755.28
492.48	21703.79
492.66	21926.14
492.84	22010.40
493.01	22429.35
493.19	22244.45
493.37	22703.20
493.54	22136.79
493.72	22518.29
493.90	23044.91
494.08	23087.04
494.25	23206.41
494.43	23321.10
494.61	23487.28
494.79	23758.78
494.96	23620.69
495.14	23969.43
495.32	24049.00
495.49	23714.31
495.67	24018.58
495.85	23950.70
496.02	24379.02
496.20	24697.33
496.38	24465.62
496.55	24594.35
496.73	25294.17
496.91	24662.22
497.09	25230.98
497.26	25317.57
497.44	25458.01
497.62	25322.26
497.79	25432.26
497.97	25195.87
498.14	25500.14
498.32	25869.94
498.50	25757.60
498.67	26160.17
498.85	26127.40
499.03	26232.72
499.20	26761.69
499.38	26595.51
499.56	26508.91
499.73	26815.52
499.91	26684.45
500.08	26696.15
500.26	26457.42
500.44	26780.41
500.61	27080.00
500.79	26876.37
500.97	27208.73
501.14	26974.67
501.32	27239.15
501.49	27740.03
501.67	27363.20
501.84	27199.37
502.02	27674.49
502.20	27765.78
502.37	27833.65
502.55	28182.39
502.72	28044.30
502.90	28332.18
503.07	28114.52
503.25	28421.13
503.43	28212.82
503.60	28704.33
503.78	28156.64
503.95	28261.97
504.13	28568.58
504.30	29273.08
504.48	28999.24
504.65	28524.11
504.83	29298.83
505.01	29745.87
505.18	28940.72
505.36	29584.37
505.53	29816.08
505.71	30061.84
505.88	30038.44
506.06	29441.60
506.23	29975.24
506.41	30040.78
506.58	30244.40
506.76	29996.31
506.93	30522.93
507.11	30239.72
507.28	30033.75
507.46	29998.65
507.63	30391.86
507.81	30202.27
507.98	30012.69
508.16	30513.56
508.33	30700.81
508.50	30740.60
508.68	31161.89
508.85	31007.42
509.03	31491.91
509.20	31143.17
509.38	31428.71
509.55	31772.77
509.73	31248.49
509.90	31669.79
510.08	31517.65
510.25	31510.63
510.42	31466.16
510.60	31388.92
510.77	31782.13
510.95	32650.47
511.12	32128.53
511.30	32133.21
511.47	32800.27
511.64	32781.54
511.82	32818.99
511.99	32868.14
512.17	32598.98
512.34	32524.08
512.51	32945.38
512.69	33174.75
512.86	32898.57
513.04	33235.61
513.21	32797.93
513.38	33024.96
513.56	33081.13
513.73	33008.58
513.90	33305.82
514.08	33076.45
514.25	33528.17
514.43	32877.51
514.60	33205.18
514.77	33556.26
514.95	33834.78
515.12	33773.93
515.29	33544.56
515.47	34291.19
515.64	34052.45
515.81	33832.44
515.99	33972.88
516.16	33787.97
516.33	33640.52
516.51	33897.98
516.68	33415.83
516.85	33476.68
517.03	33673.29
517.20	34281.83
517.37	34178.84
517.54	34408.22
517.72	34204.59
517.89	33858.19
518.06	33928.41
518.24	34080.54
518.41	34443.32
518.58	34572.05
518.75	34768.66
518.93	35358.47
519.10	35185.27
519.27	35187.61
519.45	35044.84
519.62	35086.97
519.79	35489.54
519.96	35786.79
520.14	35585.50
520.31	35435.71
520.48	35821.90
520.65	35693.17
520.83	35721.26
521.00	36168.30
521.17	35959.99
521.34	35981.06
521.52	36376.61
521.69	36107.44
521.86	36119.15
522.03	36257.24
522.20	36699.60
522.38	37034.30
522.55	36657.47
522.72	36545.12
522.89	36311.07
523.07	36940.68
523.24	37125.58
523.41	37193.45
523.58	37347.93
523.75	37413.46
523.92	37446.23
524.10	37294.10
524.27	37338.57
524.44	37558.58
524.61	37432.19
524.78	37736.46
524.96	37769.22
525.13	37933.06
525.30	37755.18
525.47	37556.24
525.64	37628.79
525.81	37869.87
525.98	37406.44
526.16	37385.38
526.33	37291.76
526.50	37565.60
526.67	37586.66
526.84	37530.49
527.01	37500.06
527.18	37886.25
527.36	38471.39
527.53	38232.65
527.70	38747.57
527.87	38424.57
528.04	38728.84
528.21	38735.87
528.38	38686.71
528.55	38981.62
528.72	39133.76
528.89	39189.93
529.07	39257.81
529.24	38665.65
529.41	38960.56
529.58	38974.60
529.75	39442.71
529.92	39026.09
530.09	39089.29
530.26	39302.28
530.43	39882.73
530.60	39115.03
530.77	39365.47
530.94	39503.56
531.11	39477.82
531.28	39597.18
531.46	39845.28
531.63	39796.13
531.80	39164.18
531.97	39503.56
532.14	39573.78
532.31	39089.29
532.48	39447.39
532.65	39854.64
532.82	39372.49
532.99	40158.91
533.16	40154.23
533.33	40306.37
533.50	40374.24
533.67	40034.86
533.84	39966.99
534.01	40219.77
534.18	40243.17
534.35	40620.00
534.52	40329.77
534.69	40488.93
534.86	40685.53
535.03	40898.52
535.20	40582.55
535.37	40919.59
535.54	40921.93
535.71	40788.52
535.88	40809.58
536.05	40748.73
536.22	40961.72
536.38	40966.40
536.55	40856.39
536.72	40493.61
536.89	40739.36
537.06	40751.07
537.23	40872.78
537.40	41528.13
537.57	41301.09
537.74	40912.56
537.91	41336.20
538.08	41514.08
538.25	41228.54
538.42	41277.69
538.59	41804.31
538.75	41195.77
538.92	41778.56
539.09	41567.91
539.26	41553.87
539.43	41436.84
539.60	41897.93
539.77	41518.76
539.94	41820.69
540.11	41619.41
540.28	41312.80
540.44	41518.76
540.61	41813.67
540.78	41532.81
540.95	41778.56
541.12	41958.78
541.29	42209.22
541.46	42012.62
541.62	42181.13
541.79	42120.28
541.96	41603.02
542.13	42089.85
542.30	42131.98
542.47	42146.03
542.63	42192.84
542.80	42195.18
542.97	42429.23
543.14	42691.37
543.31	42660.94
543.48	42974.58
543.64	42710.10
543.81	43353.74
543.98	42820.10
544.15	42794.36
544.32	43271.82
544.48	43791.42
544.65	43082.24
544.82	43360.76
544.99	42857.55
545.16	43054.15
545.32	42546.26
545.49	43208.63
545.66	43143.09
545.83	42983.94
546.00	43267.14
546.16	42916.06
546.33	43337.36
546.50	43313.95
546.67	43477.79
546.83	43068.20
547.00	43126.71
547.17	43316.29
547.34	43349.06
547.50	43477.79
547.67	43885.04
547.84	43555.03
548.00	43695.46
548.17	44172.93
548.34	43725.89
548.51	43826.53
548.67	44264.21
548.84	43821.85
549.01	43578.43
549.18	43936.54
549.34	43768.02
549.51	43742.27
549.68	43903.77
549.84	44257.19
550.01	44428.05
550.18	44439.75
550.34	44313.36
550.51	43934.20
550.68	44027.82
550.84	43789.08
551.01	44177.61
551.18	44177.61
551.34	44009.09
551.51	44612.95
551.68	44444.43
551.84	44636.36
552.01	43990.37
552.18	44311.02
552.34	44320.38
552.51	44226.76
552.68	44371.88
552.84	44552.10
553.01	44318.04
553.18	44266.55
553.34	44533.37
553.51	43995.05
553.67	44662.10
553.84	44851.69
554.01	44802.53
554.17	44884.45
554.34	44790.83
554.51	44837.64
554.67	44910.20
554.84	44711.25
555.00	44657.42
555.17	44924.24
555.33	45125.53
555.50	45240.21
555.67	44851.69
555.83	45186.38
556.00	44931.26
556.16	45219.15
556.33	44996.80
556.50	44470.18
556.66	44961.69
556.83	44753.38
556.99	44886.79
557.16	44844.66
557.32	45191.06
557.49	45275.32
557.65	45057.65
557.82	45102.12
557.98	45158.30
558.15	45581.93
558.32	45045.95
558.48	44765.09
558.65	45368.94
558.81	44942.97
558.98	45591.30
559.14	45256.60
559.31	45186.38
559.47	45043.61
559.64	45354.90
559.80	45191.06
559.97	45436.82
560.13	45347.88
560.30	45111.49
560.46	45258.94
560.63	46024.29
560.79	45354.90
560.96	45717.68
561.12	45570.23
561.29	45762.15
561.45	45322.13
561.61	45340.86
561.78	45731.73
561.94	45296.39
562.11	45373.63
562.27	45476.61
562.44	45631.08
562.60	45565.55
562.77	45387.67
562.93	45656.83
563.10	45720.02
563.26	45446.18
563.42	45771.52
563.59	45687.26
563.75	45612.36
563.92	45640.45
564.08	45301.07
564.24	45837.05
564.41	45897.91
564.57	45752.79
564.74	45553.85
564.90	45703.64
565.07	45539.80
565.23	45701.30
565.39	45799.60
565.56	45722.37
565.72	45579.59
565.88	45916.63
566.05	45586.61
566.21	45523.42
566.38	45635.77
566.54	45893.22
566.70	46321.54
566.87	46270.05
567.03	45930.67
567.19	46227.92
567.36	45986.85
567.52	45895.56
567.68	45708.32
567.85	45565.55
568.01	45778.54
568.17	45659.17
568.34	46108.55
568.50	45783.22
568.66	45736.41
568.83	46124.94
568.99	45837.05
569.15	46045.36
569.32	45607.68
569.48	45930.67
569.64	45993.87
569.81	45876.84
569.97	46213.88
570.13	45675.55
570.30	45478.95
570.46	45256.60
570.62	45825.35
570.78	45530.44
570.95	45724.71
571.11	45687.26
571.27	45263.62
571.43	46218.56
571.60	45951.74
571.76	46092.17
571.92	46501.76
572.09	46031.32
572.25	46066.42
572.41	46232.60
572.57	46138.98
572.74	46155.36
572.90	46176.43
573.06	46185.79
573.22	46167.07
573.38	46024.29
573.55	45687.26
573.71	46396.44
573.87	46143.66
574.03	46131.96
574.20	45785.56
574.36	46061.74
574.52	46110.89
574.68	46218.56
574.84	46206.86
575.01	45867.48
575.17	45408.73
575.33	45839.39
575.49	45151.27
575.65	46412.82
575.82	46391.76
575.98	46298.14
576.14	45879.18
576.30	46136.64
576.46	45872.16
576.62	45855.78
576.79	46265.37
576.95	45904.93
577.11	45989.19
577.27	45942.38
577.43	45731.73
577.59	45581.93
577.75	45895.56
577.92	45422.78
578.08	45610.02
578.24	45668.53
578.40	45244.90
578.56	46089.83
578.72	46188.13
578.88	46480.70
579.04	46138.98
579.21	45928.33
579.37	45968.12
579.53	46162.39
579.69	45708.32
579.85	45867.48
580.01	46232.60
580.17	46138.98
580.33	45979.82
580.49	45914.29
580.65	46202.18
580.82	46237.28
580.98	45654.49
581.14	45741.09
581.30	46202.18
581.46	46265.37
581.62	46031.32
581.78	46129.62
581.94	46162.39
582.10	46138.98
582.26	46560.28
582.42	46082.81
582.58	46328.56
582.74	45815.99
582.90	46487.72
583.06	46471.34
583.22	46342.61
583.38	46864.55
583.54	46759.22
583.70	45984.51
583.86	46241.96
584.02	46089.83
584.18	46340.27
584.34	46337.93
584.50	46171.75
584.66	46113.23
584.82	46057.06
584.98	46181.11
585.14	46195.15
585.30	46258.35
585.46	45970.46
585.62	45935.35
585.78	46136.64
585.94	45577.25
586.10	46267.71
586.26	46036.00
586.42	46354.31
586.58	46129.62
586.74	46131.96
586.90	46171.75
587.06	46099.19
587.22	46609.43
587.38	46218.56
587.54	46485.38
587.70	46342.61
587.86	46216.22
588.02	46153.02
588.18	46663.26
588.34	45909.61
588.49	45766.84
588.65	45799.60
588.81	45497.67
588.97	45947.06
589.13	45631.08
589.29	45530.44
589.45	45684.92
589.61	46227.92
589.77	46424.53
589.93	46431.55
590.08	46155.36
590.24	46581.34
590.40	46707.73
590.56	46752.20
590.72	46120.26
590.88	46258.35
591.04	46625.81
591.20	46775.61
591.35	46990.94
591.51	46726.46
591.67	46117.92
591.83	46117.92
591.99	45904.93
592.15	46279.41
592.31	46209.20
592.46	46288.77
592.62	46370.69
592.78	46789.65
592.94	46499.42
593.10	46459.63
593.26	46754.54
593.41	46349.63
593.57	45970.46
593.73	46286.43
593.89	46469.00
594.05	46511.13
594.20	46246.65
594.36	46478.36
594.52	46061.74
594.68	46536.87
594.84	46195.15
594.99	46461.97
595.15	45984.51
595.31	46845.82
595.47	46342.61
595.62	46265.37
595.78	46021.95
595.94	46277.07
596.10	46939.44
596.25	46260.69
596.41	46309.84
596.57	46190.47
596.73	46368.35
596.88	46071.10
597.04	46663.26
597.20	46302.82
597.36	46391.76
597.51	46358.99
597.67	46586.02
597.83	46017.27
597.99	46466.66
598.14	46880.93
598.30	46220.90
598.46	46356.65
598.61	46522.83
598.77	46227.92
598.93	46312.18
599.09	46183.45
599.24	46337.93
599.40	46569.64
599.56	46574.32
599.71	46094.51
599.87	46883.27
600.03	46267.71
600.18	46471.34
600.34	46452.61
600.50	46181.11
600.65	45935.35
600.81	46206.86
600.97	47030.72
601.12	46681.98
601.28	46380.06
601.44	46302.82
601.59	46092.17
601.75	46230.26
601.91	45736.41
602.06	46251.33
602.22	46127.28
602.37	46326.22
602.53	46492.40
602.69	46120.26
602.84	46349.63
603.00	46057.06
603.16	46370.69
603.31	46007.91
603.47	46274.73
603.62	46227.92
603.78	46298.14
603.94	46504.10
604.09	46134.30
604.25	46408.14
604.40	45895.56
604.56	46213.88
604.71	46504.10
604.87	46099.19
605.03	46356.65
605.18	45773.86
605.34	46171.75
605.49	45979.82
605.65	46777.95
605.80	46471.34
605.96	46321.54
606.12	45949.40
606.27	46216.22
606.43	46244.30
606.58	46473.68
606.74	46087.49
606.89	45752.79
607.05	46033.66
607.20	46272.39
607.36	45947.06
607.51	46277.07
607.67	46571.98
607.82	46054.72
607.98	46220.90
608.13	45691.94
608.29	46209.20
608.44	45736.41
608.60	45485.97
608.75	46300.48
608.91	46181.11
609.06	46028.98
609.22	45750.45
609.37	46155.36
609.53	45860.46
609.68	45883.86
609.84	45677.90
609.99	46003.23
610.15	45689.60
610.30	45771.52
610.46	45294.05
610.61	45425.12
610.76	45507.04
610.92	45460.23
611.07	45610.02
611.23	45511.72
611.38	45851.09
611.54	45558.53
611.69	45516.40
611.84	45277.66
612.00	45411.07
612.15	45394.69
612.31	45748.11
612.46	45422.78
612.62	45455.54
612.77	45621.72
612.92	45373.63
613.08	45579.59
613.23	45226.17
613.39	44938.29
613.54	45125.53
613.69	45191.06
613.85	44966.37
614.00	45326.81
614.15	45350.22
614.31	45305.75
614.46	45507.04
614.62	44809.56
614.77	45031.91
614.92	45338.52
615.08	45249.58
615.23	44652.74
615.38	45017.86
615.54	44985.10
615.69	44463.16
615.84	44891.48
616.00	44854.03
616.15	45125.53
616.30	44964.03
616.46	44479.54
616.61	44968.71
616.76	44692.53
616.92	44512.31
617.07	44769.77
617.22	44678.49
617.37	45045.95
617.53	45095.10
617.68	44783.81
617.83	44935.95
617.99	44589.55
618.14	44825.94
618.29	44126.12
618.45	44645.72
618.60	44091.01
618.75	43995.05
618.90	44301.66
619.06	44809.56
619.21	44285.28
619.36	44311.02
619.51	44488.90
619.67	44467.84
619.82	44491.24
619.97	44320.38
620.12	44208.04
620.28	44046.54
620.43	44306.34
620.58	44252.51
620.73	44273.57
620.89	44369.54
621.04	44025.48
621.19	44243.15
621.34	44383.58
621.49	44266.55
621.65	44315.70
621.80	44282.94
621.95	43777.38
622.10	44486.56
622.25	44037.18
622.41	44076.97
622.56	43791.42
622.71	43978.67
622.86	43552.69
623.01	43676.74
623.16	43761.00
623.32	43786.74
623.47	43704.82
623.62	43597.16
623.77	43468.43
623.92	43793.76
624.07	43683.76
624.23	43739.93
624.38	42934.79
624.53	43112.67
624.68	43580.78
624.83	43562.05
624.98	43510.56
625.13	42995.64
625.29	43384.17
625.44	43187.56
625.59	43262.46
625.74	43030.75
625.89	43037.77
626.04	43274.16
626.19	43461.41
626.34	43323.32
626.49	43246.08
626.65	43206.29
626.80	43203.95
626.95	43124.37
627.10	43143.09
627.25	42611.79
627.40	42691.37
627.55	42644.56
627.70	42806.06
627.85	42649.24
628.00	42560.30
628.15	43140.75
628.30	42939.47
628.45	42902.02
628.60	42831.80
628.76	42703.07
628.91	42752.23
629.06	42719.46
629.21	42443.27
629.36	42447.96
629.51	42169.43
629.66	42312.20
629.81	42604.77
629.96	42148.37
630.11	42094.53
630.26	42663.28
630.41	42148.37
630.56	42520.51
630.71	42749.88
630.86	42689.03
631.01	42272.42
631.16	42127.30
631.31	41794.95
631.46	41841.76
631.61	41883.89
631.76	42033.68
631.91	42000.91
632.06	42136.66
632.21	41890.91
632.36	42031.34
632.51	41495.36
632.66	41818.35
632.81	41890.91
632.96	42082.83
633.10	41715.37
633.25	42085.17
633.40	42146.03
633.55	42181.13
633.70	41804.31
633.85	41610.04
634.00	41596.00
634.15	41977.51
634.30	41207.47
634.45	41265.99
634.60	41804.31
634.75	41336.20
634.90	41184.07
635.05	41830.05
635.19	41383.01
635.34	41621.75
635.49	41605.36
635.64	41401.74
635.79	41050.66
635.94	41195.77
636.09	40942.99
636.24	40781.49
636.39	41153.64
636.53	41120.87
636.68	40830.65
636.83	40884.48
636.98	41329.18
637.13	41322.16
637.28	41640.47
637.43	41172.36
637.57	41144.28
637.72	40982.78
637.87	40971.08
638.02	41219.17
638.17	40863.41
638.32	40800.22
638.46	41109.17
638.61	40678.51
638.76	40430.41
638.91	40680.85
639.06	40800.22
639.20	41148.96
639.35	40837.67
639.50	40683.19
639.65	40835.33
639.80	40767.45
639.94	40524.04
640.09	40416.37
640.24	40671.49
640.39	40439.78
640.54	40458.50
640.68	40886.82
640.83	40620.00
640.98	40168.27
641.13	40201.04
641.27	40301.68
641.42	40392.97
641.57	40652.76
641.72	40318.07
641.86	40133.17
642.01	39981.03
642.16	40102.74
642.31	39981.03
642.45	40100.40
642.60	40053.59
642.75	40060.61
642.90	40243.17
643.04	40182.32
643.19	40257.21
643.34	39810.17
643.48	40112.10
643.63	40009.12
643.78	39782.09
643.93	40479.57
644.07	39711.87
644.22	40318.07
644.37	39828.90
644.51	39721.23
644.66	39526.97
644.81	39838.26
644.95	40224.45
645.10	39686.12
645.25	39302.28
645.39	39871.03
645.54	39803.15
645.69	39143.12
645.83	39192.27
645.98	39646.33
646.13	39613.57
646.27	39438.03
646.42	39339.72
646.57	39278.87
646.71	39232.06
646.86	39655.70
647.00	39316.32
647.15	39232.06
647.30	39337.38
647.44	39297.59
647.59	39377.17
647.74	39304.62
647.88	39234.40
648.03	39023.75
648.17	39110.35
648.32	38888.00
648.47	39068.22
648.61	38752.25
648.76	39075.24
648.90	39054.18
649.05	38799.06
649.20	38780.34
649.34	39028.43
649.49	38815.44
649.63	38604.80
649.78	39316.32
649.92	38712.46
650.07	38939.49
650.21	38930.13
650.36	38974.60
650.51	38707.78
650.65	39122.05
650.80	39100.99
650.94	39248.44
651.09	38387.13
651.23	38218.61
651.38	38511.17
651.52	37771.57
651.67	38220.95
651.81	38532.24
651.96	38513.52
652.10	38611.82
652.25	38527.56
652.39	38557.99
652.54	38281.80
652.68	38539.26
652.83	38387.13
652.97	38459.68
653.12	38249.03
653.26	38256.06
653.41	38153.07
653.55	38562.67
653.70	38031.36
653.84	38202.22
653.99	37989.24
654.13	37907.32
654.27	37970.51
654.42	38263.08
654.56	37961.15
654.71	38480.75
654.85	37998.60
655.00	38412.87
655.14	37930.72
655.29	37413.46
655.43	37589.00
655.57	37301.12
655.72	37455.59
655.86	36999.19
656.01	37113.87
656.15	36708.96
656.30	37460.27
656.44	37638.15
656.58	37764.54
656.73	37715.39
656.87	36959.40
657.01	37406.44
657.16	37090.47
657.30	36765.14
657.45	37205.16
657.59	36615.34
657.73	37200.47
657.88	37890.93
658.02	37076.43
658.16	37509.43
658.31	37361.97
658.45	37343.25
658.60	36978.12
658.74	37605.39
658.88	37266.01
659.03	36830.67
659.17	36762.79
659.31	36886.84
659.46	36503.00
659.60	36613.00
659.74	36971.10
659.89	36374.27
660.03	36610.66
660.17	36931.31
660.32	36282.98
660.46	36622.36
660.60	36631.72
660.74	36589.59
660.89	36203.41
661.03	36512.36
661.17	36280.64
661.32	36135.53
661.46	36411.71
661.60	35957.65
661.74	36268.94
661.89	36299.37
662.03	36369.58
662.17	36088.72
662.31	36172.98
662.46	36233.83
662.60	36137.87
662.74	36446.82
662.88	35812.54
663.03	35735.30
663.17	35800.83
663.31	35468.48
663.45	35765.73
663.60	35524.65
663.74	34948.88
663.88	35126.76
664.02	34871.64
664.17	35409.96
664.31	35108.04
664.45	35503.59
664.59	35311.66
664.73	35416.99
664.88	35140.80
665.02	34668.02
665.16	34771.00
665.30	34756.96
665.44	34602.48
665.59	34298.21
665.73	34796.74
665.87	34684.40
666.01	34394.17
666.15	34733.55
666.29	34642.27
666.44	34490.13
666.58	34841.21
666.72	34380.13
666.86	34368.43
667.00	34462.05
667.14	34092.24
667.28	34195.23
667.43	33912.02
667.57	33874.57
667.71	34019.69
667.85	34129.69
667.99	34066.50
668.13	34040.75
668.27	34291.19
668.41	34117.99
668.56	33397.10
668.70	33460.30
668.84	33474.34
668.98	33156.03
669.12	33549.24
669.26	33923.72
669.40	32936.02
669.54	33357.32
669.68	33397.10
669.82	33427.53
669.96	32926.66
670.10	33350.29
670.25	33134.96
670.39	33434.55
670.53	32645.79
670.67	33050.70
670.81	32917.29
670.95	32706.65
671.09	33195.82
671.23	32746.44
671.37	32613.02
671.51	32486.64
671.65	32418.76
671.79	32182.37
671.93	31793.84
672.07	32463.23
672.21	32449.19
672.35	32456.21
672.49	32355.57
672.63	32140.24
672.77	31721.28
672.91	32060.66
673.05	31845.33
673.19	31978.74
673.33	31585.53
673.47	31328.07
673.61	31405.31
673.75	31323.39
673.89	31276.58
674.03	31531.70
674.17	30944.22
674.31	30960.61
674.45	31229.77
674.59	31531.70
674.73	31564.46
674.87	31063.59
675.01	31023.80
675.15	30611.87
675.29	30600.16
675.43	30991.03
675.56	30492.50
675.70	30628.25
675.84	30445.69
675.98	29387.77
676.12	30230.36
676.26	30480.80
676.40	30396.54
676.54	30469.09
676.68	30319.30
676.82	29916.73
676.96	29799.70
677.10	29930.77
677.23	29713.10
677.37	29233.29
677.51	29827.79
677.65	29181.80
677.79	28975.83
677.93	29022.64
678.07	28952.43
678.21	28877.53
678.34	28882.21
678.48	28821.36
678.62	28584.96
678.76	28313.46
678.90	28538.15
679.04	28418.78
679.18	28243.24
679.31	28355.59
679.45	27985.79
679.59	28013.87
679.73	28219.84
679.87	27878.12
680.00	28287.71
680.14	28084.09
680.28	27615.98
680.42	27377.25
680.56	27206.39
680.70	27054.25
680.83	27356.18
680.97	27407.67
681.11	27133.83
681.25	27484.91
681.39	26946.59
681.52	26867.01
681.66	26782.75
681.80	26707.85
681.94	26536.99
682.07	26707.85
682.21	26597.85
682.35	26647.00
682.49	26228.04
682.62	25993.99
682.76	26183.57
682.90	25933.14
683.04	26338.05
683.17	25853.56
683.31	25841.85
683.45	25984.63
683.59	25663.97
683.72	26026.76
683.86	25659.29
684.00	25219.27
684.13	25366.73
684.27	25338.64
684.41	24931.39
684.55	24793.29
684.68	24809.68
684.82	24926.71
684.96	24971.18
685.09	24592.01
685.23	24353.27
685.37	24821.38
685.50	24327.53
685.64	24400.08
685.78	24381.36
685.91	24168.37
686.05	24109.86
686.19	23894.53
686.32	24053.69
686.46	23531.75
686.60	23257.90
686.73	23037.89
686.87	23323.44
687.01	23335.14
687.14	22951.29
687.28	22939.59
687.42	22897.46
687.55	23030.87
687.69	22750.01
687.82	22766.39
687.96	22963.00
688.10	22520.63
688.23	22527.66
688.37	22675.11
688.50	22553.40
688.64	22518.29
688.78	22574.47
688.91	22288.92
689.05	22132.11
689.18	21645.27
689.32	21593.78
689.46	22141.47
689.59	22167.21
689.73	22202.32
689.86	21748.26
690.00	21617.19
690.13	21846.56
690.27	21394.84
690.41	21352.71
690.54	21001.63
690.68	21078.86
690.81	21345.69
690.95	21434.63
691.08	20903.32
691.22	21064.82
691.35	20908.01
691.49	20912.69
691.62	21039.08
691.76	20893.96
691.89	20666.93
692.03	20458.62
692.16	20673.95
692.30	20425.86
692.43	20428.20
692.57	19899.23
692.70	19889.87
692.84	19700.29
692.97	19723.69
693.11	19892.21
693.24	19714.33
693.38	19309.42
693.51	19672.20
693.65	19527.09
693.78	19499.00
693.92	19573.90
694.05	19208.78
694.19	19524.75
694.32	19295.38
694.45	19426.45
694.59	18930.25
694.72	18977.06
694.86	18775.78
694.99	18686.84
695.13	18862.38
695.26	18469.17
695.39	18532.36
695.53	18696.20
695.66	18452.78
695.80	18434.06
695.93	18265.54
696.07	18494.91
696.20	18295.97
696.33	18326.39
696.47	18178.94
696.60	17933.18
696.73	17743.60
696.87	17610.19
697.00	17860.63
697.14	17418.27
697.27	17472.10
697.40	17535.29
697.54	17415.93
697.67	17369.12
697.80	17130.38
697.94	16863.56
698.07	17179.53
698.21	17022.72
698.34	17039.10
698.47	17039.10
698.61	16505.46
698.74	16772.28
698.87	16985.27
699.01	16444.60
699.14	16578.01
699.27	16388.43
699.40	16439.92
699.54	16325.24
699.67	15964.79
699.80	15971.82
699.94	16156.72
700.07	15957.77
700.20	16030.33
700.34	15929.69
700.47	15807.98
700.60	16180.12
700.73	15737.76
700.87	15651.16
701.00	15990.54
701.13	15382.00
701.26	15475.62
701.40	15447.54
701.53	15241.57
701.66	15302.42
701.79	15218.16
701.93	14904.53
702.06	14843.68
702.19	14731.33
702.32	14836.66
702.46	15054.33
702.59	14916.23
702.72	14649.41
702.85	14633.03
702.99	14700.90
703.12	14436.42
703.25	14279.61
703.38	14312.38
703.51	14321.74
703.65	14164.92
703.78	14022.15
703.91	13841.93
704.04	13987.04
704.17	13738.94
704.31	14012.79
704.44	13760.01
704.57	13734.26
704.70	13628.94
704.83	13813.84
704.96	13769.37
705.10	13647.66
705.23	13355.10
>>>>>End Processed Spectral Data<<<<<
