SpectraSuite Data File
++++++++++++++++++++++++++++++++++++
Date: Fri Oct 25 11:34:34 EDT 2013
User: price-jones
Dark Spectrum Present: No
Reference Spectrum Present: No
Number of Sampled Component Spectra: 1
Spectrometers: USB2+H05261
Integration Time (usec): 100000 (USB2+H05261)
Spectra Averaged: 1 (USB2+H05261)
Boxcar Smoothing: 0 (USB2+H05261)
Correct for Electrical Dark: No (USB2+H05261)
Strobe/Lamp Enabled: No (USB2+H05261)
Correct for Detector Non-linearity: No (USB2+H05261)
Correct for Stray Light: No (USB2+H05261)
Number of Pixels in Processed Spectrum: 2048
>>>>>Begin Processed Spectral Data<<<<<
365.73	315.97
365.92	315.97
366.12	315.97
366.32	175.54
366.52	224.69
366.72	154.48
366.91	131.07
367.11	180.22
367.31	212.99
367.51	154.48
367.70	236.39
367.90	222.35
368.10	159.16
368.30	189.58
368.49	196.60
368.69	159.16
368.89	196.60
369.09	205.97
369.28	224.69
369.48	231.71
369.68	208.31
369.87	325.33
370.07	227.03
370.27	234.05
370.47	294.91
370.66	407.25
370.86	514.92
371.06	645.99
371.25	594.50
371.45	524.28
371.65	519.60
371.84	559.39
372.04	538.32
372.24	578.11
372.44	599.18
372.63	573.43
372.83	638.97
373.03	571.09
373.22	645.99
373.42	615.56
373.62	568.75
373.81	631.94
374.01	521.94
374.21	648.33
374.40	688.12
374.60	624.92
374.79	695.14
374.99	685.78
375.19	585.13
375.38	734.93
375.58	547.69
375.78	723.23
375.97	650.67
376.17	744.29
376.37	685.78
376.56	697.48
376.76	711.52
376.95	645.99
377.15	657.69
377.35	716.20
377.54	674.07
377.74	697.48
377.93	601.52
378.13	685.78
378.33	601.52
378.52	657.69
378.72	629.60
378.91	653.01
379.11	664.71
379.31	716.20
379.50	702.16
379.70	660.03
379.89	741.95
380.09	706.84
380.28	732.59
380.48	631.94
380.68	653.01
380.87	678.76
381.07	725.57
381.26	774.72
381.46	734.93
381.65	753.65
381.85	741.95
382.04	770.04
382.24	755.99
382.43	858.98
382.63	800.46
382.83	826.21
383.02	674.07
383.22	847.27
383.41	847.27
383.61	739.61
383.80	854.30
384.00	697.48
384.19	788.76
384.39	854.30
384.58	833.23
384.78	819.19
384.97	854.30
385.17	786.42
385.36	828.55
385.56	814.51
385.75	823.87
385.95	856.64
386.14	828.55
386.34	858.98
386.53	725.57
386.72	912.81
386.92	809.83
387.11	854.30
387.31	936.21
387.50	842.59
387.70	901.11
387.89	894.08
388.09	873.02
388.28	877.70
388.48	837.91
388.67	919.83
388.86	950.26
389.06	908.13
389.25	807.48
389.45	812.17
389.64	819.19
389.84	973.66
390.03	959.62
390.22	943.24
390.42	917.49
390.61	922.17
390.81	952.60
391.00	924.51
391.19	1027.50
391.39	964.30
391.58	973.66
391.78	1004.09
391.97	933.87
392.16	1008.77
392.36	1181.97
392.55	1074.31
392.75	1001.75
392.94	1027.50
393.13	1083.67
393.33	1060.26
393.52	1041.54
393.71	1057.92
393.91	1048.56
394.10	1011.11
394.29	1107.07
394.49	1032.18
394.68	1158.57
394.88	1135.16
395.07	1139.84
395.26	1116.44
395.46	1050.90
395.65	1121.12
395.84	1144.52
396.04	1151.54
396.23	1181.97
396.42	1046.22
396.62	1128.14
396.81	1219.42
397.00	1156.22
397.19	1081.33
397.39	1121.12
397.58	1118.78
397.77	1111.75
397.97	1093.03
398.16	1219.42
398.35	1289.64
398.55	1156.22
398.74	1280.27
398.93	1186.65
399.12	1238.14
399.32	1219.42
399.51	1247.51
399.70	1315.38
399.90	1369.21
400.09	1315.38
400.28	1327.08
400.47	1364.53
400.67	1441.77
400.86	1343.47
401.05	1310.70
401.24	1369.21
401.44	1380.92
401.63	1390.28
401.82	1352.83
402.01	1401.98
402.21	1486.24
402.40	1437.09
402.59	1397.30
402.78	1462.83
402.97	1355.17
403.17	1514.33
403.36	1554.12
403.55	1434.75
403.74	1561.14
403.93	1589.22
404.13	1479.22
404.32	1563.48
404.51	1528.37
404.70	1570.50
404.89	1547.09
405.09	1694.55
405.28	1614.97
405.47	1549.43
405.66	1593.90
405.85	1678.16
406.05	1699.23
406.24	1624.33
406.43	1727.32
406.62	1748.38
406.81	1792.85
407.00	1614.97
407.20	1605.61
407.39	1673.48
407.58	1818.60
407.77	1717.95
407.96	1827.96
408.15	1816.26
408.34	1778.81
408.54	1832.64
408.73	1729.66
408.92	1900.52
409.11	1820.94
409.30	1881.79
409.49	1975.41
409.68	1937.96
409.87	1977.75
410.07	1914.56
410.26	2040.95
410.45	2040.95
410.64	1907.54
410.83	2017.54
411.02	2003.50
411.21	2153.29
411.40	2069.03
411.59	2029.24
411.78	2026.90
411.98	2148.61
412.17	2246.91
412.36	2097.12
412.55	2190.74
412.74	2228.19
412.93	2237.55
413.12	2265.64
413.31	2319.47
413.50	2244.57
413.69	2345.22
413.88	2284.36
414.07	2403.73
414.26	2385.01
414.45	2380.32
414.64	2462.24
414.83	2338.20
415.02	2497.35
415.22	2392.03
415.41	2593.31
415.60	2562.89
415.79	2509.05
415.98	2708.00
416.17	2724.38
416.36	2588.63
416.55	2583.95
416.74	2747.79
416.93	2602.68
417.12	2708.00
417.31	2813.32
417.50	2691.62
417.69	2787.58
417.88	2743.11
418.07	2871.84
418.26	2881.20
418.45	2825.03
418.64	2892.90
418.83	2869.50
419.02	2967.80
419.21	2860.13
419.39	2923.33
419.58	3094.19
419.77	3007.59
419.96	2946.73
420.15	3066.10
420.34	2972.48
420.53	2986.52
420.72	3218.24
420.91	3035.67
421.10	3117.59
421.29	3162.06
421.48	3141.00
421.67	3087.17
421.86	3159.72
422.05	3251.00
422.24	3201.85
422.43	3253.34
422.61	3143.34
422.80	3323.56
422.99	3206.53
423.18	3094.19
423.37	3211.22
423.56	3169.09
423.75	3171.43
423.94	3192.49
424.13	3110.57
424.32	3171.43
424.50	3215.90
424.69	3370.37
424.88	3321.22
425.07	3187.81
425.26	3232.28
425.45	3178.45
425.64	3218.24
425.83	3286.11
426.01	3438.25
426.20	3323.56
426.39	3361.01
426.58	3346.97
426.77	3356.33
426.96	3414.84
427.15	3375.05
427.33	3389.10
427.52	3496.76
427.71	3449.95
427.90	3522.51
428.09	3372.71
428.28	3461.65
428.46	3431.23
428.65	3538.89
428.84	3634.85
429.03	3506.12
429.22	3541.23
429.40	3522.51
429.59	3590.38
429.78	3578.68
429.97	3405.48
430.16	3604.42
430.34	3602.08
430.53	3574.00
430.72	3765.92
430.91	3623.15
431.10	3796.35
431.28	3714.43
431.47	3784.65
431.66	3992.95
431.85	3803.37
432.03	3889.97
432.22	3826.78
432.41	3873.59
432.60	3805.71
432.79	3915.72
432.97	3906.35
433.16	4028.06
433.35	3964.87
433.54	3943.80
433.72	3894.65
433.91	4009.34
434.10	4058.49
434.28	3957.85
434.47	3988.27
434.66	4133.39
434.85	4107.64
435.03	4168.49
435.22	4105.30
435.41	4287.86
435.59	4208.28
435.78	4252.75
435.97	4128.70
436.16	4234.03
436.34	4175.52
436.53	4189.56
436.72	4395.53
436.90	4177.86
437.09	4372.12
437.28	4276.16
437.46	4198.92
437.65	4458.72
437.84	4395.53
438.02	4479.79
438.21	4470.42
438.40	4278.50
438.58	4447.02
438.77	4540.64
438.96	4533.62
439.14	4638.94
439.33	4681.07
439.52	4788.74
439.70	4758.31
439.89	4772.35
440.08	4844.91
440.26	4746.61
440.45	4634.26
440.63	4767.67
440.82	4952.57
441.01	4873.00
441.19	5004.07
441.38	4945.55
441.57	5048.54
441.75	5071.94
441.94	5146.84
442.12	5170.24
442.31	5137.48
442.50	5200.67
442.68	5076.62
442.87	5249.82
443.05	5362.17
443.24	5263.86
443.43	5210.03
443.61	5310.68
443.80	5481.53
443.98	5238.12
444.17	5088.32
444.35	5240.46
444.54	5343.44
444.73	5322.38
444.91	5439.40
445.10	5411.32
445.28	5348.12
445.47	5329.40
445.65	5596.22
445.84	5439.40
446.02	5336.42
446.21	5455.79
446.39	5343.44
446.58	5554.09
446.77	5432.38
446.95	5359.83
447.14	5451.11
447.32	5310.68
447.51	5568.13
447.69	5439.40
447.88	5486.22
448.06	5495.58
448.25	5561.11
448.43	5575.16
448.62	5418.34
448.80	5465.15
448.99	5394.93
449.17	5724.95
449.36	5561.11
449.54	5572.82
449.73	5710.91
449.91	5659.42
450.10	5727.29
450.28	5788.14
450.46	5888.79
450.65	5809.21
450.83	5846.66
451.02	5874.74
451.20	5968.37
451.39	5811.55
451.57	5891.13
451.76	5813.89
451.94	5841.98
452.13	5900.49
452.31	5921.56
452.49	5977.73
452.68	5968.37
452.86	5956.66
453.05	6160.29
453.23	6164.97
453.42	6190.72
453.60	5961.34
453.78	6197.74
453.97	6080.71
454.15	5935.60
454.34	6012.84
454.52	6223.48
454.70	6146.25
454.89	6183.70
455.07	6349.87
455.26	6321.79
455.44	6438.81
455.62	6424.77
455.81	6277.32
455.99	6462.22
456.17	6595.63
456.36	6462.22
456.54	6616.69
456.73	6518.39
456.91	6752.45
457.09	6534.78
457.28	6689.25
457.46	6626.06
457.64	6806.28
457.83	6927.99
458.01	6658.82
458.19	6909.26
458.38	6651.80
458.56	6707.98
458.74	6998.20
458.93	6984.16
459.11	6834.36
459.29	6787.55
459.48	7019.27
459.66	7045.01
459.84	6888.20
460.03	7148.00
460.21	6965.43
460.39	6923.30
460.57	6988.84
460.76	7070.76
460.94	7105.87
461.12	7089.48
461.31	7131.61
461.49	7199.49
461.67	7091.82
461.85	7454.61
462.04	7302.47
462.22	7709.72
462.40	7276.73
462.59	7325.88
462.77	7311.83
462.95	7494.40
463.13	7496.74
463.32	7426.52
463.50	7454.61
463.68	7510.78
463.86	7597.38
464.05	7529.50
464.23	7522.48
464.41	7602.06
464.59	7590.36
464.78	7548.23
464.96	7721.43
465.14	7620.78
465.32	7653.55
465.50	7775.26
465.69	7803.35
465.87	7726.11
466.05	7737.81
466.23	7698.02
466.41	7894.63
466.60	8074.85
466.78	7698.02
466.96	7793.98
467.14	7920.37
467.32	7864.20
467.51	7990.59
467.69	7981.23
467.87	7896.97
468.05	7903.99
468.23	7819.73
468.41	8058.46
468.60	8131.02
468.78	8131.02
468.96	7871.22
469.14	8121.66
469.32	8124.00
469.50	8138.04
469.69	8163.79
469.87	8381.46
470.05	8353.37
470.23	8215.28
470.41	8339.33
470.59	8381.46
470.77	8435.29
470.95	8454.02
471.14	8484.44
471.32	8311.24
471.50	8685.73
471.68	8390.82
471.86	8800.41
472.04	8695.09
472.22	8805.10
472.40	8711.47
472.58	8774.67
472.77	8917.44
472.95	8805.10
473.13	9364.48
473.31	8954.89
473.49	8919.78
473.67	8901.06
473.85	8931.48
474.03	9224.05
474.21	9291.93
474.39	9415.98
474.57	9308.31
474.75	9446.40
474.93	9413.63
475.12	9245.12
475.30	9731.95
475.48	9385.55
475.66	9495.55
475.84	9514.28
476.02	9722.59
476.20	9713.22
476.38	9783.44
476.56	10183.67
476.74	10036.22
476.92	9987.07
477.10	9891.10
477.28	10054.94
477.46	10164.95
477.64	10455.17
477.82	10396.66
478.00	10661.14
478.18	10530.07
478.36	10794.55
478.54	10775.83
478.72	10846.04
478.90	11061.37
479.08	11084.78
479.26	11044.99
479.44	10801.57
479.62	11124.57
479.80	11248.61
479.98	11379.68
480.16	11707.36
480.34	11630.12
480.52	11604.38
480.70	11543.52
480.88	11353.94
481.06	11826.73
481.24	11896.94
481.41	11981.20
481.59	12070.14
481.77	12245.68
481.95	12145.04
482.13	12318.24
482.31	12343.99
482.49	12510.16
482.67	12477.40
482.85	12898.69
483.03	12809.75
483.21	13249.77
483.39	13202.96
483.57	13034.44
483.74	13163.17
483.92	13329.35
484.10	13303.60
484.28	13729.58
484.46	13554.04
484.64	13898.10
484.82	13790.44
485.00	14001.08
485.18	14216.41
485.35	14459.83
485.53	14305.35
485.71	14328.76
485.89	14560.47
486.07	14614.30
486.25	14679.84
486.43	14904.53
486.61	14871.76
486.78	15110.50
486.96	15133.90
487.14	15475.62
487.32	15372.64
487.50	15599.67
487.68	15480.30
487.85	15545.84
488.03	15758.83
488.21	16058.42
488.39	15866.49
488.57	16210.55
488.75	16533.54
488.92	16570.99
489.10	16793.34
489.28	16835.47
489.46	16908.03
489.64	16676.32
489.81	17334.01
489.99	17111.66
490.17	17245.07
490.35	17404.22
490.53	17095.27
490.70	18010.42
490.88	17530.61
491.06	17865.31
491.24	17771.69
491.41	18387.25
491.59	18113.41
491.77	18127.45
491.95	18548.75
492.13	18618.96
492.30	18609.60
492.48	18831.95
492.66	18508.96
492.84	18789.82
493.01	19262.61
493.19	19084.73
493.37	19260.27
493.54	19302.40
493.72	19616.03
493.90	19658.16
494.08	19992.86
494.25	19704.97
494.43	20034.99
494.61	20236.27
494.79	20219.89
494.96	20386.07
495.14	20187.12
495.32	20308.83
495.49	20915.03
495.67	20805.02
495.85	20664.59
496.02	20992.26
496.20	21149.08
496.38	21294.19
496.55	21242.70
496.73	21752.94
496.91	21432.29
497.09	21958.91
497.26	21617.19
497.44	21788.05
497.62	21745.92
497.79	22054.87
497.97	22129.77
498.14	22391.91
498.32	22600.21
498.50	22452.76
498.67	22429.35
498.85	22455.10
499.03	22710.22
499.20	23080.02
499.38	23154.92
499.56	22897.46
499.73	23307.05
499.91	23183.01
500.08	23274.29
500.26	23201.73
500.44	23489.62
500.61	23325.78
500.79	23623.03
500.97	23611.32
501.14	23826.65
501.32	24011.56
501.49	24023.26
501.67	23793.89
501.84	24458.60
502.02	23899.21
502.20	23941.34
502.37	24245.61
502.55	24276.04
502.72	24704.35
502.90	24718.40
503.07	24437.53
503.25	24929.05
503.43	24638.82
503.60	25017.99
503.78	25364.39
503.95	25111.61
504.13	25144.38
504.30	25085.86
504.48	25317.57
504.65	25542.27
504.83	25462.69
505.01	25701.42
505.18	26022.08
505.36	25954.20
505.53	25738.87
505.71	26314.64
505.88	26176.55
506.06	25930.80
506.23	26190.59
506.41	26139.10
506.58	26363.79
506.76	25951.86
506.93	26663.38
507.11	26366.13
507.28	26878.71
507.46	26600.19
507.63	26696.15
507.81	27199.37
507.98	27005.10
508.16	26724.24
508.33	26941.91
508.50	27288.31
508.68	27082.34
508.85	27391.29
509.03	27473.21
509.20	27667.47
509.38	27882.80
509.55	27531.72
509.73	28006.85
509.90	27765.78
510.08	27686.20
510.25	28098.13
510.42	27892.16
510.60	28194.09
510.77	28250.27
510.95	28355.59
511.12	27983.44
511.30	28313.46
511.47	28371.97
511.64	28400.06
511.82	28519.43
511.99	28676.24
512.17	29010.94
512.34	28865.83
512.51	29083.50
512.69	29305.85
512.86	29249.67
513.04	29654.59
513.21	29041.37
513.38	29338.62
513.56	29617.14
513.73	29032.00
513.90	29399.47
514.08	29589.05
514.25	29593.73
514.43	30052.48
514.60	29685.01
514.77	30078.22
514.95	30085.25
515.12	30036.09
515.29	30115.67
515.47	30483.14
515.64	30148.44
515.81	30265.47
515.99	30466.75
516.16	30405.90
516.33	30555.69
516.51	30944.22
516.68	30749.96
516.85	30567.40
517.03	30962.95
517.20	31161.89
517.37	31232.11
517.54	31346.79
517.72	30871.67
517.89	31082.31
518.06	31271.90
518.24	31173.60
518.41	31145.51
518.58	31241.47
518.75	31063.59
518.93	31859.37
519.10	31512.97
519.27	31791.50
519.45	32051.30
519.62	32039.59
519.79	32027.89
519.96	31934.27
520.14	32444.51
520.31	32194.07
520.48	32273.65
520.65	32264.28
520.83	32395.35
521.00	32627.07
521.17	32783.88
521.34	32540.47
521.52	32854.10
521.69	32720.69
521.86	32404.72
522.03	33111.56
522.20	32961.76
522.38	33415.83
522.55	33500.09
522.72	33282.42
522.89	33179.43
523.07	33790.31
523.24	33357.32
523.41	33661.58
523.58	32907.93
523.75	33661.58
523.92	33523.49
524.10	33621.80
524.27	34103.95
524.44	34117.99
524.61	33783.29
524.78	34031.39
524.96	33923.72
525.13	34197.57
525.30	34651.63
525.47	34415.24
525.64	34223.31
525.81	34588.44
525.98	34941.86
526.16	34312.25
526.33	34132.03
526.50	34871.64
526.67	34775.68
526.84	34642.27
527.01	34548.65
527.18	34778.02
527.36	35325.71
527.53	34754.61
527.70	35360.81
527.87	35442.73
528.04	34991.01
528.21	35178.25
528.38	34944.20
528.55	35189.95
528.72	34962.92
528.89	35349.11
529.07	35426.35
529.24	35393.58
529.41	35847.64
529.58	35543.38
529.75	35424.01
529.92	36238.51
530.09	35735.30
530.26	35461.46
530.43	35901.48
530.60	35784.45
530.77	35889.77
530.94	35695.51
531.11	35988.08
531.28	36196.38
531.46	36198.73
531.63	36226.81
531.80	35887.43
531.97	36458.52
532.14	36208.09
532.31	36294.69
532.48	36643.43
532.65	36566.19
532.82	36723.01
532.99	36587.25
533.16	36587.25
533.33	36825.99
533.50	36715.98
533.67	36950.04
533.84	36706.62
534.01	36739.39
534.18	36732.37
534.35	37469.64
534.52	37163.03
534.69	37654.54
534.86	37184.09
535.03	37322.18
535.20	36797.90
535.37	37518.79
535.54	37818.38
535.71	37397.08
535.88	37275.37
536.05	37523.47
536.22	37996.26
536.38	37378.36
536.55	37553.90
536.72	37722.41
536.89	37907.32
537.06	37727.10
537.23	38059.45
537.40	37649.86
537.57	37806.67
537.74	37340.91
537.91	38300.53
538.08	37663.90
538.25	37860.51
538.42	38384.79
538.59	38284.14
538.75	37921.36
538.92	38581.39
539.09	38080.52
539.26	38436.28
539.43	38429.26
539.60	38403.51
539.77	38625.86
539.94	38782.68
540.11	38988.64
540.28	38412.87
540.44	38871.62
540.61	38742.89
540.78	38213.93
540.95	38827.15
541.12	38684.37
541.29	38848.21
541.46	39122.05
541.62	38916.09
541.79	39164.18
541.96	38838.85
542.13	38859.91
542.30	39229.72
542.47	39730.59
542.63	39487.18
542.80	39496.54
542.97	39817.19
543.14	39969.33
543.31	39475.48
543.48	39718.89
543.64	40048.91
543.81	40084.01
543.98	39969.33
544.15	39707.19
544.32	39679.10
544.48	40177.64
544.65	40261.90
544.82	40439.78
544.99	40081.67
545.16	40376.58
545.32	39756.34
545.49	40596.59
545.66	40884.48
545.83	40692.55
546.00	40657.45
546.16	40392.97
546.33	40863.41
546.50	40364.88
546.67	40751.07
546.83	40020.82
547.00	40685.53
547.17	40299.34
547.34	40627.02
547.50	41221.52
547.67	41170.02
547.84	40823.62
548.00	40769.79
548.17	41228.54
548.34	41263.64
548.51	41155.98
548.67	41385.35
548.84	41092.79
549.01	41151.30
549.18	40896.18
549.34	41481.31
549.51	41177.04
549.68	41303.43
549.84	41184.07
550.01	41387.69
550.18	40891.50
550.34	41486.00
550.51	41635.79
550.68	41689.62
550.84	41436.84
551.01	41764.52
551.18	41701.32
551.34	41261.30
551.51	41825.37
551.68	41656.85
551.84	41855.80
552.01	41926.02
552.18	41923.68
552.34	41755.16
552.51	41673.24
552.68	41642.81
552.84	42033.68
553.01	42127.30
553.18	41771.54
553.34	42230.29
553.51	41621.75
553.67	42188.16
553.84	42256.03
554.01	42057.09
554.17	41930.70
554.34	42852.87
554.51	42359.02
554.67	42628.18
554.84	42405.83
555.00	42066.45
555.17	42520.51
555.33	42777.97
555.50	42593.07
555.67	42564.98
555.83	42185.82
556.00	42920.74
556.16	42911.38
556.33	42958.19
556.50	42948.83
556.66	42930.11
556.83	42747.54
556.99	43292.89
557.16	42616.47
557.32	43119.69
557.49	43304.59
557.65	42923.08
557.82	42960.53
557.98	43005.00
558.15	42906.70
558.32	43147.78
558.48	42836.48
558.65	42546.26
558.81	42677.33
558.98	43033.09
559.14	42471.36
559.31	43168.84
559.47	42944.15
559.64	43082.24
559.80	43187.56
559.97	43402.89
560.13	42838.83
560.30	43405.23
560.46	43868.66
560.63	43227.35
560.79	43548.01
560.96	43306.93
561.12	43393.53
561.29	43281.19
561.45	43721.21
561.61	43232.04
561.78	43463.75
561.94	43985.69
562.11	43519.92
562.27	43318.64
562.44	43885.04
562.60	43126.71
562.77	43768.02
562.93	43402.89
563.10	44072.29
563.26	43964.62
563.42	43966.96
563.59	43709.50
563.75	43077.56
563.92	43782.06
564.08	44023.14
564.24	43800.79
564.41	43365.45
564.57	43981.01
564.74	43941.22
564.90	43683.76
565.07	43672.06
565.23	43934.20
565.39	44039.52
565.56	44414.01
565.72	43789.08
565.88	43894.41
566.05	44198.68
566.21	43854.62
566.38	43971.64
566.54	44252.51
566.70	44172.93
566.87	44252.51
567.03	43920.15
567.19	44465.50
567.36	44430.39
567.52	44083.99
567.68	44175.27
567.85	44210.38
568.01	44325.07
568.17	44224.42
568.34	44170.59
568.50	44519.33
568.66	43922.49
568.83	44194.00
568.99	44191.65
569.15	44294.64
569.32	43646.31
569.48	43828.87
569.64	44566.14
569.81	44098.03
569.97	44706.57
570.13	44706.57
570.30	44086.33
570.46	44114.42
570.62	44177.61
570.78	44610.61
570.95	44210.38
571.11	44617.63
571.27	44666.78
571.43	43995.05
571.60	44399.96
571.76	44278.25
571.92	44088.67
572.09	44378.90
572.25	44289.96
572.41	44802.53
572.57	44505.29
572.74	44952.33
572.90	44594.23
573.06	44751.04
573.22	44514.65
573.38	44933.60
573.55	44641.04
573.71	45090.42
573.87	44472.52
574.03	44741.68
574.20	44582.52
574.36	44996.80
574.52	44514.65
574.68	44545.08
574.84	45022.54
575.01	44832.96
575.17	44755.72
575.33	44619.97
575.49	44725.30
575.65	44690.19
575.82	44825.94
575.98	44418.69
576.14	45006.16
576.30	44446.77
576.46	44533.37
576.62	44582.52
576.79	44652.74
576.95	44439.75
577.11	44538.05
577.27	44612.95
577.43	44505.29
577.59	45153.62
577.75	44629.34
577.92	44500.61
578.08	45158.30
578.24	44912.54
578.40	44802.53
578.56	45230.85
578.72	45041.27
578.88	44858.71
579.04	45006.16
579.21	45139.57
579.37	44886.79
579.53	45045.95
579.69	45371.28
579.85	45038.93
580.01	45064.67
580.17	44493.58
580.33	44964.03
580.49	44765.09
580.65	45235.53
580.82	45102.12
580.98	44811.90
581.14	44453.79
581.30	44903.18
581.46	44591.89
581.62	44453.79
581.78	45067.02
581.94	45078.72
582.10	44926.58
582.26	44722.96
582.42	44755.72
582.58	45153.62
582.74	44556.78
582.90	45078.72
583.06	45305.75
583.22	44910.20
583.38	45249.58
583.54	44821.26
583.70	44971.05
583.86	45200.43
584.02	45141.91
584.18	45375.97
584.34	45331.50
584.50	45214.47
584.66	45251.92
584.82	45188.72
584.98	45390.01
585.14	45179.36
585.30	44940.63
585.46	45607.68
585.62	45001.48
585.78	45357.24
585.94	44727.64
586.10	44854.03
586.26	44907.86
586.42	45324.47
586.58	45193.40
586.74	45130.21
586.90	44945.31
587.06	45057.65
587.22	45336.18
587.38	45116.17
587.54	45361.92
587.70	45347.88
587.86	45191.06
588.02	45097.44
588.18	45137.23
588.34	45139.57
588.49	45003.82
588.65	44746.36
588.81	45139.57
588.97	45680.24
589.13	45315.11
589.29	45141.91
589.45	45790.24
589.61	45546.82
589.77	45083.40
589.93	45308.09
590.08	45167.66
590.24	45277.66
590.40	45612.36
590.56	45453.20
590.72	45806.62
590.88	45160.64
591.04	45029.57
591.20	45558.53
591.35	45813.65
591.51	46057.06
591.67	45687.26
591.83	46073.45
591.99	45949.40
592.15	45780.88
592.31	45715.34
592.46	45518.74
592.62	45642.79
592.78	45911.95
592.94	45942.38
593.10	45785.56
593.26	46045.36
593.41	45860.46
593.57	45628.74
593.73	46230.26
593.89	46085.15
594.05	46120.26
594.20	45549.17
594.36	45642.79
594.52	45734.07
594.68	46080.47
594.84	45823.01
594.99	46239.62
595.15	45869.82
595.31	45727.05
595.47	45881.52
595.62	45450.86
595.78	45762.15
595.94	46094.51
596.10	46272.39
596.25	45815.99
596.41	46160.05
596.57	45830.03
596.73	45869.82
596.88	45947.06
597.04	45675.55
597.20	46066.42
597.36	46087.49
597.51	45940.04
597.67	45298.73
597.83	45865.14
597.99	46014.93
598.14	45904.93
598.30	45841.73
598.46	45958.76
598.61	46153.02
598.77	46232.60
598.93	46230.26
599.09	46017.27
599.24	46143.66
599.40	45893.22
599.56	46206.86
599.71	46485.38
599.87	46408.14
600.03	46113.23
600.18	45759.81
600.34	45773.86
600.50	45755.13
600.65	45956.42
600.81	46223.24
600.97	46258.35
601.12	46157.70
601.28	45975.14
601.44	46335.59
601.59	45713.00
601.75	46036.00
601.91	46258.35
602.06	46206.86
602.22	46183.45
602.37	45684.92
602.53	46171.75
602.69	45916.63
602.84	45659.17
603.00	45848.75
603.16	45951.74
603.31	46160.05
603.47	45530.44
603.62	46005.57
603.78	46323.88
603.94	46021.95
604.09	45752.79
604.25	46120.26
604.40	45998.55
604.56	46045.36
604.71	46759.22
604.87	46017.27
605.03	45982.16
605.18	45893.22
605.34	46028.98
605.49	46141.32
605.65	45832.37
605.80	46347.29
605.96	45521.08
606.12	46087.49
606.27	46120.26
606.43	45603.00
606.58	46012.59
606.74	45876.84
606.89	45951.74
607.05	46466.66
607.20	46373.03
607.36	45904.93
607.51	46162.39
607.67	45675.55
607.82	45841.73
607.98	45495.33
608.13	45928.33
608.29	45762.15
608.44	45771.52
608.60	45790.24
608.75	45869.82
608.91	45502.35
609.06	45937.69
609.22	45925.99
609.37	45153.62
609.53	45862.80
609.68	46136.64
609.84	45628.74
609.99	46003.23
610.15	45923.65
610.30	45652.15
610.46	45516.40
610.61	45624.06
610.76	45640.45
610.92	45537.46
611.07	45368.94
611.23	45298.73
611.38	45485.97
611.54	45731.73
611.69	45371.28
611.84	45315.11
612.00	45315.11
612.15	45584.27
612.31	45696.62
612.46	45090.42
612.62	45436.82
612.77	45425.12
612.92	45933.01
613.08	45600.66
613.23	45418.10
613.39	45394.69
613.54	45322.13
613.69	45502.35
613.85	45280.00
614.00	45670.87
614.15	45343.20
614.31	45017.86
614.46	45160.64
614.62	44875.09
614.77	45284.68
614.92	45052.97
615.08	45153.62
615.23	45413.41
615.38	45404.05
615.54	45581.93
615.69	45368.94
615.84	45240.21
616.00	45308.09
616.15	45282.34
616.30	44793.17
616.46	44921.90
616.61	45228.51
616.76	45331.50
616.92	45104.46
617.07	44942.97
617.22	45120.85
617.37	44428.05
617.53	45200.43
617.68	44903.18
617.83	45242.56
617.99	45195.74
618.14	44872.75
618.29	44886.79
618.45	44680.83
618.60	44729.98
618.75	44809.56
618.90	44549.76
619.06	44919.56
619.21	44011.43
619.36	44982.76
619.51	44421.03
619.67	44521.67
619.82	44591.89
619.97	44858.71
620.12	44617.63
620.28	44428.05
620.43	44624.65
620.58	44554.44
620.73	44346.13
620.89	44870.41
621.04	45282.34
621.19	44409.32
621.34	44371.88
621.49	44608.27
621.65	44091.01
621.80	45064.67
621.95	44598.91
622.10	44467.84
622.25	44556.78
622.41	44367.20
622.56	44706.57
622.71	44409.32
622.86	44350.81
623.01	44266.55
623.16	44643.38
623.32	44210.38
623.47	44648.06
623.62	43981.01
623.77	44451.45
623.92	44453.79
624.07	44369.54
624.23	44208.04
624.38	44542.74
624.53	44502.95
624.68	43753.97
624.83	43863.98
624.98	44037.18
625.13	43943.56
625.29	43842.92
625.44	44203.36
625.59	44463.16
625.74	44168.25
625.89	43931.86
626.04	43924.83
626.19	43924.83
626.34	43697.80
626.49	43540.99
626.65	43468.43
626.80	43725.89
626.95	43718.87
627.10	43351.40
627.25	43540.99
627.40	43859.30
627.55	43723.55
627.70	43395.87
627.85	43370.13
628.00	43360.76
628.15	43643.97
628.30	43428.64
628.45	43187.56
628.60	42789.67
628.76	43447.36
628.91	42899.68
629.06	43159.48
629.21	43136.07
629.36	43105.65
629.51	43255.44
629.66	43503.54
629.81	43047.13
629.96	42916.06
630.11	42857.55
630.26	43271.82
630.41	43292.89
630.56	43107.99
630.71	43281.19
630.86	43257.78
631.01	42962.87
631.16	42572.00
631.31	42773.29
631.46	42822.44
631.61	42792.01
631.76	43044.79
631.91	43342.04
632.06	42993.30
632.21	43508.22
632.36	43150.12
632.51	42707.76
632.66	42855.21
632.81	42735.84
632.96	42841.17
633.10	42419.87
633.25	42691.37
633.40	42590.73
633.55	42927.77
633.70	42714.78
633.85	42260.71
634.00	42291.14
634.15	41851.12
634.30	42438.59
634.45	42398.80
634.60	42122.62
634.75	42534.56
634.90	42969.90
635.05	42555.62
635.19	42417.53
635.34	42845.85
635.49	42375.40
635.64	42281.78
635.79	42864.57
635.94	42183.48
636.09	42520.51
636.24	42445.62
636.39	42405.83
636.53	42192.84
636.68	42040.70
636.83	41684.94
636.98	42148.37
637.13	41825.37
637.28	42155.39
637.43	42157.73
637.57	42092.19
637.72	41682.60
637.87	42124.96
638.02	42122.62
638.17	41851.12
638.32	42148.37
638.46	41537.49
638.61	41677.92
638.76	41371.31
638.91	41591.32
639.06	41450.89
639.20	41254.28
639.35	41055.34
639.50	41242.58
639.65	41722.39
639.80	41689.62
639.94	41883.89
640.09	41811.33
640.24	41837.08
640.39	41228.54
640.54	41401.74
640.68	41296.41
640.83	41827.71
640.98	41462.59
641.13	41361.95
641.27	41591.32
641.42	41371.31
641.57	41277.69
641.72	41392.37
641.86	41249.60
642.01	40931.29
642.16	41270.67
642.31	40762.77
642.45	41247.26
642.60	40907.88
642.75	40926.61
642.90	40837.67
643.04	41219.17
643.19	41158.32
643.34	40737.02
643.48	40598.93
643.63	40879.80
643.78	40774.47
643.93	41350.24
644.07	41022.57
644.22	41249.60
644.37	41010.87
644.51	40652.76
644.66	41125.55
644.81	40842.35
644.95	40952.35
645.10	41184.07
645.25	40641.06
645.39	40369.56
645.54	40486.59
645.69	40428.07
645.83	40170.61
645.98	40158.91
646.13	40779.15
646.27	40629.36
646.42	40617.66
646.57	40783.83
646.71	41017.89
646.86	40603.61
647.00	40701.92
647.15	40381.26
647.30	40781.49
647.44	40397.65
647.59	40168.27
647.74	40119.12
647.88	40617.66
648.03	40758.09
648.17	40460.84
648.32	40320.41
648.47	40598.93
648.61	39955.29
648.76	39922.52
648.90	40041.88
649.05	40109.76
649.20	40198.70
649.34	40266.58
649.49	40037.20
649.63	40196.36
649.78	40500.63
649.92	40109.76
650.07	40495.95
650.21	40191.68
650.36	40215.08
650.51	40165.93
650.65	40142.53
650.80	39800.81
650.94	40060.61
651.09	40020.82
651.23	39491.86
651.38	39398.24
651.52	39669.74
651.67	39484.84
651.81	39541.01
651.96	39653.36
652.10	39503.56
652.25	39704.85
652.39	39800.81
652.54	39512.92
652.68	39274.19
652.83	39454.41
652.97	39679.10
653.12	39599.52
653.26	39297.59
653.41	39159.50
653.55	39428.66
653.70	39267.17
653.84	39739.96
653.99	39613.57
654.13	39662.72
654.27	39215.68
654.42	39182.91
654.56	39054.18
654.71	39236.74
654.85	39344.41
655.00	39241.42
655.14	39194.61
655.29	39683.78
655.43	39599.52
655.57	38899.70
655.72	38761.61
655.86	38773.31
656.01	38742.89
656.15	39007.37
656.30	38806.08
656.44	38937.15
656.58	38983.96
656.73	38979.28
656.87	38302.87
657.01	38230.31
657.16	39005.03
657.30	38682.03
657.45	38822.47
657.59	38450.32
657.73	38398.83
657.88	38721.82
658.02	38712.46
658.16	38859.91
658.31	38513.52
658.45	38478.41
658.60	38335.63
658.74	38387.13
658.88	38651.61
659.03	38501.81
659.17	37605.39
659.31	38281.80
659.46	38143.71
659.60	38670.33
659.74	38396.49
659.89	37935.40
660.03	37799.65
660.17	38176.48
660.32	38064.13
660.46	37530.49
660.60	37687.31
660.74	37603.05
660.89	37766.88
661.03	37383.04
661.17	37617.09
661.32	37497.72
661.46	37771.57
661.60	37074.09
661.74	37134.94
661.89	37584.32
662.03	37617.09
662.17	36980.46
662.31	37003.87
662.46	37490.70
662.60	37294.10
662.74	36467.89
662.88	36767.48
663.03	36631.72
663.17	36561.51
663.31	36650.45
663.45	36718.32
663.60	36961.74
663.74	37413.46
663.88	36741.73
664.02	36587.25
664.17	36961.74
664.31	36315.75
664.45	36229.15
664.59	36311.07
664.73	36629.38
664.88	36114.47
665.02	36201.07
665.16	36212.77
665.30	36463.21
665.44	35983.40
665.59	35857.01
665.73	35978.72
665.87	36093.40
666.01	36364.90
666.15	35969.35
666.29	35999.78
666.44	35861.69
666.58	36058.29
666.72	35569.12
666.86	35304.64
667.00	35634.66
667.14	35407.62
667.28	35445.07
667.43	35391.24
667.57	35747.00
667.71	35768.07
667.85	35693.17
667.99	35236.77
668.13	35157.19
668.27	34677.38
668.41	35042.50
668.56	34501.84
668.70	34326.30
668.84	34235.02
668.98	34628.23
669.12	34635.25
669.26	34766.32
669.40	34913.77
669.54	34834.19
669.68	34684.40
669.82	34635.25
669.96	33914.36
670.10	33710.74
670.25	33965.85
670.39	33701.37
670.53	34204.59
670.67	34167.14
670.81	34139.05
670.95	34146.08
671.09	34136.71
671.23	33872.23
671.37	34125.01
671.51	33893.30
671.65	33216.88
671.79	33467.32
671.93	33528.17
672.07	33626.48
672.21	33507.11
672.35	33015.60
672.49	33572.64
672.63	33291.78
672.77	33006.23
672.91	32959.42
673.05	32484.30
673.19	32563.87
673.33	32823.67
673.47	32833.04
673.61	32458.55
673.75	32210.45
673.89	32435.14
674.03	32453.87
674.17	32217.47
674.31	31850.01
674.45	32294.71
674.59	32067.68
674.73	32257.26
674.87	31882.78
675.01	31538.72
675.15	31592.55
675.29	31625.32
675.43	31218.07
675.56	31604.25
675.70	31505.95
675.84	31686.17
675.98	30637.61
676.12	31473.18
676.26	31445.10
676.40	30682.08
676.54	31154.87
676.68	30546.33
676.82	30485.48
676.96	30792.09
677.10	30913.80
677.23	31072.95
677.37	30506.54
677.51	30670.38
677.65	30096.95
677.79	29970.56
677.93	30150.78
678.07	30155.46
678.21	29919.07
678.34	30003.33
678.48	29713.10
678.62	29617.14
678.76	29266.06
678.90	29207.55
679.04	29654.59
679.18	29731.83
679.31	29355.00
679.45	29441.60
679.59	29209.89
679.73	29261.38
679.87	28893.91
680.00	28933.70
680.14	28648.16
680.28	28718.37
680.42	28699.65
680.56	28751.14
680.70	28350.91
680.83	27854.72
680.97	27990.47
681.11	28123.88
681.25	27990.47
681.39	27955.36
681.52	27527.04
681.66	27660.45
681.80	27065.96
681.94	27047.23
682.07	26757.00
682.21	27267.24
682.35	26958.29
682.49	27026.17
682.62	26782.75
682.76	27234.47
682.90	27037.87
683.04	26836.58
683.17	26885.73
683.31	26508.91
683.45	26101.65
683.59	26422.31
683.72	26176.55
683.86	26052.50
684.00	26001.01
684.13	25818.45
684.27	25876.96
684.41	25750.57
684.55	25867.60
684.68	25722.49
684.82	25427.58
684.96	25462.69
685.09	25645.25
685.23	25303.53
685.37	25497.80
685.50	25818.45
685.64	25238.00
685.78	25027.35
685.91	24877.55
686.05	24592.01
686.19	24257.31
686.32	24687.97
686.46	24112.20
686.60	24107.52
686.73	24074.75
686.87	24278.38
687.01	24098.16
687.14	24247.95
687.28	23845.38
687.42	24116.88
687.55	23964.75
687.69	23688.56
687.82	23470.89
687.96	23449.83
688.10	23704.95
688.23	23592.60
688.37	23147.90
688.50	23641.75
688.64	23311.74
688.78	22883.42
688.91	23211.09
689.05	23009.81
689.18	22899.80
689.32	22434.03
689.46	22452.76
689.59	22457.44
689.73	22520.63
689.86	22888.10
690.00	22478.50
690.13	22312.33
690.27	22167.21
690.41	22377.86
690.54	22024.44
690.68	21745.92
690.81	21626.55
690.95	21378.45
691.08	21418.24
691.22	21441.65
691.35	21186.53
691.49	21605.49
691.62	21097.59
691.76	20798.00
691.89	20802.68
692.03	20765.23
692.16	20769.91
692.30	21062.48
692.43	21095.25
692.57	20280.74
692.70	20315.85
692.84	20119.24
692.97	20196.48
693.11	20100.52
693.24	19889.87
693.38	19772.85
693.51	19639.44
693.65	19690.93
693.78	19346.87
693.92	19534.11
694.05	19506.02
694.19	19564.54
694.32	19623.05
694.45	19515.39
694.59	19480.28
694.72	19449.85
694.86	19199.41
694.99	18911.53
695.13	18923.23
695.26	18773.44
695.39	18597.90
695.53	18728.97
695.66	18464.49
695.80	18352.14
695.93	18338.10
696.07	18218.73
696.20	18134.47
696.33	17827.86
696.47	18104.04
696.60	17767.01
696.73	17869.99
696.87	17792.75
697.00	18015.10
697.14	17575.08
697.27	17181.87
697.40	17350.39
697.54	17451.03
697.67	17406.56
697.80	17600.83
697.94	17336.35
698.07	16968.88
698.21	17074.21
698.34	16798.02
698.47	16716.11
698.61	16561.63
698.74	16713.77
698.87	16662.27
699.01	16313.53
699.14	16248.00
699.27	16716.11
699.40	16243.32
699.54	16273.74
699.67	15978.84
699.80	16063.10
699.94	15988.20
700.07	16084.16
700.20	16137.99
700.34	15819.68
700.47	15852.45
700.60	15875.85
700.73	15569.24
700.87	15637.12
701.00	15414.77
701.13	15176.03
701.26	15014.54
701.40	15140.93
701.53	15122.20
701.66	15026.24
701.79	15145.61
701.93	14635.37
702.06	14733.67
702.19	14473.87
702.32	14834.32
702.46	14672.82
702.59	14654.09
702.72	14581.54
702.85	14759.42
702.99	14597.92
703.12	14380.25
703.25	14295.99
703.38	14176.62
703.51	14153.22
703.65	13919.17
703.78	13841.93
703.91	13888.74
704.04	13708.52
704.17	13727.24
704.31	13799.80
704.44	13462.76
704.57	13617.24
704.70	13542.34
704.83	13322.33
704.96	13228.71
705.10	12975.93
705.23	13188.92
>>>>>End Processed Spectral Data<<<<<
