SpectraSuite Data File
++++++++++++++++++++++++++++++++++++
Date: Fri Oct 25 11:33:57 EDT 2013
User: price-jones
Dark Spectrum Present: No
Reference Spectrum Present: No
Number of Sampled Component Spectra: 1
Spectrometers: USB2+H05261
Integration Time (usec): 100000 (USB2+H05261)
Spectra Averaged: 1 (USB2+H05261)
Boxcar Smoothing: 0 (USB2+H05261)
Correct for Electrical Dark: No (USB2+H05261)
Strobe/Lamp Enabled: No (USB2+H05261)
Correct for Detector Non-linearity: No (USB2+H05261)
Correct for Stray Light: No (USB2+H05261)
Number of Pixels in Processed Spectrum: 2048
>>>>>Begin Processed Spectral Data<<<<<
365.73	248.10
365.92	248.10
366.12	248.10
366.32	196.60
366.52	184.90
366.72	224.69
366.91	119.37
367.11	163.84
367.31	133.41
367.51	198.95
367.70	147.45
367.90	175.54
368.10	182.56
368.30	175.54
368.49	126.39
368.69	156.82
368.89	175.54
369.09	182.56
369.28	255.12
369.48	168.52
369.68	266.82
369.87	266.82
370.07	238.73
370.27	252.78
370.47	327.68
370.66	437.68
370.86	447.04
371.06	545.34
371.25	496.19
371.45	566.41
371.65	559.39
371.84	573.43
372.04	545.34
372.24	617.90
372.44	566.41
372.63	641.31
372.83	627.26
373.03	564.07
373.22	561.73
373.42	578.11
373.62	524.28
373.81	664.71
374.01	688.12
374.21	655.35
374.40	695.14
374.60	688.12
374.79	695.14
374.99	645.99
375.19	636.63
375.38	711.52
375.58	667.05
375.78	685.78
375.97	636.63
376.17	744.29
376.37	692.80
376.56	746.63
376.76	695.14
376.95	678.76
377.15	772.38
377.35	695.14
377.54	692.80
377.74	585.13
377.93	716.20
378.13	702.16
378.33	690.46
378.52	678.76
378.72	732.59
378.91	650.67
379.11	645.99
379.31	683.44
379.50	587.47
379.70	695.14
379.89	702.16
380.09	706.84
380.28	662.37
380.48	711.52
380.68	713.86
380.87	727.91
381.07	734.93
381.26	800.46
381.46	723.23
381.65	833.23
381.85	741.95
382.04	744.29
382.24	807.48
382.43	753.65
382.63	826.21
382.83	755.99
383.02	748.97
383.22	807.48
383.41	863.66
383.61	833.23
383.80	877.70
384.00	844.93
384.19	875.36
384.39	866.00
384.58	877.70
384.78	793.44
384.97	828.55
385.17	795.78
385.36	784.08
385.56	849.61
385.75	861.32
385.95	828.55
386.14	896.43
386.34	800.46
386.53	873.02
386.72	758.33
386.92	840.25
387.11	858.98
387.31	844.93
387.50	957.28
387.70	933.87
387.89	877.70
388.09	952.60
388.28	933.87
388.48	863.66
388.67	896.43
388.86	861.32
389.06	933.87
389.25	999.41
389.45	999.41
389.64	870.68
389.84	1032.18
390.03	957.28
390.22	929.19
390.42	915.15
390.61	968.98
390.81	990.05
391.00	891.74
391.19	976.00
391.39	971.32
391.58	1057.92
391.78	980.68
391.97	940.90
392.16	1039.20
392.36	1057.92
392.55	1081.33
392.75	1015.79
392.94	1100.05
393.13	978.34
393.33	1149.20
393.52	1064.94
393.71	1057.92
393.91	1132.82
394.10	1034.52
394.29	1043.88
394.49	1057.92
394.68	1116.44
394.88	1130.48
395.07	1123.46
395.26	1172.61
395.46	1076.65
395.65	1205.38
395.84	1249.85
396.04	1146.86
396.23	1156.22
396.42	1214.74
396.62	1282.61
396.81	1172.61
397.00	1193.67
397.19	1181.97
397.39	1174.95
397.58	1284.95
397.77	1273.25
397.97	1249.85
398.16	1252.19
398.35	1256.87
398.55	1179.63
398.74	1306.02
398.93	1310.70
399.12	1296.66
399.32	1273.25
399.51	1291.98
399.70	1392.62
399.90	1362.19
400.09	1423.05
400.28	1434.75
400.47	1355.17
400.67	1359.85
400.86	1315.38
401.05	1423.05
401.24	1455.81
401.44	1409.00
401.63	1483.90
401.82	1430.07
402.01	1369.21
402.21	1547.09
402.40	1430.07
402.59	1558.80
402.78	1474.54
402.97	1504.96
403.17	1474.54
403.36	1483.90
403.55	1490.92
403.74	1699.23
403.93	1619.65
404.13	1575.18
404.32	1600.93
404.51	1664.12
404.70	1701.57
404.89	1537.73
405.09	1640.72
405.28	1678.16
405.47	1762.42
405.66	1685.19
405.85	1729.66
406.05	1722.63
406.24	1713.27
406.43	1788.17
406.62	1792.85
406.81	1797.53
407.00	1748.38
407.20	1776.47
407.39	1715.61
407.58	1818.60
407.77	1823.28
407.96	1858.39
408.15	1874.77
408.34	1874.77
408.54	1802.21
408.73	1879.45
408.92	1909.88
409.11	1977.75
409.30	2012.86
409.49	1996.48
409.68	1963.71
409.87	1966.05
410.07	2099.46
410.26	2071.37
410.45	1991.80
410.64	2073.71
410.83	2083.08
411.02	2050.31
411.21	2200.10
411.40	2120.53
411.59	2071.37
411.78	2153.29
411.98	2165.00
412.17	2179.04
412.36	2237.55
412.55	2359.26
412.74	2321.81
412.93	2321.81
413.12	2244.57
413.31	2333.51
413.50	2310.11
413.69	2417.77
413.88	2466.92
414.07	2466.92
414.26	2282.02
414.45	2534.80
414.64	2686.94
414.83	2499.69
415.02	2586.29
415.22	2621.40
415.41	2593.31
415.60	2677.57
415.79	2717.36
415.98	2829.71
416.17	2689.28
416.36	2675.23
416.55	2761.83
416.74	2815.66
416.93	2661.19
417.12	2764.17
417.31	2822.69
417.50	2895.24
417.69	2986.52
417.88	3009.93
418.07	2883.54
418.26	2930.35
418.45	2916.31
418.64	3096.53
418.83	3105.89
419.02	3023.97
419.21	3218.24
419.39	3119.93
419.58	2963.12
419.77	3042.70
419.96	3098.87
420.15	3220.58
420.34	3286.11
420.53	3180.79
420.72	3162.06
420.91	3194.83
421.10	3119.93
421.29	3236.96
421.48	3222.92
421.67	3269.73
421.86	3272.07
422.05	3283.77
422.24	3258.03
422.43	3403.14
422.61	3403.14
422.80	3564.64
422.99	3485.06
423.18	3314.20
423.37	3442.93
423.56	3396.12
423.75	3276.75
423.94	3332.92
424.13	3108.23
424.32	3112.91
424.50	3449.95
424.69	3396.12
424.88	3510.80
425.07	3445.27
425.26	3363.35
425.45	3375.05
425.64	3346.97
425.83	3452.29
426.01	3368.03
426.20	3513.14
426.39	3487.40
426.58	3454.63
426.77	3492.08
426.96	3496.76
427.15	3702.73
427.33	3578.68
427.52	3658.26
427.71	3597.40
427.90	3859.54
428.09	3609.11
428.28	3730.81
428.46	3620.81
428.65	3623.15
428.84	3716.77
429.03	3702.73
429.22	3595.06
429.40	3648.90
429.59	3885.29
429.78	3665.28
429.97	3700.39
430.16	3728.47
430.34	3775.28
430.53	3782.31
430.72	3854.86
430.91	3836.14
431.10	4025.72
431.28	3859.54
431.47	3950.82
431.66	4072.53
431.85	3854.86
432.03	3936.78
432.22	4063.17
432.41	4163.81
432.60	3948.48
432.79	4028.06
432.97	4168.49
433.16	4140.41
433.35	4147.43
433.54	4081.89
433.72	4255.09
433.91	4135.73
434.10	4152.11
434.28	4046.79
434.47	4021.04
434.66	4161.47
434.85	4257.43
435.03	4138.07
435.22	4315.95
435.41	4503.19
435.59	4435.32
435.78	4280.84
435.97	4329.99
436.16	4292.54
436.34	4400.21
436.53	4404.89
436.72	4528.94
436.90	4252.75
437.09	4409.57
437.28	4362.76
437.46	4491.49
437.65	4421.27
437.84	4505.53
438.02	4559.36
438.21	4561.70
438.40	4311.27
438.58	4851.93
438.77	4774.69
438.96	4664.69
439.14	4863.63
439.33	4770.01
439.52	4922.15
439.70	4842.57
439.89	5071.94
440.08	4985.34
440.26	4877.68
440.45	4795.76
440.63	5163.22
440.82	5177.26
441.01	4997.04
441.19	5146.84
441.38	5207.69
441.57	5165.56
441.75	5350.46
441.94	5359.83
442.12	5493.24
442.31	5406.64
442.50	5350.46
442.68	5474.51
442.87	5427.70
443.05	5509.62
443.24	5497.92
443.43	5528.35
443.61	5343.44
443.80	5678.14
443.98	5497.92
444.17	5324.72
444.35	5495.58
444.54	5577.50
444.73	5481.53
444.91	5610.26
445.10	5664.10
445.28	5734.31
445.47	5500.26
445.65	5753.04
445.84	5682.82
446.02	5731.97
446.21	5701.54
446.39	5687.50
446.58	5696.86
446.77	5584.52
446.95	5577.50
447.14	5767.08
447.32	5701.54
447.51	5607.92
447.69	5565.79
447.88	5675.80
448.06	5722.61
448.25	5736.65
448.43	5785.80
448.62	5621.97
448.80	5753.04
448.99	5799.85
449.17	5888.79
449.36	5731.97
449.54	6017.52
449.73	5797.51
449.91	5928.58
450.10	6069.01
450.28	6132.20
450.46	6073.69
450.65	5954.32
450.83	6160.29
451.02	6033.90
451.20	6164.97
451.39	6136.88
451.57	6087.73
451.76	6230.51
451.94	6246.89
452.13	6284.34
452.31	6282.00
452.49	6181.35
452.68	6328.81
452.86	6338.17
453.05	6321.79
453.23	6410.73
453.42	6394.34
453.60	6356.90
453.78	6333.49
453.97	6368.60
454.15	6370.94
454.34	6293.70
454.52	6457.54
454.70	6473.92
454.89	6518.39
455.07	6693.93
455.26	6420.09
455.44	6459.88
455.62	6574.56
455.81	6555.84
455.99	6656.48
456.17	6853.09
456.36	6738.40
456.54	6637.76
456.73	6860.11
456.91	7000.54
457.09	6876.49
457.28	7105.87
457.46	6958.41
457.64	7133.95
457.83	7236.94
458.01	6991.18
458.19	7138.63
458.38	7061.40
458.56	7098.84
458.74	7112.89
458.93	7155.02
459.11	7215.87
459.29	7199.49
459.48	7068.42
459.66	7236.94
459.84	7173.74
460.03	7269.70
460.21	7384.39
460.39	7433.54
460.57	7239.28
460.76	7185.44
460.94	7314.17
461.12	7370.35
461.31	7522.48
461.49	7510.78
461.67	7403.11
461.85	7534.18
462.04	7538.87
462.22	7801.01
462.40	7576.31
462.59	7676.96
462.77	7637.17
462.95	7894.63
463.13	7634.83
463.32	7648.87
463.50	7845.48
463.68	7885.26
463.86	7733.13
464.05	7761.22
464.23	7747.17
464.41	7976.55
464.59	7784.62
464.78	8116.98
464.96	7999.95
465.14	7796.32
465.32	8107.62
465.50	8021.02
465.69	8025.70
465.87	8018.68
466.05	8042.08
466.23	8093.57
466.41	7929.74
466.60	8133.36
466.78	7999.95
466.96	8086.55
467.14	8189.53
467.32	8224.64
467.51	8252.73
467.69	8243.37
467.87	8278.47
468.05	8226.98
468.23	8287.84
468.41	8301.88
468.60	8140.38
468.78	8465.72
468.96	8503.17
469.14	8631.90
469.32	8599.13
469.50	8283.16
469.69	8676.37
469.87	8727.86
470.05	8610.83
470.23	8535.93
470.41	8739.56
470.59	8678.71
470.77	8844.88
470.95	8791.05
471.14	9139.79
471.32	8643.60
471.50	9041.49
471.68	9109.36
471.86	9039.15
472.04	9053.19
472.22	9359.80
472.40	9050.85
472.58	9207.67
472.77	9240.44
472.95	9329.38
473.13	9661.73
473.31	9308.31
473.49	9308.31
473.67	9291.93
473.85	9467.47
474.03	9451.08
474.21	9635.99
474.39	9748.33
474.57	9898.13
474.75	9942.60
474.93	9977.70
475.12	9790.46
475.30	10012.81
475.48	9839.61
475.66	10038.56
475.84	10085.37
476.02	10099.41
476.20	10136.86
476.38	10111.11
476.56	10506.66
476.74	10572.20
476.92	10443.47
477.10	10356.87
477.28	10485.60
477.46	10539.43
477.64	10607.31
477.82	10693.91
478.00	11061.37
478.18	10949.03
478.36	11063.71
478.54	11159.67
478.72	11269.68
478.90	11485.01
479.08	11506.07
479.26	11428.84
479.44	11550.54
479.62	11566.93
479.80	11779.92
479.98	11878.22
480.16	12271.43
480.34	11953.12
480.52	12311.22
480.70	12180.15
480.88	11838.43
481.06	12140.36
481.24	12362.71
481.41	12627.19
481.59	12510.16
481.77	12655.28
481.95	12847.20
482.13	13018.06
482.31	12833.16
482.49	13219.35
482.67	13184.24
482.85	13104.66
483.03	13317.65
483.21	13671.07
483.39	13752.99
483.57	13757.67
483.74	13965.98
483.92	13844.27
484.10	13797.46
484.28	14092.37
484.46	14118.11
484.64	14448.13
484.82	14487.92
485.00	14696.22
485.18	14831.97
485.35	14864.74
485.53	14991.13
485.71	15075.39
485.89	15253.27
486.07	15552.86
486.25	15159.65
486.43	15279.02
486.61	15726.06
486.78	15662.86
486.96	15810.32
487.14	15955.43
487.32	16107.57
487.50	16205.87
487.68	16299.49
487.85	16322.90
488.03	16748.87
488.21	16940.80
488.39	16947.82
488.57	17104.64
488.75	17088.25
488.92	17221.66
489.10	17500.19
489.28	17563.38
489.46	17970.63
489.64	17741.26
489.81	18125.11
489.99	17963.61
490.17	18113.41
490.35	18476.19
490.53	18272.56
490.70	18586.19
490.88	17987.02
491.06	18633.00
491.24	18740.67
491.41	18759.39
491.59	19087.07
491.77	19208.78
491.95	19051.96
492.13	19440.49
492.30	19637.09
492.48	19403.04
492.66	19637.09
492.84	19651.14
493.01	20154.35
493.19	19786.89
493.37	20105.20
493.54	20156.69
493.72	20760.55
493.90	20451.60
494.08	20697.36
494.25	20814.38
494.43	20893.96
494.61	20879.92
494.79	21137.38
494.96	21207.59
495.14	21539.95
495.32	21678.04
495.49	21626.55
495.67	21619.53
495.85	21869.97
496.02	21916.78
496.20	21994.01
496.38	22380.20
496.55	22141.47
496.73	22785.12
496.91	22518.29
497.09	22544.04
497.26	22513.61
497.44	22651.70
497.62	23005.13
497.79	23119.81
497.97	23007.47
498.14	23515.36
498.32	23283.65
498.50	22953.63
498.67	23718.99
498.85	23321.10
499.03	24013.90
499.20	24011.56
499.38	23873.46
499.56	24114.54
499.73	23761.12
499.91	24276.04
500.08	24755.85
500.26	24121.56
500.44	24484.34
500.61	24753.51
500.79	24744.14
500.97	25006.28
501.14	25099.90
501.32	24947.77
501.49	25120.97
501.67	24952.45
501.84	25090.54
502.02	25525.88
502.20	25369.07
502.37	25422.90
502.55	25387.79
502.72	25710.78
502.90	25741.21
503.07	25645.25
503.25	25675.68
503.43	25682.70
503.60	26209.32
503.78	26111.02
503.95	25989.31
504.13	26501.89
504.30	26504.23
504.48	26373.16
504.65	26693.81
504.83	27129.15
505.01	26918.50
505.18	26731.26
505.36	27220.43
505.53	26911.48
505.71	27182.98
505.88	27206.39
506.06	26794.45
506.23	27459.16
506.41	27527.04
506.58	27398.31
506.76	27688.54
506.93	27924.93
507.11	27817.27
507.28	27697.90
507.46	28205.80
507.63	28369.63
507.81	28189.41
507.98	28100.47
508.16	27866.42
508.33	28465.60
508.50	28554.54
508.68	28631.77
508.85	28627.09
509.03	28561.56
509.20	28725.39
509.38	28989.88
509.55	29067.11
509.73	29029.66
509.90	29284.78
510.08	28884.55
510.25	29177.12
510.42	29656.93
510.60	29310.53
510.77	29813.74
510.95	29773.95
511.12	29507.13
511.30	29495.43
511.47	30000.99
511.64	30192.91
511.82	30263.13
511.99	30230.36
512.17	30202.27
512.34	30188.23
512.51	30396.54
512.69	30546.33
512.86	30492.50
513.04	30726.55
513.21	30656.34
513.38	30654.00
513.56	30862.30
513.73	30436.33
513.90	30820.17
514.08	31166.57
514.25	30960.61
514.43	31360.84
514.60	31606.59
514.77	31414.67
514.95	31662.77
515.12	31630.00
515.29	31559.78
515.47	31637.02
515.64	31510.63
515.81	31459.14
515.99	31845.33
516.16	32086.40
516.33	31730.64
516.51	32474.93
516.68	31751.71
516.85	32130.87
517.03	32369.61
517.20	32877.51
517.37	32149.60
517.54	32708.99
517.72	32936.02
517.89	32568.55
518.06	32402.38
518.24	32755.80
518.41	32818.99
518.58	32842.40
518.75	32814.31
518.93	33010.92
519.10	32943.04
519.27	33163.05
519.45	33436.89
519.62	33455.62
519.79	33584.35
519.96	33425.19
520.14	33378.38
520.31	33291.78
520.48	33631.16
520.65	33565.62
520.83	34038.41
521.00	34115.65
521.17	33984.58
521.34	34211.61
521.52	34485.45
521.69	34017.35
521.86	34684.40
522.03	34522.90
522.20	34274.80
522.38	34625.89
522.55	34796.74
522.72	34466.73
522.89	34511.20
523.07	34848.24
523.24	34937.18
523.41	34817.81
523.58	34998.03
523.75	35309.32
523.92	35194.64
524.10	35143.14
524.27	35154.85
524.44	35529.33
524.61	35728.28
524.78	35365.49
524.96	35798.49
525.13	35370.18
525.30	36109.78
525.47	35959.99
525.64	35749.34
525.81	36053.61
525.98	35999.78
526.16	36004.46
526.33	35962.33
526.50	35967.01
526.67	36189.36
526.84	36180.00
527.01	35725.94
527.18	36390.65
527.36	36603.64
527.53	36231.49
527.70	36947.70
527.87	36758.11
528.04	36280.64
528.21	36898.55
528.38	36407.03
528.55	36910.25
528.72	37148.98
528.89	37230.90
529.07	36666.83
529.24	36823.65
529.41	37258.99
529.58	37074.09
529.75	37347.93
529.92	37144.30
530.09	37198.13
530.26	37352.61
530.43	37443.89
530.60	37195.79
530.77	37156.00
530.94	37233.24
531.11	37560.92
531.28	37343.25
531.46	37429.85
531.63	38045.41
531.80	37708.37
531.97	38043.07
532.14	38106.26
532.31	38017.32
532.48	38141.37
532.65	38382.45
532.82	37862.85
532.99	38141.37
533.16	38146.05
533.33	38384.79
533.50	38440.96
533.67	38637.56
533.84	38405.85
534.01	38815.44
534.18	38607.14
534.35	39201.63
534.52	38724.16
534.69	39129.08
534.86	38941.83
535.03	38801.40
535.20	39267.17
535.37	38979.28
535.54	39632.29
535.71	39058.86
535.88	39269.51
536.05	39519.95
536.22	39505.90
536.38	39349.09
536.55	39318.66
536.72	39227.38
536.89	39323.34
537.06	39276.53
537.23	39590.16
537.40	39257.81
537.57	39384.19
537.74	39597.18
537.91	39732.93
538.08	39723.57
538.25	39337.38
538.42	39744.64
538.59	39913.16
538.75	39742.30
538.92	40069.97
539.09	40163.59
539.26	40044.23
539.43	39564.42
539.60	40109.76
539.77	40222.11
539.94	40620.00
540.11	40121.46
540.28	40561.48
540.44	40657.45
540.61	40612.98
540.78	40350.84
540.95	40383.60
541.12	40734.68
541.29	40390.62
541.46	40870.43
541.62	40102.74
541.79	40547.44
541.96	40645.74
542.13	40584.89
542.30	40517.01
542.47	40734.68
542.63	41270.67
542.80	40996.82
542.97	41045.97
543.14	41518.76
543.31	41486.00
543.48	41406.42
543.64	41722.39
543.81	41757.50
543.98	41621.75
544.15	41539.83
544.32	41963.46
544.48	41694.30
544.65	41750.48
544.82	41965.81
544.99	41514.08
545.16	42031.34
545.32	42150.71
545.49	42216.24
545.66	42682.01
545.83	42026.66
546.00	42440.93
546.16	42249.01
546.33	42066.45
546.50	42284.12
546.67	42569.66
546.83	41694.30
547.00	42106.24
547.17	42330.93
547.34	42646.90
547.50	42703.07
547.67	42869.25
547.84	42642.22
548.00	42539.24
548.17	42979.26
548.34	42731.16
548.51	43138.41
548.67	42639.88
548.84	42925.42
549.01	42560.30
549.18	42899.68
549.34	43196.93
549.51	42857.55
549.68	42965.21
549.84	42852.87
550.01	42913.72
550.18	42476.04
550.34	43180.54
550.51	43086.92
550.68	43746.95
550.84	42801.38
551.01	43370.13
551.18	43250.76
551.34	43330.34
551.51	43438.00
551.68	43318.64
551.84	43461.41
552.01	43812.49
552.18	43559.71
552.34	43119.69
552.51	43122.03
552.68	43627.59
552.84	43908.45
553.01	43845.26
553.18	43398.21
553.34	43749.29
553.51	44013.77
553.67	43629.93
553.84	44208.04
554.01	44142.50
554.17	43924.83
554.34	44179.95
554.51	43962.28
554.67	44311.02
554.84	44002.07
555.00	44304.00
555.17	44334.43
555.33	44683.17
555.50	44275.91
555.67	44161.23
555.83	44671.46
556.00	44212.72
556.16	44933.60
556.33	44605.93
556.50	44793.17
556.66	44261.87
556.83	44561.46
556.99	44615.29
557.16	44992.12
557.32	44870.41
557.49	44519.33
557.65	44589.55
557.82	44680.83
557.98	44673.81
558.15	44711.25
558.32	44556.78
558.48	44744.02
558.65	44650.40
558.81	44566.14
558.98	45144.25
559.14	44786.15
559.31	45123.19
559.47	45052.97
559.64	45083.40
559.80	45083.40
559.97	45270.64
560.13	44708.91
560.30	45013.18
560.46	45373.63
560.63	45207.45
560.79	45088.08
560.96	45415.76
561.12	45319.79
561.29	45490.65
561.45	45558.53
561.61	44954.67
561.78	45382.99
561.94	44926.58
562.11	45041.27
562.27	45310.43
562.44	45216.81
562.60	45528.10
562.77	45642.79
562.93	45434.48
563.10	45397.03
563.26	45270.64
563.42	45471.93
563.59	45263.62
563.75	45200.43
563.92	45722.37
564.08	45240.21
564.24	45291.71
564.41	45347.88
564.57	45610.02
564.74	45928.33
564.90	45420.44
565.07	45965.78
565.23	45469.59
565.39	45858.12
565.56	45677.90
565.72	45900.25
565.88	45991.53
566.05	45879.18
566.21	45823.01
566.38	46026.63
566.54	45996.21
566.70	45900.25
566.87	45752.79
567.03	46017.27
567.19	46146.00
567.36	45923.65
567.52	45888.54
567.68	46209.20
567.85	46094.51
568.01	45904.93
568.17	45794.92
568.34	46012.59
568.50	46071.10
568.66	45595.98
568.83	46164.73
568.99	45897.91
569.15	46054.72
569.32	46248.99
569.48	45773.86
569.64	46117.92
569.81	45858.12
569.97	46876.25
570.13	46223.24
570.30	46366.01
570.46	46389.42
570.62	46541.55
570.78	46492.40
570.95	45947.06
571.11	46707.73
571.27	46440.91
571.43	46377.72
571.60	46017.27
571.76	46417.50
571.92	46136.64
572.09	46424.53
572.25	46286.43
572.41	46178.77
572.57	46246.65
572.74	46438.57
572.90	46028.98
573.06	46586.02
573.22	46511.13
573.38	46571.98
573.55	46501.76
573.71	46731.14
573.87	46244.30
574.03	46712.41
574.20	46445.59
574.36	46415.16
574.52	46597.73
574.68	46614.11
574.84	46674.96
575.01	47019.02
575.17	46955.83
575.33	46728.80
575.49	46644.54
575.65	46813.05
575.82	46656.24
575.98	46274.73
576.14	46677.30
576.30	47189.88
576.46	46885.61
576.62	46520.49
576.79	46681.98
576.95	46513.47
577.11	46700.71
577.27	47098.60
577.43	46930.08
577.59	46480.70
577.75	46541.55
577.92	46447.93
578.08	46747.52
578.24	46195.15
578.40	46773.27
578.56	46754.54
578.72	46429.21
578.88	46571.98
579.04	47107.96
579.21	46614.11
579.37	46754.54
579.53	46878.59
579.69	46820.08
579.85	46536.87
580.01	46721.77
580.17	46485.38
580.33	46784.97
580.49	46674.96
580.65	46707.73
580.82	46571.98
580.98	46754.54
581.14	46349.63
581.30	46916.04
581.46	46784.97
581.62	46838.80
581.78	46277.07
581.94	46710.07
582.10	46749.86
582.26	46923.06
582.42	46637.51
582.58	46911.36
582.74	46852.84
582.90	46735.82
583.06	47159.45
583.22	46651.56
583.38	46787.31
583.54	46747.52
583.70	46944.12
583.86	47187.54
584.02	46777.95
584.18	47124.35
584.34	47096.26
584.50	47241.37
584.66	47009.66
584.82	47248.39
584.98	47150.09
585.14	47152.43
585.30	46808.37
585.46	47196.90
585.62	47051.79
585.78	46848.16
585.94	46880.93
586.10	46976.89
586.26	46878.59
586.42	46934.76
586.58	47175.84
586.74	46862.21
586.90	46756.88
587.06	47157.11
587.22	47091.58
587.38	46873.91
587.54	46887.95
587.70	47370.10
587.86	47152.43
588.02	47075.19
588.18	47377.12
588.34	46902.00
588.49	46696.03
588.65	46681.98
588.81	46965.19
588.97	47122.01
589.13	46885.61
589.29	47199.24
589.45	47349.04
589.61	47608.84
589.77	47070.51
589.93	47260.10
590.08	47208.61
590.24	47550.32
590.40	47475.43
590.56	47594.79
590.72	47533.94
590.88	47681.39
591.04	47267.12
591.20	47538.62
591.35	47365.42
591.51	47997.37
591.67	47311.59
591.83	47721.18
591.99	47746.93
592.15	47264.78
592.31	47416.91
592.46	47386.49
592.62	47114.98
592.78	47746.93
592.94	47840.55
593.10	47519.90
593.26	47440.32
593.41	47583.09
593.57	47842.89
593.73	47604.16
593.89	47775.02
594.05	47976.30
594.20	47587.77
594.36	47945.87
594.52	47962.26
594.68	47833.53
594.84	47344.36
594.99	48030.13
595.15	47737.57
595.31	47798.42
595.47	47751.61
595.62	47863.96
595.78	47922.47
595.94	47468.40
596.10	47922.47
596.25	47732.89
596.41	47990.34
596.57	47777.36
596.73	47739.91
596.88	47650.97
597.04	48009.07
597.20	47629.90
597.36	46997.96
597.51	47679.05
597.67	47384.15
597.83	47618.20
597.99	47777.36
598.14	47405.21
598.30	48041.84
598.46	47782.04
598.61	48292.27
598.77	48151.84
598.93	47854.59
599.09	47676.71
599.24	48320.36
599.40	47725.86
599.56	47962.26
599.71	48041.84
599.87	48098.01
600.03	47901.40
600.18	48369.51
600.34	47941.19
600.50	48053.54
600.65	47924.81
600.81	48406.96
600.97	47901.40
601.12	48037.16
601.28	47585.43
601.44	47648.63
601.59	47924.81
601.75	48013.75
601.91	48313.34
602.06	47835.87
602.22	48048.86
602.37	47360.74
602.53	48350.79
602.69	48360.15
602.84	47693.10
603.00	47526.92
603.16	47648.63
603.31	47901.40
603.47	48198.65
603.62	48177.59
603.78	48112.05
603.94	47892.04
604.09	47777.36
604.25	47641.60
604.40	47885.02
604.56	47999.71
604.71	48364.83
604.87	47997.37
605.03	47767.99
605.18	47828.85
605.34	48006.73
605.49	47739.91
605.65	47590.11
605.80	47810.12
605.96	47969.28
606.12	48016.09
606.27	48130.78
606.43	47728.20
606.58	48343.77
606.74	47798.42
606.89	47852.25
607.05	48090.99
607.20	47730.54
607.36	47452.02
607.51	47878.00
607.67	47529.26
607.82	47657.99
607.98	47838.21
608.13	47714.16
608.29	47878.00
608.44	47697.78
608.60	47346.70
608.75	47442.66
608.91	47667.35
609.06	47208.61
609.22	47828.85
609.37	47309.25
609.53	47763.31
609.68	47531.60
609.84	47697.78
609.99	47702.46
610.15	47545.64
610.30	47749.27
610.46	47327.97
610.61	47503.51
610.76	47459.04
610.92	47463.72
611.07	47276.48
611.23	47430.96
611.38	47367.76
611.54	47861.61
611.69	47618.20
611.84	47782.04
612.00	47665.01
612.15	47150.09
612.31	47615.86
612.46	47117.32
612.62	47023.70
612.77	47466.06
612.92	47379.46
613.08	47452.02
613.23	47496.49
613.39	47175.84
613.54	47103.28
613.69	47435.64
613.85	47288.18
614.00	47786.72
614.15	47360.74
614.31	47419.25
614.46	47075.19
614.62	47199.24
614.77	47618.20
614.92	47154.77
615.08	47239.03
615.23	47161.79
615.38	47767.99
615.54	46976.89
615.69	46946.47
615.84	47349.04
616.00	47281.16
616.15	47075.19
616.30	47164.14
616.46	47210.95
616.61	46799.01
616.76	47002.64
616.92	47021.36
617.07	47288.18
617.22	46611.77
617.37	46525.17
617.53	47026.04
617.68	46817.74
617.83	46667.94
617.99	47248.39
618.14	47452.02
618.29	47042.43
618.45	46513.47
618.60	46443.25
618.75	46864.55
618.90	46721.77
619.06	46672.62
619.21	46979.23
619.36	46602.41
619.51	46483.04
619.67	46202.18
619.82	46368.35
619.97	46597.73
620.12	46141.32
620.28	46548.57
620.43	46897.31
620.58	46492.40
620.73	46721.77
620.89	46916.04
621.04	46918.38
621.19	46660.92
621.34	46127.28
621.49	46246.65
621.65	46492.40
621.80	46894.97
621.95	46581.34
622.10	46349.63
622.25	46398.78
622.41	46323.88
622.56	46398.78
622.71	46185.79
622.86	46480.70
623.01	46450.27
623.16	46185.79
623.32	46270.05
623.47	46370.69
623.62	46305.16
623.77	46504.10
623.92	46288.77
624.07	46054.72
624.23	46471.34
624.38	46230.26
624.53	45748.11
624.68	45738.75
624.83	45783.22
624.98	45947.06
625.13	45844.07
625.29	45656.83
625.44	46337.93
625.59	45549.17
625.74	45860.46
625.89	45237.87
626.04	45579.59
626.19	45607.68
626.34	45235.53
626.49	45514.06
626.65	45380.65
626.80	45673.21
626.95	45230.85
627.10	45539.80
627.25	45731.73
627.40	45537.46
627.55	45504.70
627.70	45312.77
627.85	45762.15
628.00	45750.45
628.15	45207.45
628.30	45137.23
628.45	44414.01
628.60	44816.58
628.76	45354.90
628.91	45165.32
629.06	45029.57
629.21	45207.45
629.36	45195.74
629.51	45067.02
629.66	45240.21
629.81	45067.02
629.96	45378.31
630.11	44935.95
630.26	45017.86
630.41	45282.34
630.56	44914.88
630.71	45338.52
630.86	44900.84
631.01	44727.64
631.16	44509.97
631.31	44844.66
631.46	44615.29
631.61	44912.54
631.76	45277.66
631.91	44795.51
632.06	45289.37
632.21	44849.35
632.36	45265.96
632.51	44353.15
632.66	44704.23
632.81	44449.11
632.96	44928.92
633.10	44151.87
633.25	44863.39
633.40	44465.50
633.55	45048.29
633.70	44350.81
633.85	44664.44
634.00	43786.74
634.15	44308.68
634.30	44746.36
634.45	44100.37
634.60	44147.18
634.75	44421.03
634.90	44458.48
635.05	44542.74
635.19	44484.22
635.34	44299.32
635.49	44357.83
635.64	44140.16
635.79	44516.99
635.94	44208.04
636.09	44561.46
636.24	43988.03
636.39	44250.17
636.53	44364.85
636.68	44079.31
636.83	43749.29
636.98	44348.47
637.13	43606.52
637.28	43985.69
637.43	43950.58
637.57	43751.63
637.72	43669.72
637.87	43882.70
638.02	44203.36
638.17	43650.99
638.32	43744.61
638.46	43578.43
638.61	43194.59
638.76	43519.92
638.91	43351.40
639.06	43477.79
639.20	43248.42
639.35	43222.67
639.50	43168.84
639.65	43515.24
639.80	43697.80
639.94	44009.09
640.09	43433.32
640.24	43459.07
640.39	43440.34
640.54	43119.69
640.68	43648.65
640.83	43650.99
640.98	43342.04
641.13	43175.86
641.27	43700.14
641.42	42768.61
641.57	43246.08
641.72	43110.33
641.86	42953.51
642.01	42913.72
642.16	43185.22
642.31	42674.99
642.45	43115.01
642.60	42787.33
642.75	43337.36
642.90	42312.20
643.04	42796.70
643.19	42539.24
643.34	42249.01
643.48	42462.00
643.63	42827.12
643.78	42546.26
643.93	43115.01
644.07	42960.53
644.22	42820.10
644.37	42452.64
644.51	43318.64
644.66	42745.20
644.81	42827.12
644.95	42794.36
645.10	42731.16
645.25	42700.73
645.39	42181.13
645.54	42677.33
645.69	42101.56
645.83	42284.12
645.98	42244.33
646.13	42195.18
646.27	42124.96
646.42	42366.04
646.57	42279.44
646.71	42457.32
646.86	42674.99
647.00	42651.58
647.15	42279.44
647.30	42302.84
647.44	42244.33
647.59	42181.13
647.74	42178.79
647.88	42518.17
648.03	42646.90
648.17	42719.46
648.32	42384.76
648.47	42288.80
648.61	41677.92
648.76	41954.10
648.90	42169.43
649.05	42045.38
649.20	41867.50
649.34	42153.05
649.49	41881.55
649.63	41741.11
649.78	42029.00
649.92	42096.88
650.07	42426.89
650.21	42279.44
650.36	42525.19
650.51	41804.31
650.65	41837.08
650.80	41717.71
650.94	42059.43
651.09	41448.55
651.23	41343.22
651.38	41331.52
651.52	41380.67
651.67	41844.10
651.81	41263.64
651.96	41698.98
652.10	41579.62
652.25	41249.60
652.39	41132.57
652.54	41010.87
652.68	41401.74
652.83	41258.96
652.97	41617.07
653.12	41415.78
653.26	41237.90
653.41	41511.74
653.55	41153.64
653.70	41897.93
653.84	41336.20
653.99	41635.79
654.13	41280.03
654.27	41083.42
654.42	41214.49
654.56	40711.28
654.71	41017.89
654.85	41120.87
655.00	41160.66
655.14	40825.96
655.29	41504.72
655.43	41275.35
655.57	41212.15
655.72	40425.73
655.86	40835.33
656.01	40896.18
656.15	40760.43
656.30	40484.25
656.44	40687.87
656.58	40947.67
656.73	40734.68
656.87	40399.99
657.01	40538.08
657.16	40603.61
657.30	40669.15
657.45	40332.11
657.59	40259.55
657.73	40184.66
657.88	40327.43
658.02	40507.65
658.16	40851.71
658.31	40465.52
658.45	40301.68
658.60	40027.84
658.74	39936.56
658.88	40280.62
659.03	39995.07
659.17	39920.18
659.31	39880.39
659.46	39672.08
659.60	39859.32
659.74	39749.32
659.89	39438.03
660.03	39576.12
660.17	39917.84
660.32	39508.24
660.46	39660.38
660.60	39807.83
660.74	39941.24
660.89	39704.85
661.03	39313.98
661.17	39379.51
661.32	39005.03
661.46	39386.54
661.60	39419.30
661.74	39028.43
661.89	39227.38
662.03	39456.75
662.17	39016.73
662.31	39033.11
662.46	39210.99
662.60	38880.98
662.74	38555.64
662.88	38883.32
663.03	38424.57
663.17	38693.74
663.31	38506.49
663.45	38691.40
663.60	38937.15
663.74	38714.80
663.88	38710.12
664.02	38665.65
664.17	38572.03
664.31	38155.41
664.45	38328.61
664.59	38099.24
664.73	38024.34
664.88	38539.26
665.02	37598.37
665.16	37724.75
665.30	38167.12
665.44	38047.75
665.59	37567.94
665.73	37591.34
665.87	37240.26
666.01	37930.72
666.15	37895.61
666.29	37434.53
666.44	37993.92
666.58	37387.72
666.72	36807.26
666.86	37518.79
667.00	37130.26
667.14	37237.92
667.28	37577.30
667.43	37350.27
667.57	37841.78
667.71	37399.42
667.85	37490.70
667.99	37280.05
668.13	36666.83
668.27	36816.63
668.41	36928.97
668.56	36266.60
668.70	36512.36
668.84	36109.78
668.98	36123.83
669.12	37020.25
669.26	36416.40
669.40	36381.29
669.54	36334.48
669.68	36472.57
669.82	35957.65
669.96	36070.00
670.10	35690.83
670.25	36006.80
670.39	35803.17
670.53	35723.60
670.67	35566.78
670.81	36072.34
670.95	36002.12
671.09	35653.38
671.23	35330.39
671.37	35246.13
671.51	35510.61
671.65	35204.00
671.79	35440.39
671.93	35311.66
672.07	34958.24
672.21	35192.30
672.35	35199.32
672.49	35152.51
672.63	34733.55
672.77	34689.08
672.91	34623.54
673.05	34267.78
673.19	34340.34
673.33	34511.20
673.47	33989.26
673.61	34230.33
673.75	34075.86
673.89	34532.26
674.03	33663.93
674.17	33722.44
674.31	34059.48
674.45	33418.17
674.59	33436.89
674.73	33785.63
674.87	33556.26
675.01	33062.41
675.15	33230.93
675.29	33336.25
675.43	33170.07
675.56	33233.27
675.70	33160.71
675.84	32989.85
675.98	31637.02
676.12	32929.00
676.26	32905.59
676.40	32629.41
676.54	32776.86
676.68	32233.86
676.82	32086.40
676.96	32519.40
677.10	32215.13
677.23	32016.19
677.37	32510.04
677.51	32065.34
677.65	31573.83
677.79	31838.31
677.93	31824.26
678.07	31501.27
678.21	31517.65
678.34	31405.31
678.48	31049.55
678.62	31201.68
678.76	31061.25
678.90	31037.84
679.04	30944.22
679.18	31012.10
679.31	30824.86
679.45	30485.48
679.59	30401.22
679.73	30438.67
679.87	30258.45
680.00	30314.62
680.14	30293.55
680.28	29940.13
680.42	29991.62
680.56	29968.22
680.70	29582.03
680.83	29511.81
680.97	29535.22
681.11	29331.59
681.25	29160.73
681.39	29359.68
681.52	29181.80
681.66	28737.10
681.80	28580.28
681.94	28489.00
682.07	28261.97
682.21	28545.17
682.35	28093.45
682.49	28215.16
682.62	28713.69
682.76	28393.04
682.90	28254.95
683.04	28053.66
683.17	27882.80
683.31	28215.16
683.45	28041.96
683.59	27545.76
683.72	27522.36
683.86	27248.52
684.00	27440.44
684.13	27805.56
684.27	26817.86
684.41	27063.61
684.55	27140.85
684.68	26960.63
684.82	26726.58
684.96	26731.26
685.09	26424.65
685.23	26625.93
685.37	26600.19
685.50	26768.71
685.64	26766.37
685.78	26244.43
685.91	26176.55
686.05	26015.05
686.19	25750.57
686.32	25560.99
686.46	25315.23
686.60	25598.44
686.73	25610.14
686.87	25289.49
687.01	25626.53
687.14	25558.65
687.28	25097.56
687.42	24933.73
687.55	24627.12
687.69	24915.00
687.82	24659.88
687.96	24524.13
688.10	24685.63
688.23	24418.81
688.37	24671.59
688.50	24584.99
688.64	24147.31
688.78	24126.24
688.91	24421.15
689.05	23903.89
689.18	24030.28
689.32	23407.70
689.46	23356.21
689.59	23339.82
689.73	23747.08
689.86	23618.35
690.00	23571.54
690.13	23440.47
690.27	23047.26
690.41	22892.78
690.54	22649.36
690.68	22860.01
690.81	22843.63
690.95	22794.48
691.08	22340.41
691.22	22473.82
691.35	22462.12
691.49	22515.95
691.62	22228.07
691.76	21921.46
691.89	21998.70
692.03	21687.40
692.16	21860.60
692.30	21727.19
692.43	21413.56
692.57	21509.52
692.70	21488.46
692.84	21589.10
692.97	20968.86
693.11	20908.01
693.24	20898.64
693.38	20673.95
693.51	20776.94
693.65	20971.20
693.78	20776.94
693.92	20280.74
694.05	20421.17
694.19	20496.07
694.32	20542.88
694.45	20638.84
694.59	20676.29
694.72	20334.57
694.86	20446.92
694.99	20105.20
695.13	19946.05
695.26	19894.55
695.39	19524.75
695.53	19559.86
695.66	19494.32
695.80	19381.98
695.93	19309.42
696.07	19178.35
696.20	18803.86
696.33	18845.99
696.47	19082.39
696.60	18799.18
696.73	18633.00
696.87	18927.91
697.00	18616.62
697.14	18537.04
697.27	18211.71
697.40	18267.88
697.54	18417.68
697.67	18045.53
697.80	18214.05
697.94	18094.68
698.07	17893.40
698.21	17912.12
698.34	18333.42
698.47	17657.00
698.61	17448.69
698.74	17390.18
698.87	17195.92
699.01	17385.50
699.14	17338.69
699.27	17294.22
699.40	17076.55
699.54	17181.87
699.67	17125.70
699.80	17060.16
699.94	16704.40
700.07	16821.43
700.20	16669.30
700.34	16893.99
700.47	16723.13
700.60	16863.56
700.73	16423.54
700.87	16203.53
701.00	16152.04
701.13	15882.88
701.26	15873.51
701.40	16116.93
701.53	16074.80
701.66	15653.50
701.79	15742.44
701.93	15562.22
702.06	15428.81
702.19	15239.23
702.32	15522.43
702.46	15309.44
702.59	15438.17
702.72	15524.77
702.85	15508.39
702.99	15154.97
703.12	15094.11
703.25	14965.39
703.38	14951.34
703.51	14743.03
703.65	14654.09
703.78	14661.12
703.91	14258.54
704.04	14370.89
704.17	14413.02
704.31	14115.77
704.44	14113.43
704.57	14340.46
704.70	14061.94
704.83	13928.53
704.96	13860.65
705.10	13963.64
705.23	14115.77
>>>>>End Processed Spectral Data<<<<<
