SpectraSuite Data File
++++++++++++++++++++++++++++++++++++
Date: Fri Oct 25 10:47:10 EDT 2013
User: price-jones
Dark Spectrum Present: No
Reference Spectrum Present: No
Number of Sampled Component Spectra: 1
Spectrometers: USB2+H05261
Integration Time (usec): 100000 (USB2+H05261)
Spectra Averaged: 1 (USB2+H05261)
Boxcar Smoothing: 0 (USB2+H05261)
Correct for Electrical Dark: No (USB2+H05261)
Strobe/Lamp Enabled: No (USB2+H05261)
Correct for Detector Non-linearity: No (USB2+H05261)
Correct for Stray Light: No (USB2+H05261)
Number of Pixels in Processed Spectrum: 2048
>>>>>Begin Processed Spectral Data<<<<<
365.73	133.41
365.92	133.41
366.12	133.41
366.32	25.75
366.52	42.13
366.72	74.90
366.91	56.17
367.11	35.11
367.31	46.81
367.51	35.11
367.70	7.02
367.90	44.47
368.10	51.49
368.30	84.26
368.49	0.00
368.69	100.64
368.89	0.00
369.09	114.69
369.28	121.71
369.48	74.90
369.68	53.83
369.87	63.19
370.07	140.43
370.27	81.92
370.47	173.20
370.66	264.48
370.86	416.62
371.06	503.22
371.25	468.11
371.45	510.24
371.65	444.70
371.84	435.34
372.04	491.51
372.24	442.36
372.44	456.40
372.63	411.93
372.83	524.28
373.03	477.47
373.22	442.36
373.42	578.11
373.62	449.38
373.81	535.98
374.01	498.53
374.21	610.88
374.40	526.62
374.60	524.28
374.79	559.39
374.99	554.71
375.19	526.62
375.38	554.71
375.58	517.26
375.78	608.54
375.97	535.98
376.17	624.92
376.37	587.47
376.56	517.26
376.76	594.50
376.95	671.73
377.15	582.79
377.35	601.52
377.54	617.90
377.74	627.26
377.93	589.82
378.13	580.45
378.33	660.03
378.52	674.07
378.72	624.92
378.91	657.69
379.11	587.47
379.31	566.41
379.50	653.01
379.70	650.67
379.89	692.80
380.09	690.46
380.28	660.03
380.48	734.93
380.68	681.10
380.87	615.56
381.07	662.37
381.26	667.05
381.46	695.14
381.65	713.86
381.85	676.41
382.04	676.41
382.24	650.67
382.43	662.37
382.63	667.05
382.83	664.71
383.02	734.93
383.22	678.76
383.41	678.76
383.61	685.78
383.80	748.97
384.00	723.23
384.19	748.97
384.39	688.12
384.58	725.57
384.78	671.73
384.97	709.18
385.17	753.65
385.36	725.57
385.56	784.08
385.75	798.12
385.95	791.10
386.14	767.70
386.34	814.51
386.53	704.50
386.72	767.70
386.92	844.93
387.11	826.21
387.31	816.85
387.50	767.70
387.70	770.04
387.89	819.19
388.09	795.78
388.28	812.17
388.48	777.06
388.67	891.74
388.86	830.89
389.06	842.59
389.25	912.81
389.45	870.68
389.64	870.68
389.84	943.24
390.03	844.93
390.22	957.28
390.42	968.98
390.61	917.49
390.81	795.78
391.00	896.43
391.19	910.47
391.39	905.79
391.58	1011.11
391.78	961.96
391.97	994.73
392.16	873.02
392.36	947.92
392.55	940.90
392.75	919.83
392.94	952.60
393.13	947.92
393.33	961.96
393.52	1015.79
393.71	1036.86
393.91	992.39
394.10	987.71
394.29	1076.65
394.49	1067.28
394.68	1060.26
394.88	1076.65
395.07	1095.37
395.26	1107.07
395.46	1069.62
395.65	1057.92
395.84	1163.25
396.04	1165.59
396.23	1167.93
396.42	1114.10
396.62	1078.99
396.81	1078.99
397.00	1055.58
397.19	1203.04
397.39	1205.38
397.58	1217.08
397.77	1224.10
397.97	1242.82
398.16	1198.35
398.35	1205.38
398.55	1315.38
398.74	1301.34
398.93	1320.06
399.12	1343.47
399.32	1165.59
399.51	1329.42
399.70	1383.26
399.90	1383.26
400.09	1387.94
400.28	1448.79
400.47	1427.73
400.67	1404.32
400.86	1451.13
401.05	1366.87
401.24	1409.00
401.44	1465.18
401.63	1474.54
401.82	1441.77
402.01	1465.18
402.21	1432.41
402.40	1434.75
402.59	1629.01
402.78	1523.69
402.97	1430.07
403.17	1530.71
403.36	1570.50
403.55	1568.16
403.74	1603.27
403.93	1563.48
404.13	1556.46
404.32	1600.93
404.51	1537.73
404.70	1617.31
404.89	1619.65
405.09	1689.87
405.28	1689.87
405.47	1643.06
405.66	1724.97
405.85	1692.21
406.05	1703.91
406.24	1722.63
406.43	1713.27
406.62	1778.81
406.81	1839.66
407.00	1823.28
407.20	1874.77
407.39	1813.92
407.58	1797.53
407.77	1799.87
407.96	1930.94
408.15	1952.01
408.34	1895.83
408.54	1987.11
408.73	2022.22
408.92	1935.62
409.11	1963.71
409.30	1956.69
409.49	1977.75
409.68	1902.86
409.87	2076.06
410.07	2146.27
410.26	1996.48
410.45	2003.50
410.64	1994.14
410.83	2174.36
411.02	2148.61
411.21	2289.04
411.40	2256.28
411.59	2296.07
411.78	2265.64
411.98	2314.79
412.17	2230.53
412.36	2300.75
412.55	2326.49
412.74	2326.49
412.93	2352.24
413.12	2298.41
413.31	2541.82
413.50	2455.22
413.69	2417.77
413.88	2541.82
414.07	2480.97
414.26	2509.05
414.45	2537.14
414.64	2499.69
414.83	2567.57
415.02	2619.06
415.22	2801.62
415.41	2818.00
415.60	2731.41
415.79	2747.79
415.98	2815.66
416.17	2738.43
416.36	2768.85
416.55	2752.47
416.74	2778.22
416.93	2813.32
417.12	2864.82
417.31	2789.92
417.50	2888.22
417.69	2913.97
417.88	3068.44
418.07	3049.72
418.26	3012.27
418.45	2949.08
418.64	3075.46
418.83	3033.33
419.02	3080.14
419.21	3112.91
419.39	3110.57
419.58	3030.99
419.77	3066.10
419.96	3297.81
420.15	3349.31
420.34	3323.56
420.53	3262.71
420.72	3251.00
420.91	3421.86
421.10	3297.81
421.29	3468.67
421.48	3304.84
421.67	3346.97
421.86	3412.50
422.05	3356.33
422.24	3274.41
422.43	3417.18
422.61	3417.18
422.80	3419.52
422.99	3365.69
423.18	3456.97
423.37	3407.82
423.56	3424.20
423.75	3485.06
423.94	3435.91
424.13	3213.56
424.32	3318.88
424.50	3438.25
424.69	3534.21
424.88	3503.78
425.07	3463.99
425.26	3480.38
425.45	3330.58
425.64	3489.74
425.83	3379.73
426.01	3641.87
426.20	3520.17
426.39	3658.26
426.58	3623.15
426.77	3487.40
426.96	3419.52
427.15	3405.48
427.33	3730.81
427.52	3723.79
427.71	3627.83
427.90	3571.66
428.09	3688.68
428.28	3695.71
428.46	3660.60
428.65	3742.52
428.84	3735.50
429.03	3709.75
429.22	3684.00
429.40	3719.11
429.59	3742.52
429.78	3506.12
429.97	3637.19
430.16	3730.81
430.34	3803.37
430.53	3707.41
430.72	3786.99
430.91	3892.31
431.10	3875.93
431.28	3925.08
431.47	4161.47
431.66	4121.68
431.85	4049.13
432.03	4189.56
432.22	4161.47
432.41	4140.41
432.60	4035.08
432.79	3894.65
432.97	4205.94
433.16	4154.45
433.35	4100.62
433.54	4168.49
433.72	4060.83
433.91	4117.00
434.10	4344.03
434.28	4257.43
434.47	4299.56
434.66	4311.27
434.85	4444.68
435.03	4236.37
435.22	4458.72
435.41	4585.11
435.59	4306.59
435.78	4524.26
435.97	4550.00
436.16	4627.24
436.34	4374.46
436.53	4491.49
436.72	4629.58
436.90	4559.36
437.09	4484.47
437.28	4397.87
437.46	4594.47
437.65	4580.43
437.84	4582.77
438.02	4566.39
438.21	4641.28
438.40	4578.09
438.58	4723.20
438.77	4741.93
438.96	4791.08
439.14	5029.81
439.33	4863.63
439.52	5018.11
439.70	5093.01
439.89	5097.69
440.08	5053.22
440.26	5039.17
440.45	4915.12
440.63	5273.23
440.82	5291.95
441.01	5221.74
441.19	5191.31
441.38	5401.96
441.57	5441.75
441.75	5252.16
441.94	5664.10
442.12	5518.98
442.31	5715.59
442.50	5540.05
442.68	5624.31
442.87	5575.16
443.05	5556.43
443.24	5703.89
443.43	5671.12
443.61	5825.59
443.80	5895.81
443.98	5689.84
444.17	5572.82
444.35	5799.85
444.54	5715.59
444.73	5811.55
444.91	5703.89
445.10	5582.18
445.28	5675.80
445.47	5600.90
445.65	5568.13
445.84	5806.87
446.02	5895.81
446.21	5767.08
446.39	5846.66
446.58	5867.72
446.77	5982.41
446.95	5785.80
447.14	5984.75
447.32	5996.45
447.51	5841.98
447.69	5973.05
447.88	5905.17
448.06	5870.06
448.25	5942.62
448.43	5863.04
448.62	5959.00
448.80	5994.11
448.99	5937.94
449.17	6202.42
449.36	5767.08
449.54	6106.46
449.73	6272.64
449.91	6239.87
450.10	6221.14
450.28	6230.51
450.46	6221.14
450.65	6303.06
450.83	6237.53
451.02	6270.30
451.20	6347.53
451.39	6375.62
451.57	6221.14
451.76	6155.61
451.94	6483.28
452.13	6392.00
452.31	6544.14
452.49	6403.71
452.68	6485.62
452.86	6333.49
453.05	6490.31
453.23	6408.39
453.42	6450.52
453.60	6494.99
453.78	6544.14
453.97	6286.68
454.15	6551.16
454.34	6595.63
454.52	6579.25
454.70	6595.63
454.89	6689.25
455.07	6682.23
455.26	6736.06
455.44	6750.10
455.62	6885.86
455.81	6665.85
455.99	6602.65
456.17	6792.23
456.36	6895.22
456.54	6918.62
456.73	6892.88
456.91	7190.13
457.09	7105.87
457.28	7304.81
457.46	7040.33
457.64	7332.90
457.83	7164.38
458.01	6913.94
458.19	7124.59
458.38	7243.96
458.56	7403.11
458.74	7199.49
458.93	7197.15
459.11	7398.43
459.29	7342.26
459.48	7407.80
459.66	7241.62
459.84	7126.93
460.03	7473.33
460.21	7611.42
460.39	7585.68
460.57	7545.89
460.76	7520.14
460.94	7662.91
461.12	7513.12
461.31	7485.03
461.49	7634.83
461.67	7562.27
461.85	7822.07
462.04	7611.42
462.22	8301.88
462.40	7922.71
462.59	7702.70
462.77	7726.11
462.95	7932.08
463.13	7826.75
463.32	7782.28
463.50	8016.33
463.68	8072.51
463.86	8016.33
464.05	7843.14
464.23	7953.14
464.41	8273.79
464.59	8018.68
464.78	8145.06
464.96	8121.66
465.14	8145.06
465.32	8016.33
465.50	8161.45
465.69	8124.00
465.87	8175.49
466.05	8196.56
466.23	8175.49
466.41	8091.23
466.60	8269.11
466.78	8081.87
466.96	8217.62
467.14	8257.41
467.32	8374.44
467.51	8510.19
467.69	8009.31
467.87	8322.94
468.05	8559.34
468.23	8514.87
468.41	8320.60
468.60	8299.54
468.78	8578.06
468.96	8496.14
469.14	8704.45
469.32	8559.34
469.50	8683.39
469.69	8812.12
469.87	8777.01
470.05	8791.05
470.23	8826.16
470.41	8704.45
470.59	9034.47
470.77	8919.78
470.95	8894.04
471.14	9114.05
471.32	8774.67
471.50	9254.48
471.68	9074.26
471.86	9233.41
472.04	9343.42
472.22	9481.51
472.40	9217.03
472.58	9324.69
472.77	9308.31
472.95	9430.02
473.13	9626.62
473.31	9387.89
473.49	9256.82
473.67	9317.67
473.85	9362.14
474.03	9617.26
474.21	9797.48
474.39	9701.52
474.57	9844.29
474.75	10015.15
474.93	10045.58
475.12	10153.24
475.30	9970.68
475.48	9926.21
475.66	10160.27
475.84	10029.20
476.02	10279.63
476.20	10326.44
476.38	10370.91
476.56	10523.05
476.74	10581.56
476.92	10593.26
477.10	10501.98
477.28	10806.25
477.46	10885.83
477.64	10937.32
477.82	11042.65
478.00	11166.70
478.18	10946.69
478.36	11211.17
478.54	11403.09
478.72	11302.45
478.90	11370.32
479.08	11815.02
479.26	11587.99
479.44	11667.57
479.62	11611.40
479.80	11852.47
479.98	11953.12
480.16	12243.34
480.34	12210.57
480.52	12285.47
480.70	12259.73
480.88	12098.23
481.06	12400.16
481.24	12418.88
481.41	12716.13
481.59	12924.44
481.77	12968.91
481.95	12828.48
482.13	13259.13
482.31	13088.28
482.49	13404.25
482.67	13252.11
482.85	13432.33
483.03	13767.03
483.21	13760.01
483.39	13870.01
483.57	13947.25
483.74	14038.53
483.92	14279.61
484.10	14038.53
484.28	14363.87
484.46	14583.88
484.64	14693.88
484.82	14377.91
485.00	14590.90
485.18	14906.87
485.35	14998.15
485.53	14794.53
485.71	14586.22
485.89	15042.62
486.07	15040.28
486.25	15115.18
486.43	15372.64
486.61	15529.45
486.78	15653.50
486.96	15578.61
487.14	15789.25
487.32	15976.50
487.50	16437.58
487.68	16500.78
487.85	16266.72
488.03	16762.92
488.21	16650.57
488.39	16807.39
488.57	16945.48
488.75	16865.90
488.92	17249.75
489.10	17326.99
489.28	17425.29
489.46	17734.24
489.64	17507.21
489.81	18244.48
489.99	18326.39
490.17	18302.99
490.35	18546.40
490.53	18115.75
490.70	18288.95
490.88	18553.43
491.06	18794.50
491.24	18904.51
491.41	19103.45
491.59	18841.31
491.77	18941.96
491.95	19110.47
492.13	19674.54
492.30	19456.87
492.48	19503.68
492.66	19831.36
492.84	19819.66
493.01	20034.99
493.19	20002.22
493.37	20182.44
493.54	20418.83
493.72	20624.80
493.90	20226.91
494.08	20444.58
494.25	20863.54
494.43	20734.81
494.61	21151.42
494.79	21212.28
494.96	21039.08
495.14	21198.23
495.32	21680.38
495.49	21439.31
495.67	21507.18
495.85	21528.25
496.02	21935.50
496.20	22274.88
496.38	22022.10
496.55	22340.41
496.73	22911.50
496.91	22370.84
497.09	22649.36
497.26	22651.70
497.44	22752.35
497.62	22637.66
497.79	23197.05
497.97	23110.45
498.14	23295.35
498.32	23330.46
498.50	23435.78
498.67	23726.01
498.85	23641.75
499.03	23569.19
499.20	23892.19
499.38	24100.50
499.56	24088.79
499.73	24142.63
499.91	23976.45
500.08	24421.15
500.26	24257.31
500.44	24379.02
500.61	24140.29
500.79	24306.46
500.97	24299.44
501.14	24882.24
501.32	25099.90
501.49	24849.47
501.67	25095.22
501.84	24884.58
502.02	25057.78
502.20	25401.83
502.37	25642.91
502.55	25268.42
502.72	25565.67
502.90	25701.42
503.07	25549.29
503.25	25523.54
503.43	25919.09
503.60	25778.66
503.78	25923.77
503.95	26029.10
504.13	26029.10
504.30	26085.27
504.48	26066.55
504.65	26319.32
504.83	26445.71
505.01	26731.26
505.18	26534.65
505.36	27007.44
505.53	26693.81
505.71	27211.07
505.88	27082.34
506.06	26845.94
506.23	27543.42
506.41	26955.95
506.58	27164.26
506.76	27295.33
506.93	27494.27
507.11	27346.82
507.28	27501.29
507.46	27477.89
507.63	27393.63
507.81	27803.22
507.98	27681.52
508.16	27690.88
508.33	28140.26
508.50	28423.47
508.68	28198.77
508.85	28432.83
509.03	28315.80
509.20	28329.84
509.38	28554.54
509.55	28734.76
509.73	28599.01
509.90	28760.50
510.08	29003.92
510.25	28727.74
510.42	29067.11
510.60	29207.55
510.77	29191.16
510.95	29296.49
511.12	29013.28
511.30	29446.28
511.47	29619.48
511.64	29937.79
511.82	30050.14
511.99	29853.53
512.17	29860.55
512.34	29759.91
512.51	29989.28
512.69	30263.13
512.86	30061.84
513.04	30003.33
513.21	30588.46
513.38	30199.93
513.56	30703.15
513.73	30174.19
513.90	30401.22
514.08	30359.09
514.25	30906.77
514.43	30785.07
514.60	30642.29
514.77	30567.40
514.95	31229.77
515.12	30909.11
515.29	30946.56
515.47	31138.49
515.64	31498.93
515.81	31075.29
515.99	31166.57
516.16	31285.94
516.33	31253.17
516.51	31676.81
516.68	31927.25
516.85	31309.35
517.03	31660.43
517.20	31917.89
517.37	31711.92
517.54	32151.94
517.72	31800.86
517.89	32025.55
518.06	32095.77
518.24	31796.18
518.41	31887.46
518.58	32140.24
518.75	31995.12
518.93	32596.64
519.10	32580.26
519.27	32842.40
519.45	32559.19
519.62	32931.34
519.79	32706.65
519.96	32772.18
520.14	32982.83
520.31	32830.69
520.48	32921.98
520.65	33076.45
520.83	33282.42
521.00	33872.23
521.17	33308.16
521.34	33500.09
521.52	33418.17
521.69	33717.76
521.86	33640.52
522.03	33783.29
522.20	33755.21
522.38	33825.42
522.55	34047.77
522.72	34398.85
522.89	33516.47
523.07	34022.03
523.24	34036.07
523.41	34171.82
523.58	34129.69
523.75	34721.85
523.92	34387.15
524.10	34983.99
524.27	34618.86
524.44	34745.25
524.61	34623.54
524.78	34611.84
524.96	34855.26
525.13	35082.29
525.30	35005.05
525.47	35154.85
525.64	35150.17
525.81	34998.03
525.98	35054.20
526.16	35288.26
526.33	34930.16
526.50	35084.63
526.67	35145.48
526.84	35597.21
527.01	35136.12
527.18	35227.40
527.36	35428.69
527.53	35428.69
527.70	35999.78
527.87	35880.41
528.04	35658.06
528.21	35868.71
528.38	35793.81
528.55	35892.12
528.72	36217.45
528.89	36388.31
529.07	36203.41
529.24	35945.95
529.41	36432.78
529.58	36290.01
529.75	36105.10
529.92	36481.93
530.09	36641.09
530.26	36435.12
530.43	36615.34
530.60	36603.64
530.77	36250.22
530.94	36559.17
531.11	36528.74
531.28	37031.96
531.46	36978.12
531.63	37090.47
531.80	36945.36
531.97	36615.34
532.14	37198.13
532.31	36664.49
532.48	37062.38
532.65	37153.66
532.82	36783.86
532.99	37682.62
533.16	37081.11
533.33	37104.51
533.50	37352.61
533.67	37481.34
533.84	37558.58
534.01	37523.47
534.18	37624.11
534.35	37933.06
534.52	37525.81
534.69	37865.19
534.86	37923.70
535.03	37682.62
535.20	37820.72
535.37	38267.76
535.54	38389.47
535.71	38005.62
535.88	38157.75
536.05	38078.18
536.22	38583.73
536.38	38359.04
536.55	38391.81
536.72	38590.75
536.89	38330.95
537.06	38305.21
537.23	38199.88
537.40	38293.50
537.57	38005.62
537.74	38679.69
537.91	38808.42
538.08	38951.20
538.25	38103.92
538.42	38639.90
538.59	38614.16
538.75	38827.15
538.92	38857.57
539.09	38857.57
539.26	39222.70
539.43	39203.97
539.60	39126.74
539.77	38712.46
539.94	39028.43
540.11	38902.04
540.28	38972.26
540.44	39140.78
540.61	39110.35
540.78	38841.19
540.95	39316.32
541.12	39239.08
541.29	39468.45
541.46	39449.73
541.62	39496.54
541.79	39952.94
541.96	39196.95
542.13	39426.32
542.30	39246.10
542.47	39601.86
542.63	39672.08
542.80	40215.08
542.97	39910.82
543.14	40371.90
543.31	40142.53
543.48	39969.33
543.64	40563.82
543.81	40582.55
543.98	40105.08
544.15	40446.80
544.32	40671.49
544.48	40601.27
544.65	40465.52
544.82	40779.15
544.99	40084.01
545.16	40751.07
545.32	40378.92
545.49	40758.09
545.66	40481.91
545.83	40662.13
546.00	40942.99
546.16	40217.43
546.33	40811.92
546.50	40484.25
546.67	40935.97
546.83	40730.00
547.00	40554.46
547.17	40727.66
547.34	40741.71
547.50	41591.32
547.67	41521.10
547.84	41153.64
548.00	41223.86
548.17	41446.21
548.34	41741.11
548.51	41514.08
548.67	41329.18
548.84	41425.14
549.01	41808.99
549.18	41174.70
549.34	41687.28
549.51	41469.61
549.68	41631.11
549.84	41694.30
550.01	42099.22
550.18	41212.15
550.34	41563.23
550.51	41846.44
550.68	41724.73
550.84	41511.74
551.01	42260.71
551.18	41450.89
551.34	41888.57
551.51	41879.21
551.68	42141.35
551.84	42043.04
552.01	41965.81
552.18	41949.42
552.34	41780.90
552.51	42129.64
552.68	42131.98
552.84	42464.34
553.01	42169.43
553.18	42155.39
553.34	42012.62
553.51	41853.46
553.67	42129.64
553.84	42361.36
554.01	42593.07
554.17	42672.65
554.34	43014.37
554.51	42682.01
554.67	42890.32
554.84	42899.68
555.00	41961.12
555.17	42674.99
555.33	42579.03
555.50	42464.34
555.67	42780.31
555.83	42799.04
556.00	42780.31
556.16	42852.87
556.33	42712.44
556.50	43171.18
556.66	42974.58
556.83	42810.74
556.99	43028.41
557.16	43070.54
557.32	42808.40
557.49	43089.26
557.65	42895.00
557.82	42452.64
557.98	42733.50
558.15	43105.65
558.32	42930.11
558.48	42473.70
558.65	43257.78
558.81	42712.44
558.98	43042.45
559.14	42794.36
559.31	43271.82
559.47	42593.07
559.64	43529.28
559.80	43400.55
559.97	43526.94
560.13	43194.59
560.30	43077.56
560.46	43573.75
560.63	43061.18
560.79	43459.07
560.96	43400.55
561.12	43538.65
561.29	43531.62
561.45	43440.34
561.61	43145.44
561.78	43438.00
561.94	43461.41
562.11	43482.47
562.27	43264.80
562.44	43480.13
562.60	43384.17
562.77	43686.10
562.93	43335.02
563.10	43608.86
563.26	43676.74
563.42	44013.77
563.59	43557.37
563.75	43662.69
563.92	43761.00
564.08	43622.90
564.24	43929.51
564.41	43625.25
564.57	44009.09
564.74	43927.17
564.90	43716.53
565.07	43878.02
565.23	43548.01
565.39	43639.29
565.56	44053.56
565.72	43646.31
565.88	43716.53
566.05	43622.90
566.21	44151.87
566.38	43676.74
566.54	43482.47
566.70	44037.18
566.87	44264.21
567.03	43454.39
567.19	44030.16
567.36	43835.89
567.52	43688.44
567.68	43906.11
567.85	44135.48
568.01	44025.48
568.17	44069.95
568.34	44121.44
568.50	43789.08
568.66	43487.15
568.83	43999.73
568.99	44299.32
569.15	43845.26
569.32	43962.28
569.48	43903.77
569.64	43929.51
569.81	44289.96
569.97	43655.67
570.13	44259.53
570.30	43952.92
570.46	44013.77
570.62	44107.40
570.78	43873.34
570.95	43688.44
571.11	44093.35
571.27	44135.48
571.43	44285.28
571.60	43847.60
571.76	43606.52
571.92	44098.03
572.09	43852.28
572.25	43882.70
572.41	44058.24
572.57	44348.47
572.74	44147.18
572.90	44666.78
573.06	43796.10
573.22	44364.85
573.38	44182.29
573.55	44247.83
573.71	44409.32
573.87	44325.07
574.03	43978.67
574.20	44161.23
574.36	44287.62
574.52	43924.83
574.68	44509.97
574.84	44147.18
575.01	44208.04
575.17	43943.56
575.33	43988.03
575.49	43934.20
575.65	44573.16
575.82	44343.79
575.98	44329.75
576.14	44659.76
576.30	44215.06
576.46	44233.78
576.62	44528.69
576.79	44058.24
576.95	43833.55
577.11	44350.81
577.27	44128.46
577.43	44739.34
577.59	44332.09
577.75	44404.64
577.92	44112.08
578.08	44088.67
578.24	44435.07
578.40	44076.97
578.56	44465.50
578.72	44385.92
578.88	44561.46
579.04	44615.29
579.21	44165.91
579.37	44353.15
579.53	44280.60
579.69	44053.56
579.85	44460.82
580.01	44809.56
580.17	44346.13
580.33	44708.91
580.49	44722.96
580.65	44463.16
580.82	44847.00
580.98	44259.53
581.14	44137.82
581.30	44247.83
581.46	44458.48
581.62	44598.91
581.78	44615.29
581.94	44839.98
582.10	44432.73
582.26	44914.88
582.42	44634.02
582.58	44531.03
582.74	44350.81
582.90	44198.68
583.06	44493.58
583.22	44708.91
583.38	44458.48
583.54	44699.55
583.70	44760.40
583.86	44217.40
584.02	44236.12
584.18	44360.17
584.34	44505.29
584.50	44612.95
584.66	44666.78
584.82	44350.81
584.98	44657.42
585.14	44334.43
585.30	44325.07
585.46	44664.44
585.62	44177.61
585.78	44767.43
585.94	44016.11
586.10	44781.47
586.26	44254.85
586.42	44839.98
586.58	44854.03
586.74	44261.87
586.90	44479.54
587.06	44678.49
587.22	45017.86
587.38	43950.58
587.54	44561.46
587.70	44832.96
587.86	44631.68
588.02	44690.19
588.18	44914.88
588.34	44332.09
588.49	44339.11
588.65	44439.75
588.81	44526.35
588.97	44498.26
589.13	44463.16
589.29	44795.51
589.45	44505.29
589.61	44437.41
589.77	44800.19
589.93	44744.02
590.08	44594.23
590.24	45319.79
590.40	44968.71
590.56	44769.77
590.72	44772.11
590.88	44318.04
591.04	44767.43
591.20	44914.88
591.35	44999.14
591.51	45385.33
591.67	44980.42
591.83	45048.29
591.99	44538.05
592.15	44322.72
592.31	45172.34
592.46	44996.80
592.62	44776.79
592.78	44769.77
592.94	45593.64
593.10	44964.03
593.26	44556.78
593.41	44643.38
593.57	44397.62
593.73	44622.31
593.89	44989.78
594.05	44708.91
594.20	44533.37
594.36	44905.52
594.52	44999.14
594.68	44652.74
594.84	44500.61
594.99	45240.21
595.15	44959.35
595.31	44732.32
595.47	44980.42
595.62	45165.32
595.78	44734.66
595.94	45109.14
596.10	44968.71
596.25	44863.39
596.41	44933.60
596.57	44622.31
596.73	44940.63
596.88	44861.05
597.04	45216.81
597.20	44933.60
597.36	44989.78
597.51	45064.67
597.67	45258.94
597.83	44769.77
597.99	45083.40
598.14	44971.05
598.30	44744.02
598.46	44744.02
598.61	45055.31
598.77	44734.66
598.93	45139.57
599.09	44992.12
599.24	45191.06
599.40	44662.10
599.56	45411.07
599.71	44807.22
599.87	45738.75
600.03	44832.96
600.18	44830.62
600.34	45116.17
600.50	44898.50
600.65	44856.37
600.81	45375.97
600.97	45265.96
601.12	45148.93
601.28	45305.75
601.44	44734.66
601.59	45212.13
601.75	45071.70
601.91	45174.68
602.06	45092.76
602.22	45020.20
602.37	45263.62
602.53	45020.20
602.69	44896.16
602.84	44917.22
603.00	44891.48
603.16	44907.86
603.31	44751.04
603.47	44399.96
603.62	44486.56
603.78	44573.16
603.94	44926.58
604.09	45551.51
604.25	44493.58
604.40	45155.96
604.56	45329.16
604.71	44830.62
604.87	44559.12
605.03	44905.52
605.18	44666.78
605.34	44638.70
605.49	44528.69
605.65	44823.60
605.80	44837.64
605.96	44666.78
606.12	44802.53
606.27	44814.24
606.43	44666.78
606.58	44774.45
606.74	44713.59
606.89	44589.55
607.05	44940.63
607.20	44694.87
607.36	44928.92
607.51	44692.53
607.67	44493.58
607.82	44556.78
607.98	44339.11
608.13	44711.25
608.29	44432.73
608.44	44175.27
608.60	44032.50
608.75	44233.78
608.91	44252.51
609.06	44781.47
609.22	44818.92
609.37	44453.79
609.53	44591.89
609.68	44652.74
609.84	44706.57
609.99	44690.19
610.15	44465.50
610.30	44491.24
610.46	44619.97
610.61	44299.32
610.76	44495.92
610.92	44516.99
611.07	44725.30
611.23	44308.68
611.38	44596.57
611.54	43952.92
611.69	44112.08
611.84	44254.85
612.00	44612.95
612.15	44299.32
612.31	44371.88
612.46	44264.21
612.62	44601.25
612.77	44350.81
612.92	44069.95
613.08	44315.70
613.23	44266.55
613.39	44105.06
613.54	44243.15
613.69	43901.43
613.85	43913.13
614.00	43950.58
614.15	44900.84
614.31	44507.63
614.46	44467.84
614.62	44114.42
614.77	43988.03
614.92	43880.36
615.08	44500.61
615.23	43863.98
615.38	43599.50
615.54	43540.99
615.69	44009.09
615.84	43662.69
616.00	43910.79
616.15	43948.24
616.30	44238.47
616.46	43634.61
616.61	43402.89
616.76	43374.81
616.92	43758.66
617.07	43498.86
617.22	43154.80
617.37	43800.79
617.53	43840.57
617.68	43505.88
617.83	43739.93
617.99	44039.52
618.14	43737.59
618.29	43543.33
618.45	43269.48
618.60	43400.55
618.75	43548.01
618.90	43571.41
619.06	43615.88
619.21	43356.08
619.36	43646.31
619.51	43344.38
619.67	43257.78
619.82	43426.30
619.97	43562.05
620.12	43042.45
620.28	42806.06
620.43	43103.31
620.58	42857.55
620.73	43304.59
620.89	42932.45
621.04	43388.85
621.19	42862.23
621.34	42569.66
621.49	42639.88
621.65	42532.22
621.80	42761.59
621.95	42628.18
622.10	42782.65
622.25	42670.31
622.41	42801.38
622.56	42693.71
622.71	42850.53
622.86	42925.42
623.01	42974.58
623.16	42925.42
623.32	43136.07
623.47	43304.59
623.62	42899.68
623.77	42698.39
623.92	42941.81
624.07	42478.38
624.23	42277.10
624.38	42267.73
624.53	42375.40
624.68	42436.25
624.83	42188.16
624.98	42686.69
625.13	42492.43
625.29	42808.40
625.44	42160.07
625.59	42457.32
625.74	42038.36
625.89	41975.17
626.04	42073.47
626.19	41982.19
626.34	42209.22
626.49	42689.03
626.65	42003.25
626.80	41977.51
626.95	42003.25
627.10	42075.81
627.25	41914.31
627.40	41696.64
627.55	42007.94
627.70	41338.54
627.85	41614.72
628.00	41902.61
628.15	41837.08
628.30	42103.90
628.45	42155.39
628.60	41640.47
628.76	42080.49
628.91	42099.22
629.06	41584.30
629.21	42012.62
629.36	41689.62
629.51	41324.50
629.66	41265.99
629.81	41273.01
629.96	41598.34
630.11	41654.51
630.26	41495.36
630.41	41329.18
630.56	41825.37
630.71	41965.81
630.86	41553.87
631.01	41937.72
631.16	41242.58
631.31	41165.34
631.46	41050.66
631.61	41237.90
631.76	41521.10
631.91	41305.77
632.06	41301.09
632.21	40999.16
632.36	41345.56
632.51	41111.51
632.66	40924.27
632.81	40781.49
632.96	41022.57
633.10	41008.53
633.25	40634.04
633.40	41144.28
633.55	41146.62
633.70	41214.49
633.85	40900.86
634.00	40842.35
634.15	40683.19
634.30	40512.33
634.45	40917.25
634.60	40863.41
634.75	41064.70
634.90	40573.19
635.05	40521.69
635.19	40737.02
635.34	40605.95
635.49	40659.79
635.64	40713.62
635.79	40322.75
635.94	40376.58
636.09	40355.52
636.24	40376.58
636.39	40011.46
636.53	40013.80
636.68	40254.87
636.83	40198.70
636.98	40289.98
637.13	40091.04
637.28	40172.96
637.43	40442.12
637.57	40680.85
637.72	40484.25
637.87	40332.11
638.02	40039.54
638.17	40137.85
638.32	40074.65
638.46	40016.14
638.61	40065.29
638.76	39536.33
638.91	39985.71
639.06	40259.55
639.20	40322.75
639.35	40149.55
639.50	39601.86
639.65	40046.57
639.80	40002.10
639.94	40081.67
640.09	39447.39
640.24	39157.16
640.39	39426.32
640.54	39271.85
640.68	39585.48
640.83	39763.36
640.98	39316.32
641.13	39519.95
641.27	39473.13
641.42	39292.91
641.57	39742.30
641.72	39742.30
641.86	39363.13
642.01	39028.43
642.16	39433.35
642.31	39105.67
642.45	39690.80
642.60	39297.59
642.75	39227.38
642.90	39501.22
643.04	39054.18
643.19	39208.65
643.34	39533.99
643.48	39302.28
643.63	38822.47
643.78	38766.29
643.93	38941.83
644.07	38965.24
644.22	39222.70
644.37	38366.06
644.51	38623.52
644.66	39133.76
644.81	39416.96
644.95	39269.51
645.10	39257.81
645.25	39030.77
645.39	39140.78
645.54	39105.67
645.69	39503.56
645.83	38763.95
645.98	38457.34
646.13	38728.84
646.27	39241.42
646.42	38700.76
646.57	38838.85
646.71	38990.98
646.86	38560.33
647.00	39110.35
647.15	38728.84
647.30	38698.42
647.44	38789.70
647.59	38513.52
647.74	37996.26
647.88	38185.84
648.03	38440.96
648.17	38529.90
648.32	38110.94
648.47	38328.61
648.61	38328.61
648.76	38763.95
648.90	38536.92
649.05	38623.52
649.20	38345.00
649.34	38274.78
649.49	37940.08
649.63	38354.36
649.78	38129.67
649.92	37933.06
650.07	38770.97
650.21	37961.15
650.36	38298.19
650.51	38057.11
650.65	38253.72
650.80	38508.83
650.94	38384.79
651.09	38092.22
651.23	38415.21
651.38	38419.89
651.52	37649.86
651.67	37965.83
651.81	37694.33
651.96	37801.99
652.10	38309.89
652.25	37483.68
652.39	37553.90
652.54	37586.66
652.68	37951.79
652.83	37970.51
652.97	37659.22
653.12	37773.91
653.26	37830.08
653.41	37764.54
653.55	37565.60
653.70	37523.47
653.84	37392.40
653.99	37794.97
654.13	37825.40
654.27	37511.77
654.42	37706.03
654.56	37488.36
654.71	37436.87
654.85	37481.34
655.00	37062.38
655.14	37057.70
655.29	37261.33
655.43	37055.36
655.57	36790.88
655.72	37008.55
655.86	37022.59
656.01	36851.73
656.15	37010.89
656.30	36861.10
656.44	36631.72
656.58	37083.45
656.73	36882.16
656.87	36837.69
657.01	36776.84
657.16	36776.84
657.30	36273.62
657.45	36837.69
657.59	37163.03
657.73	36713.64
657.88	36718.32
658.02	36533.42
658.16	36912.59
658.31	37338.57
658.45	36538.10
658.60	36804.92
658.74	36435.12
658.88	36816.63
659.03	36430.44
659.17	36407.03
659.31	36657.47
659.46	35838.28
659.60	36620.02
659.74	36168.30
659.89	35969.35
660.03	36037.23
660.17	36025.53
660.32	36133.19
660.46	36474.91
660.60	36353.20
660.74	36107.44
660.89	36107.44
661.03	36137.87
661.17	35845.30
661.32	35571.46
661.46	35314.00
661.60	35325.71
661.74	35346.77
661.89	35784.45
662.03	35618.27
662.17	35246.13
662.31	35379.54
662.46	35840.62
662.60	35639.34
662.74	35426.35
662.88	35283.58
663.03	35531.67
663.17	34951.22
663.31	34965.26
663.45	35255.49
663.60	34927.81
663.74	34803.77
663.88	35182.93
664.02	34888.03
664.17	34831.85
664.31	34494.82
664.45	34756.96
664.59	35220.38
664.73	34897.39
664.88	34834.19
665.02	34209.27
665.16	34742.91
665.30	34691.42
665.44	34539.29
665.59	34338.00
665.73	34328.64
665.87	34398.85
666.01	33883.94
666.15	33872.23
666.29	34071.18
666.44	34394.17
666.58	33944.79
666.72	33993.94
666.86	33984.58
667.00	34256.08
667.14	33804.36
667.28	33888.62
667.43	33675.63
667.57	34005.64
667.71	33352.63
667.85	33755.21
667.99	33888.62
668.13	33270.72
668.27	33270.72
668.41	33865.21
668.56	33160.71
668.70	33497.75
668.84	33411.15
668.98	33216.88
669.12	33354.97
669.26	33095.18
669.40	33432.21
669.54	32889.21
669.68	33064.75
669.82	32648.13
669.96	32751.12
670.10	32723.03
670.25	33202.84
670.39	33146.67
670.53	32507.70
670.67	32650.47
670.81	32360.25
670.95	32753.46
671.09	32629.41
671.23	32493.66
671.37	32521.74
671.51	32327.48
671.65	31948.31
671.79	31826.60
671.93	31924.91
672.07	32081.72
672.21	31992.78
672.35	31395.95
672.49	31763.41
672.63	31700.22
672.77	31576.17
672.91	31775.11
673.05	31559.78
673.19	31173.60
673.33	30941.88
673.47	31285.94
673.61	31023.80
673.75	31091.68
673.89	31087.00
674.03	31061.25
674.17	30656.34
674.31	30962.95
674.45	30941.88
674.59	30923.16
674.73	30881.03
674.87	31122.10
675.01	30565.06
675.15	31007.42
675.29	30487.82
675.43	30691.44
675.56	30625.91
675.70	30417.60
675.84	30658.68
675.98	29420.53
676.12	30134.40
676.26	29832.47
676.40	29680.33
676.54	29783.32
676.68	30092.27
676.82	29249.67
676.96	29273.08
677.10	29420.53
677.23	29474.37
677.37	29790.34
677.51	29003.92
677.65	29179.46
677.79	28570.92
677.93	28882.21
678.07	28636.45
678.21	28587.30
678.34	28851.78
678.48	28542.83
678.62	28297.08
678.76	28294.74
678.90	27974.08
679.04	28343.89
679.18	28496.02
679.31	27625.34
679.45	27805.56
679.59	27866.42
679.73	27672.15
679.87	27913.23
680.00	27899.19
680.14	27651.09
680.28	27508.32
680.42	27342.14
680.56	27065.96
680.70	26848.29
680.83	27094.04
680.97	27147.87
681.11	26675.09
681.25	26764.03
681.39	26927.86
681.52	26663.38
681.66	26803.82
681.80	26368.48
681.94	26345.07
682.07	26431.67
682.21	26546.36
682.35	26174.21
682.49	26277.19
682.62	26396.56
682.76	26312.30
682.90	25773.98
683.04	25977.61
683.17	25469.71
683.31	25874.62
683.45	25858.24
683.59	25333.96
683.72	25488.43
683.86	25305.87
684.00	24833.08
684.13	25324.60
684.27	25472.05
684.41	25200.55
684.55	25043.73
684.68	24954.79
684.82	24613.07
684.96	24704.35
685.09	24823.72
685.23	24545.20
685.37	24299.44
685.50	24374.34
685.64	24442.21
685.78	24435.19
685.91	24217.52
686.05	24226.89
686.19	23616.01
686.32	23676.86
686.46	23908.57
686.60	23480.25
686.73	23356.21
686.87	23365.57
687.01	23608.98
687.14	23255.56
687.28	23112.79
687.42	22986.40
687.55	23239.18
687.69	23058.96
687.82	23061.30
687.96	22904.48
688.10	22850.65
688.23	22918.53
688.37	22249.13
688.50	22246.79
688.64	22164.87
688.78	22370.84
688.91	22181.26
689.05	22419.99
689.18	21839.54
689.32	21958.91
689.46	21820.81
689.59	21928.48
689.73	22160.19
689.86	21898.05
690.00	21458.03
690.13	21785.71
690.27	21584.42
690.41	21429.94
690.54	21352.71
690.68	21252.06
690.81	20996.95
690.95	20856.51
691.08	20549.90
691.22	20884.60
691.35	20776.94
691.49	20985.24
691.62	20905.66
691.76	20723.10
691.89	20861.19
692.03	20439.90
692.16	20334.57
692.30	19939.02
692.43	20418.83
692.57	20074.77
692.70	20056.05
692.84	20236.27
692.97	19590.28
693.11	19592.62
693.24	19690.93
693.38	19538.79
693.51	19534.11
693.65	19290.70
693.78	19470.92
693.92	19257.93
694.05	19241.54
694.19	18977.06
694.32	19037.92
694.45	18735.99
694.59	18948.98
694.72	18740.67
694.86	18960.68
694.99	18679.82
695.13	18672.79
695.26	18780.46
695.39	18324.05
695.53	18370.86
695.66	18097.02
695.80	18237.45
695.93	18073.62
696.07	17781.05
696.20	17855.95
696.33	18015.10
696.47	17837.22
696.60	17713.17
696.73	18164.90
696.87	17813.82
697.00	17734.24
697.14	17659.34
697.27	17710.83
697.40	17465.08
697.54	17465.08
697.67	16989.95
697.80	17364.43
697.94	17406.56
698.07	17088.25
698.21	16924.41
698.34	16926.75
698.47	17022.72
698.61	16547.59
698.74	16727.81
698.87	16872.92
699.01	16404.81
699.14	16545.25
699.27	16315.87
699.40	16421.20
699.54	16039.69
699.67	15719.04
699.80	16278.43
699.94	15939.05
700.07	15875.85
700.20	16079.48
700.34	15447.54
700.47	15707.34
700.60	15756.49
700.73	15920.32
700.87	15545.84
701.00	15513.07
701.13	15630.10
701.26	15564.56
701.40	15293.06
701.53	15094.11
701.66	15267.31
701.79	15274.34
701.93	14998.15
702.06	14822.61
702.19	14787.50
702.32	14792.19
702.46	14778.14
702.59	14567.49
702.72	14731.33
702.85	14340.46
702.99	14836.66
703.12	14511.32
703.25	14565.15
703.38	14569.83
703.51	14036.19
703.65	14101.73
703.78	14040.87
703.91	14396.64
704.04	14178.97
704.17	14174.28
704.31	13942.57
704.44	13870.01
704.57	13415.95
704.70	13664.05
704.83	13654.69
704.96	13561.06
705.10	13687.45
705.23	13769.37
>>>>>End Processed Spectral Data<<<<<
