SpectraSuite Data File
++++++++++++++++++++++++++++++++++++
Date: Fri Oct 25 10:43:19 EDT 2013
User: price-jones
Dark Spectrum Present: No
Reference Spectrum Present: No
Number of Sampled Component Spectra: 1
Spectrometers: USB2+H05261
Integration Time (usec): 100000 (USB2+H05261)
Spectra Averaged: 1 (USB2+H05261)
Boxcar Smoothing: 0 (USB2+H05261)
Correct for Electrical Dark: No (USB2+H05261)
Strobe/Lamp Enabled: No (USB2+H05261)
Correct for Detector Non-linearity: No (USB2+H05261)
Correct for Stray Light: No (USB2+H05261)
Number of Pixels in Processed Spectrum: 2048
>>>>>Begin Processed Spectral Data<<<<<
365.73	124.05
365.92	124.05
366.12	124.05
366.32	25.75
366.52	124.05
366.72	39.79
366.91	49.15
367.11	4.68
367.31	44.47
367.51	0.00
367.70	23.41
367.90	63.19
368.10	0.00
368.30	100.64
368.49	14.04
368.69	70.22
368.89	0.00
369.09	7.02
369.28	121.71
369.48	16.38
369.68	110.01
369.87	37.45
370.07	114.69
370.27	49.15
370.47	140.43
370.66	360.44
370.86	433.00
371.06	425.98
371.25	456.40
371.45	435.34
371.65	470.45
371.84	493.85
372.04	369.80
372.24	355.76
372.44	496.19
372.63	468.11
372.83	510.24
373.03	535.98
373.22	580.45
373.42	524.28
373.62	547.69
373.81	507.90
374.01	585.13
374.21	601.52
374.40	580.45
374.60	538.32
374.79	573.43
374.99	573.43
375.19	582.79
375.38	585.13
375.58	648.33
375.78	706.84
375.97	608.54
376.17	608.54
376.37	617.90
376.56	594.50
376.76	540.66
376.95	643.65
377.15	641.31
377.35	674.07
377.54	578.11
377.74	624.92
377.93	650.67
378.13	627.26
378.33	664.71
378.52	669.39
378.72	641.31
378.91	704.50
379.11	720.88
379.31	580.45
379.50	629.60
379.70	704.50
379.89	662.37
380.09	624.92
380.28	732.59
380.48	624.92
380.68	678.76
380.87	690.46
381.07	681.10
381.26	781.74
381.46	664.71
381.65	678.76
381.85	650.67
382.04	681.10
382.24	636.63
382.43	711.52
382.63	737.27
382.83	725.57
383.02	650.67
383.22	819.19
383.41	699.82
383.61	725.57
383.80	809.83
384.00	748.97
384.19	791.10
384.39	807.48
384.58	826.21
384.78	795.78
384.97	793.44
385.17	767.70
385.36	763.01
385.56	840.25
385.75	805.14
385.95	777.06
386.14	765.36
386.34	826.21
386.53	786.42
386.72	800.46
386.92	903.45
387.11	884.72
387.31	882.38
387.50	873.02
387.70	922.17
387.89	961.96
388.09	800.46
388.28	830.89
388.48	903.45
388.67	919.83
388.86	931.53
389.06	917.49
389.25	943.24
389.45	938.55
389.64	866.00
389.84	919.83
390.03	1018.13
390.22	983.02
390.42	987.71
390.61	1018.13
390.81	952.60
391.00	1057.92
391.19	1048.56
391.39	1043.88
391.58	999.41
391.78	1046.22
391.97	1050.90
392.16	1015.79
392.36	1048.56
392.55	938.55
392.75	952.60
392.94	1053.24
393.13	1006.43
393.33	898.77
393.52	1036.86
393.71	1170.27
393.91	1043.88
394.10	1086.01
394.29	1139.84
394.49	1121.12
394.68	1193.67
394.88	1167.93
395.07	1132.82
395.26	1270.91
395.46	1205.38
395.65	1245.16
395.84	1160.91
396.04	1224.10
396.23	1200.69
396.42	1137.50
396.62	1165.59
396.81	1217.08
397.00	1214.74
397.19	1308.36
397.39	1425.39
397.58	1334.11
397.77	1334.11
397.97	1460.49
398.16	1399.64
398.35	1352.83
398.55	1448.79
398.74	1453.47
398.93	1483.90
399.12	1366.87
399.32	1451.13
399.51	1554.12
399.70	1509.65
399.90	1507.30
400.09	1584.54
400.28	1598.59
400.47	1535.39
400.67	1680.50
400.86	1596.25
401.05	1586.88
401.24	1750.72
401.44	1762.42
401.63	1790.51
401.82	1687.53
402.01	1680.50
402.21	1664.12
402.40	1762.42
402.59	1720.29
402.78	1748.38
402.97	1717.95
403.17	1769.44
403.36	1680.50
403.55	1893.49
403.74	1928.60
403.93	1956.69
404.13	1846.68
404.32	1729.66
404.51	1874.77
404.70	1916.90
404.89	1839.66
405.09	1820.94
405.28	1947.33
405.47	1949.67
405.66	1935.62
405.85	1935.62
406.05	1942.64
406.24	2005.84
406.43	1940.30
406.62	2038.61
406.81	2148.61
407.00	1902.86
407.20	2057.33
407.39	2064.35
407.58	2188.40
407.77	2162.66
407.96	2083.08
408.15	2260.96
408.34	2174.36
408.54	2286.70
408.73	2239.89
408.92	2347.56
409.11	2370.96
409.30	2235.21
409.49	2324.15
409.68	2282.02
409.87	2249.25
410.07	2328.83
410.26	2377.98
410.45	2258.62
410.64	2408.41
410.83	2452.88
411.02	2480.97
411.21	2525.44
411.40	2422.45
411.59	2562.89
411.78	2644.81
411.98	2640.12
412.17	2670.55
412.36	2523.10
412.55	2766.51
412.74	2766.51
412.93	2761.83
413.12	2757.15
413.31	2862.48
413.50	2782.90
413.69	2813.32
413.88	2860.13
414.07	2862.48
414.26	2956.10
414.45	2951.42
414.64	2988.86
414.83	2974.82
415.02	2988.86
415.22	2951.42
415.41	3047.38
415.60	3096.53
415.79	3283.77
415.98	3143.34
416.17	3274.41
416.36	3136.32
416.55	3171.43
416.74	3304.84
416.93	3220.58
417.12	3433.57
417.31	3265.05
417.50	3372.71
417.69	3480.38
417.88	3386.76
418.07	3454.63
418.26	3461.65
418.45	3389.10
418.64	3609.11
418.83	3487.40
419.02	3522.51
419.21	3496.76
419.39	3536.55
419.58	3541.23
419.77	3679.32
419.96	3627.83
420.15	3686.34
420.34	3730.81
420.53	3758.90
420.72	3768.26
420.91	3723.79
421.10	3742.52
421.29	3845.50
421.48	3751.88
421.67	3747.20
421.86	3868.91
422.05	3758.90
422.24	3779.97
422.43	3688.68
422.61	3679.32
422.80	3946.14
422.99	3749.54
423.18	3758.90
423.37	3934.44
423.56	3913.38
423.75	3988.27
423.94	3595.06
424.13	3686.34
424.32	3843.16
424.50	3922.74
424.69	4002.32
424.88	3997.64
425.07	3822.09
425.26	3971.89
425.45	3868.91
425.64	4007.00
425.83	4098.28
426.01	4105.30
426.20	4028.06
426.39	4107.64
426.58	3859.54
426.77	3992.95
426.96	3936.78
427.15	3913.38
427.33	3976.57
427.52	4004.66
427.71	4053.81
427.90	4009.34
428.09	4299.56
428.28	4149.77
428.46	4156.79
428.65	4161.47
428.84	4287.86
429.03	4276.16
429.22	3927.42
429.40	4215.30
429.59	4166.15
429.78	3948.48
429.97	3845.50
430.16	3929.76
430.34	4039.76
430.53	4058.49
430.72	4077.21
430.91	4145.09
431.10	4329.99
431.28	4358.08
431.47	4678.73
431.66	4615.54
431.85	4414.25
432.03	4601.49
432.22	4636.60
432.41	4491.49
432.60	4755.97
432.79	4711.50
432.97	4732.56
433.16	4606.17
433.35	4610.86
433.54	4695.11
433.72	4667.03
433.91	4692.77
434.10	4765.33
434.28	4697.46
434.47	4826.18
434.66	4849.59
434.85	4770.01
435.03	5004.07
435.22	4854.27
435.41	5060.24
435.59	4943.21
435.78	5055.56
435.97	5055.56
436.16	5184.29
436.34	5055.56
436.53	5097.69
436.72	5153.86
436.90	5071.94
437.09	5198.33
437.28	5165.56
437.46	5149.18
437.65	5109.39
437.84	5142.16
438.02	5071.94
438.21	5172.58
438.40	5167.90
438.58	5331.74
438.77	5331.74
438.96	5343.44
439.14	5474.51
439.33	5511.96
439.52	5612.60
439.70	5617.29
439.89	5673.46
440.08	5589.20
440.26	5586.86
440.45	5870.06
440.63	5820.91
440.82	5715.59
441.01	5816.23
441.19	5916.87
441.38	6249.23
441.57	6108.80
441.75	6122.84
441.94	6207.10
442.12	6174.33
442.31	6272.64
442.50	6293.70
442.68	6218.80
442.87	6155.61
443.05	6232.85
443.24	6333.49
443.43	6340.51
443.61	6392.00
443.80	6380.30
443.98	6448.18
444.17	6211.78
444.35	6497.33
444.54	6590.95
444.73	6438.81
444.91	6457.54
445.10	6502.01
445.28	6253.91
445.47	6368.60
445.65	6317.11
445.84	6293.70
446.02	6583.93
446.21	6628.40
446.39	6539.46
446.58	6527.75
446.77	6471.58
446.95	6244.55
447.14	6518.39
447.32	6693.93
447.51	6434.13
447.69	6558.18
447.88	6565.20
448.06	6626.06
448.25	6590.95
448.43	6700.95
448.62	6609.67
448.80	6719.68
448.99	6616.69
449.17	6862.45
449.36	6761.81
449.54	6986.50
449.73	6927.99
449.91	7173.74
450.10	7138.63
450.28	7272.04
450.46	7073.10
450.65	7190.13
450.83	7136.29
451.02	7037.99
451.20	7241.62
451.39	7166.72
451.57	7061.40
451.76	7255.66
451.94	7108.21
452.13	7180.76
452.31	7157.36
452.49	7187.79
452.68	7091.82
452.86	7122.25
453.05	7227.57
453.23	6993.52
453.42	7194.81
453.60	7274.38
453.78	7258.00
453.97	7346.94
454.15	7466.31
454.34	7112.89
454.52	7510.78
454.70	7456.95
454.89	7487.37
455.07	7393.75
455.26	7424.18
455.44	7740.15
455.62	7552.91
455.81	7709.72
455.99	7651.21
456.17	7756.54
456.36	7723.77
456.54	7824.41
456.73	8032.72
456.91	8002.29
457.09	7903.99
457.28	8105.28
457.46	7826.75
457.64	7791.64
457.83	7868.88
458.01	7929.74
458.19	8133.36
458.38	8058.46
458.56	8226.98
458.74	8147.40
458.93	8154.43
459.11	8086.55
459.29	8142.72
459.48	8280.82
459.66	8269.11
459.84	8180.17
460.03	8451.67
460.21	8358.05
460.39	8351.03
460.57	8390.82
460.76	8320.60
460.94	8414.23
461.12	8566.36
461.31	8624.87
461.49	8547.64
461.67	8683.39
461.85	8643.60
462.04	8648.28
462.22	9193.62
462.40	8980.64
462.59	8854.25
462.77	8870.63
462.95	8879.99
463.13	8725.52
463.32	8919.78
463.50	8936.17
463.68	8917.44
463.86	8741.90
464.05	8760.63
464.23	8851.91
464.41	8798.07
464.59	8854.25
464.78	8872.97
464.96	9022.77
465.14	8781.69
465.32	9212.35
465.50	9177.24
465.69	9219.37
465.87	9071.92
466.05	9184.26
466.23	9053.19
466.41	9179.58
466.60	9245.12
466.78	9081.28
466.96	8964.25
467.14	9249.80
467.32	9298.95
467.51	9418.32
467.69	9184.26
467.87	9284.91
468.05	9455.76
468.23	9364.48
468.41	9310.65
468.60	9511.94
468.78	9483.85
468.96	9509.60
469.14	9652.37
469.32	9577.47
469.50	9413.63
469.69	9621.94
469.87	9661.73
470.05	9724.93
470.23	9996.43
470.41	9881.74
470.59	9961.32
470.77	9816.21
470.95	9942.60
471.14	10108.77
471.32	9886.42
471.50	10366.23
471.68	10244.52
471.86	10221.12
472.04	10345.17
472.22	10363.89
472.40	10080.69
472.58	10153.24
472.77	10359.21
472.95	10469.22
473.13	10820.30
473.31	10260.91
473.49	10614.33
473.67	10399.00
473.85	10703.27
474.03	10890.51
474.21	10927.96
474.39	11047.33
474.57	11007.54
474.75	11150.31
474.93	11033.29
475.12	11002.86
475.30	11171.38
475.48	11084.78
475.66	11194.78
475.84	11068.39
476.02	11389.05
476.20	11234.57
476.38	11564.59
476.56	11688.64
476.74	11489.69
476.92	11707.36
477.10	11716.72
477.28	12067.80
477.46	11819.71
477.64	11971.84
477.82	12325.26
478.00	12631.87
478.18	12526.55
478.36	12514.84
478.54	12674.00
478.72	12800.39
478.90	12924.44
479.08	12781.67
479.26	13074.23
479.44	13177.22
479.62	13135.09
479.80	12924.44
479.98	13097.64
480.16	13650.00
480.34	13500.21
480.52	13584.47
480.70	13645.32
480.88	13621.92
481.06	13848.95
481.24	13610.22
481.41	14075.98
481.59	14195.35
481.77	14216.41
481.95	14420.04
482.13	14537.07
482.31	14373.23
482.49	14820.27
482.67	14937.30
482.85	14668.14
483.03	14834.32
483.21	15262.63
483.39	15417.11
483.57	15351.57
483.74	15199.44
483.92	15370.30
484.10	15555.20
484.28	15908.62
484.46	15779.89
484.64	16035.01
484.82	15934.37
485.00	15859.47
485.18	16336.94
485.35	16226.93
485.53	16205.87
485.71	16236.30
485.89	16276.09
486.07	16166.08
486.25	16531.20
486.43	16870.58
486.61	16910.37
486.78	17015.69
486.96	17106.98
487.14	17287.20
487.32	17301.24
487.50	17563.38
487.68	17839.56
487.85	17982.34
488.03	18312.35
488.21	18310.01
488.39	18288.95
488.57	18286.61
488.75	18696.20
488.92	19152.60
489.10	19194.73
489.28	19075.37
489.46	19609.01
489.64	19632.41
489.81	19924.98
489.99	19964.77
490.17	20194.14
490.35	20269.04
490.53	20231.59
490.70	20451.60
490.88	20297.13
491.06	20638.84
491.24	20336.91
491.41	20690.34
491.59	20446.92
491.77	20500.75
491.95	20601.40
492.13	21060.14
492.30	21312.92
492.48	21509.52
492.66	21715.49
492.84	21741.24
493.01	21668.68
493.19	21972.95
493.37	21977.63
493.54	21923.80
493.72	22581.49
493.90	22522.98
494.08	22551.06
494.25	22757.03
494.43	23049.60
494.61	22963.00
494.79	23178.33
494.96	23037.89
495.14	23314.08
495.32	23276.63
495.49	23501.32
495.67	23585.58
495.85	23735.37
496.02	23688.56
496.20	24159.01
496.38	24245.61
496.55	24528.81
496.73	25088.20
496.91	24723.08
497.09	24805.00
497.26	24699.67
497.44	24891.60
497.62	24936.07
497.79	25326.94
497.97	24982.88
498.14	25207.57
498.32	25186.50
498.50	25443.96
498.67	25989.31
498.85	25869.94
499.03	26043.14
499.20	25841.85
499.38	26361.45
499.56	26211.66
499.73	26087.61
499.91	26031.44
500.08	26705.51
500.26	26438.69
500.44	26272.51
500.61	26450.39
500.79	25888.67
500.97	26724.24
501.14	27218.09
501.32	27009.78
501.49	26988.72
501.67	27056.59
501.84	26958.29
502.02	27278.94
502.20	27192.34
502.37	27421.72
502.55	27384.27
502.72	27611.30
502.90	27758.75
503.07	27604.28
503.25	27812.59
503.43	27786.84
503.60	28187.07
503.78	27711.94
503.95	27702.58
504.13	28067.70
504.30	28304.10
504.48	28210.48
504.65	28725.39
504.83	29184.14
505.01	28933.70
505.18	29008.60
505.36	29476.71
505.53	28790.93
505.71	29582.03
505.88	29572.67
506.06	29387.77
506.23	29415.85
506.41	29034.35
506.58	29708.42
506.76	29656.93
506.93	29575.01
507.11	29565.65
507.28	29738.85
507.46	29563.31
507.63	29572.67
507.81	30118.01
507.98	29724.80
508.16	29928.43
508.33	30419.94
508.50	30209.29
508.68	30576.76
508.85	30967.63
509.03	30801.45
509.20	30658.68
509.38	30745.28
509.55	31061.25
509.73	30930.18
509.90	31192.32
510.08	30799.11
510.25	31101.04
510.42	31365.52
510.60	31393.61
510.77	31583.19
510.95	32067.68
511.12	31796.18
511.30	31658.09
511.47	31880.44
511.64	31960.02
511.82	32226.84
511.99	31828.95
512.17	31770.43
512.34	31868.73
512.51	32400.04
512.69	32470.25
512.86	32325.14
513.04	32720.69
513.21	32233.86
513.38	32636.43
513.56	32807.29
513.73	32762.82
513.90	32610.68
514.08	32589.62
514.25	32652.81
514.43	32889.21
514.60	32713.67
514.77	33251.99
514.95	33284.76
515.12	33151.35
515.29	33017.94
515.47	33500.09
515.64	34047.77
515.81	33160.71
515.99	33989.26
516.16	33703.71
516.33	33195.82
516.51	33656.90
516.68	32992.19
516.85	33064.75
517.03	33160.71
517.20	33930.75
517.37	34363.75
517.54	34541.63
517.72	33795.00
517.89	33464.98
518.06	33546.90
518.24	34005.64
518.41	34202.25
518.58	34295.87
518.75	34260.76
518.93	34660.99
519.10	34712.49
519.27	34696.10
519.45	34902.07
519.62	35182.93
519.79	35473.16
519.96	34808.45
520.14	34838.87
520.31	35002.71
520.48	35339.75
520.65	34932.50
520.83	35744.66
521.00	35604.23
521.17	35641.68
521.34	35941.27
521.52	35613.59
521.69	35557.42
521.86	36070.00
522.03	35931.90
522.20	35967.01
522.38	35810.20
522.55	35917.86
522.72	35718.92
522.89	35655.72
523.07	36535.76
523.24	36383.63
523.41	36341.50
523.58	36364.90
523.75	36699.60
523.92	36999.19
524.10	36989.83
524.27	37294.10
524.44	37153.66
524.61	36900.89
524.78	37268.35
524.96	37031.96
525.13	37113.87
525.30	37123.24
525.47	37759.86
525.64	37062.38
525.81	37329.20
525.98	37523.47
526.16	36636.41
526.33	36755.77
526.50	37457.93
526.67	36926.63
526.84	36741.73
527.01	37163.03
527.18	37373.67
527.36	37647.52
527.53	37799.65
527.70	37954.13
527.87	37909.66
528.04	38213.93
528.21	38291.16
528.38	38014.98
528.55	38345.00
528.72	38630.54
528.89	38539.26
529.07	38597.77
529.24	37560.92
529.41	38600.12
529.58	38778.00
529.75	38602.46
529.92	38672.67
530.09	38595.43
530.26	39133.76
530.43	38611.82
530.60	39047.16
530.77	38609.48
530.94	39541.01
531.11	39070.56
531.28	39161.84
531.46	39093.97
531.63	39239.08
531.80	38920.77
531.97	39213.34
532.14	39295.25
532.31	38955.88
532.48	38836.51
532.65	39246.10
532.82	39068.22
532.99	39571.44
533.16	39304.62
533.33	40322.75
533.50	39126.74
533.67	39358.45
533.84	39536.33
534.01	39531.65
534.18	39459.09
534.35	40116.78
534.52	39955.29
534.69	40341.47
534.86	40407.01
535.03	40119.12
535.20	40421.05
535.37	40156.57
535.54	40715.96
535.71	40205.72
535.88	40299.34
536.05	40336.79
536.22	40540.42
536.38	40603.61
536.55	40666.81
536.72	40179.98
536.89	40383.60
537.06	40339.13
537.23	40671.49
537.40	40329.77
537.57	40575.53
537.74	40891.50
537.91	41359.61
538.08	41200.45
538.25	40854.05
538.42	40540.42
538.59	41148.96
538.75	40914.90
538.92	40622.34
539.09	40999.16
539.26	41226.20
539.43	41202.79
539.60	41069.38
539.77	40807.24
539.94	41191.09
540.11	41425.14
540.28	40961.72
540.44	41553.87
540.61	41537.49
540.78	41380.67
540.95	41305.77
541.12	40987.46
541.29	41390.03
541.46	41855.80
541.62	41706.01
541.79	41436.84
541.96	40968.74
542.13	41572.60
542.30	41708.35
542.47	41797.29
542.63	41588.98
542.80	41984.53
542.97	42305.18
543.14	42525.19
543.31	41930.70
543.48	41916.65
543.64	42312.20
543.81	42363.70
543.98	42429.23
544.15	42473.70
544.32	42569.66
544.48	42794.36
544.65	42628.18
544.82	42618.81
544.99	42216.24
545.16	42548.60
545.32	42033.68
545.49	42768.61
545.66	42799.04
545.83	42960.53
546.00	42726.48
546.16	42651.58
546.33	42504.13
546.50	42234.97
546.67	42693.71
546.83	42749.88
547.00	43370.13
547.17	42789.67
547.34	42841.17
547.50	42902.02
547.67	43374.81
547.84	43133.73
548.00	43342.04
548.17	43161.82
548.34	43587.80
548.51	43711.84
548.67	43929.51
548.84	43508.22
549.01	43229.69
549.18	43536.30
549.34	43164.16
549.51	43147.78
549.68	43494.18
549.84	43264.80
550.01	43636.95
550.18	43316.29
550.34	43143.09
550.51	43615.88
550.68	43522.26
550.84	43306.93
551.01	43798.44
551.18	43522.26
551.34	43985.69
551.51	43601.84
551.68	44100.37
551.84	44142.50
552.01	43606.52
552.18	43758.66
552.34	43601.84
552.51	43924.83
552.68	43885.04
552.84	43770.36
553.01	44584.86
553.18	44189.31
553.34	44037.18
553.51	44044.20
553.67	44186.97
553.84	44446.77
554.01	44421.03
554.17	44278.25
554.34	44179.95
554.51	44371.88
554.67	44135.48
554.84	44488.90
555.00	44282.94
555.17	44210.38
555.33	44421.03
555.50	44573.16
555.67	44629.34
555.83	44690.19
556.00	44954.67
556.16	44933.60
556.33	44638.70
556.50	44732.32
556.66	44233.78
556.83	44114.42
556.99	44942.97
557.16	44634.02
557.32	44748.70
557.49	44952.33
557.65	44060.58
557.82	44591.89
557.98	44524.01
558.15	44891.48
558.32	45312.77
558.48	44563.80
558.65	44987.44
558.81	44575.50
558.98	44711.25
559.14	44598.91
559.31	44570.82
559.47	45024.89
559.64	45041.27
559.80	45090.42
559.97	44837.64
560.13	44133.14
560.30	44945.31
560.46	45067.02
560.63	45181.70
560.79	45085.74
560.96	45701.30
561.12	45031.91
561.29	44952.33
561.45	44612.95
561.61	44928.92
561.78	44708.91
561.94	44793.17
562.11	44741.68
562.27	45102.12
562.44	45301.07
562.60	45247.24
562.77	45139.57
562.93	44954.67
563.10	45352.56
563.26	45081.06
563.42	45099.78
563.59	45088.08
563.75	45319.79
563.92	45301.07
564.08	45036.59
564.24	45270.64
564.41	45490.65
564.57	45041.27
564.74	45364.26
564.90	45532.78
565.07	45078.72
565.23	45160.64
565.39	45354.90
565.56	45324.47
565.72	44914.88
565.88	45511.72
566.05	45125.53
566.21	44949.99
566.38	45294.05
566.54	45287.03
566.70	46028.98
566.87	45876.84
567.03	45172.34
567.19	45610.02
567.36	45401.71
567.52	45251.92
567.68	45504.70
567.85	45408.73
568.01	45968.12
568.17	45633.42
568.34	45687.26
568.50	45551.51
568.66	45474.27
568.83	45832.37
568.99	45315.11
569.15	45471.93
569.32	45219.15
569.48	45102.12
569.64	45757.47
569.81	45553.85
569.97	45989.19
570.13	45448.52
570.30	45324.47
570.46	45474.27
570.62	45207.45
570.78	45120.85
570.95	45027.23
571.11	45439.16
571.27	45062.33
571.43	45354.90
571.60	45500.01
571.76	45167.66
571.92	45375.97
572.09	45837.05
572.25	45900.25
572.41	45553.85
572.57	45687.26
572.74	46319.20
572.90	46021.95
573.06	46068.76
573.22	45495.33
573.38	45825.35
573.55	45523.42
573.71	45881.52
573.87	45958.76
574.03	45481.29
574.20	45762.15
574.36	45617.04
574.52	45659.17
574.68	45390.01
574.84	45656.83
575.01	45605.34
575.17	45956.42
575.33	45617.04
575.49	45771.52
575.65	45500.01
575.82	45904.93
575.98	45743.43
576.14	45820.67
576.30	45647.47
576.46	45645.13
576.62	45654.49
576.79	45617.04
576.95	45380.65
577.11	45595.98
577.27	45612.36
577.43	45544.48
577.59	45572.57
577.75	45380.65
577.92	45216.81
578.08	45518.74
578.24	45420.44
578.40	45551.51
578.56	45542.14
578.72	45780.88
578.88	45921.31
579.04	45911.95
579.21	45511.72
579.37	45801.94
579.53	45965.78
579.69	45507.04
579.85	45549.17
580.01	45272.98
580.17	45703.64
580.33	46057.06
580.49	45841.73
580.65	45595.98
580.82	45738.75
580.98	45823.01
581.14	45544.48
581.30	45965.78
581.46	45820.67
581.62	45495.33
581.78	45387.67
581.94	45860.46
582.10	45698.96
582.26	46054.72
582.42	45848.75
582.58	45797.26
582.74	45610.02
582.90	46197.49
583.06	45900.25
583.22	46036.00
583.38	45785.56
583.54	46113.23
583.70	45991.53
583.86	45813.65
584.02	45567.89
584.18	45888.54
584.34	45654.49
584.50	45422.78
584.66	45935.35
584.82	45813.65
584.98	46024.29
585.14	46382.40
585.30	45633.42
585.46	45965.78
585.62	45773.86
585.78	45792.58
585.94	45668.53
586.10	45773.86
586.26	45755.13
586.42	46316.86
586.58	45918.97
586.74	45752.79
586.90	46117.92
587.06	45701.30
587.22	46040.68
587.38	46033.66
587.54	46012.59
587.70	45736.41
587.86	45734.07
588.02	45762.15
588.18	45925.99
588.34	46106.21
588.49	45708.32
588.65	45144.25
588.81	45195.74
588.97	45394.69
589.13	45439.16
589.29	45359.58
589.45	45415.76
589.61	45694.28
589.77	46363.67
589.93	45790.24
590.08	45762.15
590.24	45902.59
590.40	45682.58
590.56	45921.31
590.72	46272.39
590.88	45925.99
591.04	46052.38
591.20	46253.67
591.35	46316.86
591.51	46131.96
591.67	45956.42
591.83	45839.39
591.99	45682.58
592.15	45886.20
592.31	46199.83
592.46	46064.08
592.62	46080.47
592.78	45600.66
592.94	45900.25
593.10	46089.83
593.26	46256.01
593.41	46146.00
593.57	45647.47
593.73	45724.71
593.89	45975.14
594.05	46490.06
594.20	45918.97
594.36	46246.65
594.52	46108.55
594.68	45991.53
594.84	45993.87
594.99	46078.13
595.15	45741.09
595.31	45727.05
595.47	46131.96
595.62	46108.55
595.78	46059.40
595.94	46174.09
596.10	45900.25
596.25	45918.97
596.41	45284.68
596.57	45977.48
596.73	45977.48
596.88	45839.39
597.04	45862.80
597.20	46256.01
597.36	46040.68
597.51	45830.03
597.67	45612.36
597.83	46003.23
597.99	46160.05
598.14	46101.53
598.30	45783.22
598.46	45771.52
598.61	46293.46
598.77	45633.42
598.93	45705.98
599.09	45923.65
599.24	46412.82
599.40	46518.15
599.56	45890.88
599.71	46314.52
599.87	46277.07
600.03	46237.28
600.18	46003.23
600.34	46167.07
600.50	45961.10
600.65	45799.60
600.81	45944.72
600.97	46237.28
601.12	46358.99
601.28	46380.06
601.44	45799.60
601.59	45839.39
601.75	45804.28
601.91	45982.16
602.06	45745.77
602.22	45584.27
602.37	46057.06
602.53	45771.52
602.69	46298.14
602.84	45790.24
603.00	46153.02
603.16	45867.48
603.31	45879.18
603.47	46089.83
603.62	45680.24
603.78	45900.25
603.94	46078.13
604.09	46384.74
604.25	46038.34
604.40	45675.55
604.56	45764.49
604.71	45874.50
604.87	46040.68
605.03	45689.60
605.18	45933.01
605.34	45801.94
605.49	45691.94
605.65	45954.08
605.80	45787.90
605.96	45694.28
606.12	45998.55
606.27	46085.15
606.43	45855.78
606.58	46099.19
606.74	45607.68
606.89	45483.63
607.05	45729.39
607.20	46059.40
607.36	45717.68
607.51	46028.98
607.67	45677.90
607.82	45780.88
607.98	45450.86
608.13	45305.75
608.29	45390.01
608.44	45233.19
608.60	45155.96
608.75	45546.82
608.91	45422.78
609.06	45542.14
609.22	45890.88
609.37	45563.21
609.53	45963.44
609.68	45907.27
609.84	45144.25
609.99	45469.59
610.15	45359.58
610.30	45757.47
610.46	45188.72
610.61	45357.24
610.76	45394.69
610.92	45656.83
611.07	45387.67
611.23	45500.01
611.38	45677.90
611.54	45579.59
611.69	45020.20
611.84	45261.28
612.00	45195.74
612.15	44783.81
612.31	45345.54
612.46	45109.14
612.62	45113.83
612.77	44980.42
612.92	45734.07
613.08	45188.72
613.23	44685.51
613.39	44421.03
613.54	44378.90
613.69	44694.87
613.85	44282.94
614.00	44818.92
614.15	44959.35
614.31	44978.07
614.46	45055.31
614.62	44870.41
614.77	44706.57
614.92	44722.96
615.08	44989.78
615.23	44697.21
615.38	44552.10
615.54	44746.36
615.69	45029.57
615.84	44346.13
616.00	44648.06
616.15	44687.85
616.30	44652.74
616.46	44435.07
616.61	44411.67
616.76	44013.77
616.92	44346.13
617.07	44528.69
617.22	43913.13
617.37	44027.82
617.53	44385.92
617.68	45034.25
617.83	44067.61
617.99	44435.07
618.14	44299.32
618.29	44086.33
618.45	44165.91
618.60	43686.10
618.75	43945.90
618.90	43650.99
619.06	43889.73
619.21	44027.82
619.36	44217.40
619.51	44072.29
619.67	44168.25
619.82	43676.74
619.97	43838.23
620.12	43723.55
620.28	43461.41
620.43	43847.60
620.58	44079.31
620.73	43985.69
620.89	43852.28
621.04	44182.29
621.19	44322.72
621.34	43428.64
621.49	43988.03
621.65	43592.48
621.80	43945.90
621.95	43768.02
622.10	43672.06
622.25	43854.62
622.41	43688.44
622.56	43571.41
622.71	43526.94
622.86	43751.63
623.01	43339.70
623.16	43309.27
623.32	43533.96
623.47	43063.52
623.62	43526.94
623.77	43157.14
623.92	43540.99
624.07	42955.85
624.23	43033.09
624.38	43185.22
624.53	42878.61
624.68	43370.13
624.83	43274.16
624.98	43086.92
625.13	42684.35
625.29	42902.02
625.44	42895.00
625.59	42866.91
625.74	42773.29
625.89	42649.24
626.04	42792.01
626.19	42792.01
626.34	42883.30
626.49	43304.59
626.65	42277.10
626.80	42621.16
626.95	42351.99
627.10	42312.20
627.25	42658.60
627.40	42356.67
627.55	42319.23
627.70	42497.11
627.85	42319.23
628.00	42656.26
628.15	42459.66
628.30	42258.37
628.45	42525.19
628.60	42480.72
628.76	42572.00
628.91	42328.59
629.06	42050.06
629.21	42047.72
629.36	42419.87
629.51	42094.53
629.66	42295.82
629.81	42178.79
629.96	42256.03
630.11	41942.40
630.26	42604.77
630.41	42003.25
630.56	41961.12
630.71	41886.23
630.86	42127.30
631.01	41397.06
631.16	42117.94
631.31	41577.28
631.46	41780.90
631.61	41504.72
631.76	41577.28
631.91	41977.51
632.06	42351.99
632.21	41900.27
632.36	41914.31
632.51	41780.90
632.66	41860.48
632.81	41415.78
632.96	41588.98
633.10	41600.68
633.25	41436.84
633.40	41280.03
633.55	41572.60
633.70	41460.25
633.85	41347.90
634.00	41565.57
634.15	41378.33
634.30	41270.67
634.45	41593.66
634.60	41053.00
634.75	40966.40
634.90	40994.48
635.05	41202.79
635.19	41172.36
635.34	41380.67
635.49	41635.79
635.64	41139.60
635.79	41010.87
635.94	40783.83
636.09	41085.76
636.24	40514.67
636.39	40741.71
636.53	40713.62
636.68	40685.53
636.83	41249.60
636.98	40966.40
637.13	41139.60
637.28	41125.55
637.43	41153.64
637.57	40865.75
637.72	40942.99
637.87	41024.91
638.02	40617.66
638.17	40472.54
638.32	40889.16
638.46	40751.07
638.61	40343.81
638.76	40697.24
638.91	40704.26
639.06	40392.97
639.20	40641.06
639.35	40627.02
639.50	40477.22
639.65	40226.79
639.80	40224.45
639.94	40268.92
640.09	40006.78
640.24	39974.01
640.39	40233.81
640.54	40472.54
640.68	39618.25
640.83	40107.42
640.98	39721.23
641.13	39880.39
641.27	40020.82
641.42	40179.98
641.57	40023.16
641.72	40275.94
641.86	39786.77
642.01	39791.45
642.16	39810.17
642.31	39777.40
642.45	40098.06
642.60	39545.69
642.75	39812.51
642.90	39941.24
643.04	39533.99
643.19	39529.31
643.34	39716.55
643.48	39409.94
643.63	39639.31
643.78	39599.52
643.93	39536.33
644.07	39201.63
644.22	39316.32
644.37	39400.58
644.51	39658.04
644.66	39367.81
644.81	39627.61
644.95	39576.12
645.10	39201.63
645.25	39569.10
645.39	39512.92
645.54	39395.90
645.69	38913.75
645.83	39150.14
645.98	39009.71
646.13	38792.04
646.27	39002.69
646.42	39196.95
646.57	39171.21
646.71	39159.50
646.86	39166.52
647.00	39260.15
647.15	38794.38
647.30	39194.61
647.44	39084.61
647.59	38923.11
647.74	38916.09
647.88	38745.23
648.03	38792.04
648.17	38728.84
648.32	38401.17
648.47	39089.29
648.61	38373.08
648.76	39047.16
648.90	39262.49
649.05	38485.43
649.20	38728.84
649.34	38932.47
649.49	38714.80
649.63	38555.64
649.78	38473.73
649.92	38527.56
650.07	38845.87
650.21	38419.89
650.36	38443.30
650.51	38747.57
650.65	38766.29
650.80	38930.13
650.94	38773.31
651.09	38094.56
651.23	38436.28
651.38	37869.87
651.52	38026.68
651.67	38249.03
651.81	38148.39
651.96	37879.23
652.10	38218.61
652.25	37949.45
652.39	38267.76
652.54	38291.16
652.68	38000.94
652.83	38052.43
652.97	38773.31
653.12	38309.89
653.26	37642.84
653.41	37996.26
653.55	38148.39
653.70	37919.02
653.84	38047.75
653.99	37673.26
654.13	37741.14
654.27	37413.46
654.42	38246.69
654.56	37247.29
654.71	37951.79
654.85	37741.14
655.00	38043.07
655.14	37160.69
655.29	37511.77
655.43	37310.48
655.57	36568.53
655.72	37024.93
655.86	36952.38
656.01	36875.14
656.15	36210.43
656.30	36753.43
656.44	37195.79
656.58	37256.65
656.73	36865.78
656.87	37095.15
657.01	36280.64
657.16	36802.58
657.30	36250.22
657.45	37048.34
657.59	36755.77
657.73	37006.21
657.88	36861.10
658.02	37043.66
658.16	36931.31
658.31	37027.28
658.45	36856.42
658.60	36765.14
658.74	37153.66
658.88	36896.20
659.03	36875.14
659.17	36327.45
659.31	36514.70
659.46	36292.35
659.60	36807.26
659.74	36449.16
659.89	36254.90
660.03	36278.30
660.17	36503.00
660.32	36636.41
660.46	36130.85
660.60	36350.86
660.74	36142.55
660.89	36231.49
661.03	35777.43
661.17	36123.83
661.32	36046.59
661.46	35990.42
661.60	35531.67
661.74	35613.59
661.89	35885.09
662.03	36100.42
662.17	35917.86
662.31	35962.33
662.46	36463.21
662.60	36149.57
662.74	35948.29
662.88	35545.72
663.03	35271.87
663.17	35559.76
663.31	35136.12
663.45	35264.85
663.60	35262.51
663.74	35133.78
663.88	35311.66
664.02	35227.40
664.17	34848.24
664.31	34883.34
664.45	35042.50
664.59	35040.16
664.73	34380.13
664.88	35145.48
665.02	34155.44
665.16	34370.77
665.30	34253.74
665.44	34490.13
665.59	34305.23
665.73	34773.34
665.87	34529.92
666.01	34670.36
666.15	34333.32
666.29	34403.53
666.44	34513.54
666.58	34368.43
666.72	34220.97
666.86	34293.53
667.00	34417.58
667.14	33865.21
667.28	34270.12
667.43	33970.54
667.57	34085.22
667.71	33670.95
667.85	33790.31
667.99	34059.48
668.13	34029.05
668.27	33446.26
668.41	33890.96
668.56	33589.03
668.70	33141.99
668.84	33490.73
668.98	33333.91
669.12	33352.63
669.26	33237.95
669.40	32943.04
669.54	33027.30
669.68	33097.52
669.82	32919.63
669.96	32683.24
670.10	32641.11
670.25	32985.17
670.39	32594.30
670.53	32437.48
670.67	32474.93
670.81	32882.19
670.95	32526.42
671.09	32357.91
671.23	32315.78
671.37	32673.88
671.51	32215.13
671.65	32252.58
671.79	31859.37
671.93	31515.31
672.07	32025.55
672.21	31941.29
672.35	31543.40
672.49	31714.26
672.63	32063.00
672.77	31702.56
672.91	31793.84
673.05	32013.85
673.19	31700.22
673.33	31599.57
673.47	31185.30
673.61	31386.58
673.75	31154.87
673.89	30834.22
674.03	31021.46
674.17	31136.15
674.31	31103.38
674.45	31206.36
674.59	31096.36
674.73	31295.30
674.87	31091.68
675.01	31145.51
675.15	30761.66
675.29	30696.13
675.43	30494.84
675.56	30529.95
675.70	30450.37
675.84	30363.77
675.98	29654.59
676.12	30497.18
676.26	30164.82
676.40	30199.93
676.54	30195.25
676.68	29984.60
676.82	29275.42
676.96	29771.61
677.10	29392.45
677.23	29652.25
677.37	29474.37
677.51	29481.39
677.65	29263.72
677.79	29085.84
677.93	28781.57
678.07	28835.40
678.21	28425.81
678.34	28760.50
678.48	28472.62
678.62	28339.21
678.76	27857.06
678.90	28020.89
679.04	28257.29
679.18	28341.55
679.31	27803.22
679.45	27634.71
679.59	27412.35
679.73	27690.88
679.87	27821.95
680.00	27953.02
680.14	27711.94
680.28	27868.76
680.42	27262.56
680.56	27253.20
680.70	27367.88
680.83	27335.12
680.97	26843.60
681.11	27309.37
681.25	26993.40
681.39	27002.76
681.52	26806.16
681.66	26930.20
681.80	26679.77
681.94	26632.96
682.07	26309.96
682.21	26188.25
682.35	26127.40
682.49	26326.35
682.62	26047.82
682.76	26050.16
682.90	25715.47
683.04	26059.52
683.17	26038.46
683.31	25692.06
683.45	25523.54
683.59	25434.60
683.72	25319.92
683.86	25685.04
684.00	25378.43
684.13	24786.27
684.27	24816.70
684.41	24903.30
684.55	24999.26
684.68	24826.06
684.82	24554.56
684.96	24975.86
685.09	24627.12
685.23	24575.62
685.37	24456.26
685.50	24332.21
685.64	24615.41
685.78	24311.14
685.91	24018.58
686.05	24074.75
686.19	23906.23
686.32	23697.92
686.46	23290.67
686.60	23140.88
686.73	23201.73
686.87	23274.29
687.01	23143.22
687.14	22768.73
687.28	23070.66
687.42	22731.28
687.55	22885.76
687.69	22951.29
687.82	22850.65
687.96	22696.17
688.10	22668.09
688.23	22520.63
688.37	22391.91
688.50	22441.06
688.64	22045.51
688.78	22274.88
688.91	22022.10
689.05	21935.50
689.18	21830.18
689.32	21778.68
689.46	21898.05
689.59	21998.70
689.73	22099.34
689.86	21713.15
690.00	21357.39
690.13	21275.47
690.27	21102.27
690.41	21048.44
690.54	21247.38
690.68	21284.83
690.81	21034.39
690.95	20996.95
691.08	20964.18
691.22	20772.25
691.35	20482.03
691.49	20741.83
691.62	20753.53
691.76	20638.84
691.89	20989.92
692.03	20423.51
692.16	20259.68
692.30	20142.65
692.43	20388.41
692.57	19857.10
692.70	19527.09
692.84	19728.38
692.97	19433.47
693.11	19580.92
693.24	19316.44
693.38	19491.98
693.51	19344.53
693.65	19569.22
693.78	19421.77
693.92	18663.43
694.05	19396.02
694.19	19358.57
694.32	19168.99
694.45	19152.60
694.59	18988.77
694.72	18906.85
694.86	18782.80
694.99	18602.58
695.13	18707.90
695.26	18574.49
695.39	18850.67
695.53	18492.57
695.66	18497.25
695.80	18429.38
695.93	18031.49
696.07	18111.07
696.20	18258.52
696.33	17884.03
696.47	17951.91
696.60	17893.40
696.73	17797.43
696.87	17549.34
697.00	17589.13
697.14	17504.87
697.27	17149.11
697.40	17436.99
697.54	17535.29
697.67	17310.60
697.80	17158.47
697.94	17053.14
698.07	16875.26
698.21	17034.42
698.34	17163.15
698.47	17296.56
698.61	16723.13
698.74	16905.69
698.87	16648.23
699.01	16631.85
699.14	16287.79
699.27	16084.16
699.40	16400.13
699.54	16215.23
699.67	15960.11
699.80	15716.70
699.94	15822.02
700.07	16329.92
700.20	16027.99
700.34	16191.83
700.47	15590.31
700.60	16067.78
700.73	15742.44
700.87	15602.01
701.00	15564.56
701.13	15386.68
701.26	15073.05
701.40	15234.55
701.53	15246.25
701.66	14892.83
701.79	14843.68
701.93	15101.14
702.06	14965.39
702.19	14677.50
702.32	14967.73
702.46	14743.03
702.59	14878.79
702.72	14733.67
702.85	14902.19
702.99	14775.80
703.12	14513.66
703.25	14127.47
703.38	14714.95
703.51	14721.97
703.65	14256.20
703.78	13841.93
703.91	13790.44
704.04	14024.49
704.17	14057.26
704.31	13720.22
704.44	13476.80
704.57	13715.54
704.70	13666.39
704.83	13687.45
704.96	13783.41
705.10	13528.30
705.23	13437.02
>>>>>End Processed Spectral Data<<<<<
