SpectraSuite Data File
++++++++++++++++++++++++++++++++++++
Date: Fri Oct 25 11:33:51 EDT 2013
User: price-jones
Dark Spectrum Present: No
Reference Spectrum Present: No
Number of Sampled Component Spectra: 1
Spectrometers: USB2+H05261
Integration Time (usec): 100000 (USB2+H05261)
Spectra Averaged: 1 (USB2+H05261)
Boxcar Smoothing: 0 (USB2+H05261)
Correct for Electrical Dark: No (USB2+H05261)
Strobe/Lamp Enabled: No (USB2+H05261)
Correct for Detector Non-linearity: No (USB2+H05261)
Correct for Stray Light: No (USB2+H05261)
Number of Pixels in Processed Spectrum: 2048
>>>>>Begin Processed Spectral Data<<<<<
365.73	311.29
365.92	311.29
366.12	311.29
366.32	231.71
366.52	128.73
366.72	196.60
366.91	159.16
367.11	138.09
367.31	189.58
367.51	215.33
367.70	217.67
367.90	205.97
368.10	175.54
368.30	220.01
368.49	198.95
368.69	173.20
368.89	152.13
369.09	205.97
369.28	138.09
369.48	201.29
369.68	257.46
369.87	280.86
370.07	187.24
370.27	231.71
370.47	346.40
370.66	421.30
370.86	533.64
371.06	557.05
371.25	599.18
371.45	540.66
371.65	533.64
371.84	617.90
372.04	491.51
372.24	596.84
372.44	564.07
372.63	601.52
372.83	573.43
373.03	557.05
373.22	620.24
373.42	648.33
373.62	606.20
373.81	690.46
374.01	716.20
374.21	692.80
374.40	615.56
374.60	664.71
374.79	653.01
374.99	596.84
375.19	638.97
375.38	655.35
375.58	683.44
375.78	645.99
375.97	674.07
376.17	631.94
376.37	744.29
376.56	709.18
376.76	655.35
376.95	699.82
377.15	685.78
377.35	695.14
377.54	739.61
377.74	685.78
377.93	653.01
378.13	760.67
378.33	732.59
378.52	760.67
378.72	727.91
378.91	751.31
379.11	674.07
379.31	741.95
379.50	737.27
379.70	748.97
379.89	772.38
380.09	734.93
380.28	706.84
380.48	713.86
380.68	718.54
380.87	755.99
381.07	753.65
381.26	805.14
381.46	716.20
381.65	709.18
381.85	798.12
382.04	837.91
382.24	788.76
382.43	751.31
382.63	737.27
382.83	741.95
383.02	875.36
383.22	861.32
383.41	823.87
383.61	795.78
383.80	828.55
384.00	821.53
384.19	720.88
384.39	844.93
384.58	793.44
384.78	847.27
384.97	795.78
385.17	758.33
385.36	816.85
385.56	826.21
385.75	758.33
385.95	917.49
386.14	858.98
386.34	858.98
386.53	910.47
386.72	774.72
386.92	931.53
387.11	908.13
387.31	957.28
387.50	936.21
387.70	863.66
387.89	940.90
388.09	854.30
388.28	854.30
388.48	924.51
388.67	1048.56
388.86	961.96
389.06	919.83
389.25	905.79
389.45	924.51
389.64	903.45
389.84	1004.09
390.03	945.58
390.22	968.98
390.42	968.98
390.61	983.02
390.81	931.53
391.00	912.81
391.19	957.28
391.39	976.00
391.58	957.28
391.78	966.64
391.97	1008.77
392.16	1069.62
392.36	1118.78
392.55	1048.56
392.75	1067.28
392.94	976.00
393.13	1015.79
393.33	997.07
393.52	994.73
393.71	1034.52
393.91	1135.16
394.10	1071.97
394.29	1093.03
394.49	1086.01
394.68	1151.54
394.88	1118.78
395.07	1102.39
395.26	1069.62
395.46	1048.56
395.65	1095.37
395.84	1170.27
396.04	1160.91
396.23	1170.27
396.42	1095.37
396.62	1308.36
396.81	1252.19
397.00	1296.66
397.19	1224.10
397.39	1228.78
397.58	1137.50
397.77	1205.38
397.97	1284.95
398.16	1210.06
398.35	1299.00
398.55	1240.48
398.74	1411.34
398.93	1252.19
399.12	1376.24
399.32	1273.25
399.51	1270.91
399.70	1366.87
399.90	1310.70
400.09	1380.92
400.28	1338.79
400.47	1296.66
400.67	1373.89
400.86	1441.77
401.05	1397.30
401.24	1338.79
401.44	1423.05
401.63	1425.39
401.82	1481.56
402.01	1453.47
402.21	1455.81
402.40	1472.20
402.59	1432.41
402.78	1619.65
402.97	1617.31
403.17	1575.18
403.36	1614.97
403.55	1455.81
403.74	1610.29
403.93	1694.55
404.13	1640.72
404.32	1577.52
404.51	1556.46
404.70	1624.33
404.89	1732.00
405.09	1689.87
405.28	1724.97
405.47	1724.97
405.66	1750.72
405.85	1692.21
406.05	1729.66
406.24	1598.59
406.43	1687.53
406.62	1783.49
406.81	1919.24
407.00	1797.53
407.20	1816.26
407.39	1811.57
407.58	1942.64
407.77	1727.32
407.96	1804.55
408.15	1851.36
408.34	1776.47
408.54	1853.70
408.73	1813.92
408.92	1935.62
409.11	1954.35
409.30	1963.71
409.49	2019.88
409.68	2017.54
409.87	2022.22
410.07	2050.31
410.26	2059.67
410.45	1982.43
410.64	1996.48
410.83	2010.52
411.02	2181.38
411.21	2246.91
411.40	2211.81
411.59	2127.55
411.78	2253.94
411.98	2125.21
412.17	2167.34
412.36	2228.19
412.55	2282.02
412.74	2293.72
412.93	2338.20
413.12	2277.34
413.31	2408.41
413.50	2375.64
413.69	2352.24
413.88	2394.37
414.07	2420.11
414.26	2399.05
414.45	2586.29
414.64	2555.86
414.83	2565.23
415.02	2448.20
415.22	2698.64
415.41	2537.14
415.60	2637.78
415.79	2597.99
415.98	2686.94
416.17	2729.06
416.36	2616.72
416.55	2764.17
416.74	2736.09
416.93	2801.62
417.12	2913.97
417.31	2855.45
417.50	2897.58
417.69	3021.63
417.88	2792.26
418.07	2874.18
418.26	2951.42
418.45	2972.48
418.64	3054.40
418.83	2958.44
419.02	2972.48
419.21	3038.02
419.39	3091.85
419.58	3159.72
419.77	3049.72
419.96	3096.53
420.15	3180.79
420.34	3211.22
420.53	3112.91
420.72	3152.70
420.91	3218.24
421.10	3243.98
421.29	3173.77
421.48	3293.13
421.67	3304.84
421.86	3370.37
422.05	3316.54
422.24	3225.26
422.43	3421.86
422.61	3382.07
422.80	3396.12
422.99	3473.36
423.18	3372.71
423.37	3463.99
423.56	3449.95
423.75	3412.50
423.94	3316.54
424.13	3281.43
424.32	3307.18
424.50	3468.67
424.69	3356.33
424.88	3454.63
425.07	3433.57
425.26	3435.91
425.45	3534.21
425.64	3391.44
425.83	3499.10
426.01	3440.59
426.20	3400.80
426.39	3447.61
426.58	3412.50
426.77	3445.27
426.96	3531.87
427.15	3520.17
427.33	3604.42
427.52	3463.99
427.71	3691.02
427.90	3531.87
428.09	3742.52
428.28	3672.30
428.46	3648.90
428.65	3665.28
428.84	3775.28
429.03	3801.03
429.22	3644.21
429.40	3646.55
429.59	3744.86
429.78	3648.90
429.97	3609.11
430.16	3721.45
430.34	3896.99
430.53	3889.97
430.72	3918.06
430.91	3754.22
431.10	3744.86
431.28	3948.48
431.47	3936.78
431.66	3901.67
431.85	3920.40
432.03	4018.70
432.22	4184.88
432.41	4007.00
432.60	3988.27
432.79	4023.38
432.97	4257.43
433.16	4109.98
433.35	3911.04
433.54	4161.47
433.72	4114.66
433.91	4140.41
434.10	4278.50
434.28	4138.07
434.47	4304.25
434.66	4198.92
434.85	4449.36
435.03	4280.84
435.22	4318.29
435.41	4472.76
435.59	4386.16
435.78	4461.06
435.97	4365.10
436.16	4367.44
436.34	4390.84
436.53	4348.72
436.72	4430.63
436.90	4435.32
437.09	4580.43
437.28	4454.04
437.46	4533.62
437.65	4634.26
437.84	4582.77
438.02	4667.03
438.21	4638.94
438.40	4629.58
438.58	4774.69
438.77	4798.10
438.96	4741.93
439.14	4903.42
439.33	4959.60
439.52	4990.02
439.70	4837.89
439.89	4980.66
440.08	5067.26
440.26	5109.39
440.45	5036.83
440.63	5050.88
440.82	5135.14
441.01	4978.32
441.19	5153.86
441.38	5011.09
441.57	5153.86
441.75	5221.74
441.94	5322.38
442.12	5390.25
442.31	5394.93
442.50	5397.28
442.68	5336.42
442.87	5359.83
443.05	5533.03
443.24	5575.16
443.43	5476.85
443.61	5439.40
443.80	5729.63
443.98	5474.51
444.17	5242.80
444.35	5626.65
444.54	5736.65
444.73	5565.79
444.91	5563.45
445.10	5647.71
445.28	5680.48
445.47	5652.39
445.65	5717.93
445.84	5647.71
446.02	5600.90
446.21	5582.18
446.39	5624.31
446.58	5694.52
446.77	5750.70
446.95	5710.91
447.14	5823.25
447.32	5818.57
447.51	5720.27
447.69	5746.02
447.88	5769.42
448.06	5715.59
448.25	5790.49
448.43	5846.66
448.62	5743.67
448.80	5832.62
448.99	5834.96
449.17	5944.96
449.36	5844.32
449.54	5827.93
449.73	5984.75
449.91	6061.99
450.10	6104.12
450.28	6200.08
450.46	6118.16
450.65	6010.50
450.83	6188.38
451.02	6148.59
451.20	6272.64
451.39	6326.47
451.57	6069.01
451.76	6104.12
451.94	6265.61
452.13	6104.12
452.31	6382.64
452.49	6242.21
452.68	6148.59
452.86	6265.61
453.05	6537.12
453.23	6352.21
453.42	6413.07
453.60	6403.71
453.78	6401.37
453.97	6370.94
454.15	6286.68
454.34	6427.11
454.52	6537.12
454.70	6504.35
454.89	6530.09
455.07	6684.57
455.26	6586.27
455.44	6600.31
455.62	6640.10
455.81	6614.35
455.99	6780.53
456.17	6764.15
456.36	6668.19
456.54	6717.34
456.73	6857.77
456.91	7014.59
457.09	7042.67
457.28	7103.53
457.46	6897.56
457.64	6930.33
457.83	7180.76
458.01	6993.52
458.19	7269.70
458.38	7199.49
458.56	7162.04
458.74	7218.21
458.93	7169.06
459.11	7178.42
459.29	7183.10
459.48	7243.96
459.66	7258.00
459.84	7424.18
460.03	7288.43
460.21	7290.77
460.39	7323.54
460.57	7258.00
460.76	7496.74
460.94	7501.42
461.12	7487.37
461.31	7625.47
461.49	7220.55
461.67	7307.15
461.85	7555.25
462.04	7564.61
462.22	8039.74
462.40	7803.35
462.59	7632.49
462.77	7667.60
462.95	7660.57
463.13	7691.00
463.32	7676.96
463.50	7868.88
463.68	7960.16
463.86	7985.91
464.05	7712.07
464.23	7695.68
464.41	7861.86
464.59	7833.77
464.78	8016.33
464.96	8079.53
465.14	7920.37
465.32	7882.92
465.50	8133.36
465.69	8072.51
465.87	8124.00
466.05	8114.64
466.23	8042.08
466.41	8168.47
466.60	8348.69
466.78	8135.70
466.96	8191.88
467.14	8290.18
467.32	8383.80
467.51	8418.91
467.69	8065.49
467.87	8344.01
468.05	8468.06
468.23	8271.45
468.41	8353.37
468.60	8229.32
468.78	8578.06
468.96	8461.04
469.14	8437.63
469.32	8681.05
469.50	8463.38
469.69	8606.15
469.87	8524.23
470.05	8624.87
470.23	8676.37
470.41	8636.58
470.59	8844.88
470.77	8727.86
470.95	8751.26
471.14	9057.87
471.32	8858.93
471.50	9088.30
471.68	9006.38
471.86	9055.53
472.04	9228.73
472.22	9240.44
472.40	8926.80
472.58	9355.12
472.77	9310.65
472.95	9238.09
473.13	9540.02
473.31	9413.63
473.49	9228.73
473.67	9434.70
473.85	9500.23
474.03	9710.88
474.21	9556.41
474.39	9659.39
474.57	9886.42
474.75	9748.33
474.93	10178.99
475.12	9867.70
475.30	10015.15
475.48	9914.51
475.66	9966.00
475.84	10066.64
476.02	10188.35
476.20	10267.93
476.38	10340.49
476.56	10497.30
476.74	10581.56
476.92	10490.28
477.10	10462.19
477.28	10689.23
477.46	10693.91
477.64	10738.38
477.82	10846.04
478.00	11122.23
478.18	11047.33
478.36	10834.34
478.54	11222.87
478.72	11494.37
478.90	11393.73
479.08	11569.27
479.26	11550.54
479.44	11817.36
479.62	11946.09
479.80	11599.70
479.98	11826.73
480.16	12292.49
480.34	12311.22
480.52	12198.87
480.70	12131.00
480.88	12187.17
481.06	12409.52
481.24	12362.71
481.41	12720.81
481.59	12662.30
481.77	12896.35
481.95	12840.18
482.13	13156.15
482.31	13025.08
482.49	13013.38
482.67	13172.54
482.85	13429.99
483.03	13556.38
483.21	13525.96
483.39	13783.41
483.57	13846.61
483.74	13940.23
483.92	14176.62
484.10	13851.29
484.28	14258.54
484.46	14274.93
484.64	14698.56
484.82	14436.42
485.00	14572.18
485.18	14707.93
485.35	14998.15
485.53	15246.25
485.71	14829.63
485.89	15475.62
486.07	15421.79
486.25	15616.05
486.43	15183.06
486.61	15470.94
486.78	15625.42
486.96	15765.85
487.14	16198.85
487.32	16173.10
487.50	16180.12
487.68	16510.14
487.85	16587.38
488.03	16615.46
488.21	16627.17
488.39	17088.25
488.57	16807.39
488.75	16985.27
488.92	17413.59
489.10	17474.44
489.28	17544.66
489.46	17853.61
489.64	17586.79
489.81	18125.11
489.99	18073.62
490.17	18097.02
490.35	18405.97
490.53	18572.15
490.70	18384.91
490.88	18284.26
491.06	18728.97
491.24	18728.97
491.41	19204.10
491.59	18813.23
491.77	19145.58
491.95	19494.32
492.13	19606.67
492.30	19487.30
492.48	19386.66
492.66	19754.12
492.84	19779.87
493.01	20168.40
493.19	19999.88
493.37	20353.30
493.54	20542.88
493.72	20526.50
493.90	20669.27
494.08	20734.81
494.25	20912.69
494.43	20732.47
494.61	21128.02
494.79	21312.92
494.96	21439.31
495.14	21621.87
495.32	21673.36
495.49	21696.77
495.67	21628.89
495.85	22017.42
496.02	21792.73
496.20	22295.94
496.38	22057.21
496.55	22054.87
496.73	22682.13
496.91	22616.60
497.09	22773.41
497.26	22855.33
497.44	22979.38
497.62	22902.14
497.79	23122.15
497.97	23307.05
498.14	23419.40
498.32	23548.13
498.50	23882.83
498.67	23756.44
498.85	23847.72
499.03	24049.00
499.20	23882.83
499.38	24051.34
499.56	24105.18
499.73	23950.70
499.91	24290.08
500.08	24444.56
500.26	24549.88
500.44	24577.97
500.61	24851.81
500.79	24711.38
500.97	24907.98
501.14	25336.30
501.32	25406.52
501.49	25057.78
501.67	25308.21
501.84	25380.77
502.02	25230.98
502.20	25504.82
502.37	25668.66
502.55	25621.84
502.72	25795.04
502.90	26155.49
503.07	25565.67
503.25	25991.65
503.43	25872.28
503.60	26448.05
503.78	26181.23
503.95	26143.78
504.13	26625.93
504.30	26457.42
504.48	26473.80
504.65	26621.25
504.83	26883.39
505.01	27213.41
505.18	27122.13
505.36	27080.00
505.53	27044.89
505.71	26817.86
505.88	27232.13
506.06	27304.69
506.23	27709.60
506.41	27908.55
506.58	27906.21
506.76	27679.18
506.93	27838.33
507.11	27960.04
507.28	27772.80
507.46	28037.28
507.63	28402.40
507.81	28418.78
507.98	28231.54
508.16	28201.11
508.33	28683.27
508.50	28954.77
508.68	28381.34
508.85	28947.75
509.03	28802.63
509.20	29092.86
509.38	29254.36
509.55	29401.81
509.73	29144.35
509.90	29130.31
510.08	29397.13
510.25	29539.90
510.42	29654.59
510.60	29736.51
510.77	29766.93
510.95	30096.95
511.12	29727.14
511.30	29827.79
511.47	29560.97
511.64	29986.94
511.82	30160.14
511.99	30572.08
512.17	30246.74
512.34	30373.13
512.51	30536.97
512.69	30546.33
512.86	30464.41
513.04	30721.87
513.21	30782.73
513.38	31035.50
513.56	31070.61
513.73	31290.62
513.90	31424.03
514.08	31105.72
514.25	31438.08
514.43	31428.71
514.60	31763.41
514.77	31419.35
514.95	31740.00
515.12	31697.88
515.29	31417.01
515.47	32252.58
515.64	31882.78
515.81	31796.18
515.99	32063.00
516.16	31873.42
516.33	32383.65
516.51	32383.65
516.68	32194.07
516.85	32664.52
517.03	32746.44
517.20	32250.24
517.37	32563.87
517.54	32896.23
517.72	32837.72
517.89	32687.92
518.06	32809.63
518.24	32872.82
518.41	32856.44
518.58	32966.45
518.75	33022.62
518.93	33097.52
519.10	33233.27
519.27	33390.08
519.45	33331.57
519.62	33670.95
519.79	33577.33
519.96	34075.86
520.14	33619.46
520.31	33680.31
520.48	33743.50
520.65	33888.62
520.83	34398.85
521.00	34132.03
521.17	33738.82
521.34	34260.76
521.52	34391.83
521.69	34326.30
521.86	34628.23
522.03	34471.41
522.20	34717.17
522.38	35044.84
522.55	34279.49
522.72	34595.46
522.89	34965.26
523.07	35044.84
523.24	34923.13
523.41	35232.08
523.58	34745.25
523.75	35456.78
523.92	35580.82
524.10	35009.73
524.27	35339.75
524.44	35709.55
524.61	35955.31
524.78	35510.61
524.96	35875.73
525.13	35974.03
525.30	35974.03
525.47	36196.38
525.64	35948.29
525.81	36041.91
525.98	36217.45
526.16	36170.64
526.33	36172.98
526.50	36762.79
526.67	36215.11
526.84	36730.03
527.01	36435.12
527.18	36566.19
527.36	36725.35
527.53	36402.35
527.70	36933.65
527.87	37125.58
528.04	36919.61
528.21	37034.30
528.38	36816.63
528.55	37024.93
528.72	37153.66
528.89	36903.23
529.07	37457.93
529.24	36905.57
529.41	37226.22
529.58	37216.86
529.75	37890.93
529.92	37317.50
530.09	37373.67
530.26	37579.64
530.43	37579.64
530.60	37397.08
530.77	37198.13
530.94	37635.81
531.11	37818.38
531.28	37914.34
531.46	37673.26
531.63	37984.55
531.80	37633.47
531.97	37869.87
532.14	38064.13
532.31	38033.71
532.48	38494.79
532.65	38450.32
532.82	38469.04
532.99	38403.51
533.16	38525.22
533.33	38667.99
533.50	38733.53
533.67	38377.76
533.84	38337.98
534.01	38244.35
534.18	38719.48
534.35	39108.01
534.52	39370.15
534.69	39194.61
534.86	39356.11
535.03	38745.23
535.20	38829.49
535.37	39391.22
535.54	39625.27
535.71	39000.35
535.88	39356.11
536.05	39269.51
536.22	39526.97
536.38	39438.03
536.55	40013.80
536.72	39494.20
536.89	39545.69
537.06	39185.25
537.23	40158.91
537.40	39447.39
537.57	39856.98
537.74	39763.36
537.91	40332.11
538.08	40055.93
538.25	39718.89
538.42	39754.00
538.59	40315.73
538.75	40437.44
538.92	40128.48
539.09	40584.89
539.26	40215.08
539.43	40318.07
539.60	40217.43
539.77	40652.76
539.94	40821.28
540.11	40587.23
540.28	40196.36
540.44	40769.79
540.61	40617.66
540.78	40357.86
540.95	41001.50
541.12	40753.41
541.29	40643.40
541.46	40505.31
541.62	40790.86
541.79	41179.39
541.96	40610.64
542.13	41181.73
542.30	40781.49
542.47	40989.80
542.63	41310.46
542.80	41439.18
542.97	41535.15
543.14	41453.23
543.31	41270.67
543.48	41411.10
543.64	41904.95
543.81	41811.33
543.98	41839.42
544.15	41848.78
544.32	42141.35
544.48	42426.89
544.65	42061.77
544.82	42415.19
544.99	41958.78
545.16	41961.12
545.32	41961.12
545.49	42321.57
545.66	42546.26
545.83	42293.48
546.00	42094.53
546.16	42494.77
546.33	41914.31
546.50	42234.97
546.67	42866.91
546.83	42050.06
547.00	42190.50
547.17	42513.49
547.34	42590.73
547.50	42616.47
547.67	42916.06
547.84	42988.62
548.00	42674.99
548.17	43433.32
548.34	42621.16
548.51	43292.89
548.67	42965.21
548.84	43072.88
549.01	42567.32
549.18	42850.53
549.34	43402.89
549.51	43592.48
549.68	43480.13
549.84	42981.60
550.01	43414.60
550.18	42895.00
550.34	43426.30
550.51	43697.80
550.68	43482.47
550.84	43302.25
551.01	43461.41
551.18	43896.75
551.34	43482.47
551.51	43583.12
551.68	43449.70
551.84	43531.62
552.01	43508.22
552.18	43943.56
552.34	43447.36
552.51	43934.20
552.68	43899.09
552.84	43821.85
553.01	44154.21
553.18	43613.54
553.34	43978.67
553.51	43894.41
553.67	44037.18
553.84	44186.97
554.01	44687.85
554.17	44346.13
554.34	44376.56
554.51	44170.59
554.67	44442.09
554.84	44591.89
555.00	44388.26
555.17	44371.88
555.33	44486.56
555.50	44416.35
555.67	44238.47
555.83	44580.18
556.00	44669.12
556.16	45031.91
556.33	44760.40
556.50	44865.73
556.66	44676.15
556.83	44325.07
556.99	45074.04
557.16	44636.36
557.32	44411.67
557.49	45057.65
557.65	44952.33
557.82	45106.80
557.98	44987.44
558.15	44561.46
558.32	45045.95
558.48	45291.71
558.65	44797.85
558.81	44868.07
558.98	45059.99
559.14	44381.24
559.31	45057.65
559.47	45214.47
559.64	45308.09
559.80	45207.45
559.97	45556.19
560.13	44889.13
560.30	45439.16
560.46	45649.81
560.63	45333.84
560.79	45837.05
560.96	45614.70
561.12	45354.90
561.29	45638.11
561.45	45591.30
561.61	45303.41
561.78	45448.52
561.94	45544.48
562.11	45808.96
562.27	45408.73
562.44	45741.09
562.60	45504.70
562.77	45631.08
562.93	45333.84
563.10	45691.94
563.26	45408.73
563.42	45996.21
563.59	45666.19
563.75	45687.26
563.92	46410.48
564.08	45654.49
564.24	46138.98
564.41	45808.96
564.57	45530.44
564.74	45942.38
564.90	45593.64
565.07	45670.87
565.23	45790.24
565.39	45860.46
565.56	46096.85
565.72	46211.54
565.88	46316.86
566.05	45804.28
566.21	46085.15
566.38	45696.62
566.54	45628.74
566.70	45815.99
566.87	46141.32
567.03	46138.98
567.19	46534.53
567.36	45893.22
567.52	46197.49
567.68	46277.07
567.85	45937.69
568.01	46291.12
568.17	46148.34
568.34	46497.08
568.50	46155.36
568.66	45965.78
568.83	45801.94
568.99	46380.06
569.15	46471.34
569.32	46220.90
569.48	45947.06
569.64	46979.23
569.81	46120.26
569.97	46312.18
570.13	46487.72
570.30	46160.05
570.46	46562.62
570.62	46527.51
570.78	46511.13
570.95	46351.97
571.11	46382.40
571.27	46780.29
571.43	46829.44
571.60	46717.09
571.76	46169.41
571.92	46293.46
572.09	46616.45
572.25	46316.86
572.41	46829.44
572.57	46461.97
572.74	46693.69
572.90	46597.73
573.06	46770.93
573.22	46466.66
573.38	46979.23
573.55	46806.03
573.71	46604.75
573.87	46529.85
574.03	46859.87
574.20	47012.00
574.36	46588.36
574.52	46782.63
574.68	46787.31
574.84	46841.14
575.01	46850.50
575.17	46972.21
575.33	46990.94
575.49	47037.75
575.65	46756.88
575.82	46834.12
575.98	47173.50
576.14	46930.08
576.30	46871.57
576.46	46974.55
576.62	46731.14
576.79	46983.91
576.95	46969.87
577.11	46604.75
577.27	46712.41
577.43	46113.23
577.59	46941.78
577.75	47030.72
577.92	46284.09
578.08	46876.25
578.24	47229.67
578.40	47012.00
578.56	46873.91
578.72	46667.94
578.88	47122.01
579.04	46590.70
579.21	46775.61
579.37	46543.89
579.53	47016.68
579.69	46415.16
579.85	46452.61
580.01	47107.96
580.17	47107.96
580.33	47021.36
580.49	46822.42
580.65	47049.45
580.82	46892.63
580.98	46974.55
581.14	46948.81
581.30	47363.08
581.46	46981.57
581.62	46777.95
581.78	46380.06
581.94	46913.70
582.10	46953.49
582.26	46916.04
582.42	46630.49
582.58	47274.14
582.74	47122.01
582.90	47117.32
583.06	47517.56
583.22	47147.75
583.38	46990.94
583.54	47136.05
583.70	47295.21
583.86	47365.42
584.02	47145.41
584.18	47323.29
584.34	47288.18
584.50	47316.27
584.66	47489.47
584.82	46902.00
584.98	47475.43
585.14	47346.70
585.30	47344.36
585.46	47241.37
585.62	46864.55
585.78	47320.95
585.94	46799.01
586.10	47126.69
586.26	47271.80
586.42	46993.28
586.58	47363.08
586.74	46990.94
586.90	46913.70
587.06	47290.52
587.22	47433.30
587.38	47131.37
587.54	47449.68
587.70	47842.89
587.86	47320.95
588.02	46965.19
588.18	47405.21
588.34	47189.88
588.49	46976.89
588.65	47267.12
588.81	46937.10
588.97	47339.68
589.13	47255.42
589.29	47290.52
589.45	47606.50
589.61	47730.54
589.77	47487.13
589.93	47559.69
590.08	47512.88
590.24	47894.38
590.40	47655.65
590.56	47653.31
590.72	47739.91
590.88	47433.30
591.04	47316.27
591.20	47971.62
591.35	47660.33
591.51	47997.37
591.67	47672.03
591.83	47845.23
591.99	47847.57
592.15	47290.52
592.31	47882.68
592.46	47620.54
592.62	47351.38
592.78	47672.03
592.94	47819.49
593.10	48018.43
593.26	48318.02
593.41	48086.31
593.57	48177.59
593.73	47538.62
593.89	48245.46
594.05	48081.63
594.20	48275.89
594.36	47929.49
594.52	48037.16
594.68	47669.69
594.84	47791.40
594.99	47725.86
595.15	47821.83
595.31	47718.84
595.47	47878.00
595.62	47833.53
595.78	47845.23
595.94	48208.01
596.10	47559.69
596.25	48009.07
596.41	48179.93
596.57	47667.35
596.73	48233.76
596.88	48205.67
597.04	48128.44
597.20	48374.19
597.36	47824.17
597.51	48004.39
597.67	47564.37
597.83	47952.90
597.99	48313.34
598.14	48072.26
598.30	48165.88
598.46	47861.61
598.61	48128.44
598.77	47971.62
598.93	48002.05
599.09	47817.14
599.24	48074.60
599.40	48083.97
599.56	48208.01
599.71	48566.12
599.87	48603.56
600.03	48348.45
600.18	48053.54
600.34	47739.91
600.50	47910.77
600.65	47852.25
600.81	48435.05
600.97	48418.66
601.12	47983.32
601.28	47941.19
601.44	48123.75
601.59	48268.87
601.75	47817.14
601.91	48327.38
602.06	47924.81
602.22	48479.52
602.37	47805.44
602.53	48090.99
602.69	48465.47
602.84	47840.55
603.00	47892.04
603.16	48236.10
603.31	48229.08
603.47	48423.34
603.62	48006.73
603.78	48158.86
603.94	48233.76
604.09	47938.85
604.25	48163.54
604.40	48325.04
604.56	48561.44
604.71	48540.37
604.87	47852.25
605.03	48247.80
605.18	47697.78
605.34	48367.17
605.49	47592.45
605.65	47901.40
605.80	48268.87
605.96	48083.97
606.12	48147.16
606.27	48378.87
606.43	47910.77
606.58	48236.10
606.74	47964.60
606.89	48350.79
607.05	48296.95
607.20	48289.93
607.36	47889.70
607.51	48098.01
607.67	47477.77
607.82	47545.64
607.98	47739.91
608.13	48046.52
608.29	47707.14
608.44	47992.68
608.60	47793.74
608.75	48034.81
608.91	48037.16
609.06	47894.38
609.22	48030.13
609.37	47896.72
609.53	47545.64
609.68	48154.18
609.84	47529.26
609.99	48058.22
610.15	47948.21
610.30	47847.57
610.46	47667.35
610.61	47978.64
610.76	48013.75
610.92	47840.55
611.07	47618.20
611.23	47679.05
611.38	47681.39
611.54	47831.19
611.69	47739.91
611.84	47517.56
612.00	47718.84
612.15	47592.45
612.31	47971.62
612.46	47599.47
612.62	47508.19
612.77	47519.90
612.92	48016.09
613.08	47646.29
613.23	47681.39
613.39	47353.72
613.54	47309.25
613.69	47342.02
613.85	47693.10
614.00	47316.27
614.15	47702.46
614.31	47007.32
614.46	47412.23
614.62	47613.52
614.77	47597.13
614.92	47227.33
615.08	47072.85
615.23	47239.03
615.38	47344.36
615.54	47208.61
615.69	47510.53
615.84	47503.51
616.00	47597.13
616.15	47178.18
616.30	47662.67
616.46	47145.41
616.61	47700.12
616.76	47379.46
616.92	46962.85
617.07	46920.72
617.22	47136.05
617.37	46604.75
617.53	47138.39
617.68	47023.70
617.83	46906.68
617.99	47475.43
618.14	46983.91
618.29	46569.64
618.45	46951.15
618.60	46871.57
618.75	46972.21
618.90	46717.09
619.06	46593.04
619.21	46932.42
619.36	46997.96
619.51	46787.31
619.67	46780.29
619.82	46899.65
619.97	47063.49
620.12	47124.35
620.28	46902.00
620.43	46707.73
620.58	46623.47
620.73	46810.71
620.89	46859.87
621.04	47016.68
621.19	46806.03
621.34	46691.35
621.49	46398.78
621.65	46773.27
621.80	46927.74
621.95	46141.32
622.10	46829.44
622.25	46108.55
622.41	46263.03
622.56	46452.61
622.71	46885.61
622.86	46232.60
623.01	46576.66
623.16	46312.18
623.32	46272.39
623.47	46686.67
623.62	46808.37
623.77	46234.94
623.92	46408.14
624.07	46227.92
624.23	46377.72
624.38	46302.82
624.53	46234.94
624.68	45645.13
624.83	45888.54
624.98	46272.39
625.13	46068.76
625.29	46178.77
625.44	45984.51
625.59	46162.39
625.74	46080.47
625.89	45724.71
626.04	45783.22
626.19	46192.81
626.34	45900.25
626.49	45591.30
626.65	45488.31
626.80	46059.40
626.95	45584.27
627.10	45507.04
627.25	45897.91
627.40	45977.48
627.55	45626.40
627.70	45392.35
627.85	46045.36
628.00	45818.33
628.15	45825.35
628.30	45034.25
628.45	45298.73
628.60	45411.07
628.76	45546.82
628.91	45446.18
629.06	45390.01
629.21	45277.66
629.36	44933.60
629.51	45420.44
629.66	45734.07
629.81	45174.68
629.96	45165.32
630.11	45420.44
630.26	45165.32
630.41	45305.75
630.56	45200.43
630.71	45556.19
630.86	45113.83
631.01	44701.89
631.16	44851.69
631.31	44940.63
631.46	44886.79
631.61	45366.60
631.76	45074.04
631.91	45027.23
632.06	45724.71
632.21	45212.13
632.36	45141.91
632.51	45027.23
632.66	45324.47
632.81	44760.40
632.96	45237.87
633.10	44865.73
633.25	44786.15
633.40	44739.34
633.55	44568.48
633.70	45333.84
633.85	44769.77
634.00	44348.47
634.15	44582.52
634.30	44610.61
634.45	44296.98
634.60	44554.44
634.75	45242.56
634.90	44552.10
635.05	44474.86
635.19	44360.17
635.34	44320.38
635.49	44074.63
635.64	44954.67
635.79	44659.76
635.94	44257.19
636.09	44741.68
636.24	44334.43
636.39	44217.40
636.53	44392.94
636.68	43985.69
636.83	44107.40
636.98	44158.89
637.13	43941.22
637.28	44109.74
637.43	43828.87
637.57	44540.39
637.72	43658.01
637.87	44126.12
638.02	44198.68
638.17	43908.45
638.32	44158.89
638.46	43241.40
638.61	43889.73
638.76	44114.42
638.91	43775.04
639.06	43908.45
639.20	43512.90
639.35	43548.01
639.50	43452.05
639.65	43395.87
639.80	43676.74
639.94	43658.01
640.09	43786.74
640.24	43264.80
640.39	43110.33
640.54	43461.41
640.68	43782.06
640.83	43578.43
640.98	43482.47
641.13	43152.46
641.27	44121.44
641.42	43812.49
641.57	43695.46
641.72	43292.89
641.86	43194.59
642.01	43208.63
642.16	43068.20
642.31	42944.15
642.45	43744.61
642.60	43416.94
642.75	42981.60
642.90	43384.17
643.04	43196.93
643.19	43159.48
643.34	43213.31
643.48	42880.95
643.63	43037.77
643.78	43042.45
643.93	43302.25
644.07	43049.47
644.22	42960.53
644.37	42895.00
644.51	43335.02
644.66	42396.46
644.81	42609.45
644.95	42689.03
645.10	42864.57
645.25	42621.16
645.39	42731.16
645.54	43047.13
645.69	42576.69
645.83	42440.93
645.98	42284.12
646.13	42703.07
646.27	42850.53
646.42	42408.17
646.57	42838.83
646.71	42686.69
646.86	42686.69
647.00	42375.40
647.15	42623.50
647.30	42557.96
647.44	42487.74
647.59	42363.70
647.74	42464.34
647.88	42143.69
648.03	42941.81
648.17	42394.12
648.32	42220.92
648.47	42794.36
648.61	42188.16
648.76	42117.94
648.90	42155.39
649.05	42099.22
649.20	42106.24
649.34	42476.04
649.49	42244.33
649.63	42181.13
649.78	42792.01
649.92	42377.74
650.07	42696.05
650.21	42564.98
650.36	42241.99
650.51	41940.06
650.65	42263.05
650.80	42387.10
650.94	42017.30
651.09	41799.63
651.23	41504.72
651.38	41258.96
651.52	41146.62
651.67	41872.18
651.81	41907.29
651.96	41464.93
652.10	41319.82
652.25	41443.87
652.39	41537.49
652.54	41759.84
652.68	41645.15
652.83	41722.39
652.97	41713.03
653.12	41481.31
653.26	41277.69
653.41	41303.43
653.55	41235.56
653.70	41518.76
653.84	41792.61
653.99	41778.56
654.13	41120.87
654.27	41254.28
654.42	41144.28
654.56	40797.88
654.71	41397.06
654.85	41296.41
655.00	41553.87
655.14	41771.54
655.29	41200.45
655.43	41191.09
655.57	41216.83
655.72	40926.61
655.86	40994.48
656.01	40533.40
656.15	41165.34
656.30	41017.89
656.44	41298.75
656.58	40889.16
656.73	40985.12
656.87	40676.17
657.01	40708.94
657.16	40446.80
657.30	40624.68
657.45	40617.66
657.59	40722.98
657.73	40781.49
657.88	40329.77
658.02	41343.22
658.16	40615.32
658.31	41043.63
658.45	40896.18
658.60	40231.47
658.74	40458.50
658.88	40500.63
659.03	40741.71
659.17	40444.46
659.31	40168.27
659.46	39988.05
659.60	40301.68
659.74	39995.07
659.89	39945.92
660.03	39864.00
660.17	39669.74
660.32	40072.31
660.46	39835.92
660.60	39686.12
660.74	39746.98
660.89	40133.17
661.03	39292.91
661.17	39768.04
661.32	39260.15
661.46	39374.83
661.60	39892.09
661.74	39541.01
661.89	39215.68
662.03	39557.39
662.17	39257.81
662.31	39145.46
662.46	39564.42
662.60	39093.97
662.74	38883.32
662.88	38932.47
663.03	38934.81
663.17	39051.84
663.31	38831.83
663.45	38766.29
663.60	39267.17
663.74	38731.18
663.88	38775.66
664.02	38490.11
664.17	38904.38
664.31	38579.05
664.45	38087.54
664.59	38766.29
664.73	38546.28
664.88	38637.56
665.02	38440.96
665.16	38462.02
665.30	37813.70
665.44	38232.65
665.59	38064.13
665.73	38202.22
665.87	38054.77
666.01	38174.14
666.15	38183.50
666.29	37584.32
666.44	37844.12
666.58	37596.03
666.72	37490.70
666.86	37780.93
667.00	37750.50
667.14	37347.93
667.28	37371.33
667.43	37490.70
667.57	37549.21
667.71	37188.77
667.85	37331.54
667.99	37301.12
668.13	36910.25
668.27	36669.17
668.41	37006.21
668.56	36203.41
668.70	36421.08
668.84	36196.38
668.98	36463.21
669.12	36631.72
669.26	36697.26
669.40	36275.96
669.54	36311.07
669.68	36638.75
669.82	36484.27
669.96	35831.26
670.10	35910.84
670.25	36442.14
670.39	36137.87
670.53	36491.29
670.67	36149.57
670.81	36449.16
670.95	35721.26
671.09	35569.12
671.23	35042.50
671.37	35620.61
671.51	35625.29
671.65	35508.27
671.79	35318.68
671.93	35379.54
672.07	35316.34
672.21	35157.19
672.35	35166.55
672.49	35225.06
672.63	35477.84
672.77	35042.50
672.91	35108.04
673.05	34857.60
673.19	34803.77
673.33	34506.52
673.47	34335.66
673.61	34298.21
673.75	34361.40
673.89	34401.19
674.03	34352.04
674.17	33874.57
674.31	33949.47
674.45	33928.41
674.59	33888.62
674.73	33975.22
674.87	33586.69
675.01	33362.00
675.15	33397.10
675.29	33273.06
675.43	33390.08
675.56	33495.41
675.70	33373.70
675.84	33432.21
675.98	32301.73
676.12	32980.49
676.26	33191.14
676.40	32823.67
676.54	32531.11
676.68	32371.95
676.82	31749.37
676.96	32554.51
677.10	32699.62
677.23	32290.03
677.37	32439.82
677.51	32318.12
677.65	32140.24
677.79	31545.74
677.93	31810.22
678.07	31470.84
678.21	31555.10
678.34	31615.96
678.48	31381.90
678.62	31501.27
678.76	31002.74
678.90	31227.43
679.04	31564.46
679.18	31250.83
679.31	30934.86
679.45	30864.64
679.59	30705.49
679.73	30895.07
679.87	30359.09
680.00	29907.37
680.14	30221.00
680.28	30403.56
680.42	29958.86
680.56	30036.09
680.70	30005.67
680.83	29528.20
680.97	29521.18
681.11	29699.06
681.25	29476.71
681.39	29352.66
681.52	29195.84
681.66	28826.04
681.80	28804.97
681.94	28716.03
682.07	28828.38
682.21	28636.45
682.35	28828.38
682.49	28510.07
682.62	28493.68
682.76	28259.63
682.90	28451.55
683.04	28210.48
683.17	28299.42
683.31	28203.46
683.45	28034.94
683.59	28013.87
683.72	27344.48
683.86	27555.13
684.00	27414.69
684.13	27402.99
684.27	27253.20
684.41	27023.83
684.55	27351.50
684.68	26848.29
684.82	26911.48
684.96	26995.74
685.09	26710.19
685.23	26874.03
685.37	26930.20
685.50	26721.90
685.64	26707.85
685.78	25993.99
685.91	26078.25
686.05	25991.65
686.19	25818.45
686.32	25912.07
686.46	25687.38
686.60	25493.12
686.73	25830.15
686.87	25535.24
687.01	25539.93
687.14	25371.41
687.28	25207.57
687.42	25387.79
687.55	25088.20
687.69	25509.50
687.82	24582.65
687.96	24952.45
688.10	24500.73
688.23	24741.80
688.37	24746.48
688.50	24833.08
688.64	24505.41
688.78	24449.24
688.91	24065.39
689.05	24151.99
689.18	23852.40
689.32	23271.95
689.46	24044.32
689.59	24137.94
689.73	23702.61
689.86	23667.50
690.00	23681.54
690.13	24182.42
690.27	23065.98
690.41	23082.36
690.54	22984.06
690.68	23012.15
690.81	23101.09
690.95	22836.61
691.08	22679.79
691.22	22555.74
691.35	22387.22
691.49	22427.01
691.62	22438.72
691.76	22026.78
691.89	22036.14
692.03	22026.78
692.16	21750.60
692.30	21886.35
692.43	21785.71
692.57	21415.90
692.70	21720.17
692.84	21455.69
692.97	21458.03
693.11	21137.38
693.24	21120.99
693.38	20982.90
693.51	20903.32
693.65	20732.47
693.78	20954.82
693.92	20755.87
694.05	20685.65
694.19	20531.18
694.32	20077.12
694.45	20449.26
694.59	20809.70
694.72	20397.77
694.86	20147.33
694.99	19988.18
695.13	19997.54
695.26	19913.28
695.39	19557.52
695.53	19531.77
695.66	19583.26
695.80	19400.70
695.93	19637.09
696.07	19321.12
696.20	18735.99
696.33	19096.43
696.47	18721.95
696.60	18981.74
696.73	19087.07
696.87	18677.48
697.00	18946.64
697.14	18511.30
697.27	18462.15
697.40	18497.25
697.54	18359.16
697.67	18305.33
697.80	18464.49
697.94	18050.21
698.07	18164.90
698.21	17972.97
698.34	17783.39
698.47	17853.61
698.61	17605.51
698.74	17495.50
698.87	17745.94
699.01	17483.80
699.14	17359.75
699.27	17261.45
699.40	17394.86
699.54	17121.02
699.67	17088.25
699.80	17128.04
699.94	16865.90
700.07	16924.41
700.20	16746.53
700.34	16709.08
700.47	16868.24
700.60	17006.33
700.73	16507.80
700.87	16325.24
701.00	16404.81
701.13	16053.73
701.26	16004.58
701.40	16126.29
701.53	16056.08
701.66	15868.83
701.79	16011.60
701.93	15487.32
702.06	15555.20
702.19	15363.28
702.32	15559.88
702.46	15707.34
702.59	15545.84
702.72	15529.45
702.85	15653.50
702.99	15243.91
703.12	15267.31
703.25	15147.95
703.38	14878.79
703.51	14855.38
703.65	14602.60
703.78	14391.95
703.91	14511.32
704.04	14628.35
704.17	14345.14
704.31	14527.71
704.44	14490.26
704.57	14366.21
704.70	14300.67
704.83	14195.35
704.96	13865.33
705.10	13951.93
705.23	13853.63
>>>>>End Processed Spectral Data<<<<<
