SpectraSuite Data File
++++++++++++++++++++++++++++++++++++
Date: Fri Oct 25 10:47:55 EDT 2013
User: price-jones
Dark Spectrum Present: No
Reference Spectrum Present: No
Number of Sampled Component Spectra: 1
Spectrometers: USB2+H05261
Integration Time (usec): 100000 (USB2+H05261)
Spectra Averaged: 1 (USB2+H05261)
Boxcar Smoothing: 0 (USB2+H05261)
Correct for Electrical Dark: No (USB2+H05261)
Strobe/Lamp Enabled: No (USB2+H05261)
Correct for Detector Non-linearity: No (USB2+H05261)
Correct for Stray Light: No (USB2+H05261)
Number of Pixels in Processed Spectrum: 2048
>>>>>Begin Processed Spectral Data<<<<<
365.73	147.45
365.92	147.45
366.12	147.45
366.32	0.00
366.52	53.83
366.72	65.54
366.91	53.83
367.11	79.58
367.31	49.15
367.51	44.47
367.70	23.41
367.90	63.19
368.10	126.39
368.30	18.72
368.49	9.36
368.69	112.35
368.89	67.88
369.09	14.04
369.28	149.79
369.48	70.22
369.68	107.66
369.87	152.13
370.07	117.03
370.27	177.88
370.47	212.99
370.66	381.51
370.86	353.42
371.06	395.55
371.25	475.13
371.45	390.87
371.65	458.74
371.84	496.19
372.04	437.68
372.24	458.74
372.44	451.72
372.63	435.34
372.83	533.64
373.03	386.19
373.22	461.09
373.42	547.69
373.62	489.17
373.81	465.77
374.01	559.39
374.21	575.77
374.40	447.04
374.60	550.03
374.79	566.41
374.99	561.73
375.19	650.67
375.38	564.07
375.58	524.28
375.78	510.24
375.97	564.07
376.17	650.67
376.37	575.77
376.56	575.77
376.76	601.52
376.95	538.32
377.15	610.88
377.35	613.22
377.54	601.52
377.74	657.69
377.93	613.22
378.13	601.52
378.33	636.63
378.52	606.20
378.72	657.69
378.91	620.24
379.11	571.09
379.31	624.92
379.50	692.80
379.70	671.73
379.89	610.88
380.09	596.84
380.28	613.22
380.48	627.26
380.68	592.16
380.87	674.07
381.07	622.58
381.26	669.39
381.46	622.58
381.65	664.71
381.85	636.63
382.04	692.80
382.24	777.06
382.43	678.76
382.63	641.31
382.83	711.52
383.02	711.52
383.22	683.44
383.41	702.16
383.61	758.33
383.80	732.59
384.00	723.23
384.19	713.86
384.39	753.65
384.58	753.65
384.78	713.86
384.97	765.36
385.17	765.36
385.36	748.97
385.56	765.36
385.75	695.14
385.95	788.76
386.14	809.83
386.34	723.23
386.53	802.80
386.72	798.12
386.92	795.78
387.11	812.17
387.31	837.91
387.50	849.61
387.70	849.61
387.89	758.33
388.09	784.08
388.28	887.06
388.48	772.38
388.67	746.63
388.86	835.57
389.06	880.04
389.25	973.66
389.45	922.17
389.64	894.08
389.84	1001.75
390.03	924.51
390.22	919.83
390.42	896.43
390.61	952.60
390.81	870.68
391.00	910.47
391.19	952.60
391.39	1020.47
391.58	912.81
391.78	915.15
391.97	1015.79
392.16	933.87
392.36	1039.20
392.55	1013.45
392.75	1006.43
392.94	910.47
393.13	1013.45
393.33	954.94
393.52	898.77
393.71	997.07
393.91	1053.24
394.10	1018.13
394.29	1053.24
394.49	1097.71
394.68	1055.58
394.88	1090.69
395.07	1111.75
395.26	1062.60
395.46	1174.95
395.65	1125.80
395.84	1107.07
396.04	1249.85
396.23	1217.08
396.42	1151.54
396.62	1069.62
396.81	1128.14
397.00	1144.52
397.19	1160.91
397.39	1198.35
397.58	1240.48
397.77	1200.69
397.97	1196.01
398.16	1226.44
398.35	1245.16
398.55	1226.44
398.74	1259.21
398.93	1310.70
399.12	1296.66
399.32	1359.85
399.51	1334.11
399.70	1380.92
399.90	1270.91
400.09	1502.62
400.28	1495.60
400.47	1413.68
400.67	1458.15
400.86	1502.62
401.05	1383.26
401.24	1488.58
401.44	1469.86
401.63	1462.83
401.82	1526.03
402.01	1486.24
402.21	1479.22
402.40	1507.30
402.59	1572.84
402.78	1626.67
402.97	1631.35
403.17	1579.86
403.36	1549.43
403.55	1668.80
403.74	1640.72
403.93	1633.69
404.13	1619.65
404.32	1521.35
404.51	1715.61
404.70	1792.85
404.89	1647.74
405.09	1739.02
405.28	1603.27
405.47	1720.29
405.66	1802.21
405.85	1750.72
406.05	1870.09
406.24	1694.55
406.43	1905.20
406.62	1834.98
406.81	1792.85
407.00	1820.94
407.20	1830.30
407.39	1825.62
407.58	1902.86
407.77	1912.22
407.96	1909.88
408.15	1982.43
408.34	2017.54
408.54	1914.56
408.73	2050.31
408.92	2076.06
409.11	2073.71
409.30	2036.27
409.49	1991.80
409.68	2083.08
409.87	2026.90
410.07	2101.80
410.26	2134.57
410.45	2052.65
410.64	2080.74
410.83	2260.96
411.02	2202.44
411.21	2223.51
411.40	2284.36
411.59	2307.77
411.78	2422.45
411.98	2237.55
412.17	2370.96
412.36	2392.03
412.55	2450.54
412.74	2511.39
412.93	2387.35
413.12	2305.43
413.31	2537.14
413.50	2464.58
413.69	2572.25
413.88	2609.70
414.07	2525.44
414.26	2609.70
414.45	2644.81
414.64	2649.49
414.83	2635.44
415.02	2724.38
415.22	2710.34
415.41	2754.81
415.60	2815.66
415.79	2843.75
415.98	2843.75
416.17	2818.00
416.36	2848.43
416.55	2864.82
416.74	2920.99
416.93	2942.05
417.12	2832.05
417.31	2970.14
417.50	3049.72
417.69	3087.17
417.88	2949.08
418.07	3159.72
418.26	3094.19
418.45	3243.98
418.64	3157.38
418.83	3129.30
419.02	3119.93
419.21	3145.68
419.39	3119.93
419.58	3136.32
419.77	3138.66
419.96	3309.52
420.15	3396.12
420.34	3234.62
420.53	3323.56
420.72	3375.05
420.91	3363.35
421.10	3321.22
421.29	3428.88
421.48	3316.54
421.67	3499.10
421.86	3431.23
422.05	3438.25
422.24	3520.17
422.43	3377.39
422.61	3545.91
422.80	3590.38
422.99	3473.36
423.18	3461.65
423.37	3590.38
423.56	3545.91
423.75	3529.53
423.94	3506.12
424.13	3300.16
424.32	3400.80
424.50	3541.23
424.69	3513.14
424.88	3583.36
425.07	3454.63
425.26	3508.46
425.45	3543.57
425.64	3433.57
425.83	3559.95
426.01	3651.24
426.20	3545.91
426.39	3459.31
426.58	3599.74
426.77	3655.92
426.96	3578.68
427.15	3667.62
427.33	3613.79
427.52	3632.51
427.71	3864.22
427.90	3749.54
428.09	3784.65
428.28	3651.24
428.46	3831.46
428.65	3721.45
428.84	3983.59
429.03	3943.80
429.22	3730.81
429.40	3875.93
429.59	3812.73
429.78	3749.54
429.97	3611.45
430.16	3742.52
430.34	3700.39
430.53	3756.56
430.72	3911.04
430.91	3962.53
431.10	3983.59
431.28	4053.81
431.47	4077.21
431.66	4124.02
431.85	4032.74
432.03	4187.22
432.22	4175.52
432.41	4177.86
432.60	4086.58
432.79	4182.54
432.97	4248.07
433.16	4044.45
433.35	4093.60
433.54	4208.28
433.72	4210.62
433.91	4250.41
434.10	4243.39
434.28	4234.03
434.47	4294.88
434.66	4344.03
434.85	4435.32
435.03	4397.87
435.22	4365.10
435.41	4461.06
435.59	4512.55
435.78	4470.42
435.97	4454.04
436.16	4554.68
436.34	4447.02
436.53	4571.07
436.72	4793.42
436.90	4552.34
437.09	4580.43
437.28	4535.96
437.46	4589.79
437.65	4741.93
437.84	4798.10
438.02	4491.49
438.21	4627.24
438.40	4711.50
438.58	4842.57
438.77	5029.81
438.96	4943.21
439.14	4978.32
439.33	5195.99
439.52	5205.35
439.70	5027.47
439.89	5137.48
440.08	5097.69
440.26	4929.17
440.45	5121.09
440.63	5217.05
440.82	5369.19
441.01	5240.46
441.19	5336.42
441.38	5390.25
441.57	5558.77
441.75	5444.09
441.94	5605.58
442.12	5483.88
442.31	5792.83
442.50	5430.04
442.68	5547.07
442.87	5703.89
443.05	5792.83
443.24	5666.44
443.43	5743.67
443.61	5884.11
443.80	5825.59
443.98	5654.73
444.17	5544.73
444.35	5806.87
444.54	5834.96
444.73	5731.97
444.91	5755.38
445.10	5832.62
445.28	5935.60
445.47	5720.27
445.65	5722.61
445.84	5930.92
446.02	5944.96
446.21	5947.30
446.39	5989.43
446.58	5790.49
446.77	6134.54
446.95	5837.30
447.14	5867.72
447.32	6083.05
447.51	6057.31
447.69	5963.68
447.88	6017.52
448.06	5877.09
448.25	6003.47
448.43	5886.45
448.62	6008.16
448.80	5874.74
448.99	6127.52
449.17	6090.07
449.36	6038.58
449.54	6345.19
449.73	6179.01
449.91	6160.29
450.10	6347.53
450.28	6459.88
450.46	6246.89
450.65	6422.43
450.83	6380.30
451.02	6422.43
451.20	6389.66
451.39	6345.19
451.57	6197.74
451.76	6349.87
451.94	6597.97
452.13	6546.48
452.31	6504.35
452.49	6392.00
452.68	6551.16
452.86	6445.84
453.05	6492.65
453.23	6506.69
453.42	6492.65
453.60	6394.34
453.78	6822.66
453.97	6612.01
454.15	6675.21
454.34	6686.91
454.52	6899.90
454.70	6750.10
454.89	6766.49
455.07	6750.10
455.26	6867.13
455.44	6757.13
455.62	6925.65
455.81	6993.52
455.99	6986.50
456.17	6970.12
456.36	6953.73
456.54	7037.99
456.73	7150.34
456.91	7328.22
457.09	7309.49
457.28	7311.83
457.46	7253.32
457.64	7382.05
457.83	7293.11
458.01	7234.60
458.19	7356.30
458.38	7262.68
458.56	7365.67
458.74	7424.18
458.93	7438.22
459.11	7403.11
459.29	7578.65
459.48	7634.83
459.66	7353.96
459.84	7527.16
460.03	7726.11
460.21	7609.08
460.39	7569.29
460.57	7749.51
460.76	7632.49
460.94	7648.87
461.12	7786.96
461.31	7726.11
461.49	7761.22
461.67	7901.65
461.85	7866.54
462.04	7859.52
462.22	8086.55
462.40	8063.15
462.59	7967.18
462.77	8002.29
462.95	7960.16
463.13	7929.74
463.32	8077.19
463.50	8086.55
463.68	8053.78
463.86	8142.72
464.05	7941.44
464.23	7918.03
464.41	8016.33
464.59	7824.41
464.78	8280.82
464.96	8161.45
465.14	8140.38
465.32	8255.07
465.50	8222.30
465.69	8388.48
465.87	8414.23
466.05	8430.61
466.23	8416.57
466.41	8166.13
466.60	8287.84
466.78	8400.18
466.96	8549.98
467.14	8397.84
467.32	8435.29
467.51	8627.21
467.69	8212.94
467.87	8381.46
468.05	8503.17
468.23	8461.04
468.41	8458.70
468.60	8561.68
468.78	8585.08
468.96	8388.48
469.14	8800.41
469.32	8812.12
469.50	8641.26
469.69	8865.95
469.87	8882.33
470.05	9046.17
470.23	8964.25
470.41	8905.74
470.59	8917.44
470.77	8894.04
470.95	9104.68
471.14	9322.35
471.32	9029.79
471.50	9163.20
471.68	9291.93
471.86	9341.08
472.04	9167.88
472.22	9617.26
472.40	9013.40
472.58	9380.87
472.77	9476.83
472.95	9614.92
473.13	9933.23
473.31	9568.11
473.49	9643.01
473.67	9617.26
473.85	9645.35
474.03	9799.82
474.21	9769.40
474.39	9933.23
474.57	10040.90
474.75	10040.90
474.93	10162.61
475.12	10132.18
475.30	10352.19
475.48	10068.98
475.66	10139.20
475.84	10298.36
476.02	10335.81
476.20	10391.98
476.38	10541.77
476.56	10857.75
476.74	10686.89
476.92	10654.12
477.10	10787.53
477.28	10946.69
477.46	10895.19
477.64	11005.20
477.82	11000.52
478.00	11431.18
478.18	11477.99
478.36	11627.78
478.54	11627.78
478.72	11496.71
478.90	11765.87
479.08	11641.82
479.26	11861.84
479.44	11761.19
479.62	11983.54
479.80	12170.79
479.98	12222.28
480.16	12442.29
480.34	12444.63
480.52	12556.97
480.70	12514.84
480.88	12470.37
481.06	12496.12
481.24	12545.27
481.41	12915.08
481.59	13167.85
481.77	13275.52
481.95	13181.90
482.13	13355.10
482.31	13214.66
482.49	13287.22
482.67	13530.64
482.85	13689.79
483.03	13678.09
483.21	13905.12
483.39	14036.19
483.57	13902.78
483.74	14005.77
483.92	14033.85
484.10	14249.18
484.28	14530.05
484.46	14925.60
484.64	14897.51
484.82	14724.31
485.00	14927.94
485.18	15063.69
485.35	15180.71
485.53	14846.02
485.71	14876.44
485.89	15332.85
486.07	15302.42
486.25	15307.10
486.43	15377.32
486.61	15639.46
486.78	15833.72
486.96	16006.92
487.14	16350.98
487.32	16465.67
487.50	16439.92
487.68	16702.06
487.85	16732.49
488.03	17090.59
488.21	16982.93
488.39	17029.74
488.57	17163.15
488.75	17081.23
488.92	17111.66
489.10	17797.43
489.28	17748.28
489.46	17930.84
489.64	17738.92
489.81	18232.77
489.99	18136.81
490.17	18389.59
490.35	18633.00
490.53	18640.03
490.70	18845.99
490.88	18560.45
491.06	19281.33
491.24	18752.37
491.41	18890.46
491.59	19187.71
491.77	19103.45
491.95	19257.93
492.13	19744.76
492.30	19550.49
492.48	20065.41
492.66	19929.66
492.84	19826.68
493.01	20152.01
493.19	20329.89
493.37	20561.61
493.54	20500.75
493.72	20776.94
493.90	20470.33
494.08	20919.71
494.25	21069.50
494.43	21486.12
494.61	21303.56
494.79	21626.55
494.96	21120.99
495.14	21460.37
495.32	22078.27
495.49	21612.51
495.67	22075.93
495.85	22143.81
496.02	22382.54
496.20	22302.96
496.38	22272.54
496.55	22195.30
496.73	22586.17
496.91	22813.20
497.09	23009.81
497.26	22955.97
497.44	22625.96
497.62	23136.20
497.79	23601.96
497.97	23204.07
498.14	23403.02
498.32	23733.03
498.50	23524.72
498.67	23683.88
498.85	23910.91
499.03	24105.18
499.20	24018.58
499.38	24383.70
499.56	24116.88
499.73	24549.88
499.91	24367.32
500.08	24788.61
500.26	24409.45
500.44	24634.14
500.61	24556.90
500.79	24531.15
500.97	24720.74
501.14	25053.09
501.32	25383.11
501.49	24938.41
501.67	25172.46
501.84	25305.87
502.02	25135.01
502.20	25418.22
502.37	25598.44
502.55	25591.42
502.72	25921.43
502.90	25626.53
503.07	25951.86
503.25	25851.22
503.43	25776.32
503.60	25900.37
503.78	26185.91
503.95	26316.98
504.13	26558.06
504.30	26302.94
504.48	26340.39
504.65	26635.30
504.83	26747.64
505.01	26843.60
505.18	26611.89
505.36	27124.47
505.53	27033.19
505.71	27417.04
505.88	27234.47
506.06	27044.89
506.23	27288.31
506.41	27395.97
506.58	27550.45
506.76	27615.98
506.93	27941.32
507.11	27491.93
507.28	27688.54
507.46	27924.93
507.63	27999.83
507.81	28102.81
507.98	28004.51
508.16	28070.04
508.33	28266.65
508.50	28063.02
508.68	28189.41
508.85	28882.21
509.03	28233.88
509.20	28620.07
509.38	28968.81
509.55	29284.78
509.73	29067.11
509.90	28987.53
510.08	29064.77
510.25	29312.87
510.42	29401.81
510.60	29378.40
510.77	29720.12
510.95	29687.36
511.12	30036.09
511.30	29677.99
511.47	30066.52
511.64	30185.89
511.82	30335.68
511.99	29825.45
512.17	30054.82
512.34	30118.01
512.51	30485.48
512.69	30387.18
512.86	30534.63
513.04	30281.85
513.21	30565.06
513.38	30326.32
513.56	30806.13
513.73	30553.35
513.90	30958.27
514.08	30459.73
514.25	30609.53
514.43	30937.20
514.60	30962.95
514.77	31213.38
514.95	31194.66
515.12	31126.78
515.29	31545.74
515.47	31552.76
515.64	31782.13
515.81	31737.66
515.99	31594.89
516.16	31702.56
516.33	31461.48
516.51	31606.59
516.68	31445.10
516.85	31711.92
517.03	31945.97
517.20	31971.72
517.37	32102.79
517.54	32362.59
517.72	32238.54
517.89	31934.27
518.06	32343.86
518.24	31969.38
518.41	32437.48
518.58	32783.88
518.75	32411.74
518.93	32769.84
519.10	32720.69
519.27	32837.72
519.45	32488.98
519.62	33270.72
519.79	32898.57
519.96	33099.86
520.14	33743.50
520.31	33207.52
520.48	33261.35
520.65	33614.77
520.83	33535.20
521.00	33413.49
521.17	33500.09
521.34	34059.48
521.52	33914.36
521.69	34171.82
521.86	33841.81
522.03	33975.22
522.20	34195.23
522.38	34136.71
522.55	34335.66
522.72	34160.12
522.89	34129.69
523.07	34885.68
523.24	33940.11
523.41	34813.13
523.58	34218.63
523.75	34700.78
523.92	35182.93
524.10	34937.18
524.27	35007.39
524.44	34852.92
524.61	35154.85
524.78	35019.10
524.96	35299.96
525.13	35445.07
525.30	35325.71
525.47	35606.57
525.64	35009.73
525.81	35314.00
525.98	35775.09
526.16	35503.59
526.33	35447.41
526.50	35934.24
526.67	35054.20
526.84	35676.79
527.01	35515.29
527.18	35660.40
527.36	35892.12
527.53	36084.04
527.70	36128.51
527.87	36322.77
528.04	36121.49
528.21	36226.81
528.38	36081.70
528.55	36514.70
528.72	36495.97
528.89	36561.51
529.07	36376.61
529.24	36491.29
529.41	37111.53
529.58	36797.90
529.75	36407.03
529.92	36723.01
530.09	36858.76
530.26	36779.18
530.43	37057.70
530.60	37003.87
530.77	36465.55
530.94	37596.03
531.11	36823.65
531.28	36994.51
531.46	37486.02
531.63	37310.48
531.80	37214.52
531.97	37247.29
532.14	37284.73
532.31	37041.32
532.48	37214.52
532.65	37516.45
532.82	37184.09
532.99	37544.53
533.16	37656.88
533.33	37591.34
533.50	38050.09
533.67	37603.05
533.84	37479.00
534.01	37523.47
534.18	37897.95
534.35	38447.98
534.52	37825.40
534.69	38092.22
534.86	37956.47
535.03	38223.29
535.20	37635.81
535.37	38192.86
535.54	38345.00
535.71	37982.21
535.88	38410.53
536.05	38270.10
536.22	38873.96
536.38	38476.07
536.55	38429.26
536.72	38527.56
536.89	37874.55
537.06	38677.35
537.23	38782.68
537.40	38806.08
537.57	38990.98
537.74	38473.73
537.91	39089.29
538.08	38852.89
538.25	38745.23
538.42	38705.44
538.59	39299.94
538.75	38658.63
538.92	39192.27
539.09	39466.11
539.26	39005.03
539.43	38986.30
539.60	38794.38
539.77	39304.62
539.94	39449.73
540.11	39232.06
540.28	39182.91
540.44	39218.02
540.61	39117.37
540.78	39278.87
540.95	39360.79
541.12	39690.80
541.29	39636.97
541.46	39452.07
541.62	39505.90
541.79	39758.68
541.96	39405.26
542.13	39604.20
542.30	40219.77
542.47	40067.63
542.63	39704.85
542.80	39868.69
542.97	40409.35
543.14	40273.60
543.31	40343.81
543.48	40652.76
543.64	40708.94
543.81	40589.57
543.98	41132.57
544.15	40582.55
544.32	40797.88
544.48	41373.65
544.65	41139.60
544.82	40577.87
544.99	40779.15
545.16	40744.05
545.32	40905.54
545.49	40783.83
545.66	40950.01
545.83	41111.51
546.00	41020.23
546.16	41174.70
546.33	40491.27
546.50	40685.53
546.67	41319.82
546.83	40751.07
547.00	41361.95
547.17	40877.46
547.34	41270.67
547.50	41074.06
547.67	41415.78
547.84	41301.09
548.00	41649.83
548.17	41698.98
548.34	41696.64
548.51	42005.59
548.67	42120.28
548.84	41823.03
549.01	41588.98
549.18	41387.69
549.34	41848.78
549.51	41940.06
549.68	41565.57
549.84	41818.35
550.01	42120.28
550.18	41923.68
550.34	42012.62
550.51	41584.30
550.68	41883.89
550.84	41598.34
551.01	41897.93
551.18	41731.75
551.34	41724.73
551.51	42122.62
551.68	41958.78
551.84	41897.93
552.01	42122.62
552.18	42251.35
552.34	42387.10
552.51	42382.42
552.68	42019.64
552.84	42522.85
553.01	42667.97
553.18	42260.71
553.34	41986.87
553.51	42197.52
553.67	42356.67
553.84	43225.01
554.01	42637.54
554.17	42878.61
554.34	42595.41
554.51	42735.84
554.67	42410.51
554.84	42548.60
555.00	42740.52
555.17	42515.83
555.33	42726.48
555.50	42766.27
555.67	42625.84
555.83	42906.70
556.00	42885.64
556.16	43166.50
556.33	43180.54
556.50	42899.68
556.66	42829.46
556.83	42988.62
556.99	43323.32
557.16	42850.53
557.32	43412.26
557.49	43217.99
557.65	42960.53
557.82	43232.04
557.98	43622.90
558.15	43112.67
558.32	43241.40
558.48	43061.18
558.65	43096.28
558.81	42958.19
558.98	43302.25
559.14	42979.26
559.31	43257.78
559.47	43613.54
559.64	43632.27
559.80	43463.75
559.97	44154.21
560.13	43180.54
560.30	43255.44
560.46	43590.14
560.63	43487.15
560.79	43650.99
560.96	43571.41
561.12	43438.00
561.29	43683.76
561.45	43477.79
561.61	43566.73
561.78	43555.03
561.94	43576.09
562.11	43566.73
562.27	43892.07
562.44	43533.96
562.60	44018.46
562.77	43913.13
562.93	43714.19
563.10	44006.75
563.26	43842.92
563.42	43452.05
563.59	43756.32
563.75	43674.40
563.92	44172.93
564.08	43901.43
564.24	44219.74
564.41	44062.93
564.57	43934.20
564.74	44030.16
564.90	44065.27
565.07	44226.76
565.23	43913.13
565.39	43648.65
565.56	44734.66
565.72	43878.02
565.88	44133.14
566.05	44196.34
566.21	43873.34
566.38	43859.30
566.54	43667.37
566.70	44179.95
566.87	44655.08
567.03	44402.30
567.19	44626.99
567.36	44196.34
567.52	43999.73
567.68	44481.88
567.85	44100.37
568.01	43721.21
568.17	43842.92
568.34	44311.02
568.50	44296.98
568.66	43901.43
568.83	44172.93
568.99	44257.19
569.15	43910.79
569.32	44037.18
569.48	43594.82
569.64	44535.71
569.81	44477.20
569.97	44416.35
570.13	44222.08
570.30	43948.24
570.46	43952.92
570.62	43978.67
570.78	43875.68
570.95	44360.17
571.11	44587.21
571.27	44121.44
571.43	44612.95
571.60	44278.25
571.76	43866.32
571.92	44039.52
572.09	44367.20
572.25	44100.37
572.41	44545.08
572.57	44025.48
572.74	45059.99
572.90	44655.08
573.06	44184.63
573.22	44144.84
573.38	44399.96
573.55	44231.44
573.71	44617.63
573.87	44154.21
574.03	43821.85
574.20	44126.12
574.36	44327.41
574.52	44289.96
574.68	44790.83
574.84	44697.21
575.01	44320.38
575.17	44619.97
575.33	44245.49
575.49	44065.27
575.65	44851.69
575.82	44332.09
575.98	44479.54
576.14	44765.09
576.30	44481.88
576.46	44421.03
576.62	44622.31
576.79	44385.92
576.95	43608.86
577.11	44296.98
577.27	44554.44
577.43	44851.69
577.59	44814.24
577.75	44498.26
577.92	44266.55
578.08	44280.60
578.24	44315.70
578.40	44322.72
578.56	44318.04
578.72	44296.98
578.88	44472.52
579.04	44830.62
579.21	44608.27
579.37	44854.03
579.53	44378.90
579.69	43901.43
579.85	44634.02
580.01	44828.28
580.17	44952.33
580.33	44870.41
580.49	44839.98
580.65	44573.16
580.82	44320.38
580.98	44542.74
581.14	44479.54
581.30	45001.48
581.46	44783.81
581.62	44638.70
581.78	44643.38
581.94	44818.92
582.10	44421.03
582.26	45003.82
582.42	44729.98
582.58	44692.53
582.74	44804.88
582.90	44596.57
583.06	44577.84
583.22	44664.44
583.38	45057.65
583.54	44741.68
583.70	44367.20
583.86	44701.89
584.02	44086.33
584.18	44603.59
584.34	44996.80
584.50	44755.72
584.66	44397.62
584.82	44516.99
584.98	45413.41
585.14	45280.00
585.30	44414.01
585.46	44706.57
585.62	44500.61
585.78	44542.74
585.94	44172.93
586.10	44374.22
586.26	44512.31
586.42	44718.28
586.58	44596.57
586.74	44589.55
586.90	44893.82
587.06	44425.71
587.22	44947.65
587.38	44367.20
587.54	44811.90
587.70	44982.76
587.86	44615.29
588.02	45144.25
588.18	44720.62
588.34	44561.46
588.49	44650.40
588.65	44027.82
588.81	44554.44
588.97	44795.51
589.13	44790.83
589.29	44491.24
589.45	44729.98
589.61	44524.01
589.77	45076.38
589.93	45038.93
590.08	45120.85
590.24	44788.49
590.40	45254.26
590.56	45050.63
590.72	45226.17
590.88	44535.71
591.04	44954.67
591.20	45359.58
591.35	45127.87
591.51	45352.56
591.67	44811.90
591.83	45031.91
591.99	44919.56
592.15	44626.99
592.31	45006.16
592.46	45228.51
592.62	45062.33
592.78	44879.77
592.94	44964.03
593.10	44828.28
593.26	45031.91
593.41	44767.43
593.57	44933.60
593.73	45284.68
593.89	45406.39
594.05	45249.58
594.20	44952.33
594.36	45263.62
594.52	44814.24
594.68	45024.89
594.84	45221.49
594.99	45455.54
595.15	45209.79
595.31	45399.37
595.47	45221.49
595.62	44645.72
595.78	45158.30
595.94	45411.07
596.10	45074.04
596.25	45254.26
596.41	45207.45
596.57	45427.46
596.73	45380.65
596.88	45090.42
597.04	45153.62
597.20	45078.72
597.36	44959.35
597.51	45357.24
597.67	45120.85
597.83	45523.42
597.99	45549.17
598.14	45195.74
598.30	45076.38
598.46	45069.36
598.61	45010.84
598.77	44847.00
598.93	45029.57
599.09	45057.65
599.24	45411.07
599.40	45074.04
599.56	45205.11
599.71	45474.27
599.87	45621.72
600.03	45064.67
600.18	45139.57
600.34	44601.25
600.50	44898.50
600.65	44886.79
600.81	45600.66
600.97	45724.71
601.12	45656.83
601.28	45581.93
601.44	45151.27
601.59	44978.07
601.75	45188.72
601.91	45422.78
602.06	44938.29
602.22	45043.61
602.37	44980.42
602.53	45195.74
602.69	45181.70
602.84	44851.69
603.00	44957.01
603.16	45207.45
603.31	45064.67
603.47	45249.58
603.62	44617.63
603.78	45282.34
603.94	45095.10
604.09	45340.86
604.25	45265.96
604.40	44966.37
604.56	45165.32
604.71	45436.82
604.87	45308.09
605.03	45207.45
605.18	45029.57
605.34	45092.76
605.49	45074.04
605.65	45057.65
605.80	44673.81
605.96	44989.78
606.12	45350.22
606.27	44797.85
606.43	44360.17
606.58	44779.13
606.74	45022.54
606.89	44729.98
607.05	45031.91
607.20	44999.14
607.36	45422.78
607.51	45462.57
607.67	44877.43
607.82	44804.88
607.98	45193.40
608.13	45118.51
608.29	44680.83
608.44	44751.04
608.60	44292.30
608.75	44727.64
608.91	44355.49
609.06	44364.85
609.22	45242.56
609.37	44311.02
609.53	44570.82
609.68	44446.77
609.84	44521.67
609.99	44818.92
610.15	44545.08
610.30	44612.95
610.46	44201.02
610.61	44608.27
610.76	44725.30
610.92	44844.66
611.07	44549.76
611.23	44727.64
611.38	44273.57
611.54	44306.34
611.69	44325.07
611.84	44463.16
612.00	44264.21
612.15	44285.28
612.31	44671.46
612.46	44502.95
612.62	44261.87
612.77	44748.70
612.92	44580.18
613.08	44334.43
613.23	44273.57
613.39	44495.92
613.54	44039.52
613.69	44306.34
613.85	44238.47
614.00	44444.43
614.15	44327.41
614.31	44165.91
614.46	44245.49
614.62	44163.57
614.77	44547.42
614.92	43948.24
615.08	44009.09
615.23	43805.47
615.38	43852.28
615.54	43489.49
615.69	44154.21
615.84	43517.58
616.00	43557.37
616.15	43978.67
616.30	44226.76
616.46	43658.01
616.61	43805.47
616.76	43351.40
616.92	43831.21
617.07	43938.88
617.22	43643.97
617.37	43863.98
617.53	44098.03
617.68	43468.43
617.83	43845.26
617.99	43798.44
618.14	43622.90
618.29	43723.55
618.45	43351.40
618.60	43232.04
618.75	43545.67
618.90	43674.40
619.06	43604.18
619.21	43655.67
619.36	43421.62
619.51	43089.26
619.67	43414.60
619.82	43679.08
619.97	43611.20
620.12	43583.12
620.28	43082.24
620.43	42983.94
620.58	43035.43
620.73	43653.33
620.89	43107.99
621.04	43122.03
621.19	43152.46
621.34	42866.91
621.49	43037.77
621.65	42946.49
621.80	43316.29
621.95	42852.87
622.10	43035.43
622.25	42852.87
622.41	42829.46
622.56	42822.44
622.71	43276.51
622.86	43159.48
623.01	43040.11
623.16	43330.34
623.32	42974.58
623.47	43328.00
623.62	42747.54
623.77	42848.19
623.92	43056.50
624.07	42927.77
624.23	42239.65
624.38	42588.39
624.53	42630.52
624.68	42782.65
624.83	42714.78
624.98	42948.83
625.13	42436.25
625.29	43005.00
625.44	42738.18
625.59	42579.03
625.74	42342.63
625.89	42185.82
626.04	42096.88
626.19	42344.97
626.34	42333.27
626.49	42005.59
626.65	42223.26
626.80	42059.43
626.95	41808.99
627.10	42288.80
627.25	41874.52
627.40	42043.04
627.55	41422.80
627.70	41949.42
627.85	41984.53
628.00	41890.91
628.15	42052.41
628.30	41605.36
628.45	42473.70
628.60	41724.73
628.76	41834.74
628.91	42068.79
629.06	42029.00
629.21	41888.57
629.36	41862.82
629.51	41684.94
629.66	41392.37
629.81	41490.68
629.96	42029.00
630.11	41844.10
630.26	41841.76
630.41	41694.30
630.56	41242.58
630.71	41710.69
630.86	41497.70
631.01	41003.85
631.16	41158.32
631.31	40931.29
631.46	40732.34
631.61	41214.49
631.76	41191.09
631.91	41385.35
632.06	41270.67
632.21	41383.01
632.36	41900.27
632.51	41120.87
632.66	41380.67
632.81	41345.56
632.96	41273.01
633.10	41031.93
633.25	40980.44
633.40	41092.79
633.55	41455.57
633.70	41408.76
633.85	41001.50
634.00	40907.88
634.15	41130.23
634.30	40708.94
634.45	40580.21
634.60	41261.30
634.75	40896.18
634.90	41036.61
635.05	40783.83
635.19	40664.47
635.34	40758.09
635.49	40917.25
635.64	40554.46
635.79	40811.92
635.94	40374.24
636.09	40964.06
636.24	40603.61
636.39	40484.25
636.53	40657.45
636.68	40346.15
636.83	40203.38
636.98	40793.20
637.13	40009.12
637.28	40854.05
637.43	40315.73
637.57	40479.57
637.72	40622.34
637.87	40336.79
638.02	40444.46
638.17	40772.13
638.32	40079.33
638.46	39990.39
638.61	40133.17
638.76	39950.60
638.91	40231.47
639.06	39922.52
639.20	40224.45
639.35	40229.13
639.50	40100.40
639.65	40044.23
639.80	40231.47
639.94	39875.71
640.09	40119.12
640.24	39618.25
640.39	39501.22
640.54	39920.18
640.68	39487.18
640.83	39924.86
640.98	39842.94
641.13	39735.27
641.27	39690.80
641.42	39178.23
641.57	39885.07
641.72	39784.43
641.86	39423.98
642.01	39255.46
642.16	39335.04
642.31	38880.98
642.45	39538.67
642.60	39290.57
642.75	39470.79
642.90	39126.74
643.04	38909.07
643.19	39065.88
643.34	39292.91
643.48	39754.00
643.63	39262.49
643.78	38960.56
643.93	38745.23
644.07	39023.75
644.22	38857.57
644.37	38614.16
644.51	39063.54
644.66	39168.87
644.81	39164.18
644.95	39470.79
645.10	38862.26
645.25	38770.97
645.39	39126.74
645.54	38822.47
645.69	38897.36
645.83	38595.43
645.98	38761.61
646.13	39278.87
646.27	39016.73
646.42	38754.59
646.57	39016.73
646.71	38541.60
646.86	38642.24
647.00	38939.49
647.15	38878.64
647.30	39021.41
647.44	38941.83
647.59	38607.14
647.74	38899.70
647.88	38644.59
648.03	38747.57
648.17	38572.03
648.32	38398.83
648.47	38642.24
648.61	38408.19
648.76	38939.49
648.90	38485.43
649.05	38246.69
649.20	38962.90
649.34	38808.42
649.49	38623.52
649.63	38466.70
649.78	38019.66
649.92	38529.90
650.07	39047.16
650.21	38134.35
650.36	38305.21
650.51	37727.10
650.65	38775.66
650.80	38242.01
650.94	38742.89
651.09	38059.45
651.23	38223.29
651.38	38124.99
651.52	38160.09
651.67	38024.34
651.81	37677.94
651.96	37944.76
652.10	37701.35
652.25	37420.48
652.39	37956.47
652.54	37755.18
652.68	37867.53
652.83	37750.50
652.97	37790.29
653.12	37724.75
653.26	37481.34
653.41	37706.03
653.55	37560.92
653.70	37722.41
653.84	37654.54
653.99	37523.47
654.13	37385.38
654.27	37897.95
654.42	37589.00
654.56	37326.86
654.71	37284.73
654.85	37319.84
655.00	37408.78
655.14	37319.84
655.29	37186.43
655.43	37174.73
655.57	37198.13
655.72	36945.36
655.86	37010.89
656.01	37069.40
656.15	37067.06
656.30	36996.85
656.44	36975.78
656.58	36734.71
656.73	36790.88
656.87	36907.91
657.01	36720.66
657.16	36701.94
657.30	36809.61
657.45	36598.96
657.59	36512.36
657.73	36566.19
657.88	36996.85
658.02	36751.09
658.16	36708.96
658.31	36950.04
658.45	37530.49
658.60	36786.20
658.74	36299.37
658.88	36992.17
659.03	36325.11
659.17	36336.82
659.31	36580.23
659.46	36254.90
659.60	36072.34
659.74	36435.12
659.89	36271.28
660.03	36077.02
660.17	35828.92
660.32	36407.03
660.46	36488.95
660.60	36184.68
660.74	36622.36
660.89	35969.35
661.03	35854.67
661.17	35985.74
661.32	35456.78
661.46	35651.04
661.60	35976.37
661.74	35789.13
661.89	35812.54
662.03	35454.44
662.17	35590.19
662.31	35859.35
662.46	35679.13
662.60	35784.45
662.74	35433.37
662.88	35290.60
663.03	35178.25
663.17	35199.32
663.31	35122.08
663.45	35225.06
663.60	35218.04
663.74	35108.04
663.88	35206.34
664.02	34707.80
664.17	34714.83
664.31	34710.14
664.45	35103.35
664.59	34679.72
664.73	34590.78
664.88	35023.78
665.02	34295.87
665.16	34419.92
665.30	34684.40
665.44	34527.58
665.59	34054.79
665.73	34635.25
665.87	34499.50
666.01	33996.28
666.15	33998.62
666.29	34117.99
666.44	34185.86
666.58	34113.31
666.72	34335.66
666.86	34251.40
667.00	33647.54
667.14	33951.81
667.28	33799.68
667.43	33638.18
667.57	33640.52
667.71	33710.74
667.85	33778.61
667.99	33376.04
668.13	33383.06
668.27	33277.74
668.41	33387.74
668.56	33551.58
668.70	33207.52
668.84	33347.95
668.98	33134.96
669.12	33120.92
669.26	33570.30
669.40	32954.74
669.54	33109.22
669.68	33223.90
669.82	32744.09
669.96	32861.12
670.10	33024.96
670.25	32837.72
670.39	32833.04
670.53	32716.01
670.67	32416.42
670.81	32617.71
670.95	33055.39
671.09	32720.69
671.23	32231.52
671.37	32409.40
671.51	32566.21
671.65	32109.81
671.79	32327.48
671.93	32027.89
672.07	32156.62
672.21	31782.13
672.35	32055.98
672.49	31957.67
672.63	32283.01
672.77	31969.38
672.91	31487.23
673.05	31583.19
673.19	31435.74
673.33	31278.92
673.47	31206.36
673.61	31271.90
673.75	30993.37
673.89	30794.43
674.03	30852.94
674.17	30836.56
674.31	30892.73
674.45	30679.74
674.59	31051.89
674.73	30925.50
674.87	30881.03
675.01	30401.22
675.15	31002.74
675.29	30773.36
675.43	30485.48
675.56	30485.48
675.70	30607.19
675.84	30356.75
675.98	29415.85
676.12	29963.54
676.26	29879.28
676.40	29677.99
676.54	29825.45
676.68	30110.99
676.82	29160.73
676.96	29619.48
677.10	29474.37
677.23	29486.07
677.37	29408.83
677.51	29055.41
677.65	29579.69
677.79	28989.88
677.93	29376.06
678.07	28776.89
678.21	29343.30
678.34	29078.82
678.48	28622.41
678.62	28561.56
678.76	28219.84
678.90	28608.37
679.04	28524.11
679.18	28393.04
679.31	28051.32
679.45	27915.57
679.59	27461.51
679.73	27646.41
679.87	27749.39
680.00	27721.30
680.14	27702.58
680.28	28004.51
680.42	27517.68
680.56	27431.08
680.70	27213.41
680.83	27037.87
680.97	26977.01
681.11	27026.17
681.25	27234.47
681.39	26841.26
681.52	26941.91
681.66	26742.96
681.80	27122.13
681.94	26565.08
682.07	26792.11
682.21	26738.28
682.35	26490.18
682.49	26759.34
682.62	26328.69
682.76	25893.35
682.90	26242.09
683.04	25837.17
683.17	25701.42
683.31	25813.77
683.45	25781.00
683.59	25654.61
683.72	25596.10
683.86	25186.50
684.00	24980.54
684.13	25312.89
684.27	25366.73
684.41	25137.35
684.55	25008.62
684.68	24755.85
684.82	24617.75
684.96	24814.36
685.09	24395.40
685.23	24556.90
685.37	24416.47
685.50	24397.74
685.64	24240.93
685.78	24432.85
685.91	24334.55
686.05	24334.55
686.19	23950.70
686.32	24091.13
686.46	23580.90
686.60	23346.84
686.73	23374.93
686.87	23232.16
687.01	23197.05
687.14	23496.64
687.28	22972.36
687.42	23365.57
687.55	22778.09
687.69	23321.10
687.82	22857.67
687.96	22848.31
688.10	22607.23
688.23	22991.08
688.37	22689.15
688.50	22391.91
688.64	22394.25
688.78	22466.80
688.91	21869.97
689.05	22214.02
689.18	21984.65
689.32	21546.97
689.46	22064.23
689.59	22143.81
689.73	22097.00
689.86	21525.91
690.00	21582.08
690.13	21687.40
690.27	21865.28
690.41	21537.61
690.54	21298.88
690.68	20905.66
690.81	21214.62
690.95	20833.11
691.08	21013.33
691.22	20758.21
691.35	20741.83
691.49	20814.38
691.62	20683.31
691.76	20767.57
691.89	20622.46
692.03	20594.37
692.16	20418.83
692.30	20540.54
692.43	19992.86
692.57	20255.00
692.70	20159.03
692.84	19873.49
692.97	19892.21
693.11	19719.01
693.24	19807.95
693.38	19473.26
693.51	19414.74
693.65	19730.72
693.78	19667.52
693.92	19269.63
694.05	19433.47
694.19	19405.38
694.32	19227.50
694.45	19030.90
694.59	19211.12
694.72	18956.00
694.86	18963.02
694.99	18682.16
695.13	18401.29
695.26	18396.61
695.39	18319.37
695.53	18558.11
695.66	18384.91
695.80	18333.42
695.93	18417.68
696.07	18127.45
696.20	18218.73
696.33	17825.52
696.47	17893.40
696.60	18101.70
696.73	17572.74
696.87	17804.46
697.00	17909.78
697.14	17600.83
697.27	17640.62
697.40	17422.95
697.54	17422.95
697.67	17263.79
697.80	17111.66
697.94	17102.29
698.07	17228.68
698.21	17011.01
698.34	16959.52
698.47	16929.09
698.61	16664.61
698.74	16648.23
698.87	16273.74
699.01	16353.32
699.14	16402.47
699.27	16388.43
699.40	16170.76
699.54	16264.38
699.67	15974.16
699.80	16060.76
699.94	15878.19
700.07	16217.57
700.20	15791.59
700.34	15807.98
700.47	15435.83
700.60	15999.90
700.73	15953.09
700.87	15655.84
701.00	15529.45
701.13	15311.78
701.26	15421.79
701.40	15470.94
701.53	15262.63
701.66	15272.00
701.79	15140.93
701.93	15147.95
702.06	14937.30
702.19	15059.01
702.32	14913.89
702.46	14757.08
702.59	14810.91
702.72	14810.91
702.85	14654.09
702.99	14721.97
703.12	14614.30
703.25	14216.41
703.38	14494.94
703.51	14576.86
703.65	14349.82
703.78	14508.98
703.91	14146.20
704.04	14274.93
704.17	13937.89
704.31	13839.59
704.44	13750.65
704.57	13570.43
704.70	13561.06
704.83	13638.30
704.96	13720.22
705.10	13509.57
705.23	13577.45
>>>>>End Processed Spectral Data<<<<<
