SpectraSuite Data File
++++++++++++++++++++++++++++++++++++
Date: Fri Oct 25 10:47:14 EDT 2013
User: price-jones
Dark Spectrum Present: No
Reference Spectrum Present: No
Number of Sampled Component Spectra: 1
Spectrometers: USB2+H05261
Integration Time (usec): 100000 (USB2+H05261)
Spectra Averaged: 1 (USB2+H05261)
Boxcar Smoothing: 0 (USB2+H05261)
Correct for Electrical Dark: No (USB2+H05261)
Strobe/Lamp Enabled: No (USB2+H05261)
Correct for Detector Non-linearity: No (USB2+H05261)
Correct for Stray Light: No (USB2+H05261)
Number of Pixels in Processed Spectrum: 2048
>>>>>Begin Processed Spectral Data<<<<<
365.73	91.28
365.92	91.28
366.12	91.28
366.32	84.26
366.52	14.04
366.72	72.56
366.91	0.00
367.11	46.81
367.31	0.00
367.51	30.43
367.70	65.54
367.90	65.54
368.10	35.11
368.30	95.96
368.49	0.00
368.69	72.56
368.89	0.00
369.09	9.36
369.28	9.36
369.48	102.98
369.68	126.39
369.87	119.37
370.07	140.43
370.27	170.86
370.47	177.88
370.66	344.06
370.86	404.91
371.06	486.83
371.25	533.64
371.45	390.87
371.65	437.68
371.84	428.32
372.04	517.26
372.24	376.83
372.44	468.11
372.63	505.56
372.83	538.32
373.03	566.41
373.22	510.24
373.42	517.26
373.62	545.34
373.81	526.62
374.01	582.79
374.21	543.00
374.40	552.37
374.60	575.77
374.79	545.34
374.99	531.30
375.19	540.66
375.38	498.53
375.58	491.51
375.78	594.50
375.97	545.34
376.17	622.58
376.37	613.22
376.56	524.28
376.76	596.84
376.95	547.69
377.15	627.26
377.35	575.77
377.54	653.01
377.74	561.73
377.93	540.66
378.13	603.86
378.33	566.41
378.52	526.62
378.72	648.33
378.91	674.07
379.11	603.86
379.31	615.56
379.50	596.84
379.70	610.88
379.89	606.20
380.09	648.33
380.28	720.88
380.48	573.43
380.68	547.69
380.87	617.90
381.07	627.26
381.26	657.69
381.46	685.78
381.65	585.13
381.85	664.71
382.04	571.09
382.24	653.01
382.43	648.33
382.63	681.10
382.83	734.93
383.02	748.97
383.22	655.35
383.41	709.18
383.61	685.78
383.80	692.80
384.00	674.07
384.19	667.05
384.39	746.63
384.58	779.40
384.78	725.57
384.97	798.12
385.17	706.84
385.36	734.93
385.56	678.76
385.75	678.76
385.95	758.33
386.14	781.74
386.34	732.59
386.53	800.46
386.72	730.25
386.92	718.54
387.11	683.44
387.31	793.44
387.50	840.25
387.70	835.57
387.89	739.61
388.09	823.87
388.28	849.61
388.48	798.12
388.67	807.48
388.86	875.36
389.06	837.91
389.25	842.59
389.45	866.00
389.64	809.83
389.84	898.77
390.03	926.85
390.22	891.74
390.42	844.93
390.61	964.30
390.81	847.27
391.00	866.00
391.19	966.64
391.39	912.81
391.58	940.90
391.78	933.87
391.97	1027.50
392.16	922.17
392.36	985.37
392.55	926.85
392.75	908.13
392.94	959.62
393.13	957.28
393.33	931.53
393.52	952.60
393.71	1050.90
393.91	985.37
394.10	933.87
394.29	1008.77
394.49	1078.99
394.68	1022.81
394.88	1015.79
395.07	1083.67
395.26	1043.88
395.46	1137.50
395.65	1100.05
395.84	1118.78
396.04	1200.69
396.23	1074.31
396.42	1153.88
396.62	1111.75
396.81	1135.16
397.00	1132.82
397.19	1151.54
397.39	1102.39
397.58	1252.19
397.77	1219.42
397.97	1179.63
398.16	1181.97
398.35	1172.61
398.55	1324.74
398.74	1245.16
398.93	1259.21
399.12	1273.25
399.32	1142.18
399.51	1270.91
399.70	1299.00
399.90	1383.26
400.09	1341.13
400.28	1366.87
400.47	1401.98
400.67	1371.55
400.86	1387.94
401.05	1364.53
401.24	1301.34
401.44	1467.52
401.63	1497.94
401.82	1345.81
402.01	1425.39
402.21	1423.05
402.40	1537.73
402.59	1458.15
402.78	1483.90
402.97	1469.86
403.17	1565.82
403.36	1497.94
403.55	1638.38
403.74	1554.12
403.93	1540.07
404.13	1596.25
404.32	1547.09
404.51	1607.95
404.70	1610.29
404.89	1638.38
405.09	1666.46
405.28	1612.63
405.47	1659.44
405.66	1739.02
405.85	1638.38
406.05	1720.29
406.24	1675.82
406.43	1832.64
406.62	1856.04
406.81	1764.76
407.00	1804.55
407.20	1771.79
407.39	1736.68
407.58	1792.85
407.77	1741.36
407.96	1818.60
408.15	1933.28
408.34	1952.01
408.54	1926.26
408.73	1996.48
408.92	1940.30
409.11	1952.01
409.30	1942.64
409.49	2001.16
409.68	1975.41
409.87	1940.30
410.07	1933.28
410.26	1982.43
410.45	2097.12
410.64	2099.46
410.83	2136.91
411.02	2150.95
411.21	2094.78
411.40	2050.31
411.59	2146.27
411.78	2106.48
411.98	2024.56
412.17	2209.47
412.36	2324.15
412.55	2272.66
412.74	2335.85
412.93	2319.47
413.12	2296.07
413.31	2415.43
413.50	2389.69
413.69	2396.71
413.88	2459.90
414.07	2413.09
414.26	2438.84
414.45	2527.78
414.64	2497.35
414.83	2455.22
415.02	2537.14
415.22	2640.12
415.41	2654.17
415.60	2684.59
415.79	2637.78
415.98	2796.94
416.17	2724.38
416.36	2717.36
416.55	2668.21
416.74	2822.69
416.93	2773.53
417.12	2981.84
417.31	2836.73
417.50	2700.98
417.69	2864.82
417.88	2977.16
418.07	2939.71
418.26	3035.67
418.45	2979.50
418.64	3045.04
418.83	2958.44
419.02	2965.46
419.21	3052.06
419.39	3047.38
419.58	3052.06
419.77	2956.10
419.96	3119.93
420.15	3213.56
420.34	3236.96
420.53	3159.72
420.72	3180.79
420.91	3246.32
421.10	3096.53
421.29	3346.97
421.48	3269.73
421.67	3368.03
421.86	3173.77
422.05	3262.71
422.24	3311.86
422.43	3229.94
422.61	3337.60
422.80	3391.44
422.99	3396.12
423.18	3375.05
423.37	3595.06
423.56	3428.88
423.75	3255.69
423.94	3396.12
424.13	3199.51
424.32	3302.50
424.50	3515.48
424.69	3616.13
424.88	3611.45
425.07	3433.57
425.26	3358.67
425.45	3372.71
425.64	3496.76
425.83	3337.60
426.01	3445.27
426.20	3386.76
426.39	3445.27
426.58	3463.99
426.77	3536.55
426.96	3590.38
427.15	3644.21
427.33	3637.19
427.52	3651.24
427.71	3595.06
427.90	3634.85
428.09	3520.17
428.28	3684.00
428.46	3672.30
428.65	3592.72
428.84	3700.39
429.03	3864.22
429.22	3714.43
429.40	3583.36
429.59	3548.25
429.78	3557.61
429.97	3548.25
430.16	3639.53
430.34	3562.30
430.53	3791.67
430.72	3808.05
430.91	3805.71
431.10	3829.12
431.28	3782.31
431.47	3957.85
431.66	3969.55
431.85	3861.88
432.03	3967.21
432.22	4025.72
432.41	3978.91
432.60	4105.30
432.79	3999.98
432.97	4135.73
433.16	4124.02
433.35	3997.64
433.54	4140.41
433.72	4161.47
433.91	4166.15
434.10	4135.73
434.28	3997.64
434.47	4208.28
434.66	4409.57
434.85	4346.37
435.03	4304.25
435.22	4259.78
435.41	4458.72
435.59	4397.87
435.78	4346.37
435.97	4447.02
436.16	4292.54
436.34	4348.72
436.53	4397.87
436.72	4442.34
436.90	4348.72
437.09	4535.96
437.28	4505.53
437.46	4489.15
437.65	4479.79
437.84	4559.36
438.02	4704.48
438.21	4594.47
438.40	4454.04
438.58	4681.07
438.77	4840.23
438.96	4753.63
439.14	4753.63
439.33	4823.84
439.52	4910.44
439.70	4952.57
439.89	4889.38
440.08	5027.47
440.26	5043.85
440.45	4823.84
440.63	4971.30
440.82	5221.74
441.01	5205.35
441.19	5107.05
441.38	5238.12
441.57	5097.69
441.75	5282.59
441.94	5495.58
442.12	5476.85
442.31	5542.39
442.50	5528.35
442.68	5338.76
442.87	5301.31
443.05	5486.22
443.24	5561.11
443.43	5724.95
443.61	5708.57
443.80	5874.74
443.98	5504.94
444.17	5427.70
444.35	5762.40
444.54	5877.09
444.73	5636.01
444.91	5802.19
445.10	5645.37
445.28	5750.70
445.47	5680.48
445.65	5647.71
445.84	5628.99
446.02	5839.64
446.21	5654.73
446.39	5703.89
446.58	5856.02
446.77	5769.42
446.95	5650.05
447.14	5743.67
447.32	5827.93
447.51	5626.65
447.69	5682.82
447.88	5717.93
448.06	5657.07
448.25	5563.45
448.43	5720.27
448.62	5921.56
448.80	5940.28
448.99	5863.04
449.17	5902.83
449.36	5898.15
449.54	5942.62
449.73	6017.52
449.91	6120.50
450.10	6132.20
450.28	6104.12
450.46	6120.50
450.65	6141.57
450.83	6106.46
451.02	6204.76
451.20	6277.32
451.39	6085.39
451.57	6190.72
451.76	6237.53
451.94	6373.28
452.13	6410.73
452.31	6242.21
452.49	6129.86
452.68	6298.38
452.86	6401.37
453.05	6244.55
453.23	6368.60
453.42	6399.02
453.60	6361.58
453.78	6366.26
453.97	6338.17
454.15	6321.79
454.34	6258.59
454.52	6511.37
454.70	6502.01
454.89	6513.71
455.07	6555.84
455.26	6651.80
455.44	6832.02
455.62	6640.10
455.81	6630.74
455.99	6773.51
456.17	6733.72
456.36	6635.42
456.54	6909.26
456.73	6995.86
456.91	6911.60
457.09	6878.83
457.28	7073.10
457.46	7061.40
457.64	6972.46
457.83	6906.92
458.01	7035.65
458.19	7192.47
458.38	7126.93
458.56	7164.38
458.74	7119.91
458.93	7138.63
459.11	7103.53
459.29	7241.62
459.48	7267.36
459.66	7194.81
459.84	7281.41
460.03	7576.31
460.21	7419.50
460.39	7342.26
460.57	7314.17
460.76	7297.79
460.94	7496.74
461.12	7548.23
461.31	7578.65
461.49	7470.99
461.67	7435.88
461.85	7761.22
462.04	7721.43
462.22	8210.60
462.40	7707.38
462.59	7634.83
462.77	7616.10
462.95	7960.16
463.13	7775.26
463.32	7765.90
463.50	7611.42
463.68	7679.30
463.86	7789.30
464.05	7700.36
464.23	7534.18
464.41	7793.98
464.59	7639.51
464.78	7964.84
464.96	7915.69
465.14	7744.83
465.32	8081.87
465.50	8053.78
465.69	8053.78
465.87	8060.80
466.05	8102.93
466.23	7925.05
466.41	8037.40
466.60	8184.85
466.78	8044.42
466.96	8021.02
467.14	8021.02
467.32	8184.85
467.51	8381.46
467.69	8086.55
467.87	8283.16
468.05	8336.99
468.23	8313.58
468.41	8201.24
468.60	8465.72
468.78	8264.43
468.96	8297.20
469.14	8512.53
469.32	8374.44
469.50	8379.12
469.69	8538.27
469.87	8704.45
470.05	8552.32
470.23	8659.98
470.41	8531.25
470.59	8961.91
470.77	8704.45
470.95	8716.16
471.14	8910.42
471.32	8765.31
471.50	9071.92
471.68	9048.51
471.86	8872.97
472.04	9083.62
472.22	9235.75
472.40	9029.79
472.58	8987.66
472.77	8957.23
472.95	9114.05
473.13	9502.58
473.31	9296.61
473.49	9315.33
473.67	9385.55
473.85	9399.59
474.03	9572.79
474.21	9474.49
474.39	9727.27
474.57	9584.49
474.75	9565.77
474.93	9879.40
475.12	9598.54
475.30	10019.83
475.48	9778.76
475.66	10029.20
475.84	10083.03
476.02	10113.45
476.20	10186.01
476.38	10066.64
476.56	10548.79
476.74	10387.30
476.92	10326.44
477.10	10452.83
477.28	10593.26
477.46	10572.20
477.64	10492.62
477.82	10668.16
478.00	11037.97
478.18	11178.40
478.36	11213.51
478.54	11178.40
478.72	11241.59
478.90	11358.62
479.08	11403.09
479.26	11630.12
479.44	11407.77
479.62	11782.26
479.80	11506.07
479.98	11779.92
480.16	11955.46
480.34	11812.68
480.52	12187.17
480.70	12114.61
480.88	11859.49
481.06	12224.62
481.24	12393.14
481.41	12512.50
481.59	12444.63
481.77	12531.23
481.95	12786.35
482.13	12627.19
482.31	12901.03
482.49	12837.84
482.67	13355.10
482.85	13532.98
483.03	13397.23
483.21	13425.31
483.39	13722.56
483.57	13535.32
483.74	13689.79
483.92	13870.01
484.10	13509.57
484.28	14106.41
484.46	14183.65
484.64	14476.21
484.82	14221.10
485.00	14633.03
485.18	14459.83
485.35	14766.44
485.53	14532.39
485.71	14703.25
485.89	14906.87
486.07	15044.96
486.25	14766.44
486.43	15435.83
486.61	15199.44
486.78	15625.42
486.96	15372.64
487.14	15768.19
487.32	15501.37
487.50	16156.72
487.68	16271.40
487.85	16058.42
488.03	16315.87
488.21	16414.18
488.39	16449.28
488.57	16570.99
488.75	16765.26
488.92	16964.20
489.10	17284.86
489.28	17385.50
489.46	17495.50
489.64	17097.61
489.81	17902.76
489.99	17853.61
490.17	17738.92
490.35	18120.43
490.53	18012.76
490.70	18445.76
490.88	18302.99
491.06	18422.36
491.24	18473.85
491.41	18291.29
491.59	18845.99
491.77	18462.15
491.95	18932.59
492.13	18883.44
492.30	19407.72
492.48	18939.62
492.66	19599.65
492.84	19405.38
493.01	19550.49
493.19	19864.13
493.37	19896.89
493.54	19946.05
493.72	20105.20
493.90	20388.41
494.08	20585.01
494.25	20861.19
494.43	20734.81
494.61	20645.87
494.79	20765.23
494.96	20807.36
495.14	20947.79
495.32	21111.63
495.49	21240.36
495.67	21343.35
495.85	21568.04
496.02	21411.22
496.20	21778.68
496.38	21958.91
496.55	21757.62
496.73	22452.76
496.91	22143.81
497.09	22345.09
497.26	22333.39
497.44	22281.90
497.62	22223.39
497.79	22892.78
497.97	22185.94
498.14	22852.99
498.32	23150.24
498.50	22918.53
498.67	23229.82
498.85	23180.67
499.03	23314.08
499.20	23545.79
499.38	23831.33
499.56	23850.06
499.73	23880.49
499.91	23931.98
500.08	23992.83
500.26	23943.68
500.44	24023.26
500.61	24247.95
500.79	24137.94
500.97	24362.64
501.14	24563.92
501.32	24493.71
501.49	24367.32
501.67	24463.28
501.84	24685.63
502.02	24793.29
502.20	24891.60
502.37	25198.21
502.55	24631.80
502.72	24996.92
502.90	25343.32
503.07	25240.34
503.25	25455.67
503.43	25411.20
503.60	25546.95
503.78	25420.56
503.95	25633.55
504.13	25556.31
504.30	25799.73
504.48	25652.27
504.65	25832.49
504.83	26305.28
505.01	26441.03
505.18	26534.65
505.36	26347.41
505.53	26698.49
505.71	26679.77
505.88	26836.58
506.06	26541.68
506.23	26670.40
506.41	26773.39
506.58	26962.97
506.76	27009.78
506.93	27236.81
507.11	27349.16
507.28	27096.38
507.46	27096.38
507.63	27211.07
507.81	27522.36
507.98	26977.01
508.16	27613.64
508.33	27704.92
508.50	27817.27
508.68	27793.86
508.85	28079.41
509.03	28210.48
509.20	28615.39
509.38	28327.50
509.55	28503.04
509.73	28250.27
509.90	28301.76
510.08	28355.59
510.25	28430.49
510.42	28755.82
510.60	28552.20
510.77	28872.85
510.95	29425.22
511.12	28884.55
511.30	28994.56
511.47	29481.39
511.64	29275.42
511.82	29383.09
511.99	29177.12
512.17	29640.54
512.34	29191.16
512.51	29642.88
512.69	29706.08
512.86	29996.31
513.04	30085.25
513.21	29811.40
513.38	29886.30
513.56	29898.00
513.73	29790.34
513.90	30312.28
514.08	29954.18
514.25	30316.96
514.43	30267.81
514.60	30286.53
514.77	30565.06
514.95	30487.82
515.12	30864.64
515.29	30897.41
515.47	30841.24
515.64	31056.57
515.81	30473.78
515.99	30841.24
516.16	31150.19
516.33	31311.69
516.51	31159.55
516.68	30916.14
516.85	31042.53
517.03	31068.27
517.20	31641.70
517.37	31344.45
517.54	31613.62
517.72	31688.51
517.89	31648.72
518.06	31260.20
518.24	31814.90
518.41	31171.25
518.58	31597.23
518.75	31622.98
518.93	32325.14
519.10	31995.12
519.27	32222.16
519.45	32329.82
519.62	32425.78
519.79	32418.76
519.96	32741.75
520.14	32613.02
520.31	32397.70
520.48	32718.35
520.65	32652.81
520.83	33048.36
521.00	33039.00
521.17	32716.01
521.34	32655.15
521.52	33209.86
521.69	33193.48
521.86	33263.69
522.03	33216.88
522.20	33186.46
522.38	33467.32
522.55	33682.65
522.72	33764.57
522.89	33823.08
523.07	33591.37
523.24	33305.82
523.41	33958.83
523.58	33474.34
523.75	34333.32
523.92	34146.08
524.10	34340.34
524.27	34075.86
524.44	34204.59
524.61	34178.84
524.78	34377.79
524.96	34581.42
525.13	34527.58
525.30	34543.97
525.47	35051.86
525.64	34569.71
525.81	34377.79
525.98	34703.12
526.16	34359.06
526.33	35035.48
526.50	35218.04
526.67	35000.37
526.84	34986.33
527.01	35082.29
527.18	34930.16
527.36	35585.50
527.53	35704.87
527.70	35555.08
527.87	35419.33
528.04	35342.09
528.21	35543.38
528.38	35622.95
528.55	35541.03
528.72	35339.75
528.89	35786.79
529.07	35779.77
529.24	35424.01
529.41	35681.47
529.58	35779.77
529.75	35938.93
529.92	36041.91
530.09	36165.96
530.26	35789.13
530.43	35969.35
530.60	36105.10
530.77	35742.32
530.94	36575.55
531.11	36444.48
531.28	36634.06
531.46	36367.24
531.63	36503.00
531.80	36959.40
531.97	36418.74
532.14	36758.11
532.31	37003.87
532.48	36603.64
532.65	36840.03
532.82	36617.68
532.99	37333.89
533.16	36781.52
533.33	36634.06
533.50	37202.82
533.67	36889.18
533.84	36980.46
534.01	37266.01
534.18	37078.77
534.35	37357.29
534.52	37359.63
534.69	37406.44
534.86	37481.34
535.03	37464.96
535.20	37958.81
535.37	37879.23
535.54	38218.61
535.71	37387.72
535.88	37794.97
536.05	37422.83
536.22	37776.25
536.38	37895.61
536.55	38061.79
536.72	37991.58
536.89	37476.66
537.06	37336.23
537.23	37944.76
537.40	38314.57
537.57	38146.05
537.74	38185.84
537.91	38452.66
538.08	38220.95
538.25	38054.77
538.42	38576.71
538.59	38738.21
538.75	38265.42
538.92	38705.44
539.09	38497.13
539.26	38871.62
539.43	38438.62
539.60	38445.64
539.77	38279.46
539.94	38864.60
540.11	38749.91
540.28	39189.93
540.44	38218.61
540.61	38848.21
540.78	38934.81
540.95	38857.57
541.12	38513.52
541.29	39098.65
541.46	38714.80
541.62	39232.06
541.79	39084.61
541.96	38981.62
542.13	39049.50
542.30	39196.95
542.47	39400.58
542.63	39147.80
542.80	39707.19
542.97	39892.09
543.14	39894.43
543.31	39674.42
543.48	39812.51
543.64	40304.02
543.81	39945.92
543.98	39901.45
544.15	40009.12
544.32	40025.50
544.48	40039.54
544.65	39915.50
544.82	40191.68
544.99	39735.27
545.16	40121.46
545.32	39707.19
545.49	40374.24
545.66	40294.66
545.83	40498.29
546.00	40144.87
546.16	40367.22
546.33	40416.37
546.50	40273.60
546.67	40280.62
546.83	39821.87
547.00	40355.52
547.17	40751.07
547.34	40596.59
547.50	40545.10
547.67	40856.39
547.84	40793.20
548.00	40989.80
548.17	40900.86
548.34	40863.41
548.51	40849.37
548.67	40807.24
548.84	40746.39
549.01	40882.14
549.18	40814.26
549.34	41029.59
549.51	41404.08
549.68	41574.94
549.84	41209.81
550.01	41375.99
550.18	40856.39
550.34	41357.27
550.51	41158.32
550.68	41200.45
550.84	41141.94
551.01	41223.86
551.18	41399.40
551.34	41329.18
551.51	41523.44
551.68	41691.96
551.84	41858.14
552.01	41434.50
552.18	41603.02
552.34	40921.93
552.51	41876.86
552.68	41736.43
552.84	42038.36
553.01	42101.56
553.18	41804.31
553.34	41879.21
553.51	41446.21
553.67	41918.99
553.84	42232.63
554.01	42174.11
554.17	42195.18
554.34	42295.82
554.51	42462.00
554.67	41851.12
554.84	41918.99
555.00	42059.43
555.17	41757.50
555.33	42583.71
555.50	42471.36
555.67	42209.22
555.83	42160.07
556.00	42085.17
556.16	42969.90
556.33	42539.24
556.50	42674.99
556.66	42520.51
556.83	42314.55
556.99	42590.73
557.16	42492.43
557.32	42525.19
557.49	42323.91
557.65	41951.76
557.82	42813.08
557.98	42887.98
558.15	42560.30
558.32	42934.79
558.48	42602.43
558.65	42763.93
558.81	42787.33
558.98	42480.72
559.14	42890.32
559.31	42880.95
559.47	42148.37
559.64	43201.61
559.80	42677.33
559.97	43100.97
560.13	42560.30
560.30	42731.16
560.46	42890.32
560.63	43044.79
560.79	42948.83
560.96	43138.41
561.12	42359.02
561.29	43005.00
561.45	43005.00
561.61	43058.84
561.78	42930.11
561.94	42527.53
562.11	43152.46
562.27	43152.46
562.44	42953.51
562.60	43330.34
562.77	43344.38
562.93	42415.19
563.10	43000.32
563.26	42440.93
563.42	43201.61
563.59	43309.27
563.75	43070.54
563.92	43445.02
564.08	43386.51
564.24	43503.54
564.41	43136.07
564.57	43168.84
564.74	43608.86
564.90	43552.69
565.07	43236.72
565.23	43667.37
565.39	43239.06
565.56	43337.36
565.72	43222.67
565.88	43449.70
566.05	43201.61
566.21	43290.55
566.38	43070.54
566.54	43196.93
566.70	43761.00
566.87	43732.91
567.03	43473.11
567.19	43622.90
567.36	43402.89
567.52	43356.08
567.68	44198.68
567.85	43421.62
568.01	43585.46
568.17	43297.57
568.34	43576.09
568.50	43594.82
568.66	43693.12
568.83	43859.30
568.99	43592.48
569.15	43580.78
569.32	43615.88
569.48	43576.09
569.64	43913.13
569.81	43863.98
569.97	43510.56
570.13	43718.87
570.30	43746.95
570.46	43222.67
570.62	43761.00
570.78	43496.52
570.95	43208.63
571.11	43810.15
571.27	43847.60
571.43	43662.69
571.60	43796.10
571.76	43658.01
571.92	43716.53
572.09	43416.94
572.25	43821.85
572.41	43866.32
572.57	43421.62
572.74	44304.00
572.90	43906.11
573.06	43784.40
573.22	44170.59
573.38	43674.40
573.55	43976.33
573.71	43941.22
573.87	43973.98
574.03	43583.12
574.20	43718.87
574.36	43819.51
574.52	44165.91
574.68	44037.18
574.84	43793.76
575.01	43648.65
575.17	44034.84
575.33	43854.62
575.49	43597.16
575.65	44053.56
575.82	43943.56
575.98	43871.00
576.14	44023.14
576.30	43957.60
576.46	43791.42
576.62	43878.02
576.79	43789.08
576.95	43653.33
577.11	44149.53
577.27	44020.80
577.43	44119.10
577.59	44039.52
577.75	43906.11
577.92	43770.36
578.08	44041.86
578.24	43903.77
578.40	43681.42
578.56	43728.23
578.72	43423.96
578.88	44278.25
579.04	44226.76
579.21	44098.03
579.37	44030.16
579.53	43559.71
579.69	43332.68
579.85	43913.13
580.01	43985.69
580.17	43988.03
580.33	44051.22
580.49	44219.74
580.65	43927.17
580.82	44233.78
580.98	44116.76
581.14	43969.30
581.30	44561.46
581.46	44095.69
581.62	44067.61
581.78	44271.23
581.94	44334.43
582.10	44318.04
582.26	44474.86
582.42	44189.31
582.58	44158.89
582.74	44130.80
582.90	44463.16
583.06	44201.02
583.22	44069.95
583.38	44498.26
583.54	43943.56
583.70	44086.33
583.86	44189.31
584.02	43660.35
584.18	44439.75
584.34	44486.56
584.50	44121.44
584.66	44402.30
584.82	43723.55
584.98	44683.17
585.14	44037.18
585.30	44409.32
585.46	44294.64
585.62	44336.77
585.78	44119.10
585.94	43400.55
586.10	44198.68
586.26	44437.41
586.42	44065.27
586.58	44353.15
586.74	44067.61
586.90	44023.14
587.06	43636.95
587.22	44378.90
587.38	43845.26
587.54	44294.64
587.70	44781.47
587.86	44128.46
588.02	44205.70
588.18	44463.16
588.34	43981.01
588.49	43966.96
588.65	44194.00
588.81	44051.22
588.97	44233.78
589.13	43700.14
589.29	43959.94
589.45	44502.95
589.61	44179.95
589.77	44589.55
589.93	44582.52
590.08	44648.06
590.24	44727.64
590.40	44395.28
590.56	44699.55
590.72	44531.03
590.88	44142.50
591.04	43969.30
591.20	44877.43
591.35	44416.35
591.51	44844.66
591.67	44535.71
591.83	44889.13
591.99	43950.58
592.15	44390.60
592.31	44498.26
592.46	44076.97
592.62	44392.94
592.78	44727.64
592.94	44444.43
593.10	44528.69
593.26	44528.69
593.41	44847.00
593.57	44341.45
593.73	44636.36
593.89	44765.09
594.05	44479.54
594.20	44484.22
594.36	44601.25
594.52	44722.96
594.68	44395.28
594.84	44554.44
594.99	44975.73
595.15	44610.61
595.31	44430.39
595.47	44893.82
595.62	44692.53
595.78	44495.92
595.94	44196.34
596.10	44814.24
596.25	44928.92
596.41	44481.88
596.57	44470.18
596.73	44615.29
596.88	44545.08
597.04	44313.36
597.20	44442.09
597.36	44388.26
597.51	44741.68
597.67	44556.78
597.83	44973.39
597.99	45029.57
598.14	44589.55
598.30	44694.87
598.46	44430.39
598.61	44215.06
598.77	44858.71
598.93	44821.26
599.09	44474.86
599.24	45305.75
599.40	44823.60
599.56	44753.38
599.71	44535.71
599.87	44952.33
600.03	44992.12
600.18	44465.50
600.34	44435.07
600.50	44837.64
600.65	44659.76
600.81	44629.34
600.97	45034.25
601.12	45081.06
601.28	45057.65
601.44	44732.32
601.59	44683.17
601.75	44563.80
601.91	44673.81
602.06	44722.96
602.22	44697.21
602.37	44655.08
602.53	44430.39
602.69	44917.22
602.84	44706.57
603.00	44687.85
603.16	44844.66
603.31	44156.55
603.47	44397.62
603.62	44257.19
603.78	45024.89
603.94	44313.36
604.09	45382.99
604.25	44755.72
604.40	44856.37
604.56	44825.94
604.71	44847.00
604.87	44746.36
605.03	44758.06
605.18	44678.49
605.34	44371.88
605.49	43966.96
605.65	44772.11
605.80	44767.43
605.96	44718.28
606.12	44364.85
606.27	44495.92
606.43	44711.25
606.58	44673.81
606.74	44638.70
606.89	44643.38
607.05	44528.69
607.20	44458.48
607.36	44622.31
607.51	44928.92
607.67	44495.92
607.82	44556.78
607.98	44362.51
608.13	44107.40
608.29	44018.46
608.44	43985.69
608.60	43730.57
608.75	44013.77
608.91	44432.73
609.06	43934.20
609.22	44767.43
609.37	44304.00
609.53	44282.94
609.68	44402.30
609.84	44224.42
609.99	44542.74
610.15	44416.35
610.30	44102.71
610.46	44016.11
610.61	44048.88
610.76	44041.86
610.92	44144.84
611.07	43688.44
611.23	43761.00
611.38	43775.04
611.54	44109.74
611.69	43407.58
611.84	44154.21
612.00	43896.75
612.15	44289.96
612.31	43833.55
612.46	43943.56
612.62	44329.75
612.77	44002.07
612.92	43873.34
613.08	43819.51
613.23	43812.49
613.39	43882.70
613.54	43416.94
613.69	43833.55
613.85	43786.74
614.00	43814.83
614.15	44048.88
614.31	43929.51
614.46	44285.28
614.62	43639.29
614.77	43915.47
614.92	43929.51
615.08	43739.93
615.23	43573.75
615.38	43805.47
615.54	43592.48
615.69	43290.55
615.84	43283.53
616.00	43508.22
616.15	43452.05
616.30	43517.58
616.46	43154.80
616.61	43402.89
616.76	43526.94
616.92	43370.13
617.07	43075.22
617.22	43206.29
617.37	43044.79
617.53	43330.34
617.68	43665.03
617.83	43395.87
617.99	43753.97
618.14	43313.95
618.29	43033.09
618.45	42742.86
618.60	43061.18
618.75	43585.46
618.90	42953.51
619.06	43213.31
619.21	43007.34
619.36	43093.94
619.51	43023.73
619.67	42583.71
619.82	43342.04
619.97	42972.24
620.12	42916.06
620.28	42944.15
620.43	42988.62
620.58	42939.47
620.73	42426.89
620.89	42925.42
621.04	43145.44
621.19	42520.51
621.34	42464.34
621.49	42754.57
621.65	42693.71
621.80	43346.72
621.95	42637.54
622.10	42684.35
622.25	42698.39
622.41	42859.89
622.56	42300.50
622.71	42593.07
622.86	42644.56
623.01	42541.58
623.16	42485.40
623.32	42298.16
623.47	42497.11
623.62	42387.10
623.77	42476.04
623.92	42452.64
624.07	41958.78
624.23	42326.25
624.38	41745.80
624.53	42124.96
624.68	42419.87
624.83	42122.62
624.98	41963.46
625.13	42155.39
625.29	42223.26
625.44	41804.31
625.59	41848.78
625.74	41614.72
625.89	41598.34
626.04	41563.23
626.19	41874.52
626.34	41956.44
626.49	41879.21
626.65	42110.92
626.80	42396.46
626.95	41954.10
627.10	41242.58
627.25	41801.97
627.40	41256.62
627.55	41401.74
627.70	41006.19
627.85	41457.91
628.00	41083.42
628.15	42462.00
628.30	42036.02
628.45	41537.49
628.60	42021.98
628.76	41968.15
628.91	41226.20
629.06	41401.74
629.21	41347.90
629.36	41347.90
629.51	41294.07
629.66	41537.49
629.81	41006.19
629.96	40952.35
630.11	41471.95
630.26	41298.75
630.41	41188.75
630.56	41085.76
630.71	41235.56
630.86	40669.15
631.01	41233.22
631.16	41521.10
631.31	40982.78
631.46	41043.63
631.61	41219.17
631.76	40854.05
631.91	40999.16
632.06	40978.10
632.21	40868.09
632.36	40938.31
632.51	40807.24
632.66	41001.50
632.81	40072.31
632.96	41256.62
633.10	40547.44
633.25	40325.09
633.40	40889.16
633.55	40760.43
633.70	40650.42
633.85	40732.34
634.00	40552.12
634.15	40673.83
634.30	40383.60
634.45	40325.09
634.60	40587.23
634.75	40271.26
634.90	41001.50
635.05	40266.58
635.19	40678.51
635.34	40320.41
635.49	39835.92
635.64	40334.45
635.79	40149.55
635.94	40041.88
636.09	40076.99
636.24	39966.99
636.39	40114.44
636.53	40037.20
636.68	39742.30
636.83	39676.76
636.98	40299.34
637.13	40184.66
637.28	39880.39
637.43	39873.37
637.57	40315.73
637.72	40453.82
637.87	39990.39
638.02	40177.64
638.17	39606.55
638.32	39559.73
638.46	39372.49
638.61	39896.77
638.76	39548.03
638.91	39770.38
639.06	39779.74
639.20	40128.48
639.35	39966.99
639.50	39573.78
639.65	40098.06
639.80	40041.88
639.94	39501.22
640.09	39487.18
640.24	39529.31
640.39	39512.92
640.54	39257.81
640.68	39463.77
640.83	39545.69
640.98	38700.76
641.13	39243.76
641.27	39480.16
641.42	39629.95
641.57	39775.06
641.72	39344.41
641.86	39454.41
642.01	39196.95
642.16	39157.16
642.31	39122.05
642.45	38721.82
642.60	38836.51
642.75	38513.52
642.90	38649.27
643.04	39306.96
643.19	39136.10
643.34	39110.35
643.48	38885.66
643.63	38813.10
643.78	38623.52
643.93	38389.47
644.07	38794.38
644.22	38698.42
644.37	38565.01
644.51	38726.50
644.66	39056.52
644.81	39283.55
644.95	38450.32
645.10	39030.77
645.25	39150.14
645.39	38944.17
645.54	38869.28
645.69	38920.77
645.83	38763.95
645.98	39108.01
646.13	38529.90
646.27	38726.50
646.42	38778.00
646.57	38572.03
646.71	38469.04
646.86	38726.50
647.00	38604.80
647.15	38951.20
647.30	38698.42
647.44	39002.69
647.59	38518.20
647.74	38124.99
647.88	38153.07
648.03	38557.99
648.17	38532.24
648.32	37879.23
648.47	37991.58
648.61	37851.14
648.76	38740.55
648.90	38132.01
649.05	38108.60
649.20	38096.90
649.34	37916.68
649.49	37893.27
649.63	37579.64
649.78	37518.79
649.92	37923.70
650.07	37923.70
650.21	38134.35
650.36	37975.19
650.51	37848.80
650.65	38106.26
650.80	38653.95
650.94	38279.46
651.09	37914.34
651.23	37766.88
651.38	37921.36
651.52	37558.58
651.67	37441.55
651.81	37874.55
651.96	37497.72
652.10	37532.83
652.25	37923.70
652.39	37500.06
652.54	37343.25
652.68	37635.81
652.83	37490.70
652.97	37537.51
653.12	37614.75
653.26	37198.13
653.41	37631.13
653.55	37621.77
653.70	37584.32
653.84	37514.11
653.99	37160.69
654.13	37696.67
654.27	37258.99
654.42	37361.97
654.56	37329.20
654.71	37212.18
654.85	37120.90
655.00	37198.13
655.14	36849.39
655.29	36538.10
655.43	36734.71
655.57	36961.74
655.72	36945.36
655.86	36921.95
656.01	36627.04
656.15	36900.89
656.30	36666.83
656.44	36680.88
656.58	36655.13
656.73	36996.85
656.87	35952.97
657.01	36598.96
657.16	36697.26
657.30	36769.82
657.45	36273.62
657.59	36538.10
657.73	36723.01
657.88	36547.47
658.02	36526.40
658.16	36514.70
658.31	36734.71
658.45	36395.33
658.60	36528.74
658.74	36407.03
658.88	36657.47
659.03	36191.70
659.17	36355.54
659.31	36208.09
659.46	36098.08
659.60	36470.23
659.74	36135.53
659.89	35704.87
660.03	35662.74
660.17	36247.88
660.32	36247.88
660.46	35927.22
660.60	36107.44
660.74	35742.32
660.89	35896.80
661.03	35489.54
661.17	35522.31
661.32	35524.65
661.46	35344.43
661.60	35314.00
661.74	35391.24
661.89	35655.72
662.03	35573.80
662.17	34934.84
662.31	35555.08
662.46	35037.82
662.60	35239.11
662.74	35332.73
662.88	35136.12
663.03	34902.07
663.17	35082.29
663.31	34761.64
663.45	34766.32
663.60	34810.79
663.74	34422.26
663.88	34873.98
664.02	34719.51
664.17	34719.51
664.31	34747.59
664.45	34693.76
664.59	35086.97
664.73	34541.63
664.88	34637.59
665.02	34120.33
665.16	34555.67
665.30	34429.28
665.44	34302.89
665.59	34080.54
665.73	33820.74
665.87	33869.89
666.01	33912.02
666.15	34270.12
666.29	33989.26
666.44	34068.84
666.58	34071.18
666.72	34026.71
666.86	33795.00
667.00	33736.48
667.14	33586.69
667.28	33652.22
667.43	33413.49
667.57	33645.20
667.71	33308.16
667.85	33474.34
667.99	33610.09
668.13	33170.07
668.27	33226.24
668.41	33326.89
668.56	32830.69
668.70	33383.06
668.84	33158.37
668.98	33340.93
669.12	32844.74
669.26	33251.99
669.40	32538.13
669.54	33001.55
669.68	33024.96
669.82	32968.79
669.96	32538.13
670.10	32065.34
670.25	33099.86
670.39	32587.28
670.53	32713.67
670.67	32261.94
670.81	32662.18
670.95	32051.30
671.09	32039.59
671.23	32208.11
671.37	32615.37
671.51	31913.20
671.65	31431.05
671.79	32018.53
671.93	31515.31
672.07	32383.65
672.21	31945.97
672.35	31952.99
672.49	31255.51
672.63	31892.14
672.77	31079.97
672.91	31192.32
673.05	31503.61
673.19	31260.20
673.33	31110.40
673.47	30899.75
673.61	30834.22
673.75	30991.03
673.89	30738.26
674.03	31051.89
674.17	30441.01
674.31	30703.15
674.45	30469.09
674.59	30782.73
674.73	30946.56
674.87	30780.39
675.01	30829.54
675.15	30775.70
675.29	30548.67
675.43	30567.40
675.56	30377.81
675.70	30319.30
675.84	29771.61
675.98	29039.03
676.12	29879.28
676.26	29612.46
676.40	29584.37
676.54	29280.10
676.68	29303.51
676.82	29074.13
676.96	29347.98
677.10	29043.71
677.23	29163.08
677.37	29041.37
677.51	29237.97
677.65	28879.87
677.79	28758.16
677.93	28823.70
678.07	28685.61
678.21	28268.99
678.34	28847.10
678.48	28418.78
678.62	28538.15
678.76	28137.92
678.90	28098.13
679.04	27908.55
679.18	28095.79
679.31	27447.46
679.45	27536.40
679.59	27520.02
679.73	27442.78
679.87	27386.61
680.00	27524.70
680.14	27225.11
680.28	27098.72
680.42	27096.38
680.56	26916.16
680.70	27173.62
680.83	27161.92
680.97	26845.94
681.11	26785.09
681.25	26455.08
681.39	26499.55
681.52	26759.34
681.66	26724.24
681.80	26513.59
681.94	26452.73
682.07	26305.28
682.21	25912.07
682.35	25909.73
682.49	26005.69
682.62	26061.87
682.76	26050.16
682.90	25736.53
683.04	25727.17
683.17	25642.91
683.31	25933.14
683.45	25462.69
683.59	25713.13
683.72	24912.66
683.86	25284.81
684.00	25118.63
684.13	25146.72
684.27	25078.84
684.41	24952.45
684.55	25022.67
684.68	24409.45
684.82	24683.29
684.96	24432.85
685.09	24393.06
685.23	24334.55
685.37	24467.96
685.50	24393.06
685.64	24147.31
685.78	24060.71
685.91	24053.69
686.05	23784.52
686.19	23810.27
686.32	23702.61
686.46	23634.73
686.60	23498.98
686.73	23765.80
686.87	23417.06
687.01	23529.41
687.14	22998.10
687.28	23133.86
687.42	23213.43
687.55	22867.03
687.69	22728.94
687.82	22721.92
687.96	22787.46
688.10	22799.16
688.23	22714.90
688.37	22314.67
688.50	22106.36
688.64	21891.03
688.78	22057.21
688.91	22043.17
689.05	22059.55
689.18	22174.24
689.32	21546.97
689.46	21947.20
689.59	21876.99
689.73	22019.76
689.86	21270.79
690.00	21322.28
690.13	21661.66
690.27	21523.57
690.41	21275.47
690.54	21050.78
690.68	21032.05
690.81	20938.43
690.95	21064.82
691.08	20418.83
691.22	20482.03
691.35	20875.24
691.49	20594.37
691.62	20575.65
691.76	20620.12
691.89	20357.98
692.03	20327.55
692.16	20098.18
692.30	20276.06
692.43	20095.84
692.57	20053.71
692.70	19913.28
692.84	19676.88
692.97	19864.13
693.11	19559.86
693.24	19213.46
693.38	19653.48
693.51	19204.10
693.65	19857.10
693.78	19140.90
693.92	19356.23
694.05	19393.68
694.19	18909.19
694.32	19166.65
694.45	18906.85
694.59	18956.00
694.72	18895.14
694.86	18883.44
694.99	18583.85
695.13	18642.37
695.26	18572.15
695.39	18253.84
695.53	18338.10
695.66	18132.13
695.80	18192.98
695.93	18122.77
696.07	18115.75
696.20	17888.71
696.33	17806.80
696.47	18078.30
696.60	17762.33
696.73	17652.32
696.87	17844.24
697.00	17455.72
697.14	17771.69
697.27	17446.35
697.40	17451.03
697.54	17432.31
697.67	17088.25
697.80	17245.07
697.94	17305.92
698.07	17064.85
698.21	16844.84
698.34	16999.31
698.47	16893.99
698.61	16285.45
698.74	16573.33
698.87	16617.80
699.01	16376.73
699.14	16123.95
699.27	16023.31
699.40	16175.44
699.54	16149.70
699.67	16009.26
699.80	15957.77
699.94	15627.76
700.07	16032.67
700.20	16039.69
700.34	15644.14
700.47	15885.22
700.60	15737.76
700.73	15733.08
700.87	15356.25
701.00	15508.39
701.13	15370.30
701.26	15279.02
701.40	15391.36
701.53	15220.50
701.66	15382.00
701.79	15293.06
701.93	14691.54
702.06	14775.80
702.19	14986.45
702.32	14974.75
702.46	14642.39
702.59	14647.07
702.72	14731.33
702.85	14602.60
702.99	14581.54
703.12	14560.47
703.25	14452.81
703.38	14429.40
703.51	14443.45
703.65	14265.57
703.78	14064.28
703.91	13839.59
704.04	13898.10
704.17	13715.54
704.31	13951.93
704.44	13458.08
704.57	13724.90
704.70	13610.22
704.83	13654.69
704.96	13383.18
705.10	13596.17
705.23	13706.18
>>>>>End Processed Spectral Data<<<<<
