SpectraSuite Data File
++++++++++++++++++++++++++++++++++++
Date: Fri Oct 25 11:34:34 EDT 2013
User: price-jones
Dark Spectrum Present: No
Reference Spectrum Present: No
Number of Sampled Component Spectra: 1
Spectrometers: USB2+H05261
Integration Time (usec): 100000 (USB2+H05261)
Spectra Averaged: 1 (USB2+H05261)
Boxcar Smoothing: 0 (USB2+H05261)
Correct for Electrical Dark: No (USB2+H05261)
Strobe/Lamp Enabled: No (USB2+H05261)
Correct for Detector Non-linearity: No (USB2+H05261)
Correct for Stray Light: No (USB2+H05261)
Number of Pixels in Processed Spectrum: 2048
>>>>>Begin Processed Spectral Data<<<<<
365.73	217.67
365.92	217.67
366.12	217.67
366.32	280.86
366.52	152.13
366.72	262.14
366.91	196.60
367.11	156.82
367.31	180.22
367.51	198.95
367.70	93.62
367.90	208.31
368.10	203.63
368.30	191.92
368.49	112.35
368.69	210.65
368.89	196.60
369.09	273.84
369.28	227.03
369.48	210.65
369.68	248.10
369.87	255.12
370.07	271.50
370.27	301.93
370.47	351.08
370.66	491.51
370.86	564.07
371.06	491.51
371.25	524.28
371.45	500.87
371.65	552.37
371.84	456.40
372.04	573.43
372.24	587.47
372.44	578.11
372.63	617.90
372.83	543.00
373.03	627.26
373.22	578.11
373.42	587.47
373.62	601.52
373.81	550.03
374.01	603.86
374.21	657.69
374.40	606.20
374.60	695.14
374.79	695.14
374.99	662.37
375.19	716.20
375.38	596.84
375.58	631.94
375.78	641.31
375.97	606.20
376.17	620.24
376.37	641.31
376.56	690.46
376.76	606.20
376.95	589.82
377.15	699.82
377.35	734.93
377.54	674.07
377.74	711.52
377.93	690.46
378.13	674.07
378.33	685.78
378.52	664.71
378.72	730.25
378.91	704.50
379.11	746.63
379.31	692.80
379.50	653.01
379.70	732.59
379.89	685.78
380.09	737.27
380.28	655.35
380.48	772.38
380.68	711.52
380.87	678.76
381.07	716.20
381.26	690.46
381.46	791.10
381.65	753.65
381.85	725.57
382.04	606.20
382.24	849.61
382.43	791.10
382.63	739.61
382.83	788.76
383.02	802.80
383.22	858.98
383.41	727.91
383.61	732.59
383.80	823.87
384.00	842.59
384.19	695.14
384.39	730.25
384.58	837.91
384.78	828.55
384.97	793.44
385.17	833.23
385.36	842.59
385.56	753.65
385.75	786.42
385.95	840.25
386.14	910.47
386.34	884.72
386.53	809.83
386.72	830.89
386.92	915.15
387.11	931.53
387.31	830.89
387.50	821.53
387.70	851.96
387.89	873.02
388.09	863.66
388.28	908.13
388.48	917.49
388.67	957.28
388.86	891.74
389.06	866.00
389.25	936.21
389.45	873.02
389.64	861.32
389.84	901.11
390.03	983.02
390.22	952.60
390.42	884.72
390.61	931.53
390.81	973.66
391.00	1001.75
391.19	983.02
391.39	1020.47
391.58	1095.37
391.78	931.53
391.97	1006.43
392.16	964.30
392.36	910.47
392.55	1078.99
392.75	1041.54
392.94	1088.35
393.13	1008.77
393.33	1048.56
393.52	1041.54
393.71	1116.44
393.91	1036.86
394.10	1001.75
394.29	1041.54
394.49	1039.20
394.68	1116.44
394.88	1083.67
395.07	1067.28
395.26	1081.33
395.46	1109.41
395.65	1034.52
395.84	1135.16
396.04	1107.07
396.23	1114.10
396.42	1186.65
396.62	1188.99
396.81	1153.88
397.00	1142.18
397.19	1165.59
397.39	1212.40
397.58	1205.38
397.77	1144.52
397.97	1210.06
398.16	1245.16
398.35	1245.16
398.55	1193.67
398.74	1313.04
398.93	1284.95
399.12	1163.25
399.32	1256.87
399.51	1299.00
399.70	1329.42
399.90	1334.11
400.09	1352.83
400.28	1315.38
400.47	1315.38
400.67	1378.58
400.86	1404.32
401.05	1341.13
401.24	1348.15
401.44	1390.28
401.63	1383.26
401.82	1315.38
402.01	1308.36
402.21	1378.58
402.40	1430.07
402.59	1406.66
402.78	1502.62
402.97	1514.33
403.17	1500.28
403.36	1502.62
403.55	1460.49
403.74	1565.82
403.93	1593.90
404.13	1591.56
404.32	1413.68
404.51	1528.37
404.70	1600.93
404.89	1593.90
405.09	1626.67
405.28	1598.59
405.47	1645.40
405.66	1694.55
405.85	1720.29
406.05	1671.14
406.24	1694.55
406.43	1671.14
406.62	1813.92
406.81	1762.42
407.00	1813.92
407.20	1678.16
407.39	1659.44
407.58	1783.49
407.77	1757.74
407.96	1860.73
408.15	1785.83
408.34	1844.34
408.54	1832.64
408.73	1781.15
408.92	1797.53
409.11	1872.43
409.30	1928.60
409.49	1823.28
409.68	1863.07
409.87	1888.81
410.07	1961.37
410.26	1952.01
410.45	1916.90
410.64	2005.84
410.83	2040.95
411.02	2047.97
411.21	2174.36
411.40	2080.74
411.59	2120.53
411.78	2113.50
411.98	2097.12
412.17	2090.10
412.36	2108.82
412.55	2225.85
412.74	2338.20
412.93	2270.32
413.12	2179.04
413.31	2424.80
413.50	2204.78
413.69	2270.32
413.88	2410.75
414.07	2363.94
414.26	2370.96
414.45	2422.45
414.64	2392.03
414.83	2548.84
415.02	2520.76
415.22	2600.34
415.41	2457.56
415.60	2642.46
415.79	2649.49
415.98	2658.85
416.17	2553.52
416.36	2597.99
416.55	2649.49
416.74	2661.19
416.93	2654.17
417.12	2717.36
417.31	2810.98
417.50	2754.81
417.69	2920.99
417.88	2792.26
418.07	2871.84
418.26	2782.90
418.45	2743.11
418.64	2974.82
418.83	3007.59
419.02	3066.10
419.21	2857.79
419.39	2965.46
419.58	2899.92
419.77	2967.80
419.96	2928.01
420.15	3052.06
420.34	3002.91
420.53	3138.66
420.72	2993.55
420.91	3063.76
421.10	3169.09
421.29	3052.06
421.48	3077.80
421.67	3208.87
421.86	3187.81
422.05	3162.06
422.24	3166.74
422.43	3274.41
422.61	3396.12
422.80	3190.15
422.99	3201.85
423.18	3094.19
423.37	3094.19
423.56	3197.17
423.75	3316.54
423.94	3096.53
424.13	2965.46
424.32	3129.30
424.50	3302.50
424.69	3379.73
424.88	3337.60
425.07	3241.64
425.26	3220.58
425.45	3353.99
425.64	3286.11
425.83	3398.46
426.01	3428.88
426.20	3398.46
426.39	3356.33
426.58	3323.56
426.77	3353.99
426.96	3328.24
427.15	3323.56
427.33	3510.80
427.52	3384.41
427.71	3463.99
427.90	3585.70
428.09	3552.93
428.28	3475.70
428.46	3564.64
428.65	3503.78
428.84	3634.85
429.03	3576.34
429.22	3545.91
429.40	3592.72
429.59	3606.77
429.78	3637.19
429.97	3361.01
430.16	3576.34
430.34	3597.40
430.53	3637.19
430.72	3737.84
430.91	3747.20
431.10	3634.85
431.28	3777.62
431.47	3777.62
431.66	3794.01
431.85	3906.35
432.03	3911.04
432.22	3896.99
432.41	4014.02
432.60	3906.35
432.79	3962.53
432.97	3934.44
433.16	3801.03
433.35	3988.27
433.54	4060.83
433.72	3939.12
433.91	3845.50
434.10	3885.29
434.28	4032.74
434.47	4035.08
434.66	4095.94
434.85	4105.30
435.03	4109.98
435.22	4079.55
435.41	4189.56
435.59	4147.43
435.78	4222.33
435.97	4264.46
436.16	4140.41
436.34	4238.71
436.53	4191.90
436.72	4313.61
436.90	4250.41
437.09	4351.06
437.28	4187.22
437.46	4264.46
437.65	4369.78
437.84	4432.97
438.02	4400.21
438.21	4393.19
438.40	4451.70
438.58	4503.19
438.77	4557.02
438.96	4411.91
439.14	4447.02
439.33	4751.29
439.52	4699.80
439.70	4727.88
439.89	4807.46
440.08	4826.18
440.26	4725.54
440.45	4781.71
440.63	4706.82
440.82	5036.83
441.01	4880.02
441.19	5050.88
441.38	4919.81
441.57	5006.41
441.75	5167.90
441.94	5085.98
442.12	5224.08
442.31	5069.60
442.50	5207.69
442.68	5277.91
442.87	5254.50
443.05	5228.76
443.24	5224.08
443.43	5341.10
443.61	5364.51
443.80	5479.19
443.98	5270.89
444.17	5212.37
444.35	5224.08
444.54	5490.90
444.73	5380.89
444.91	5305.99
445.10	5392.59
445.28	5331.74
445.47	5305.99
445.65	5343.44
445.84	5420.68
446.02	5401.96
446.21	5453.45
446.39	5465.15
446.58	5465.15
446.77	5357.49
446.95	5413.66
447.14	5488.56
447.32	5495.58
447.51	5481.53
447.69	5416.00
447.88	5533.03
448.06	5533.03
448.25	5514.30
448.43	5500.26
448.62	5628.99
448.80	5561.11
448.99	5584.52
449.17	5570.48
449.36	5624.31
449.54	5643.03
449.73	5657.07
449.91	5753.04
450.10	5748.36
450.28	5949.64
450.46	5816.23
450.65	5916.87
450.83	5844.32
451.02	5968.37
451.20	5980.07
451.39	6010.50
451.57	5849.00
451.76	6012.84
451.94	5984.75
452.13	5940.28
452.31	5921.56
452.49	6101.78
452.68	5912.19
452.86	6031.56
453.05	6160.29
453.23	6017.52
453.42	6022.20
453.60	6008.16
453.78	6125.18
453.97	5977.73
454.15	6153.27
454.34	6080.71
454.52	6392.00
454.70	6190.72
454.89	6319.45
455.07	6331.15
455.26	6462.22
455.44	6338.17
455.62	6162.63
455.81	6450.52
455.99	6502.01
456.17	6406.05
456.36	6715.00
456.54	6551.16
456.73	6590.95
456.91	6633.08
457.09	6782.87
457.28	6696.27
457.46	6541.80
457.64	6647.12
457.83	6693.93
458.01	6574.56
458.19	6890.54
458.38	6752.45
458.56	6920.96
458.74	6789.89
458.93	6892.88
459.11	6656.48
459.29	6963.09
459.48	6888.20
459.66	6946.71
459.84	6848.41
460.03	7007.56
460.21	7056.72
460.39	7103.53
460.57	7070.76
460.76	7215.87
460.94	7183.10
461.12	7232.26
461.31	7239.28
461.49	7075.44
461.67	7148.00
461.85	7075.44
462.04	7185.44
462.22	7728.45
462.40	7456.95
462.59	7199.49
462.77	7225.23
462.95	7489.71
463.13	7384.39
463.32	7597.38
463.50	7627.81
463.68	7765.90
463.86	7492.05
464.05	7424.18
464.23	7548.23
464.41	7428.86
464.59	7536.52
464.78	7716.75
464.96	7522.48
465.14	7499.08
465.32	7948.46
465.50	7637.17
465.69	7758.88
465.87	7801.01
466.05	7782.28
466.23	7639.51
466.41	7588.02
466.60	7976.55
466.78	7831.43
466.96	7803.35
467.14	7784.62
467.32	7782.28
467.51	8086.55
467.69	7845.48
467.87	7929.74
468.05	8067.83
468.23	8095.91
468.41	8173.15
468.60	7999.95
468.78	7939.10
468.96	8095.91
469.14	8152.09
469.32	8374.44
469.50	8032.72
469.69	8315.92
469.87	8393.16
470.05	8327.63
470.23	8468.06
470.41	8468.06
470.59	8592.11
470.77	8393.16
470.95	8507.85
471.14	8482.10
471.32	8252.73
471.50	8634.24
471.68	8491.46
471.86	8704.45
472.04	8774.67
472.22	8968.93
472.40	8870.63
472.58	8725.52
472.77	8915.10
472.95	8954.89
473.13	9212.35
473.31	8830.84
473.49	9046.17
473.67	8933.82
473.85	9020.42
474.03	9322.35
474.21	9198.31
474.39	9144.47
474.57	9383.21
474.75	9383.21
474.93	9598.54
475.12	9502.58
475.30	9570.45
475.48	9575.13
475.66	9528.32
475.84	9577.47
476.02	9781.10
476.20	9678.12
476.38	9907.49
476.56	10036.22
476.74	10127.50
476.92	10113.45
477.10	9977.70
477.28	10153.24
477.46	10251.55
477.64	10389.64
477.82	10359.21
478.00	10714.97
478.18	10553.48
478.36	10761.78
478.54	10792.21
478.72	10864.77
478.90	10993.50
479.08	11042.65
479.26	11049.67
479.44	11042.65
479.62	11262.66
479.80	11253.30
479.98	11309.47
480.16	11653.53
480.34	11431.18
480.52	11742.47
480.70	11571.61
480.88	11417.13
481.06	11765.87
481.24	11896.94
481.41	12236.32
481.59	12070.14
481.77	12278.45
481.95	12491.44
482.13	12404.84
482.31	12416.54
482.49	12634.21
482.67	12444.63
482.85	12760.60
483.03	12968.91
483.21	13064.87
483.39	13163.17
483.57	12872.95
483.74	13076.57
483.92	13343.39
484.10	13158.49
484.28	13561.06
484.46	13888.74
484.64	13874.70
484.82	13568.09
485.00	14047.90
485.18	13977.68
485.35	14340.46
485.53	13982.36
485.71	14480.89
485.89	14459.83
486.07	14494.94
486.25	14665.80
486.43	14960.70
486.61	14876.44
486.78	15051.99
486.96	14988.79
487.14	15236.89
487.32	15321.15
487.50	15686.27
487.68	15609.03
487.85	15822.02
488.03	15803.30
488.21	16201.19
488.39	16060.76
488.57	16166.08
488.75	16489.07
488.92	16599.08
489.10	16636.53
489.28	16533.54
489.46	16779.30
489.64	16751.21
489.81	17334.01
489.99	16985.27
490.17	17355.07
490.35	17493.16
490.53	17881.69
490.70	17951.91
490.88	17727.22
491.06	17980.00
491.24	18090.00
491.41	18066.60
491.59	18403.63
491.77	18097.02
491.95	18548.75
492.13	18822.59
492.30	19051.96
492.48	18628.32
492.66	18874.08
492.84	18909.19
493.01	19138.56
493.19	18799.18
493.37	19323.46
493.54	19278.99
493.72	19693.27
493.90	19873.49
494.08	19641.78
494.25	19932.00
494.43	19962.43
494.61	20184.78
494.79	20266.70
494.96	20119.24
495.14	20313.51
495.32	20786.30
495.49	20676.29
495.67	20472.67
495.85	20842.47
496.02	21034.39
496.20	21186.53
496.38	20945.45
496.55	21371.43
496.73	21837.20
496.91	21568.04
497.09	21717.83
497.26	21790.39
497.44	21556.33
497.62	22050.19
497.79	22405.95
497.97	22038.48
498.14	22546.38
498.32	22530.00
498.50	22719.58
498.67	22955.97
498.85	22948.95
499.03	23243.86
499.20	22906.82
499.38	23232.16
499.56	23044.91
499.73	23234.50
499.91	23150.24
500.08	23552.81
500.26	23321.10
500.44	23697.92
500.61	23770.48
500.79	23573.88
500.97	23377.27
501.14	24173.05
501.32	23859.42
501.49	24130.92
501.67	23845.38
501.84	24088.79
502.02	24425.83
502.20	24301.78
502.37	24463.28
502.55	24512.43
502.72	24446.90
502.90	24269.01
503.07	24568.60
503.25	24978.20
503.43	24783.93
503.60	24669.25
503.78	25458.01
503.95	24968.84
504.13	25221.61
504.30	25348.00
504.48	25420.56
504.65	25537.59
504.83	25453.33
505.01	25869.94
505.18	26150.81
505.36	26031.44
505.53	25867.60
505.71	26082.93
505.88	26288.90
506.06	25764.62
506.23	26288.90
506.41	26333.37
506.58	26518.27
506.76	26525.29
506.93	26412.95
507.11	26279.54
507.28	26375.50
507.46	26593.17
507.63	26705.51
507.81	27136.17
507.98	26614.23
508.16	27077.66
508.33	26991.06
508.50	27384.27
508.68	27386.61
508.85	27470.87
509.03	27522.36
509.20	27730.67
509.38	28205.80
509.55	27978.76
509.73	28102.81
509.90	27854.72
510.08	28168.35
510.25	28147.28
510.42	28053.66
510.60	28563.90
510.77	28070.04
510.95	28463.25
511.12	28168.35
511.30	28205.80
511.47	28463.25
511.64	28498.36
511.82	28856.46
511.99	28828.38
512.17	29118.60
512.34	29142.01
512.51	29174.78
512.69	29806.72
512.86	29249.67
513.04	29427.56
513.21	29530.54
513.38	29584.37
513.56	29797.36
513.73	29750.55
513.90	29673.31
514.08	29869.92
514.25	29806.72
514.43	29937.79
514.60	29841.83
514.77	30319.30
514.95	30391.86
515.12	30054.82
515.29	30029.07
515.47	30443.35
515.64	30424.62
515.81	30183.55
515.99	30314.62
516.16	31166.57
516.33	30562.72
516.51	30768.68
516.68	30682.08
516.85	30747.62
517.03	31318.71
517.20	31016.78
517.37	30714.85
517.54	31199.34
517.72	31222.75
517.89	31409.99
518.06	31534.04
518.24	31087.00
518.41	31056.57
518.58	31328.07
518.75	31527.02
518.93	32013.85
519.10	31807.88
519.27	31770.43
519.45	31943.63
519.62	32275.99
519.79	32053.64
519.96	31704.90
520.14	32041.93
520.31	32037.25
520.48	32369.61
520.65	32278.33
520.83	32938.36
521.00	32676.22
521.17	32432.80
521.34	32818.99
521.52	32739.41
521.69	33240.29
521.86	32971.13
522.03	33429.87
522.20	33254.33
522.38	33198.16
522.55	33179.43
522.72	33277.74
522.89	33088.15
523.07	33542.22
523.24	33263.69
523.41	33514.13
523.58	33567.96
523.75	33745.84
523.92	33551.58
524.10	33947.13
524.27	33862.87
524.44	33975.22
524.61	33956.49
524.78	33986.92
524.96	33954.15
525.13	34235.02
525.30	33895.64
525.47	34696.10
525.64	34253.74
525.81	34436.30
525.98	34405.88
526.16	34677.38
526.33	34225.65
526.50	34890.37
526.67	34843.56
526.84	34539.29
527.01	34565.03
527.18	34881.00
527.36	35030.80
527.53	34911.43
527.70	34998.03
527.87	35232.08
528.04	34607.16
528.21	35367.84
528.38	35510.61
528.55	35285.92
528.72	35264.85
528.89	35356.13
529.07	35295.28
529.24	35276.55
529.41	36062.97
529.58	35896.80
529.75	35833.60
529.92	35971.69
530.09	35805.52
530.26	35407.62
530.43	36231.49
530.60	35854.67
530.77	36030.21
530.94	35842.96
531.11	36025.53
531.28	36236.17
531.46	36254.90
531.63	36238.51
531.80	36025.53
531.97	36566.19
532.14	36432.78
532.31	35892.12
532.48	36507.68
532.65	36900.89
532.82	36463.21
532.99	36676.19
533.16	36243.20
533.33	36655.13
533.50	36669.17
533.67	36975.78
533.84	36575.55
534.01	36889.18
534.18	36849.39
534.35	37053.02
534.52	37282.39
534.69	37612.41
534.86	37443.89
535.03	37373.67
535.20	37170.05
535.37	37806.67
535.54	36992.17
535.71	37043.66
535.88	37584.32
536.05	37376.01
536.22	38003.28
536.38	37626.45
536.55	37565.60
536.72	37783.27
536.89	37909.66
537.06	37699.01
537.23	38113.28
537.40	37567.94
537.57	37624.11
537.74	37904.98
537.91	38286.48
538.08	38094.56
538.25	37668.58
538.42	38314.57
538.59	38513.52
538.75	38202.22
538.92	38321.59
539.09	38810.76
539.26	38593.09
539.43	38452.66
539.60	38733.53
539.77	38560.33
539.94	38920.77
540.11	39065.88
540.28	38883.32
540.44	38565.01
540.61	38660.97
540.78	38883.32
540.95	38986.30
541.12	38728.84
541.29	38955.88
541.46	38979.28
541.62	39173.55
541.79	39416.96
541.96	38803.74
542.13	38806.08
542.30	39033.11
542.47	38630.54
542.63	39496.54
542.80	39583.14
542.97	40032.52
543.14	39810.17
543.31	39634.63
543.48	39442.71
543.64	39941.24
543.81	40004.44
543.98	40004.44
544.15	39966.99
544.32	39945.92
544.48	40371.90
544.65	39882.73
544.82	40318.07
544.99	39835.92
545.16	39632.29
545.32	40449.14
545.49	40580.21
545.66	40942.99
545.83	40236.15
546.00	40598.93
546.16	40524.04
546.33	40549.78
546.50	40147.21
546.67	40563.82
546.83	40151.89
547.00	40610.64
547.17	40453.82
547.34	40617.66
547.50	40474.88
547.67	41195.77
547.84	40809.58
548.00	41368.97
548.17	41436.84
548.34	41298.75
548.51	41120.87
548.67	41354.93
548.84	41301.09
549.01	40687.87
549.18	41413.44
549.34	41511.74
549.51	41450.89
549.68	41778.56
549.84	41493.02
550.01	41621.75
550.18	41418.12
550.34	41345.56
550.51	41450.89
550.68	41404.08
550.84	41228.54
551.01	41591.32
551.18	41677.92
551.34	41895.59
551.51	41951.76
551.68	41378.33
551.84	41621.75
552.01	41078.74
552.18	41855.80
552.34	41345.56
552.51	41605.36
552.68	41532.81
552.84	42234.97
553.01	42433.91
553.18	41879.21
553.34	42284.12
553.51	42127.30
553.67	42139.00
553.84	42244.33
554.01	42014.96
554.17	42382.42
554.34	42368.38
554.51	42305.18
554.67	42618.81
554.84	42469.02
555.00	42279.44
555.17	42443.27
555.33	42216.24
555.50	42515.83
555.67	42101.56
555.83	42426.89
556.00	42328.59
556.16	43388.85
556.33	42829.46
556.50	42539.24
556.66	42803.72
556.83	42768.61
556.99	43028.41
557.16	43145.44
557.32	43079.90
557.49	43019.05
557.65	42808.40
557.82	43159.48
557.98	42696.05
558.15	42962.87
558.32	42857.55
558.48	42803.72
558.65	43070.54
558.81	42557.96
558.98	42672.65
559.14	43274.16
559.31	43068.20
559.47	43159.48
559.64	43360.76
559.80	42983.94
559.97	43058.84
560.13	43213.31
560.30	43428.64
560.46	43487.15
560.63	43388.85
560.79	44025.48
560.96	43697.80
561.12	43650.99
561.29	43555.03
561.45	43508.22
561.61	43473.11
561.78	43606.52
561.94	43463.75
562.11	43622.90
562.27	43206.29
562.44	43498.86
562.60	44079.31
562.77	44144.84
562.93	43466.09
563.10	44238.47
563.26	43414.60
563.42	44287.62
563.59	43763.34
563.75	43683.76
563.92	43957.60
564.08	44027.82
564.24	44109.74
564.41	43438.00
564.57	43690.78
564.74	44123.78
564.90	43955.26
565.07	43838.23
565.23	43978.67
565.39	44137.82
565.56	44268.89
565.72	43569.07
565.88	44172.93
566.05	43744.61
566.21	44500.61
566.38	44219.74
566.54	44041.86
566.70	43999.73
566.87	43920.15
567.03	44428.05
567.19	44493.58
567.36	44086.33
567.52	43793.76
567.68	44610.61
567.85	44158.89
568.01	44329.75
568.17	44020.80
568.34	44453.79
568.50	44346.13
568.66	44107.40
568.83	44144.84
568.99	44287.62
569.15	44243.15
569.32	44229.10
569.48	43892.07
569.64	44737.00
569.81	44767.43
569.97	44479.54
570.13	44444.43
570.30	44566.14
570.46	44556.78
570.62	44421.03
570.78	44512.31
570.95	44271.23
571.11	44624.65
571.27	44474.86
571.43	43973.98
571.60	44320.38
571.76	44755.72
571.92	44334.43
572.09	44601.25
572.25	44758.06
572.41	44498.26
572.57	44713.59
572.74	44748.70
572.90	44584.86
573.06	44797.85
573.22	44727.64
573.38	44914.88
573.55	44664.44
573.71	44989.78
573.87	44603.59
574.03	44554.44
574.20	45027.23
574.36	44406.98
574.52	44685.51
574.68	44933.60
574.84	44795.51
575.01	45027.23
575.17	44631.68
575.33	44755.72
575.49	44854.03
575.65	45226.17
575.82	45097.44
575.98	44542.74
576.14	45127.87
576.30	45130.21
576.46	44673.81
576.62	44776.79
576.79	44987.44
576.95	44650.40
577.11	44985.10
577.27	45038.93
577.43	45209.79
577.59	44837.64
577.75	44926.58
577.92	44552.10
578.08	44322.72
578.24	45034.25
578.40	45432.14
578.56	45390.01
578.72	45516.40
578.88	45195.74
579.04	45350.22
579.21	44512.31
579.37	44772.11
579.53	45041.27
579.69	44722.96
579.85	44711.25
580.01	44786.15
580.17	44655.08
580.33	45167.66
580.49	44711.25
580.65	44535.71
580.82	44818.92
580.98	45038.93
581.14	44479.54
581.30	44985.10
581.46	45069.36
581.62	44856.37
581.78	44800.19
581.94	45109.14
582.10	45085.74
582.26	45062.33
582.42	44973.39
582.58	45167.66
582.74	45045.95
582.90	45017.86
583.06	45205.11
583.22	44903.18
583.38	45172.34
583.54	45237.87
583.70	45188.72
583.86	45296.39
584.02	44802.53
584.18	45373.63
584.34	45324.47
584.50	45460.23
584.66	45097.44
584.82	45455.54
584.98	45394.69
585.14	45378.31
585.30	45357.24
585.46	45228.51
585.62	44732.32
585.78	45153.62
585.94	45013.18
586.10	45340.86
586.26	44865.73
586.42	45261.28
586.58	44912.54
586.74	45041.27
586.90	45078.72
587.06	45099.78
587.22	45757.47
587.38	45193.40
587.54	45670.87
587.70	45614.70
587.86	45024.89
588.02	45397.03
588.18	45382.99
588.34	45607.68
588.49	45097.44
588.65	45029.57
588.81	45474.27
588.97	45177.02
589.13	45301.07
589.29	45429.80
589.45	45542.14
589.61	45076.38
589.77	45191.06
589.93	45705.98
590.08	45750.45
590.24	45282.34
590.40	45937.69
590.56	45855.78
590.72	45872.16
590.88	45509.38
591.04	45287.03
591.20	45556.19
591.35	45745.77
591.51	45963.44
591.67	45827.69
591.83	45663.85
591.99	45792.58
592.15	45600.66
592.31	45614.70
592.46	44659.76
592.62	45698.96
592.78	45638.11
592.94	46024.29
593.10	45544.48
593.26	46419.84
593.41	46036.00
593.57	45907.27
593.73	45986.85
593.89	46515.81
594.05	46286.43
594.20	46010.25
594.36	45771.52
594.52	45914.29
594.68	45839.39
594.84	45858.12
594.99	45996.21
595.15	45617.04
595.31	46396.44
595.47	45979.82
595.62	45757.47
595.78	45600.66
595.94	46045.36
596.10	45776.20
596.25	45832.37
596.41	46010.25
596.57	46031.32
596.73	46188.13
596.88	45942.38
597.04	46036.00
597.20	46010.25
597.36	45654.49
597.51	45729.39
597.67	46108.55
597.83	45837.05
597.99	46038.34
598.14	45972.80
598.30	46143.66
598.46	46045.36
598.61	46050.04
598.77	45921.31
598.93	45855.78
599.09	46263.03
599.24	46361.33
599.40	46157.70
599.56	45900.25
599.71	46485.38
599.87	46302.82
600.03	46363.67
600.18	46057.06
600.34	45940.04
600.50	46096.85
600.65	45752.79
600.81	46286.43
600.97	46216.22
601.12	46246.65
601.28	46138.98
601.44	46071.10
601.59	45701.30
601.75	45949.40
601.91	46129.62
602.06	46209.20
602.22	46089.83
602.37	45851.09
602.53	46234.94
602.69	46380.06
602.84	46033.66
603.00	45738.75
603.16	46138.98
603.31	46028.98
603.47	46099.19
603.62	46155.36
603.78	46028.98
603.94	46230.26
604.09	46761.56
604.25	46085.15
604.40	45986.85
604.56	45918.97
604.71	46724.11
604.87	46064.08
605.03	45574.91
605.18	45677.90
605.34	45979.82
605.49	45928.33
605.65	46270.05
605.80	46246.65
605.96	45703.64
606.12	45750.45
606.27	46183.45
606.43	45736.41
606.58	46267.71
606.74	45963.44
606.89	45954.08
607.05	46302.82
607.20	46007.91
607.36	45968.12
607.51	45956.42
607.67	45689.60
607.82	45488.31
607.98	46021.95
608.13	45963.44
608.29	45808.96
608.44	46110.89
608.60	45710.66
608.75	46256.01
608.91	45474.27
609.06	45345.54
609.22	45696.62
609.37	45272.98
609.53	46021.95
609.68	45715.34
609.84	45399.37
609.99	45933.01
610.15	45752.79
610.30	45729.39
610.46	45961.10
610.61	45605.34
610.76	45586.61
610.92	45406.39
611.07	45635.77
611.23	45432.14
611.38	46110.89
611.54	45785.56
611.69	45593.64
611.84	45823.01
612.00	45455.54
612.15	45151.27
612.31	45710.66
612.46	45614.70
612.62	45132.55
612.77	45532.78
612.92	46216.22
613.08	45804.28
613.23	45560.87
613.39	45483.63
613.54	45544.48
613.69	45509.38
613.85	45621.72
614.00	45539.80
614.15	45584.27
614.31	44919.56
614.46	44971.05
614.62	45083.40
614.77	44879.77
614.92	45530.44
615.08	45649.81
615.23	45497.67
615.38	45638.11
615.54	45382.99
615.69	45104.46
615.84	45521.08
616.00	45373.63
616.15	45298.73
616.30	45301.07
616.46	45064.67
616.61	45373.63
616.76	45181.70
616.92	44917.22
617.07	45338.52
617.22	45270.64
617.37	44800.19
617.53	44957.01
617.68	44729.98
617.83	45146.59
617.99	45539.80
618.14	45067.02
618.29	45193.40
618.45	44570.82
618.60	44463.16
618.75	44708.91
618.90	44610.61
619.06	45076.38
619.21	44601.25
619.36	45109.14
619.51	45088.08
619.67	44341.45
619.82	44739.34
619.97	44847.00
620.12	44638.70
620.28	44673.81
620.43	45024.89
620.58	44947.65
620.73	44788.49
620.89	44849.35
621.04	44910.20
621.19	44631.68
621.34	44786.15
621.49	44514.65
621.65	44678.49
621.80	44980.42
621.95	44748.70
622.10	44629.34
622.25	44694.87
622.41	44311.02
622.56	44512.31
622.71	44919.56
622.86	44547.42
623.01	44128.46
623.16	44332.09
623.32	44748.70
623.47	44566.14
623.62	44336.77
623.77	44437.41
623.92	44299.32
624.07	44142.50
624.23	44474.86
624.38	44299.32
624.53	44203.36
624.68	44170.59
624.83	44226.76
624.98	44046.54
625.13	43508.22
625.29	43405.23
625.44	44037.18
625.59	44390.60
625.74	44105.06
625.89	43863.98
626.04	43812.49
626.19	44149.53
626.34	43571.41
626.49	43789.08
626.65	43775.04
626.80	43360.76
626.95	43398.21
627.10	43672.06
627.25	43786.74
627.40	43807.81
627.55	43526.94
627.70	43171.18
627.85	44128.46
628.00	43576.09
628.15	43459.07
628.30	42895.00
628.45	43035.43
628.60	42876.27
628.76	43426.30
628.91	43536.30
629.06	43196.93
629.21	43430.98
629.36	42918.40
629.51	43147.78
629.66	43505.88
629.81	43447.36
629.96	43208.63
630.11	43192.25
630.26	43005.00
630.41	43512.90
630.56	43269.48
630.71	43166.50
630.86	43271.82
631.01	42719.46
631.16	43065.86
631.31	43110.33
631.46	42843.51
631.61	42981.60
631.76	43257.78
631.91	42951.17
632.06	43288.21
632.21	43250.76
632.36	43086.92
632.51	42843.51
632.66	42969.90
632.81	42829.46
632.96	42710.10
633.10	42572.00
633.25	43028.41
633.40	42754.57
633.55	42944.15
633.70	42529.87
633.85	42614.13
634.00	42792.01
634.15	42738.18
634.30	42593.07
634.45	42370.72
634.60	42436.25
634.75	42742.86
634.90	42801.38
635.05	42625.84
635.19	42185.82
635.34	42492.43
635.49	42611.79
635.64	42440.93
635.79	42396.46
635.94	42305.18
636.09	42436.25
636.24	42642.22
636.39	42380.08
636.53	42075.81
636.68	42021.98
636.83	42129.64
636.98	42110.92
637.13	41666.22
637.28	41928.36
637.43	41759.84
637.57	42223.26
637.72	41652.17
637.87	41717.71
638.02	42267.73
638.17	41780.90
638.32	41570.25
638.46	41661.54
638.61	41731.75
638.76	41783.24
638.91	41792.61
639.06	41474.29
639.20	41834.74
639.35	41415.78
639.50	40940.65
639.65	41500.04
639.80	41886.23
639.94	41617.07
640.09	42026.66
640.24	41900.27
640.39	41352.58
640.54	40811.92
640.68	41736.43
640.83	41841.76
640.98	41415.78
641.13	41621.75
641.27	41703.67
641.42	41275.35
641.57	41050.66
641.72	41448.55
641.86	41317.48
642.01	41017.89
642.16	41017.89
642.31	41130.23
642.45	41186.41
642.60	40840.01
642.75	41074.06
642.90	41390.03
643.04	41329.18
643.19	41041.29
643.34	41013.21
643.48	40563.82
643.63	41170.02
643.78	41036.61
643.93	40807.24
644.07	41319.82
644.22	41516.42
644.37	41106.83
644.51	41048.32
644.66	41057.68
644.81	40552.12
644.95	40971.08
645.10	40917.25
645.25	40701.92
645.39	40287.64
645.54	40287.64
645.69	40065.29
645.83	40491.27
645.98	40175.30
646.13	40725.32
646.27	40865.75
646.42	40282.96
646.57	40734.68
646.71	40957.03
646.86	40746.39
647.00	40877.46
647.15	41036.61
647.30	40425.73
647.44	40264.24
647.59	40259.55
647.74	40360.20
647.88	40371.90
648.03	40509.99
648.17	40825.96
648.32	40453.82
648.47	40566.16
648.61	40392.97
648.76	40657.45
648.90	40137.85
649.05	40137.85
649.20	39842.94
649.34	40306.37
649.49	40095.72
649.63	40109.76
649.78	39505.90
649.92	40334.45
650.07	40439.78
650.21	40285.30
650.36	40076.99
650.51	39807.83
650.65	40072.31
650.80	40517.01
650.94	40271.26
651.09	39990.39
651.23	39814.85
651.38	39711.87
651.52	39810.17
651.67	39819.53
651.81	39765.70
651.96	39381.85
652.10	39276.53
652.25	39739.96
652.39	39793.79
652.54	39751.66
652.68	39756.34
652.83	39442.71
652.97	39459.09
653.12	39131.42
653.26	39311.64
653.41	40037.20
653.55	39351.43
653.70	39789.11
653.84	39742.30
653.99	39377.17
654.13	39182.91
654.27	39150.14
654.42	39739.96
654.56	39271.85
654.71	39372.49
654.85	39431.01
655.00	39276.53
655.14	39330.36
655.29	39482.50
655.43	39365.47
655.57	39456.75
655.72	38890.34
655.86	38834.17
656.01	39122.05
656.15	38623.52
656.30	39110.35
656.44	39372.49
656.58	39019.07
656.73	38918.43
656.87	38639.90
657.01	38384.79
657.16	38733.53
657.30	38550.96
657.45	38609.48
657.59	38916.09
657.73	38359.04
657.88	38763.95
658.02	38909.07
658.16	38983.96
658.31	38515.86
658.45	38424.57
658.60	38101.58
658.74	38326.27
658.88	38380.10
659.03	38321.59
659.17	38349.68
659.31	38239.67
659.46	38274.78
659.60	38529.90
659.74	38363.72
659.89	37893.27
660.03	37998.60
660.17	37734.12
660.32	38073.49
660.46	38024.34
660.60	37827.74
660.74	38092.22
660.89	37949.45
661.03	37422.83
661.17	37577.30
661.32	37280.05
661.46	37378.36
661.60	37558.58
661.74	37258.99
661.89	37563.26
662.03	37851.14
662.17	37675.60
662.31	37425.17
662.46	37303.46
662.60	37439.21
662.74	37109.19
662.88	36788.54
663.03	36790.88
663.17	36737.05
663.31	36882.16
663.45	37029.62
663.60	37310.48
663.74	37034.30
663.88	36863.44
664.02	36657.47
664.17	36968.76
664.31	36861.10
664.45	36767.48
664.59	36327.45
664.73	36620.02
664.88	36315.75
665.02	36280.64
665.16	36498.31
665.30	36147.23
665.44	36325.11
665.59	35978.72
665.73	35983.40
665.87	35927.22
666.01	36070.00
666.15	36116.81
666.29	35545.72
666.44	36170.64
666.58	36027.87
666.72	35707.21
666.86	35835.94
667.00	35604.23
667.14	35622.95
667.28	35154.85
667.43	35480.18
667.57	35512.95
667.71	35093.99
667.85	35913.18
667.99	35234.42
668.13	35105.70
668.27	35159.53
668.41	34895.05
668.56	34735.89
668.70	35110.38
668.84	34705.46
668.98	34712.49
669.12	35023.78
669.26	34415.24
669.40	34726.53
669.54	34539.29
669.68	34756.96
669.82	34691.42
669.96	34356.72
670.10	33855.85
670.25	33996.28
670.39	34323.96
670.53	34822.49
670.67	34494.82
670.81	34366.09
670.95	33710.74
671.09	33673.29
671.23	33806.70
671.37	34183.52
671.51	33624.14
671.65	33809.04
671.79	34026.71
671.93	33401.79
672.07	33921.38
672.21	33392.42
672.35	33088.15
672.49	33223.90
672.63	32982.83
672.77	33039.00
672.91	33532.86
673.05	32982.83
673.19	32776.86
673.33	32697.28
673.47	32786.22
673.61	32807.29
673.75	32641.11
673.89	32425.78
674.03	32533.45
674.17	32318.12
674.31	32261.94
674.45	31728.30
674.59	32170.66
674.73	32119.17
674.87	31922.57
675.01	31587.87
675.15	31559.78
675.29	31648.72
675.43	31646.38
675.56	31967.04
675.70	31496.59
675.84	31583.19
675.98	30618.89
676.12	31531.70
676.26	31466.16
676.40	31077.63
676.54	30838.90
676.68	31026.14
676.82	30232.70
676.96	30628.25
677.10	30143.76
677.23	30614.21
677.37	30787.41
677.51	30642.29
677.65	30712.51
677.79	30230.36
677.93	30272.49
678.07	30230.36
678.21	29890.98
678.34	30085.25
678.48	29802.04
678.62	29652.25
678.76	29397.13
678.90	29589.05
679.04	29326.91
679.18	29584.37
679.31	29095.20
679.45	29254.36
679.59	28943.06
679.73	29001.58
679.87	28903.28
680.00	28683.27
680.14	28540.49
680.28	28776.89
680.42	28437.51
680.56	28596.67
680.70	28329.84
680.83	28018.55
680.97	28046.64
681.11	28404.74
681.25	28063.02
681.39	27812.59
681.52	28034.94
681.66	27784.50
681.80	27051.91
681.94	27098.72
682.07	27337.46
682.21	27068.30
682.35	26969.99
682.49	27435.76
682.62	27143.19
682.76	26850.63
682.90	26972.33
683.04	26504.23
683.17	26607.21
683.31	26693.81
683.45	26590.83
683.59	26031.44
683.72	26244.43
683.86	25930.80
684.00	26206.98
684.13	25977.61
684.27	25818.45
684.41	25722.49
684.55	26010.37
684.68	25633.55
684.82	25418.22
684.96	25488.43
685.09	25490.77
685.23	25434.60
685.37	25671.00
685.50	25818.45
685.64	25453.33
685.78	25029.69
685.91	24865.85
686.05	24318.17
686.19	24547.54
686.32	24542.86
686.46	24163.69
686.60	24304.12
686.73	24362.64
686.87	24130.92
687.01	24304.12
687.14	24044.32
687.28	23917.93
687.42	24137.94
687.55	23861.76
687.69	23819.63
687.82	23779.84
687.96	23372.59
688.10	23641.75
688.23	23344.50
688.37	23459.19
688.50	23915.59
688.64	23311.74
688.78	22803.84
688.91	22934.91
689.05	23201.73
689.18	22869.37
689.32	22623.62
689.46	22672.77
689.59	22394.25
689.73	22544.04
689.86	22459.78
690.00	22066.57
690.13	22424.67
690.27	21947.20
690.41	21860.60
690.54	22235.09
690.68	21738.90
690.81	21708.47
690.95	21645.27
691.08	21525.91
691.22	21577.40
691.35	21446.33
691.49	21488.46
691.62	21270.79
691.76	20704.38
691.89	20837.79
692.03	20631.82
692.16	20830.77
692.30	20355.64
692.43	20505.43
692.57	20149.67
692.70	20142.65
692.84	20320.53
692.97	20336.91
693.11	20002.22
693.24	19833.70
693.38	19910.94
693.51	19733.06
693.65	19920.30
693.78	19503.68
693.92	19681.56
694.05	19585.60
694.19	19438.15
694.32	19084.73
694.45	19506.02
694.59	19552.84
694.72	19726.04
694.86	19199.41
694.99	19201.76
695.13	19157.28
695.26	18775.78
695.39	18541.72
695.53	18836.63
695.66	18707.90
695.80	18562.79
695.93	18560.45
696.07	18464.49
696.20	17956.59
696.33	18012.76
696.47	17958.93
696.60	18059.57
696.73	17741.26
696.87	18118.09
697.00	17750.62
697.14	17757.64
697.27	17558.70
697.40	17743.60
697.54	17792.75
697.67	17387.84
697.80	17661.68
697.94	17479.12
698.07	17277.83
698.21	17156.13
698.34	17205.28
698.47	16739.51
698.61	16601.42
698.74	16849.52
698.87	16444.60
699.01	16210.55
699.14	16643.55
699.27	16556.95
699.40	16315.87
699.54	16226.93
699.67	16084.16
699.80	16074.80
699.94	16114.59
700.07	16102.89
700.20	15913.30
700.34	16004.58
700.47	16025.65
700.60	15896.92
700.73	15852.45
700.87	15531.80
701.00	15363.28
701.13	15494.35
701.26	15222.84
701.40	15253.27
701.53	14986.45
701.66	15173.69
701.79	15042.62
701.93	14614.30
702.06	14665.80
702.19	14698.56
702.32	14953.68
702.46	14820.27
702.59	14885.81
702.72	14698.56
702.85	14420.04
702.99	14602.60
703.12	14333.44
703.25	14036.19
703.38	14188.33
703.51	14218.75
703.65	14087.68
703.78	14003.43
703.91	14108.75
704.04	13776.39
704.17	13582.13
704.31	13568.09
704.44	13664.05
704.57	13624.26
704.70	13490.85
704.83	13696.82
704.96	13432.33
705.10	13107.00
705.23	13071.89
>>>>>End Processed Spectral Data<<<<<
