SpectraSuite Data File
++++++++++++++++++++++++++++++++++++
Date: Fri Oct 25 10:47:03 EDT 2013
User: price-jones
Dark Spectrum Present: No
Reference Spectrum Present: No
Number of Sampled Component Spectra: 1
Spectrometers: USB2+H05261
Integration Time (usec): 100000 (USB2+H05261)
Spectra Averaged: 1 (USB2+H05261)
Boxcar Smoothing: 0 (USB2+H05261)
Correct for Electrical Dark: No (USB2+H05261)
Strobe/Lamp Enabled: No (USB2+H05261)
Correct for Detector Non-linearity: No (USB2+H05261)
Correct for Stray Light: No (USB2+H05261)
Number of Pixels in Processed Spectrum: 2048
>>>>>Begin Processed Spectral Data<<<<<
365.73	135.75
365.92	135.75
366.12	135.75
366.32	88.94
366.52	58.51
366.72	131.07
366.91	23.41
367.11	14.04
367.31	37.45
367.51	7.02
367.70	63.19
367.90	70.22
368.10	49.15
368.30	23.41
368.49	49.15
368.69	74.90
368.89	100.64
369.09	105.32
369.28	93.62
369.48	28.09
369.68	81.92
369.87	105.32
370.07	140.43
370.27	154.48
370.47	131.07
370.66	327.68
370.86	339.38
371.06	440.02
371.25	475.13
371.45	430.66
371.65	477.47
371.84	463.43
372.04	500.87
372.24	454.06
372.44	437.68
372.63	496.19
372.83	512.58
373.03	524.28
373.22	517.26
373.42	503.22
373.62	521.94
373.81	554.71
374.01	519.60
374.21	627.26
374.40	617.90
374.60	559.39
374.79	510.24
374.99	601.52
375.19	580.45
375.38	603.86
375.58	524.28
375.78	535.98
375.97	606.20
376.17	568.75
376.37	606.20
376.56	662.37
376.76	575.77
376.95	585.13
377.15	608.54
377.35	606.20
377.54	613.22
377.74	606.20
377.93	650.67
378.13	657.69
378.33	685.78
378.52	615.56
378.72	706.84
378.91	601.52
379.11	627.26
379.31	704.50
379.50	601.52
379.70	636.63
379.89	711.52
380.09	638.97
380.28	634.29
380.48	690.46
380.68	678.76
380.87	690.46
381.07	732.59
381.26	648.33
381.46	550.03
381.65	690.46
381.85	706.84
382.04	638.97
382.24	751.31
382.43	763.01
382.63	662.37
382.83	784.08
383.02	720.88
383.22	823.87
383.41	699.82
383.61	711.52
383.80	772.38
384.00	760.67
384.19	774.72
384.39	737.27
384.58	833.23
384.78	758.33
384.97	793.44
385.17	758.33
385.36	699.82
385.56	777.06
385.75	765.36
385.95	833.23
386.14	793.44
386.34	802.80
386.53	809.83
386.72	753.65
386.92	842.59
387.11	788.76
387.31	851.96
387.50	819.19
387.70	863.66
387.89	788.76
388.09	947.92
388.28	826.21
388.48	847.27
388.67	894.08
388.86	908.13
389.06	870.68
389.25	870.68
389.45	1008.77
389.64	891.74
389.84	910.47
390.03	891.74
390.22	997.07
390.42	968.98
390.61	1006.43
390.81	985.37
391.00	1001.75
391.19	1060.26
391.39	1036.86
391.58	1015.79
391.78	891.74
391.97	1048.56
392.16	1064.94
392.36	959.62
392.55	1008.77
392.75	1071.97
392.94	938.55
393.13	1029.84
393.33	985.37
393.52	992.39
393.71	1029.84
393.91	1116.44
394.10	1107.07
394.29	1076.65
394.49	1062.60
394.68	1067.28
394.88	1186.65
395.07	1062.60
395.26	1233.46
395.46	1200.69
395.65	1181.97
395.84	1128.14
396.04	1137.50
396.23	1118.78
396.42	1125.80
396.62	1170.27
396.81	1135.16
397.00	1228.78
397.19	1188.99
397.39	1184.31
397.58	1242.82
397.77	1291.98
397.97	1320.06
398.16	1369.21
398.35	1256.87
398.55	1256.87
398.74	1359.85
398.93	1387.94
399.12	1310.70
399.32	1357.51
399.51	1390.28
399.70	1476.88
399.90	1399.64
400.09	1479.22
400.28	1519.01
400.47	1343.47
400.67	1530.71
400.86	1472.20
401.05	1600.93
401.24	1465.18
401.44	1458.15
401.63	1540.07
401.82	1682.85
402.01	1514.33
402.21	1610.29
402.40	1544.75
402.59	1626.67
402.78	1673.48
402.97	1636.03
403.17	1666.46
403.36	1605.61
403.55	1631.35
403.74	1703.91
403.93	1589.22
404.13	1701.57
404.32	1675.82
404.51	1694.55
404.70	1699.23
404.89	1687.53
405.09	1797.53
405.28	1760.08
405.47	1743.70
405.66	1849.02
405.85	1797.53
406.05	1877.11
406.24	1933.28
406.43	1860.73
406.62	2017.54
406.81	1966.05
407.00	1928.60
407.20	1764.76
407.39	1959.03
407.58	1982.43
407.77	1942.64
407.96	1937.96
408.15	2026.90
408.34	1998.82
408.54	1987.11
408.73	1961.37
408.92	2122.87
409.11	2080.74
409.30	2167.34
409.49	2104.14
409.68	2017.54
409.87	2087.76
410.07	2040.95
410.26	2108.82
410.45	2190.74
410.64	2223.51
410.83	2434.16
411.02	2270.32
411.21	2363.94
411.40	2258.62
411.59	2427.14
411.78	2436.50
411.98	2324.15
412.17	2408.41
412.36	2445.86
412.55	2504.37
412.74	2544.16
412.93	2502.03
413.12	2429.48
413.31	2581.61
413.50	2600.34
413.69	2644.81
413.88	2698.64
414.07	2619.06
414.26	2654.17
414.45	2637.78
414.64	2808.64
414.83	2773.53
415.02	2818.00
415.22	2822.69
415.41	2928.01
415.60	2864.82
415.79	2925.67
415.98	2991.20
416.17	2888.22
416.36	2967.80
416.55	2911.63
416.74	3056.74
416.93	2993.55
417.12	2993.55
417.31	2967.80
417.50	3178.45
417.69	3206.53
417.88	3145.68
418.07	3159.72
418.26	3176.11
418.45	3246.32
418.64	3265.05
418.83	3344.63
419.02	3293.13
419.21	3283.77
419.39	3225.26
419.58	3311.86
419.77	3349.31
419.96	3246.32
420.15	3346.97
420.34	3246.32
420.53	3515.48
420.72	3358.67
420.91	3431.23
421.10	3478.04
421.29	3482.72
421.48	3435.91
421.67	3606.77
421.86	3592.72
422.05	3548.25
422.24	3468.67
422.43	3454.63
422.61	3569.32
422.80	3620.81
422.99	3531.87
423.18	3618.47
423.37	3557.61
423.56	3569.32
423.75	3548.25
423.94	3545.91
424.13	3382.07
424.32	3424.20
424.50	3569.32
424.69	3693.37
424.88	3758.90
425.07	3588.04
425.26	3590.38
425.45	3581.02
425.64	3625.49
425.83	3616.13
426.01	3728.47
426.20	3648.90
426.39	3756.56
426.58	3803.37
426.77	3585.70
426.96	3754.22
427.15	3665.28
427.33	3836.14
427.52	3737.84
427.71	3777.62
427.90	3794.01
428.09	3838.48
428.28	3789.33
428.46	3693.37
428.65	3887.63
428.84	3964.87
429.03	4009.34
429.22	3786.99
429.40	3794.01
429.59	3953.16
429.78	3700.39
429.97	3817.41
430.16	3819.75
430.34	3896.99
430.53	3990.61
430.72	3915.72
430.91	4039.76
431.10	4159.13
431.28	4102.96
431.47	4182.54
431.66	4100.62
431.85	4140.41
432.03	4311.27
432.22	4250.41
432.41	4198.92
432.60	4126.36
432.79	4292.54
432.97	4215.30
433.16	4248.07
433.35	4348.72
433.54	4191.90
433.72	4290.20
433.91	4383.82
434.10	4414.25
434.28	4381.48
434.47	4440.00
434.66	4407.23
434.85	4519.57
435.03	4535.96
435.22	4620.22
435.41	4690.43
435.59	4608.51
435.78	4592.13
435.97	4706.82
436.16	4610.86
436.34	4620.22
436.53	4643.62
436.72	4772.35
436.90	4786.40
437.09	4908.10
437.28	4770.01
437.46	4917.47
437.65	4896.40
437.84	4833.21
438.02	4784.06
438.21	4833.21
438.40	4800.44
438.58	5013.43
438.77	4966.62
438.96	5022.79
439.14	5139.82
439.33	5217.05
439.52	5228.76
439.70	5181.95
439.89	5280.25
440.08	5128.11
440.26	5207.69
440.45	5261.52
440.63	5156.20
440.82	5565.79
441.01	5439.40
441.19	5509.62
441.38	5823.25
441.57	5631.33
441.75	5706.23
441.94	5870.06
442.12	5710.91
442.31	5790.49
442.50	5764.74
442.68	5804.53
442.87	5717.93
443.05	5959.00
443.24	5905.17
443.43	5909.85
443.61	5820.91
443.80	6120.50
443.98	5827.93
444.17	5783.46
444.35	5987.09
444.54	6045.60
444.73	5956.66
444.91	6083.05
445.10	6127.52
445.28	5760.06
445.47	5764.74
445.65	5980.07
445.84	6193.06
446.02	5926.24
446.21	5849.00
446.39	6029.22
446.58	6059.65
446.77	6282.00
446.95	5879.43
447.14	6101.78
447.32	6239.87
447.51	6094.76
447.69	6174.33
447.88	6113.48
448.06	6171.99
448.25	6139.23
448.43	5933.26
448.62	6139.23
448.80	6188.38
448.99	6179.01
449.17	6443.49
449.36	6284.34
449.54	6422.43
449.73	6579.25
449.91	6464.56
450.10	6644.78
450.28	6490.31
450.46	6707.98
450.65	6644.78
450.83	6502.01
451.02	6558.18
451.20	6602.65
451.39	6696.27
451.57	6628.40
451.76	6502.01
451.94	6530.09
452.13	6780.53
452.31	6740.74
452.49	6520.73
452.68	6684.57
452.86	6548.82
453.05	6689.25
453.23	6848.41
453.42	6820.32
453.60	6787.55
453.78	6944.37
453.97	6803.94
454.15	6801.60
454.34	6743.08
454.52	6841.39
454.70	6946.71
454.89	7084.80
455.07	6995.86
455.26	7056.72
455.44	7019.27
455.62	7047.35
455.81	7070.76
455.99	7335.24
456.17	7307.15
456.36	7180.76
456.54	7328.22
456.73	7176.08
456.91	7571.63
457.09	7527.16
457.28	7665.25
457.46	7428.86
457.64	7459.29
457.83	7368.01
458.01	7330.56
458.19	7573.97
458.38	7524.82
458.56	7698.02
458.74	7555.25
458.93	7541.21
459.11	7714.41
459.29	7475.67
459.48	7634.83
459.66	7679.30
459.84	7723.77
460.03	7796.32
460.21	7779.94
460.39	7770.58
460.57	7740.15
460.76	7789.30
460.94	8013.99
461.12	7946.12
461.31	8051.44
461.49	7892.29
461.67	7974.21
461.85	8070.17
462.04	8152.09
462.22	8627.21
462.40	8297.20
462.59	8184.85
462.77	8376.78
462.95	8351.03
463.13	8269.11
463.32	8397.84
463.50	8248.05
463.68	8388.48
463.86	8168.47
464.05	8322.94
464.23	8339.33
464.41	8334.65
464.59	8215.28
464.78	8386.14
464.96	8470.40
465.14	8374.44
465.32	8613.17
465.50	8542.96
465.69	8552.32
465.87	8468.06
466.05	8500.83
466.23	8451.67
466.41	8510.19
466.60	8514.87
466.78	8709.13
466.96	8484.44
467.14	8709.13
467.32	8688.07
467.51	8882.33
467.69	8526.57
467.87	8772.33
468.05	8767.65
468.23	8887.01
468.41	8784.03
468.60	8720.84
468.78	8795.73
468.96	8849.57
469.14	8889.35
469.32	9076.60
469.50	8985.32
469.69	9095.32
469.87	9174.90
470.05	8964.25
470.23	9291.93
470.41	9139.79
470.59	9224.05
470.77	8982.98
470.95	9296.61
471.14	9249.80
471.32	9383.21
471.50	9556.41
471.68	9448.74
471.86	9675.77
472.04	9626.62
472.22	9652.37
472.40	9362.14
472.58	9643.01
472.77	9621.94
472.95	9788.12
473.13	10169.63
473.31	9757.69
473.49	9886.42
473.67	10031.54
473.85	10115.80
474.03	10162.61
474.21	10303.04
474.39	10244.52
474.57	10331.12
474.75	10349.85
474.93	10244.52
475.12	10307.72
475.30	10462.19
475.48	10525.39
475.66	10396.66
475.84	10420.06
476.02	10644.76
476.20	10675.18
476.38	10918.60
476.56	10923.28
476.74	11119.89
476.92	11044.99
477.10	10768.80
477.28	11297.77
477.46	11300.11
477.64	11304.79
477.82	11431.18
478.00	11658.21
478.18	11623.10
478.36	11976.52
478.54	11765.87
478.72	11896.94
478.90	11871.20
479.08	11880.56
479.26	12229.30
479.44	12203.55
479.62	12304.20
479.80	12304.20
479.98	12421.22
480.16	12741.88
480.34	12634.21
480.52	12753.58
480.70	12629.53
480.88	12676.34
481.06	12800.39
481.24	12823.80
481.41	13008.70
481.59	13233.39
481.77	13301.26
481.95	13535.32
482.13	13738.94
482.31	13633.62
482.49	13902.78
482.67	14176.62
482.85	13958.96
483.03	13956.61
483.21	14197.69
483.39	14429.40
483.57	14230.46
483.74	14553.45
483.92	14848.36
484.10	14445.79
484.28	14824.95
484.46	14958.36
484.64	15389.02
484.82	15007.52
485.00	15314.13
485.18	15510.73
485.35	15407.75
485.53	15349.23
485.71	15494.35
485.89	15749.46
486.07	15374.98
486.25	16027.99
486.43	15967.13
486.61	16126.29
486.78	16149.70
486.96	16648.23
487.14	16655.25
487.32	16561.63
487.50	17025.06
487.68	17090.59
487.85	17273.15
488.03	17586.79
488.21	17507.21
488.39	17460.40
488.57	17610.19
488.75	17806.80
488.92	18129.79
489.10	18026.81
489.28	18246.82
489.46	18572.15
489.64	18452.78
489.81	18656.41
489.99	18703.22
490.17	18988.77
490.35	19129.20
490.53	18967.70
490.70	19211.12
490.88	19456.87
491.06	19543.47
491.24	19503.68
491.41	19372.61
491.59	19613.69
491.77	19950.73
491.95	19955.41
492.13	20126.27
492.30	20226.91
492.48	19999.88
492.66	20554.58
492.84	20444.58
493.01	20631.82
493.19	20659.91
493.37	20893.96
493.54	20926.73
493.72	21282.49
493.90	21310.58
494.08	21359.73
494.25	21994.01
494.43	21928.48
494.61	21795.07
494.79	22106.36
494.96	21827.84
495.14	22197.64
495.32	22022.10
495.49	22462.12
495.67	22590.85
495.85	22923.21
496.02	22885.76
496.20	22857.67
496.38	23033.21
496.55	23091.73
496.73	23494.30
496.91	23370.25
497.09	23484.94
497.26	23517.70
497.44	23627.71
497.62	23573.88
497.79	24091.13
497.97	23480.25
498.14	24004.53
498.32	24086.45
498.50	24163.69
498.67	24327.53
498.85	24479.66
499.03	24800.32
499.20	24531.15
499.38	24802.66
499.56	24807.34
499.73	24912.66
499.91	25170.12
500.08	25249.70
500.26	25521.20
500.44	25179.48
500.61	25242.68
500.79	25582.06
500.97	25350.34
501.14	25656.95
501.32	25525.88
501.49	25668.66
501.67	25631.21
501.84	26113.36
502.02	25788.02
502.20	26001.01
502.37	26150.81
502.55	26473.80
502.72	26169.53
502.90	26476.14
503.07	26859.99
503.25	26574.44
503.43	26431.67
503.60	26508.91
503.78	26679.77
503.95	26883.39
504.13	26768.71
504.30	27398.31
504.48	27503.64
504.65	27157.24
504.83	27475.55
505.01	27711.94
505.18	27522.36
505.36	28086.43
505.53	27847.69
505.71	27812.59
505.88	27901.53
506.06	27847.69
506.23	28119.20
506.41	28030.26
506.58	28156.64
506.76	28210.48
506.93	28566.24
507.11	28025.57
507.28	28402.40
507.46	28727.74
507.63	28386.02
507.81	28566.24
507.98	28421.13
508.16	28737.10
508.33	28893.91
508.50	29127.97
508.68	29020.30
508.85	29450.96
509.03	29256.70
509.20	29436.92
509.38	29521.18
509.55	29553.94
509.73	29677.99
509.90	29385.43
510.08	29560.97
510.25	29598.41
510.42	29872.26
510.60	30148.44
510.77	30188.23
510.95	30143.76
511.12	30197.59
511.30	30410.58
511.47	30567.40
511.64	30864.64
511.82	31084.65
511.99	30611.87
512.17	30937.20
512.34	30649.32
512.51	30803.79
512.69	31264.88
512.86	31295.30
513.04	31250.83
513.21	31424.03
513.38	30862.30
513.56	30960.61
513.73	31115.08
513.90	31534.04
514.08	31622.98
514.25	31728.30
514.43	31571.49
514.60	31571.49
514.77	31562.12
514.95	32163.64
515.12	31810.22
515.29	32261.94
515.47	32126.19
515.64	32662.18
515.81	32196.41
515.99	32130.87
516.16	32123.85
516.33	32063.00
516.51	32107.47
516.68	32095.77
516.85	31840.65
517.03	31948.31
517.20	32676.22
517.37	32547.49
517.54	33256.67
517.72	32732.39
517.89	32744.09
518.06	32772.18
518.24	32938.36
518.41	32601.32
518.58	32882.19
518.75	32774.52
518.93	33699.03
519.10	33109.22
519.27	33141.99
519.45	33170.07
519.62	33692.01
519.79	33663.93
519.96	33937.77
520.14	34174.16
520.31	34113.31
520.48	33933.09
520.65	33762.23
520.83	34534.60
521.00	34213.95
521.17	33970.54
521.34	34480.77
521.52	34132.03
521.69	34256.08
521.86	34560.35
522.03	34754.61
522.20	34574.39
522.38	34859.94
522.55	34951.22
522.72	35063.57
522.89	34799.08
523.07	35103.35
523.24	34485.45
523.41	35056.54
523.58	34850.58
523.75	35204.00
523.92	35349.11
524.10	35711.89
524.27	35388.90
524.44	35594.87
524.61	35735.30
524.78	35875.73
524.96	35702.53
525.13	35868.71
525.30	36168.30
525.47	36081.70
525.64	36048.93
525.81	35859.35
525.98	36095.74
526.16	36051.27
526.33	35906.16
526.50	36460.87
526.67	36217.45
526.84	35983.40
527.01	36065.31
527.18	36425.76
527.36	36254.90
527.53	36708.96
527.70	36765.14
527.87	36851.73
528.04	36589.59
528.21	36842.37
528.38	36671.51
528.55	37090.47
528.72	37120.90
528.89	36840.03
529.07	36701.94
529.24	37010.89
529.41	37181.75
529.58	36975.78
529.75	37310.48
529.92	37317.50
530.09	37338.57
530.26	37455.59
530.43	37455.59
530.60	37263.67
530.77	37638.15
530.94	37970.51
531.11	37654.54
531.28	38103.92
531.46	37647.52
531.63	37991.58
531.80	38183.50
531.97	37689.65
532.14	37886.25
532.31	38162.43
532.48	37862.85
532.65	38389.47
532.82	37986.89
532.99	38316.91
533.16	38003.28
533.33	38330.95
533.50	38602.46
533.67	38319.25
533.84	38492.45
534.01	38710.12
534.18	38450.32
534.35	38675.01
534.52	38658.63
534.69	38632.88
534.86	38785.02
535.03	39108.01
535.20	38967.58
535.37	39117.37
535.54	39100.99
535.71	38721.82
535.88	38562.67
536.05	39007.37
536.22	39466.11
536.38	39660.38
536.55	39220.36
536.72	39536.33
536.89	38682.03
537.06	38864.60
537.23	39494.20
537.40	39342.06
537.57	39271.85
537.74	39463.77
537.91	39990.39
538.08	39880.39
538.25	39454.41
538.42	39611.23
538.59	39936.56
538.75	39321.00
538.92	40126.14
539.09	39512.92
539.26	39543.35
539.43	39587.82
539.60	39559.73
539.77	39517.60
539.94	40030.18
540.11	39653.36
540.28	40222.11
540.44	39779.74
540.61	40161.25
540.78	39812.51
540.95	40149.55
541.12	40076.99
541.29	39906.13
541.46	40596.59
541.62	40540.42
541.79	40439.78
541.96	39887.41
542.13	40449.14
542.30	40371.90
542.47	40577.87
542.63	40605.95
542.80	40495.95
542.97	40992.14
543.14	41364.29
543.31	41055.34
543.48	41097.47
543.64	41099.81
543.81	41172.36
543.98	41237.90
544.15	41153.64
544.32	41439.18
544.48	41724.73
544.65	41537.49
544.82	41865.16
544.99	41188.75
545.16	41406.42
545.32	41144.28
545.49	41942.40
545.66	41797.29
545.83	41741.11
546.00	41832.39
546.16	41546.85
546.33	41411.10
546.50	41280.03
546.67	42251.35
546.83	41329.18
547.00	41607.70
547.17	41916.65
547.34	41729.41
547.50	42176.45
547.67	42389.44
547.84	41879.21
548.00	42185.82
548.17	42300.50
548.34	41806.65
548.51	42239.65
548.67	42251.35
548.84	42857.55
549.01	42459.66
549.18	42139.00
549.34	41977.51
549.51	42806.06
549.68	41998.57
549.84	42309.86
550.01	42789.67
550.18	42113.26
550.34	42504.13
550.51	41911.97
550.68	42499.45
550.84	42330.93
551.01	42401.14
551.18	42873.93
551.34	43068.20
551.51	42887.98
551.68	42873.93
551.84	42485.40
552.01	42948.83
552.18	43063.52
552.34	43035.43
552.51	43283.53
552.68	43208.63
552.84	43037.77
553.01	43201.61
553.18	42974.58
553.34	43522.26
553.51	42902.02
553.67	42838.83
553.84	43578.43
554.01	43386.51
554.17	43117.35
554.34	43702.48
554.51	43320.98
554.67	43587.80
554.84	43543.33
555.00	43264.80
555.17	43171.18
555.33	43210.97
555.50	43732.91
555.67	43662.69
555.83	43573.75
556.00	43751.63
556.16	43796.10
556.33	43763.34
556.50	43442.68
556.66	43648.65
556.83	43573.75
556.99	44006.75
557.16	44004.41
557.32	44137.82
557.49	43849.94
557.65	43482.47
557.82	43627.59
557.98	43817.17
558.15	43419.28
558.32	43679.08
558.48	44360.17
558.65	43927.17
558.81	43922.49
558.98	44062.93
559.14	44105.06
559.31	44133.14
559.47	43810.15
559.64	44414.01
559.80	44369.54
559.97	44325.07
560.13	43854.62
560.30	44306.34
560.46	44486.56
560.63	44158.89
560.79	44509.97
560.96	43910.79
561.12	44385.92
561.29	44484.22
561.45	44170.59
561.61	44083.99
561.78	44346.13
561.94	43622.90
562.11	43636.95
562.27	44437.41
562.44	44037.18
562.60	44589.55
562.77	44671.46
562.93	43973.98
563.10	44268.89
563.26	43777.38
563.42	44460.82
563.59	44388.26
563.75	44505.29
563.92	44634.02
564.08	44552.10
564.24	44868.07
564.41	44596.57
564.57	44781.47
564.74	44430.39
564.90	44409.32
565.07	44748.70
565.23	44538.05
565.39	44531.03
565.56	44624.65
565.72	44402.30
565.88	44355.49
566.05	44582.52
566.21	44528.69
566.38	44378.90
566.54	44491.24
566.70	44715.93
566.87	44795.51
567.03	44718.28
567.19	45464.91
567.36	44650.40
567.52	44217.40
567.68	44828.28
567.85	44626.99
568.01	44729.98
568.17	44568.48
568.34	45326.81
568.50	44601.25
568.66	44996.80
568.83	44648.06
568.99	44598.91
569.15	44648.06
569.32	44767.43
569.48	45090.42
569.64	45069.36
569.81	44748.70
569.97	44746.36
570.13	44612.95
570.30	44697.21
570.46	44563.80
570.62	44568.48
570.78	44311.02
570.95	44804.88
571.11	44945.31
571.27	45015.52
571.43	44947.65
571.60	45116.17
571.76	45097.44
571.92	44992.12
572.09	44746.36
572.25	44624.65
572.41	45059.99
572.57	45090.42
572.74	45380.65
572.90	45368.94
573.06	44854.03
573.22	44837.64
573.38	45144.25
573.55	44580.18
573.71	44966.37
573.87	44910.20
574.03	44545.08
574.20	45078.72
574.36	44877.43
574.52	45205.11
574.68	45020.20
574.84	45034.25
575.01	45228.51
575.17	45069.36
575.33	45111.49
575.49	44910.20
575.65	45481.29
575.82	45097.44
575.98	44870.41
576.14	45406.39
576.30	45167.66
576.46	44900.84
576.62	44570.82
576.79	44921.90
576.95	44816.58
577.11	45013.18
577.27	45125.53
577.43	45485.97
577.59	45233.19
577.75	45296.39
577.92	44392.94
578.08	44500.61
578.24	45003.82
578.40	44989.78
578.56	45375.97
578.72	44921.90
578.88	45406.39
579.04	45563.21
579.21	45029.57
579.37	45146.59
579.53	45212.13
579.69	45015.52
579.85	44928.92
580.01	45139.57
580.17	44910.20
580.33	45326.81
580.49	45228.51
580.65	45048.29
580.82	45270.64
580.98	45155.96
581.14	44758.06
581.30	45593.64
581.46	44935.95
581.62	45347.88
581.78	44980.42
581.94	45359.58
582.10	44893.82
582.26	45359.58
582.42	45275.32
582.58	45188.72
582.74	44842.32
582.90	45586.61
583.06	45310.43
583.22	45247.24
583.38	45509.38
583.54	45088.08
583.70	45371.28
583.86	44928.92
584.02	44741.68
584.18	45483.63
584.34	45153.62
584.50	45296.39
584.66	45120.85
584.82	44762.75
584.98	45631.08
585.14	45364.26
585.30	45045.95
585.46	45074.04
585.62	45216.81
585.78	45502.35
585.94	44708.91
586.10	44924.24
586.26	45350.22
586.42	45235.53
586.58	45595.98
586.74	45099.78
586.90	44837.64
587.06	44964.03
587.22	45539.80
587.38	45390.01
587.54	45897.91
587.70	45614.70
587.86	45137.23
588.02	45251.92
588.18	45848.75
588.34	45118.51
588.49	44790.83
588.65	45256.60
588.81	44669.12
588.97	45270.64
589.13	45127.87
589.29	45181.70
589.45	45043.61
589.61	45118.51
589.77	45305.75
589.93	45432.14
590.08	45713.00
590.24	45640.45
590.40	45879.18
590.56	45942.38
590.72	45619.38
590.88	45265.96
591.04	45621.72
591.20	45827.69
591.35	45909.61
591.51	45811.31
591.67	45478.95
591.83	45312.77
591.99	45146.59
592.15	45312.77
592.31	45418.10
592.46	45476.61
592.62	45441.50
592.78	45518.74
592.94	45656.83
593.10	45366.60
593.26	45975.14
593.41	45736.41
593.57	45249.58
593.73	45502.35
593.89	45954.08
594.05	44945.31
594.20	45610.02
594.36	45558.53
594.52	45921.31
594.68	45598.32
594.84	45553.85
594.99	45558.53
595.15	45902.59
595.31	45680.24
595.47	45965.78
595.62	45502.35
595.78	45708.32
595.94	45668.53
596.10	45972.80
596.25	45567.89
596.41	45652.15
596.57	45806.62
596.73	46057.06
596.88	45338.52
597.04	45525.76
597.20	45930.67
597.36	45813.65
597.51	45607.68
597.67	45624.06
597.83	45504.70
597.99	46045.36
598.14	45635.77
598.30	45792.58
598.46	45722.37
598.61	45724.71
598.77	45104.46
598.93	45455.54
599.09	45689.60
599.24	45773.86
599.40	45933.01
599.56	45787.90
599.71	45528.10
599.87	46047.70
600.03	45787.90
600.18	45705.98
600.34	45591.30
600.50	45593.64
600.65	45485.97
600.81	45769.18
600.97	46021.95
601.12	46291.12
601.28	45687.26
601.44	45422.78
601.59	45755.13
601.75	45256.60
601.91	45853.44
602.06	45553.85
602.22	45722.37
602.37	45502.35
602.53	45921.31
602.69	45834.71
602.84	45448.52
603.00	45755.13
603.16	45647.47
603.31	45291.71
603.47	45586.61
603.62	45617.04
603.78	45532.78
603.94	45890.88
604.09	45624.06
604.25	45930.67
604.40	45947.06
604.56	45717.68
604.71	45691.94
604.87	45490.65
605.03	45570.23
605.18	45378.31
605.34	45647.47
605.49	45177.02
605.65	45617.04
605.80	45542.14
605.96	45453.20
606.12	45780.88
606.27	45539.80
606.43	45268.30
606.58	45544.48
606.74	45237.87
606.89	45228.51
607.05	45043.61
607.20	45404.05
607.36	45949.40
607.51	45855.78
607.67	45518.74
607.82	45467.25
607.98	45787.90
608.13	45052.97
608.29	45242.56
608.44	45008.50
608.60	45207.45
608.75	45226.17
608.91	44926.58
609.06	44931.26
609.22	45413.41
609.37	44879.77
609.53	45621.72
609.68	45476.61
609.84	45230.85
609.99	45244.90
610.15	44978.07
610.30	45242.56
610.46	44746.36
610.61	44619.97
610.76	45013.18
610.92	45251.92
611.07	44818.92
611.23	44863.39
611.38	45329.16
611.54	44659.76
611.69	45247.24
611.84	44797.85
612.00	44732.32
612.15	45048.29
612.31	44545.08
612.46	44781.47
612.62	44992.12
612.77	44982.76
612.92	44715.93
613.08	44690.19
613.23	44622.31
613.39	44928.92
613.54	44573.16
613.69	44402.30
613.85	44900.84
614.00	45050.63
614.15	44931.26
614.31	44701.89
614.46	44935.95
614.62	44313.36
614.77	44381.24
614.92	44816.58
615.08	44383.58
615.23	44313.36
615.38	44715.93
615.54	44196.34
615.69	44474.86
615.84	44250.17
616.00	44334.43
616.15	44231.44
616.30	44229.10
616.46	44268.89
616.61	44175.27
616.76	44088.67
616.92	44336.77
617.07	43908.45
617.22	43973.98
617.37	43901.43
617.53	44025.48
617.68	44217.40
617.83	44666.78
617.99	44119.10
618.14	44275.91
618.29	44605.93
618.45	44128.46
618.60	44046.54
618.75	44287.62
618.90	44271.23
619.06	44009.09
619.21	44189.31
619.36	44154.21
619.51	43896.75
619.67	43770.36
619.82	43805.47
619.97	43959.94
620.12	43803.13
620.28	43426.30
620.43	43538.65
620.58	43887.39
620.73	43634.61
620.89	43405.23
621.04	43882.70
621.19	43901.43
621.34	43838.23
621.49	43014.37
621.65	43571.41
621.80	43782.06
621.95	43157.14
622.10	43819.51
622.25	43402.89
622.41	43798.44
622.56	43159.48
622.71	43519.92
622.86	43463.75
623.01	43206.29
623.16	43480.13
623.32	42801.38
623.47	43690.78
623.62	43496.52
623.77	43143.09
623.92	43229.69
624.07	43248.42
624.23	43089.26
624.38	42913.72
624.53	43042.45
624.68	43232.04
624.83	43213.31
624.98	43283.53
625.13	43103.31
625.29	42714.78
625.44	42953.51
625.59	42543.92
625.74	42756.91
625.89	42684.35
626.04	42398.80
626.19	42962.87
626.34	43021.39
626.49	43047.13
626.65	42878.61
626.80	42871.59
626.95	42630.52
627.10	42693.71
627.25	42471.36
627.40	42452.64
627.55	42263.05
627.70	42050.06
627.85	42085.17
628.00	42572.00
628.15	42693.71
628.30	42286.46
628.45	42515.83
628.60	42583.71
628.76	42438.59
628.91	42548.60
629.06	42843.51
629.21	42047.72
629.36	41691.96
629.51	41926.02
629.66	41876.86
629.81	41785.58
629.96	41766.86
630.11	41933.04
630.26	41935.38
630.41	41706.01
630.56	41958.78
630.71	42078.15
630.86	42359.02
631.01	42043.04
631.16	41794.95
631.31	41949.42
631.46	41148.96
631.61	41603.02
631.76	42232.63
631.91	41724.73
632.06	42094.53
632.21	41937.72
632.36	42073.47
632.51	41263.64
632.66	41876.86
632.81	41298.75
632.96	41869.84
633.10	41427.48
633.25	41439.18
633.40	41120.87
633.55	41352.58
633.70	41799.63
633.85	41329.18
634.00	41308.11
634.15	41287.05
634.30	41294.07
634.45	41275.35
634.60	41488.34
634.75	41493.02
634.90	41305.77
635.05	40999.16
635.19	40954.69
635.34	41371.31
635.49	41443.87
635.64	41359.61
635.79	40535.74
635.94	41242.58
636.09	40844.69
636.24	40907.88
636.39	40708.94
636.53	40999.16
636.68	40690.21
636.83	40863.41
636.98	41057.68
637.13	40449.14
637.28	40875.12
637.43	41165.34
637.57	40940.65
637.72	40615.32
637.87	40832.99
638.02	41003.85
638.17	40898.52
638.32	40498.29
638.46	40343.81
638.61	40701.92
638.76	39971.67
638.91	40573.19
639.06	40650.42
639.20	40458.50
639.35	40465.52
639.50	40460.84
639.65	40610.64
639.80	40484.25
639.94	40442.12
640.09	40411.69
640.24	40531.06
640.39	39899.11
640.54	39828.90
640.68	40678.51
640.83	40135.51
640.98	39838.26
641.13	40299.34
641.27	40414.03
641.42	40098.06
641.57	40512.33
641.72	40147.21
641.86	40114.44
642.01	39880.39
642.16	39782.09
642.31	39606.55
642.45	39854.64
642.60	39484.84
642.75	39475.48
642.90	39597.18
643.04	39564.42
643.19	39751.66
643.34	40254.87
643.48	39878.05
643.63	39653.36
643.78	39283.55
643.93	39433.35
644.07	39271.85
644.22	39566.76
644.37	39435.69
644.51	39543.35
644.66	39367.81
644.81	39126.74
644.95	39618.25
645.10	39454.41
645.25	39578.46
645.39	39625.27
645.54	39522.29
645.69	39578.46
645.83	38742.89
645.98	39302.28
646.13	39557.39
646.27	39473.13
646.42	39555.05
646.57	39353.77
646.71	39744.64
646.86	39222.70
647.00	39379.51
647.15	39112.69
647.30	39178.23
647.44	39592.50
647.59	38836.51
647.74	38899.70
647.88	39082.27
648.03	38974.60
648.17	38862.26
648.32	38789.70
648.47	38974.60
648.61	38424.57
648.76	38953.54
648.90	38789.70
649.05	38754.59
649.20	38759.27
649.34	38909.07
649.49	38778.00
649.63	38595.43
649.78	38740.55
649.92	38820.13
650.07	38909.07
650.21	38340.32
650.36	38700.76
650.51	38340.32
650.65	38539.26
650.80	38787.36
650.94	38763.95
651.09	38593.09
651.23	38370.74
651.38	38298.19
651.52	37984.55
651.67	38064.13
651.81	38267.76
651.96	38007.96
652.10	38466.70
652.25	38007.96
652.39	38354.36
652.54	38813.10
652.68	38319.25
652.83	38696.08
652.97	38670.33
653.12	38120.31
653.26	38480.75
653.41	37989.24
653.55	38043.07
653.70	37940.08
653.84	38293.50
653.99	37975.19
654.13	38113.28
654.27	38171.80
654.42	38122.65
654.56	37872.21
654.71	37954.13
654.85	38085.20
655.00	37694.33
655.14	37443.89
655.29	37572.62
655.43	37586.66
655.57	37441.55
655.72	37474.32
655.86	37354.95
656.01	37165.37
656.15	37209.84
656.30	36959.40
656.44	37661.56
656.58	37273.03
656.73	37401.76
656.87	37233.24
657.01	37031.96
657.16	37261.33
657.30	36711.30
657.45	37511.77
657.59	37024.93
657.73	36802.58
657.88	37202.82
658.02	36737.05
658.16	37188.77
658.31	37053.02
658.45	37071.75
658.60	37055.36
658.74	37015.57
658.88	36868.12
659.03	36978.12
659.17	36800.24
659.31	36767.48
659.46	36800.24
659.60	36385.97
659.74	36886.84
659.89	36306.39
660.03	36755.77
660.17	36723.01
660.32	36488.95
660.46	36320.43
660.60	36540.44
660.74	36676.19
660.89	36582.57
661.03	36210.43
661.17	36470.23
661.32	35716.58
661.46	35725.94
661.60	35967.01
661.74	36449.16
661.89	36081.70
662.03	36020.84
662.17	35967.01
662.31	35618.27
662.46	35938.93
662.60	36142.55
662.74	35957.65
662.88	35751.68
663.03	35426.35
663.17	35627.63
663.31	35227.40
663.45	35894.46
663.60	35407.62
663.74	35316.34
663.88	35044.84
664.02	35105.70
664.17	35386.56
664.31	35108.04
664.45	34616.52
664.59	35175.91
664.73	35398.26
664.88	35250.81
665.02	34771.00
665.16	34902.07
665.30	34960.58
665.44	34932.50
665.59	34611.84
665.73	34335.66
665.87	34464.39
666.01	34267.78
666.15	34047.77
666.29	34548.65
666.44	34527.58
666.58	34604.82
666.72	34244.38
666.86	34270.12
667.00	34401.19
667.14	34143.74
667.28	34469.07
667.43	33916.70
667.57	33680.31
667.71	34270.12
667.85	33881.60
667.99	33879.25
668.13	33844.15
668.27	34085.22
668.41	33759.89
668.56	33207.52
668.70	34099.26
668.84	33507.11
668.98	33589.03
669.12	33528.17
669.26	34281.83
669.40	33369.02
669.54	33324.55
669.68	33165.39
669.82	33390.08
669.96	33359.66
670.10	32840.06
670.25	33205.18
670.39	33371.36
670.53	33247.31
670.67	32896.23
670.81	33261.35
670.95	32851.76
671.09	32900.91
671.23	32620.05
671.37	33235.61
671.51	32549.83
671.65	32165.98
671.79	32041.93
671.93	32217.47
672.07	32584.94
672.21	32299.39
672.35	32105.13
672.49	32488.98
672.63	32208.11
672.77	32055.98
672.91	31732.98
673.05	31852.35
673.19	31597.23
673.33	31763.41
673.47	31421.69
673.61	31847.67
673.75	31311.69
673.89	31269.56
674.03	31187.64
674.17	31082.31
674.31	31391.26
674.45	31049.55
674.59	31281.26
674.73	31407.65
674.87	31054.23
675.01	31028.48
675.15	31299.98
675.29	31070.61
675.43	30899.75
675.56	30789.75
675.70	30682.08
675.84	30370.79
675.98	29469.69
676.12	30284.19
676.26	30164.82
676.40	30190.57
676.54	30396.54
676.68	30000.99
676.82	29476.71
676.96	29942.47
677.10	29975.24
677.23	29532.88
677.37	29926.09
677.51	29523.52
677.65	29392.45
677.79	29359.68
677.93	29275.42
678.07	28858.81
678.21	28608.37
678.34	28685.61
678.48	28914.98
678.62	28655.18
678.76	28982.85
678.90	28617.73
679.04	28446.87
679.18	28362.61
679.31	28039.62
679.45	28224.52
679.59	28053.66
679.73	27960.04
679.87	28084.09
680.00	28236.22
680.14	27505.98
680.28	27630.02
680.42	27271.92
680.56	27690.88
680.70	27835.99
680.83	27407.67
680.97	27150.21
681.11	27220.43
681.25	26909.14
681.39	26911.48
681.52	27077.66
681.66	26913.82
681.80	26923.18
681.94	26902.12
682.07	26576.78
682.21	26787.43
682.35	26331.03
682.49	26342.73
682.62	26363.79
682.76	26438.69
682.90	26057.18
683.04	26209.32
683.17	25818.45
683.31	25671.00
683.45	25912.07
683.59	26033.78
683.72	25755.26
683.86	25450.99
684.00	25310.55
684.13	25151.40
684.27	25523.54
684.41	25369.07
684.55	25071.82
684.68	25116.29
684.82	25144.38
684.96	25160.76
685.09	25015.65
685.23	25036.71
685.37	24580.31
685.50	24451.58
685.64	24474.98
685.78	24430.51
685.91	24648.18
686.05	24416.47
686.19	24011.56
686.32	24135.60
686.46	23838.36
686.60	23491.96
686.73	23723.67
686.87	23817.29
687.01	23721.33
687.14	23229.82
687.28	23185.35
687.42	23302.37
687.55	23019.17
687.69	23143.22
687.82	23168.96
687.96	23173.64
688.10	22995.76
688.23	22953.63
688.37	22733.62
688.50	22120.40
688.64	22651.70
688.78	22445.74
688.91	22305.31
689.05	22473.82
689.18	22080.61
689.32	22176.58
689.46	22029.12
689.59	22118.06
689.73	22277.22
689.86	22029.12
690.00	21387.82
690.13	22059.55
690.27	21654.64
690.41	21818.47
690.54	21378.45
690.68	21530.59
690.81	21373.77
690.95	21188.87
691.08	20926.73
691.22	20952.48
691.35	20758.21
691.49	21046.10
691.62	21181.85
691.76	20891.62
691.89	20840.13
692.03	20472.67
692.16	20570.97
692.30	20404.79
692.43	20489.05
692.57	20329.89
692.70	20034.99
692.84	20219.89
692.97	19875.83
693.11	19744.76
693.24	19882.85
693.38	19379.64
693.51	19613.69
693.65	19796.25
693.78	19791.57
693.92	19625.39
694.05	19323.46
694.19	19524.75
694.32	19323.46
694.45	19157.28
694.59	18817.91
694.72	18871.74
694.86	18906.85
694.99	19023.87
695.13	18967.70
695.26	18703.22
695.39	18436.40
695.53	18609.60
695.66	18307.67
695.80	18190.64
695.93	18415.34
696.07	18420.02
696.20	18431.72
696.33	18244.48
696.47	18185.96
696.60	18356.82
696.73	18082.98
696.87	17942.55
697.00	17678.07
697.14	17912.12
697.27	17525.93
697.40	17755.30
697.54	17642.96
697.67	17420.61
697.80	17455.72
697.94	17429.97
698.07	17256.77
698.21	17170.17
698.34	17378.48
698.47	17378.48
698.61	16924.41
698.74	16877.60
698.87	16886.97
699.01	16769.94
699.14	16531.20
699.27	16400.13
699.40	16542.91
699.54	16306.51
699.67	16505.46
699.80	16109.91
699.94	15964.79
700.07	16152.04
700.20	16044.37
700.34	15934.37
700.47	15800.96
700.60	16114.59
700.73	16128.63
700.87	15906.28
701.00	15405.41
701.13	15529.45
701.26	15763.51
701.40	15580.95
701.53	15487.32
701.66	15548.18
701.79	15087.09
701.93	15108.16
702.06	15293.06
702.19	15122.20
702.32	15028.58
702.46	14902.19
702.59	14705.59
702.72	14717.29
702.85	14651.75
702.99	14527.71
703.12	14925.60
703.25	14822.61
703.38	14665.80
703.51	14349.82
703.65	14490.26
703.78	14286.63
703.91	14197.69
704.04	14398.98
704.17	13989.38
704.31	14118.11
704.44	13933.21
704.57	13820.86
704.70	13661.71
704.83	13916.83
704.96	13958.96
705.10	13563.40
705.23	13781.07
>>>>>End Processed Spectral Data<<<<<
