SpectraSuite Data File
++++++++++++++++++++++++++++++++++++
Date: Fri Oct 25 10:44:55 EDT 2013
User: price-jones
Dark Spectrum Present: No
Reference Spectrum Present: No
Number of Sampled Component Spectra: 1
Spectrometers: USB2+H05261
Integration Time (usec): 100000 (USB2+H05261)
Spectra Averaged: 1 (USB2+H05261)
Boxcar Smoothing: 0 (USB2+H05261)
Correct for Electrical Dark: No (USB2+H05261)
Strobe/Lamp Enabled: No (USB2+H05261)
Correct for Detector Non-linearity: No (USB2+H05261)
Correct for Stray Light: No (USB2+H05261)
Number of Pixels in Processed Spectrum: 2048
>>>>>Begin Processed Spectral Data<<<<<
365.73	191.92
365.92	191.92
366.12	191.92
366.32	100.64
366.52	100.64
366.72	9.36
366.91	25.75
367.11	21.06
367.31	37.45
367.51	117.03
367.70	2.34
367.90	2.34
368.10	51.49
368.30	0.00
368.49	35.11
368.69	100.64
368.89	53.83
369.09	0.00
369.28	0.00
369.48	42.13
369.68	4.68
369.87	98.30
370.07	53.83
370.27	124.05
370.47	184.90
370.66	379.17
370.86	409.59
371.06	390.87
371.25	475.13
371.45	397.89
371.65	454.06
371.84	435.34
372.04	524.28
372.24	489.17
372.44	447.04
372.63	470.45
372.83	486.83
373.03	428.32
373.22	486.83
373.42	463.43
373.62	458.74
373.81	554.71
374.01	535.98
374.21	451.72
374.40	566.41
374.60	521.94
374.79	533.64
374.99	533.64
375.19	533.64
375.38	545.34
375.58	531.30
375.78	599.18
375.97	582.79
376.17	575.77
376.37	557.05
376.56	531.30
376.76	599.18
376.95	606.20
377.15	631.94
377.35	550.03
377.54	540.66
377.74	596.84
377.93	601.52
378.13	617.90
378.33	645.99
378.52	587.47
378.72	643.65
378.91	599.18
379.11	629.60
379.31	615.56
379.50	613.22
379.70	638.97
379.89	657.69
380.09	627.26
380.28	662.37
380.48	629.60
380.68	601.52
380.87	641.31
381.07	641.31
381.26	730.25
381.46	720.88
381.65	641.31
381.85	718.54
382.04	624.92
382.24	664.71
382.43	650.67
382.63	620.24
382.83	657.69
383.02	664.71
383.22	755.99
383.41	657.69
383.61	718.54
383.80	739.61
384.00	676.41
384.19	671.73
384.39	788.76
384.58	683.44
384.78	671.73
384.97	643.65
385.17	704.50
385.36	667.05
385.56	826.21
385.75	702.16
385.95	765.36
386.14	732.59
386.34	837.91
386.53	772.38
386.72	823.87
386.92	842.59
387.11	809.83
387.31	770.04
387.50	755.99
387.70	779.40
387.89	793.44
388.09	676.41
388.28	830.89
388.48	774.72
388.67	833.23
388.86	866.00
389.06	847.27
389.25	858.98
389.45	947.92
389.64	863.66
389.84	917.49
390.03	915.15
390.22	877.70
390.42	947.92
390.61	844.93
390.81	933.87
391.00	968.98
391.19	971.32
391.39	971.32
391.58	903.45
391.78	896.43
391.97	931.53
392.16	929.19
392.36	1001.75
392.55	926.85
392.75	1015.79
392.94	873.02
393.13	929.19
393.33	957.28
393.52	940.90
393.71	1001.75
393.91	978.34
394.10	1018.13
394.29	1071.97
394.49	938.55
394.68	1144.52
394.88	1095.37
395.07	1114.10
395.26	1053.24
395.46	1097.71
395.65	1015.79
395.84	1128.14
396.04	1186.65
396.23	1139.84
396.42	1053.24
396.62	1083.67
396.81	1137.50
397.00	1097.71
397.19	1132.82
397.39	1275.59
397.58	1259.21
397.77	1139.84
397.97	1172.61
398.16	1301.34
398.35	1310.70
398.55	1233.46
398.74	1350.49
398.93	1355.17
399.12	1275.59
399.32	1299.00
399.51	1352.83
399.70	1373.89
399.90	1404.32
400.09	1350.49
400.28	1413.68
400.47	1390.28
400.67	1465.18
400.86	1357.51
401.05	1406.66
401.24	1547.09
401.44	1572.84
401.63	1540.07
401.82	1542.41
402.01	1493.26
402.21	1523.69
402.40	1479.22
402.59	1504.96
402.78	1530.71
402.97	1582.20
403.17	1673.48
403.36	1526.03
403.55	1603.27
403.74	1678.16
403.93	1657.10
404.13	1629.01
404.32	1603.27
404.51	1643.06
404.70	1729.66
404.89	1643.06
405.09	1647.74
405.28	1710.93
405.47	1675.82
405.66	1654.76
405.85	1717.95
406.05	1771.79
406.24	1806.89
406.43	1706.25
406.62	1771.79
406.81	1813.92
407.00	1762.42
407.20	1778.81
407.39	1832.64
407.58	1858.39
407.77	1956.69
407.96	2054.99
408.15	1996.48
408.34	1895.83
408.54	2040.95
408.73	2043.29
408.92	2010.52
409.11	2022.22
409.30	2008.18
409.49	2101.80
409.68	2047.97
409.87	2029.24
410.07	2085.42
410.26	2066.69
410.45	2195.42
410.64	2106.48
410.83	2209.47
411.02	2267.98
411.21	2239.89
411.40	2160.31
411.59	2342.88
411.78	2354.58
411.98	2275.00
412.17	2303.09
412.36	2239.89
412.55	2366.28
412.74	2443.52
412.93	2394.37
413.12	2387.35
413.31	2506.71
413.50	2497.35
413.69	2553.52
413.88	2537.14
414.07	2541.82
414.26	2525.44
414.45	2565.23
414.64	2527.78
414.83	2761.83
415.02	2647.15
415.22	2700.98
415.41	2757.15
415.60	2628.42
415.79	2881.20
415.98	2876.52
416.17	2832.05
416.36	2869.50
416.55	2911.63
416.74	3023.97
416.93	2874.18
417.12	2857.79
417.31	2986.52
417.50	3005.25
417.69	2984.18
417.88	3047.38
418.07	3089.51
418.26	3073.12
418.45	3038.02
418.64	3131.64
418.83	3199.51
419.02	3084.83
419.21	3098.87
419.39	3225.26
419.58	3133.98
419.77	3229.94
419.96	3473.36
420.15	3290.79
420.34	3265.05
420.53	3290.79
420.72	3482.72
420.91	3370.37
421.10	3466.33
421.29	3384.41
421.48	3365.69
421.67	3344.63
421.86	3279.09
422.05	3405.48
422.24	3297.81
422.43	3370.37
422.61	3588.04
422.80	3489.74
422.99	3646.55
423.18	3543.57
423.37	3494.42
423.56	3454.63
423.75	3478.04
423.94	3384.41
424.13	3384.41
424.32	3396.12
424.50	3377.39
424.69	3646.55
424.88	3562.30
425.07	3499.10
425.26	3407.82
425.45	3536.55
425.64	3588.04
425.83	3529.53
426.01	3564.64
426.20	3595.06
426.39	3609.11
426.58	3620.81
426.77	3562.30
426.96	3562.30
427.15	3648.90
427.33	3721.45
427.52	3660.60
427.71	3684.00
427.90	3698.05
428.09	3714.43
428.28	3761.24
428.46	3735.50
428.65	3740.18
428.84	3999.98
429.03	3974.23
429.22	3915.72
429.40	3758.90
429.59	3637.19
429.78	3613.79
429.97	3564.64
430.16	3709.75
430.34	3702.73
430.53	3831.46
430.72	3887.63
430.91	3892.31
431.10	3913.38
431.28	4072.53
431.47	4219.99
431.66	4093.60
431.85	4004.66
432.03	4166.15
432.22	4259.78
432.41	4119.34
432.60	4276.16
432.79	4273.82
432.97	4344.03
433.16	4292.54
433.35	4196.58
433.54	4198.92
433.72	4276.16
433.91	4189.56
434.10	4182.54
434.28	4372.12
434.47	4245.73
434.66	4374.46
434.85	4358.08
435.03	4409.57
435.22	4430.63
435.41	4709.16
435.59	4355.74
435.78	4451.70
435.97	4552.34
436.16	4592.13
436.34	4430.63
436.53	4458.72
436.72	4786.40
436.90	4568.73
437.09	4648.30
437.28	4507.87
437.46	4620.22
437.65	4650.64
437.84	4655.33
438.02	4638.94
438.21	4617.88
438.40	4720.86
438.58	4802.78
438.77	4812.14
438.96	4952.57
439.14	4980.66
439.33	5032.15
439.52	4994.70
439.70	4915.12
439.89	5074.28
440.08	5132.79
440.26	5153.86
440.45	5193.65
440.63	5266.21
440.82	5404.30
441.01	5451.11
441.19	5401.96
441.38	5385.57
441.57	5366.85
441.75	5373.87
441.94	5701.54
442.12	5619.63
442.31	5668.78
442.50	5652.39
442.68	5575.16
442.87	5626.65
443.05	5746.02
443.24	5659.42
443.43	5724.95
443.61	5760.06
443.80	6003.47
443.98	5661.76
444.17	5579.84
444.35	5748.36
444.54	5811.55
444.73	5905.17
444.91	5867.72
445.10	5785.80
445.28	5743.67
445.47	5713.25
445.65	5853.68
445.84	5813.89
446.02	5860.70
446.21	5916.87
446.39	5790.49
446.58	6012.84
446.77	5825.59
446.95	5795.17
447.14	6022.20
447.32	5944.96
447.51	5942.62
447.69	6136.88
447.88	5879.43
448.06	6057.31
448.25	6001.13
448.43	6050.28
448.62	5823.25
448.80	5984.75
448.99	6054.97
449.17	6054.97
449.36	6012.84
449.54	6216.46
449.73	6370.94
449.91	6361.58
450.10	6326.47
450.28	6375.62
450.46	6621.38
450.65	6331.15
450.83	6509.03
451.02	6356.90
451.20	6476.26
451.39	6424.77
451.57	6663.51
451.76	6373.28
451.94	6448.18
452.13	6558.18
452.31	6483.28
452.49	6413.07
452.68	6368.60
452.86	6352.21
453.05	6558.18
453.23	6462.22
453.42	6715.00
453.60	6403.71
453.78	6621.38
453.97	6567.54
454.15	6583.93
454.34	6675.21
454.52	6841.39
454.70	6808.62
454.89	6825.00
455.07	6841.39
455.26	6761.81
455.44	6876.49
455.62	7016.93
455.81	6871.81
455.99	7077.78
456.17	6913.94
456.36	7021.61
456.54	7220.55
456.73	6925.65
456.91	7360.98
457.09	7485.03
457.28	7302.47
457.46	7222.89
457.64	7431.20
457.83	7222.89
458.01	7272.04
458.19	7407.80
458.38	7396.09
458.56	7510.78
458.74	7307.15
458.93	7236.94
459.11	7393.75
459.29	7426.52
459.48	7501.42
459.66	7510.78
459.84	7541.21
460.03	7721.43
460.21	7618.44
460.39	7634.83
460.57	7826.75
460.76	7634.83
460.94	7648.87
461.12	7655.89
461.31	7665.25
461.49	7641.85
461.67	7581.00
461.85	7920.37
462.04	7777.60
462.22	8021.02
462.40	8149.75
462.59	8004.63
462.77	7967.18
462.95	8030.38
463.13	8056.12
463.32	7908.67
463.50	8028.04
463.68	8138.04
463.86	8102.93
464.05	7826.75
464.23	8046.76
464.41	8072.51
464.59	7932.08
464.78	8252.73
464.96	8273.79
465.14	8116.98
465.32	8264.43
465.50	8334.65
465.69	8262.09
465.87	8344.01
466.05	8212.94
466.23	8390.82
466.41	8311.24
466.60	8500.83
466.78	8224.64
466.96	8304.22
467.14	8358.05
467.32	8587.43
467.51	8362.73
467.69	8390.82
467.87	8500.83
468.05	8351.03
468.23	8498.49
468.41	8299.54
468.60	8531.25
468.78	8739.56
468.96	8758.28
469.14	8627.21
469.32	8720.84
469.50	8547.64
469.69	8746.58
469.87	8940.85
470.05	8978.30
470.23	8896.38
470.41	9013.40
470.59	9067.24
470.77	9029.79
470.95	9088.30
471.14	9172.56
471.32	9102.34
471.50	9455.76
471.68	9200.65
471.86	9256.82
472.04	9350.44
472.22	9570.45
472.40	9289.59
472.58	9423.00
472.77	9614.92
472.95	9586.83
473.13	9654.71
473.31	9645.35
473.49	9680.46
473.67	9483.85
473.85	9643.01
474.03	9877.06
474.21	9790.46
474.39	9860.68
474.57	9865.36
474.75	10015.15
474.93	10111.11
475.12	9926.21
475.30	10129.84
475.48	10113.45
475.66	10181.33
475.84	10178.99
476.02	10387.30
476.20	10471.56
476.38	10471.56
476.56	10668.16
476.74	10427.09
476.92	10972.43
477.10	10757.10
477.28	10855.40
477.46	11037.97
477.64	11108.18
477.82	11227.55
478.00	11382.03
478.18	11342.24
478.36	11162.01
478.54	11283.72
478.72	11557.57
478.90	11658.21
479.08	11967.16
479.26	11885.24
479.44	12116.95
479.62	12091.21
479.80	12091.21
479.98	12276.11
480.16	12238.66
480.34	12278.45
480.52	12517.18
480.70	12376.75
480.88	12159.08
481.06	12442.29
481.24	12762.94
481.41	12844.86
481.59	13097.64
481.77	13032.10
481.95	12844.86
482.13	13095.30
482.31	13242.75
482.49	13385.52
482.67	13469.78
482.85	13664.05
483.03	13958.96
483.21	13963.64
483.39	13907.46
483.57	13982.36
483.74	14068.96
483.92	14197.69
484.10	14108.75
484.28	14303.01
484.46	14789.85
484.64	14808.57
484.82	14508.98
485.00	14860.06
485.18	15136.24
485.35	14932.62
485.53	14925.60
485.71	15103.48
485.89	15438.17
486.07	15349.23
486.25	15435.83
486.43	15522.43
486.61	15786.91
486.78	15962.45
486.96	15847.77
487.14	16177.78
487.32	16327.58
487.50	16432.90
487.68	16659.93
487.85	16833.13
488.03	16734.83
488.21	16919.73
488.39	16812.07
488.57	17048.46
488.75	17418.27
488.92	17495.50
489.10	17607.85
489.28	17891.06
489.46	17900.42
489.64	17680.41
489.81	18113.41
489.99	18445.76
490.17	18244.48
490.35	18693.86
490.53	18441.08
490.70	18504.28
490.88	18574.49
491.06	19197.07
491.24	19147.92
491.41	18899.83
491.59	19105.79
491.77	19136.22
491.95	19433.47
492.13	19606.67
492.30	19697.95
492.48	19800.93
492.66	20023.28
492.84	20065.41
493.01	20173.08
493.19	20252.66
493.37	20421.17
493.54	20425.86
493.72	20795.66
493.90	20730.12
494.08	20884.60
494.25	21013.33
494.43	20987.58
494.61	20917.37
494.79	21355.05
494.96	21317.60
495.14	21348.03
495.32	21748.26
495.49	21853.58
495.67	21860.60
495.85	22143.81
496.02	22052.53
496.20	22611.92
496.38	22176.58
496.55	22424.67
496.73	22878.74
496.91	22593.19
497.09	23054.28
497.26	23005.13
497.44	23061.30
497.62	23000.44
497.79	23466.21
497.97	23192.37
498.14	23461.53
498.32	23503.66
498.50	23447.49
498.67	24058.37
498.85	23758.78
499.03	23983.47
499.20	24133.26
499.38	24257.31
499.56	24219.86
499.73	24156.67
499.91	24292.42
500.08	24507.75
500.26	24533.50
500.44	24589.67
500.61	24603.71
500.79	24730.10
500.97	25071.82
501.14	25289.49
501.32	25270.76
501.49	25202.89
501.67	25266.08
501.84	25062.46
502.02	25308.21
502.20	25413.54
502.37	25935.48
502.55	25727.17
502.72	25862.92
502.90	25734.19
503.07	25832.49
503.25	26094.63
503.43	26195.28
503.60	26298.26
503.78	25888.67
503.95	26293.58
504.13	26066.55
504.30	26595.51
504.48	26434.01
504.65	26562.74
504.83	26745.30
505.01	26974.67
505.18	27033.19
505.36	27288.31
505.53	27080.00
505.71	27466.19
505.88	27433.42
506.06	27037.87
506.23	27538.74
506.41	27335.12
506.58	27129.15
506.76	27398.31
506.93	27941.32
507.11	27740.03
507.28	27871.10
507.46	27344.48
507.63	27784.50
507.81	27901.53
507.98	27798.54
508.16	28187.07
508.33	28102.81
508.50	28624.75
508.68	28341.55
508.85	28655.18
509.03	28772.21
509.20	28823.70
509.38	28701.99
509.55	28992.22
509.73	29076.48
509.90	29083.50
510.08	29333.93
510.25	29476.71
510.42	29336.27
510.60	29656.93
510.77	29591.39
510.95	29699.06
511.12	29366.70
511.30	29820.77
511.47	29923.75
511.64	29804.38
511.82	30157.80
511.99	30178.87
512.17	29841.83
512.34	29785.66
512.51	30291.21
512.69	30197.59
512.86	30326.32
513.04	30450.37
513.21	30441.01
513.38	30480.80
513.56	30726.55
513.73	30239.72
513.90	30426.96
514.08	30529.95
514.25	30789.75
514.43	30803.79
514.60	30546.33
514.77	31040.18
514.95	31690.85
515.12	31339.77
515.29	31208.70
515.47	31667.45
515.64	31899.16
515.81	31625.32
515.99	31421.69
516.16	31648.72
516.33	31161.89
516.51	31878.10
516.68	31562.12
516.85	31480.21
517.03	31644.04
517.20	31796.18
517.37	32285.35
517.54	32048.96
517.72	32210.45
517.89	31938.95
518.06	31981.08
518.24	32283.01
518.41	32144.92
518.58	32559.19
518.75	32598.98
518.93	32767.50
519.10	32521.74
519.27	32685.58
519.45	32746.44
519.62	32570.90
519.79	33256.67
519.96	32989.85
520.14	33603.07
520.31	32683.24
520.48	32919.63
520.65	33308.16
520.83	33565.62
521.00	33809.04
521.17	33528.17
521.34	34024.37
521.52	33830.10
521.69	33556.26
521.86	34029.05
522.03	34164.80
522.20	33914.36
522.38	34321.62
522.55	34150.76
522.72	33867.55
522.89	34162.46
523.07	34398.85
523.24	34433.96
523.41	34497.16
523.58	34132.03
523.75	34965.26
523.92	34586.10
524.10	34658.65
524.27	34934.84
524.44	34672.70
524.61	34965.26
524.78	35227.40
524.96	35220.38
525.13	34981.65
525.30	35274.21
525.47	35515.29
525.64	34993.35
525.81	35431.03
525.98	35098.67
526.16	35292.94
526.33	35325.71
526.50	35597.21
526.67	35082.29
526.84	35360.81
527.01	35306.98
527.18	35576.14
527.36	35999.78
527.53	36079.36
527.70	36587.25
527.87	35962.33
528.04	36058.29
528.21	35838.28
528.38	35819.56
528.55	36334.48
528.72	36037.23
528.89	35950.63
529.07	36149.57
529.24	36666.83
529.41	36212.77
529.58	36350.86
529.75	36416.40
529.92	36133.19
530.09	36521.72
530.26	36713.64
530.43	36905.57
530.60	36500.65
530.77	36542.78
530.94	36952.38
531.11	37024.93
531.28	36767.48
531.46	37130.26
531.63	37404.10
531.80	36800.24
531.97	36854.08
532.14	37549.21
532.31	37106.85
532.48	37254.31
532.65	37120.90
532.82	37053.02
532.99	37429.85
533.16	37195.79
533.33	37717.73
533.50	37727.10
533.67	37762.20
533.84	37308.14
534.01	37970.51
534.18	37780.93
534.35	37888.59
534.52	38026.68
534.69	37640.50
534.86	38267.76
535.03	37851.14
535.20	37904.98
535.37	38359.04
535.54	38667.99
535.71	38148.39
535.88	38560.33
536.05	38239.67
536.22	38141.37
536.38	38494.79
536.55	38321.59
536.72	38546.28
536.89	38291.16
537.06	38277.12
537.23	38431.60
537.40	38859.91
537.57	38761.61
537.74	38719.48
537.91	39005.03
538.08	38857.57
538.25	38567.35
538.42	38838.85
538.59	39222.70
538.75	39227.38
538.92	38803.74
539.09	38916.09
539.26	38998.01
539.43	39222.70
539.60	38857.57
539.77	39075.24
539.94	39084.61
540.11	38717.14
540.28	39220.36
540.44	39494.20
540.61	39421.64
540.78	39026.09
540.95	39225.04
541.12	38953.54
541.29	39562.08
541.46	39452.07
541.62	39777.40
541.79	39992.73
541.96	39168.87
542.13	39693.15
542.30	39639.31
542.47	40034.86
542.63	39473.13
542.80	39330.36
542.97	40198.70
543.14	40889.16
543.31	40493.61
543.48	40350.84
543.64	40907.88
543.81	40823.62
543.98	40648.08
544.15	40247.85
544.32	40767.45
544.48	40315.73
544.65	40568.51
544.82	41120.87
544.99	40479.57
545.16	40605.95
545.32	40102.74
545.49	41041.29
545.66	40837.67
545.83	41095.13
546.00	41153.64
546.16	41289.39
546.33	41071.72
546.50	40388.28
546.67	41008.53
546.83	41120.87
547.00	41226.20
547.17	41148.96
547.34	41221.52
547.50	41099.81
547.67	41331.52
547.84	41251.94
548.00	41191.09
548.17	41783.24
548.34	41319.82
548.51	41490.68
548.67	41638.13
548.84	41640.47
549.01	41090.44
549.18	41509.40
549.34	41586.64
549.51	41907.29
549.68	41460.25
549.84	41811.33
550.01	42209.22
550.18	41663.88
550.34	41818.35
550.51	41696.64
550.68	41708.35
550.84	41682.60
551.01	41837.08
551.18	41708.35
551.34	41443.87
551.51	41989.21
551.68	41752.82
551.84	42651.58
552.01	41752.82
552.18	41837.08
552.34	41975.17
552.51	41972.83
552.68	42136.66
552.84	42401.14
553.01	42700.73
553.18	42614.13
553.34	42483.06
553.51	41790.27
553.67	42415.19
553.84	42534.56
554.01	42511.15
554.17	42192.84
554.34	42918.40
554.51	42572.00
554.67	42845.85
554.84	42476.04
555.00	42330.93
555.17	42529.87
555.33	42562.64
555.50	42679.67
555.67	42593.07
555.83	42328.59
556.00	42799.04
556.16	42920.74
556.33	42782.65
556.50	42337.95
556.66	43107.99
556.83	42834.14
556.99	42845.85
557.16	42843.51
557.32	42880.95
557.49	43143.09
557.65	43030.75
557.82	43192.25
557.98	42972.24
558.15	43302.25
558.32	43208.63
558.48	43320.98
558.65	42880.95
558.81	42895.00
558.98	42536.90
559.14	43281.19
559.31	43225.01
559.47	43065.86
559.64	43288.21
559.80	43391.19
559.97	43545.67
560.13	42918.40
560.30	42941.81
560.46	43372.47
560.63	43384.17
560.79	43388.85
560.96	43875.68
561.12	43566.73
561.29	43503.54
561.45	43562.05
561.61	43526.94
561.78	43086.92
561.94	43086.92
562.11	42976.92
562.27	43189.91
562.44	43646.31
562.60	43821.85
562.77	43723.55
562.93	43721.21
563.10	43927.17
563.26	43372.47
563.42	43409.92
563.59	43749.29
563.75	43414.60
563.92	43835.89
564.08	43386.51
564.24	43590.14
564.41	43548.01
564.57	43679.08
564.74	43641.63
564.90	44030.16
565.07	43866.32
565.23	43477.79
565.39	43599.50
565.56	43679.08
565.72	43578.43
565.88	44095.69
566.05	43849.94
566.21	43704.82
566.38	43812.49
566.54	43887.39
566.70	43732.91
566.87	43913.13
567.03	44013.77
567.19	44086.33
567.36	44292.30
567.52	43751.63
567.68	43866.32
567.85	43913.13
568.01	43938.88
568.17	44046.54
568.34	43924.83
568.50	43693.12
568.66	44266.55
568.83	44060.58
568.99	43725.89
569.15	43580.78
569.32	44123.78
569.48	43739.93
569.64	44282.94
569.81	44374.22
569.97	43772.70
570.13	43585.46
570.30	44210.38
570.46	43927.17
570.62	43540.99
570.78	43952.92
570.95	43917.81
571.11	43910.79
571.27	44374.22
571.43	43824.19
571.60	43938.88
571.76	43765.68
571.92	44383.58
572.09	43849.94
572.25	44308.68
572.41	44095.69
572.57	44210.38
572.74	44669.12
572.90	44067.61
573.06	44371.88
573.22	44250.17
573.38	43988.03
573.55	43880.36
573.71	44594.23
573.87	44266.55
574.03	44020.80
574.20	44318.04
574.36	43976.33
574.52	44559.12
574.68	43997.39
574.84	44428.05
575.01	44458.48
575.17	44519.33
575.33	43906.11
575.49	44519.33
575.65	44210.38
575.82	44273.57
575.98	43924.83
576.14	44369.54
576.30	44591.89
576.46	44264.21
576.62	44158.89
576.79	44112.08
576.95	43873.34
577.11	44254.85
577.27	44175.27
577.43	43753.97
577.59	44582.52
577.75	44254.85
577.92	43737.59
578.08	43597.16
578.24	44215.06
578.40	44095.69
578.56	44177.61
578.72	44179.95
578.88	44500.61
579.04	44582.52
579.21	44467.84
579.37	44446.77
579.53	44432.73
579.69	44308.68
579.85	44648.06
580.01	44376.56
580.17	44325.07
580.33	44664.44
580.49	44250.17
580.65	44619.97
580.82	44821.26
580.98	44046.54
581.14	44414.01
581.30	44861.05
581.46	44421.03
581.62	44521.67
581.78	44343.79
581.94	44528.69
582.10	44095.69
582.26	44734.66
582.42	43901.43
582.58	44212.72
582.74	44163.57
582.90	44617.63
583.06	44493.58
583.22	44701.89
583.38	44964.03
583.54	44486.56
583.70	45223.83
583.86	44481.88
584.02	43871.00
584.18	43957.60
584.34	44371.88
584.50	44584.86
584.66	43966.96
584.82	44430.39
584.98	45057.65
585.14	44992.12
585.30	44334.43
585.46	44711.25
585.62	44385.92
585.78	44376.56
585.94	44069.95
586.10	44203.36
586.26	44451.45
586.42	44479.54
586.58	44278.25
586.74	44495.92
586.90	44088.67
587.06	44102.71
587.22	44758.06
587.38	44383.58
587.54	44692.53
587.70	44680.83
587.86	44877.43
588.02	44449.11
588.18	44390.60
588.34	44231.44
588.49	44528.69
588.65	44041.86
588.81	44381.24
588.97	44811.90
589.13	43927.17
589.29	44486.56
589.45	44374.22
589.61	44559.12
589.77	44601.25
589.93	44493.58
590.08	44678.49
590.24	44854.03
590.40	45015.52
590.56	44697.21
590.72	45020.20
590.88	44439.75
591.04	44615.29
591.20	44737.00
591.35	44945.31
591.51	44816.58
591.67	44856.37
591.83	44772.11
591.99	44849.35
592.15	44659.76
592.31	44809.56
592.46	44734.66
592.62	45008.50
592.78	44891.48
592.94	45158.30
593.10	44428.05
593.26	44975.73
593.41	44959.35
593.57	44926.58
593.73	44552.10
593.89	44795.51
594.05	44788.49
594.20	44783.81
594.36	45319.79
594.52	44624.65
594.68	44528.69
594.84	44493.58
594.99	45242.56
595.15	44746.36
595.31	45179.36
595.47	44683.17
595.62	45174.68
595.78	45111.49
595.94	45064.67
596.10	45254.26
596.25	44807.22
596.41	45247.24
596.57	44811.90
596.73	45216.81
596.88	44692.53
597.04	44924.24
597.20	44928.92
597.36	44849.35
597.51	45050.63
597.67	45394.69
597.83	45076.38
597.99	45382.99
598.14	45130.21
598.30	45055.31
598.46	44458.48
598.61	44734.66
598.77	44626.99
598.93	44755.72
599.09	45165.32
599.24	45366.60
599.40	45195.74
599.56	45415.76
599.71	44767.43
599.87	45207.45
600.03	45165.32
600.18	44839.98
600.34	44947.65
600.50	44832.96
600.65	44935.95
600.81	44636.36
600.97	45340.86
601.12	45062.33
601.28	45097.44
601.44	44636.36
601.59	45071.70
601.75	44526.35
601.91	44989.78
602.06	44542.74
602.22	44783.81
602.37	44582.52
602.53	45127.87
602.69	44896.16
602.84	44701.89
603.00	45095.10
603.16	44865.73
603.31	45184.04
603.47	44868.07
603.62	44863.39
603.78	45174.68
603.94	45001.48
604.09	44973.39
604.25	44732.32
604.40	44959.35
604.56	44971.05
604.71	45045.95
604.87	44629.34
605.03	44748.70
605.18	44987.44
605.34	44671.46
605.49	44362.51
605.65	44498.26
605.80	44659.76
605.96	44814.24
606.12	44739.34
606.27	44849.35
606.43	44531.03
606.58	44676.15
606.74	44765.09
606.89	44769.77
607.05	44851.69
607.20	44676.15
607.36	44725.30
607.51	44847.00
607.67	44601.25
607.82	44531.03
607.98	44910.20
608.13	44643.38
608.29	44615.29
608.44	44177.61
608.60	44444.43
608.75	44519.33
608.91	44254.85
609.06	43978.67
609.22	44409.32
609.37	44669.12
609.53	44528.69
609.68	44238.47
609.84	44362.51
609.99	44524.01
610.15	44133.14
610.30	44273.57
610.46	44243.15
610.61	43938.88
610.76	44311.02
610.92	44308.68
611.07	44463.16
611.23	44704.23
611.38	44648.06
611.54	44416.35
611.69	44147.18
611.84	44058.24
612.00	44458.48
612.15	44093.35
612.31	43871.00
612.46	44135.48
612.62	44306.34
612.77	43950.58
612.92	44194.00
613.08	44128.46
613.23	44250.17
613.39	43983.35
613.54	44023.14
613.69	44091.01
613.85	43716.53
614.00	44133.14
614.15	44411.67
614.31	44041.86
614.46	43842.92
614.62	44091.01
614.77	43775.04
614.92	43962.28
615.08	43494.18
615.23	43627.59
615.38	43866.32
615.54	43608.86
615.69	43976.33
615.84	43452.05
616.00	43510.56
616.15	44027.82
616.30	43936.54
616.46	43363.11
616.61	43590.14
616.76	43225.01
616.92	42997.98
617.07	43393.53
617.22	43058.84
617.37	43337.36
617.53	43360.76
617.68	43742.27
617.83	43634.61
617.99	43264.80
618.14	43379.49
618.29	43339.70
618.45	43477.79
618.60	43175.86
618.75	43782.06
618.90	43435.66
619.06	43276.51
619.21	43189.91
619.36	43456.73
619.51	43360.76
619.67	43295.23
619.82	43243.74
619.97	42965.21
620.12	43203.95
620.28	42660.94
620.43	42703.07
620.58	43058.84
620.73	42770.95
620.89	42370.72
621.04	42962.87
621.19	42897.34
621.34	43033.09
621.49	42815.42
621.65	42616.47
621.80	43030.75
621.95	42780.31
622.10	42497.11
622.25	42328.59
622.41	42572.00
622.56	42464.34
622.71	42476.04
622.86	42396.46
623.01	42403.49
623.16	42787.33
623.32	42897.34
623.47	42164.75
623.62	42462.00
623.77	42190.50
623.92	42459.66
624.07	42469.02
624.23	42185.82
624.38	42202.20
624.53	42415.19
624.68	42157.73
624.83	42373.06
624.98	42506.47
625.13	42307.52
625.29	42539.24
625.44	42291.14
625.59	42202.20
625.74	41584.30
625.89	41706.01
626.04	41750.48
626.19	41872.18
626.34	42043.04
626.49	42021.98
626.65	42452.64
626.80	42204.54
626.95	42073.47
627.10	42019.64
627.25	41890.91
627.40	41818.35
627.55	41516.42
627.70	41165.34
627.85	41771.54
628.00	41368.97
628.15	41598.34
628.30	41158.32
628.45	41361.95
628.60	41502.38
628.76	41755.16
628.91	41731.75
629.06	41233.22
629.21	41507.06
629.36	40973.42
629.51	41151.30
629.66	41411.10
629.81	41027.25
629.96	41617.07
630.11	41053.00
630.26	41464.93
630.41	41799.63
630.56	41153.64
630.71	41280.03
630.86	40926.61
631.01	40849.37
631.16	41076.40
631.31	41226.20
631.46	40673.83
631.61	40980.44
631.76	40926.61
631.91	41165.34
632.06	41450.89
632.21	41399.40
632.36	41113.85
632.51	40669.15
632.66	41212.15
632.81	40615.32
632.96	40465.52
633.10	40652.76
633.25	41076.40
633.40	40678.51
633.55	41022.57
633.70	40636.38
633.85	40722.98
634.00	40048.91
634.15	40814.26
634.30	40715.96
634.45	40854.05
634.60	40650.42
634.75	40521.69
634.90	40179.98
635.05	40282.96
635.19	40297.00
635.34	40584.89
635.49	40364.88
635.64	40006.78
635.79	39913.16
635.94	40418.71
636.09	40226.79
636.24	40048.91
636.39	40046.57
636.53	40062.95
636.68	40231.47
636.83	40297.00
636.98	40526.38
637.13	39974.01
637.28	40177.64
637.43	40268.92
637.57	40643.40
637.72	39938.90
637.87	40105.08
638.02	40100.40
638.17	39971.67
638.32	39840.60
638.46	39515.26
638.61	39754.00
638.76	40034.86
638.91	40032.52
639.06	39651.02
639.20	39894.43
639.35	39955.29
639.50	40081.67
639.65	40161.25
639.80	40116.78
639.94	39945.92
640.09	39632.29
640.24	39475.48
640.39	39426.32
640.54	40030.18
640.68	39658.04
640.83	39754.00
640.98	39800.81
641.13	39405.26
641.27	39871.03
641.42	39597.18
641.57	38951.20
641.72	39796.13
641.86	38866.94
642.01	39182.91
642.16	39009.71
642.31	39166.52
642.45	39061.20
642.60	38782.68
642.75	39550.37
642.90	38895.02
643.04	38883.32
643.19	38845.87
643.34	39161.84
643.48	39203.97
643.63	38981.62
643.78	38529.90
643.93	38525.22
644.07	38651.61
644.22	38909.07
644.37	38497.13
644.51	38995.67
644.66	39000.35
644.81	38878.64
644.95	38508.83
645.10	39178.23
645.25	39173.55
645.39	38780.34
645.54	38827.15
645.69	39009.71
645.83	38888.00
645.98	38986.30
646.13	39021.41
646.27	38600.12
646.42	38335.63
646.57	38464.36
646.71	38618.84
646.86	38738.21
647.00	38761.61
647.15	38972.26
647.30	38511.17
647.44	38436.28
647.59	38209.25
647.74	38352.02
647.88	38567.35
648.03	38176.48
648.17	38307.55
648.32	38408.19
648.47	38249.03
648.61	37612.41
648.76	38305.21
648.90	38139.03
649.05	38237.33
649.20	38045.41
649.34	38242.01
649.49	37897.95
649.63	37638.15
649.78	37961.15
649.92	37975.19
650.07	38410.53
650.21	37563.26
650.36	37947.11
650.51	38012.64
650.65	38625.86
650.80	38349.68
650.94	38188.18
651.09	37977.53
651.23	37661.56
651.38	38078.18
651.52	37464.96
651.67	37652.20
651.81	37574.96
651.96	37715.39
652.10	37539.85
652.25	37406.44
652.39	37495.38
652.54	37823.06
652.68	37591.34
652.83	37874.55
652.97	37713.05
653.12	37593.68
653.26	37469.64
653.41	37404.10
653.55	37434.53
653.70	37027.28
653.84	37462.61
653.99	37404.10
654.13	37291.76
654.27	37017.91
654.42	37357.29
654.56	37006.21
654.71	37247.29
654.85	37514.11
655.00	37811.35
655.14	37085.79
655.29	36519.38
655.43	36788.54
655.57	37090.47
655.72	36264.26
655.86	36629.38
656.01	36690.24
656.15	36673.85
656.30	36627.04
656.44	36950.04
656.58	36503.00
656.73	36334.48
656.87	36662.15
657.01	36795.56
657.16	36528.74
657.30	36205.75
657.45	36149.57
657.59	36627.04
657.73	36325.11
657.88	36346.18
658.02	36517.04
658.16	36596.62
658.31	36598.96
658.45	36673.85
658.60	36189.36
658.74	36311.07
658.88	36299.37
659.03	36180.00
659.17	36313.41
659.31	36095.74
659.46	35950.63
659.60	36093.40
659.74	36177.66
659.89	35971.69
660.03	36067.66
660.17	35681.47
660.32	35765.73
660.46	36603.64
660.60	35929.56
660.74	35791.47
660.89	35690.83
661.03	35707.21
661.17	35622.95
661.32	35182.93
661.46	35459.12
661.60	35894.46
661.74	35393.58
661.89	35323.36
662.03	35061.22
662.17	35431.03
662.31	35180.59
662.46	34988.67
662.60	35634.66
662.74	35145.48
662.88	35063.57
663.03	34426.94
663.17	34672.70
663.31	34934.84
663.45	34574.39
663.60	34806.11
663.74	34834.19
663.88	34707.80
664.02	34916.11
664.17	34991.01
664.31	34838.87
664.45	34569.71
664.59	34771.00
664.73	34518.22
664.88	34499.50
665.02	34274.80
665.16	34389.49
665.30	34562.69
665.44	34197.57
665.59	34239.70
665.73	33785.63
665.87	34223.31
666.01	34190.55
666.15	33680.31
666.29	33708.40
666.44	34342.68
666.58	34057.14
666.72	33783.29
666.86	34178.84
667.00	33839.47
667.14	33776.27
667.28	33329.23
667.43	33179.43
667.57	33338.59
667.71	33556.26
667.85	33532.86
667.99	33371.36
668.13	33174.75
668.27	33486.04
668.41	33181.77
668.56	33013.26
668.70	32765.16
668.84	33024.96
668.98	32863.46
669.12	32811.97
669.26	33294.12
669.40	32149.60
669.54	32769.84
669.68	32826.01
669.82	32308.76
669.96	32350.88
670.10	32449.19
670.25	32591.96
670.39	32348.54
670.53	31981.08
670.67	31625.32
670.81	32142.58
670.95	32311.10
671.09	32130.87
671.23	32065.34
671.37	32222.16
671.51	31964.70
671.65	31709.58
671.79	31658.09
671.93	31758.73
672.07	31541.06
672.21	31543.40
672.35	31819.58
672.49	31793.84
672.63	31494.25
672.77	31477.86
672.91	31243.81
673.05	31201.68
673.19	31475.52
673.33	31185.30
673.47	30974.65
673.61	31356.16
673.75	30651.66
673.89	30728.89
674.03	30974.65
674.17	30948.90
674.31	31014.44
674.45	30686.76
674.59	30787.41
674.73	30749.96
674.87	30731.23
675.01	30382.49
675.15	30639.95
675.29	30342.70
675.43	30539.31
675.56	29935.45
675.70	29790.34
675.84	30103.97
675.98	29142.01
676.12	29773.95
676.26	29670.97
676.40	29549.26
676.54	30064.18
676.68	29830.13
676.82	29158.39
676.96	29612.46
677.10	30073.54
677.23	29207.55
677.37	29039.03
677.51	29230.95
677.65	28697.31
677.79	28704.33
677.93	28858.81
678.07	28554.54
678.21	28215.16
678.34	27676.83
678.48	27978.76
678.62	28257.29
678.76	28095.79
678.90	27878.12
679.04	27627.68
679.18	27927.27
679.31	27433.42
679.45	27625.34
679.59	27215.75
679.73	27468.53
679.87	27501.29
680.00	27175.96
680.14	26991.06
680.28	27232.13
680.42	27278.94
680.56	27182.98
680.70	27108.08
680.83	27028.51
680.97	27309.37
681.11	26682.11
681.25	26806.16
681.39	26513.59
681.52	26883.39
681.66	26735.94
681.80	26359.11
681.94	26789.77
682.07	26230.38
682.21	26281.88
682.35	26366.13
682.49	25792.70
682.62	25975.27
682.76	25764.62
682.90	25907.39
683.04	25596.10
683.17	25348.00
683.31	25069.48
683.45	25586.74
683.59	25230.98
683.72	25144.38
683.86	24676.27
684.00	24514.77
684.13	25219.27
684.27	24929.05
684.41	24699.67
684.55	24779.25
684.68	24730.10
684.82	24671.59
684.96	24643.50
685.09	24716.06
685.23	24599.03
685.37	24596.69
685.50	24411.79
685.64	24430.51
685.78	24053.69
685.91	23770.48
686.05	23742.39
686.19	23501.32
686.32	23608.98
686.46	23421.74
686.60	23168.96
686.73	23309.40
686.87	22963.00
687.01	22937.25
687.14	23084.70
687.28	22845.97
687.42	22890.44
687.55	23005.13
687.69	22782.77
687.82	22602.55
687.96	22588.51
688.10	22738.30
688.23	22324.03
688.37	22347.44
688.50	22068.91
688.64	22403.61
688.78	22232.75
688.91	21977.63
689.05	22155.51
689.18	22164.87
689.32	21593.78
689.46	21692.08
689.59	21668.68
689.73	21766.98
689.86	21633.57
690.00	21448.67
690.13	21628.89
690.27	21455.69
690.41	21109.29
690.54	21022.69
690.68	21174.83
690.81	20898.64
690.95	20688.00
691.08	20823.75
691.22	20924.39
691.35	21006.31
691.49	21032.05
691.62	20933.75
691.76	20570.97
691.89	20376.70
692.03	20327.55
692.16	20259.68
692.30	20116.90
692.43	19946.05
692.57	19697.95
692.70	19857.10
692.84	19796.25
692.97	19597.31
693.11	19506.02
693.24	19578.58
693.38	19225.16
693.51	19098.77
693.65	19346.87
693.78	19763.48
693.92	19541.13
694.05	19300.06
694.19	19264.95
694.32	19005.15
694.45	18728.97
694.59	18810.89
694.72	18607.26
694.86	18677.48
694.99	18363.84
695.13	18794.50
695.26	18352.14
695.39	18080.64
695.53	18754.71
695.66	18279.58
695.80	18506.62
695.93	18185.96
696.07	18075.96
696.20	17958.93
696.33	17869.99
696.47	17626.57
696.60	17846.58
696.73	17425.29
696.87	17577.42
697.00	17294.22
697.14	17341.03
697.27	17348.05
697.40	17301.24
697.54	17324.65
697.67	17064.85
697.80	17102.29
697.94	16987.61
698.07	16776.96
698.21	16697.38
698.34	16800.37
698.47	16830.79
698.61	16554.61
698.74	16475.03
698.87	16432.90
699.01	16009.26
699.14	16173.10
699.27	16063.10
699.40	16063.10
699.54	15758.83
699.67	15850.11
699.80	16051.39
699.94	15920.32
700.07	15789.25
700.20	15793.94
700.34	15674.57
700.47	15716.70
700.60	15871.17
700.73	15875.85
700.87	15829.04
701.00	15323.49
701.13	15548.18
701.26	15279.02
701.40	15218.16
701.53	14988.79
701.66	14991.13
701.79	14930.28
701.93	15140.93
702.06	14476.21
702.19	14799.21
702.32	14874.10
702.46	14656.43
702.59	14541.75
702.72	14544.09
702.85	14635.37
702.99	14693.88
703.12	14324.08
703.25	14370.89
703.38	14068.96
703.51	13982.36
703.65	14064.28
703.78	14057.26
703.91	14050.24
704.04	14090.02
704.17	14033.85
704.31	13919.17
704.44	13902.78
704.57	13689.79
704.70	13460.42
704.83	13797.46
704.96	13509.57
705.10	13528.30
705.23	13275.52
>>>>>End Processed Spectral Data<<<<<
