SpectraSuite Data File
++++++++++++++++++++++++++++++++++++
Date: Fri Oct 25 10:44:19 EDT 2013
User: price-jones
Dark Spectrum Present: No
Reference Spectrum Present: No
Number of Sampled Component Spectra: 1
Spectrometers: USB2+H05261
Integration Time (usec): 100000 (USB2+H05261)
Spectra Averaged: 1 (USB2+H05261)
Boxcar Smoothing: 0 (USB2+H05261)
Correct for Electrical Dark: No (USB2+H05261)
Strobe/Lamp Enabled: No (USB2+H05261)
Correct for Detector Non-linearity: No (USB2+H05261)
Correct for Stray Light: No (USB2+H05261)
Number of Pixels in Processed Spectrum: 2048
>>>>>Begin Processed Spectral Data<<<<<
365.73	168.52
365.92	168.52
366.12	168.52
366.32	32.77
366.52	28.09
366.72	14.04
366.91	18.72
367.11	77.24
367.31	7.02
367.51	53.83
367.70	0.00
367.90	9.36
368.10	25.75
368.30	46.81
368.49	79.58
368.69	98.30
368.89	42.13
369.09	32.77
369.28	93.62
369.48	72.56
369.68	32.77
369.87	79.58
370.07	98.30
370.27	133.41
370.47	184.90
370.66	351.08
370.86	388.53
371.06	456.40
371.25	503.22
371.45	489.17
371.65	514.92
371.84	421.30
372.04	472.79
372.24	514.92
372.44	575.77
372.63	489.17
372.83	568.75
373.03	477.47
373.22	503.22
373.42	503.22
373.62	540.66
373.81	561.73
374.01	559.39
374.21	606.20
374.40	603.86
374.60	594.50
374.79	524.28
374.99	540.66
375.19	620.24
375.38	554.71
375.58	615.56
375.78	578.11
375.97	631.94
376.17	603.86
376.37	592.16
376.56	613.22
376.76	617.90
376.95	711.52
377.15	664.71
377.35	683.44
377.54	692.80
377.74	599.18
377.93	629.60
378.13	638.97
378.33	662.37
378.52	723.23
378.72	681.10
378.91	688.12
379.11	660.03
379.31	601.52
379.50	662.37
379.70	688.12
379.89	629.60
380.09	685.78
380.28	636.63
380.48	718.54
380.68	723.23
380.87	678.76
381.07	800.46
381.26	727.91
381.46	746.63
381.65	692.80
381.85	777.06
382.04	699.82
382.24	767.70
382.43	716.20
382.63	685.78
382.83	702.16
383.02	727.91
383.22	753.65
383.41	781.74
383.61	725.57
383.80	807.48
384.00	760.67
384.19	697.48
384.39	795.78
384.58	875.36
384.78	915.15
384.97	823.87
385.17	840.25
385.36	821.53
385.56	758.33
385.75	809.83
385.95	837.91
386.14	823.87
386.34	826.21
386.53	866.00
386.72	908.13
386.92	968.98
387.11	898.77
387.31	856.64
387.50	926.85
387.70	929.19
387.89	903.45
388.09	926.85
388.28	919.83
388.48	940.90
388.67	990.05
388.86	1022.81
389.06	987.71
389.25	947.92
389.45	943.24
389.64	966.64
389.84	1027.50
390.03	957.28
390.22	1053.24
390.42	1078.99
390.61	994.73
390.81	1107.07
391.00	1048.56
391.19	1069.62
391.39	1125.80
391.58	1057.92
391.78	1048.56
391.97	1153.88
392.16	1053.24
392.36	1139.84
392.55	1097.71
392.75	1034.52
392.94	1078.99
393.13	1071.97
393.33	978.34
393.52	1029.84
393.71	1130.48
393.91	1116.44
394.10	1137.50
394.29	1235.80
394.49	1245.16
394.68	1151.54
394.88	1245.16
395.07	1280.27
395.26	1299.00
395.46	1301.34
395.65	1270.91
395.84	1158.57
396.04	1359.85
396.23	1181.97
396.42	1235.80
396.62	1196.01
396.81	1196.01
397.00	1277.93
397.19	1205.38
397.39	1308.36
397.58	1387.94
397.77	1338.79
397.97	1465.18
398.16	1458.15
398.35	1462.83
398.55	1401.98
398.74	1490.92
398.93	1537.73
399.12	1526.03
399.32	1582.20
399.51	1570.50
399.70	1767.10
399.90	1657.10
400.09	1603.27
400.28	1699.23
400.47	1715.61
400.67	1830.30
400.86	1694.55
401.05	1710.93
401.24	1682.85
401.44	1732.00
401.63	1811.57
401.82	1636.03
402.01	1806.89
402.21	1769.44
402.40	1865.41
402.59	1851.36
402.78	1921.58
402.97	1778.81
403.17	1846.68
403.36	1874.77
403.55	1856.04
403.74	2022.22
403.93	1860.73
404.13	1909.88
404.32	2022.22
404.51	1879.45
404.70	2078.40
404.89	1930.94
405.09	2066.69
405.28	1966.05
405.47	1977.75
405.66	2040.95
405.85	1961.37
406.05	2146.27
406.24	1984.77
406.43	2108.82
406.62	2146.27
406.81	2183.72
407.00	2052.65
407.20	1970.73
407.39	2188.40
407.58	2197.76
407.77	2157.97
407.96	2099.46
408.15	2352.24
408.34	2202.44
408.54	2331.17
408.73	2441.18
408.92	2258.62
409.11	2495.01
409.30	2471.61
409.49	2326.49
409.68	2293.72
409.87	2345.22
410.07	2333.51
410.26	2429.48
410.45	2490.33
410.64	2457.56
410.83	2518.42
411.02	2574.59
411.21	2663.53
411.40	2677.57
411.59	2649.49
411.78	2780.56
411.98	2658.85
412.17	2698.64
412.36	2731.41
412.55	2766.51
412.74	2885.88
412.93	2878.86
413.12	2843.75
413.31	2916.31
413.50	2836.73
413.69	2916.31
413.88	2860.13
414.07	3023.97
414.26	3007.59
414.45	2995.89
414.64	3066.10
414.83	3056.74
415.02	3148.02
415.22	3213.56
415.41	3318.88
415.60	3321.22
415.79	3314.20
415.98	3454.63
416.17	3365.69
416.36	3468.67
416.55	3349.31
416.74	3311.86
416.93	3311.86
417.12	3468.67
417.31	3468.67
417.50	3382.07
417.69	3510.80
417.88	3431.23
418.07	3620.81
418.26	3424.20
418.45	3644.21
418.64	3742.52
418.83	3716.77
419.02	3651.24
419.21	3676.98
419.39	3644.21
419.58	3655.92
419.77	3794.01
419.96	3705.07
420.15	3779.97
420.34	3801.03
420.53	3920.40
420.72	3932.10
420.91	3922.74
421.10	4049.13
421.29	3880.61
421.48	3913.38
421.67	4014.02
421.86	4121.68
422.05	3962.53
422.24	3978.91
422.43	3911.04
422.61	3995.29
422.80	3981.25
422.99	4037.42
423.18	4152.11
423.37	4095.94
423.56	4046.79
423.75	3943.80
423.94	4021.04
424.13	3911.04
424.32	3934.44
424.50	4030.40
424.69	4042.11
424.88	4067.85
425.07	4046.79
425.26	3934.44
425.45	4002.32
425.64	4049.13
425.83	3974.23
426.01	4145.09
426.20	4009.34
426.39	4161.47
426.58	4077.21
426.77	4032.74
426.96	4042.11
427.15	4196.58
427.33	4117.00
427.52	4238.71
427.71	4285.52
427.90	4182.54
428.09	4208.28
428.28	4334.67
428.46	4189.56
428.65	4252.75
428.84	4404.89
429.03	4360.42
429.22	4145.09
429.40	4332.33
429.59	4428.29
429.78	4037.42
429.97	4021.04
430.16	4032.74
430.34	4262.12
430.53	4238.71
430.72	4194.24
430.91	4367.44
431.10	4507.87
431.28	4648.30
431.47	4772.35
431.66	4905.76
431.85	4587.45
432.03	4737.24
432.22	4784.06
432.41	4765.33
432.60	4912.78
432.79	4856.61
432.97	4938.53
433.16	4983.00
433.35	4802.78
433.54	4631.92
433.72	4917.47
433.91	4840.23
434.10	4898.74
434.28	4837.89
434.47	4999.38
434.66	5078.96
434.85	5238.12
435.03	5006.41
435.22	5060.24
435.41	5280.25
435.59	5179.61
435.78	5205.35
435.97	5247.48
436.16	5249.82
436.34	5273.23
436.53	5303.65
436.72	5359.83
436.90	5261.52
437.09	5465.15
437.28	5291.95
437.46	5296.63
437.65	5275.57
437.84	5282.59
438.02	5444.09
438.21	5385.57
438.40	5359.83
438.58	5441.75
438.77	5621.97
438.96	5462.81
439.14	5654.73
439.33	5781.12
439.52	5729.63
439.70	5781.12
439.89	5685.16
440.08	5837.30
440.26	5790.49
440.45	5884.11
440.63	5856.02
440.82	6164.97
441.01	5947.30
441.19	6101.78
441.38	6296.04
441.57	6356.90
441.75	6406.05
441.94	6478.60
442.12	6375.62
442.31	6586.27
442.50	6487.96
442.68	6431.79
442.87	6518.39
443.05	6560.52
443.24	6691.59
443.43	6588.61
443.61	6623.72
443.80	6825.00
443.98	6485.62
444.17	6380.30
444.35	6726.70
444.54	6820.32
444.73	6340.51
444.91	6729.04
445.10	6565.20
445.28	6609.67
445.47	6548.82
445.65	6494.99
445.84	6656.48
446.02	6679.89
446.21	6663.51
446.39	6619.04
446.58	7016.93
446.77	6883.52
446.95	6780.53
447.14	6787.55
447.32	6885.86
447.51	6827.34
447.69	6951.39
447.88	6949.05
448.06	6890.54
448.25	6876.49
448.43	7131.61
448.62	7037.99
448.80	7000.54
448.99	7073.10
449.17	6977.14
449.36	7070.76
449.54	7143.32
449.73	7211.19
449.91	7286.09
450.10	7344.60
450.28	7452.27
450.46	7620.78
450.65	7435.88
450.83	7360.98
451.02	7150.34
451.20	7337.58
451.39	7396.09
451.57	7204.17
451.76	7398.43
451.94	7634.83
452.13	7569.29
452.31	7323.54
452.49	7253.32
452.68	7356.30
452.86	7440.56
453.05	7487.37
453.23	7616.10
453.42	7506.10
453.60	7421.84
453.78	7487.37
453.97	7485.03
454.15	7721.43
454.34	7480.35
454.52	7691.00
454.70	7651.21
454.89	7864.20
455.07	7864.20
455.26	7995.27
455.44	7908.67
455.62	7894.63
455.81	7927.39
455.99	8013.99
456.17	8067.83
456.36	8100.59
456.54	7941.44
456.73	8201.24
456.91	8409.54
457.09	8278.47
457.28	8418.91
457.46	8454.02
457.64	8365.07
457.83	8245.71
458.01	8283.16
458.19	8496.14
458.38	8411.89
458.56	8418.91
458.74	8472.74
458.93	8519.55
459.11	8587.43
459.29	8524.23
459.48	8664.66
459.66	8512.53
459.84	8564.02
460.03	8842.54
460.21	8758.28
460.39	8657.64
460.57	8774.67
460.76	8959.57
460.94	8938.51
461.12	8929.14
461.31	8903.40
461.49	9041.49
461.67	8805.10
461.85	9184.26
462.04	9064.89
462.22	8870.63
462.40	9174.90
462.59	9074.26
462.77	9249.80
462.95	9252.14
463.13	9055.53
463.32	9142.13
463.50	9322.35
463.68	9415.98
463.86	9259.16
464.05	9048.51
464.23	9057.87
464.41	9397.25
464.59	9104.68
464.78	9476.83
464.96	9338.74
465.14	9235.75
465.32	9638.33
465.50	9561.09
465.69	9593.86
465.87	9451.08
466.05	9434.70
466.23	9371.50
466.41	9542.36
466.60	9741.31
466.78	9329.38
466.96	9689.82
467.14	9495.55
467.32	9696.84
467.51	9757.69
467.69	9378.53
467.87	9633.64
468.05	9848.97
468.23	9628.96
468.41	9525.98
468.60	9671.09
468.78	9727.27
468.96	9626.62
469.14	10024.51
469.32	9907.49
469.50	9940.26
469.69	9970.68
469.87	10024.51
470.05	10118.14
470.23	9956.64
470.41	10249.21
470.59	10373.25
470.77	10092.39
470.95	10413.04
471.14	10473.90
471.32	10284.31
471.50	10527.73
471.68	10494.96
471.86	10633.05
472.04	10724.33
472.22	10846.04
472.40	10485.60
472.58	10717.31
472.77	10904.56
472.95	10839.02
473.13	11162.01
473.31	10813.28
473.49	10958.39
473.67	10862.43
473.85	10913.92
474.03	11215.85
474.21	11150.31
474.39	11370.32
474.57	11424.15
474.75	11346.92
474.93	11360.96
475.12	11506.07
475.30	11534.16
475.48	11403.09
475.66	11372.66
475.84	11506.07
476.02	11644.17
476.20	11845.45
476.38	11932.05
476.56	12241.00
476.74	12411.86
476.92	12320.58
477.10	12060.78
477.28	12367.39
477.46	12528.89
477.64	12517.18
477.82	12760.60
478.00	13006.36
478.18	12945.50
478.36	12908.05
478.54	12772.30
478.72	12966.57
478.90	13324.67
479.08	13420.63
479.26	13352.76
479.44	13547.02
479.62	13439.36
479.80	13788.10
479.98	13703.84
480.16	14038.53
480.34	13867.67
480.52	14106.41
480.70	13961.30
480.88	13963.64
481.06	14139.18
481.24	14354.51
481.41	14869.42
481.59	14604.94
481.77	14965.39
481.95	14558.13
482.13	14972.41
482.31	14785.16
482.49	15192.42
482.67	15152.63
482.85	15426.47
483.03	15655.84
483.21	15449.88
483.39	15609.03
483.57	15747.12
483.74	16095.86
483.92	16006.92
484.10	16004.58
484.28	16465.67
484.46	16381.41
484.64	17022.72
484.82	16236.30
485.00	16336.94
485.18	16720.79
485.35	16812.07
485.53	16374.39
485.71	16444.60
485.89	16746.53
486.07	16957.18
486.25	17167.83
486.43	17076.55
486.61	17586.79
486.78	17642.96
486.96	17839.56
487.14	18253.84
487.32	18300.65
487.50	18462.15
487.68	18750.03
487.85	19143.24
488.03	18663.43
488.21	19229.84
488.39	18904.51
488.57	18998.13
488.75	19115.16
488.92	19630.07
489.10	19803.27
489.28	19892.21
489.46	20266.70
489.64	19889.87
489.81	20655.23
489.99	20662.25
490.17	20737.15
490.35	20877.58
490.53	20996.95
490.70	21003.97
490.88	21181.85
491.06	21469.73
491.24	21130.36
491.41	20882.26
491.59	21174.83
491.77	21268.45
491.95	21762.30
492.13	21689.74
492.30	21937.84
492.48	22340.41
492.66	22115.72
492.84	22452.76
493.01	22637.66
493.19	22478.50
493.37	22939.59
493.54	22717.24
493.72	23082.36
493.90	23204.07
494.08	23377.27
494.25	23559.83
494.43	23868.78
494.61	23625.37
494.79	24109.86
494.96	23728.35
495.14	24074.75
495.32	24507.75
495.49	24456.26
495.67	24556.90
495.85	24587.33
496.02	24840.11
496.20	25188.85
496.38	24854.15
496.55	25336.30
496.73	25591.42
496.91	25682.70
497.09	25621.84
497.26	25855.90
497.44	25415.88
497.62	25724.83
497.79	25734.19
497.97	25783.34
498.14	25720.15
498.32	26003.35
498.50	26160.17
498.67	26302.94
498.85	26705.51
499.03	26260.81
499.20	26991.06
499.38	26588.49
499.56	26906.80
499.73	27133.83
499.91	27412.35
500.08	27274.26
500.26	27035.53
500.44	27206.39
500.61	27534.06
500.79	27412.35
500.97	27552.79
501.14	27887.48
501.32	28084.09
501.49	27515.34
501.67	27754.07
501.84	28074.73
502.02	28180.05
502.20	28683.27
502.37	28687.95
502.55	28423.47
502.72	28615.39
502.90	28301.76
503.07	28591.98
503.25	28474.96
503.43	29015.62
503.60	28849.44
503.78	28577.94
503.95	28711.35
504.13	28961.79
504.30	29441.60
504.48	29254.36
504.65	29525.86
504.83	29963.54
505.01	29780.98
505.18	29790.34
505.36	29916.73
505.53	29902.68
505.71	30085.25
505.88	30768.68
506.06	29895.66
506.23	30637.61
506.41	30066.52
506.58	30314.62
506.76	30408.24
506.93	30843.58
507.11	30731.23
507.28	30668.04
507.46	30546.33
507.63	30602.50
507.81	30852.94
507.98	30806.13
508.16	30871.67
508.33	31255.51
508.50	31634.68
508.68	31749.37
508.85	31873.42
509.03	31864.05
509.20	31894.48
509.38	32177.68
509.55	31835.97
509.73	31901.50
509.90	32025.55
510.08	32048.96
510.25	32053.64
510.42	32121.51
510.60	32397.70
510.77	32697.28
510.95	32844.74
511.12	32711.33
511.30	33046.02
511.47	32893.89
511.64	33132.62
511.82	33500.09
511.99	32666.86
512.17	32947.72
512.34	33244.97
512.51	33296.46
512.69	33467.32
512.86	33308.16
513.04	33621.80
513.21	33565.62
513.38	33626.48
513.56	33553.92
513.73	33603.07
513.90	33954.15
514.08	33975.22
514.25	33668.61
514.43	34232.68
514.60	34047.77
514.77	34082.88
514.95	34277.15
515.12	34307.57
515.29	34157.78
515.47	34993.35
515.64	34892.71
515.81	34536.94
515.99	34719.51
516.16	34508.86
516.33	34513.54
516.51	34691.42
516.68	33656.90
516.85	33460.30
517.03	34242.04
517.20	34394.17
517.37	34761.64
517.54	35246.13
517.72	34925.47
517.89	34834.19
518.06	34473.75
518.24	34958.24
518.41	34976.97
518.58	35534.01
518.75	35117.40
518.93	35714.23
519.10	35075.27
519.27	35835.94
519.45	35505.93
519.62	35758.70
519.79	36243.20
519.96	36282.98
520.14	36697.26
520.31	36025.53
520.48	36378.95
520.65	35955.31
520.83	36907.91
521.00	36746.41
521.17	36833.01
521.34	36627.04
521.52	36474.91
521.69	37099.83
521.86	37137.28
522.03	36847.05
522.20	37020.25
522.38	37326.86
522.55	37015.57
522.72	36964.08
522.89	37053.02
523.07	37371.33
523.24	37338.57
523.41	37806.67
523.58	37514.11
523.75	38345.00
523.92	37865.19
524.10	38061.79
524.27	38120.31
524.44	38036.05
524.61	38169.46
524.78	38288.82
524.96	38415.21
525.13	38536.92
525.30	38398.83
525.47	38630.54
525.64	38663.31
525.81	38337.98
525.98	38541.60
526.16	38150.73
526.33	37977.53
526.50	38312.23
526.67	37869.87
526.84	38071.15
527.01	38277.12
527.18	38321.59
527.36	39044.82
527.53	39236.74
527.70	39285.89
527.87	39339.72
528.04	39042.48
528.21	39037.80
528.38	39522.29
528.55	39381.85
528.72	39456.75
528.89	39651.02
529.07	39632.29
529.24	39199.29
529.41	39648.68
529.58	39482.50
529.75	39473.13
529.92	39873.37
530.09	39849.96
530.26	39456.75
530.43	40046.57
530.60	39824.22
530.77	40048.91
530.94	40540.42
531.11	39817.19
531.28	40336.79
531.46	40367.22
531.63	40444.46
531.80	40407.01
531.97	39892.09
532.14	40016.14
532.31	40341.47
532.48	40275.94
532.65	40266.58
532.82	40697.24
532.99	40779.15
533.16	40884.48
533.33	40582.55
533.50	41139.60
533.67	41134.92
533.84	40933.63
534.01	41249.60
534.18	40629.36
534.35	41186.41
534.52	40643.40
534.69	41160.66
534.86	41422.80
535.03	41366.63
535.20	41221.52
535.37	41523.44
535.54	42099.22
535.71	41343.22
535.88	41717.71
536.05	41504.72
536.22	41441.53
536.38	41502.38
536.55	41425.14
536.72	41387.69
536.89	41212.15
537.06	41596.00
537.23	42192.84
537.40	41982.19
537.57	42115.60
537.74	41794.95
537.91	42171.77
538.08	42244.33
538.25	41354.93
538.42	41968.15
538.59	42066.45
538.75	41769.20
538.92	41738.77
539.09	41879.21
539.26	42115.60
539.43	42113.26
539.60	42143.69
539.77	42218.58
539.94	42602.43
540.11	41949.42
540.28	41926.02
540.44	41996.23
540.61	42253.69
540.78	42380.08
540.95	42223.26
541.12	42555.62
541.29	42471.36
541.46	42344.97
541.62	42454.98
541.79	42759.25
541.96	42246.67
542.13	42557.96
542.30	42497.11
542.47	42789.67
542.63	42464.34
542.80	43042.45
542.97	43320.98
543.14	43253.10
543.31	43040.11
543.48	43683.76
543.64	43761.00
543.81	43562.05
543.98	43889.73
544.15	43276.51
544.32	43894.41
544.48	44144.84
544.65	43423.96
544.82	43753.97
544.99	43761.00
545.16	43716.53
545.32	43576.09
545.49	43718.87
545.66	44069.95
545.83	44486.56
546.00	43999.73
546.16	44067.61
546.33	43714.19
546.50	43604.18
546.67	44088.67
546.83	43756.32
547.00	44081.65
547.17	43650.99
547.34	43999.73
547.50	44236.12
547.67	44280.60
547.84	43695.46
548.00	44325.07
548.17	44182.29
548.34	44479.54
548.51	44802.53
548.67	44491.24
548.84	44388.26
549.01	44446.77
549.18	44023.14
549.34	44809.56
549.51	44732.32
549.68	44994.46
549.84	44472.52
550.01	44563.80
550.18	44470.18
550.34	44737.00
550.51	44701.89
550.68	44987.44
550.84	44917.22
551.01	44797.85
551.18	45008.50
551.34	44856.37
551.51	44905.52
551.68	44835.30
551.84	45020.20
552.01	44760.40
552.18	44622.31
552.34	44973.39
552.51	45237.87
552.68	44772.11
552.84	45481.29
553.01	45336.18
553.18	44931.26
553.34	45734.07
553.51	45294.05
553.67	45195.74
553.84	45638.11
554.01	45918.97
554.17	45607.68
554.34	45769.18
554.51	45666.19
554.67	45738.75
554.84	45471.93
555.00	45366.60
555.17	45223.83
555.33	45621.72
555.50	45078.72
555.67	45516.40
555.83	45427.46
556.00	45446.18
556.16	46012.59
556.33	45703.64
556.50	45799.60
556.66	45937.69
556.83	45233.19
556.99	45352.56
557.16	46127.28
557.32	45488.31
557.49	45900.25
557.65	45366.60
557.82	45574.91
557.98	45771.52
558.15	45722.37
558.32	45668.53
558.48	45441.50
558.65	45647.47
558.81	45373.63
558.98	45710.66
559.14	45853.44
559.31	45778.54
559.47	45736.41
559.64	46014.93
559.80	46017.27
559.97	45895.56
560.13	45535.12
560.30	46319.20
560.46	46005.57
560.63	46480.70
560.79	46256.01
560.96	46426.87
561.12	46078.13
561.29	45755.13
561.45	46071.10
561.61	46138.98
561.78	45907.27
561.94	46150.68
562.11	46075.79
562.27	45823.01
562.44	46452.61
562.60	46546.23
562.77	46447.93
562.93	45975.14
563.10	46366.01
563.26	45717.68
563.42	46894.97
563.59	46064.08
563.75	45897.91
563.92	46337.93
564.08	46330.90
564.24	46625.81
564.41	46403.46
564.57	46686.67
564.74	46644.54
564.90	46174.09
565.07	46199.83
565.23	46485.38
565.39	46068.76
565.56	46586.02
565.72	46300.48
565.88	46366.01
566.05	46457.29
566.21	46323.88
566.38	46232.60
566.54	46696.03
566.70	46827.10
566.87	46948.81
567.03	46504.10
567.19	46703.05
567.36	46869.23
567.52	46663.26
567.68	46443.25
567.85	46405.80
568.01	46712.41
568.17	46143.66
568.34	46625.81
568.50	46497.08
568.66	46600.07
568.83	46333.24
568.99	46066.42
569.15	46403.46
569.32	46511.13
569.48	46066.42
569.64	46810.71
569.81	46745.18
569.97	46670.28
570.13	46307.50
570.30	46337.93
570.46	46124.94
570.62	46143.66
570.78	46347.29
570.95	46073.45
571.11	46850.50
571.27	46256.01
571.43	46377.72
571.60	46440.91
571.76	46408.14
571.92	46595.38
572.09	46274.73
572.25	46855.18
572.41	46581.34
572.57	46728.80
572.74	47058.81
572.90	46684.33
573.06	46681.98
573.22	46735.82
573.38	46672.62
573.55	46314.52
573.71	46955.83
573.87	46899.65
574.03	46887.95
574.20	46539.21
574.36	46658.58
574.52	46625.81
574.68	46803.69
574.84	46752.20
575.01	46443.25
575.17	46618.79
575.33	46686.67
575.49	46665.60
575.65	46326.22
575.82	47138.39
575.98	46574.32
576.14	46665.60
576.30	47079.88
576.46	46253.67
576.62	46373.03
576.79	46520.49
576.95	46309.84
577.11	47122.01
577.27	46541.55
577.43	46763.90
577.59	46539.21
577.75	46492.40
577.92	46038.34
578.08	46443.25
578.24	46281.75
578.40	46487.72
578.56	46719.43
578.72	46412.82
578.88	46892.63
579.04	46801.35
579.21	46808.37
579.37	46686.67
579.53	46571.98
579.69	46506.44
579.85	46600.07
580.01	47117.32
580.17	46295.80
580.33	46801.35
580.49	46689.01
580.65	47070.51
580.82	46721.77
580.98	47086.90
581.14	46660.92
581.30	46789.65
581.46	46951.15
581.62	47278.82
581.78	46476.02
581.94	46944.12
582.10	46934.76
582.26	47203.92
582.42	46766.24
582.58	46735.82
582.74	46677.30
582.90	46859.87
583.06	47182.86
583.22	47400.53
583.38	46995.62
583.54	46993.28
583.70	47117.32
583.86	46873.91
584.02	46801.35
584.18	46855.18
584.34	46611.77
584.50	46726.46
584.66	46768.58
584.82	46951.15
584.98	46686.67
585.14	47035.41
585.30	46623.47
585.46	46824.76
585.62	47072.85
585.78	46597.73
585.94	46731.14
586.10	46925.40
586.26	46756.88
586.42	47152.43
586.58	47224.99
586.74	46909.02
586.90	46417.50
587.06	47028.38
587.22	47009.66
587.38	46670.28
587.54	46934.76
587.70	47119.66
587.86	46909.02
588.02	47292.86
588.18	46773.27
588.34	46424.53
588.49	46419.84
588.65	46478.36
588.81	46789.65
588.97	46478.36
589.13	46045.36
589.29	46316.86
589.45	46859.87
589.61	47079.88
589.77	46567.30
589.93	46703.05
590.08	47070.51
590.24	47028.38
590.40	47629.90
590.56	46974.55
590.72	46939.44
590.88	46946.47
591.04	47033.07
591.20	47281.16
591.35	47021.36
591.51	47370.10
591.67	46995.62
591.83	47271.80
591.99	47246.05
592.15	47255.42
592.31	47070.51
592.46	46857.52
592.62	47159.45
592.78	46674.96
592.94	47393.51
593.10	46878.59
593.26	47278.82
593.41	46791.99
593.57	46787.31
593.73	46944.12
593.89	46962.85
594.05	47063.49
594.20	47145.41
594.36	46909.02
594.52	46951.15
594.68	46637.51
594.84	46401.12
594.99	47461.38
595.15	46752.20
595.31	47150.09
595.47	46885.61
595.62	47461.38
595.78	46944.12
595.94	47042.43
596.10	47234.35
596.25	47004.98
596.41	47129.03
596.57	46953.49
596.73	46899.65
596.88	47075.19
597.04	47168.82
597.20	47042.43
597.36	47402.87
597.51	47058.81
597.67	46972.21
597.83	46724.11
597.99	47033.07
598.14	47393.51
598.30	46951.15
598.46	46946.47
598.61	46857.52
598.77	46600.07
598.93	47232.01
599.09	47199.24
599.24	47061.15
599.40	47445.00
599.56	47299.89
599.71	47112.64
599.87	47381.80
600.03	46644.54
600.18	47086.90
600.34	47297.55
600.50	46932.42
600.65	46834.12
600.81	47442.66
600.97	47320.95
601.12	47129.03
601.28	47143.07
601.44	47047.11
601.59	46958.17
601.75	47229.67
601.91	47161.79
602.06	46850.50
602.22	47157.11
602.37	46972.21
602.53	47224.99
602.69	47281.16
602.84	46766.24
603.00	46871.57
603.16	46890.29
603.31	47587.77
603.47	46630.49
603.62	46801.35
603.78	47028.38
603.94	46703.05
604.09	47260.10
604.25	47040.09
604.40	46766.24
604.56	46871.57
604.71	47241.37
604.87	46457.29
605.03	46902.00
605.18	46431.55
605.34	47182.86
605.49	46808.37
605.65	46710.07
605.80	46841.14
605.96	47049.45
606.12	47117.32
606.27	47051.79
606.43	46864.55
606.58	46794.33
606.74	46848.16
606.89	46391.76
607.05	46665.60
607.20	47049.45
607.36	46560.28
607.51	46628.15
607.67	47089.24
607.82	46658.58
607.98	46719.43
608.13	46536.87
608.29	46550.91
608.44	46686.67
608.60	46398.78
608.75	46403.46
608.91	46775.61
609.06	46239.62
609.22	46373.03
609.37	46195.15
609.53	46658.58
609.68	46480.70
609.84	46499.42
609.99	46335.59
610.15	46398.78
610.30	46239.62
610.46	46321.54
610.61	45991.53
610.76	46539.21
610.92	46293.46
611.07	46419.84
611.23	46394.10
611.38	46120.26
611.54	46230.26
611.69	46054.72
611.84	45949.40
612.00	45949.40
612.15	46171.75
612.31	45844.07
612.46	45944.72
612.62	45783.22
612.77	45925.99
612.92	46153.02
613.08	45867.48
613.23	45696.62
613.39	45801.94
613.54	45563.21
613.69	45841.73
613.85	46354.31
614.00	46258.35
614.15	46146.00
614.31	46204.52
614.46	46061.74
614.62	45965.78
614.77	46078.13
614.92	45705.98
615.08	45860.46
615.23	45619.38
615.38	45687.26
615.54	45483.63
615.69	45378.31
615.84	45855.78
616.00	45603.00
616.15	45256.60
616.30	45359.58
616.46	45265.96
616.61	45478.95
616.76	45294.05
616.92	45052.97
617.07	45228.51
617.22	45247.24
617.37	44964.03
617.53	45111.49
617.68	45331.50
617.83	45799.60
617.99	45474.27
618.14	45382.99
618.29	45331.50
618.45	44975.73
618.60	44980.42
618.75	45083.40
618.90	44931.26
619.06	45174.68
619.21	45319.79
619.36	45450.86
619.51	45308.09
619.67	45507.04
619.82	44816.58
619.97	45092.76
620.12	44989.78
620.28	44638.70
620.43	44697.21
620.58	44830.62
620.73	45198.09
620.89	44910.20
621.04	44980.42
621.19	44992.12
621.34	45471.93
621.49	44488.90
621.65	44561.46
621.80	44842.32
621.95	44289.96
622.10	44222.08
622.25	44299.32
622.41	44231.44
622.56	44072.29
622.71	44591.89
622.86	44170.59
623.01	44208.04
623.16	44715.93
623.32	44023.14
623.47	44236.12
623.62	44292.30
623.77	44439.75
623.92	44280.60
624.07	44591.89
624.23	44128.46
624.38	44032.50
624.53	44114.42
624.68	44179.95
624.83	43856.96
624.98	44030.16
625.13	43856.96
625.29	43786.74
625.44	43917.81
625.59	43761.00
625.74	43676.74
625.89	43105.65
626.04	43660.35
626.19	43611.20
626.34	43875.68
626.49	43934.20
626.65	43997.39
626.80	43758.66
626.95	44123.78
627.10	43658.01
627.25	43751.63
627.40	42983.94
627.55	42955.85
627.70	42693.71
627.85	43098.62
628.00	43112.67
628.15	43416.94
628.30	42822.44
628.45	43206.29
628.60	42974.58
628.76	43232.04
628.91	43477.79
629.06	43072.88
629.21	42721.80
629.36	42780.31
629.51	43304.59
629.66	43140.75
629.81	42621.16
629.96	43028.41
630.11	43140.75
630.26	42548.60
630.41	43562.05
630.56	43058.84
630.71	42567.32
630.86	42967.55
631.01	42735.84
631.16	42848.19
631.31	42429.23
631.46	42426.89
631.61	42766.27
631.76	42508.81
631.91	42794.36
632.06	42457.32
632.21	42887.98
632.36	42754.57
632.51	42143.69
632.66	42658.60
632.81	42021.98
632.96	42197.52
633.10	42253.69
633.25	42277.10
633.40	42866.91
633.55	42815.42
633.70	42719.46
633.85	42103.90
634.00	42075.81
634.15	42618.81
634.30	42136.66
634.45	42230.29
634.60	42249.01
634.75	42120.28
634.90	41860.48
635.05	42131.98
635.19	41989.21
635.34	41982.19
635.49	41951.76
635.64	41923.68
635.79	41825.37
635.94	42359.02
636.09	42230.29
636.24	41872.18
636.39	41790.27
636.53	41909.63
636.68	41397.06
636.83	41684.94
636.98	41902.61
637.13	41544.51
637.28	41860.48
637.43	41827.71
637.57	42075.81
637.72	41874.52
637.87	41514.08
638.02	41371.31
638.17	42272.42
638.32	41277.69
638.46	41628.77
638.61	41794.95
638.76	41148.96
638.91	41361.95
639.06	41860.48
639.20	41544.51
639.35	41408.76
639.50	41593.66
639.65	41567.91
639.80	41502.38
639.94	41642.81
640.09	41457.91
640.24	41207.47
640.39	40460.84
640.54	41043.63
640.68	41045.97
640.83	41233.22
640.98	40940.65
641.13	40697.24
641.27	40971.08
641.42	40816.60
641.57	40802.56
641.72	40704.26
641.86	40910.22
642.01	40730.00
642.16	40540.42
642.31	40313.39
642.45	40690.21
642.60	40479.57
642.75	40638.72
642.90	40851.71
643.04	41036.61
643.19	40704.26
643.34	40474.88
643.48	40282.96
643.63	40486.59
643.78	40524.04
643.93	40210.40
644.07	40306.37
644.22	40086.36
644.37	40030.18
644.51	39793.79
644.66	40376.58
644.81	40467.86
644.95	40114.44
645.10	40594.25
645.25	40430.41
645.39	40285.30
645.54	40402.33
645.69	40390.62
645.83	40722.98
645.98	39817.19
646.13	40107.42
646.27	40107.42
646.42	39784.43
646.57	40144.87
646.71	40231.47
646.86	40102.74
647.00	40243.17
647.15	40399.99
647.30	39854.64
647.44	39800.81
647.59	39856.98
647.74	39707.19
647.88	40098.06
648.03	39969.33
648.17	39929.54
648.32	39730.59
648.47	39611.23
648.61	39604.20
648.76	39791.45
648.90	39643.99
649.05	39859.32
649.20	39590.16
649.34	39398.24
649.49	39077.58
649.63	39625.27
649.78	39456.75
649.92	38998.01
650.07	39510.58
650.21	38951.20
650.36	39328.02
650.51	39061.20
650.65	39309.30
650.80	39585.48
650.94	39548.03
651.09	39517.60
651.23	39100.99
651.38	39328.02
651.52	39159.50
651.67	39175.89
651.81	38801.40
651.96	39173.55
652.10	38866.94
652.25	38728.84
652.39	38747.57
652.54	38958.22
652.68	39222.70
652.83	39325.68
652.97	39278.87
653.12	38998.01
653.26	38548.62
653.41	38710.12
653.55	38508.83
653.70	38401.17
653.84	39196.95
653.99	38873.96
654.13	38450.32
654.27	38462.02
654.42	38359.04
654.56	38277.12
654.71	38359.04
654.85	38473.73
655.00	38572.03
655.14	38230.31
655.29	38031.36
655.43	38490.11
655.57	37902.64
655.72	38010.30
655.86	37858.17
656.01	37727.10
656.15	37390.06
656.30	37787.95
656.44	37783.27
656.58	38017.32
656.73	37816.04
656.87	38031.36
657.01	37902.64
657.16	38148.39
657.30	37827.74
657.45	37392.40
657.59	37771.57
657.73	37853.48
657.88	38450.32
658.02	38464.36
658.16	37947.11
658.31	37706.03
658.45	37794.97
658.60	37764.54
658.74	37666.24
658.88	37893.27
659.03	37516.45
659.17	37687.31
659.31	37453.25
659.46	37048.34
659.60	37879.23
659.74	37703.69
659.89	37368.99
660.03	37172.39
660.17	37146.64
660.32	37404.10
660.46	37392.40
660.60	37074.09
660.74	37137.28
660.89	36802.58
661.03	36720.66
661.17	36851.73
661.32	36704.28
661.46	36795.56
661.60	36400.01
661.74	36739.39
661.89	36383.63
662.03	36594.28
662.17	36119.15
662.31	36528.74
662.46	36587.25
662.60	36741.73
662.74	36472.57
662.88	36196.38
663.03	36285.33
663.17	36191.70
663.31	36039.57
663.45	36109.78
663.60	36327.45
663.74	35948.29
663.88	36126.17
664.02	35730.62
664.17	36074.68
664.31	35967.01
664.45	35826.58
664.59	35583.16
664.73	35637.00
664.88	35831.26
665.02	35562.10
665.16	35311.66
665.30	35349.11
665.44	35749.34
665.59	35047.18
665.73	35487.20
665.87	35428.69
666.01	35402.94
666.15	34890.37
666.29	35168.89
666.44	35159.53
666.58	34838.87
666.72	35103.35
666.86	35014.41
667.00	34792.06
667.14	34822.49
667.28	34719.51
667.43	34347.36
667.57	34801.43
667.71	34426.94
667.85	34581.42
667.99	34455.03
668.13	34440.98
668.27	34146.08
668.41	34588.44
668.56	34307.57
668.70	34625.89
668.84	34284.17
668.98	33837.12
669.12	34040.75
669.26	34108.63
669.40	33993.94
669.54	33895.64
669.68	33914.36
669.82	33825.42
669.96	33518.81
670.10	33708.40
670.25	33841.81
670.39	33486.04
670.53	33001.55
670.67	33432.21
670.81	33645.20
670.95	33591.37
671.09	32966.45
671.23	33282.42
671.37	33146.67
671.51	33137.30
671.65	32797.93
671.79	32945.38
671.93	32985.17
672.07	33123.26
672.21	33071.77
672.35	32830.69
672.49	33125.60
672.63	33050.70
672.77	32416.42
672.91	32414.08
673.05	32517.06
673.19	32519.40
673.33	32238.54
673.47	32074.70
673.61	32318.12
673.75	31564.46
673.89	31831.29
674.03	31873.42
674.17	31704.90
674.31	31681.49
674.45	31452.12
674.59	31749.37
674.73	32055.98
674.87	31634.68
675.01	31555.10
675.15	31358.50
675.29	31599.57
675.43	31384.24
675.56	31126.78
675.70	31063.59
675.84	31115.08
675.98	30359.09
676.12	30787.41
676.26	30796.77
676.40	30448.03
676.54	30583.78
676.68	30834.22
676.82	30366.11
676.96	30457.39
677.10	30225.68
677.23	30333.34
677.37	30096.95
677.51	30033.75
677.65	29898.00
677.79	29591.39
677.93	29727.14
678.07	29179.46
678.21	29301.17
678.34	29287.12
678.48	29277.76
678.62	29125.63
678.76	29046.05
678.90	28603.69
679.04	28961.79
679.18	28744.12
679.31	28383.68
679.45	28638.80
679.59	28423.47
679.73	28238.56
679.87	28299.42
680.00	28173.03
680.14	27950.68
680.28	28294.74
680.42	27934.29
680.56	28084.09
680.70	28100.47
680.83	28121.54
680.97	27810.25
681.11	27545.76
681.25	27182.98
681.39	27360.86
681.52	27843.01
681.66	27735.35
681.80	27232.13
681.94	27419.38
682.07	27498.95
682.21	27037.87
682.35	27016.80
682.49	26885.73
682.62	26623.59
682.76	26852.97
682.90	26658.70
683.04	26480.82
683.17	26230.38
683.31	26015.05
683.45	25806.75
683.59	26094.63
683.72	25834.83
683.86	25914.41
684.00	25900.37
684.13	26228.04
684.27	25528.22
684.41	25577.37
684.55	25308.21
684.68	25663.97
684.82	25521.20
684.96	25179.48
685.09	25160.76
685.23	25008.62
685.37	25120.97
685.50	25137.35
685.64	25032.03
685.78	24503.07
685.91	24360.30
686.05	24341.57
686.19	24416.47
686.32	24559.24
686.46	23948.36
686.60	23524.72
686.73	24023.26
686.87	23424.08
687.01	23531.75
687.14	23321.10
687.28	23103.43
687.42	23330.46
687.55	23232.16
687.69	23175.98
687.82	23098.75
687.96	23339.82
688.10	23133.86
688.23	22897.46
688.37	22824.90
688.50	22759.37
688.64	22677.45
688.78	22948.95
688.91	22471.48
689.05	22448.08
689.18	22632.98
689.32	22181.26
689.46	22265.52
689.59	22504.25
689.73	22593.19
689.86	21986.99
690.00	21891.03
690.13	21921.46
690.27	22094.66
690.41	21919.12
690.54	21436.97
690.68	21553.99
690.81	21460.37
690.95	21448.67
691.08	21294.19
691.22	21352.71
691.35	21137.38
691.49	21443.99
691.62	21275.47
691.76	21008.65
691.89	21193.55
692.03	20746.51
692.16	20814.38
692.30	20814.38
692.43	20711.40
692.57	20130.95
692.70	20643.52
692.84	20467.98
692.97	20400.11
693.11	20201.16
693.24	20130.95
693.38	19716.67
693.51	19885.19
693.65	20011.58
693.78	19950.73
693.92	20039.67
694.05	19908.60
694.19	19646.46
694.32	19606.67
694.45	19335.17
694.59	18991.11
694.72	19351.55
694.86	19150.26
694.99	19056.64
695.13	19145.58
695.26	19190.05
695.39	18888.12
695.53	18881.10
695.66	19131.54
695.80	18712.58
695.93	18555.77
696.07	18424.70
696.20	18363.84
696.33	18354.48
696.47	18331.08
696.60	18239.79
696.73	18003.40
696.87	17818.50
697.00	17970.63
697.14	18078.30
697.27	17949.57
697.40	17785.73
697.54	17816.16
697.67	17481.46
697.80	17357.41
697.94	17221.66
698.07	17273.15
698.21	17214.64
698.34	17106.98
698.47	17184.21
698.61	17006.33
698.74	16720.79
698.87	17053.14
699.01	16430.56
699.14	16552.27
699.27	16439.92
699.40	16430.56
699.54	16531.20
699.67	16435.24
699.80	16561.63
699.94	16416.52
700.07	16154.38
700.20	16264.38
700.34	15990.54
700.47	15960.11
700.60	16098.20
700.73	16456.31
700.87	16009.26
701.00	15840.75
701.13	15723.72
701.26	15658.18
701.40	15529.45
701.53	15672.23
701.66	15700.31
701.79	15424.13
701.93	15389.02
702.06	15300.08
702.19	15152.63
702.32	14916.23
702.46	14967.73
702.59	15103.48
702.72	14836.66
702.85	14874.10
702.99	14761.76
703.12	14930.28
703.25	14527.71
703.38	14614.30
703.51	14731.33
703.65	14607.28
703.78	14422.38
703.91	14422.38
704.04	14427.06
704.17	14445.79
704.31	14370.89
704.44	14080.66
704.57	13982.36
704.70	13886.40
704.83	13900.44
704.96	14015.13
705.10	13572.77
705.23	13727.24
>>>>>End Processed Spectral Data<<<<<
