SpectraSuite Data File
++++++++++++++++++++++++++++++++++++
Date: Fri Oct 25 11:33:36 EDT 2013
User: price-jones
Dark Spectrum Present: No
Reference Spectrum Present: No
Number of Sampled Component Spectra: 1
Spectrometers: USB2+H05261
Integration Time (usec): 100000 (USB2+H05261)
Spectra Averaged: 1 (USB2+H05261)
Boxcar Smoothing: 0 (USB2+H05261)
Correct for Electrical Dark: No (USB2+H05261)
Strobe/Lamp Enabled: No (USB2+H05261)
Correct for Detector Non-linearity: No (USB2+H05261)
Correct for Stray Light: No (USB2+H05261)
Number of Pixels in Processed Spectrum: 2048
>>>>>Begin Processed Spectral Data<<<<<
365.73	344.06
365.92	344.06
366.12	344.06
366.32	142.77
366.52	177.88
366.72	243.42
366.91	147.45
367.11	208.31
367.31	117.03
367.51	212.99
367.70	102.98
367.90	262.14
368.10	166.18
368.30	168.52
368.49	126.39
368.69	259.80
368.89	250.44
369.09	194.26
369.28	217.67
369.48	224.69
369.68	238.73
369.87	224.69
370.07	224.69
370.27	269.16
370.47	414.27
370.66	430.66
370.86	491.51
371.06	538.32
371.25	519.60
371.45	557.05
371.65	528.96
371.84	589.82
372.04	540.66
372.24	526.62
372.44	603.86
372.63	557.05
372.83	636.63
373.03	662.37
373.22	713.86
373.42	568.75
373.62	608.54
373.81	624.92
374.01	734.93
374.21	653.01
374.40	664.71
374.60	674.07
374.79	638.97
374.99	664.71
375.19	596.84
375.38	631.94
375.58	669.39
375.78	690.46
375.97	681.10
376.17	741.95
376.37	643.65
376.56	667.05
376.76	653.01
376.95	641.31
377.15	692.80
377.35	638.97
377.54	685.78
377.74	674.07
377.93	711.52
378.13	763.01
378.33	725.57
378.52	643.65
378.72	683.44
378.91	763.01
379.11	725.57
379.31	662.37
379.50	704.50
379.70	699.82
379.89	692.80
380.09	676.41
380.28	648.33
380.48	685.78
380.68	711.52
380.87	793.44
381.07	774.72
381.26	866.00
381.46	741.95
381.65	767.70
381.85	739.61
382.04	718.54
382.24	807.48
382.43	725.57
382.63	723.23
382.83	779.40
383.02	903.45
383.22	788.76
383.41	774.72
383.61	751.31
383.80	877.70
384.00	823.87
384.19	809.83
384.39	777.06
384.58	889.40
384.78	823.87
384.97	805.14
385.17	814.51
385.36	863.66
385.56	819.19
385.75	842.59
385.95	856.64
386.14	835.57
386.34	819.19
386.53	880.04
386.72	842.59
386.92	933.87
387.11	952.60
387.31	840.25
387.50	903.45
387.70	807.48
387.89	851.96
388.09	880.04
388.28	840.25
388.48	898.77
388.67	938.55
388.86	954.94
389.06	926.85
389.25	957.28
389.45	954.94
389.64	980.68
389.84	940.90
390.03	929.19
390.22	1055.58
390.42	1006.43
390.61	1013.45
390.81	985.37
391.00	968.98
391.19	945.58
391.39	1039.20
391.58	973.66
391.78	1008.77
391.97	950.26
392.16	929.19
392.36	1043.88
392.55	1048.56
392.75	1050.90
392.94	1006.43
393.13	1060.26
393.33	1027.50
393.52	1086.01
393.71	1114.10
393.91	1097.71
394.10	1137.50
394.29	1130.48
394.49	1135.16
394.68	1071.97
394.88	1163.25
395.07	1114.10
395.26	1184.31
395.46	1139.84
395.65	1186.65
395.84	1107.07
396.04	1181.97
396.23	1153.88
396.42	1219.42
396.62	1198.35
396.81	1301.34
397.00	1219.42
397.19	1198.35
397.39	1200.69
397.58	1198.35
397.77	1247.51
397.97	1167.93
398.16	1203.04
398.35	1317.72
398.55	1231.12
398.74	1310.70
398.93	1420.71
399.12	1324.74
399.32	1390.28
399.51	1247.51
399.70	1392.62
399.90	1252.19
400.09	1378.58
400.28	1362.19
400.47	1275.59
400.67	1418.36
400.86	1427.73
401.05	1526.03
401.24	1476.88
401.44	1476.88
401.63	1460.49
401.82	1437.09
402.01	1476.88
402.21	1483.90
402.40	1504.96
402.59	1423.05
402.78	1526.03
402.97	1504.96
403.17	1563.48
403.36	1493.26
403.55	1521.35
403.74	1668.80
403.93	1551.78
404.13	1631.35
404.32	1584.54
404.51	1533.05
404.70	1645.40
404.89	1577.52
405.09	1591.56
405.28	1746.04
405.47	1706.25
405.66	1687.53
405.85	1657.10
406.05	1722.63
406.24	1825.62
406.43	1633.69
406.62	1790.51
406.81	1804.55
407.00	1806.89
407.20	1827.96
407.39	1774.13
407.58	1905.20
407.77	1802.21
407.96	1795.19
408.15	1905.20
408.34	1818.60
408.54	1877.11
408.73	1940.30
408.92	1907.54
409.11	1982.43
409.30	1872.43
409.49	1973.07
409.68	1893.49
409.87	2038.61
410.07	2062.01
410.26	2064.35
410.45	2066.69
410.64	2078.40
410.83	2115.84
411.02	2132.23
411.21	2097.12
411.40	2071.37
411.59	2207.13
411.78	2197.76
411.98	2153.29
412.17	2197.76
412.36	2211.81
412.55	2317.13
412.74	2260.96
412.93	2354.58
413.12	2305.43
413.31	2459.90
413.50	2389.69
413.69	2396.71
413.88	2520.76
414.07	2420.11
414.26	2539.48
414.45	2553.52
414.64	2532.46
414.83	2572.25
415.02	2548.84
415.22	2717.36
415.41	2649.49
415.60	2644.81
415.79	2654.17
415.98	2670.55
416.17	2708.00
416.36	2649.49
416.55	2726.72
416.74	2862.48
416.93	2785.24
417.12	2918.65
417.31	2895.24
417.50	3007.59
417.69	3080.14
417.88	2956.10
418.07	2902.26
418.26	2902.26
418.45	3028.65
418.64	3070.78
418.83	3023.97
419.02	3190.15
419.21	3110.57
419.39	3192.49
419.58	3077.80
419.77	2949.08
419.96	3192.49
420.15	3176.11
420.34	3141.00
420.53	3215.90
420.72	3178.45
420.91	3330.58
421.10	3297.81
421.29	3269.73
421.48	3199.51
421.67	3204.19
421.86	3253.34
422.05	3295.47
422.24	3248.66
422.43	3358.67
422.61	3328.24
422.80	3323.56
422.99	3384.41
423.18	3346.97
423.37	3419.52
423.56	3461.65
423.75	3466.33
423.94	3330.58
424.13	3243.98
424.32	3251.00
424.50	3478.04
424.69	3583.36
424.88	3431.23
425.07	3522.51
425.26	3424.20
425.45	3391.44
425.64	3389.10
425.83	3508.46
426.01	3449.95
426.20	3552.93
426.39	3585.70
426.58	3379.73
426.77	3358.67
426.96	3627.83
427.15	3630.17
427.33	3566.98
427.52	3517.83
427.71	3662.94
427.90	3548.25
428.09	3613.79
428.28	3655.92
428.46	3707.41
428.65	3737.84
428.84	3789.33
429.03	3829.12
429.22	3637.19
429.40	3815.07
429.59	3702.73
429.78	3681.66
429.97	3691.02
430.16	3798.69
430.34	3845.50
430.53	3878.27
430.72	4072.53
430.91	3878.27
431.10	3896.99
431.28	3882.95
431.47	3941.46
431.66	4037.42
431.85	3899.33
432.03	3948.48
432.22	3988.27
432.41	3880.61
432.60	4147.43
432.79	4065.51
432.97	4124.02
433.16	4093.60
433.35	4067.85
433.54	4173.18
433.72	4248.07
433.91	4264.46
434.10	4201.26
434.28	4231.69
434.47	4327.65
434.66	4187.22
434.85	4276.16
435.03	4376.80
435.22	4311.27
435.41	4421.27
435.59	4322.97
435.78	4547.66
435.97	4278.50
436.16	4454.04
436.34	4283.18
436.53	4386.16
436.72	4484.47
436.90	4442.34
437.09	4592.13
437.28	4528.94
437.46	4463.40
437.65	4540.64
437.84	4587.45
438.02	4514.89
438.21	4723.20
438.40	4486.81
438.58	4795.76
438.77	4882.36
438.96	4746.61
439.14	4929.17
439.33	4940.87
439.52	4915.12
439.70	5004.07
439.89	4840.23
440.08	4908.10
440.26	5048.54
440.45	4882.36
440.63	5125.77
440.82	5210.03
441.01	5046.20
441.19	5231.10
441.38	5266.21
441.57	5334.08
441.75	5301.31
441.94	5446.43
442.12	5406.64
442.31	5394.93
442.50	5427.70
442.68	5430.04
442.87	5427.70
443.05	5343.44
443.24	5600.90
443.43	5570.48
443.61	5474.51
443.80	5680.48
443.98	5455.79
444.17	5238.12
444.35	5617.29
444.54	5636.01
444.73	5760.06
444.91	5596.22
445.10	5783.46
445.28	5668.78
445.47	5694.52
445.65	5713.25
445.84	5865.38
446.02	5760.06
446.21	5724.95
446.39	5654.73
446.58	5664.10
446.77	5631.33
446.95	5699.20
447.14	5743.67
447.32	5921.56
447.51	5881.77
447.69	5652.39
447.88	5818.57
448.06	5781.12
448.25	5799.85
448.43	5900.49
448.62	5877.09
448.80	5715.59
448.99	5731.97
449.17	5781.12
449.36	5851.34
449.54	5884.11
449.73	6106.46
449.91	6176.67
450.10	6052.63
450.28	6015.18
450.46	5926.24
450.65	6188.38
450.83	6080.71
451.02	6052.63
451.20	6317.11
451.39	6164.97
451.57	6134.54
451.76	6186.04
451.94	6179.01
452.13	6282.00
452.31	6394.34
452.49	6324.13
452.68	6312.42
452.86	6249.23
453.05	6204.76
453.23	6354.55
453.42	6291.36
453.60	6342.85
453.78	6534.78
453.97	6202.42
454.15	6434.13
454.34	6331.15
454.52	6590.95
454.70	6642.44
454.89	6614.35
455.07	6640.10
455.26	6487.96
455.44	6883.52
455.62	6766.49
455.81	6565.20
455.99	6771.17
456.17	6717.34
456.36	6743.08
456.54	6775.85
456.73	6974.80
456.91	7061.40
457.09	7066.08
457.28	7199.49
457.46	7007.56
457.64	6977.14
457.83	7073.10
458.01	7124.59
458.19	7133.95
458.38	7082.46
458.56	7178.42
458.74	7157.36
458.93	7171.40
459.11	7316.51
459.29	7222.89
459.48	7152.68
459.66	7281.41
459.84	7370.35
460.03	7400.77
460.21	7356.30
460.39	7442.90
460.57	7438.22
460.76	7595.04
460.94	7604.40
461.12	7616.10
461.31	7403.11
461.49	7527.16
461.67	7403.11
461.85	7679.30
462.04	7445.24
462.22	8163.79
462.40	7768.24
462.59	7829.09
462.77	7637.17
462.95	7730.79
463.13	7808.03
463.32	7705.04
463.50	7630.15
463.68	7817.39
463.86	7939.10
464.05	7861.86
464.23	7894.63
464.41	8067.83
464.59	7700.36
464.78	8217.62
464.96	8009.31
465.14	7948.46
465.32	8051.44
465.50	8051.44
465.69	8278.47
465.87	8126.34
466.05	8159.11
466.23	8011.65
466.41	8203.58
466.60	8351.03
466.78	8063.15
466.96	8070.17
467.14	8484.44
467.32	8210.60
467.51	8430.61
467.69	8135.70
467.87	8353.37
468.05	8510.19
468.23	8224.64
468.41	8390.82
468.60	8514.87
468.78	8589.77
468.96	8369.76
469.14	8463.38
469.32	8777.01
469.50	8205.92
469.69	8648.28
469.87	8704.45
470.05	8608.49
470.23	8648.28
470.41	8772.33
470.59	8854.25
470.77	8840.20
470.95	8769.99
471.14	8936.17
471.32	8821.48
471.50	9057.87
471.68	9076.60
471.86	9100.00
472.04	8985.32
472.22	9235.75
472.40	9207.67
472.58	9139.79
472.77	9488.53
472.95	9282.56
473.13	9575.13
473.31	9418.32
473.49	9434.70
473.67	9483.85
473.85	9432.36
474.03	9621.94
474.21	9760.03
474.39	9650.03
474.57	9989.41
474.75	9778.76
474.93	9898.13
475.12	9856.00
475.30	10097.07
475.48	9912.17
475.66	9947.28
475.84	10045.58
476.02	10223.46
476.20	10115.80
476.38	10296.02
476.56	10588.58
476.74	10689.23
476.92	10441.13
477.10	10415.38
477.28	10738.38
477.46	10824.98
477.64	10871.79
477.82	11066.05
478.00	11300.11
478.18	10888.17
478.36	11330.53
478.54	11367.98
478.72	11461.60
478.90	11468.62
479.08	11583.31
479.26	11728.42
479.44	11714.38
479.62	11719.06
479.80	11826.73
479.98	12025.67
480.16	12168.45
480.34	12004.61
480.52	12271.43
480.70	12201.21
480.88	12149.72
481.06	12283.13
481.24	12538.25
481.41	12589.74
481.59	12769.96
481.77	12894.01
481.95	13022.74
482.13	13018.06
482.31	12863.58
482.49	13542.34
482.67	13366.80
482.85	13612.56
483.03	13535.32
483.21	13528.30
483.39	13788.10
483.57	13865.33
483.74	13806.82
483.92	13949.59
484.10	14377.91
484.28	14349.82
484.46	14513.66
484.64	15014.54
484.82	14532.39
485.00	14541.75
485.18	15056.67
485.35	15044.96
485.53	15077.73
485.71	14902.19
485.89	15536.48
486.07	15192.42
486.25	15660.52
486.43	15625.42
486.61	15751.81
486.78	15917.98
486.96	16133.31
487.14	15936.71
487.32	16217.57
487.50	16271.40
487.68	16500.78
487.85	16578.01
488.03	16669.30
488.21	16896.33
488.39	16886.97
488.57	17099.95
488.75	16851.86
488.92	17706.15
489.10	17549.34
489.28	17741.26
489.46	17874.67
489.64	17860.63
489.81	18097.02
489.99	18235.11
490.17	17900.42
490.35	18623.64
490.53	18714.92
490.70	18782.80
490.88	18284.26
491.06	19000.47
491.24	18836.63
491.41	19143.24
491.59	19260.27
491.77	19204.10
491.95	19197.07
492.13	19613.69
492.30	19637.09
492.48	19548.15
492.66	19721.35
492.84	19896.89
493.01	20152.01
493.19	20512.46
493.37	20238.61
493.54	20446.92
493.72	20835.45
493.90	20683.31
494.08	20879.92
494.25	20889.28
494.43	20879.92
494.61	21064.82
494.79	21434.63
494.96	21301.22
495.14	21383.13
495.32	21699.11
495.49	21994.01
495.67	21769.32
495.85	21895.71
496.02	22340.41
496.20	22288.92
496.38	22391.91
496.55	22412.97
496.73	23042.57
496.91	22497.23
497.09	22970.02
497.26	22918.53
497.44	22876.40
497.62	23073.00
497.79	23391.31
497.97	23047.26
498.14	23550.47
498.32	23702.61
498.50	23599.62
498.67	23789.20
498.85	23896.87
499.03	24149.65
499.20	24166.03
499.38	24201.14
499.56	24362.64
499.73	24273.70
499.91	24542.86
500.08	24744.14
500.26	24629.46
500.44	24765.21
500.61	24704.35
500.79	24603.71
500.97	25071.82
501.14	25418.22
501.32	25647.59
501.49	25289.49
501.67	24996.92
501.84	25579.71
502.02	25722.49
502.20	25876.96
502.37	25738.87
502.55	25795.04
502.72	25769.30
502.90	25895.69
503.07	26033.78
503.25	25970.58
503.43	25977.61
503.60	26412.95
503.78	26377.84
503.95	26370.82
504.13	26293.58
504.30	26380.18
504.48	26764.03
504.65	26754.66
504.83	27410.01
505.01	27358.52
505.18	27049.57
505.36	27702.58
505.53	27234.47
505.71	27566.83
505.88	27395.97
506.06	27592.58
506.23	27695.56
506.41	27693.22
506.58	27704.92
506.76	27740.03
506.93	27782.16
507.11	27655.77
507.28	28793.27
507.46	28301.76
507.63	28240.90
507.81	28254.95
507.98	28285.37
508.16	28795.61
508.33	28875.19
508.50	28786.25
508.68	28828.38
508.85	29071.79
509.03	28964.13
509.20	29240.31
509.38	29252.02
509.55	29493.09
509.73	29256.70
509.90	29467.34
510.08	29252.02
510.25	29408.83
510.42	29832.47
510.60	30190.57
510.77	30307.60
510.95	30141.42
511.12	29907.37
511.30	30054.82
511.47	29958.86
511.64	29890.98
511.82	30331.00
511.99	30448.03
512.17	30485.48
512.34	30375.47
512.51	30733.57
512.69	30838.90
512.86	31023.80
513.04	31044.87
513.21	31007.42
513.38	31204.02
513.56	30888.05
513.73	31126.78
513.90	30813.15
514.08	31344.45
514.25	31227.43
514.43	31367.86
514.60	31522.34
514.77	31660.43
514.95	31880.44
515.12	31683.83
515.29	31985.76
515.47	32381.31
515.64	32142.58
515.81	32011.51
515.99	32009.17
516.16	32126.19
516.33	32144.92
516.51	32409.40
516.68	32217.47
516.85	32617.71
517.03	32737.07
517.20	33071.77
517.37	32514.72
517.54	33160.71
517.72	32844.74
517.89	33020.28
518.06	33120.92
518.24	33144.33
518.41	33315.19
518.58	32641.11
518.75	33186.46
518.93	33670.95
519.10	33261.35
519.27	33610.09
519.45	33413.49
519.62	33598.39
519.79	33848.83
519.96	33787.97
520.14	33792.65
520.31	33610.09
520.48	34007.98
520.65	33888.62
520.83	34204.59
521.00	34375.45
521.17	34265.44
521.34	34347.36
521.52	34422.26
521.69	34464.39
521.86	34419.92
522.03	34644.61
522.20	35318.68
522.38	35061.22
522.55	35103.35
522.72	34771.00
522.89	35082.29
523.07	35339.75
523.24	35438.05
523.41	35346.77
523.58	35180.59
523.75	35461.46
523.92	35634.66
524.10	35449.75
524.27	35634.66
524.44	35321.02
524.61	35854.67
524.78	36165.96
524.96	36292.35
525.13	35992.76
525.30	36231.49
525.47	36369.58
525.64	36753.43
525.81	36290.01
525.98	36067.66
526.16	36615.34
526.33	36402.35
526.50	36620.02
526.67	35908.50
526.84	36966.42
527.01	36369.58
527.18	36161.28
527.36	36917.27
527.53	36491.29
527.70	36884.50
527.87	37022.59
528.04	37137.28
528.21	37088.13
528.38	37282.39
528.55	37773.91
528.72	37385.38
528.89	37434.53
529.07	37188.77
529.24	37095.15
529.41	37986.89
529.58	37345.59
529.75	37418.14
529.92	37610.07
530.09	37624.11
530.26	37708.37
530.43	37633.47
530.60	37249.63
530.77	37762.20
530.94	37991.58
531.11	37546.87
531.28	37947.11
531.46	38183.50
531.63	38370.74
531.80	38295.85
531.97	38256.06
532.14	38429.26
532.31	38120.31
532.48	38555.64
532.65	38422.23
532.82	38361.38
532.99	38595.43
533.16	38731.18
533.33	38927.79
533.50	38899.70
533.67	38267.76
533.84	38635.22
534.01	38976.94
534.18	39068.22
534.35	39475.48
534.52	39608.89
534.69	39379.51
534.86	39257.81
535.03	39157.16
535.20	39557.39
535.37	39548.03
535.54	40156.57
535.71	39501.22
535.88	39807.83
536.05	39728.25
536.22	40182.32
536.38	39730.59
536.55	39433.35
536.72	39749.32
536.89	39505.90
537.06	39522.29
537.23	40098.06
537.40	39924.86
537.57	39538.67
537.74	40074.65
537.91	40266.58
538.08	40493.61
538.25	39770.38
538.42	40058.27
538.59	40229.13
538.75	40421.05
538.92	40395.31
539.09	40800.22
539.26	40634.04
539.43	40116.78
539.60	40587.23
539.77	40531.06
539.94	40577.87
540.11	40692.55
540.28	40687.87
540.44	41258.96
540.61	40732.34
540.78	40856.39
540.95	40856.39
541.12	40730.00
541.29	41317.48
541.46	41151.30
541.62	40964.06
541.79	41137.26
541.96	41310.46
542.13	40580.21
542.30	41113.85
542.47	41418.12
542.63	41450.89
542.80	41471.95
542.97	41965.81
543.14	41958.78
543.31	41628.77
543.48	41897.93
543.64	42546.26
543.81	42150.71
543.98	42029.00
544.15	42347.31
544.32	42036.02
544.48	42480.72
544.65	42564.98
544.82	42284.12
544.99	41921.34
545.16	42197.52
545.32	42464.34
545.49	42696.05
545.66	42679.67
545.83	42557.96
546.00	42246.67
546.16	42281.78
546.33	42412.85
546.50	42347.31
546.67	43119.69
546.83	42244.33
547.00	42815.42
547.17	42827.12
547.34	42618.81
547.50	43405.23
547.67	43189.91
547.84	43194.59
548.00	43302.25
548.17	43484.81
548.34	43058.84
548.51	43456.73
548.67	43157.14
548.84	43229.69
549.01	43150.12
549.18	43470.77
549.34	43683.76
549.51	43613.54
549.68	43861.64
549.84	43707.16
550.01	43402.89
550.18	43068.20
550.34	43826.53
550.51	43667.37
550.68	43688.44
550.84	43349.06
551.01	43896.75
551.18	43847.60
551.34	43889.73
551.51	44135.48
551.68	43871.00
551.84	44163.57
552.01	43791.42
552.18	43948.24
552.34	43723.55
552.51	43971.64
552.68	43716.53
552.84	43938.88
553.01	44355.49
553.18	44112.08
553.34	44123.78
553.51	43798.44
553.67	44748.70
553.84	44655.08
554.01	44254.85
554.17	44079.31
554.34	44701.89
554.51	44582.52
554.67	44830.62
554.84	44364.85
555.00	44648.06
555.17	44584.86
555.33	44552.10
555.50	44299.32
555.67	44584.86
555.83	44626.99
556.00	45059.99
556.16	45284.68
556.33	45118.51
556.50	44847.00
556.66	44933.60
556.83	44769.77
556.99	45214.47
557.16	45076.38
557.32	45191.06
557.49	45413.41
557.65	44964.03
557.82	45364.26
557.98	45029.57
558.15	45228.51
558.32	45467.25
558.48	45158.30
558.65	45237.87
558.81	45324.47
558.98	45247.24
559.14	45310.43
559.31	45071.70
559.47	45064.67
559.64	45322.13
559.80	45361.92
559.97	45703.64
560.13	45219.15
560.30	45165.32
560.46	45921.31
560.63	45481.29
560.79	45132.55
560.96	45951.74
561.12	45642.79
561.29	45570.23
561.45	45469.59
561.61	45570.23
561.78	45787.90
561.94	45853.44
562.11	45551.51
562.27	45897.91
562.44	45626.40
562.60	46024.29
562.77	45918.97
562.93	45710.66
563.10	46340.27
563.26	46115.58
563.42	46150.68
563.59	46071.10
563.75	45708.32
563.92	46307.50
564.08	45853.44
564.24	46312.18
564.41	46520.49
564.57	46010.25
564.74	46185.79
564.90	46010.25
565.07	46143.66
565.23	45537.46
565.39	45865.14
565.56	46342.61
565.72	46447.93
565.88	46323.88
566.05	46656.24
566.21	46202.18
566.38	46153.02
566.54	46230.26
566.70	46728.80
566.87	46026.63
567.03	46298.14
567.19	46457.29
567.36	46408.14
567.52	46419.84
567.68	46260.69
567.85	46424.53
568.01	46356.65
568.17	46127.28
568.34	46651.56
568.50	46579.00
568.66	46286.43
568.83	46466.66
568.99	46504.10
569.15	46232.60
569.32	46656.24
569.48	46604.75
569.64	46894.97
569.81	46136.64
569.97	46539.21
570.13	46674.96
570.30	46576.66
570.46	46211.54
570.62	46913.70
570.78	46433.89
570.95	46653.90
571.11	47021.36
571.27	46848.16
571.43	46717.09
571.60	46604.75
571.76	46401.12
571.92	46810.71
572.09	46532.19
572.25	46454.95
572.41	46433.89
572.57	46946.47
572.74	47327.97
572.90	46726.46
573.06	47007.32
573.22	47264.78
573.38	47030.72
573.55	47065.83
573.71	47189.88
573.87	46951.15
574.03	46782.63
574.20	47131.37
574.36	46822.42
574.52	47414.57
574.68	46986.25
574.84	47405.21
575.01	46759.22
575.17	46967.53
575.33	47070.51
575.49	46707.73
575.65	47110.30
575.82	47072.85
575.98	46827.10
576.14	47760.97
576.30	47243.71
576.46	46897.31
576.62	47040.09
576.79	47082.22
576.95	46412.82
577.11	47000.30
577.27	46834.12
577.43	46997.96
577.59	47227.33
577.75	46899.65
577.92	46721.77
578.08	47185.20
578.24	46864.55
578.40	47580.75
578.56	47697.78
578.72	47487.13
578.88	47077.54
579.04	47065.83
579.21	46988.60
579.37	47133.71
579.53	47154.77
579.69	47175.84
579.85	47281.16
580.01	46672.62
580.17	47030.72
580.33	47515.22
580.49	47559.69
580.65	47381.80
580.82	47285.84
580.98	47372.44
581.14	46876.25
581.30	47571.39
581.46	47447.34
581.62	47241.37
581.78	47232.01
581.94	47246.05
582.10	47232.01
582.26	47365.42
582.42	47136.05
582.58	47463.72
582.74	47419.25
582.90	47531.60
583.06	47454.36
583.22	46955.83
583.38	47391.17
583.54	47019.02
583.70	46733.48
583.86	47910.77
584.02	47136.05
584.18	47847.57
584.34	47718.84
584.50	47718.84
584.66	47442.66
584.82	47302.23
584.98	47466.06
585.14	47461.38
585.30	47461.38
585.46	47430.96
585.62	47339.68
585.78	47779.70
585.94	47105.62
586.10	47248.39
586.26	47473.09
586.42	47426.28
586.58	47260.10
586.74	47290.52
586.90	47264.78
587.06	47236.69
587.22	47854.59
587.38	47217.97
587.54	47480.11
587.70	47704.80
587.86	47672.03
588.02	47318.61
588.18	47540.96
588.34	47704.80
588.49	47662.67
588.65	47636.92
588.81	47435.64
588.97	47676.71
589.13	47538.62
589.29	47475.43
589.45	47587.77
589.61	47800.76
589.77	47842.89
589.93	47744.59
590.08	47814.80
590.24	47753.95
590.40	48081.63
590.56	48182.27
590.72	47885.02
590.88	47791.40
591.04	47772.67
591.20	48236.10
591.35	47990.34
591.51	47978.64
591.67	47870.98
591.83	48322.70
591.99	47943.53
592.15	47899.06
592.31	47983.32
592.46	47786.72
592.62	47941.19
592.78	48098.01
592.94	48067.58
593.10	48175.25
593.26	48540.37
593.41	48388.24
593.57	47840.55
593.73	48039.50
593.89	48561.44
594.05	48245.46
594.20	47929.49
594.36	48381.21
594.52	48072.26
594.68	48128.44
594.84	47964.60
594.99	48184.61
595.15	47985.66
595.31	48189.29
595.47	48048.86
595.62	48385.89
595.78	47613.52
595.94	48568.46
596.10	48133.12
596.25	48465.47
596.41	48650.38
596.57	48072.26
596.73	48048.86
596.88	48027.79
597.04	48376.53
597.20	48168.22
597.36	48109.71
597.51	47999.71
597.67	48388.24
597.83	48362.49
597.99	48371.85
598.14	47973.96
598.30	48002.05
598.46	48217.38
598.61	48488.88
598.77	48112.05
598.93	48137.80
599.09	48397.60
599.24	48746.34
599.40	48217.38
599.56	48367.17
599.71	48509.94
599.87	48648.03
600.03	48442.07
600.18	48383.55
600.34	48432.71
600.50	48453.77
600.65	48140.14
600.81	48781.45
600.97	48528.67
601.12	48547.39
601.28	48357.81
601.44	48648.03
601.59	48254.82
601.75	48217.38
601.91	48446.75
602.06	48172.91
602.22	48655.06
602.37	48273.55
602.53	48446.75
602.69	48605.91
602.84	48147.16
603.00	48030.13
603.16	48322.70
603.31	48566.12
603.47	48809.53
603.62	48498.24
603.78	48659.74
603.94	48446.75
604.09	48809.53
604.25	48217.38
604.40	48399.94
604.56	48528.67
604.71	48687.82
604.87	48568.46
605.03	48116.73
605.18	48229.08
605.34	48189.29
605.49	48058.22
605.65	47995.03
605.80	48065.24
605.96	48350.79
606.12	48282.91
606.27	48779.10
606.43	47980.98
606.58	48332.06
606.74	48217.38
606.89	48076.94
607.05	48460.79
607.20	48287.59
607.36	48198.65
607.51	48140.14
607.67	47978.64
607.82	48413.98
607.98	47995.03
608.13	47899.06
608.29	48287.59
608.44	47938.85
608.60	48165.88
608.75	48437.39
608.91	48315.68
609.06	47945.87
609.22	48577.82
609.37	47629.90
609.53	48250.14
609.68	48161.20
609.84	48421.00
609.99	48128.44
610.15	48226.74
610.30	48076.94
610.46	47812.46
610.61	48163.54
610.76	48376.53
610.92	47753.95
611.07	47859.27
611.23	47845.23
611.38	47927.15
611.54	47875.66
611.69	48184.61
611.84	48264.19
612.00	48161.20
612.15	47868.64
612.31	47931.83
612.46	47250.74
612.62	47641.60
612.77	47941.19
612.92	48020.77
613.08	47494.15
613.23	47585.43
613.39	47892.04
613.54	47545.64
613.69	48006.73
613.85	47908.43
614.00	47976.30
614.15	48231.42
614.31	47592.45
614.46	47793.74
614.62	47442.66
614.77	47246.05
614.92	47470.75
615.08	47309.25
615.23	47686.07
615.38	47866.30
615.54	47622.88
615.69	47423.93
615.84	47620.54
616.00	47632.24
616.15	47695.44
616.30	47732.89
616.46	47452.02
616.61	47564.37
616.76	47531.60
616.92	47306.91
617.07	47302.23
617.22	47320.95
617.37	47136.05
617.53	47021.36
617.68	47192.22
617.83	47435.64
617.99	47693.10
618.14	47517.56
618.29	47229.67
618.45	46976.89
618.60	46674.96
618.75	47056.47
618.90	47180.52
619.06	47260.10
619.21	47257.76
619.36	47257.76
619.51	47070.51
619.67	47250.74
619.82	46571.98
619.97	47327.97
620.12	47023.70
620.28	47430.96
620.43	46911.36
620.58	47147.75
620.73	47178.18
620.89	47068.17
621.04	47129.03
621.19	47255.42
621.34	47168.82
621.49	46698.37
621.65	46684.33
621.80	47309.25
621.95	46997.96
622.10	47250.74
622.25	46670.28
622.41	46731.14
622.56	46628.15
622.71	46887.95
622.86	46492.40
623.01	46738.16
623.16	46817.74
623.32	46862.21
623.47	46518.15
623.62	46546.23
623.77	46532.19
623.92	46864.55
624.07	46525.17
624.23	46845.82
624.38	46569.64
624.53	46590.70
624.68	46155.36
624.83	46515.81
624.98	46251.33
625.13	46024.29
625.29	46099.19
625.44	46258.35
625.59	46541.55
625.74	45982.16
625.89	45717.68
626.04	45935.35
626.19	45696.62
626.34	45734.07
626.49	46054.72
626.65	45820.67
626.80	46050.04
626.95	45806.62
627.10	45694.28
627.25	46211.54
627.40	46251.33
627.55	45771.52
627.70	45818.33
627.85	46480.70
628.00	45914.29
628.15	46333.24
628.30	45565.55
628.45	45727.05
628.60	45357.24
628.76	45567.89
628.91	45652.15
629.06	45186.38
629.21	45265.96
629.36	45179.36
629.51	45610.02
629.66	46162.39
629.81	45720.02
629.96	45528.10
630.11	45280.00
630.26	45478.95
630.41	45909.61
630.56	45507.04
630.71	45474.27
630.86	45610.02
631.01	45052.97
631.16	45010.84
631.31	45324.47
631.46	45296.39
631.61	45450.86
631.76	45223.83
631.91	45443.84
632.06	45127.87
632.21	45226.17
632.36	45603.00
632.51	45188.72
632.66	45500.01
632.81	45387.67
632.96	44865.73
633.10	44863.39
633.25	45265.96
633.40	45167.66
633.55	45610.02
633.70	44751.04
633.85	44865.73
634.00	44622.31
634.15	44849.35
634.30	44898.50
634.45	44933.60
634.60	44624.65
634.75	45120.85
634.90	44652.74
635.05	45123.19
635.19	44769.77
635.34	44545.08
635.49	44701.89
635.64	44966.37
635.79	44910.20
635.94	44825.94
636.09	44804.88
636.24	44954.67
636.39	44811.90
636.53	44289.96
636.68	44423.37
636.83	44156.55
636.98	43784.40
637.13	44123.78
637.28	44402.30
637.43	43779.72
637.57	44399.96
637.72	44133.14
637.87	44451.45
638.02	44395.28
638.17	44313.36
638.32	44072.29
638.46	44072.29
638.61	43653.33
638.76	43770.36
638.91	44156.55
639.06	43866.32
639.20	43796.10
639.35	43604.18
639.50	43847.60
639.65	43885.04
639.80	43807.81
639.94	44105.06
640.09	44701.89
640.24	43838.23
640.39	43384.17
640.54	43508.22
640.68	43721.21
640.83	43800.79
640.98	43768.02
641.13	43318.64
641.27	44121.44
641.42	43590.14
641.57	43620.56
641.72	43707.16
641.86	43650.99
642.01	43414.60
642.16	43260.12
642.31	43292.89
642.45	43503.54
642.60	43512.90
642.75	43583.12
642.90	43660.35
643.04	43187.56
643.19	43154.80
643.34	43344.38
643.48	43103.31
643.63	43377.15
643.78	43264.80
643.93	43744.61
644.07	43501.20
644.22	43430.98
644.37	43295.23
644.51	43449.70
644.66	43021.39
644.81	43283.53
644.95	43318.64
645.10	42941.81
645.25	42663.28
645.39	43012.02
645.54	42909.04
645.69	42670.31
645.83	43035.43
645.98	42562.64
646.13	42712.44
646.27	42857.55
646.42	42148.37
646.57	42850.53
646.71	43065.86
646.86	43040.11
647.00	43035.43
647.15	43372.47
647.30	42887.98
647.44	42604.77
647.59	42550.94
647.74	42630.52
647.88	42527.53
648.03	42843.51
648.17	43227.35
648.32	42749.88
648.47	42911.38
648.61	42412.85
648.76	42506.47
648.90	42213.90
649.05	42518.17
649.20	42366.04
649.34	42487.74
649.49	42459.66
649.63	41947.08
649.78	42653.92
649.92	42939.47
650.07	43136.07
650.21	42405.83
650.36	42485.40
650.51	42422.21
650.65	42499.45
650.80	42597.75
650.94	42342.63
651.09	42314.55
651.23	41897.93
651.38	41675.58
651.52	41537.49
651.67	42424.55
651.81	41675.58
651.96	41553.87
652.10	41876.86
652.25	41958.78
652.39	42026.66
652.54	41816.01
652.68	41738.77
652.83	41799.63
652.97	42150.71
653.12	41832.39
653.26	41483.66
653.41	41731.75
653.55	41535.15
653.70	41881.55
653.84	42253.69
653.99	41818.35
654.13	42045.38
654.27	41509.40
654.42	41944.74
654.56	41579.62
654.71	41675.58
654.85	41418.12
655.00	41067.04
655.14	41642.81
655.29	41560.89
655.43	41963.46
655.57	41563.23
655.72	41457.91
655.86	41163.00
656.01	41130.23
656.15	41001.50
656.30	41099.81
656.44	41682.60
656.58	41139.60
656.73	41598.34
656.87	41090.44
657.01	40926.61
657.16	40999.16
657.30	40926.61
657.45	40996.82
657.59	40844.69
657.73	41027.25
657.88	41273.01
658.02	40704.26
658.16	40718.30
658.31	41001.50
658.45	41029.59
658.60	40715.96
658.74	40830.65
658.88	40395.31
659.03	40531.06
659.17	40517.01
659.31	40505.31
659.46	40512.33
659.60	40830.65
659.74	40336.79
659.89	40072.31
660.03	40079.33
660.17	40699.58
660.32	40399.99
660.46	40058.27
660.60	39868.69
660.74	40252.53
660.89	40306.37
661.03	39742.30
661.17	39711.87
661.32	39566.76
661.46	40128.48
661.60	39508.24
661.74	39711.87
661.89	39620.59
662.03	39660.38
662.17	39625.27
662.31	39115.03
662.46	39739.96
662.60	39318.66
662.74	38768.63
662.88	38756.93
663.03	39007.37
663.17	39189.93
663.31	38834.17
663.45	39157.16
663.60	39360.79
663.74	39393.56
663.88	38852.89
664.02	39215.68
664.17	39063.54
664.31	38492.45
664.45	38527.56
664.59	38731.18
664.73	38543.94
664.88	39091.63
665.02	38059.45
665.16	38586.07
665.30	38852.89
665.44	38396.49
665.59	38218.61
665.73	38185.84
665.87	37352.61
666.01	38169.46
666.15	38183.50
666.29	38003.28
666.44	37706.03
666.58	37750.50
666.72	37834.76
666.86	37930.72
667.00	37322.18
667.14	37682.62
667.28	37897.95
667.43	37909.66
667.57	37722.41
667.71	37949.45
667.85	37488.36
667.99	37862.85
668.13	37383.04
668.27	36947.70
668.41	36821.31
668.56	36783.86
668.70	36669.17
668.84	36631.72
668.98	36938.33
669.12	37046.00
669.26	36844.71
669.40	36961.74
669.54	36985.15
669.68	36573.21
669.82	36648.11
669.96	36486.61
670.10	36175.32
670.25	36472.57
670.39	36116.81
670.53	36318.09
670.67	36610.66
670.81	36236.17
670.95	35995.10
671.09	36084.04
671.23	35943.61
671.37	36215.11
671.51	35931.90
671.65	35285.92
671.79	35906.16
671.93	35812.54
672.07	36198.73
672.21	35377.20
672.35	35351.45
672.49	35241.45
672.63	35548.06
672.77	34892.71
672.91	35416.99
673.05	34885.68
673.19	35007.39
673.33	34494.82
673.47	34778.02
673.61	34291.19
673.75	34773.34
673.89	34019.69
674.03	34410.56
674.17	34209.27
674.31	34366.09
674.45	33916.70
674.59	34197.57
674.73	34232.68
674.87	33928.41
675.01	33684.99
675.15	33832.44
675.29	33642.86
675.43	33275.40
675.56	33647.54
675.70	33439.23
675.84	33186.46
675.98	32322.80
676.12	33387.74
676.26	33539.88
676.40	33198.16
676.54	32409.40
676.68	32903.25
676.82	32086.40
676.96	32725.37
677.10	32779.20
677.23	32814.31
677.37	32442.17
677.51	32446.85
677.65	32383.65
677.79	31999.80
677.93	32055.98
678.07	31875.76
678.21	31913.20
678.34	31821.92
678.48	31550.42
678.62	31585.53
678.76	31248.49
678.90	31250.83
679.04	31419.35
679.18	31321.05
679.31	31042.53
679.45	30927.84
679.59	30902.09
679.73	30962.95
679.87	30553.35
680.00	30541.65
680.14	30600.16
680.28	30607.19
680.42	30405.90
680.56	30169.51
680.70	29806.72
680.83	29736.51
680.97	30249.08
681.11	30221.00
681.25	30052.48
681.39	29263.72
681.52	29663.95
681.66	29319.89
681.80	29144.35
681.94	28664.54
682.07	28987.53
682.21	28718.37
682.35	28868.17
682.49	28816.68
682.62	28671.56
682.76	28498.36
682.90	28643.48
683.04	28580.28
683.17	28606.03
683.31	28137.92
683.45	28238.56
683.59	27651.09
683.72	27386.61
683.86	27845.35
684.00	27697.90
684.13	27395.97
684.27	27421.72
684.41	27456.82
684.55	27314.05
684.68	27129.15
684.82	26904.46
684.96	27339.80
685.09	27070.64
685.23	27400.65
685.37	27241.50
685.50	27182.98
685.64	27267.24
685.78	26504.23
685.91	26572.10
686.05	25993.99
686.19	25661.63
686.32	25907.39
686.46	25860.58
686.60	25717.81
686.73	25919.09
686.87	25411.20
687.01	26047.82
687.14	25504.82
687.28	25446.30
687.42	25142.03
687.55	25043.73
687.69	25256.72
687.82	25181.82
687.96	25352.68
688.10	24989.90
688.23	24961.81
688.37	24893.94
688.50	24868.19
688.64	24910.32
688.78	24547.54
688.91	24489.03
689.05	23789.20
689.18	24278.38
689.32	23943.68
689.46	23789.20
689.59	23840.70
689.73	24102.84
689.86	23803.25
690.00	23543.45
690.13	23857.08
690.27	23761.12
690.41	23772.82
690.54	23384.29
690.68	23178.33
690.81	23269.61
690.95	23000.44
691.08	23028.53
691.22	22778.09
691.35	22635.32
691.49	22717.24
691.62	22698.52
691.76	22171.89
691.89	22209.34
692.03	22108.70
692.16	21928.48
692.30	21937.84
692.43	21678.04
692.57	21635.91
692.70	21619.53
692.84	21546.97
692.97	21249.72
693.11	21596.12
693.24	21326.96
693.38	21097.59
693.51	21036.74
693.65	21001.63
693.78	20919.71
693.92	20826.09
694.05	20702.04
694.19	20601.40
694.32	20575.65
694.45	20844.81
694.59	20638.84
694.72	20589.69
694.86	20372.02
694.99	19805.61
695.13	19880.51
695.26	19929.66
695.39	19688.59
695.53	19955.41
695.66	19913.28
695.80	19751.78
695.93	19393.68
696.07	19681.56
696.20	19250.91
696.33	18824.93
696.47	19026.21
696.60	18953.66
696.73	19019.19
696.87	19110.47
697.00	19056.64
697.14	18640.03
697.27	18738.33
697.40	18686.84
697.54	18572.15
697.67	18148.51
697.80	18553.43
697.94	18134.47
698.07	18181.28
698.21	18026.81
698.34	17748.28
698.47	17624.23
698.61	17563.38
698.74	17685.09
698.87	17837.22
699.01	17371.46
699.14	17731.90
699.27	17717.86
699.40	17221.66
699.54	17118.68
699.67	17366.78
699.80	17238.05
699.94	17078.89
700.07	16879.94
700.20	16989.95
700.34	16936.12
700.47	16961.86
700.60	16765.26
700.73	16994.63
700.87	16807.39
701.00	16198.85
701.13	16229.27
701.26	16294.81
701.40	16315.87
701.53	15854.79
701.66	16088.84
701.79	16035.01
701.93	15964.79
702.06	15681.59
702.19	15534.14
702.32	15751.81
702.46	15651.16
702.59	15606.69
702.72	15733.08
702.85	15379.66
702.99	15517.75
703.12	15274.34
703.25	15143.27
703.38	14993.47
703.51	15143.27
703.65	14860.06
703.78	14590.90
703.91	14422.38
704.04	14654.09
704.17	14424.72
704.31	14209.39
704.44	14403.66
704.57	14422.38
704.70	14466.85
704.83	14031.51
704.96	14057.26
705.10	13956.61
705.23	14118.11
>>>>>End Processed Spectral Data<<<<<
