SpectraSuite Data File
++++++++++++++++++++++++++++++++++++
Date: Fri Oct 25 10:47:19 EDT 2013
User: price-jones
Dark Spectrum Present: No
Reference Spectrum Present: No
Number of Sampled Component Spectra: 1
Spectrometers: USB2+H05261
Integration Time (usec): 100000 (USB2+H05261)
Spectra Averaged: 1 (USB2+H05261)
Boxcar Smoothing: 0 (USB2+H05261)
Correct for Electrical Dark: No (USB2+H05261)
Strobe/Lamp Enabled: No (USB2+H05261)
Correct for Detector Non-linearity: No (USB2+H05261)
Correct for Stray Light: No (USB2+H05261)
Number of Pixels in Processed Spectrum: 2048
>>>>>Begin Processed Spectral Data<<<<<
365.73	147.45
365.92	147.45
366.12	147.45
366.32	0.00
366.52	53.83
366.72	25.75
366.91	25.75
367.11	35.11
367.31	0.00
367.51	0.00
367.70	32.77
367.90	67.88
368.10	4.68
368.30	93.62
368.49	105.32
368.69	44.47
368.89	58.51
369.09	102.98
369.28	74.90
369.48	42.13
369.68	86.60
369.87	149.79
370.07	100.64
370.27	142.77
370.47	210.65
370.66	250.44
370.86	351.08
371.06	400.23
371.25	456.40
371.45	383.85
371.65	470.45
371.84	433.00
372.04	447.04
372.24	458.74
372.44	449.38
372.63	458.74
372.83	557.05
373.03	423.64
373.22	465.77
373.42	543.00
373.62	493.85
373.81	573.43
374.01	552.37
374.21	519.60
374.40	500.87
374.60	594.50
374.79	475.13
374.99	521.94
375.19	526.62
375.38	543.00
375.58	585.13
375.78	554.71
375.97	561.73
376.17	596.84
376.37	592.16
376.56	669.39
376.76	545.34
376.95	566.41
377.15	507.90
377.35	580.45
377.54	601.52
377.74	643.65
377.93	528.96
378.13	610.88
378.33	674.07
378.52	610.88
378.72	624.92
378.91	657.69
379.11	564.07
379.31	634.29
379.50	655.35
379.70	641.31
379.89	657.69
380.09	653.01
380.28	596.84
380.48	610.88
380.68	667.05
380.87	631.94
381.07	744.29
381.26	716.20
381.46	629.60
381.65	643.65
381.85	634.29
382.04	674.07
382.24	648.33
382.43	730.25
382.63	631.94
382.83	676.41
383.02	634.29
383.22	676.41
383.41	620.24
383.61	713.86
383.80	725.57
384.00	702.16
384.19	713.86
384.39	755.99
384.58	711.52
384.78	767.70
384.97	746.63
385.17	711.52
385.36	681.10
385.56	758.33
385.75	732.59
385.95	791.10
386.14	748.97
386.34	812.17
386.53	847.27
386.72	774.72
386.92	791.10
387.11	720.88
387.31	737.27
387.50	807.48
387.70	765.36
387.89	795.78
388.09	863.66
388.28	828.55
388.48	849.61
388.67	919.83
388.86	847.27
389.06	938.55
389.25	933.87
389.45	854.30
389.64	901.11
389.84	992.39
390.03	896.43
390.22	887.06
390.42	954.94
390.61	903.45
390.81	830.89
391.00	882.38
391.19	999.41
391.39	915.15
391.58	938.55
391.78	1093.03
391.97	1011.11
392.16	983.02
392.36	926.85
392.55	889.40
392.75	957.28
392.94	940.90
393.13	968.98
393.33	978.34
393.52	976.00
393.71	987.71
393.91	1034.52
394.10	1041.54
394.29	1104.73
394.49	964.30
394.68	1067.28
394.88	1107.07
395.07	1139.84
395.26	1128.14
395.46	1015.79
395.65	1025.15
395.84	1076.65
396.04	1163.25
396.23	1083.67
396.42	1083.67
396.62	1203.04
396.81	1142.18
397.00	1090.69
397.19	1142.18
397.39	1235.80
397.58	1231.12
397.77	1252.19
397.97	1212.40
398.16	1221.76
398.35	1270.91
398.55	1235.80
398.74	1240.48
398.93	1315.38
399.12	1287.29
399.32	1322.40
399.51	1299.00
399.70	1338.79
399.90	1317.72
400.09	1275.59
400.28	1341.13
400.47	1411.34
400.67	1383.26
400.86	1418.36
401.05	1359.85
401.24	1376.24
401.44	1441.77
401.63	1404.32
401.82	1507.30
402.01	1448.79
402.21	1406.66
402.40	1376.24
402.59	1544.75
402.78	1418.36
402.97	1467.52
403.17	1563.48
403.36	1523.69
403.55	1516.67
403.74	1554.12
403.93	1614.97
404.13	1565.82
404.32	1645.40
404.51	1556.46
404.70	1603.27
404.89	1591.56
405.09	1710.93
405.28	1600.93
405.47	1708.59
405.66	1666.46
405.85	1701.57
406.05	1699.23
406.24	1715.61
406.43	1727.32
406.62	1853.70
406.81	1806.89
407.00	1837.32
407.20	1802.21
407.39	1834.98
407.58	1818.60
407.77	1881.79
407.96	1825.62
408.15	1947.33
408.34	1909.88
408.54	1907.54
408.73	1968.39
408.92	1968.39
409.11	1968.39
409.30	1909.88
409.49	1961.37
409.68	2019.88
409.87	1991.80
410.07	2045.63
410.26	1998.82
410.45	2092.44
410.64	2010.52
410.83	2066.69
411.02	2085.42
411.21	2155.63
411.40	2181.38
411.59	2174.36
411.78	2251.60
411.98	2218.83
412.17	2216.49
412.36	2422.45
412.55	2246.91
412.74	2349.90
412.93	2392.03
413.12	2214.15
413.31	2539.48
413.50	2335.85
413.69	2422.45
413.88	2469.27
414.07	2614.38
414.26	2558.21
414.45	2434.16
414.64	2619.06
414.83	2609.70
415.02	2612.04
415.22	2588.63
415.41	2595.65
415.60	2677.57
415.79	2693.96
415.98	2787.58
416.17	2789.92
416.36	2780.56
416.55	2745.45
416.74	2806.30
416.93	2862.48
417.12	2813.32
417.31	2846.09
417.50	2871.84
417.69	2928.01
417.88	3007.59
418.07	2860.13
418.26	2974.82
418.45	3021.63
418.64	3122.27
418.83	3178.45
419.02	2984.18
419.21	3049.72
419.39	3117.59
419.58	2967.80
419.77	2991.20
419.96	3183.13
420.15	3138.66
420.34	3194.83
420.53	3136.32
420.72	3295.47
420.91	3213.56
421.10	3150.36
421.29	3487.40
421.48	3281.43
421.67	3307.18
421.86	3239.30
422.05	3375.05
422.24	3276.75
422.43	3358.67
422.61	3489.74
422.80	3391.44
422.99	3351.65
423.18	3318.88
423.37	3445.27
423.56	3459.31
423.75	3440.59
423.94	3407.82
424.13	3262.71
424.32	3246.32
424.50	3578.68
424.69	3524.85
424.88	3424.20
425.07	3478.04
425.26	3335.26
425.45	3440.59
425.64	3522.51
425.83	3389.10
426.01	3461.65
426.20	3508.46
426.39	3545.91
426.58	3396.12
426.77	3459.31
426.96	3541.23
427.15	3473.36
427.33	3552.93
427.52	3529.53
427.71	3712.09
427.90	3667.62
428.09	3723.79
428.28	3613.79
428.46	3707.41
428.65	3709.75
428.84	3796.35
429.03	3761.24
429.22	3702.73
429.40	3651.24
429.59	3707.41
429.78	3611.45
429.97	3585.70
430.16	3700.39
430.34	3735.50
430.53	3789.33
430.72	3833.80
430.91	3822.09
431.10	3714.43
431.28	3873.59
431.47	4011.68
431.66	4060.83
431.85	3908.69
432.03	4133.39
432.22	4049.13
432.41	4140.41
432.60	4152.11
432.79	4081.89
432.97	4147.43
433.16	4231.69
433.35	4098.28
433.54	4095.94
433.72	4086.58
433.91	4046.79
434.10	4138.07
434.28	4177.86
434.47	4191.90
434.66	4425.95
434.85	4334.67
435.03	4273.82
435.22	4278.50
435.41	4542.98
435.59	4358.08
435.78	4388.50
435.97	4472.76
436.16	4383.82
436.34	4470.42
436.53	4482.13
436.72	4514.89
436.90	4418.93
437.09	4561.70
437.28	4404.89
437.46	4601.49
437.65	4552.34
437.84	4531.28
438.02	4603.83
438.21	4734.90
438.40	4512.55
438.58	4622.56
438.77	4667.03
438.96	4655.33
439.14	4842.57
439.33	4901.08
439.52	4968.96
439.70	4908.10
439.89	4999.38
440.08	4915.12
440.26	4957.25
440.45	5083.64
440.63	5046.20
440.82	5029.81
441.01	5217.05
441.19	5118.75
441.38	5362.17
441.57	5383.23
441.75	5411.32
441.94	5479.19
442.12	5362.17
442.31	5455.79
442.50	5444.09
442.68	5558.77
442.87	5383.23
443.05	5451.11
443.24	5579.84
443.43	5530.69
443.61	5664.10
443.80	5626.65
443.98	5434.72
444.17	5308.34
444.35	5671.12
444.54	5720.27
444.73	5778.78
444.91	5652.39
445.10	5556.43
445.28	5551.75
445.47	5575.16
445.65	5696.86
445.84	5797.51
446.02	5652.39
446.21	5640.69
446.39	5788.14
446.58	5657.07
446.77	5877.09
446.95	5666.44
447.14	5926.24
447.32	5778.78
447.51	5839.64
447.69	5830.27
447.88	5816.23
448.06	5701.54
448.25	5521.32
448.43	5849.00
448.62	5605.58
448.80	5774.10
448.99	5905.17
449.17	5853.68
449.36	5977.73
449.54	6101.78
449.73	6033.90
449.91	6012.84
450.10	6164.97
450.28	6230.51
450.46	6197.74
450.65	6190.72
450.83	6113.48
451.02	6277.32
451.20	6179.01
451.39	6293.70
451.57	6216.46
451.76	6127.52
451.94	6251.57
452.13	6300.72
452.31	6305.40
452.49	6296.04
452.68	6356.90
452.86	6328.81
453.05	6478.60
453.23	6494.99
453.42	6272.64
453.60	6445.84
453.78	6497.33
453.97	6272.64
454.15	6429.45
454.34	6272.64
454.52	6698.61
454.70	6434.13
454.89	6441.15
455.07	6520.73
455.26	6623.72
455.44	6532.44
455.62	6736.06
455.81	6628.40
455.99	6738.40
456.17	6773.51
456.36	6747.76
456.54	6995.86
456.73	7126.93
456.91	7077.78
457.09	6993.52
457.28	7166.72
457.46	6860.11
457.64	7185.44
457.83	7112.89
458.01	7063.74
458.19	7098.84
458.38	7232.26
458.56	7206.51
458.74	7131.61
458.93	7030.97
459.11	7321.20
459.29	7438.22
459.48	7260.34
459.66	7281.41
459.84	7218.21
460.03	7398.43
460.21	7503.76
460.39	7515.46
460.57	7342.26
460.76	7316.51
460.94	7494.40
461.12	7482.69
461.31	7557.59
461.49	7618.44
461.67	7414.82
461.85	7562.27
462.04	7566.95
462.22	8051.44
462.40	7719.09
462.59	7751.85
462.77	7866.54
462.95	7948.46
463.13	7719.09
463.32	7840.79
463.50	7925.05
463.68	7946.12
463.86	7829.09
464.05	7772.92
464.23	7808.03
464.41	8159.11
464.59	7941.44
464.78	8070.17
464.96	7976.55
465.14	8004.63
465.32	8044.42
465.50	8201.24
465.69	8182.51
465.87	8138.04
466.05	8177.83
466.23	8332.31
466.41	8025.70
466.60	8400.18
466.78	8311.24
466.96	8184.85
467.14	8203.58
467.32	8334.65
467.51	8425.93
467.69	8065.49
467.87	8344.01
468.05	8542.96
468.23	8329.97
468.41	8437.63
468.60	8437.63
468.78	8528.91
468.96	8479.76
469.14	8468.06
469.32	8620.19
469.50	8430.61
469.69	8608.49
469.87	8814.46
470.05	8641.26
470.23	8730.20
470.41	8716.16
470.59	8648.28
470.77	8800.41
470.95	8791.05
471.14	8999.36
471.32	8688.07
471.50	8957.23
471.68	8990.00
471.86	9121.07
472.04	9001.70
472.22	9322.35
472.40	8973.61
472.58	9048.51
472.77	9156.18
472.95	9355.12
473.13	9776.42
473.31	9233.41
473.49	9242.78
473.67	9404.27
473.85	9530.66
474.03	9645.35
474.21	9816.21
474.39	9668.75
474.57	9724.93
474.75	9666.41
474.93	9968.34
475.12	9713.22
475.30	10036.22
475.48	9839.61
475.66	10193.03
475.84	9745.99
476.02	10097.07
476.20	9912.17
476.38	10230.48
476.56	10436.45
476.74	10499.64
476.92	10361.55
477.10	10490.28
477.28	10478.58
477.46	10630.71
477.64	10860.09
477.82	10960.73
478.00	11023.92
478.18	11286.06
478.36	10869.45
478.54	11042.65
478.72	11234.57
478.90	11485.01
479.08	11597.35
479.26	11740.13
479.44	11499.05
479.62	11630.12
479.80	11625.44
479.98	11847.79
480.16	12145.04
480.34	11913.33
480.52	12058.44
480.70	11950.78
480.88	12084.19
481.06	12107.59
481.24	12421.22
481.41	12482.08
481.59	12669.32
481.77	12746.56
481.95	12772.30
482.13	13078.91
482.31	12819.11
482.49	13233.39
482.67	13226.37
482.85	13202.96
483.03	13432.33
483.21	13490.85
483.39	13668.73
483.57	13448.72
483.74	13884.06
483.92	13743.63
484.10	13837.25
484.28	14300.67
484.46	14136.84
484.64	14637.71
484.82	14288.97
485.00	14443.45
485.18	14569.83
485.35	14670.48
485.53	14530.05
485.71	14829.63
485.89	14949.00
486.07	14696.22
486.25	14888.15
486.43	15225.18
486.61	15161.99
486.78	15653.50
486.96	15557.54
487.14	16020.97
487.32	15906.28
487.50	16072.46
487.68	16243.32
487.85	16320.56
488.03	16435.24
488.21	16556.95
488.39	16287.79
488.57	16893.99
488.75	16765.26
488.92	17174.85
489.10	17415.93
489.28	17392.52
489.46	17460.40
489.64	17444.01
489.81	17797.43
489.99	17848.93
490.17	18125.11
490.35	18174.26
490.53	18361.50
490.70	18384.91
490.88	18277.24
491.06	18539.38
491.24	18335.76
491.41	18515.98
491.59	18728.97
491.77	18714.92
491.95	19094.09
492.13	19501.34
492.30	19396.02
492.48	19332.82
492.66	19789.23
492.84	19686.25
493.01	19683.91
493.19	19775.19
493.37	20072.43
493.54	19719.01
493.72	20365.00
493.90	20269.04
494.08	20631.82
494.25	20680.97
494.43	20716.08
494.61	20835.45
494.79	20987.58
494.96	21135.04
495.14	21081.21
495.32	21312.92
495.49	21329.30
495.67	21659.32
495.85	21483.78
496.02	21837.20
496.20	21748.26
496.38	21940.18
496.55	21680.38
496.73	22576.81
496.91	22309.99
497.09	22324.03
497.26	22455.10
497.44	22661.07
497.62	22424.67
497.79	23084.70
497.97	22703.20
498.14	22998.10
498.32	23274.29
498.50	23510.68
498.67	23498.98
498.85	23372.59
499.03	23227.48
499.20	23414.72
499.38	23704.95
499.56	23491.96
499.73	23967.09
499.91	24144.97
500.08	24095.82
500.26	24002.19
500.44	24421.15
500.61	24044.32
500.79	23934.32
500.97	24346.25
501.14	24648.18
501.32	24800.32
501.49	24694.99
501.67	24549.88
501.84	24975.86
502.02	24884.58
502.20	25015.65
502.37	24903.30
502.55	25083.52
502.72	25315.23
502.90	25539.93
503.07	25050.75
503.25	25614.82
503.43	25443.96
503.60	25682.70
503.78	25832.49
503.95	25813.77
504.13	25921.43
504.30	26111.02
504.48	26494.86
504.65	26555.72
504.83	26085.27
505.01	26635.30
505.18	26396.56
505.36	26721.90
505.53	26480.82
505.71	27054.25
505.88	27080.00
506.06	26298.26
506.23	26988.72
506.41	26934.88
506.58	27161.92
506.76	27115.11
506.93	27400.65
507.11	27412.35
507.28	27513.00
507.46	27330.44
507.63	27604.28
507.81	27613.64
507.98	27545.76
508.16	27826.63
508.33	27658.11
508.50	27927.27
508.68	27857.06
508.85	27953.02
509.03	28416.44
509.20	28093.45
509.38	28350.91
509.55	28900.94
509.73	28357.93
509.90	28570.92
510.08	28664.54
510.25	29013.28
510.42	28615.39
510.60	28776.89
510.77	29240.31
510.95	29010.94
511.12	28746.46
511.30	28950.09
511.47	29146.69
511.64	29579.69
511.82	29549.26
511.99	29048.39
512.17	29689.70
512.34	29411.17
512.51	29876.94
512.69	29937.79
512.86	29572.67
513.04	30085.25
513.21	29837.15
513.38	29958.86
513.56	30155.46
513.73	30345.05
513.90	30380.15
514.08	30277.17
514.25	30405.90
514.43	30197.59
514.60	30553.35
514.77	30455.05
514.95	30731.23
515.12	30583.78
515.29	30974.65
515.47	30916.14
515.64	31154.87
515.81	30885.71
515.99	31204.02
516.16	31194.66
516.33	31323.39
516.51	31213.38
516.68	31084.65
516.85	30906.77
517.03	31419.35
517.20	31208.70
517.37	31796.18
517.54	31803.20
517.72	31718.94
517.89	32077.04
518.06	31543.40
518.24	31791.50
518.41	31498.93
518.58	31789.16
518.75	31920.23
518.93	32266.63
519.10	32058.32
519.27	32481.95
519.45	32512.38
519.62	32393.01
519.79	32582.60
519.96	32334.50
520.14	32950.06
520.31	32680.90
520.48	32245.56
520.65	32643.45
520.83	32823.67
521.00	33603.07
521.17	32921.98
521.34	32851.76
521.52	33221.56
521.69	33067.09
521.86	33205.18
522.03	33848.83
522.20	33610.09
522.38	33600.73
522.55	34291.19
522.72	34253.74
522.89	34019.69
523.07	33848.83
523.24	33352.63
523.41	33993.94
523.58	33883.94
523.75	34157.78
523.92	34232.68
524.10	34838.87
524.27	34061.82
524.44	34569.71
524.61	34096.92
524.78	34403.53
524.96	34998.03
525.13	34660.99
525.30	34995.69
525.47	35065.91
525.64	35220.38
525.81	34787.38
525.98	35143.14
526.16	34766.32
526.33	34448.00
526.50	35222.72
526.67	34934.84
526.84	35154.85
527.01	34995.69
527.18	34998.03
527.36	35510.61
527.53	35372.52
527.70	35538.69
527.87	35637.00
528.04	35456.78
528.21	35374.86
528.38	35796.15
528.55	35651.04
528.72	35618.27
528.89	36154.26
529.07	35842.96
529.24	35782.11
529.41	36149.57
529.58	35948.29
529.75	35967.01
529.92	36243.20
530.09	36304.05
530.26	35875.73
530.43	36182.34
530.60	36154.26
530.77	36318.09
530.94	36474.91
531.11	36449.16
531.28	36676.19
531.46	36582.57
531.63	36629.38
531.80	36701.94
531.97	36758.11
532.14	36893.86
532.31	36580.23
532.48	36463.21
532.65	37383.04
532.82	36924.29
532.99	36526.40
533.16	36793.22
533.33	36954.72
533.50	37500.06
533.67	37474.32
533.84	36657.47
534.01	36954.72
534.18	37308.14
534.35	37652.20
534.52	37322.18
534.69	37596.03
534.86	37303.46
535.03	37031.96
535.20	37750.50
535.37	37633.47
535.54	37940.08
535.71	37879.23
535.88	37572.62
536.05	37610.07
536.22	37869.87
536.38	38162.43
536.55	38089.88
536.72	38012.64
536.89	37600.71
537.06	38059.45
537.23	37874.55
537.40	37853.48
537.57	38162.43
537.74	38073.49
537.91	38129.67
538.08	38293.50
538.25	38457.34
538.42	38700.76
538.59	38455.00
538.75	38368.40
538.92	38408.19
539.09	38483.09
539.26	38548.62
539.43	38464.36
539.60	38693.74
539.77	38880.98
539.94	38808.42
540.11	38951.20
540.28	38663.31
540.44	38735.87
540.61	38979.28
540.78	38974.60
540.95	38892.68
541.12	38848.21
541.29	38785.02
541.46	39047.16
541.62	38773.31
541.79	39267.17
541.96	38937.15
542.13	39115.03
542.30	39264.83
542.47	39501.22
542.63	39196.95
542.80	39306.96
542.97	40016.14
543.14	39814.85
543.31	40320.41
543.48	39922.52
543.64	40769.79
543.81	40339.13
543.98	40524.04
544.15	40250.19
544.32	39864.00
544.48	40409.35
544.65	40231.47
544.82	40210.40
544.99	39744.64
545.16	39971.67
545.32	40315.73
545.49	40383.60
545.66	40531.06
545.83	40556.80
546.00	40973.42
546.16	41216.83
546.33	40467.86
546.50	40224.45
546.67	40605.95
546.83	40336.79
547.00	40622.34
547.17	40573.19
547.34	40460.84
547.50	40849.37
547.67	41305.77
547.84	40636.38
548.00	40975.76
548.17	40982.78
548.34	40898.52
548.51	41294.07
548.67	41088.10
548.84	41074.06
549.01	41123.21
549.18	40996.82
549.34	41177.04
549.51	41216.83
549.68	41415.78
549.84	41387.69
550.01	41460.25
550.18	41378.33
550.34	41296.41
550.51	41443.87
550.68	41486.00
550.84	40814.26
551.01	41359.61
551.18	41385.35
551.34	41703.67
551.51	41698.98
551.68	41722.39
551.84	41612.38
552.01	41764.52
552.18	41532.81
552.34	41357.27
552.51	41996.23
552.68	41830.05
552.84	42096.88
553.01	41841.76
553.18	41909.63
553.34	41471.95
553.51	41567.91
553.67	42206.88
553.84	42419.87
554.01	41855.80
554.17	42394.12
554.34	42593.07
554.51	42256.03
554.67	42155.39
554.84	42183.48
555.00	42363.70
555.17	42220.92
555.33	42405.83
555.50	42281.78
555.67	42354.33
555.83	42319.23
556.00	42403.49
556.16	42471.36
556.33	42569.66
556.50	42740.52
556.66	42597.75
556.83	42562.64
556.99	42756.91
557.16	42852.87
557.32	43007.34
557.49	42803.72
557.65	42436.25
557.82	41968.15
557.98	42845.85
558.15	42897.34
558.32	43075.22
558.48	42597.75
558.65	42689.03
558.81	42597.75
558.98	42855.21
559.14	42782.65
559.31	42850.53
559.47	42850.53
559.64	43049.47
559.80	43222.67
559.97	43187.56
560.13	43285.87
560.30	42817.76
560.46	43070.54
560.63	43035.43
560.79	43496.52
560.96	43388.85
561.12	42824.78
561.29	43185.22
561.45	43248.42
561.61	43196.93
561.78	43264.80
561.94	42887.98
562.11	43250.76
562.27	43182.88
562.44	43311.61
562.60	43313.95
562.77	43379.49
562.93	43278.85
563.10	43323.32
563.26	42710.10
563.42	43559.71
563.59	43318.64
563.75	43070.54
563.92	43484.81
564.08	43606.52
564.24	43145.44
564.41	43358.42
564.57	43091.60
564.74	43510.56
564.90	43983.35
565.07	43976.33
565.23	43655.67
565.39	43168.84
565.56	43297.57
565.72	43042.45
565.88	43166.50
566.05	43302.25
566.21	43323.32
566.38	43281.19
566.54	43756.32
566.70	43718.87
566.87	43693.12
567.03	43494.18
567.19	43725.89
567.36	43711.84
567.52	43545.67
567.68	43761.00
567.85	43519.92
568.01	43686.10
568.17	43363.11
568.34	44093.35
568.50	43377.15
568.66	44048.88
568.83	43800.79
568.99	43903.77
569.15	43924.83
569.32	43889.73
569.48	43917.81
569.64	43908.45
569.81	43901.43
569.97	43599.50
570.13	43948.24
570.30	44130.80
570.46	43550.35
570.62	43454.39
570.78	43386.51
570.95	43908.45
571.11	44383.58
571.27	44072.29
571.43	43721.21
571.60	43959.94
571.76	43885.04
571.92	43395.87
572.09	43770.36
572.25	43793.76
572.41	44098.03
572.57	43515.24
572.74	44828.28
572.90	43927.17
573.06	43992.71
573.22	44275.91
573.38	43735.25
573.55	43789.08
573.71	44271.23
573.87	44364.85
574.03	43498.86
574.20	44023.14
574.36	43840.57
574.52	44360.17
574.68	43892.07
574.84	44069.95
575.01	44079.31
575.17	44245.49
575.33	44107.40
575.49	43826.53
575.65	44081.65
575.82	44507.63
575.98	44362.51
576.14	44369.54
576.30	43863.98
576.46	44278.25
576.62	44107.40
576.79	44182.29
576.95	44004.41
577.11	44208.04
577.27	43763.34
577.43	43924.83
577.59	44037.18
577.75	44034.84
577.92	43821.85
578.08	43576.09
578.24	43770.36
578.40	44105.06
578.56	44025.48
578.72	43978.67
578.88	44411.67
579.04	44219.74
579.21	44268.89
579.37	44121.44
579.53	43824.19
579.69	43973.98
579.85	43995.05
580.01	44250.17
580.17	44362.51
580.33	44704.23
580.49	44292.30
580.65	44292.30
580.82	44563.80
580.98	44446.77
581.14	44154.21
581.30	44144.84
581.46	43873.34
581.62	43854.62
581.78	44023.14
581.94	44428.05
582.10	44353.15
582.26	44582.52
582.42	44507.63
582.58	44346.13
582.74	43838.23
582.90	44318.04
583.06	44208.04
583.22	44556.78
583.38	44222.08
583.54	44268.89
583.70	44149.53
583.86	44397.62
584.02	43861.64
584.18	44196.34
584.34	44313.36
584.50	44364.85
584.66	44165.91
584.82	43894.41
584.98	44664.44
585.14	44322.72
585.30	44224.42
585.46	44224.42
585.62	44107.40
585.78	44327.41
585.94	44212.72
586.10	43943.56
586.26	44275.91
586.42	44020.80
586.58	44053.56
586.74	44397.62
586.90	44289.96
587.06	44219.74
587.22	44266.55
587.38	44161.23
587.54	44800.19
587.70	44076.97
587.86	44669.12
588.02	44285.28
588.18	44935.95
588.34	44430.39
588.49	44383.58
588.65	44203.36
588.81	43999.73
588.97	44306.34
589.13	44350.81
589.29	44514.65
589.45	44615.29
589.61	44142.50
589.77	44748.70
589.93	44524.01
590.08	44425.71
590.24	44603.59
590.40	44842.32
590.56	44706.57
590.72	44425.71
590.88	44519.33
591.04	44776.79
591.20	45055.31
591.35	44643.38
591.51	45085.74
591.67	44657.42
591.83	44669.12
591.99	44734.66
592.15	44231.44
592.31	44643.38
592.46	44545.08
592.62	44638.70
592.78	44779.13
592.94	44327.41
593.10	44669.12
593.26	44692.53
593.41	44437.41
593.57	44402.30
593.73	44488.90
593.89	44964.03
594.05	44774.45
594.20	44858.71
594.36	45043.61
594.52	44804.88
594.68	44648.06
594.84	44580.18
594.99	44987.44
595.15	44598.91
595.31	44924.24
595.47	44886.79
595.62	45052.97
595.78	44289.96
595.94	45186.38
596.10	44910.20
596.25	44760.40
596.41	44865.73
596.57	44381.24
596.73	44549.76
596.88	44404.64
597.04	44575.50
597.20	44641.04
597.36	44804.88
597.51	44795.51
597.67	44694.87
597.83	45188.72
597.99	45059.99
598.14	44816.58
598.30	44416.35
598.46	44561.46
598.61	44528.69
598.77	44201.02
598.93	44582.52
599.09	44570.82
599.24	44872.75
599.40	44622.31
599.56	44680.83
599.71	44512.31
599.87	44868.07
600.03	45097.44
600.18	44830.62
600.34	44718.28
600.50	44655.08
600.65	44360.17
600.81	44975.73
600.97	45296.39
601.12	45226.17
601.28	44868.07
601.44	44617.63
601.59	45015.52
601.75	44664.44
601.91	44832.96
602.06	44687.85
602.22	45223.83
602.37	44935.95
602.53	44734.66
602.69	45338.52
602.84	44804.88
603.00	44964.03
603.16	44491.24
603.31	44652.74
603.47	45233.19
603.62	44493.58
603.78	44842.32
603.94	45155.96
604.09	45104.46
604.25	45099.78
604.40	44671.46
604.56	44865.73
604.71	44568.48
604.87	44905.52
605.03	44725.30
605.18	44486.56
605.34	44737.00
605.49	44516.99
605.65	44753.38
605.80	44687.85
605.96	45076.38
606.12	44931.26
606.27	44760.40
606.43	44402.30
606.58	44935.95
606.74	44458.48
606.89	44725.30
607.05	44538.05
607.20	44720.62
607.36	44219.74
607.51	44893.82
607.67	44818.92
607.82	44650.40
607.98	44863.39
608.13	44289.96
608.29	44839.98
608.44	43948.24
608.60	44521.67
608.75	44313.36
608.91	44652.74
609.06	44552.10
609.22	45099.78
609.37	44619.97
609.53	44463.16
609.68	44552.10
609.84	44210.38
609.99	44891.48
610.15	44147.18
610.30	43896.75
610.46	43758.66
610.61	44163.57
610.76	44236.12
610.92	44048.88
611.07	44198.68
611.23	43847.60
611.38	44004.41
611.54	43997.39
611.69	44327.41
611.84	43796.10
612.00	43868.66
612.15	43910.79
612.31	44069.95
612.46	44062.93
612.62	44402.30
612.77	44238.47
612.92	43892.07
613.08	43723.55
613.23	44081.65
613.39	43833.55
613.54	43538.65
613.69	43695.46
613.85	43901.43
614.00	43908.45
614.15	44397.62
614.31	44123.78
614.46	43943.56
614.62	43842.92
614.77	44128.46
614.92	43868.66
615.08	43716.53
615.23	44013.77
615.38	43360.76
615.54	43072.88
615.69	43662.69
615.84	43388.85
616.00	43545.67
616.15	43693.12
616.30	43753.97
616.46	43370.13
616.61	43299.91
616.76	43026.07
616.92	43140.75
617.07	43353.74
617.22	43241.40
617.37	43185.22
617.53	43550.35
617.68	43473.11
617.83	43281.19
617.99	43309.27
618.14	43475.45
618.29	43274.16
618.45	43145.44
618.60	43435.66
618.75	42939.47
618.90	43164.16
619.06	43573.75
619.21	43342.04
619.36	42976.92
619.51	42866.91
619.67	43002.66
619.82	43255.44
619.97	43292.89
620.12	42742.86
620.28	42948.83
620.43	42897.34
620.58	43222.67
620.73	42712.44
620.89	42742.86
621.04	43328.00
621.19	43292.89
621.34	42532.22
621.49	42792.01
621.65	42754.57
621.80	43253.10
621.95	42298.16
622.10	42899.68
622.25	42925.42
622.41	42417.53
622.56	42508.81
622.71	43016.71
622.86	42660.94
623.01	42724.14
623.16	42637.54
623.32	42410.51
623.47	42857.55
623.62	42543.92
623.77	42836.48
623.92	42880.95
624.07	42356.67
624.23	42092.19
624.38	42206.88
624.53	42354.33
624.68	42541.58
624.83	42363.70
624.98	42307.52
625.13	42082.83
625.29	42637.54
625.44	42038.36
625.59	41633.45
625.74	41893.25
625.89	41808.99
626.04	41689.62
626.19	41799.63
626.34	42417.53
626.49	42127.30
626.65	42010.28
626.80	42415.19
626.95	42412.85
627.10	41528.13
627.25	41778.56
627.40	41675.58
627.55	41558.55
627.70	40828.30
627.85	41523.44
628.00	41516.42
628.15	42190.50
628.30	42094.53
628.45	42085.17
628.60	41455.57
628.76	41862.82
628.91	41904.95
629.06	41649.83
629.21	41752.82
629.36	41373.65
629.51	41413.44
629.66	41404.08
629.81	41207.47
629.96	41050.66
630.11	41200.45
630.26	41706.01
630.41	41284.71
630.56	41095.13
630.71	41202.79
630.86	41486.00
631.01	40999.16
631.16	41574.94
631.31	41008.53
631.46	40170.61
631.61	40818.94
631.76	41214.49
631.91	41209.81
632.06	40753.41
632.21	41120.87
632.36	41436.84
632.51	40584.89
632.66	41057.68
632.81	40718.30
632.96	40945.33
633.10	40062.95
633.25	40741.71
633.40	40830.65
633.55	41118.53
633.70	40865.75
633.85	40601.27
634.00	40832.99
634.15	40627.02
634.30	40666.81
634.45	40751.07
634.60	40802.56
634.75	40823.62
634.90	40533.40
635.05	40758.09
635.19	40236.15
635.34	41319.82
635.49	40655.11
635.64	40308.71
635.79	39952.94
635.94	40100.40
636.09	40556.80
636.24	40437.44
636.39	40268.92
636.53	40484.25
636.68	39962.31
636.83	39805.49
636.98	40067.63
637.13	39793.79
637.28	40378.92
637.43	40140.19
637.57	40231.47
637.72	40282.96
637.87	40402.33
638.02	40034.86
638.17	40105.08
638.32	39489.52
638.46	40126.14
638.61	39519.95
638.76	39487.18
638.91	39929.54
639.06	39643.99
639.20	40062.95
639.35	39688.46
639.50	39880.39
639.65	40137.85
639.80	40114.44
639.94	39660.38
640.09	39541.01
640.24	39697.83
640.39	39463.77
640.54	39587.82
640.68	39442.71
640.83	39580.80
640.98	39847.62
641.13	39519.95
641.27	40023.16
641.42	39082.27
641.57	39402.92
641.72	39620.59
641.86	39112.69
642.01	39007.37
642.16	39105.67
642.31	38731.18
642.45	39337.38
642.60	38747.57
642.75	38602.46
642.90	38831.83
643.04	39065.88
643.19	39124.40
643.34	39491.86
643.48	39192.27
643.63	39358.45
643.78	38983.96
643.93	38808.42
644.07	38803.74
644.22	38962.90
644.37	38782.68
644.51	38778.00
644.66	38539.26
644.81	38684.37
644.95	38583.73
645.10	38766.29
645.25	39316.32
645.39	39421.64
645.54	39290.57
645.69	39040.14
645.83	38607.14
645.98	38349.68
646.13	38586.07
646.27	38857.57
646.42	38602.46
646.57	39091.63
646.71	38726.50
646.86	38815.44
647.00	38852.89
647.15	38927.79
647.30	38583.73
647.44	38473.73
647.59	38497.13
647.74	38157.75
647.88	38410.53
648.03	38396.49
648.17	38244.35
648.32	38136.69
648.47	38447.98
648.61	38066.47
648.76	38693.74
648.90	37991.58
649.05	38202.22
649.20	38724.16
649.34	38003.28
649.49	38143.71
649.63	37757.52
649.78	38211.59
649.92	38061.79
650.07	38279.46
650.21	37881.57
650.36	37792.63
650.51	37741.14
650.65	38132.01
650.80	38305.21
650.94	37766.88
651.09	38272.44
651.23	38031.36
651.38	37769.22
651.52	37860.51
651.67	38047.75
651.81	37776.25
651.96	37539.85
652.10	37818.38
652.25	37226.22
652.39	37682.62
652.54	37589.00
652.68	37605.39
652.83	37743.48
652.97	37738.80
653.12	37813.70
653.26	37471.98
653.41	37661.56
653.55	37401.76
653.70	37184.09
653.84	37432.19
653.99	37682.62
654.13	37317.50
654.27	37427.51
654.42	37514.11
654.56	37392.40
654.71	37551.56
654.85	37317.50
655.00	37303.46
655.14	37069.40
655.29	36905.57
655.43	36566.19
655.57	36961.74
655.72	37242.60
655.86	36765.14
656.01	37228.56
656.15	36690.24
656.30	36905.57
656.44	37170.05
656.58	36847.05
656.73	36507.68
656.87	36863.44
657.01	36332.14
657.16	36631.72
657.30	36463.21
657.45	36297.03
657.59	36971.10
657.73	36334.48
657.88	36643.43
658.02	36631.72
658.16	36947.70
658.31	36315.75
658.45	36854.08
658.60	36435.12
658.74	36191.70
658.88	36648.11
659.03	36308.73
659.17	36044.25
659.31	36446.82
659.46	36435.12
659.60	36325.11
659.74	36065.31
659.89	35590.19
660.03	35950.63
660.17	35857.01
660.32	36144.89
660.46	36360.22
660.60	36259.58
660.74	35700.19
660.89	35959.99
661.03	35615.93
661.17	35859.35
661.32	35454.44
661.46	35599.55
661.60	35541.03
661.74	35367.84
661.89	35295.28
662.03	35328.05
662.17	35409.96
662.31	35372.52
662.46	35374.86
662.60	35438.05
662.74	35133.78
662.88	35016.75
663.03	35346.77
663.17	35318.68
663.31	35112.72
663.45	34934.84
663.60	35096.33
663.74	34590.78
663.88	35023.78
664.02	34789.72
664.17	34740.57
664.31	34164.80
664.45	34455.03
664.59	34532.26
664.73	34649.29
664.88	34415.24
665.02	34143.74
665.16	34244.38
665.30	34478.43
665.44	34244.38
665.59	34054.79
665.73	33876.91
665.87	33874.57
666.01	33895.64
666.15	33684.99
666.29	33378.38
666.44	34171.82
666.58	33663.93
666.72	34235.02
666.86	34092.24
667.00	34061.82
667.14	33853.51
667.28	33708.40
667.43	33289.44
667.57	33284.76
667.71	33699.03
667.85	33722.44
667.99	33404.13
668.13	33399.44
668.27	33170.07
668.41	33443.91
668.56	33048.36
668.70	33120.92
668.84	33284.76
668.98	33163.05
669.12	32875.16
669.26	33071.77
669.40	32748.78
669.54	32900.91
669.68	32837.72
669.82	33041.34
669.96	32507.70
670.10	32388.33
670.25	32725.37
670.39	32779.20
670.53	32767.50
670.67	32451.53
670.81	32189.39
670.95	32692.60
671.09	32811.97
671.23	32591.96
671.37	32568.55
671.51	32053.64
671.65	32086.40
671.79	31740.00
671.93	31730.64
672.07	31901.50
672.21	32182.37
672.35	31501.27
672.49	31840.65
672.63	31702.56
672.77	31742.35
672.91	31466.16
673.05	31395.95
673.19	31377.22
673.33	31426.37
673.47	31185.30
673.61	31182.96
673.75	31112.74
673.89	30794.43
674.03	30866.98
674.17	30789.75
674.31	30902.09
674.45	30630.59
674.59	30607.19
674.73	30738.26
674.87	30632.93
675.01	30583.78
675.15	30799.11
675.29	30438.67
675.43	30302.92
675.56	30536.97
675.70	30614.21
675.84	29958.86
675.98	29209.89
676.12	29757.57
676.26	29853.53
676.40	29867.58
676.54	29525.86
676.68	29635.86
676.82	29163.08
676.96	29230.95
677.10	29647.57
677.23	29394.79
677.37	29497.77
677.51	29247.33
677.65	29099.88
677.79	28804.97
677.93	28533.47
678.07	28844.76
678.21	28636.45
678.34	28795.61
678.48	28280.69
678.62	28397.72
678.76	28606.03
678.90	28137.92
679.04	28460.91
679.18	28503.04
679.31	27601.94
679.45	27503.64
679.59	27728.33
679.73	27571.51
679.87	27688.54
680.00	27524.70
680.14	27274.26
680.28	27445.12
680.42	26902.12
680.56	27215.75
680.70	27433.42
680.83	27234.47
680.97	26890.41
681.11	26857.65
681.25	26717.22
681.39	27133.83
681.52	26787.43
681.66	27040.21
681.80	26658.70
681.94	26401.24
682.07	26691.47
682.21	26010.37
682.35	26359.11
682.49	26183.57
682.62	26092.29
682.76	26080.59
682.90	25764.62
683.04	25804.41
683.17	25535.24
683.31	25851.22
683.45	25748.23
683.59	25666.31
683.72	25046.07
683.86	25032.03
684.00	25181.82
684.13	25025.01
684.27	25109.27
684.41	24966.49
684.55	24865.85
684.68	24800.32
684.82	24996.92
684.96	24563.92
685.09	24706.70
685.23	24217.52
685.37	24496.05
685.50	24175.39
685.64	24219.86
685.78	23838.36
685.91	24063.05
686.05	24198.80
686.19	23676.86
686.32	23580.90
686.46	23665.16
686.60	23679.20
686.73	23400.68
686.87	23262.58
687.01	23236.84
687.14	23262.58
687.28	23152.58
687.42	23089.38
687.55	22780.43
687.69	22843.63
687.82	22834.27
687.96	22801.50
688.10	22551.06
688.23	22506.59
688.37	22506.59
688.50	21916.78
688.64	22162.53
688.78	22005.72
688.91	22024.44
689.05	21884.01
689.18	22160.19
689.32	21685.06
689.46	21928.48
689.59	22312.33
689.73	22111.04
689.86	21692.08
690.00	21661.66
690.13	21626.55
690.27	21509.52
690.41	21570.38
690.54	21156.10
690.68	20877.58
690.81	21055.46
690.95	20662.25
691.08	20957.16
691.22	20624.80
691.35	20727.78
691.49	21090.57
691.62	20617.78
691.76	20744.17
691.89	20423.51
692.03	20388.41
692.16	20259.68
692.30	20306.49
692.43	20262.02
692.57	20095.84
692.70	20255.00
692.84	19814.98
692.97	19751.78
693.11	19421.77
693.24	19295.38
693.38	19606.67
693.51	19302.40
693.65	19545.81
693.78	19246.23
693.92	19344.53
694.05	19133.88
694.19	18998.13
694.32	19066.00
694.45	19037.92
694.59	18810.89
694.72	18621.30
694.86	18635.35
694.99	18782.80
695.13	18469.17
695.26	18429.38
695.39	18082.98
695.53	18354.48
695.66	18295.97
695.80	18443.42
695.93	17970.63
696.07	18146.17
696.20	17825.52
696.33	17839.56
696.47	17619.55
696.60	17802.11
696.73	17514.23
696.87	17331.67
697.00	17563.38
697.14	17345.71
697.27	17359.75
697.40	17664.02
697.54	17261.45
697.67	17294.22
697.80	17280.18
697.94	16793.34
698.07	16697.38
698.21	17025.06
698.34	16842.50
698.47	16791.00
698.61	16432.90
698.74	16709.08
698.87	16528.86
699.01	16379.07
699.14	16175.44
699.27	16266.72
699.40	16095.86
699.54	16280.77
699.67	15906.28
699.80	16168.42
699.94	16109.91
700.07	16215.23
700.20	15894.58
700.34	15655.84
700.47	15829.04
700.60	15990.54
700.73	15960.11
700.87	15775.21
701.00	15557.54
701.13	15328.17
701.26	15433.49
701.40	15108.16
701.53	15105.82
701.66	15477.96
701.79	15288.38
701.93	15190.08
702.06	14757.08
702.19	14778.14
702.32	14871.76
702.46	14415.36
702.59	14752.40
702.72	14649.41
702.85	14370.89
702.99	14441.11
703.12	14668.14
703.25	14443.45
703.38	14321.74
703.51	14157.90
703.65	14204.71
703.78	14111.09
703.91	13710.86
704.04	14106.41
704.17	13769.37
704.31	13884.06
704.44	13734.26
704.57	13455.74
704.70	13486.17
704.83	13331.69
704.96	13511.91
705.10	13486.17
705.23	13490.85
>>>>>End Processed Spectral Data<<<<<
