SpectraSuite Data File
++++++++++++++++++++++++++++++++++++
Date: Fri Oct 25 11:34:25 EDT 2013
User: price-jones
Dark Spectrum Present: No
Reference Spectrum Present: No
Number of Sampled Component Spectra: 1
Spectrometers: USB2+H05261
Integration Time (usec): 100000 (USB2+H05261)
Spectra Averaged: 1 (USB2+H05261)
Boxcar Smoothing: 0 (USB2+H05261)
Correct for Electrical Dark: No (USB2+H05261)
Strobe/Lamp Enabled: No (USB2+H05261)
Correct for Detector Non-linearity: No (USB2+H05261)
Correct for Stray Light: No (USB2+H05261)
Number of Pixels in Processed Spectrum: 2048
>>>>>Begin Processed Spectral Data<<<<<
365.73	337.04
365.92	337.04
366.12	337.04
366.32	217.67
366.52	217.67
366.72	205.97
366.91	236.39
367.11	159.16
367.31	180.22
367.51	191.92
367.70	191.92
367.90	177.88
368.10	177.88
368.30	170.86
368.49	168.52
368.69	248.10
368.89	234.05
369.09	191.92
369.28	203.63
369.48	201.29
369.68	245.76
369.87	280.86
370.07	203.63
370.27	308.95
370.47	313.63
370.66	498.53
370.86	489.17
371.06	589.82
371.25	596.84
371.45	554.71
371.65	554.71
371.84	568.75
372.04	617.90
372.24	578.11
372.44	547.69
372.63	610.88
372.83	561.73
373.03	676.41
373.22	543.00
373.42	615.56
373.62	587.47
373.81	589.82
374.01	575.77
374.21	624.92
374.40	641.31
374.60	671.73
374.79	718.54
374.99	662.37
375.19	638.97
375.38	664.71
375.58	711.52
375.78	606.20
375.97	671.73
376.17	660.03
376.37	638.97
376.56	655.35
376.76	664.71
376.95	573.43
377.15	706.84
377.35	688.12
377.54	615.56
377.74	617.90
377.93	603.86
378.13	688.12
378.33	674.07
378.52	713.86
378.72	699.82
378.91	678.76
379.11	643.65
379.31	730.25
379.50	704.50
379.70	791.10
379.89	723.23
380.09	688.12
380.28	725.57
380.48	655.35
380.68	690.46
380.87	695.14
381.07	655.35
381.26	734.93
381.46	695.14
381.65	784.08
381.85	695.14
382.04	725.57
382.24	760.67
382.43	751.31
382.63	746.63
382.83	690.46
383.02	826.21
383.22	812.17
383.41	807.48
383.61	842.59
383.80	854.30
384.00	774.72
384.19	840.25
384.39	777.06
384.58	798.12
384.78	840.25
384.97	868.34
385.17	875.36
385.36	835.57
385.56	837.91
385.75	741.95
385.95	915.15
386.14	882.38
386.34	777.06
386.53	833.23
386.72	786.42
386.92	929.19
387.11	812.17
387.31	875.36
387.50	870.68
387.70	861.32
387.89	924.51
388.09	830.89
388.28	870.68
388.48	873.02
388.67	894.08
388.86	837.91
389.06	940.90
389.25	959.62
389.45	940.90
389.64	917.49
389.84	919.83
390.03	924.51
390.22	966.64
390.42	924.51
390.61	968.98
390.81	933.87
391.00	961.96
391.19	990.05
391.39	901.11
391.58	1025.15
391.78	978.34
391.97	961.96
392.16	973.66
392.36	1137.50
392.55	1029.84
392.75	1011.11
392.94	1018.13
393.13	1027.50
393.33	1027.50
393.52	954.94
393.71	1022.81
393.91	1139.84
394.10	985.37
394.29	1078.99
394.49	1123.46
394.68	1090.69
394.88	1081.33
395.07	1057.92
395.26	1032.18
395.46	1121.12
395.65	1163.25
395.84	1125.80
396.04	1212.40
396.23	1181.97
396.42	1207.72
396.62	1188.99
396.81	1207.72
397.00	1179.63
397.19	1263.89
397.39	1167.93
397.58	1280.27
397.77	1170.27
397.97	1259.21
398.16	1207.72
398.35	1217.08
398.55	1329.42
398.74	1242.82
398.93	1324.74
399.12	1214.74
399.32	1270.91
399.51	1242.82
399.70	1282.61
399.90	1392.62
400.09	1345.81
400.28	1240.48
400.47	1315.38
400.67	1343.47
400.86	1364.53
401.05	1306.02
401.24	1437.09
401.44	1313.04
401.63	1378.58
401.82	1343.47
402.01	1444.11
402.21	1416.02
402.40	1432.41
402.59	1392.62
402.78	1392.62
402.97	1455.81
403.17	1497.94
403.36	1500.28
403.55	1502.62
403.74	1481.56
403.93	1640.72
404.13	1530.71
404.32	1598.59
404.51	1535.39
404.70	1589.22
404.89	1640.72
405.09	1643.06
405.28	1629.01
405.47	1619.65
405.66	1586.88
405.85	1612.63
406.05	1671.14
406.24	1650.08
406.43	1659.44
406.62	1717.95
406.81	1790.51
407.00	1671.14
407.20	1788.17
407.39	1753.06
407.58	1790.51
407.77	1820.94
407.96	1874.77
408.15	1837.32
408.34	1706.25
408.54	1806.89
408.73	1820.94
408.92	1851.36
409.11	1954.35
409.30	1893.49
409.49	1982.43
409.68	1980.09
409.87	2005.84
410.07	1888.81
410.26	2057.33
410.45	2073.71
410.64	1937.96
410.83	1998.82
411.02	2045.63
411.21	2052.65
411.40	1973.07
411.59	2139.25
411.78	2125.21
411.98	2111.16
412.17	2118.18
412.36	2069.03
412.55	2150.95
412.74	2347.56
412.93	2237.55
413.12	2296.07
413.31	2312.45
413.50	2333.51
413.69	2370.96
413.88	2363.94
414.07	2434.16
414.26	2394.37
414.45	2495.01
414.64	2333.51
414.83	2434.16
415.02	2504.37
415.22	2600.34
415.41	2588.63
415.60	2539.48
415.79	2511.39
415.98	2546.50
416.17	2635.44
416.36	2733.75
416.55	2576.93
416.74	2752.47
416.93	2719.70
417.12	2654.17
417.31	2782.90
417.50	2759.49
417.69	2766.51
417.88	2918.65
418.07	2881.20
418.26	2740.77
418.45	2874.18
418.64	2881.20
418.83	2895.24
419.02	2937.37
419.21	2953.76
419.39	2946.73
419.58	2972.48
419.77	2979.50
419.96	3035.67
420.15	2956.10
420.34	2911.63
420.53	2979.50
420.72	3070.78
420.91	3199.51
421.10	3143.34
421.29	3227.60
421.48	3049.72
421.67	3115.25
421.86	3089.51
422.05	3155.04
422.24	3150.36
422.43	3215.90
422.61	3236.96
422.80	3286.11
422.99	3239.30
423.18	3293.13
423.37	3414.84
423.56	3248.66
423.75	3351.65
423.94	3180.79
424.13	3028.65
424.32	3243.98
424.50	3304.84
424.69	3344.63
424.88	3358.67
425.07	3222.92
425.26	3173.77
425.45	3185.47
425.64	3302.50
425.83	3201.85
426.01	3421.86
426.20	3295.47
426.39	3349.31
426.58	3454.63
426.77	3323.56
426.96	3496.76
427.15	3421.86
427.33	3564.64
427.52	3384.41
427.71	3559.95
427.90	3456.97
428.09	3552.93
428.28	3578.68
428.46	3499.10
428.65	3473.36
428.84	3571.66
429.03	3681.66
429.22	3524.85
429.40	3599.74
429.59	3660.60
429.78	3501.44
429.97	3562.30
430.16	3749.54
430.34	3733.15
430.53	3737.84
430.72	3796.35
430.91	3751.88
431.10	3695.71
431.28	3810.39
431.47	3721.45
431.66	3866.56
431.85	3843.16
432.03	3871.25
432.22	3988.27
432.41	3829.12
432.60	3932.10
432.79	3948.48
432.97	3871.25
433.16	3843.16
433.35	3927.42
433.54	4014.02
433.72	4086.58
433.91	4095.94
434.10	4025.72
434.28	3950.82
434.47	4058.49
434.66	4194.24
434.85	4086.58
435.03	4180.20
435.22	4170.83
435.41	4224.67
435.59	4212.96
435.78	4231.69
435.97	4283.18
436.16	4095.94
436.34	4217.65
436.53	4393.19
436.72	4428.29
436.90	4299.56
437.09	4362.76
437.28	4311.27
437.46	4208.28
437.65	4374.46
437.84	4409.57
438.02	4456.38
438.21	4432.97
438.40	4395.53
438.58	4568.73
438.77	4552.34
438.96	4641.28
439.14	4634.26
439.33	4634.26
439.52	4788.74
439.70	4624.90
439.89	4823.84
440.08	4791.08
440.26	4861.29
440.45	4849.59
440.63	4844.91
440.82	4975.98
441.01	4891.72
441.19	4950.23
441.38	5116.41
441.57	5011.09
441.75	5043.85
441.94	5139.82
442.12	5394.93
442.31	5334.08
442.50	5053.22
442.68	5139.82
442.87	5287.27
443.05	5186.63
443.24	5404.30
443.43	5305.99
443.61	5296.63
443.80	5483.88
443.98	5210.03
444.17	5060.24
444.35	5348.12
444.54	5425.36
444.73	5401.96
444.91	5289.61
445.10	5516.64
445.28	5376.21
445.47	5364.51
445.65	5430.04
445.84	5577.50
446.02	5359.83
446.21	5465.15
446.39	5497.92
446.58	5600.90
446.77	5542.39
446.95	5401.96
447.14	5495.58
447.32	5717.93
447.51	5500.26
447.69	5554.09
447.88	5549.41
448.06	5533.03
448.25	5556.43
448.43	5563.45
448.62	5628.99
448.80	5706.23
448.99	5575.16
449.17	5654.73
449.36	5636.01
449.54	5673.46
449.73	5907.51
449.91	5750.70
450.10	5750.70
450.28	5870.06
450.46	5977.73
450.65	5907.51
450.83	5844.32
451.02	5987.09
451.20	5870.06
451.39	5949.64
451.57	5839.64
451.76	5764.74
451.94	5930.92
452.13	6167.31
452.31	5944.96
452.49	6029.22
452.68	6104.12
452.86	6047.94
453.05	6146.25
453.23	6289.02
453.42	6150.93
453.60	6193.06
453.78	6129.86
453.97	6141.57
454.15	6204.76
454.34	6104.12
454.52	6293.70
454.70	6326.47
454.89	6188.38
455.07	6305.40
455.26	6363.92
455.44	6490.31
455.62	6490.31
455.81	6366.26
455.99	6583.93
456.17	6602.65
456.36	6532.44
456.54	6722.02
456.73	6445.84
456.91	6726.70
457.09	6644.78
457.28	6675.21
457.46	6600.31
457.64	6771.17
457.83	6663.51
458.01	6876.49
458.19	7045.01
458.38	6806.28
458.56	6906.92
458.74	6827.34
458.93	6920.96
459.11	6897.56
459.29	6958.41
459.48	7124.59
459.66	7045.01
459.84	7091.82
460.03	7307.15
460.21	7236.94
460.39	7059.06
460.57	7169.06
460.76	7304.81
460.94	7094.16
461.12	7201.83
461.31	7260.34
461.49	7211.19
461.67	7311.83
461.85	7370.35
462.04	7220.55
462.22	7737.81
462.40	7391.41
462.59	7461.63
462.77	7396.09
462.95	7630.15
463.13	7503.76
463.32	7494.40
463.50	7386.73
463.68	7630.15
463.86	7501.42
464.05	7529.50
464.23	7695.68
464.41	7634.83
464.59	7595.04
464.78	7911.01
464.96	7772.92
465.14	7674.62
465.32	7803.35
465.50	7922.71
465.69	7819.73
465.87	7906.33
466.05	7885.26
466.23	8002.29
466.41	7929.74
466.60	8119.32
466.78	7796.32
466.96	7962.50
467.14	7936.76
467.32	7939.10
467.51	8095.91
467.69	7889.95
467.87	7936.76
468.05	8070.17
468.23	7985.91
468.41	8215.28
468.60	8004.63
468.78	8079.53
468.96	8067.83
469.14	8002.29
469.32	8369.76
469.50	8194.22
469.69	8194.22
469.87	8449.33
470.05	8432.95
470.23	8601.47
470.41	8339.33
470.59	8573.38
470.77	8369.76
470.95	8596.79
471.14	8549.98
471.32	8276.13
471.50	8631.90
471.68	8624.87
471.86	8784.03
472.04	8814.46
472.22	9039.15
472.40	8854.25
472.58	8814.46
472.77	9029.79
472.95	8945.53
473.13	9315.33
473.31	8898.72
473.49	8943.19
473.67	8849.57
473.85	9210.01
474.03	9490.87
474.21	9221.71
474.39	9380.87
474.57	9434.70
474.75	9488.53
474.93	9776.42
475.12	9261.50
475.30	9657.05
475.48	9635.99
475.66	9755.35
475.84	9813.87
476.02	9668.75
476.20	9619.60
476.38	10019.83
476.56	10232.82
476.74	10286.65
476.92	10162.61
477.10	9771.74
477.28	10368.57
477.46	10256.23
477.64	10356.87
477.82	10377.94
478.00	10913.92
478.18	10768.80
478.36	10796.89
478.54	10726.68
478.72	10902.22
478.90	11019.24
479.08	11213.51
479.26	11154.99
479.44	11344.58
479.62	11208.83
479.80	11344.58
479.98	11480.33
480.16	11740.13
480.34	11428.84
480.52	11749.49
480.70	11758.85
480.88	11573.95
481.06	11695.66
481.24	11899.28
481.41	12088.87
481.59	12196.53
481.77	12140.36
481.95	12341.64
482.13	12400.16
482.31	12294.83
482.49	12961.89
482.67	12592.08
482.85	13034.44
483.03	12730.17
483.21	13149.13
483.39	13062.53
483.57	12929.12
483.74	13350.42
483.92	13427.65
484.10	13343.39
484.28	13547.02
484.46	14033.85
484.64	14160.24
484.82	14059.60
485.00	14099.39
485.18	14068.96
485.35	14422.38
485.53	14513.66
485.71	14455.15
485.89	14710.27
486.07	14815.59
486.25	14754.74
486.43	14890.49
486.61	14897.51
486.78	15283.70
486.96	14988.79
487.14	15763.51
487.32	15510.73
487.50	15576.27
487.68	15613.71
487.85	15910.96
488.03	16093.52
488.21	16407.16
488.39	16374.39
488.57	16400.13
488.75	16196.51
488.92	16627.17
489.10	16938.46
489.28	17055.48
489.46	17055.48
489.64	16912.71
489.81	17544.66
489.99	17460.40
490.17	17364.43
490.35	17687.43
490.53	17778.71
490.70	17905.10
490.88	17888.71
491.06	17905.10
491.24	18167.24
491.41	18302.99
491.59	18155.54
491.77	18607.26
491.95	18607.26
492.13	18817.91
492.30	18789.82
492.48	18930.25
492.66	19098.77
492.84	18972.38
493.01	19257.93
493.19	19117.50
493.37	19653.48
493.54	19641.78
493.72	19955.41
493.90	19885.19
494.08	19899.23
494.25	20079.46
494.43	19864.13
494.61	20402.45
494.79	20395.43
494.96	20034.99
495.14	20585.01
495.32	20922.05
495.49	20610.76
495.67	21029.71
495.85	21202.91
496.02	21041.42
496.20	21411.22
496.38	21324.62
496.55	21003.97
496.73	21811.45
496.91	21598.46
497.09	21872.31
497.26	21832.52
497.44	22197.64
497.62	21886.35
497.79	22590.85
497.97	22176.58
498.14	22656.39
498.32	22794.48
498.50	22537.02
498.67	23023.85
498.85	22628.30
499.03	22796.82
499.20	23276.63
499.38	22986.40
499.56	23183.01
499.73	23601.96
499.91	23630.05
500.08	23864.10
500.26	23307.05
500.44	23477.91
500.61	23503.66
500.79	23840.70
500.97	24030.28
501.14	24133.26
501.32	24156.67
501.49	24336.89
501.67	24538.18
501.84	24458.60
502.02	24140.29
502.20	24606.05
502.37	24542.86
502.55	24737.12
502.72	24617.75
502.90	24629.46
503.07	24348.59
503.25	24936.07
503.43	25125.65
503.60	25191.19
503.78	25441.62
503.95	25041.39
504.13	25282.47
504.30	25394.81
504.48	25415.88
504.65	25219.27
504.83	25839.51
505.01	26478.48
505.18	25942.50
505.36	26059.52
505.53	26001.01
505.71	26153.15
505.88	26291.24
506.06	26256.13
506.23	26670.40
506.41	26382.52
506.58	26572.10
506.76	26396.56
506.93	27068.30
507.11	26991.06
507.28	26986.38
507.46	27070.64
507.63	26859.99
507.81	27133.83
507.98	27381.93
508.16	27417.04
508.33	27419.38
508.50	27461.51
508.68	27421.72
508.85	27828.97
509.03	27702.58
509.20	27758.75
509.38	27824.29
509.55	27737.69
509.73	27962.38
509.90	28119.20
510.08	28130.90
510.25	28013.87
510.42	28217.50
510.60	28102.81
510.77	28587.30
510.95	28744.12
511.12	28287.71
511.30	28669.22
511.47	28840.08
511.64	28844.76
511.82	29294.14
511.99	28982.85
512.17	29287.12
512.34	29149.03
512.51	29549.26
512.69	29495.43
512.86	29450.96
513.04	29731.83
513.21	29687.36
513.38	29600.76
513.56	29813.74
513.73	29406.49
513.90	29764.59
514.08	29575.01
514.25	29844.17
514.43	29993.97
514.60	30433.99
514.77	30504.20
514.95	30380.15
515.12	30532.29
515.29	30347.39
515.47	30204.61
515.64	30668.04
515.81	30359.09
515.99	30607.19
516.16	31112.74
516.33	30742.94
516.51	31484.89
516.68	30953.58
516.85	31105.72
517.03	31615.96
517.20	31229.77
517.37	31508.29
517.54	31346.79
517.72	31412.33
517.89	31377.22
518.06	31686.17
518.24	31899.16
518.41	31288.28
518.58	31934.27
518.75	31463.82
518.93	31920.23
519.10	32039.59
519.27	32114.49
519.45	32130.87
519.62	32119.17
519.79	32685.58
519.96	32290.03
520.14	32156.62
520.31	32500.68
520.48	32582.60
520.65	32479.61
520.83	33104.54
521.00	32680.90
521.17	33050.70
521.34	33270.72
521.52	33116.24
521.69	32596.64
521.86	33354.97
522.03	33209.86
522.20	33635.84
522.38	33619.46
522.55	33752.87
522.72	33207.52
522.89	33797.34
523.07	33834.78
523.24	33350.29
523.41	33563.28
523.58	33170.07
523.75	33900.32
523.92	33523.49
524.10	34117.99
524.27	33977.56
524.44	34256.08
524.61	34106.29
524.78	34319.28
524.96	34602.48
525.13	34684.40
525.30	34960.58
525.47	34373.11
525.64	34789.72
525.81	34696.10
525.98	35140.80
526.16	34759.30
526.33	34679.72
526.50	35398.26
526.67	34698.44
526.84	35297.62
527.01	34969.94
527.18	34969.94
527.36	35084.63
527.53	35236.77
527.70	35379.54
527.87	35342.09
528.04	35791.47
528.21	35618.27
528.38	35803.17
528.55	35562.10
528.72	35768.07
528.89	36053.61
529.07	35571.46
529.24	35566.78
529.41	36027.87
529.58	35854.67
529.75	36116.81
529.92	36243.20
530.09	36137.87
530.26	36261.92
530.43	36439.80
530.60	36011.48
530.77	36051.27
530.94	36430.44
531.11	36177.66
531.28	36624.70
531.46	36622.36
531.63	36222.13
531.80	36135.53
531.97	36615.34
532.14	36292.35
532.31	36589.59
532.48	36802.58
532.65	36975.78
532.82	37282.39
532.99	36706.62
533.16	36842.37
533.33	36879.82
533.50	37354.95
533.67	37310.48
533.84	36811.95
534.01	37067.06
534.18	37523.47
534.35	37394.74
534.52	37570.28
534.69	37883.91
534.86	37675.60
535.03	37656.88
535.20	37699.01
535.37	37603.05
535.54	37734.12
535.71	37717.73
535.88	37956.47
536.05	38122.65
536.22	38342.66
536.38	38082.86
536.55	37926.04
536.72	38174.14
536.89	38113.28
537.06	38047.75
537.23	38880.98
537.40	38197.54
537.57	37872.21
537.74	38382.45
537.91	38473.73
538.08	38621.18
538.25	38160.09
538.42	38333.29
538.59	38876.30
538.75	38459.68
538.92	38972.26
539.09	38799.06
539.26	39049.50
539.43	38778.00
539.60	38871.62
539.77	39030.77
539.94	39173.55
540.11	39044.82
540.28	38845.87
540.44	39248.44
540.61	39145.46
540.78	39194.61
540.95	39002.69
541.12	38916.09
541.29	38885.66
541.46	39166.52
541.62	39115.03
541.79	39566.76
541.96	39065.88
542.13	39014.39
542.30	39831.24
542.47	39810.17
542.63	39711.87
542.80	39409.94
542.97	39997.41
543.14	40442.12
543.31	39913.16
543.48	40165.93
543.64	40589.57
543.81	40196.36
543.98	40411.69
544.15	40634.04
544.32	40863.41
544.48	40732.34
544.65	40086.36
544.82	40439.78
544.99	40236.15
545.16	40254.87
545.32	40598.93
545.49	40954.69
545.66	40540.42
545.83	40685.53
546.00	40587.23
546.16	41003.85
546.33	40996.82
546.50	40863.41
546.67	41202.79
546.83	40641.06
547.00	40617.66
547.17	40718.30
547.34	40973.42
547.50	41312.80
547.67	41280.03
547.84	41151.30
548.00	41282.37
548.17	41137.26
548.34	41654.51
548.51	41574.94
548.67	41556.21
548.84	41560.89
549.01	41425.14
549.18	41151.30
549.34	41668.56
549.51	41509.40
549.68	41734.09
549.84	41909.63
550.01	41649.83
550.18	41844.10
550.34	41947.08
550.51	41879.21
550.68	41834.74
550.84	41556.21
551.01	41984.53
551.18	42059.43
551.34	41731.75
551.51	41918.99
551.68	42054.75
551.84	42438.59
552.01	41755.16
552.18	42309.86
552.34	41989.21
552.51	42136.66
552.68	41553.87
552.84	42092.19
553.01	42155.39
553.18	42141.35
553.34	42424.55
553.51	42335.61
553.67	42752.23
553.84	42799.04
554.01	42141.35
554.17	42351.99
554.34	42586.05
554.51	42967.55
554.67	42625.84
554.84	42562.64
555.00	42691.37
555.17	42855.21
555.33	42958.19
555.50	42986.28
555.67	43096.28
555.83	42773.29
556.00	42665.63
556.16	43318.64
556.33	43243.74
556.50	42609.45
556.66	43110.33
556.83	42663.28
556.99	43189.91
557.16	43388.85
557.32	43335.02
557.49	43309.27
557.65	42784.99
557.82	43225.01
557.98	43210.97
558.15	43393.53
558.32	42897.34
558.48	42990.96
558.65	43796.10
558.81	43758.66
558.98	43213.31
559.14	43702.48
559.31	43763.34
559.47	43665.03
559.64	43959.94
559.80	43346.72
559.97	43653.33
560.13	43475.45
560.30	43784.40
560.46	43494.18
560.63	43915.47
560.79	43826.53
560.96	44243.15
561.12	43927.17
561.29	43817.17
561.45	43585.46
561.61	43695.46
561.78	43894.41
561.94	43618.22
562.11	44058.24
562.27	43826.53
562.44	44060.58
562.60	44196.34
562.77	44320.38
562.93	44236.12
563.10	44130.80
563.26	43889.73
563.42	44507.63
563.59	44086.33
563.75	43690.78
563.92	44039.52
564.08	44311.02
564.24	44488.90
564.41	44102.71
564.57	43842.92
564.74	44144.84
564.90	43901.43
565.07	44488.90
565.23	44596.57
565.39	44257.19
565.56	44257.19
565.72	44299.32
565.88	43789.08
566.05	44392.94
566.21	44355.49
566.38	44053.56
566.54	44622.31
566.70	44528.69
566.87	44774.45
567.03	44409.32
567.19	44383.58
567.36	44348.47
567.52	44172.93
567.68	44910.20
567.85	44605.93
568.01	44715.93
568.17	44596.57
568.34	45062.33
568.50	44215.06
568.66	44507.63
568.83	44306.34
568.99	44535.71
569.15	44790.83
569.32	44692.53
569.48	44767.43
569.64	45022.54
569.81	44713.59
569.97	45141.91
570.13	44865.73
570.30	44526.35
570.46	45088.08
570.62	44957.01
570.78	44577.84
570.95	44982.76
571.11	44933.60
571.27	45050.63
571.43	44849.35
571.60	45055.31
571.76	45064.67
571.92	45301.07
572.09	44823.60
572.25	44680.83
572.41	44811.90
572.57	45024.89
572.74	45272.98
572.90	45249.58
573.06	45120.85
573.22	45172.34
573.38	44893.82
573.55	44980.42
573.71	45436.82
573.87	45045.95
574.03	44914.88
574.20	45303.41
574.36	45031.91
574.52	45331.50
574.68	45551.51
574.84	45352.56
575.01	45118.51
575.17	45059.99
575.33	45434.48
575.49	45296.39
575.65	45104.46
575.82	45233.19
575.98	45198.09
576.14	45556.19
576.30	45214.47
576.46	45134.89
576.62	44921.90
576.79	45057.65
576.95	45170.00
577.11	45043.61
577.27	45294.05
577.43	44889.13
577.59	45064.67
577.75	45242.56
577.92	44844.66
578.08	45186.38
578.24	45392.35
578.40	45762.15
578.56	45160.64
578.72	45523.42
578.88	45134.89
579.04	45268.30
579.21	45488.31
579.37	45106.80
579.53	45727.05
579.69	44854.03
579.85	45357.24
580.01	45045.95
580.17	45001.48
580.33	45680.24
580.49	45226.17
580.65	45598.32
580.82	45265.96
580.98	45092.76
581.14	45272.98
581.30	45200.43
581.46	45235.53
581.62	45326.81
581.78	45191.06
581.94	45361.92
582.10	45338.52
582.26	45462.57
582.42	45633.42
582.58	45392.35
582.74	45457.88
582.90	45294.05
583.06	45509.38
583.22	45352.56
583.38	45542.14
583.54	45354.90
583.70	45780.88
583.86	45858.12
584.02	45221.49
584.18	45698.96
584.34	45659.17
584.50	45361.92
584.66	45764.49
584.82	45628.74
584.98	45832.37
585.14	45563.21
585.30	45113.83
585.46	45717.68
585.62	45638.11
585.78	45570.23
585.94	45188.72
586.10	45659.17
586.26	45610.02
586.42	45483.63
586.58	45549.17
586.74	45563.21
586.90	45542.14
587.06	45464.91
587.22	45773.86
587.38	45287.03
587.54	45668.53
587.70	45584.27
587.86	45581.93
588.02	45497.67
588.18	45588.95
588.34	45736.41
588.49	45640.45
588.65	45687.26
588.81	45787.90
588.97	45776.20
589.13	45904.93
589.29	45411.07
589.45	45696.62
589.61	45855.78
589.77	45633.42
589.93	45825.35
590.08	45757.47
590.24	46204.52
590.40	45965.78
590.56	46611.77
590.72	45925.99
590.88	45832.37
591.04	45762.15
591.20	45904.93
591.35	45886.20
591.51	46731.14
591.67	46548.57
591.83	46747.52
591.99	45961.10
592.15	45708.32
592.31	46117.92
592.46	45610.02
592.62	45982.16
592.78	46019.61
592.94	46426.87
593.10	46286.43
593.26	46251.33
593.41	46309.84
593.57	46328.56
593.73	46307.50
593.89	46511.13
594.05	46000.89
594.20	46263.03
594.36	46003.23
594.52	46576.66
594.68	46253.67
594.84	46522.83
594.99	46642.20
595.15	46155.36
595.31	46754.54
595.47	46274.73
595.62	46019.61
595.78	46277.07
595.94	46593.04
596.10	46206.86
596.25	46424.53
596.41	46677.30
596.57	46122.60
596.73	46700.71
596.88	46717.09
597.04	46349.63
597.20	46485.38
597.36	46014.93
597.51	46791.99
597.67	45935.35
597.83	46136.64
597.99	46609.43
598.14	46452.61
598.30	46398.78
598.46	46052.38
598.61	46686.67
598.77	46057.06
598.93	46831.78
599.09	46518.15
599.24	46604.75
599.40	46686.67
599.56	46518.15
599.71	46738.16
599.87	46902.00
600.03	46220.90
600.18	46504.10
600.34	46358.99
600.50	46429.21
600.65	46099.19
600.81	46745.18
600.97	46644.54
601.12	46656.24
601.28	46150.68
601.44	46312.18
601.59	46794.33
601.75	46438.57
601.91	46621.13
602.06	46656.24
602.22	46909.02
602.37	46492.40
602.53	46066.42
602.69	46270.05
602.84	46696.03
603.00	46363.67
603.16	46473.68
603.31	46646.88
603.47	46777.95
603.62	46284.09
603.78	46328.56
603.94	46742.84
604.09	46880.93
604.25	46094.51
604.40	46103.87
604.56	46609.43
604.71	46986.25
604.87	46696.03
605.03	46181.11
605.18	46309.84
605.34	46469.00
605.49	46164.73
605.65	46377.72
605.80	46190.47
605.96	46225.58
606.12	46473.68
606.27	46410.48
606.43	46124.94
606.58	46209.20
606.74	46148.34
606.89	46398.78
607.05	46770.93
607.20	46487.72
607.36	46483.04
607.51	45977.48
607.67	46066.42
607.82	46181.11
607.98	46188.13
608.13	46438.57
608.29	46064.08
608.44	46337.93
608.60	45804.28
608.75	46028.98
608.91	46122.60
609.06	45954.08
609.22	46075.79
609.37	45806.62
609.53	46504.10
609.68	46328.56
609.84	46251.33
609.99	46057.06
610.15	45949.40
610.30	46024.29
610.46	46450.27
610.61	46272.39
610.76	46358.99
610.92	46057.06
611.07	45415.76
611.23	45823.01
611.38	45998.55
611.54	46160.05
611.69	46267.71
611.84	46209.20
612.00	46045.36
612.15	46052.38
612.31	46099.19
612.46	45619.38
612.62	45663.85
612.77	45792.58
612.92	46150.68
613.08	46117.92
613.23	45813.65
613.39	45991.53
613.54	45507.04
613.69	45982.16
613.85	45837.05
614.00	46241.96
614.15	45890.88
614.31	45507.04
614.46	45947.06
614.62	45546.82
614.77	45462.57
614.92	45488.31
615.08	45593.64
615.23	45844.07
615.38	45851.09
615.54	45670.87
615.69	45565.55
615.84	45139.57
616.00	45724.71
616.15	45649.81
616.30	46197.49
616.46	44940.63
616.61	45385.33
616.76	45588.95
616.92	45200.43
617.07	45633.42
617.22	45804.28
617.37	45427.46
617.53	45357.24
617.68	44940.63
617.83	45521.08
617.99	45605.34
618.14	45804.28
618.29	45258.94
618.45	45097.44
618.60	45406.39
618.75	45010.84
618.90	44989.78
619.06	45216.81
619.21	45165.32
619.36	45525.76
619.51	44701.89
619.67	45289.37
619.82	45088.08
619.97	45521.08
620.12	45226.17
620.28	45155.96
620.43	45251.92
620.58	45151.27
620.73	45099.78
620.89	45174.68
621.04	45303.41
621.19	45242.56
621.34	44854.03
621.49	44697.21
621.65	44865.73
621.80	45181.70
621.95	45254.26
622.10	44692.53
622.25	45144.25
622.41	44884.45
622.56	44858.71
622.71	44964.03
622.86	45008.50
623.01	44800.19
623.16	44847.00
623.32	44882.11
623.47	44816.58
623.62	44732.32
623.77	44444.43
623.92	44751.04
624.07	44474.86
624.23	44980.42
624.38	44788.49
624.53	44556.78
624.68	44327.41
624.83	44428.05
624.98	44783.81
625.13	44444.43
625.29	44259.53
625.44	44254.85
625.59	44348.47
625.74	44458.48
625.89	43889.73
626.04	44484.22
626.19	44289.96
626.34	44285.28
626.49	44149.53
626.65	43889.73
626.80	44360.17
626.95	43838.23
627.10	43739.93
627.25	43777.38
627.40	43779.72
627.55	43849.94
627.70	44395.28
627.85	44348.47
628.00	44205.70
628.15	44259.53
628.30	43140.75
628.45	43693.12
628.60	43739.93
628.76	43751.63
628.91	43702.48
629.06	43423.96
629.21	43501.20
629.36	43688.44
629.51	43452.05
629.66	43749.29
629.81	43966.96
629.96	43793.76
630.11	43402.89
630.26	43522.26
630.41	43646.31
630.56	43627.59
630.71	43246.08
630.86	43545.67
631.01	42990.96
631.16	43447.36
631.31	43323.32
631.46	43445.02
631.61	43674.40
631.76	43725.89
631.91	43482.47
632.06	44107.40
632.21	43618.22
632.36	43917.81
632.51	42962.87
632.66	43592.48
632.81	43129.05
632.96	43196.93
633.10	42792.01
633.25	43234.38
633.40	43241.40
633.55	43262.46
633.70	43077.56
633.85	43051.81
634.00	43021.39
634.15	42784.99
634.30	43117.35
634.45	42419.87
634.60	42686.69
634.75	42873.93
634.90	42920.74
635.05	42916.06
635.19	42852.87
635.34	42464.34
635.49	42904.36
635.64	42579.03
635.79	42995.64
635.94	42902.02
636.09	42880.95
636.24	42852.87
636.39	42674.99
636.53	42913.72
636.68	42550.94
636.83	42445.62
636.98	42403.49
637.13	42202.20
637.28	42087.51
637.43	42328.59
637.57	42897.34
637.72	41897.93
637.87	42246.67
638.02	42085.17
638.17	42012.62
638.32	41752.82
638.46	42227.95
638.61	42361.36
638.76	41780.90
638.91	42171.77
639.06	42064.11
639.20	41963.46
639.35	41654.51
639.50	42419.87
639.65	42513.49
639.80	42007.94
639.94	42148.37
640.09	42078.15
640.24	42167.09
640.39	41797.29
640.54	41577.28
640.68	42302.84
640.83	42087.51
640.98	41525.78
641.13	41511.74
641.27	42061.77
641.42	41900.27
641.57	41600.68
641.72	41507.06
641.86	41511.74
642.01	41092.79
642.16	41612.38
642.31	40961.72
642.45	41486.00
642.60	41291.73
642.75	41141.94
642.90	41837.08
643.04	41958.78
643.19	41275.35
643.34	41404.08
643.48	41256.62
643.63	41237.90
643.78	41001.50
643.93	41027.25
644.07	41434.50
644.22	41315.14
644.37	41368.97
644.51	41457.91
644.66	41610.04
644.81	41223.86
644.95	41202.79
645.10	41223.86
645.25	41216.83
645.39	40872.78
645.54	41074.06
645.69	41062.36
645.83	40940.65
645.98	40781.49
646.13	40746.39
646.27	40919.59
646.42	40751.07
646.57	41102.15
646.71	41261.30
646.86	41186.41
647.00	41053.00
647.15	41165.34
647.30	40816.60
647.44	40884.48
647.59	40800.22
647.74	40793.20
647.88	41036.61
648.03	40772.13
648.17	40830.65
648.32	40767.45
648.47	40928.95
648.61	40718.30
648.76	40605.95
648.90	40505.31
649.05	40517.01
649.20	40348.50
649.34	40292.32
649.49	40652.76
649.63	40444.46
649.78	40561.48
649.92	40521.69
650.07	40947.67
650.21	40573.19
650.36	40837.67
650.51	40407.01
650.65	40903.20
650.80	40804.90
650.94	40151.89
651.09	40428.07
651.23	39962.31
651.38	39910.82
651.52	39990.39
651.67	40076.99
651.81	39948.26
651.96	40648.08
652.10	39674.42
652.25	39899.11
652.39	39583.14
652.54	40144.87
652.68	39990.39
652.83	40114.44
652.97	40128.48
653.12	39728.25
653.26	39873.37
653.41	39615.91
653.55	39751.66
653.70	39702.51
653.84	40154.23
653.99	39976.35
654.13	39941.24
654.27	39459.09
654.42	39505.90
654.56	39339.72
654.71	39590.16
654.85	39590.16
655.00	39407.60
655.14	40039.54
655.29	39674.42
655.43	40093.38
655.57	39480.16
655.72	39690.80
655.86	39707.19
656.01	39524.63
656.15	39210.99
656.30	39428.66
656.44	39274.19
656.58	39388.88
656.73	39604.20
656.87	39068.22
657.01	39178.23
657.16	38958.22
657.30	39117.37
657.45	38857.57
657.59	39005.03
657.73	38813.10
657.88	38883.32
658.02	39281.21
658.16	39335.04
658.31	39309.30
658.45	38995.67
658.60	38447.98
658.74	38862.26
658.88	39213.34
659.03	38773.31
659.17	38443.30
659.31	38436.28
659.46	38763.95
659.60	38703.10
659.74	38450.32
659.89	38335.63
660.03	38480.75
660.17	38518.20
660.32	38408.19
660.46	38230.31
660.60	37823.06
660.74	38569.69
660.89	38396.49
661.03	37977.53
661.17	37975.19
661.32	37567.94
661.46	37947.11
661.60	37986.89
661.74	37832.42
661.89	37656.88
662.03	38171.80
662.17	37479.00
662.31	37392.40
662.46	38092.22
662.60	36818.97
662.74	37268.35
662.88	37319.84
663.03	36959.40
663.17	36987.49
663.31	37013.23
663.45	37095.15
663.60	37612.41
663.74	37258.99
663.88	37207.50
664.02	36931.31
664.17	37373.67
664.31	36957.06
664.45	36568.53
664.59	36863.44
664.73	36652.79
664.88	36608.32
665.02	36636.41
665.16	36683.22
665.30	36627.04
665.44	36779.18
665.59	36140.21
665.73	36191.70
665.87	36175.32
666.01	36280.64
666.15	36278.30
666.29	36177.66
666.44	36378.95
666.58	36240.86
666.72	35927.22
666.86	36208.09
667.00	36037.23
667.14	35936.59
667.28	35711.89
667.43	35592.53
667.57	36046.59
667.71	36123.83
667.85	35770.41
667.99	35632.32
668.13	35374.86
668.27	35475.50
668.41	35742.32
668.56	35159.53
668.70	35161.87
668.84	35316.34
668.98	34698.44
669.12	35035.48
669.26	35269.53
669.40	34789.72
669.54	34934.84
669.68	35440.39
669.82	34721.85
669.96	34504.18
670.10	34389.49
670.25	34616.52
670.39	34618.86
670.53	34670.36
670.67	34312.25
670.81	34595.46
670.95	34471.41
671.09	34235.02
671.23	34684.40
671.37	34281.83
671.51	34036.07
671.65	33762.23
671.79	34003.30
671.93	33736.48
672.07	34052.45
672.21	33984.58
672.35	33635.84
672.49	33912.02
672.63	33504.77
672.77	33516.47
672.91	33488.38
673.05	33542.22
673.19	33024.96
673.33	33413.49
673.47	32732.39
673.61	33041.34
673.75	32994.53
673.89	33179.43
674.03	32641.11
674.17	32402.38
674.31	32369.61
674.45	32598.98
674.59	32809.63
674.73	32540.47
674.87	32217.47
675.01	31943.63
675.15	32044.27
675.29	31826.60
675.43	32025.55
675.56	32219.81
675.70	31744.69
675.84	31875.76
675.98	31372.54
676.12	31496.59
676.26	31536.38
676.40	31484.89
676.54	30988.69
676.68	31044.87
676.82	30728.89
676.96	31211.04
677.10	31325.73
677.23	31248.49
677.37	30773.36
677.51	31119.76
677.65	30773.36
677.79	30553.35
677.93	30029.07
678.07	30429.30
678.21	30520.59
678.34	29989.28
678.48	30017.37
678.62	30045.46
678.76	29935.45
678.90	29865.24
679.04	30059.50
679.18	29961.20
679.31	29500.11
679.45	29675.65
679.59	29247.33
679.73	29383.09
679.87	29158.39
680.00	29174.78
680.14	29195.84
680.28	29177.12
680.42	28727.74
680.56	28779.23
680.70	28489.00
680.83	28353.25
680.97	28360.27
681.11	28397.72
681.25	28329.84
681.39	27796.20
681.52	28257.29
681.66	27899.19
681.80	27304.69
681.94	27688.54
682.07	27548.11
682.21	27377.25
682.35	27431.08
682.49	27314.05
682.62	27632.36
682.76	27428.74
682.90	27035.53
683.04	27281.28
683.17	26967.65
683.31	26796.79
683.45	26541.68
683.59	26354.43
683.72	26345.07
683.86	26054.84
684.00	26291.24
684.13	26082.93
684.27	25905.05
684.41	25979.95
684.55	26319.32
684.68	25923.77
684.82	25729.51
684.96	25656.95
685.09	25766.96
685.23	25804.41
685.37	25654.61
685.50	25617.16
685.64	25422.90
685.78	25310.55
685.91	25310.55
686.05	24966.49
686.19	24893.94
686.32	24950.11
686.46	24580.31
686.60	24610.73
686.73	24535.84
686.87	24243.27
687.01	24617.75
687.14	24606.05
687.28	24243.27
687.42	24353.27
687.55	24098.16
687.69	23718.99
687.82	24020.92
687.96	23892.19
688.10	23861.76
688.23	23852.40
688.37	23838.36
688.50	23309.40
688.64	23297.69
688.78	23295.35
688.91	23285.99
689.05	23468.55
689.18	22972.36
689.32	22588.51
689.46	22614.26
689.59	22389.56
689.73	22693.83
689.86	22630.64
690.00	22548.72
690.13	22918.53
690.27	21928.48
690.41	22466.80
690.54	21902.73
690.68	21998.70
690.81	21724.85
690.95	21722.51
691.08	21757.62
691.22	21455.69
691.35	21568.04
691.49	21935.50
691.62	21516.54
691.76	21443.99
691.89	21132.70
692.03	20748.85
692.16	20713.74
692.30	21055.46
692.43	20868.22
692.57	20606.08
692.70	20634.16
692.84	20748.85
692.97	20170.74
693.11	20133.29
693.24	20072.43
693.38	20067.75
693.51	19758.80
693.65	19990.52
693.78	19927.32
693.92	19590.28
694.05	19826.68
694.19	19981.15
694.32	19906.26
694.45	19751.78
694.59	19627.73
694.72	19744.76
694.86	19058.98
694.99	19314.10
695.13	19026.21
695.26	18974.72
695.39	18920.89
695.53	18923.23
695.66	18925.57
695.80	18525.34
695.93	18640.03
696.07	18506.62
696.20	18370.86
696.33	18111.07
696.47	18082.98
696.60	18298.31
696.73	18251.50
696.87	18054.89
697.00	17778.71
697.14	18134.47
697.27	17846.58
697.40	17521.25
697.54	17532.95
697.67	17673.39
697.80	17706.15
697.94	17081.23
698.07	17053.14
698.21	17034.42
698.34	17184.21
698.47	16737.17
698.61	16655.25
698.74	16800.37
698.87	16882.28
699.01	16645.89
699.14	16606.10
699.27	16505.46
699.40	16472.69
699.54	16472.69
699.67	16084.16
699.80	16367.37
699.94	16255.02
700.07	16056.08
700.20	16126.29
700.34	15899.26
700.47	15917.98
700.60	16313.53
700.73	15978.84
700.87	15885.22
701.00	15693.29
701.13	15227.53
701.26	15482.64
701.40	15288.38
701.53	15234.55
701.66	15150.29
701.79	15098.80
701.93	15339.87
702.06	14839.00
702.19	14736.01
702.32	15016.88
702.46	14724.31
702.59	14757.08
702.72	14686.86
702.85	14782.82
702.99	14413.02
703.12	14558.13
703.25	14565.15
703.38	14476.21
703.51	14471.53
703.65	14183.65
703.78	13879.38
703.91	13844.27
704.04	13928.53
704.17	13500.21
704.31	13790.44
704.44	13827.88
704.57	13767.03
704.70	13893.42
704.83	13369.14
704.96	13521.27
705.10	13336.37
705.23	13060.19
>>>>>End Processed Spectral Data<<<<<
