SpectraSuite Data File
++++++++++++++++++++++++++++++++++++
Date: Fri Oct 25 11:33:37 EDT 2013
User: price-jones
Dark Spectrum Present: No
Reference Spectrum Present: No
Number of Sampled Component Spectra: 1
Spectrometers: USB2+H05261
Integration Time (usec): 100000 (USB2+H05261)
Spectra Averaged: 1 (USB2+H05261)
Boxcar Smoothing: 0 (USB2+H05261)
Correct for Electrical Dark: No (USB2+H05261)
Strobe/Lamp Enabled: No (USB2+H05261)
Correct for Detector Non-linearity: No (USB2+H05261)
Correct for Stray Light: No (USB2+H05261)
Number of Pixels in Processed Spectrum: 2048
>>>>>Begin Processed Spectral Data<<<<<
365.73	271.50
365.92	271.50
366.12	271.50
366.32	205.97
366.52	208.31
366.72	215.33
366.91	124.05
367.11	114.69
367.31	208.31
367.51	147.45
367.70	133.41
367.90	196.60
368.10	182.56
368.30	117.03
368.49	191.92
368.69	147.45
368.89	222.35
369.09	131.07
369.28	161.50
369.48	105.32
369.68	217.67
369.87	229.37
370.07	170.86
370.27	287.89
370.47	358.10
370.66	475.13
370.86	524.28
371.06	503.22
371.25	559.39
371.45	531.30
371.65	568.75
371.84	631.94
372.04	610.88
372.24	533.64
372.44	573.43
372.63	603.86
372.83	580.45
373.03	617.90
373.22	596.84
373.42	667.05
373.62	629.60
373.81	631.94
374.01	660.03
374.21	608.54
374.40	559.39
374.60	690.46
374.79	620.24
374.99	592.16
375.19	645.99
375.38	636.63
375.58	634.29
375.78	671.73
375.97	702.16
376.17	746.63
376.37	713.86
376.56	645.99
376.76	631.94
376.95	671.73
377.15	697.48
377.35	671.73
377.54	702.16
377.74	624.92
377.93	641.31
378.13	669.39
378.33	692.80
378.52	777.06
378.72	699.82
378.91	681.10
379.11	706.84
379.31	732.59
379.50	709.18
379.70	732.59
379.89	697.48
380.09	830.89
380.28	737.27
380.48	739.61
380.68	690.46
380.87	732.59
381.07	709.18
381.26	767.70
381.46	758.33
381.65	706.84
381.85	748.97
382.04	716.20
382.24	704.50
382.43	737.27
382.63	779.40
382.83	772.38
383.02	816.85
383.22	812.17
383.41	739.61
383.61	793.44
383.80	849.61
384.00	821.53
384.19	755.99
384.39	823.87
384.58	915.15
384.78	821.53
384.97	863.66
385.17	784.08
385.36	851.96
385.56	884.72
385.75	870.68
385.95	828.55
386.14	929.19
386.34	870.68
386.53	866.00
386.72	823.87
386.92	903.45
387.11	887.06
387.31	896.43
387.50	842.59
387.70	929.19
387.89	833.23
388.09	896.43
388.28	882.38
388.48	919.83
388.67	884.72
388.86	891.74
389.06	945.58
389.25	896.43
389.45	919.83
389.64	877.70
389.84	926.85
390.03	994.73
390.22	1015.79
390.42	898.77
390.61	894.08
390.81	919.83
391.00	954.94
391.19	1046.22
391.39	1060.26
391.58	1039.20
391.78	1046.22
391.97	985.37
392.16	1036.86
392.36	1067.28
392.55	1071.97
392.75	1109.41
392.94	1006.43
393.13	1055.58
393.33	1039.20
393.52	1036.86
393.71	1095.37
393.91	1137.50
394.10	1067.28
394.29	1146.86
394.49	1086.01
394.68	1039.20
394.88	1086.01
395.07	1086.01
395.26	1177.29
395.46	1188.99
395.65	1149.20
395.84	1214.74
396.04	1324.74
396.23	1205.38
396.42	1221.76
396.62	1308.36
396.81	1266.23
397.00	1268.57
397.19	1303.68
397.39	1259.21
397.58	1245.16
397.77	1268.57
397.97	1289.64
398.16	1221.76
398.35	1280.27
398.55	1228.78
398.74	1338.79
398.93	1313.04
399.12	1299.00
399.32	1301.34
399.51	1287.29
399.70	1383.26
399.90	1336.45
400.09	1345.81
400.28	1345.81
400.47	1364.53
400.67	1465.18
400.86	1404.32
401.05	1427.73
401.24	1511.99
401.44	1526.03
401.63	1486.24
401.82	1469.86
402.01	1425.39
402.21	1439.43
402.40	1451.13
402.59	1497.94
402.78	1514.33
402.97	1448.79
403.17	1521.35
403.36	1493.26
403.55	1497.94
403.74	1549.43
403.93	1551.78
404.13	1624.33
404.32	1519.01
404.51	1598.59
404.70	1605.61
404.89	1554.12
405.09	1614.97
405.28	1678.16
405.47	1671.14
405.66	1699.23
405.85	1692.21
406.05	1755.40
406.24	1736.68
406.43	1706.25
406.62	1813.92
406.81	1877.11
407.00	1727.32
407.20	1783.49
407.39	1774.13
407.58	1732.00
407.77	1879.45
407.96	1830.30
408.15	1816.26
408.34	1816.26
408.54	1902.86
408.73	1851.36
408.92	1830.30
409.11	1912.22
409.30	1923.92
409.49	2022.22
409.68	1912.22
409.87	2003.50
410.07	2026.90
410.26	2111.16
410.45	1923.92
410.64	2073.71
410.83	2083.08
411.02	2078.40
411.21	2062.01
411.40	2076.06
411.59	2179.04
411.78	2125.21
411.98	2181.38
412.17	2190.74
412.36	2228.19
412.55	2366.28
412.74	2450.54
412.93	2385.01
413.12	2396.71
413.31	2382.67
413.50	2415.43
413.69	2389.69
413.88	2513.74
414.07	2473.95
414.26	2509.05
414.45	2525.44
414.64	2480.97
414.83	2558.21
415.02	2649.49
415.22	2567.57
415.41	2626.08
415.60	2684.59
415.79	2710.34
415.98	2916.31
416.17	2775.88
416.36	2822.69
416.55	2820.35
416.74	2773.53
416.93	2803.96
417.12	2836.73
417.31	2874.18
417.50	2963.12
417.69	2883.54
417.88	2825.03
418.07	2892.90
418.26	2984.18
418.45	2981.84
418.64	3110.57
418.83	3075.46
419.02	3035.67
419.21	3061.42
419.39	3089.51
419.58	3098.87
419.77	3138.66
419.96	3166.74
420.15	3049.72
420.34	3222.92
420.53	3211.22
420.72	3232.28
420.91	3211.22
421.10	3344.63
421.29	3171.43
421.48	3234.62
421.67	3171.43
421.86	3180.79
422.05	3339.94
422.24	3283.77
422.43	3339.94
422.61	3435.91
422.80	3534.21
422.99	3307.18
423.18	3426.54
423.37	3461.65
423.56	3433.57
423.75	3396.12
423.94	3365.69
424.13	3206.53
424.32	3293.13
424.50	3346.97
424.69	3513.14
424.88	3421.86
425.07	3438.25
425.26	3428.88
425.45	3473.36
425.64	3368.03
425.83	3428.88
426.01	3574.00
426.20	3466.33
426.39	3506.12
426.58	3463.99
426.77	3552.93
426.96	3501.44
427.15	3581.02
427.33	3667.62
427.52	3574.00
427.71	3578.68
427.90	3686.34
428.09	3538.89
428.28	3749.54
428.46	3758.90
428.65	3639.53
428.84	3875.93
429.03	3789.33
429.22	3726.13
429.40	3749.54
429.59	3700.39
429.78	3765.92
429.97	3726.13
430.16	3660.60
430.34	3763.58
430.53	3885.29
430.72	3889.97
430.91	3894.65
431.10	3833.80
431.28	3957.85
431.47	3969.55
431.66	3988.27
431.85	3999.98
432.03	4046.79
432.22	4168.49
432.41	4049.13
432.60	4009.34
432.79	4011.68
432.97	4145.09
433.16	4170.83
433.35	4177.86
433.54	4124.02
433.72	4306.59
433.91	4112.32
434.10	4159.13
434.28	4187.22
434.47	4264.46
434.66	4107.64
434.85	4234.03
435.03	4379.14
435.22	4308.93
435.41	4325.31
435.59	4397.87
435.78	4425.95
435.97	4280.84
436.16	4463.40
436.34	4407.23
436.53	4400.21
436.72	4470.42
436.90	4432.97
437.09	4550.00
437.28	4362.76
437.46	4381.48
437.65	4447.02
437.84	4608.51
438.02	4688.09
438.21	4746.61
438.40	4648.30
438.58	4645.96
438.77	4739.58
438.96	4727.88
439.14	4926.83
439.33	4952.57
439.52	4765.33
439.70	4964.28
439.89	5116.41
440.08	5046.20
440.26	5107.05
440.45	4952.57
440.63	5046.20
440.82	5109.39
441.01	5188.97
441.19	5195.99
441.38	5158.54
441.57	5100.03
441.75	5394.93
441.94	5378.55
442.12	5441.75
442.31	5280.25
442.50	5350.46
442.68	5465.15
442.87	5425.36
443.05	5537.71
443.24	5394.93
443.43	5540.05
443.61	5591.54
443.80	5612.60
443.98	5544.73
444.17	5364.51
444.35	5593.88
444.54	5750.70
444.73	5568.13
444.91	5448.77
445.10	5596.22
445.28	5778.78
445.47	5624.31
445.65	5596.22
445.84	5621.97
446.02	5738.99
446.21	5643.03
446.39	5729.63
446.58	5767.08
446.77	5778.78
446.95	5570.48
447.14	5727.29
447.32	5895.81
447.51	5720.27
447.69	5886.45
447.88	5757.72
448.06	5638.35
448.25	5699.20
448.43	5764.74
448.62	5781.12
448.80	5846.66
448.99	6003.47
449.17	5947.30
449.36	5881.77
449.54	6052.63
449.73	5968.37
449.91	6267.95
450.10	6167.31
450.28	6150.93
450.46	6214.12
450.65	6003.47
450.83	6146.25
451.02	6188.38
451.20	6317.11
451.39	6090.07
451.57	6129.86
451.76	6019.86
451.94	6125.18
452.13	6237.53
452.31	6305.40
452.49	6127.52
452.68	6225.82
452.86	6225.82
453.05	6415.41
453.23	6478.60
453.42	6349.87
453.60	6122.84
453.78	6410.73
453.97	6413.07
454.15	6492.65
454.34	6305.40
454.52	6455.20
454.70	6497.33
454.89	6588.61
455.07	6761.81
455.26	6574.56
455.44	6801.60
455.62	6736.06
455.81	6623.72
455.99	6848.41
456.17	6768.83
456.36	6785.21
456.54	6647.12
456.73	6949.05
456.91	6967.77
457.09	7103.53
457.28	7155.02
457.46	6881.18
457.64	6897.56
457.83	7140.97
458.01	6951.39
458.19	7122.25
458.38	7126.93
458.56	7162.04
458.74	7117.57
458.93	7047.35
459.11	7246.30
459.29	7258.00
459.48	7143.32
459.66	7344.60
459.84	7368.01
460.03	7529.50
460.21	7283.75
460.39	7426.52
460.57	7456.95
460.76	7332.90
460.94	7517.80
461.12	7566.95
461.31	7410.14
461.49	7503.76
461.67	7440.56
461.85	7672.28
462.04	7442.90
462.22	8006.97
462.40	7737.81
462.59	7712.07
462.77	7597.38
462.95	7770.58
463.13	7925.05
463.32	7679.30
463.50	8013.99
463.68	7901.65
463.86	7936.76
464.05	7761.22
464.23	7936.76
464.41	7957.82
464.59	7698.02
464.78	7999.95
464.96	7854.84
465.14	7838.45
465.32	7985.91
465.50	8126.34
465.69	8006.97
465.87	8159.11
466.05	8262.09
466.23	8238.69
466.41	8133.36
466.60	8243.37
466.78	8112.30
466.96	8198.90
467.14	8322.94
467.32	8124.00
467.51	8262.09
467.69	8131.02
467.87	8409.54
468.05	8203.58
468.23	8428.27
468.41	8219.96
468.60	8292.52
468.78	8594.45
468.96	8468.06
469.14	8400.18
469.32	8732.54
469.50	8430.61
469.69	8807.44
469.87	8748.92
470.05	8819.14
470.23	9055.53
470.41	8823.82
470.59	8795.73
470.77	8912.76
470.95	8959.57
471.14	8971.27
471.32	8791.05
471.50	8975.95
471.68	9092.98
471.86	9020.42
472.04	9177.24
472.22	9207.67
472.40	9125.75
472.58	9259.16
472.77	9371.50
472.95	9371.50
473.13	9675.77
473.31	9273.20
473.49	9331.72
473.67	9455.76
473.85	9734.29
474.03	9731.95
474.21	9755.35
474.39	9745.99
474.57	9881.74
474.75	9783.44
474.93	10066.64
475.12	10005.79
475.30	10274.95
475.48	9853.66
475.66	10059.62
475.84	10097.07
476.02	10125.16
476.20	10249.21
476.38	10504.32
476.56	10544.11
476.74	10408.36
476.92	10242.18
477.10	10527.73
477.28	10738.38
477.46	10682.20
477.64	10642.42
477.82	11014.56
478.00	11241.59
478.18	11042.65
478.36	11005.20
478.54	11227.55
478.72	11398.41
478.90	11393.73
479.08	11552.88
479.26	11674.59
479.44	11541.18
479.62	11803.32
479.80	11733.11
479.98	11857.15
480.16	12297.17
480.34	12187.17
480.52	12285.47
480.70	12259.73
480.88	12084.19
481.06	12177.81
481.24	12468.03
481.41	12697.41
481.59	12863.58
481.77	12931.46
481.95	13153.81
482.13	13160.83
482.31	13111.68
482.49	13308.29
482.67	13444.04
482.85	13537.66
483.03	13509.57
483.21	13745.97
483.39	13755.33
483.57	13666.39
483.74	13785.76
483.92	14092.37
484.10	13912.14
484.28	14160.24
484.46	14679.84
484.64	14775.80
484.82	14394.29
485.00	14689.20
485.18	14820.27
485.35	15061.35
485.53	15033.26
485.71	15227.53
485.89	15494.35
486.07	15454.56
486.25	15417.11
486.43	15311.78
486.61	15702.65
486.78	16063.10
486.96	15838.41
487.14	15971.82
487.32	16177.78
487.50	16580.36
487.68	16491.41
487.85	16755.90
488.03	16992.29
488.21	16856.54
488.39	16816.75
488.57	16854.20
488.75	17118.68
488.92	17242.73
489.10	17568.06
489.28	17743.60
489.46	17664.02
489.64	17809.14
489.81	18064.25
489.99	18080.64
490.17	18148.51
490.35	18427.04
490.53	18689.18
490.70	18499.59
490.88	18373.21
491.06	19049.62
491.24	18944.30
491.41	19047.28
491.59	19264.95
491.77	19276.65
491.95	19309.42
492.13	19398.36
492.30	19711.99
492.48	19576.24
492.66	19836.04
492.84	19756.46
493.01	20327.55
493.19	19943.70
493.37	20205.84
493.54	20222.23
493.72	20533.52
493.90	20531.18
494.08	20751.19
494.25	20816.72
494.43	21200.57
494.61	21247.38
494.79	21076.52
494.96	21359.73
495.14	21549.31
495.32	21923.80
495.49	21584.42
495.67	21633.57
495.85	22022.10
496.02	22143.81
496.20	22726.60
496.38	22181.26
496.55	22235.09
496.73	22960.66
496.91	22490.21
497.09	22724.26
497.26	22754.69
497.44	22831.93
497.62	23105.77
497.79	23639.41
497.97	23136.20
498.14	23566.85
498.32	23843.04
498.50	23480.25
498.67	23854.74
498.85	23927.30
499.03	24009.22
499.20	23920.28
499.38	24102.84
499.56	24219.86
499.73	24453.92
499.91	24765.21
500.08	24826.06
500.26	24795.64
500.44	24643.50
500.61	24622.44
500.79	24884.58
500.97	25399.49
501.14	25275.45
501.32	25205.23
501.49	25366.73
501.67	25408.86
501.84	25678.02
502.02	25710.78
502.20	25977.61
502.37	26061.87
502.55	25846.54
502.72	26054.84
502.90	26019.74
503.07	25713.13
503.25	26316.98
503.43	26132.08
503.60	26183.57
503.78	26478.48
503.95	26373.16
504.13	26717.22
504.30	26764.03
504.48	26466.78
504.65	27159.58
504.83	27180.64
505.01	27288.31
505.18	27321.07
505.36	27552.79
505.53	27250.86
505.71	27810.25
505.88	27388.95
506.06	27592.58
506.23	27735.35
506.41	27835.99
506.58	27749.39
506.76	28128.56
506.93	27908.55
507.11	28039.62
507.28	27964.72
507.46	28166.01
507.63	28418.78
507.81	28297.08
507.98	28617.73
508.16	28261.97
508.33	28676.24
508.50	28751.14
508.68	28774.55
508.85	28961.79
509.03	29181.80
509.20	29024.98
509.38	29371.38
509.55	29230.95
509.73	29060.09
509.90	29418.19
510.08	29301.17
510.25	29455.64
510.42	29343.30
510.60	29493.09
510.77	29556.28
510.95	30321.64
511.12	29846.51
511.30	29993.97
511.47	30300.58
511.64	30038.44
511.82	30197.59
511.99	30132.06
512.17	30459.73
512.34	30611.87
512.51	30829.54
512.69	31000.40
512.86	30719.53
513.04	31164.23
513.21	30892.73
513.38	30808.47
513.56	31213.38
513.73	31239.13
513.90	31445.10
514.08	31271.90
514.25	31548.08
514.43	31510.63
514.60	31613.62
514.77	31489.57
514.95	31838.31
515.12	31887.46
515.29	31648.72
515.47	32109.81
515.64	32512.38
515.81	31971.72
515.99	32151.94
516.16	32341.52
516.33	32313.44
516.51	32334.50
516.68	32617.71
516.85	32467.91
517.03	32797.93
517.20	32818.99
517.37	32479.61
517.54	32961.76
517.72	33053.05
517.89	32999.21
518.06	33006.23
518.24	33205.18
518.41	32767.50
518.58	33081.13
518.75	33170.07
518.93	33326.89
519.10	33511.79
519.27	33703.71
519.45	33668.61
519.62	33670.95
519.79	34045.43
519.96	33684.99
520.14	33687.33
520.31	33825.42
520.48	33776.27
520.65	34122.67
520.83	34136.71
521.00	34167.14
521.17	34422.26
521.34	34511.20
521.52	34220.97
521.69	34712.49
521.86	34848.24
522.03	34843.56
522.20	35009.73
522.38	34796.74
522.55	34958.24
522.72	35089.31
522.89	34857.60
523.07	35250.81
523.24	35049.52
523.41	35559.76
523.58	35323.36
523.75	35133.78
523.92	34916.11
524.10	35658.06
524.27	35370.18
524.44	35714.23
524.61	35796.15
524.78	35531.67
524.96	35885.09
525.13	35878.07
525.30	36170.64
525.47	36362.56
525.64	36107.44
525.81	35990.42
525.98	36224.47
526.16	36367.24
526.33	36240.86
526.50	36711.30
526.67	35859.35
526.84	36708.96
527.01	36538.10
527.18	36734.71
527.36	36879.82
527.53	37083.45
527.70	37284.73
527.87	36790.88
528.04	36833.01
528.21	37244.94
528.38	37158.34
528.55	36699.60
528.72	36996.85
528.89	37577.30
529.07	37270.69
529.24	37106.85
529.41	37738.80
529.58	37170.05
529.75	37354.95
529.92	37825.40
530.09	37766.88
530.26	37633.47
530.43	37605.39
530.60	37792.63
530.77	37699.01
530.94	37628.79
531.11	37490.70
531.28	38061.79
531.46	37797.31
531.63	38124.99
531.80	38012.64
531.97	38583.73
532.14	37867.53
532.31	38293.50
532.48	38192.86
532.65	38300.53
532.82	38000.94
532.99	38366.06
533.16	38319.25
533.33	38366.06
533.50	38689.06
533.67	38756.93
533.84	38412.87
534.01	38635.22
534.18	38815.44
534.35	38937.15
534.52	38883.32
534.69	39299.94
534.86	39222.70
535.03	39236.74
535.20	39267.17
535.37	39693.15
535.54	39559.73
535.71	39531.65
535.88	39426.32
536.05	39789.11
536.22	39859.32
536.38	39711.87
536.55	39868.69
536.72	39625.27
536.89	39772.72
537.06	39746.98
537.23	40128.48
537.40	39793.79
537.57	40121.46
537.74	39770.38
537.91	40320.41
538.08	40027.84
538.25	39447.39
538.42	40121.46
538.59	40421.05
538.75	39840.60
538.92	40378.92
539.09	40877.46
539.26	40552.12
539.43	40336.79
539.60	40128.48
539.77	40196.36
539.94	40875.12
540.11	40648.08
540.28	40879.80
540.44	40856.39
540.61	40760.43
540.78	40535.74
540.95	40912.56
541.12	41155.98
541.29	40964.06
541.46	41106.83
541.62	41043.63
541.79	41366.63
541.96	40816.60
542.13	41254.28
542.30	41312.80
542.47	40982.78
542.63	41170.02
542.80	41642.81
542.97	41825.37
543.14	42101.56
543.31	41832.39
543.48	41811.33
543.64	41902.61
543.81	41338.54
543.98	41916.65
544.15	41827.71
544.32	42195.18
544.48	42457.32
544.65	42106.24
544.82	42396.46
544.99	42080.49
545.16	42424.55
545.32	42359.02
545.49	42380.08
545.66	42972.24
545.83	42380.08
546.00	42604.77
546.16	42782.65
546.33	42398.80
546.50	42728.82
546.67	43007.34
546.83	42593.07
547.00	42375.40
547.17	42700.73
547.34	42581.37
547.50	43012.02
547.67	43435.66
547.84	42927.77
548.00	42972.24
548.17	43276.51
548.34	43035.43
548.51	43021.39
548.67	43274.16
548.84	42838.83
549.01	43356.08
549.18	42752.23
549.34	43320.98
549.51	43665.03
549.68	43550.35
549.84	43363.11
550.01	43599.50
550.18	43423.96
550.34	43592.48
550.51	43634.61
550.68	43576.09
550.84	43440.34
551.01	43878.02
551.18	43433.32
551.34	43299.91
551.51	44128.46
551.68	43707.16
551.84	43555.03
552.01	43758.66
552.18	44404.64
552.34	43611.20
552.51	43751.63
552.68	43611.20
552.84	43854.62
553.01	44128.46
553.18	44016.11
553.34	44388.26
553.51	43988.03
553.67	44421.03
553.84	44121.44
554.01	44507.63
554.17	43941.22
554.34	44666.78
554.51	44584.86
554.67	44807.22
554.84	44596.57
555.00	44528.69
555.17	44720.62
555.33	44856.37
555.50	44498.26
555.67	44751.04
555.83	44790.83
556.00	45034.25
556.16	45095.10
556.33	44978.07
556.50	44854.03
556.66	44868.07
556.83	44488.90
556.99	45200.43
557.16	45003.82
557.32	45041.27
557.49	44847.00
557.65	44669.12
557.82	44818.92
557.98	45027.23
558.15	44952.33
558.32	45125.53
558.48	44814.24
558.65	44994.46
558.81	45645.13
558.98	44973.39
559.14	45280.00
559.31	45268.30
559.47	45399.37
559.64	45495.33
559.80	45436.82
559.97	45528.10
560.13	45392.35
560.30	45579.59
560.46	45242.56
560.63	45897.91
560.79	45287.03
560.96	45764.49
561.12	45542.14
561.29	45687.26
561.45	46014.93
561.61	45251.92
561.78	45373.63
561.94	45715.34
562.11	45865.14
562.27	45696.62
562.44	45532.78
562.60	45642.79
562.77	45579.59
562.93	45610.02
563.10	46183.45
563.26	46026.63
563.42	46248.99
563.59	45881.52
563.75	45970.46
563.92	45698.96
564.08	45654.49
564.24	46171.75
564.41	45975.14
564.57	45930.67
564.74	46078.13
564.90	45991.53
565.07	46101.53
565.23	45801.94
565.39	45710.66
565.56	46167.07
565.72	45848.75
565.88	46440.91
566.05	46197.49
566.21	46213.88
566.38	46092.17
566.54	46286.43
566.70	46014.93
566.87	46113.23
567.03	46157.70
567.19	46410.48
567.36	46469.00
567.52	46279.41
567.68	46686.67
567.85	46595.38
568.01	46433.89
568.17	46263.03
568.34	46396.44
568.50	46597.73
568.66	46089.83
568.83	46639.86
568.99	46075.79
569.15	46560.28
569.32	46354.31
569.48	46389.42
569.64	47065.83
569.81	46567.30
569.97	46539.21
570.13	47012.00
570.30	46454.95
570.46	46141.32
570.62	46883.27
570.78	46824.76
570.95	46501.76
571.11	46857.52
571.27	46504.10
571.43	46454.95
571.60	47320.95
571.76	46464.32
571.92	46527.51
572.09	46511.13
572.25	46644.54
572.41	46724.11
572.57	47075.19
572.74	47079.88
572.90	46667.94
573.06	46880.93
573.22	47232.01
573.38	47157.11
573.55	47154.77
573.71	46953.49
573.87	46976.89
574.03	46927.74
574.20	47166.48
574.36	46726.46
574.52	46878.59
574.68	47304.57
574.84	47232.01
575.01	47093.92
575.17	47339.68
575.33	46850.50
575.49	46866.89
575.65	46642.20
575.82	46831.78
575.98	46646.88
576.14	47323.29
576.30	47372.44
576.46	47136.05
576.62	46934.76
576.79	47166.48
576.95	46380.06
577.11	46506.44
577.27	47075.19
577.43	47019.02
577.59	47379.46
577.75	46745.18
577.92	46824.76
578.08	46824.76
578.24	47206.26
578.40	47365.42
578.56	47040.09
578.72	46911.36
578.88	47452.02
579.04	46775.61
579.21	46763.90
579.37	47107.96
579.53	47171.16
579.69	47140.73
579.85	47187.54
580.01	47435.64
580.17	46972.21
580.33	47491.81
580.49	47136.05
580.65	47117.32
580.82	46850.50
580.98	46976.89
581.14	46873.91
581.30	47735.23
581.46	47201.58
581.62	47004.98
581.78	47068.17
581.94	47220.31
582.10	47339.68
582.26	47690.76
582.42	47379.46
582.58	47297.55
582.74	47243.71
582.90	47473.09
583.06	47164.14
583.22	47229.67
583.38	47672.03
583.54	47480.11
583.70	47154.77
583.86	47423.93
584.02	47124.35
584.18	47269.46
584.34	46993.28
584.50	47725.86
584.66	47732.89
584.82	47466.06
584.98	47826.51
585.14	47749.27
585.30	47037.75
585.46	47297.55
585.62	47650.97
585.78	47559.69
585.94	46916.04
586.10	47012.00
586.26	47545.64
586.42	47433.30
586.58	47412.23
586.74	47173.50
586.90	47063.49
587.06	47414.57
587.22	47475.43
587.38	47470.75
587.54	47353.72
587.70	47711.82
587.86	47428.62
588.02	47367.76
588.18	47210.95
588.34	47597.13
588.49	47236.69
588.65	47220.31
588.81	47557.35
588.97	47973.96
589.13	47498.83
589.29	47288.18
589.45	47758.63
589.61	48067.58
589.77	47655.65
589.93	47372.44
590.08	47590.11
590.24	47908.43
590.40	47653.31
590.56	48303.98
590.72	47643.94
590.88	47604.16
591.04	47852.25
591.20	48090.99
591.35	48025.45
591.51	48009.07
591.67	48208.01
591.83	48088.65
591.99	47913.11
592.15	48018.43
592.31	47976.30
592.46	47632.24
592.62	47716.50
592.78	48147.16
592.94	48177.59
593.10	47908.43
593.26	47847.57
593.41	48069.92
593.57	47798.42
593.73	47845.23
593.89	48226.74
594.05	48374.19
594.20	48247.80
594.36	48360.15
594.52	48128.44
594.68	48308.66
594.84	48100.35
594.99	48060.56
595.15	48065.24
595.31	47999.71
595.47	47784.38
595.62	48109.71
595.78	48100.35
595.94	48451.43
596.10	48032.47
596.25	48296.95
596.41	48299.30
596.57	48093.33
596.73	48348.45
596.88	48020.77
597.04	48240.78
597.20	48156.52
597.36	47917.79
597.51	47842.89
597.67	48252.48
597.83	48065.24
597.99	48034.81
598.14	47868.64
598.30	48275.89
598.46	48009.07
598.61	48282.91
598.77	48065.24
598.93	48507.60
599.09	48388.24
599.24	48786.13
599.40	48446.75
599.56	48090.99
599.71	48671.44
599.87	48795.49
600.03	48772.08
600.18	48156.52
600.34	48170.57
600.50	48437.39
600.65	47927.15
600.81	48538.03
600.97	48523.99
601.12	48636.33
601.28	48196.31
601.44	48168.22
601.59	48687.82
601.75	48495.90
601.91	48357.81
602.06	48238.44
602.22	48303.98
602.37	48332.06
602.53	48444.41
602.69	48594.20
602.84	48222.06
603.00	48395.26
603.16	48147.16
603.31	48575.48
603.47	48577.82
603.62	48168.22
603.78	48748.68
603.94	48168.22
604.09	48526.33
604.25	47927.15
604.40	48467.81
604.56	48289.93
604.71	48769.74
604.87	48458.45
605.03	48142.48
605.18	48219.72
605.34	48229.08
605.49	48299.30
605.65	48325.04
605.80	47758.63
605.96	48339.08
606.12	48168.22
606.27	48313.34
606.43	47955.24
606.58	48329.72
606.74	48154.18
606.89	48362.49
607.05	48039.50
607.20	48416.32
607.36	48034.81
607.51	48208.01
607.67	47950.56
607.82	47547.98
607.98	47924.81
608.13	48226.74
608.29	48329.72
608.44	48098.01
608.60	48350.79
608.75	47887.36
608.91	47959.92
609.06	47718.84
609.22	48435.05
609.37	47828.85
609.53	48074.60
609.68	48034.81
609.84	47810.12
609.99	47901.40
610.15	48388.24
610.30	47920.13
610.46	48095.67
610.61	48264.19
610.76	47760.97
610.92	47910.77
611.07	47730.54
611.23	47480.11
611.38	47611.18
611.54	48165.88
611.69	48137.80
611.84	48154.18
612.00	47887.36
612.15	47964.60
612.31	48336.74
612.46	47426.28
612.62	47564.37
612.77	47756.29
612.92	47821.83
613.08	47894.38
613.23	47798.42
613.39	47484.79
613.54	47323.29
613.69	48079.28
613.85	47487.13
614.00	47662.67
614.15	47999.71
614.31	47215.63
614.46	47782.04
614.62	47475.43
614.77	47693.10
614.92	47327.97
615.08	47512.88
615.23	47473.09
615.38	47821.83
615.54	47449.68
615.69	47667.35
615.84	47679.05
616.00	47758.63
616.15	47342.02
616.30	47555.00
616.46	47494.15
616.61	47721.18
616.76	47613.52
616.92	47393.51
617.07	47161.79
617.22	47299.89
617.37	47049.45
617.53	47538.62
617.68	46820.08
617.83	46981.57
617.99	47655.65
618.14	47615.86
618.29	46974.55
618.45	47100.94
618.60	47370.10
618.75	46623.47
618.90	47023.70
619.06	46960.51
619.21	46639.86
619.36	47232.01
619.51	46939.44
619.67	46794.33
619.82	47117.32
619.97	46993.28
620.12	46911.36
620.28	47180.52
620.43	47402.87
620.58	47278.82
620.73	47262.44
620.89	46997.96
621.04	47168.82
621.19	46983.91
621.34	47236.69
621.49	46775.61
621.65	46948.81
621.80	47327.97
621.95	46918.38
622.10	46988.60
622.25	47030.72
622.41	46656.24
622.56	46387.08
622.71	46756.88
622.86	47100.94
623.01	46710.07
623.16	46665.60
623.32	46527.51
623.47	46389.42
623.62	46539.21
623.77	46822.42
623.92	46630.49
624.07	46663.26
624.23	46789.65
624.38	46536.87
624.53	46520.49
624.68	46335.59
624.83	46284.09
624.98	46288.77
625.13	45975.14
625.29	45900.25
625.44	46124.94
625.59	46433.89
625.74	46265.37
625.89	46024.29
626.04	46122.60
626.19	46436.23
626.34	45928.33
626.49	45893.22
626.65	45900.25
626.80	45846.41
626.95	45811.31
627.10	45823.01
627.25	46445.59
627.40	45834.71
627.55	45895.56
627.70	45951.74
627.85	45827.69
628.00	45970.46
628.15	46160.05
628.30	45839.39
628.45	45387.67
628.60	45153.62
628.76	45909.61
628.91	45925.99
629.06	45368.94
629.21	45296.39
629.36	45633.42
629.51	45116.17
629.66	45523.42
629.81	45701.30
629.96	45689.60
630.11	45371.28
630.26	45684.92
630.41	45216.81
630.56	45237.87
630.71	45453.20
630.86	45361.92
631.01	44767.43
631.16	45242.56
631.31	45359.58
631.46	45282.34
631.61	45361.92
631.76	45382.99
631.91	45631.08
632.06	45635.77
632.21	45633.42
632.36	45567.89
632.51	45003.82
632.66	45492.99
632.81	45184.04
632.96	45539.80
633.10	45118.51
633.25	45233.19
633.40	45184.04
633.55	45371.28
633.70	45102.12
633.85	44760.40
634.00	45083.40
634.15	44980.42
634.30	44582.52
634.45	44320.38
634.60	44931.26
634.75	44900.84
634.90	45160.64
635.05	44858.71
635.19	45041.27
635.34	44989.78
635.49	44755.72
635.64	44804.88
635.79	44760.40
635.94	44865.73
636.09	44856.37
636.24	44456.14
636.39	44666.78
636.53	44781.47
636.68	44545.08
636.83	43908.45
636.98	43913.13
637.13	44177.61
637.28	44208.04
637.43	44163.57
637.57	44481.88
637.72	43765.68
637.87	44170.59
638.02	44240.81
638.17	44538.05
638.32	44018.46
638.46	43615.88
638.61	44217.40
638.76	43697.80
638.91	43983.35
639.06	43992.71
639.20	43672.06
639.35	43746.95
639.50	43428.64
639.65	43756.32
639.80	44348.47
639.94	43990.37
640.09	44046.54
640.24	44364.85
640.39	43604.18
640.54	43159.48
640.68	43533.96
640.83	43941.22
640.98	43503.54
641.13	43468.43
641.27	44086.33
641.42	43718.87
641.57	43501.20
641.72	43761.00
641.86	43187.56
642.01	43384.17
642.16	43339.70
642.31	43356.08
642.45	43845.26
642.60	42955.85
642.75	43175.86
642.90	43646.31
643.04	43335.02
643.19	42824.78
643.34	42967.55
643.48	43000.32
643.63	43124.37
643.78	43363.11
643.93	43700.14
644.07	43187.56
644.22	42986.28
644.37	43351.40
644.51	43407.58
644.66	43264.80
644.81	42916.06
644.95	42742.86
645.10	43124.37
645.25	42686.69
645.39	43122.03
645.54	43019.05
645.69	43150.12
645.83	42782.65
645.98	42976.92
646.13	42501.79
646.27	42576.69
646.42	42728.82
646.57	43089.26
646.71	42869.25
646.86	42897.34
647.00	42719.46
647.15	43019.05
647.30	43028.41
647.44	42635.20
647.59	42534.56
647.74	42359.02
647.88	42829.46
648.03	42745.20
648.17	43051.81
648.32	42586.05
648.47	42780.31
648.61	42298.16
648.76	42445.62
648.90	42745.20
649.05	42401.14
649.20	42583.71
649.34	42529.87
649.49	42454.98
649.63	42642.22
649.78	42679.67
649.92	42122.62
650.07	42550.94
650.21	42700.73
650.36	42515.83
650.51	42377.74
650.65	42534.56
650.80	42520.51
650.94	42284.12
651.09	42190.50
651.23	42120.28
651.38	42057.09
651.52	41886.23
651.67	41977.51
651.81	41783.24
651.96	41911.97
652.10	41504.72
652.25	41867.50
652.39	42157.73
652.54	41748.14
652.68	41654.51
652.83	41876.86
652.97	41717.71
653.12	41834.74
653.26	41649.83
653.41	41888.57
653.55	41448.55
653.70	41956.44
653.84	42113.26
653.99	41521.10
654.13	41532.81
654.27	41596.00
654.42	41743.45
654.56	41823.03
654.71	42061.77
654.85	41448.55
655.00	41588.98
655.14	41460.25
655.29	41471.95
655.43	41989.21
655.57	40907.88
655.72	41289.39
655.86	41301.09
656.01	41097.47
656.15	41090.44
656.30	41071.72
656.44	41153.64
656.58	41258.96
656.73	41322.16
656.87	41076.40
657.01	41195.77
657.16	41364.29
657.30	40971.08
657.45	40917.25
657.59	40854.05
657.73	40790.86
657.88	40814.26
658.02	41198.11
658.16	41097.47
658.31	40830.65
658.45	40858.73
658.60	40088.70
658.74	40722.98
658.88	40727.66
659.03	40414.03
659.17	40327.43
659.31	40233.81
659.46	40140.19
659.60	40423.39
659.74	40137.85
659.89	40149.55
660.03	39856.98
660.17	40156.57
660.32	40437.44
660.46	39910.82
660.60	39849.96
660.74	39737.62
660.89	40212.74
661.03	39906.13
661.17	39754.00
661.32	39887.41
661.46	39648.68
661.60	39761.02
661.74	39648.68
661.89	39576.12
662.03	39615.91
662.17	39337.38
662.31	39466.11
662.46	39789.11
662.60	39496.54
662.74	39009.71
662.88	39047.16
663.03	39021.41
663.17	38888.00
663.31	38946.51
663.45	38913.75
663.60	39257.81
663.74	39386.54
663.88	39033.11
664.02	39119.71
664.17	39239.08
664.31	38679.69
664.45	38548.62
664.59	38864.60
664.73	38518.20
664.88	38979.28
665.02	38494.79
665.16	38281.80
665.30	38490.11
665.44	38714.80
665.59	38113.28
665.73	38309.89
665.87	37427.51
666.01	38010.30
666.15	38064.13
666.29	38045.41
666.44	38497.13
666.58	37982.21
666.72	37752.84
666.86	38045.41
667.00	37633.47
667.14	37361.97
667.28	37951.79
667.43	37694.33
667.57	37551.56
667.71	37546.87
667.85	37759.86
667.99	37528.15
668.13	37736.46
668.27	36720.66
668.41	37198.13
668.56	36779.18
668.70	36891.52
668.84	36842.37
668.98	36306.39
669.12	36811.95
669.26	37296.44
669.40	36603.64
669.54	37127.92
669.68	36673.85
669.82	36453.84
669.96	36142.55
670.10	36027.87
670.25	35997.44
670.39	35868.71
670.53	36404.69
670.67	36512.36
670.81	36149.57
670.95	35915.52
671.09	35885.09
671.23	36158.94
671.37	35566.78
671.51	35515.29
671.65	35519.97
671.79	35796.15
671.93	35793.81
672.07	35915.52
672.21	35725.94
672.35	35267.19
672.49	35140.80
672.63	35161.87
672.77	34904.41
672.91	35026.12
673.05	35201.66
673.19	34469.07
673.33	34569.71
673.47	34911.43
673.61	34637.59
673.75	34298.21
673.89	34541.63
674.03	34319.28
674.17	34129.69
674.31	34361.40
674.45	33970.54
674.59	33958.83
674.73	34026.71
674.87	33795.00
675.01	33647.54
675.15	33795.00
675.29	33682.65
675.43	33387.74
675.56	33783.29
675.70	33331.57
675.84	33294.12
675.98	32250.24
676.12	33275.40
676.26	33411.15
676.40	32933.68
676.54	32893.89
676.68	32957.08
676.82	32507.70
676.96	32858.78
677.10	32701.96
677.23	32498.34
677.37	32327.48
677.51	32481.95
677.65	32189.39
677.79	32065.34
677.93	32313.44
678.07	32058.32
678.21	31531.70
678.34	31566.81
678.48	31360.84
678.62	31454.46
678.76	31344.45
678.90	31285.94
679.04	31199.34
679.18	31239.13
679.31	31325.73
679.45	30548.67
679.59	30658.68
679.73	31555.10
679.87	30555.69
680.00	30698.47
680.14	30632.93
680.28	30747.62
680.42	30581.44
680.56	30096.95
680.70	30089.93
680.83	29956.52
680.97	29560.97
681.11	29888.64
681.25	29406.49
681.39	29626.50
681.52	29820.77
681.66	29287.12
681.80	28840.08
681.94	28634.11
682.07	28659.86
682.21	28882.21
682.35	28655.18
682.49	28568.58
682.62	28973.49
682.76	28751.14
682.90	28503.04
683.04	28044.30
683.17	28254.95
683.31	28168.35
683.45	28219.84
683.59	27711.94
683.72	27697.90
683.86	27545.76
684.00	27653.43
684.13	27782.16
684.27	27405.33
684.41	27278.94
684.55	27339.80
684.68	27592.58
684.82	27197.02
684.96	27072.98
685.09	27227.45
685.23	26911.48
685.37	27260.22
685.50	27185.32
685.64	26766.37
685.78	26515.93
685.91	26544.02
686.05	25841.85
686.19	25916.75
686.32	25759.94
686.46	25736.53
686.60	25830.15
686.73	25905.05
686.87	25598.44
687.01	25837.17
687.14	25713.13
687.28	25621.84
687.42	25303.53
687.55	25067.14
687.69	25025.01
687.82	24982.88
687.96	25097.56
688.10	25078.84
688.23	24802.66
688.37	24912.66
688.50	24889.26
688.64	24863.51
688.78	24645.84
688.91	24404.77
689.05	24168.37
689.18	23976.45
689.32	23391.31
689.46	23765.80
689.59	23606.64
689.73	23999.85
689.86	24093.47
690.00	23892.19
690.13	23697.92
690.27	23480.25
690.41	23054.28
690.54	23180.67
690.68	23056.62
690.81	23133.86
690.95	22724.26
691.08	22726.60
691.22	22780.43
691.35	22705.54
691.49	22752.35
691.62	22703.20
691.76	22284.24
691.89	22277.22
692.03	22141.47
692.16	21979.97
692.30	22181.26
692.43	22026.78
692.57	21474.42
692.70	22015.08
692.84	21436.97
692.97	20957.16
693.11	21322.28
693.24	21259.09
693.38	20847.15
693.51	20964.18
693.65	21188.87
693.78	21022.69
693.92	20957.16
694.05	20889.28
694.19	20470.33
694.32	20517.14
694.45	20741.83
694.59	20723.10
694.72	20858.85
694.86	20411.81
694.99	20210.53
695.13	19962.43
695.26	19988.18
695.39	19964.77
695.53	19854.76
695.66	19531.77
695.80	19967.11
695.93	19475.60
696.07	19377.30
696.20	19103.45
696.33	18731.31
696.47	19122.18
696.60	19342.19
696.73	19152.60
696.87	19012.17
697.00	18792.16
697.14	18867.06
697.27	18836.63
697.40	18513.64
697.54	18689.18
697.67	18288.95
697.80	18321.71
697.94	18352.14
698.07	18263.20
698.21	18190.64
698.34	17994.04
698.47	17977.65
698.61	17507.21
698.74	17905.10
698.87	17865.31
699.01	17462.74
699.14	17502.53
699.27	17507.21
699.40	17224.00
699.54	17214.64
699.67	17179.53
699.80	17214.64
699.94	17151.45
700.07	17172.51
700.20	16931.44
700.34	16673.98
700.47	16947.82
700.60	17095.27
700.73	16587.38
700.87	16100.55
701.00	16257.36
701.13	16205.87
701.26	16444.60
701.40	16142.67
701.53	15917.98
701.66	15833.72
701.79	15857.13
701.93	15829.04
702.06	15686.27
702.19	15653.50
702.32	15822.02
702.46	15534.14
702.59	15648.82
702.72	15482.64
702.85	15597.33
702.99	15559.88
703.12	15382.00
703.25	15262.63
703.38	15178.37
703.51	15009.86
703.65	14724.31
703.78	14916.23
703.91	14736.01
704.04	14583.88
704.17	14380.25
704.31	14293.65
704.44	14604.94
704.57	14494.94
704.70	14300.67
704.83	14232.80
704.96	14354.51
705.10	13790.44
705.23	13919.17
>>>>>End Processed Spectral Data<<<<<
