SpectraSuite Data File
++++++++++++++++++++++++++++++++++++
Date: Fri Oct 25 10:43:14 EDT 2013
User: price-jones
Dark Spectrum Present: No
Reference Spectrum Present: No
Number of Sampled Component Spectra: 1
Spectrometers: USB2+H05261
Integration Time (usec): 100000 (USB2+H05261)
Spectra Averaged: 1 (USB2+H05261)
Boxcar Smoothing: 0 (USB2+H05261)
Correct for Electrical Dark: No (USB2+H05261)
Strobe/Lamp Enabled: No (USB2+H05261)
Correct for Detector Non-linearity: No (USB2+H05261)
Correct for Stray Light: No (USB2+H05261)
Number of Pixels in Processed Spectrum: 2048
>>>>>Begin Processed Spectral Data<<<<<
365.73	77.24
365.92	77.24
366.12	77.24
366.32	0.00
366.52	0.00
366.72	58.51
366.91	0.00
367.11	42.13
367.31	28.09
367.51	16.38
367.70	7.02
367.90	28.09
368.10	53.83
368.30	11.70
368.49	65.54
368.69	81.92
368.89	105.32
369.09	110.01
369.28	91.28
369.48	79.58
369.68	74.90
369.87	42.13
370.07	4.68
370.27	154.48
370.47	173.20
370.66	337.04
370.86	353.42
371.06	482.15
371.25	416.62
371.45	367.46
371.65	479.81
371.84	430.66
372.04	468.11
372.24	512.58
372.44	479.81
372.63	545.34
372.83	514.92
373.03	543.00
373.22	486.83
373.42	435.34
373.62	550.03
373.81	437.68
374.01	503.22
374.21	557.05
374.40	540.66
374.60	533.64
374.79	517.26
374.99	552.37
375.19	547.69
375.38	664.71
375.58	613.22
375.78	531.30
375.97	608.54
376.17	554.71
376.37	552.37
376.56	641.31
376.76	643.65
376.95	615.56
377.15	622.58
377.35	664.71
377.54	596.84
377.74	671.73
377.93	641.31
378.13	613.22
378.33	692.80
378.52	648.33
378.72	683.44
378.91	671.73
379.11	669.39
379.31	657.69
379.50	594.50
379.70	671.73
379.89	784.08
380.09	690.46
380.28	678.76
380.48	695.14
380.68	671.73
380.87	580.45
381.07	744.29
381.26	697.48
381.46	791.10
381.65	711.52
381.85	645.99
382.04	723.23
382.24	737.27
382.43	671.73
382.63	636.63
382.83	638.97
383.02	770.04
383.22	739.61
383.41	751.31
383.61	723.23
383.80	711.52
384.00	737.27
384.19	763.01
384.39	706.84
384.58	816.85
384.78	699.82
384.97	851.96
385.17	704.50
385.36	751.31
385.56	833.23
385.75	788.76
385.95	751.31
386.14	884.72
386.34	788.76
386.53	851.96
386.72	793.44
386.92	849.61
387.11	901.11
387.31	856.64
387.50	901.11
387.70	823.87
387.89	915.15
388.09	823.87
388.28	828.55
388.48	976.00
388.67	823.87
388.86	952.60
389.06	961.96
389.25	898.77
389.45	945.58
389.64	933.87
389.84	990.05
390.03	1013.45
390.22	1043.88
390.42	931.53
390.61	940.90
390.81	1046.22
391.00	997.07
391.19	966.64
391.39	1078.99
391.58	1067.28
391.78	1039.20
391.97	1060.26
392.16	954.94
392.36	983.02
392.55	1090.69
392.75	1011.11
392.94	945.58
393.13	1015.79
393.33	1020.47
393.52	1076.65
393.71	1107.07
393.91	1081.33
394.10	1135.16
394.29	1032.18
394.49	1153.88
394.68	1153.88
394.88	1254.53
395.07	1238.14
395.26	1118.78
395.46	1196.01
395.65	1310.70
395.84	1252.19
396.04	1231.12
396.23	1193.67
396.42	1186.65
396.62	1228.78
396.81	1100.05
397.00	1188.99
397.19	1179.63
397.39	1277.93
397.58	1383.26
397.77	1401.98
397.97	1441.77
398.16	1420.71
398.35	1439.43
398.55	1387.94
398.74	1418.36
398.93	1509.65
399.12	1350.49
399.32	1462.83
399.51	1437.09
399.70	1540.07
399.90	1591.56
400.09	1589.22
400.28	1570.50
400.47	1600.93
400.67	1598.59
400.86	1598.59
401.05	1640.72
401.24	1687.53
401.44	1811.57
401.63	1647.74
401.82	1699.23
402.01	1640.72
402.21	1666.46
402.40	1736.68
402.59	1668.80
402.78	1701.57
402.97	1739.02
403.17	1774.13
403.36	1696.89
403.55	1842.00
403.74	1895.83
403.93	1982.43
404.13	1823.28
404.32	1830.30
404.51	1879.45
404.70	1837.32
404.89	1989.46
405.09	1963.71
405.28	1989.46
405.47	1919.24
405.66	1914.56
405.85	2052.65
406.05	2036.27
406.24	1909.88
406.43	1989.46
406.62	2064.35
406.81	2153.29
407.00	2069.03
407.20	1949.67
407.39	2160.31
407.58	2113.50
407.77	2211.81
407.96	2153.29
408.15	2279.68
408.34	2181.38
408.54	2260.96
408.73	2342.88
408.92	2284.36
409.11	2328.83
409.30	2387.35
409.49	2251.60
409.68	2174.36
409.87	2256.28
410.07	2277.34
410.26	2303.09
410.45	2392.03
410.64	2408.41
410.83	2443.52
411.02	2523.10
411.21	2619.06
411.40	2607.36
411.59	2544.16
411.78	2621.40
411.98	2527.78
412.17	2696.30
412.36	2738.43
412.55	2703.32
412.74	2768.85
412.93	2738.43
413.12	2682.25
413.31	2796.94
413.50	2913.97
413.69	2920.99
413.88	2911.63
414.07	2825.03
414.26	2888.22
414.45	2899.92
414.64	2949.08
414.83	3049.72
415.02	3066.10
415.22	3138.66
415.41	3112.91
415.60	3009.93
415.79	3206.53
415.98	3162.06
416.17	3328.24
416.36	3183.13
416.55	3353.99
416.74	3260.37
416.93	3208.87
417.12	3269.73
417.31	3267.39
417.50	3393.78
417.69	3466.33
417.88	3393.78
418.07	3412.50
418.26	3543.57
418.45	3454.63
418.64	3651.24
418.83	3510.80
419.02	3466.33
419.21	3506.12
419.39	3552.93
419.58	3585.70
419.77	3344.63
419.96	3585.70
420.15	3728.47
420.34	3716.77
420.53	3840.82
420.72	3756.56
420.91	3803.37
421.10	3815.07
421.29	3885.29
421.48	3826.78
421.67	4007.00
421.86	3831.46
422.05	3985.93
422.24	3803.37
422.43	3768.26
422.61	3892.31
422.80	3941.46
422.99	3864.22
423.18	3836.14
423.37	3934.44
423.56	3896.99
423.75	3957.85
423.94	3866.56
424.13	3772.94
424.32	3737.84
424.50	4058.49
424.69	4044.45
424.88	4084.23
425.07	3768.26
425.26	3822.09
425.45	3934.44
425.64	3906.35
425.83	3859.54
426.01	4042.11
426.20	4079.55
426.39	3941.46
426.58	3887.63
426.77	3960.19
426.96	3873.59
427.15	3918.06
427.33	4063.17
427.52	4053.81
427.71	4184.88
427.90	4018.70
428.09	4044.45
428.28	4255.09
428.46	4152.11
428.65	4074.87
428.84	4257.43
429.03	4367.44
429.22	4114.66
429.40	4060.83
429.59	4224.67
429.78	4079.55
429.97	3906.35
430.16	3948.48
430.34	4079.55
430.53	4187.22
430.72	4126.36
430.91	4217.65
431.10	4248.07
431.28	4465.74
431.47	4566.39
431.66	4648.30
431.85	4507.87
432.03	4557.02
432.22	4664.69
432.41	4636.60
432.60	4662.35
432.79	4758.31
432.97	4732.56
433.16	4723.20
433.35	4664.69
433.54	4624.90
433.72	4664.69
433.91	4477.44
434.10	4674.05
434.28	4648.30
434.47	4805.12
434.66	4910.44
434.85	5069.60
435.03	5008.75
435.22	4905.76
435.41	5123.43
435.59	4943.21
435.78	5228.76
435.97	5160.88
436.16	5078.96
436.34	5081.30
436.53	5118.75
436.72	5289.61
436.90	5085.98
437.09	5074.28
437.28	5039.17
437.46	5172.58
437.65	5207.69
437.84	5078.96
438.02	5298.97
438.21	5296.63
438.40	5022.79
438.58	5336.42
438.77	5366.85
438.96	5458.13
439.14	5631.33
439.33	5659.42
439.52	5556.43
439.70	5753.04
439.89	5582.18
440.08	5717.93
440.26	5614.95
440.45	5600.90
440.63	5818.57
440.82	6057.31
441.01	5994.11
441.19	5921.56
441.38	6195.40
441.57	5961.34
441.75	6251.57
441.94	6232.85
442.12	6085.39
442.31	6277.32
442.50	6434.13
442.68	6282.00
442.87	6403.71
443.05	6249.23
443.24	6527.75
443.43	6464.56
443.61	6340.51
443.80	6614.35
443.98	6436.47
444.17	6401.37
444.35	6579.25
444.54	6555.84
444.73	6511.37
444.91	6436.47
445.10	6565.20
445.28	6576.91
445.47	6366.26
445.65	6487.96
445.84	6459.88
446.02	6691.59
446.21	6490.31
446.39	6483.28
446.58	6647.12
446.77	6621.38
446.95	6612.01
447.14	6710.32
447.32	6600.31
447.51	6693.93
447.69	6527.75
447.88	6850.75
448.06	6670.53
448.25	6710.32
448.43	6785.21
448.62	6738.40
448.80	6661.16
448.99	6754.79
449.17	6913.94
449.36	6810.96
449.54	7002.88
449.73	7159.70
449.91	7140.97
450.10	7279.07
450.28	7407.80
450.46	7166.72
450.65	7241.62
450.83	7208.85
451.02	7201.83
451.20	7290.77
451.39	7269.70
451.57	7410.14
451.76	7005.22
451.94	7187.79
452.13	7302.47
452.31	7239.28
452.49	7159.70
452.68	7243.96
452.86	7152.68
453.05	7440.56
453.23	7349.28
453.42	7297.79
453.60	7360.98
453.78	7475.67
453.97	7478.01
454.15	7232.26
454.34	7218.21
454.52	7571.63
454.70	7651.21
454.89	7648.87
455.07	7492.05
455.26	7665.25
455.44	7882.92
455.62	7606.74
455.81	7784.62
455.99	7887.61
456.17	7786.96
456.36	7829.09
456.54	8009.31
456.73	7850.16
456.91	8177.83
457.09	8173.15
457.28	8273.79
457.46	7901.65
457.64	8102.93
457.83	8189.53
458.01	8098.25
458.19	8166.13
458.38	8032.72
458.56	8212.94
458.74	8294.86
458.93	8173.15
459.11	8093.57
459.29	8067.83
459.48	8234.00
459.66	8226.98
459.84	8468.06
460.03	8514.87
460.21	8528.91
460.39	8540.61
460.57	8524.23
460.76	8292.52
460.94	8608.49
461.12	8549.98
461.31	8652.96
461.49	8482.10
461.67	8559.34
461.85	8870.63
462.04	8872.97
462.22	9334.06
462.40	8945.53
462.59	8889.35
462.77	8987.66
462.95	8713.81
463.13	8847.22
463.32	9116.39
463.50	9022.77
463.68	9123.41
463.86	9029.79
464.05	8910.42
464.23	8634.24
464.41	8945.53
464.59	8959.57
464.78	9202.99
464.96	9055.53
465.14	9074.26
465.32	9118.73
465.50	9235.75
465.69	9397.25
465.87	9172.56
466.05	9118.73
466.23	9193.62
466.41	9198.31
466.60	9455.76
466.78	9158.52
466.96	9235.75
467.14	9212.35
467.32	9352.78
467.51	9420.66
467.69	9266.18
467.87	9586.83
468.05	9598.54
468.23	9275.54
468.41	9423.00
468.60	9537.68
468.78	9635.99
468.96	9399.59
469.14	9769.40
469.32	9722.59
469.50	9383.21
469.69	9638.33
469.87	9863.02
470.05	9785.78
470.23	9706.20
470.41	9809.19
470.59	9769.40
470.77	9795.14
470.95	10092.39
471.14	10178.99
471.32	10068.98
471.50	10256.23
471.68	10195.37
471.86	10370.91
472.04	10164.95
472.22	10469.22
472.40	10361.55
472.58	10462.19
472.77	10387.30
472.95	10370.91
473.13	10960.73
473.31	10363.89
473.49	10429.43
473.67	10551.14
473.85	10738.38
474.03	10911.58
474.21	10944.34
474.39	11080.10
474.57	10885.83
474.75	11344.58
474.93	11150.31
475.12	11108.18
475.30	11112.86
475.48	11288.40
475.66	11342.24
475.84	11323.51
476.02	11377.34
476.20	11555.22
476.38	11730.76
476.56	11831.41
476.74	11847.79
476.92	11597.35
477.10	11913.33
477.28	12170.79
477.46	12140.36
477.64	12102.91
477.82	12404.84
478.00	12538.25
478.18	12320.58
478.36	12617.83
478.54	12559.31
478.72	12816.77
478.90	12638.89
479.08	13034.44
479.26	12989.97
479.44	13057.85
479.62	13254.45
479.80	13315.31
479.98	13352.76
480.16	13687.45
480.34	13558.72
480.52	13706.18
480.70	13563.40
480.88	13467.44
481.06	14097.05
481.24	14115.77
481.41	14174.28
481.59	14553.45
481.77	14469.19
481.95	14345.14
482.13	14647.07
482.31	14471.53
482.49	14759.42
482.67	14611.96
482.85	14883.47
483.03	15229.87
483.21	15073.05
483.39	15524.77
483.57	15459.24
483.74	15272.00
483.92	15571.58
484.10	15396.04
484.28	15777.55
484.46	15901.60
484.64	16194.17
484.82	16035.01
485.00	16236.30
485.18	16177.78
485.35	16123.95
485.53	15861.81
485.71	16023.31
485.89	16369.71
486.07	16336.94
486.25	16578.01
486.43	16732.49
486.61	16929.09
486.78	17284.86
486.96	17301.24
487.14	17481.46
487.32	17549.34
487.50	17961.27
487.68	18052.55
487.85	18349.80
488.03	18625.98
488.21	18555.77
488.39	18373.21
488.57	18728.97
488.75	18740.67
488.92	19192.39
489.10	19604.33
489.28	19417.08
489.46	19433.47
489.64	19648.80
489.81	20137.97
489.99	20100.52
490.17	20030.30
490.35	20346.28
490.53	20297.13
490.70	20538.20
490.88	20496.07
491.06	20683.31
491.24	20781.62
491.41	20367.34
491.59	20486.71
491.77	20989.92
491.95	21113.97
492.13	21078.86
492.30	21436.97
492.48	21642.93
492.66	21563.36
492.84	21762.30
493.01	22054.87
493.19	22017.42
493.37	22111.04
493.54	22232.75
493.72	22368.50
493.90	22309.99
494.08	22977.04
494.25	22946.61
494.43	23056.62
494.61	23517.70
494.79	23473.23
494.96	23473.23
495.14	23513.02
495.32	23440.47
495.49	23569.19
495.67	23892.19
495.85	23941.34
496.02	23733.03
496.20	24280.72
496.38	24496.05
496.55	24517.11
496.73	24800.32
496.91	24723.08
497.09	25062.46
497.26	25069.48
497.44	25053.09
497.62	25294.17
497.79	25308.21
497.97	25069.48
498.14	25411.20
498.32	25560.99
498.50	25652.27
498.67	25675.68
498.85	25949.52
499.03	26078.25
499.20	25928.45
499.38	25942.50
499.56	26211.66
499.73	26639.98
499.91	26679.77
500.08	26342.73
500.26	26422.31
500.44	26398.90
500.61	26473.80
500.79	26536.99
500.97	26867.01
501.14	27145.53
501.32	27257.88
501.49	26859.99
501.67	27033.19
501.84	27295.33
502.02	27527.04
502.20	27704.92
502.37	27557.47
502.55	27597.26
502.72	27800.88
502.90	27985.79
503.07	27538.74
503.25	28025.57
503.43	27857.06
503.60	28105.15
503.78	28161.33
503.95	28151.96
504.13	28191.75
504.30	28643.48
504.48	28491.34
504.65	28643.48
504.83	28767.52
505.01	29343.30
505.18	28847.10
505.36	29465.00
505.53	29060.09
505.71	29553.94
505.88	29256.70
506.06	29064.77
506.23	29689.70
506.41	29418.19
506.58	30054.82
506.76	29912.05
506.93	30082.91
507.11	29942.47
507.28	29813.74
507.46	29848.85
507.63	30197.59
507.81	29935.45
507.98	29986.94
508.16	30305.26
508.33	30436.33
508.50	30499.52
508.68	30700.81
508.85	31054.23
509.03	30735.92
509.20	31035.50
509.38	31276.58
509.55	31166.57
509.73	31262.54
509.90	31225.09
510.08	31182.96
510.25	31072.95
510.42	31917.89
510.60	31747.03
510.77	31903.84
510.95	31725.96
511.12	31704.90
511.30	31585.53
511.47	32231.52
511.64	32428.12
511.82	32009.17
511.99	32346.20
512.17	32601.32
512.34	32329.82
512.51	32496.00
512.69	32687.92
512.86	32526.42
513.04	32891.55
513.21	32556.85
513.38	32760.48
513.56	32854.10
513.73	32811.97
513.90	33046.02
514.08	32617.71
514.25	33008.58
514.43	33099.86
514.60	32856.44
514.77	33291.78
514.95	33706.05
515.12	33738.82
515.29	33429.87
515.47	33703.71
515.64	34068.84
515.81	34007.98
515.99	34073.52
516.16	33486.04
516.33	33333.91
516.51	33780.95
516.68	33394.76
516.85	33193.48
517.03	33289.44
517.20	34061.82
517.37	34497.16
517.54	34319.28
517.72	34068.84
517.89	33720.10
518.06	33909.68
518.24	34108.63
518.41	34167.14
518.58	34349.70
518.75	34429.28
518.93	34838.87
519.10	34590.78
519.27	34841.21
519.45	35161.87
519.62	35374.86
519.79	35014.41
519.96	35487.20
520.14	35044.84
520.31	34895.05
520.48	35466.14
520.65	35241.45
520.83	35819.56
521.00	36091.06
521.17	36027.87
521.34	35901.48
521.52	35983.40
521.69	36074.68
521.86	36268.94
522.03	36168.30
522.20	36130.85
522.38	36329.80
522.55	35875.73
522.72	35978.72
522.89	36479.59
523.07	36507.68
523.24	36524.06
523.41	36945.36
523.58	36811.95
523.75	37326.86
523.92	37003.87
524.10	37064.72
524.27	37184.09
524.44	37174.73
524.61	37263.67
524.78	36935.99
524.96	37560.92
525.13	37181.75
525.30	37090.47
525.47	37425.17
525.64	37738.80
525.81	37207.50
525.98	37352.61
526.16	37338.57
526.33	37312.82
526.50	36954.72
526.67	37163.03
526.84	37034.30
527.01	37207.50
527.18	38230.31
527.36	38150.73
527.53	38272.44
527.70	38246.69
527.87	38206.90
528.04	38153.07
528.21	38249.03
528.38	38244.35
528.55	38660.97
528.72	38494.79
528.89	38946.51
529.07	38749.91
529.24	38230.31
529.41	38869.28
529.58	38469.04
529.75	38698.42
529.92	38890.34
530.09	38590.75
530.26	39360.79
530.43	38918.43
530.60	38726.50
530.77	38696.08
530.94	39552.71
531.11	38799.06
531.28	39082.27
531.46	39194.61
531.63	39075.24
531.80	38948.85
531.97	38969.92
532.14	38953.54
532.31	39487.18
532.48	39143.12
532.65	39674.42
532.82	39585.48
532.99	40046.57
533.16	39466.11
533.33	39648.68
533.50	39871.03
533.67	39913.16
533.84	39962.31
534.01	40156.57
534.18	39498.88
534.35	40280.62
534.52	40107.42
534.69	40374.24
534.86	40765.11
535.03	40093.38
535.20	40325.09
535.37	40547.44
535.54	40999.16
535.71	40509.99
535.88	40402.33
536.05	40236.15
536.22	40788.52
536.38	40437.44
536.55	40416.37
536.72	40407.01
536.89	40240.83
537.06	40573.19
537.23	40793.20
537.40	40912.56
537.57	40631.70
537.74	41078.74
537.91	41593.66
538.08	41099.81
538.25	40465.52
538.42	40861.07
538.59	41305.77
538.75	41118.53
538.92	41359.61
539.09	41240.24
539.26	40816.60
539.43	41233.22
539.60	41202.79
539.77	41024.91
539.94	41364.29
540.11	41273.01
540.28	41530.47
540.44	41179.39
540.61	41418.12
540.78	40982.78
540.95	41219.17
541.12	41401.74
541.29	41493.02
541.46	41439.18
541.62	41368.97
541.79	41722.39
541.96	41298.75
542.13	41490.68
542.30	41741.11
542.47	41752.82
542.63	41783.24
542.80	41897.93
542.97	42356.67
543.14	42368.38
543.31	42330.93
543.48	42307.52
543.64	42827.12
543.81	42501.79
543.98	42813.08
544.15	42384.76
544.32	42707.76
544.48	43227.35
544.65	42770.95
544.82	43037.77
544.99	42160.07
545.16	42593.07
545.32	42719.46
545.49	43084.58
545.66	43012.02
545.83	43047.13
546.00	43065.86
546.16	42941.81
546.33	42691.37
546.50	42660.94
546.67	43325.66
546.83	42440.93
547.00	43033.09
547.17	42951.17
547.34	42895.00
547.50	42972.24
547.67	43210.97
547.84	43248.42
548.00	43051.81
548.17	43732.91
548.34	43840.57
548.51	44039.52
548.67	43709.50
548.84	43636.95
549.01	43049.47
549.18	43330.34
549.34	43129.05
549.51	43634.61
549.68	43583.12
549.84	43814.83
550.01	43641.63
550.18	43594.82
550.34	43620.56
550.51	43969.30
550.68	44086.33
550.84	43480.13
551.01	44002.07
551.18	43650.99
551.34	44062.93
551.51	43903.77
551.68	44128.46
551.84	43878.02
552.01	43587.80
552.18	44016.11
552.34	43622.90
552.51	44385.92
552.68	43779.72
552.84	44383.58
553.01	44437.41
553.18	43814.83
553.34	43945.90
553.51	44172.93
553.67	44474.86
553.84	44921.90
554.01	44847.00
554.17	44776.79
554.34	44580.18
554.51	44175.27
554.67	44554.44
554.84	44421.03
555.00	44369.54
555.17	44245.49
555.33	44341.45
555.50	44896.16
555.67	44737.00
555.83	44336.77
556.00	44519.33
556.16	45024.89
556.33	44811.90
556.50	44715.93
556.66	44402.30
556.83	44491.24
556.99	44722.96
557.16	44814.24
557.32	45198.09
557.49	44889.13
557.65	44797.85
557.82	44495.92
557.98	44802.53
558.15	45193.40
558.32	45069.36
558.48	44032.50
558.65	44739.34
558.81	44495.92
558.98	44739.34
559.14	44727.64
559.31	44744.02
559.47	45160.64
559.64	44982.76
559.80	45071.70
559.97	45516.40
560.13	44978.07
560.30	44921.90
560.46	45399.37
560.63	45411.07
560.79	45453.20
560.96	45102.12
561.12	45151.27
561.29	45296.39
561.45	45191.06
561.61	45319.79
561.78	45359.58
561.94	44933.60
562.11	45326.81
562.27	44926.58
562.44	45359.58
562.60	45385.33
562.77	45212.13
562.93	45258.94
563.10	45588.95
563.26	45158.30
563.42	45226.17
563.59	45092.76
563.75	45090.42
563.92	45537.46
564.08	45181.70
564.24	45551.51
564.41	45364.26
564.57	45560.87
564.74	45237.87
564.90	45895.56
565.07	45558.53
565.23	45277.66
565.39	45308.09
565.56	45282.34
565.72	44971.05
565.88	45141.91
566.05	45394.69
566.21	45024.89
566.38	45408.73
566.54	45584.27
566.70	45895.56
566.87	45663.85
567.03	45635.77
567.19	45778.54
567.36	45617.04
567.52	45787.90
567.68	45715.34
567.85	45322.13
568.01	45792.58
568.17	45315.11
568.34	45827.69
568.50	45329.16
568.66	45523.42
568.83	45841.73
568.99	45193.40
569.15	45834.71
569.32	45626.40
569.48	45804.28
569.64	45469.59
569.81	45600.66
569.97	45897.91
570.13	45523.42
570.30	45123.19
570.46	45097.44
570.62	45347.88
570.78	45759.81
570.95	45230.85
571.11	45476.61
571.27	45544.48
571.43	45759.81
571.60	45942.38
571.76	45467.25
571.92	45675.55
572.09	45603.00
572.25	45876.84
572.41	45769.18
572.57	46241.96
572.74	46036.00
572.90	46007.91
573.06	45661.51
573.22	45879.18
573.38	45535.12
573.55	45301.07
573.71	45890.88
573.87	45762.15
574.03	45420.44
574.20	45869.82
574.36	45965.78
574.52	46075.79
574.68	45970.46
574.84	45560.87
575.01	45659.17
575.17	45890.88
575.33	45577.25
575.49	45558.53
575.65	45783.22
575.82	45656.83
575.98	45731.73
576.14	45848.75
576.30	45958.76
576.46	45815.99
576.62	45673.21
576.79	45663.85
576.95	45272.98
577.11	45649.81
577.27	45675.55
577.43	45776.20
577.59	45563.21
577.75	45378.31
577.92	45399.37
578.08	45509.38
578.24	45336.18
578.40	45172.34
578.56	46096.85
578.72	45603.00
578.88	46040.68
579.04	45834.71
579.21	45584.27
579.37	46202.18
579.53	45682.58
579.69	45415.76
579.85	46185.79
580.01	45820.67
580.17	45752.79
580.33	45797.26
580.49	45518.74
580.65	45975.14
580.82	46043.02
580.98	45572.57
581.14	45514.06
581.30	45705.98
581.46	45705.98
581.62	45748.11
581.78	45883.86
581.94	46244.30
582.10	46256.01
582.26	45710.66
582.42	45799.60
582.58	45874.50
582.74	45684.92
582.90	45684.92
583.06	46050.04
583.22	45918.97
583.38	46576.66
583.54	45935.35
583.70	45895.56
583.86	45434.48
584.02	45900.25
584.18	45907.27
584.34	46131.96
584.50	46337.93
584.66	46108.55
584.82	45881.52
584.98	45876.84
585.14	45925.99
585.30	45673.21
585.46	45872.16
585.62	45282.34
585.78	45551.51
585.94	45628.74
586.10	45595.98
586.26	45933.01
586.42	45986.85
586.58	46003.23
586.74	45867.48
586.90	45827.69
587.06	45876.84
587.22	45825.35
587.38	45865.14
587.54	45874.50
587.70	46127.28
587.86	45516.40
588.02	46021.95
588.18	46080.47
588.34	45804.28
588.49	45436.82
588.65	45577.25
588.81	45226.17
588.97	45401.71
589.13	45270.64
589.29	45579.59
589.45	45272.98
589.61	46052.38
589.77	45804.28
589.93	46300.48
590.08	46026.63
590.24	45720.02
590.40	45801.94
590.56	46284.09
590.72	45968.12
590.88	46080.47
591.04	45921.31
591.20	46635.17
591.35	46281.75
591.51	46571.98
591.67	45888.54
591.83	45797.26
591.99	45626.40
592.15	45844.07
592.31	46007.91
592.46	46213.88
592.62	46265.37
592.78	46202.18
592.94	46232.60
593.10	45532.78
593.26	46609.43
593.41	46335.59
593.57	46223.24
593.73	45375.97
593.89	46223.24
594.05	46188.13
594.20	46485.38
594.36	46099.19
594.52	46134.30
594.68	46120.26
594.84	46078.13
594.99	46103.87
595.15	46241.96
595.31	46316.86
595.47	46160.05
595.62	46209.20
595.78	46422.19
595.94	46312.18
596.10	46504.10
596.25	46021.95
596.41	45670.87
596.57	46014.93
596.73	46220.90
596.88	45918.97
597.04	46120.26
597.20	45947.06
597.36	46078.13
597.51	46485.38
597.67	46113.23
597.83	45881.52
597.99	46192.81
598.14	45925.99
598.30	45780.88
598.46	45956.42
598.61	46117.92
598.77	45923.65
598.93	46131.96
599.09	45984.51
599.24	46731.14
599.40	46630.49
599.56	46087.49
599.71	46246.65
599.87	46415.16
600.03	46120.26
600.18	46473.68
600.34	45907.27
600.50	46033.66
600.65	46143.66
600.81	46202.18
600.97	46483.04
601.12	46564.96
601.28	46330.90
601.44	45443.84
601.59	45984.51
601.75	45808.96
601.91	45668.53
602.06	46176.43
602.22	46169.41
602.37	46319.20
602.53	46188.13
602.69	46164.73
602.84	46000.89
603.00	45778.54
603.16	46075.79
603.31	46110.89
603.47	46241.96
603.62	45855.78
603.78	46244.30
603.94	46494.74
604.09	46106.21
604.25	45897.91
604.40	46103.87
604.56	46146.00
604.71	46230.26
604.87	45909.61
605.03	45984.51
605.18	45748.11
605.34	46380.06
605.49	45745.77
605.65	45998.55
605.80	45738.75
605.96	46174.09
606.12	46103.87
606.27	45834.71
606.43	45937.69
606.58	45764.49
606.74	45963.44
606.89	45977.48
607.05	45640.45
607.20	46138.98
607.36	46068.76
607.51	46024.29
607.67	45918.97
607.82	45621.72
607.98	45652.15
608.13	45815.99
608.29	45485.97
608.44	45523.42
608.60	45794.92
608.75	45603.00
608.91	45474.27
609.06	45537.46
609.22	45584.27
609.37	45642.79
609.53	45518.74
609.68	45371.28
609.84	45736.41
609.99	45551.51
610.15	45268.30
610.30	45347.88
610.46	45277.66
610.61	45586.61
610.76	45586.61
610.92	44912.54
611.07	45418.10
611.23	45488.31
611.38	45549.17
611.54	45483.63
611.69	45184.04
611.84	44793.17
612.00	45584.27
612.15	45095.10
612.31	45170.00
612.46	45338.52
612.62	45694.28
612.77	45626.40
612.92	45525.76
613.08	44964.03
613.23	45050.63
613.39	44451.45
613.54	44669.12
613.69	45165.32
613.85	44514.65
614.00	44669.12
614.15	45003.82
614.31	45020.20
614.46	45139.57
614.62	44858.71
614.77	44772.11
614.92	44767.43
615.08	44463.16
615.23	44605.93
615.38	44994.46
615.54	44648.06
615.69	44931.26
615.84	44528.69
616.00	44577.84
616.15	44659.76
616.30	44891.48
616.46	44722.96
616.61	44411.67
616.76	44154.21
616.92	43828.87
617.07	44809.56
617.22	44231.44
617.37	43997.39
617.53	44395.28
617.68	44828.28
617.83	44369.54
617.99	44713.59
618.14	44322.72
618.29	43920.15
618.45	44313.36
618.60	43938.88
618.75	43957.60
618.90	44062.93
619.06	44081.65
619.21	44093.35
619.36	44088.67
619.51	44140.16
619.67	43611.20
619.82	43789.08
619.97	43763.34
620.12	43718.87
620.28	43550.35
620.43	44245.49
620.58	44034.84
620.73	43779.72
620.89	43725.89
621.04	44006.75
621.19	43856.96
621.34	43882.70
621.49	43569.07
621.65	43639.29
621.80	44039.52
621.95	43526.94
622.10	43557.37
622.25	43758.66
622.41	43587.80
622.56	43274.16
622.71	43550.35
622.86	43721.21
623.01	43292.89
623.16	43639.29
623.32	43117.35
623.47	43695.46
623.62	43859.30
623.77	43407.58
623.92	42997.98
624.07	43030.75
624.23	43440.34
624.38	43459.07
624.53	43103.31
624.68	43105.65
624.83	43082.24
624.98	43459.07
625.13	42988.62
625.29	43028.41
625.44	43166.50
625.59	42904.36
625.74	42696.05
625.89	42494.77
626.04	42623.50
626.19	42431.57
626.34	43086.92
626.49	42658.60
626.65	42670.31
626.80	42873.93
626.95	42527.53
627.10	42370.72
627.25	42630.52
627.40	42415.19
627.55	42628.18
627.70	42150.71
627.85	42717.12
628.00	42616.47
628.15	42885.64
628.30	42724.14
628.45	42632.86
628.60	42869.25
628.76	42431.57
628.91	42391.78
629.06	42239.65
629.21	42220.92
629.36	42087.51
629.51	41998.57
629.66	42181.13
629.81	42148.37
629.96	42197.52
630.11	42415.19
630.26	42169.43
630.41	42092.19
630.56	42094.53
630.71	42136.66
630.86	42192.84
631.01	41923.68
631.16	41684.94
631.31	41729.41
631.46	41558.55
631.61	41958.78
631.76	41696.64
631.91	41872.18
632.06	41933.04
632.21	41736.43
632.36	42251.35
632.51	41436.84
632.66	41928.36
632.81	41359.61
632.96	41551.53
633.10	41525.78
633.25	41560.89
633.40	41624.09
633.55	41963.46
633.70	41677.92
633.85	41436.84
634.00	41654.51
634.15	41532.81
634.30	41310.46
634.45	41432.16
634.60	41034.27
634.75	40917.25
634.90	41237.90
635.05	41167.68
635.19	40755.75
635.34	41668.56
635.49	41116.19
635.64	40947.67
635.79	41209.81
635.94	40854.05
636.09	40987.46
636.24	40582.55
636.39	40573.19
636.53	41003.85
636.68	40573.19
636.83	41174.70
636.98	40818.94
637.13	40858.73
637.28	41392.37
637.43	41146.62
637.57	40779.15
637.72	40734.68
637.87	40727.66
638.02	40996.82
638.17	40837.67
638.32	40692.55
638.46	40645.74
638.61	40219.77
638.76	40428.07
638.91	40610.64
639.06	40631.70
639.20	40154.23
639.35	40786.18
639.50	40013.80
639.65	40720.64
639.80	40512.33
639.94	40226.79
640.09	39852.30
640.24	40582.55
640.39	39962.31
640.54	39988.05
640.68	40062.95
640.83	40381.26
640.98	40383.60
641.13	39966.99
641.27	40519.35
641.42	40275.94
641.57	40313.39
641.72	40023.16
641.86	40229.13
642.01	39168.87
642.16	39929.54
642.31	39707.19
642.45	39641.65
642.60	39653.36
642.75	39676.76
642.90	39969.33
643.04	39920.18
643.19	39786.77
643.34	39660.38
643.48	39328.02
643.63	40020.82
643.78	39519.95
643.93	39828.90
644.07	39323.34
644.22	39590.16
644.37	39463.77
644.51	39779.74
644.66	39374.83
644.81	39321.00
644.95	40142.53
645.10	39629.95
645.25	39358.45
645.39	39463.77
645.54	39367.81
645.69	39213.34
645.83	39154.82
645.98	39353.77
646.13	39122.05
646.27	39335.04
646.42	38635.22
646.57	39606.55
646.71	39100.99
646.86	39093.97
647.00	38955.88
647.15	39110.35
647.30	39103.33
647.44	39339.72
647.59	39159.50
647.74	38377.76
647.88	38712.46
648.03	38745.23
648.17	39138.44
648.32	38710.12
648.47	38581.39
648.61	38859.91
648.76	38862.26
648.90	38480.75
649.05	38899.70
649.20	39063.54
649.34	39063.54
649.49	38841.19
649.63	38738.21
649.78	38618.84
649.92	38466.70
650.07	38422.23
650.21	38183.50
650.36	38464.36
650.51	38686.71
650.65	39161.84
650.80	38897.36
650.94	38415.21
651.09	38424.57
651.23	38361.38
651.38	38473.73
651.52	37951.79
651.67	37699.01
651.81	37951.79
651.96	37794.97
652.10	38190.52
652.25	38345.00
652.39	38249.03
652.54	38703.10
652.68	38244.35
652.83	38522.88
652.97	38096.90
653.12	38408.19
653.26	37874.55
653.41	37876.89
653.55	37818.38
653.70	38031.36
653.84	37792.63
653.99	37909.66
654.13	38103.92
654.27	37855.82
654.42	37940.08
654.56	37986.89
654.71	37848.80
654.85	37954.13
655.00	37968.17
655.14	37818.38
655.29	37221.54
655.43	37303.46
655.57	36999.19
655.72	37656.88
655.86	37268.35
656.01	36842.37
656.15	36648.11
656.30	37296.44
656.44	37242.60
656.58	37031.96
656.73	36685.56
656.87	37357.29
657.01	37167.71
657.16	37020.25
657.30	36861.10
657.45	36634.06
657.59	37240.26
657.73	36809.61
657.88	36903.23
658.02	36699.60
658.16	37144.30
658.31	36985.15
658.45	36900.89
658.60	36985.15
658.74	37055.36
658.88	37076.43
659.03	36231.49
659.17	36556.83
659.31	36388.31
659.46	36697.26
659.60	36577.89
659.74	36517.04
659.89	36488.95
660.03	36549.81
660.17	36264.26
660.32	36329.80
660.46	36297.03
660.60	35999.78
660.74	36357.88
660.89	36268.94
661.03	36231.49
661.17	36151.91
661.32	35913.18
661.46	35653.38
661.60	35824.24
661.74	35828.92
661.89	35646.36
662.03	35854.67
662.17	35983.40
662.31	35482.52
662.46	36350.86
662.60	36023.19
662.74	35644.02
662.88	35531.67
663.03	35241.45
663.17	35154.85
663.31	35412.31
663.45	35211.02
663.60	34871.64
663.74	35061.22
663.88	34988.67
664.02	35021.44
664.17	35260.17
664.31	35274.21
664.45	35276.55
664.59	35005.05
664.73	34925.47
664.88	35304.64
665.02	34391.83
665.16	34733.55
665.30	34799.08
665.44	34590.78
665.59	34192.89
665.73	34792.06
665.87	34534.60
666.01	34405.88
666.15	34129.69
666.29	34352.04
666.44	34623.54
666.58	34345.02
666.72	34270.12
666.86	34672.70
667.00	34541.63
667.14	34000.96
667.28	33900.32
667.43	33993.94
667.57	33425.19
667.71	33752.87
667.85	33645.20
667.99	34071.18
668.13	33830.10
668.27	33837.12
668.41	33696.69
668.56	33439.23
668.70	33376.04
668.84	33708.40
668.98	33230.93
669.12	33064.75
669.26	33514.13
669.40	33134.96
669.54	33029.64
669.68	32687.92
669.82	32727.71
669.96	32421.10
670.10	32842.40
670.25	33053.05
670.39	32683.24
670.53	33064.75
670.67	32554.51
670.81	32594.30
670.95	32395.35
671.09	32393.01
671.23	32414.08
671.37	32339.18
671.51	32311.10
671.65	32369.61
671.79	32053.64
671.93	31913.20
672.07	32170.66
672.21	31702.56
672.35	32070.02
672.49	31871.07
672.63	32149.60
672.77	31775.11
672.91	31796.18
673.05	31913.20
673.19	31821.92
673.33	31578.51
673.47	31395.95
673.61	31075.29
673.75	31372.54
673.89	31393.61
674.03	31199.34
674.17	30988.69
674.31	30834.22
674.45	31070.61
674.59	30986.35
674.73	30984.01
674.87	31061.25
675.01	30911.46
675.15	30473.78
675.29	30438.67
675.43	30345.05
675.56	30742.94
675.70	30551.01
675.84	30611.87
675.98	29214.57
676.12	30441.01
676.26	30181.21
676.40	30361.43
676.54	30419.94
676.68	29642.88
676.82	29191.16
676.96	29729.48
677.10	29567.99
677.23	29469.69
677.37	29633.52
677.51	29347.98
677.65	28781.57
677.79	28821.36
677.93	28821.36
678.07	28959.45
678.21	28643.48
678.34	28620.07
678.48	28252.61
678.62	28137.92
678.76	27995.15
678.90	27960.04
679.04	28121.54
679.18	28205.80
679.31	27508.32
679.45	28100.47
679.59	27562.15
679.73	27831.31
679.87	27835.99
680.00	27524.70
680.14	27618.32
680.28	27421.72
680.42	27218.09
680.56	27033.19
680.70	27402.99
680.83	27166.60
680.97	27335.12
681.11	26836.58
681.25	27175.96
681.39	26796.79
681.52	27089.36
681.66	26705.51
681.80	25996.33
681.94	26499.55
682.07	26225.70
682.21	26143.78
682.35	26253.79
682.49	26204.64
682.62	26012.71
682.76	26113.36
682.90	26029.10
683.04	25671.00
683.17	25898.03
683.31	25532.90
683.45	25701.42
683.59	25614.82
683.72	25661.63
683.86	25748.23
684.00	25088.20
684.13	24655.20
684.27	24533.50
684.41	24992.24
684.55	24966.49
684.68	24807.34
684.82	24814.36
684.96	24552.22
685.09	24390.72
685.23	24374.34
685.37	24491.37
685.50	24374.34
685.64	24140.29
685.78	24081.77
685.91	23845.38
686.05	23992.83
686.19	23723.67
686.32	23529.41
686.46	23751.76
686.60	23049.60
686.73	23136.20
686.87	23028.53
687.01	22918.53
687.14	23442.81
687.28	23042.57
687.42	23068.32
687.55	22663.41
687.69	23208.75
687.82	22558.08
687.96	22534.68
688.10	22820.22
688.23	22696.17
688.37	22724.26
688.50	22101.68
688.64	22352.12
688.78	22345.09
688.91	21921.46
689.05	22026.78
689.18	21947.20
689.32	21387.82
689.46	22017.42
689.59	22272.54
689.73	21640.59
689.86	21451.01
690.00	21628.89
690.13	21245.04
690.27	21036.74
690.41	21345.69
690.54	21209.93
690.68	21364.41
690.81	21259.09
690.95	20919.71
691.08	20814.38
691.22	21043.76
691.35	20959.50
691.49	20542.88
691.62	20758.21
691.76	20610.76
691.89	20540.54
692.03	20210.53
692.16	20280.74
692.30	20376.70
692.43	20147.33
692.57	19922.64
692.70	19721.35
692.84	19765.82
692.97	19218.14
693.11	19461.55
693.24	19253.25
693.38	19609.01
693.51	19344.53
693.65	19482.62
693.78	19192.39
693.92	19318.78
694.05	19215.80
694.19	19374.95
694.32	19405.38
694.45	18981.74
694.59	18899.83
694.72	19037.92
694.86	18597.90
694.99	18965.36
695.13	18925.57
695.26	18192.98
695.39	18338.10
695.53	18609.60
695.66	18181.28
695.80	18087.66
695.93	18211.71
696.07	18300.65
696.20	18167.24
696.33	18293.63
696.47	17825.52
696.60	17797.43
696.73	17575.08
696.87	17675.73
697.00	17610.19
697.14	17231.02
697.27	17228.68
697.40	17254.43
697.54	17228.68
697.67	17502.53
697.80	17200.60
697.94	17142.08
698.07	16896.33
698.21	16730.15
698.34	17266.13
698.47	16912.71
698.61	16681.00
698.74	16678.66
698.87	16533.54
699.01	16444.60
699.14	16402.47
699.27	16121.61
699.40	16369.71
699.54	16184.80
699.67	15807.98
699.80	15885.22
699.94	15913.30
700.07	16130.97
700.20	16163.74
700.34	15831.38
700.47	15882.88
700.60	15641.80
700.73	15529.45
700.87	15697.97
701.00	15597.33
701.13	15178.37
701.26	15367.96
701.40	15302.42
701.53	14995.81
701.66	14993.47
701.79	14731.33
701.93	14773.46
702.06	14951.34
702.19	14689.20
702.32	14464.51
702.46	14911.55
702.59	14759.42
702.72	14717.29
702.85	14782.82
702.99	14443.45
703.12	14368.55
703.25	14420.04
703.38	14445.79
703.51	14307.69
703.65	14015.13
703.78	13734.26
703.91	13933.21
704.04	13853.63
704.17	13825.54
704.31	13724.90
704.44	13729.58
704.57	13654.69
704.70	13504.89
704.83	13530.64
704.96	13640.64
705.10	13467.44
705.23	13490.85
>>>>>End Processed Spectral Data<<<<<
