SpectraSuite Data File
++++++++++++++++++++++++++++++++++++
Date: Fri Oct 25 10:43:38 EDT 2013
User: price-jones
Dark Spectrum Present: No
Reference Spectrum Present: No
Number of Sampled Component Spectra: 1
Spectrometers: USB2+H05261
Integration Time (usec): 100000 (USB2+H05261)
Spectra Averaged: 1 (USB2+H05261)
Boxcar Smoothing: 0 (USB2+H05261)
Correct for Electrical Dark: No (USB2+H05261)
Strobe/Lamp Enabled: No (USB2+H05261)
Correct for Detector Non-linearity: No (USB2+H05261)
Correct for Stray Light: No (USB2+H05261)
Number of Pixels in Processed Spectrum: 2048
>>>>>Begin Processed Spectral Data<<<<<
365.73	79.58
365.92	79.58
366.12	79.58
366.32	21.06
366.52	25.75
366.72	30.43
366.91	53.83
367.11	0.00
367.31	0.00
367.51	0.00
367.70	35.11
367.90	91.28
368.10	4.68
368.30	60.85
368.49	23.41
368.69	14.04
368.89	56.17
369.09	102.98
369.28	126.39
369.48	58.51
369.68	11.70
369.87	65.54
370.07	107.66
370.27	159.16
370.47	147.45
370.66	365.12
370.86	416.62
371.06	498.53
371.25	423.64
371.45	451.72
371.65	468.11
371.84	421.30
372.04	423.64
372.24	379.17
372.44	461.09
372.63	535.98
372.83	472.79
373.03	547.69
373.22	540.66
373.42	510.24
373.62	561.73
373.81	559.39
374.01	585.13
374.21	505.56
374.40	503.22
374.60	655.35
374.79	496.19
374.99	582.79
375.19	573.43
375.38	538.32
375.58	638.97
375.78	674.07
375.97	636.63
376.17	594.50
376.37	559.39
376.56	617.90
376.76	592.16
376.95	692.80
377.15	575.77
377.35	688.12
377.54	615.56
377.74	695.14
377.93	653.01
378.13	706.84
378.33	706.84
378.52	606.20
378.72	676.41
378.91	683.44
379.11	606.20
379.31	667.05
379.50	678.76
379.70	627.26
379.89	681.10
380.09	664.71
380.28	732.59
380.48	681.10
380.68	653.01
380.87	664.71
381.07	676.41
381.26	674.07
381.46	744.29
381.65	636.63
381.85	819.19
382.04	812.17
382.24	779.40
382.43	760.67
382.63	685.78
382.83	718.54
383.02	713.86
383.22	727.91
383.41	678.76
383.61	774.72
383.80	674.07
384.00	737.27
384.19	828.55
384.39	746.63
384.58	844.93
384.78	868.34
384.97	814.51
385.17	781.74
385.36	767.70
385.56	861.32
385.75	784.08
385.95	791.10
386.14	910.47
386.34	863.66
386.53	828.55
386.72	833.23
386.92	896.43
387.11	931.53
387.31	978.34
387.50	854.30
387.70	856.64
387.89	840.25
388.09	866.00
388.28	826.21
388.48	933.87
388.67	959.62
388.86	1015.79
389.06	947.92
389.25	931.53
389.45	952.60
389.64	968.98
389.84	1062.60
390.03	938.55
390.22	924.51
390.42	1029.84
390.61	999.41
390.81	1008.77
391.00	1104.73
391.19	1011.11
391.39	1004.09
391.58	1083.67
391.78	1062.60
391.97	1067.28
392.16	1050.90
392.36	1149.20
392.55	1008.77
392.75	1004.09
392.94	966.64
393.13	1053.24
393.33	1053.24
393.52	1088.35
393.71	1160.91
393.91	1146.86
394.10	1132.82
394.29	1170.27
394.49	1233.46
394.68	1170.27
394.88	1163.25
395.07	1210.06
395.26	1238.14
395.46	1184.31
395.65	1205.38
395.84	1268.57
396.04	1160.91
396.23	1191.33
396.42	1172.61
396.62	1165.59
396.81	1193.67
397.00	1156.22
397.19	1299.00
397.39	1343.47
397.58	1371.55
397.77	1315.38
397.97	1483.90
398.16	1467.52
398.35	1535.39
398.55	1439.43
398.74	1500.28
398.93	1488.58
399.12	1507.30
399.32	1584.54
399.51	1568.16
399.70	1652.42
399.90	1488.58
400.09	1626.67
400.28	1619.65
400.47	1682.85
400.67	1682.85
400.86	1736.68
401.05	1720.29
401.24	1708.59
401.44	1755.40
401.63	1675.82
401.82	1687.53
402.01	1696.89
402.21	1746.04
402.40	1776.47
402.59	1799.87
402.78	1769.44
402.97	1720.29
403.17	1827.96
403.36	1851.36
403.55	1865.41
403.74	1853.70
403.93	1844.34
404.13	1975.41
404.32	1898.17
404.51	1858.39
404.70	1895.83
404.89	1902.86
405.09	2078.40
405.28	2045.63
405.47	1959.03
405.66	2118.18
405.85	2047.97
406.05	1968.39
406.24	2073.71
406.43	2143.93
406.62	2026.90
406.81	2118.18
407.00	2008.18
407.20	2054.99
407.39	2108.82
407.58	2122.87
407.77	2244.57
407.96	2218.83
408.15	2333.51
408.34	2317.13
408.54	2293.72
408.73	2429.48
408.92	2338.20
409.11	2340.54
409.30	2399.05
409.49	2249.25
409.68	2275.00
409.87	2289.04
410.07	2347.56
410.26	2445.86
410.45	2406.07
410.64	2490.33
410.83	2445.86
411.02	2520.76
411.21	2686.94
411.40	2464.58
411.59	2637.78
411.78	2656.51
411.98	2693.96
412.17	2705.66
412.36	2703.32
412.55	2810.98
412.74	2789.92
412.93	2750.13
413.12	2705.66
413.31	2867.16
413.50	2874.18
413.69	2853.11
413.88	3002.91
414.07	3007.59
414.26	3112.91
414.45	2939.71
414.64	2967.80
414.83	3005.25
415.02	3000.57
415.22	3023.97
415.41	3218.24
415.60	3190.15
415.79	3234.62
415.98	3302.50
416.17	3304.84
416.36	3302.50
416.55	3293.13
416.74	3349.31
416.93	3267.39
417.12	3452.29
417.31	3403.14
417.50	3410.16
417.69	3548.25
417.88	3632.51
418.07	3447.61
418.26	3515.48
418.45	3534.21
418.64	3618.47
418.83	3662.94
419.02	3616.13
419.21	3653.58
419.39	3707.41
419.58	3569.32
419.77	3531.87
419.96	3674.64
420.15	3871.25
420.34	3676.98
420.53	3824.44
420.72	3768.26
420.91	3768.26
421.10	3833.80
421.29	3875.93
421.48	3866.56
421.67	3794.01
421.86	3868.91
422.05	3861.88
422.24	3751.88
422.43	3847.84
422.61	3918.06
422.80	3936.78
422.99	4011.68
423.18	4011.68
423.37	4004.66
423.56	3950.82
423.75	3997.64
423.94	3934.44
424.13	3644.21
424.32	3864.22
424.50	3950.82
424.69	4098.28
424.88	4095.94
425.07	3932.10
425.26	3908.69
425.45	3864.22
425.64	3990.61
425.83	4119.34
426.01	3964.87
426.20	3943.80
426.39	4025.72
426.58	4093.60
426.77	3918.06
426.96	4028.06
427.15	4060.83
427.33	4081.89
427.52	4210.62
427.71	4346.37
427.90	4203.60
428.09	4063.17
428.28	4119.34
428.46	4152.11
428.65	4299.56
428.84	4255.09
429.03	4208.28
429.22	4201.26
429.40	4201.26
429.59	4128.70
429.78	3962.53
429.97	3875.93
430.16	3939.12
430.34	4259.78
430.53	4241.05
430.72	4236.37
430.91	4271.48
431.10	4334.67
431.28	4592.13
431.47	4692.77
431.66	4648.30
431.85	4493.83
432.03	4711.50
432.22	4765.33
432.41	4634.26
432.60	4786.40
432.79	4676.39
432.97	4830.87
433.16	4812.14
433.35	4711.50
433.54	4606.17
433.72	4685.75
433.91	4748.95
434.10	4819.16
434.28	4648.30
434.47	4894.06
434.66	4997.04
434.85	4994.70
435.03	5090.67
435.22	4983.00
435.41	5146.84
435.59	5167.90
435.78	5102.37
435.97	5210.03
436.16	5282.59
436.34	5256.84
436.53	5226.42
436.72	5261.52
436.90	5156.20
437.09	5195.99
437.28	5313.02
437.46	5231.10
437.65	5128.11
437.84	5310.68
438.02	5226.42
438.21	5383.23
438.40	5242.80
438.58	5390.25
438.77	5404.30
438.96	5530.69
439.14	5666.44
439.33	5769.42
439.52	5841.98
439.70	5621.97
439.89	5542.39
440.08	5748.36
440.26	5823.25
440.45	5778.78
440.63	5994.11
440.82	6080.71
441.01	6031.56
441.19	6101.78
441.38	6216.46
441.57	6270.30
441.75	6136.88
441.94	6520.73
442.12	6441.15
442.31	6340.51
442.50	6513.71
442.68	6392.00
442.87	6434.13
443.05	6443.49
443.24	6518.39
443.43	6431.79
443.61	6459.88
443.80	6700.95
443.98	6567.54
444.17	6333.49
444.35	6675.21
444.54	6595.63
444.73	6597.97
444.91	6738.40
445.10	6644.78
445.28	6497.33
445.47	6448.18
445.65	6480.94
445.84	6548.82
446.02	6789.89
446.21	6614.35
446.39	6551.16
446.58	6637.76
446.77	6801.60
446.95	6604.99
447.14	6801.60
447.32	6888.20
447.51	6820.32
447.69	6726.70
447.88	6822.66
448.06	6881.18
448.25	6719.68
448.43	6722.02
448.62	6857.77
448.80	6930.33
448.99	6848.41
449.17	7082.46
449.36	6862.45
449.54	7148.00
449.73	7241.62
449.91	7239.28
450.10	7227.57
450.28	7185.44
450.46	7180.76
450.65	7555.25
450.83	7269.70
451.02	7187.79
451.20	7321.20
451.39	7342.26
451.57	7250.98
451.76	7208.85
451.94	7276.73
452.13	7260.34
452.31	7316.51
452.49	6951.39
452.68	7316.51
452.86	7288.43
453.05	7318.86
453.23	7360.98
453.42	7274.38
453.60	7445.24
453.78	7489.71
453.97	7293.11
454.15	7515.46
454.34	7440.56
454.52	7611.42
454.70	7552.91
454.89	7515.46
455.07	7552.91
455.26	7590.36
455.44	7887.61
455.62	8116.98
455.81	7843.14
455.99	7932.08
456.17	7943.78
456.36	8170.81
456.54	8030.38
456.73	8046.76
456.91	8388.48
457.09	8269.11
457.28	8299.54
457.46	8091.23
457.64	8217.62
457.83	8159.11
458.01	8004.63
458.19	8355.71
458.38	8163.79
458.56	8257.41
458.74	8210.60
458.93	8109.96
459.11	8374.44
459.29	8325.29
459.48	8430.61
459.66	8393.16
459.84	8629.56
460.03	8615.51
460.21	8671.68
460.39	8554.66
460.57	8512.53
460.76	8819.14
460.94	8664.66
461.12	8608.49
461.31	8601.47
461.49	8655.30
461.67	8599.13
461.85	8940.85
462.04	8847.22
462.22	9270.86
462.40	9132.77
462.59	9046.17
462.77	8936.17
462.95	9041.49
463.13	8966.59
463.32	8821.48
463.50	9006.38
463.68	9083.62
463.86	9041.49
464.05	9151.49
464.23	9090.64
464.41	9163.20
464.59	8926.80
464.78	9500.23
464.96	9226.39
465.14	8978.30
465.32	9212.35
465.50	9334.06
465.69	9413.63
465.87	9284.91
466.05	9317.67
466.23	9146.81
466.41	9193.62
466.60	9516.62
466.78	9217.03
466.96	9352.78
467.14	9528.32
467.32	9390.23
467.51	9643.01
467.69	9336.40
467.87	9671.09
468.05	9614.92
468.23	9661.73
468.41	9638.33
468.60	9549.39
468.78	9495.55
468.96	9479.17
469.14	9769.40
469.32	9905.15
469.50	9699.18
469.69	9886.42
469.87	9870.04
470.05	9893.44
470.23	10045.58
470.41	9926.21
470.59	9928.55
470.77	10120.48
470.95	10054.94
471.14	10148.56
471.32	10150.90
471.50	10218.78
471.68	10403.68
471.86	10501.98
472.04	10370.91
472.22	10717.31
472.40	10347.51
472.58	10501.98
472.77	10604.97
472.95	10616.67
473.13	11042.65
473.31	10885.83
473.49	10609.65
473.67	10705.61
473.85	10754.76
474.03	11040.31
474.21	11061.37
474.39	11344.58
474.57	11351.60
474.75	11393.73
474.93	11487.35
475.12	11349.26
475.30	11255.64
475.48	11442.88
475.66	11494.37
475.84	11339.90
476.02	11517.78
476.20	11688.64
476.38	11693.32
476.56	12131.00
476.74	12046.74
476.92	11967.16
477.10	11985.88
477.28	12236.32
477.46	12159.08
477.64	12313.56
477.82	12358.03
478.00	12709.11
478.18	12699.75
478.36	12531.23
478.54	12702.09
478.72	12912.74
478.90	13092.96
479.08	12968.91
479.26	13287.22
479.44	13195.94
479.62	13570.43
479.80	13547.02
479.98	13678.09
480.16	13895.76
480.34	13525.96
480.52	14059.60
480.70	13827.88
480.88	13806.82
481.06	13958.96
481.24	14410.68
481.41	14356.85
481.59	14508.98
481.77	14586.22
481.95	14597.92
482.13	14670.48
482.31	14626.01
482.49	14754.74
482.67	14876.44
482.85	15183.06
483.03	15379.66
483.21	15337.53
483.39	15492.01
483.57	15470.94
483.74	15770.53
483.92	15719.04
484.10	15461.58
484.28	16074.80
484.46	16168.42
484.64	16376.73
484.82	16217.57
485.00	16217.57
485.18	16629.51
485.35	16393.11
485.53	16358.00
485.71	16348.64
485.89	16746.53
486.07	16893.99
486.25	16793.34
486.43	17125.70
486.61	17380.82
486.78	17334.01
486.96	17750.62
487.14	17919.14
487.32	17832.54
487.50	18403.63
487.68	18450.44
487.85	18326.39
488.03	18963.02
488.21	18824.93
488.39	18824.93
488.57	19211.12
488.75	18862.38
488.92	19365.59
489.10	19517.73
489.28	19524.75
489.46	19742.42
489.64	19953.07
489.81	20460.96
489.99	20327.55
490.17	20217.55
490.35	20631.82
490.53	20280.74
490.70	20641.18
490.88	20484.37
491.06	21123.33
491.24	21193.55
491.41	21053.12
491.59	20917.37
491.77	20926.73
491.95	20943.11
492.13	21596.12
492.30	21884.01
492.48	21972.95
492.66	22038.48
492.84	22136.79
493.01	22232.75
493.19	22146.15
493.37	22293.60
493.54	22480.85
493.72	22766.39
493.90	22806.18
494.08	23044.91
494.25	23433.44
494.43	23601.96
494.61	23679.20
494.79	23594.94
494.96	23817.29
495.14	23676.86
495.32	23843.04
495.49	24114.54
495.67	24046.66
495.85	24386.04
496.02	24685.63
496.20	24746.48
496.38	24584.99
496.55	24734.78
496.73	25165.44
496.91	24966.49
497.09	25308.21
497.26	25647.59
497.44	25369.07
497.62	25685.04
497.79	25827.81
497.97	25673.34
498.14	25270.76
498.32	25432.26
498.50	25663.97
498.67	26052.50
498.85	26251.45
499.03	26260.81
499.20	26366.13
499.38	26682.11
499.56	26497.20
499.73	26532.31
499.91	26892.76
500.08	26728.92
500.26	26338.05
500.44	26616.57
500.61	27157.24
500.79	27087.02
500.97	26974.67
501.14	27381.93
501.32	27407.67
501.49	27206.39
501.67	27360.86
501.84	27393.63
502.02	27946.00
502.20	28081.75
502.37	28135.58
502.55	28126.22
502.72	28613.05
502.90	28196.43
503.07	28191.75
503.25	28226.86
503.43	28311.12
503.60	28503.04
503.78	28238.56
503.95	28266.65
504.13	28582.62
504.30	29029.66
504.48	28582.62
504.65	29570.33
504.83	29373.72
505.01	29397.13
505.18	29818.42
505.36	29893.32
505.53	29956.52
505.71	29956.52
505.88	30162.48
506.06	29425.22
506.23	29933.11
506.41	29654.59
506.58	30401.22
506.76	30120.35
506.93	30316.96
507.11	29811.40
507.28	30448.03
507.46	30160.14
507.63	30349.73
507.81	30445.69
507.98	30632.93
508.16	30808.47
508.33	30789.75
508.50	31021.46
508.68	31360.84
508.85	31409.99
509.03	31028.48
509.20	31587.87
509.38	31667.45
509.55	31798.52
509.73	31543.40
509.90	31625.32
510.08	31372.54
510.25	31985.76
510.42	31754.05
510.60	32182.37
510.77	32060.66
510.95	32238.54
511.12	31686.17
511.30	32603.66
511.47	32589.62
511.64	32989.85
511.82	32776.86
511.99	32273.65
512.17	32596.64
512.34	32531.11
512.51	32973.47
512.69	32844.74
512.86	32521.74
513.04	33202.84
513.21	33254.33
513.38	32900.91
513.56	33233.27
513.73	33216.88
513.90	33418.17
514.08	33357.32
514.25	33373.70
514.43	33734.14
514.60	33443.91
514.77	33701.37
514.95	34089.90
515.12	33965.85
515.29	33865.21
515.47	34181.18
515.64	34213.95
515.81	33890.96
515.99	33944.79
516.16	33916.70
516.33	33699.03
516.51	33818.40
516.68	33694.35
516.85	33282.42
517.03	33912.02
517.20	34398.85
517.37	34202.25
517.54	35019.10
517.72	34600.14
517.89	34480.77
518.06	34342.68
518.24	34471.41
518.41	34616.52
518.58	34918.45
518.75	34546.31
518.93	35154.85
519.10	34677.38
519.27	35180.59
519.45	35173.57
519.62	35449.75
519.79	35763.39
519.96	35405.28
520.14	35819.56
520.31	35866.37
520.48	35503.59
520.65	36016.16
520.83	36240.86
521.00	36430.44
521.17	36114.47
521.34	36488.95
521.52	36486.61
521.69	36156.60
521.86	36870.46
522.03	36634.06
522.20	36280.64
522.38	36818.97
522.55	36238.51
522.72	36671.51
522.89	36638.75
523.07	37031.96
523.24	36704.28
523.41	37174.73
523.58	37125.58
523.75	38078.18
523.92	37509.43
524.10	37455.59
524.27	37425.17
524.44	37207.50
524.61	37893.27
524.78	37605.39
524.96	38019.66
525.13	37631.13
525.30	37940.08
525.47	37923.70
525.64	38424.57
525.81	37837.10
525.98	38007.96
526.16	37722.41
526.33	37647.52
526.50	37832.42
526.67	37301.12
526.84	37930.72
527.01	37462.61
527.18	37972.85
527.36	37874.55
527.53	38639.90
527.70	39108.01
527.87	38885.66
528.04	38398.83
528.21	38714.80
528.38	38459.68
528.55	39206.31
528.72	39236.74
528.89	38918.43
529.07	39164.18
529.24	38752.25
529.41	39218.02
529.58	39178.23
529.75	39079.92
529.92	39723.57
530.09	39625.27
530.26	39573.78
530.43	39599.52
530.60	39100.99
530.77	38988.64
530.94	39789.11
531.11	39800.81
531.28	39508.24
531.46	40184.66
531.63	39784.43
531.80	39990.39
531.97	39711.87
532.14	39117.37
532.31	39367.81
532.48	39632.29
532.65	40060.61
532.82	39655.70
532.99	40273.60
533.16	39814.85
533.33	40240.83
533.50	40378.92
533.67	40259.55
533.84	40109.76
534.01	40027.84
534.18	39765.70
534.35	40568.51
534.52	40631.70
534.69	40676.17
534.86	40844.69
535.03	40683.19
535.20	41151.30
535.37	41008.53
535.54	41179.39
535.71	40891.50
535.88	41132.57
536.05	40807.24
536.22	41102.15
536.38	41130.23
536.55	41090.44
536.72	40828.30
536.89	40538.08
537.06	40877.46
537.23	41141.94
537.40	41256.62
537.57	41298.75
537.74	41336.20
537.91	41478.97
538.08	41268.33
538.25	41801.97
538.42	41666.22
538.59	41738.77
538.75	41251.94
538.92	41647.49
539.09	42017.30
539.26	41853.46
539.43	41659.20
539.60	41811.33
539.77	41818.35
539.94	41797.29
540.11	41556.21
540.28	41734.09
540.44	41909.63
540.61	41965.81
540.78	41535.15
540.95	41708.35
541.12	41640.47
541.29	41911.97
541.46	41984.53
541.62	42370.72
541.79	42370.72
541.96	41535.15
542.13	42293.48
542.30	42555.62
542.47	42600.09
542.63	42485.40
542.80	42494.77
542.97	42754.57
543.14	42363.70
543.31	43124.37
543.48	42941.81
543.64	43531.62
543.81	43505.88
543.98	43194.59
544.15	42721.80
544.32	43290.55
544.48	43515.24
544.65	42773.29
544.82	43655.67
544.99	42742.86
545.16	43145.44
545.32	43255.44
545.49	43304.59
545.66	43650.99
545.83	43540.99
546.00	43765.68
546.16	43377.15
546.33	43269.48
546.50	43428.64
546.67	43498.86
546.83	43054.15
547.00	43487.15
547.17	43613.54
547.34	43519.92
547.50	43690.78
547.67	43779.72
547.84	43613.54
548.00	43786.74
548.17	43941.22
548.34	44313.36
548.51	44273.57
548.67	44151.87
548.84	43901.43
549.01	44311.02
549.18	44165.91
549.34	44004.41
549.51	44318.04
549.68	44222.08
549.84	44385.92
550.01	44458.48
550.18	43885.04
550.34	44093.35
550.51	44292.30
550.68	44065.27
550.84	43966.96
551.01	44369.54
551.18	44626.99
551.34	44374.22
551.51	44453.79
551.68	44671.46
551.84	44554.44
552.01	44311.02
552.18	44191.65
552.34	44222.08
552.51	44449.11
552.68	44760.40
552.84	44666.78
553.01	44879.77
553.18	44619.97
553.34	44587.21
553.51	44538.05
553.67	44652.74
553.84	45422.78
554.01	45244.90
554.17	45064.67
554.34	45059.99
554.51	44500.61
554.67	45095.10
554.84	44842.32
555.00	45074.04
555.17	44713.59
555.33	45118.51
555.50	45125.53
555.67	45020.20
555.83	45097.44
556.00	44994.46
556.16	45380.65
556.33	44807.22
556.50	44882.11
556.66	45294.05
556.83	44985.10
556.99	45111.49
557.16	45291.71
557.32	44886.79
557.49	45476.61
557.65	44924.24
557.82	45303.41
557.98	45137.23
558.15	45270.64
558.32	45776.20
558.48	44968.71
558.65	45074.04
558.81	45104.46
558.98	45106.80
559.14	45223.83
559.31	45450.86
559.47	45509.38
559.64	45443.84
559.80	45874.50
559.97	45855.78
560.13	45790.24
560.30	45563.21
560.46	45698.96
560.63	45673.21
560.79	46131.96
560.96	45907.27
561.12	45507.04
561.29	45546.82
561.45	45771.52
561.61	45682.58
561.78	45610.02
561.94	45247.24
562.11	45481.29
562.27	45675.55
562.44	45595.98
562.60	45907.27
562.77	46157.70
562.93	45514.06
563.10	46019.61
563.26	45495.33
563.42	45872.16
563.59	45792.58
563.75	45846.41
563.92	46129.62
564.08	45457.88
564.24	45982.16
564.41	45736.41
564.57	45968.12
564.74	45476.61
564.90	45937.69
565.07	45242.56
565.23	45867.48
565.39	46216.22
565.56	45759.81
565.72	45731.73
565.88	45717.68
566.05	45785.56
566.21	45736.41
566.38	45935.35
566.54	46239.62
566.70	45993.87
566.87	46354.31
567.03	46003.23
567.19	46323.88
567.36	46038.34
567.52	46220.90
567.68	45911.95
567.85	45813.65
568.01	45867.48
568.17	45785.56
568.34	46344.95
568.50	45888.54
568.66	45890.88
568.83	46167.07
568.99	46550.91
569.15	46164.73
569.32	46017.27
569.48	45750.45
569.64	46422.19
569.81	45963.44
569.97	45982.16
570.13	46010.25
570.30	45698.96
570.46	45923.65
570.62	45911.95
570.78	45392.35
570.95	46028.98
571.11	46038.34
571.27	46045.36
571.43	45752.79
571.60	46043.02
571.76	46246.65
571.92	46176.43
572.09	46646.88
572.25	46387.08
572.41	46277.07
572.57	46375.37
572.74	46532.19
572.90	46892.63
573.06	46153.02
573.22	46115.58
573.38	46333.24
573.55	46330.90
573.71	46476.02
573.87	46703.05
574.03	46312.18
574.20	46380.06
574.36	45837.05
574.52	46347.29
574.68	46028.98
574.84	46401.12
575.01	46295.80
575.17	46057.06
575.33	46169.41
575.49	46197.49
575.65	46110.89
575.82	46232.60
575.98	46092.17
576.14	46216.22
576.30	46466.66
576.46	46525.17
576.62	46087.49
576.79	46073.45
576.95	46122.60
577.11	46595.38
577.27	46057.06
577.43	46457.29
577.59	45680.24
577.75	46211.54
577.92	45792.58
578.08	45757.47
578.24	45949.40
578.40	46213.88
578.56	46094.51
578.72	46106.21
578.88	46501.76
579.04	46295.80
579.21	45998.55
579.37	46157.70
579.53	46478.36
579.69	46141.32
579.85	46450.27
580.01	46188.13
580.17	46356.65
580.33	46101.53
580.49	46309.84
580.65	46391.76
580.82	46291.12
580.98	45965.78
581.14	45773.86
581.30	46469.00
581.46	46710.07
581.62	46539.21
581.78	46724.11
581.94	46887.95
582.10	46080.47
582.26	46398.78
582.42	46361.33
582.58	46014.93
582.74	45972.80
582.90	46319.20
583.06	46347.29
583.22	46223.24
583.38	46862.21
583.54	46944.12
583.70	46494.74
583.86	46419.84
584.02	45731.73
584.18	46698.37
584.34	46382.40
584.50	46248.99
584.66	46349.63
584.82	46143.66
584.98	46806.03
585.14	46326.22
585.30	46106.21
585.46	46302.82
585.62	46050.04
585.78	46244.30
585.94	45612.36
586.10	46550.91
586.26	46019.61
586.42	46906.68
586.58	46756.88
586.74	46199.83
586.90	46038.34
587.06	46300.48
587.22	46611.77
587.38	46347.29
587.54	46295.80
587.70	46415.16
587.86	46625.81
588.02	46066.42
588.18	46433.89
588.34	45947.06
588.49	45729.39
588.65	45844.07
588.81	45778.54
588.97	46101.53
589.13	45745.77
589.29	45867.48
589.45	45909.61
589.61	46075.79
589.77	46616.45
589.93	46302.82
590.08	46239.62
590.24	46632.83
590.40	46667.94
590.56	46862.21
590.72	46763.90
590.88	46169.41
591.04	46644.54
591.20	47058.81
591.35	47114.98
591.51	46611.77
591.67	46319.20
591.83	46286.43
591.99	46080.47
592.15	46384.74
592.31	46564.96
592.46	46260.69
592.62	46728.80
592.78	46546.23
592.94	46576.66
593.10	46469.00
593.26	46721.77
593.41	46972.21
593.57	46405.80
593.73	46380.06
593.89	46581.34
594.05	47084.56
594.20	46192.81
594.36	46869.23
594.52	46560.28
594.68	46532.19
594.84	46677.30
594.99	46246.65
595.15	46319.20
595.31	46391.76
595.47	46789.65
595.62	46466.66
595.78	46672.62
595.94	47302.23
596.10	46761.56
596.25	46719.43
596.41	46003.23
596.57	46216.22
596.73	46426.87
596.88	46450.27
597.04	46939.44
597.20	46342.61
597.36	46611.77
597.51	46663.26
597.67	46616.45
597.83	46693.69
597.99	46913.70
598.14	46436.23
598.30	46527.51
598.46	46560.28
598.61	46457.29
598.77	46618.79
598.93	46621.13
599.09	46663.26
599.24	46747.52
599.40	46887.95
599.56	47185.20
599.71	46649.22
599.87	46887.95
600.03	46700.71
600.18	46698.37
600.34	46394.10
600.50	46431.55
600.65	46501.76
600.81	47000.30
600.97	46703.05
601.12	46396.44
601.28	46532.19
601.44	46295.80
601.59	46333.24
601.75	46436.23
601.91	46536.87
602.06	46199.83
602.22	46609.43
602.37	46597.73
602.53	47107.96
602.69	46775.61
602.84	46298.14
603.00	46808.37
603.16	46117.92
603.31	46480.70
603.47	46405.80
603.62	46246.65
603.78	46794.33
603.94	46696.03
604.09	46775.61
604.25	46993.28
604.40	46419.84
604.56	46808.37
604.71	46532.19
604.87	46602.41
605.03	46349.63
605.18	46356.65
605.34	46071.10
605.49	46382.40
605.65	46335.59
605.80	46518.15
605.96	46298.14
606.12	46286.43
606.27	46857.52
606.43	46307.50
606.58	46206.86
606.74	46501.76
606.89	46366.01
607.05	46426.87
607.20	45958.76
607.36	46293.46
607.51	46600.07
607.67	46174.09
607.82	46330.90
607.98	46323.88
608.13	45998.55
608.29	45909.61
608.44	45757.47
608.60	45654.49
608.75	45970.46
608.91	46082.81
609.06	46216.22
609.22	45897.91
609.37	45888.54
609.53	46394.10
609.68	45937.69
609.84	46124.94
609.99	45886.20
610.15	45872.16
610.30	45642.79
610.46	45390.01
610.61	46101.53
610.76	45979.82
610.92	45808.96
611.07	45900.25
611.23	45900.25
611.38	45834.71
611.54	45193.40
611.69	45584.27
611.84	45549.17
612.00	45448.52
612.15	45839.39
612.31	45518.74
612.46	45923.65
612.62	45844.07
612.77	45928.33
612.92	45579.59
613.08	45448.52
613.23	45474.27
613.39	45181.70
613.54	45191.06
613.69	45347.88
613.85	45090.42
614.00	45614.70
614.15	45373.63
614.31	45301.07
614.46	45708.32
614.62	45434.48
614.77	45738.75
614.92	45310.43
615.08	45141.91
615.23	45167.66
615.38	45209.79
615.54	45113.83
615.69	45076.38
615.84	45088.08
616.00	45467.25
616.15	45109.14
616.30	45120.85
616.46	45048.29
616.61	44795.51
616.76	44797.85
616.92	44563.80
617.07	44875.09
617.22	44793.17
617.37	44900.84
617.53	45130.21
617.68	45378.31
617.83	44886.79
617.99	44926.58
618.14	44847.00
618.29	45076.38
618.45	44435.07
618.60	44383.58
618.75	44390.60
618.90	44306.34
619.06	44603.59
619.21	44238.47
619.36	44353.15
619.51	44868.07
619.67	44488.90
619.82	44823.60
619.97	44636.36
620.12	44201.02
620.28	43555.03
620.43	44271.23
620.58	44320.38
620.73	44402.30
620.89	44713.59
621.04	44378.90
621.19	44526.35
621.34	44458.48
621.49	44236.12
621.65	43859.30
621.80	44877.43
621.95	43772.70
622.10	44334.43
622.25	43847.60
622.41	44088.67
622.56	44196.34
622.71	44320.38
622.86	44119.10
623.01	44009.09
623.16	43983.35
623.32	43868.66
623.47	43901.43
623.62	43950.58
623.77	43941.22
623.92	44135.48
624.07	43543.33
624.23	43889.73
624.38	43564.39
624.53	43831.21
624.68	43636.95
624.83	43674.40
624.98	43377.15
625.13	43402.89
625.29	43222.67
625.44	43339.70
625.59	43068.20
625.74	43356.08
625.89	43049.47
626.04	43175.86
626.19	43260.12
626.34	43079.90
626.49	43372.47
626.65	43302.25
626.80	43426.30
626.95	43477.79
627.10	42749.88
627.25	43056.50
627.40	43278.85
627.55	42801.38
627.70	42653.92
627.85	42829.46
628.00	42658.60
628.15	43498.86
628.30	42651.58
628.45	43117.35
628.60	42834.14
628.76	43096.28
628.91	42689.03
629.06	42447.96
629.21	42726.48
629.36	42167.09
629.51	42820.10
629.66	42106.24
629.81	42569.66
629.96	42487.74
630.11	42588.39
630.26	42700.73
630.41	42373.06
630.56	42653.92
630.71	42944.15
630.86	42398.80
631.01	42394.12
631.16	41963.46
631.31	42068.79
631.46	42136.66
631.61	42363.70
631.76	41874.52
631.91	42059.43
632.06	42569.66
632.21	42127.30
632.36	42522.85
632.51	41820.69
632.66	42209.22
632.81	42185.82
632.96	42387.10
633.10	41844.10
633.25	42087.51
633.40	42131.98
633.55	42117.94
633.70	41764.52
633.85	41811.33
634.00	41956.44
634.15	41713.03
634.30	42033.68
634.45	41752.82
634.60	41598.34
634.75	41535.15
634.90	41404.08
635.05	42139.00
635.19	41495.36
635.34	41897.93
635.49	41586.64
635.64	42110.92
635.79	41191.09
635.94	41315.14
636.09	41165.34
636.24	41043.63
636.39	40840.01
636.53	41577.28
636.68	41228.54
636.83	41275.35
636.98	41427.48
637.13	40959.38
637.28	41897.93
637.43	41612.38
637.57	41544.51
637.72	40961.72
637.87	41462.59
638.02	41319.82
638.17	41221.52
638.32	41291.73
638.46	41511.74
638.61	41347.90
638.76	40942.99
638.91	41132.57
639.06	40837.67
639.20	41228.54
639.35	41024.91
639.50	40465.52
639.65	41228.54
639.80	40641.06
639.94	40531.06
640.09	40802.56
640.24	40580.21
640.39	40395.31
640.54	40624.68
640.68	40514.67
640.83	40446.80
640.98	40556.80
641.13	40116.78
641.27	40392.97
641.42	40048.91
641.57	40676.17
641.72	40514.67
641.86	40079.33
642.01	40297.00
642.16	40250.19
642.31	39746.98
642.45	40357.86
642.60	39908.47
642.75	40407.01
642.90	40116.78
643.04	40540.42
643.19	39943.58
643.34	39913.16
643.48	39955.29
643.63	40201.04
643.78	39854.64
643.93	40182.32
644.07	39840.60
644.22	39704.85
644.37	39690.80
644.51	39730.59
644.66	39817.19
644.81	40081.67
644.95	40168.27
645.10	39847.62
645.25	39952.94
645.39	39688.46
645.54	39920.18
645.69	39323.34
645.83	39763.36
645.98	39814.85
646.13	39728.25
646.27	39728.25
646.42	39395.90
646.57	39543.35
646.71	39622.93
646.86	39700.17
647.00	39508.24
647.15	39653.36
647.30	39583.14
647.44	39105.67
647.59	38892.68
647.74	39068.22
647.88	39557.39
648.03	39669.74
648.17	39688.46
648.32	39000.35
648.47	38658.63
648.61	38909.07
648.76	39517.60
648.90	39168.87
649.05	39112.69
649.20	39695.49
649.34	39016.73
649.49	38873.96
649.63	39086.95
649.78	39709.53
649.92	38822.47
650.07	39482.50
650.21	38948.85
650.36	39119.71
650.51	38885.66
650.65	39349.09
650.80	39007.37
650.94	39262.49
651.09	39014.39
651.23	38663.31
651.38	38667.99
651.52	38181.16
651.67	38345.00
651.81	38670.33
651.96	38497.13
652.10	38841.19
652.25	39042.48
652.39	38658.63
652.54	38820.13
652.68	38272.44
652.83	38864.60
652.97	38621.18
653.12	38466.70
653.26	38127.33
653.41	38103.92
653.55	38415.21
653.70	38391.81
653.84	38356.70
653.99	38663.31
654.13	38085.20
654.27	37991.58
654.42	38387.13
654.56	38253.72
654.71	38279.46
654.85	37603.05
655.00	38139.03
655.14	37724.75
655.29	37801.99
655.43	37731.78
655.57	37610.07
655.72	37521.13
655.86	37177.07
656.01	37097.49
656.15	37359.63
656.30	37193.45
656.44	37518.79
656.58	37551.56
656.73	37256.65
656.87	37443.89
657.01	37462.61
657.16	37331.54
657.30	37226.22
657.45	37329.20
657.59	37160.69
657.73	36903.23
657.88	37661.56
658.02	37172.39
658.16	37710.71
658.31	37223.88
658.45	37027.28
658.60	37446.23
658.74	37553.90
658.88	37593.68
659.03	37486.02
659.17	37071.75
659.31	36692.58
659.46	37038.98
659.60	37099.83
659.74	37062.38
659.89	36594.28
660.03	36861.10
660.17	37331.54
660.32	36720.66
660.46	37144.30
660.60	36636.41
660.74	36683.22
660.89	36961.74
661.03	36442.14
661.17	36657.47
661.32	36313.41
661.46	36730.03
661.60	36084.04
661.74	35868.71
661.89	36374.27
662.03	36503.00
662.17	36170.64
662.31	36353.20
662.46	36542.78
662.60	36774.50
662.74	36046.59
662.88	35910.84
663.03	35660.40
663.17	35814.88
663.31	35475.50
663.45	35505.93
663.60	35562.10
663.74	35880.41
663.88	35592.53
664.02	35461.46
664.17	35590.19
664.31	34864.62
664.45	35716.58
664.59	35412.31
664.73	35428.69
664.88	35248.47
665.02	34796.74
665.16	34700.78
665.30	34927.81
665.44	34778.02
665.59	34745.25
665.73	34998.03
665.87	35065.91
666.01	34937.18
666.15	35040.16
666.29	34810.79
666.44	34890.37
666.58	34972.28
666.72	34562.69
666.86	34462.05
667.00	34794.40
667.14	34370.77
667.28	34263.10
667.43	34593.12
667.57	34190.55
667.71	34237.36
667.85	34338.00
667.99	34216.29
668.13	34117.99
668.27	34251.40
668.41	33949.47
668.56	34178.84
668.70	34459.71
668.84	33528.17
668.98	33624.14
669.12	33675.63
669.26	33673.29
669.40	33436.89
669.54	33647.54
669.68	33640.52
669.82	33116.24
669.96	33198.16
670.10	32999.21
670.25	33359.66
670.39	32779.20
670.53	33062.41
670.67	33139.65
670.81	33383.06
670.95	32936.02
671.09	32936.02
671.23	32484.30
671.37	32924.32
671.51	32477.27
671.65	32844.74
671.79	32460.89
671.93	32229.18
672.07	32481.95
672.21	32418.76
672.35	32306.41
672.49	32133.21
672.63	32357.91
672.77	31850.01
672.91	32313.44
673.05	32409.40
673.19	31817.24
673.33	31409.99
673.47	31679.15
673.61	31924.91
673.75	31246.15
673.89	31470.84
674.03	31468.50
674.17	31241.47
674.31	31152.53
674.45	30995.71
674.59	31515.31
674.73	31606.59
674.87	31353.82
675.01	31222.75
675.15	31049.55
675.29	30969.97
675.43	30801.45
675.56	30646.97
675.70	30773.36
675.84	30778.04
675.98	29729.48
676.12	30188.23
676.26	30480.80
676.40	30824.86
676.54	30642.29
676.68	30110.99
676.82	29715.44
676.96	30164.82
677.10	30338.02
677.23	29572.67
677.37	29673.31
677.51	29933.11
677.65	29212.23
677.79	29390.11
677.93	29287.12
678.07	28842.42
678.21	28884.55
678.34	28774.55
678.48	28786.25
678.62	29212.23
678.76	28381.34
678.90	28481.98
679.04	28318.14
679.18	28730.08
679.31	27772.80
679.45	28341.55
679.59	28233.88
679.73	28276.01
679.87	27887.48
680.00	28254.95
680.14	27831.31
680.28	28084.09
680.42	27356.18
680.56	27466.19
680.70	27854.72
680.83	27384.27
680.97	27335.12
681.11	27161.92
681.25	27410.01
681.39	27094.04
681.52	27651.09
681.66	27180.64
681.80	27096.38
681.94	27133.83
682.07	26717.22
682.21	26698.49
682.35	26380.18
682.49	26663.38
682.62	26794.45
682.76	26190.59
682.90	26412.95
683.04	26300.60
683.17	25881.64
683.31	25809.09
683.45	25764.62
683.59	25970.58
683.72	25860.58
683.86	25998.67
684.00	25823.13
684.13	25460.35
684.27	25441.62
684.41	24964.15
684.55	25092.88
684.68	25043.73
684.82	24837.76
684.96	25181.82
685.09	24917.34
685.23	24643.50
685.37	25050.75
685.50	24739.46
685.64	24704.35
685.78	24372.00
685.91	24603.71
686.05	24194.12
686.19	23845.38
686.32	23924.96
686.46	23894.53
686.60	23477.91
686.73	23651.11
686.87	22977.04
687.01	23276.63
687.14	22948.95
687.28	23082.36
687.42	23190.03
687.55	22960.66
687.69	23190.03
687.82	23070.66
687.96	22794.48
688.10	22654.05
688.23	22752.35
688.37	22787.46
688.50	22625.96
688.64	22794.48
688.78	22506.59
688.91	22157.85
689.05	21893.37
689.18	22099.34
689.32	21516.54
689.46	21972.95
689.59	22211.68
689.73	22424.67
689.86	21937.84
690.00	21465.05
690.13	21577.40
690.27	21343.35
690.41	21537.61
690.54	21179.51
690.68	21216.96
690.81	21696.77
690.95	21156.10
691.08	21303.56
691.22	21280.15
691.35	20924.39
691.49	21336.32
691.62	20816.72
691.76	20842.47
691.89	20919.71
692.03	20362.66
692.16	20781.62
692.30	20500.75
692.43	20180.10
692.57	20311.17
692.70	20247.97
692.84	19948.39
692.97	19983.49
693.11	20187.12
693.24	19854.76
693.38	19953.07
693.51	19545.81
693.65	19763.48
693.78	19438.15
693.92	19543.47
694.05	19447.51
694.19	19325.80
694.32	19101.11
694.45	19311.76
694.59	19414.74
694.72	19037.92
694.86	19061.32
694.99	18726.63
695.13	18628.32
695.26	18787.48
695.39	18576.83
695.53	18799.18
695.66	18654.07
695.80	18602.58
695.93	18396.61
696.07	18436.40
696.20	18108.72
696.33	18267.88
696.47	17886.37
696.60	18125.11
696.73	18218.73
696.87	17598.49
697.00	17891.06
697.14	17612.53
697.27	17399.54
697.40	17521.25
697.54	17558.70
697.67	17102.29
697.80	17090.59
697.94	17088.25
698.07	17224.00
698.21	17114.00
698.34	17053.14
698.47	17249.75
698.61	16800.37
698.74	16727.81
698.87	16898.67
699.01	16608.44
699.14	16570.99
699.27	16240.98
699.40	16149.70
699.54	16465.67
699.67	16514.82
699.80	15939.05
699.94	16018.63
700.07	16350.98
700.20	15988.20
700.34	16154.38
700.47	15997.56
700.60	15941.39
700.73	16027.99
700.87	16044.37
701.00	15655.84
701.13	15604.35
701.26	15442.85
701.40	15403.07
701.53	15337.53
701.66	15417.11
701.79	15101.14
701.93	15145.61
702.06	14888.15
702.19	14785.16
702.32	14768.78
702.46	14923.26
702.59	14925.60
702.72	14820.27
702.85	14752.40
702.99	14888.15
703.12	14675.16
703.25	14508.98
703.38	14588.56
703.51	14480.89
703.65	14288.97
703.78	13935.55
703.91	14024.49
704.04	14218.75
704.17	14061.94
704.31	14125.13
704.44	13846.61
704.57	13792.78
704.70	13928.53
704.83	13743.63
704.96	13853.63
705.10	13671.07
705.23	13540.00
>>>>>End Processed Spectral Data<<<<<
