SpectraSuite Data File
++++++++++++++++++++++++++++++++++++
Date: Fri Oct 25 10:47:59 EDT 2013
User: price-jones
Dark Spectrum Present: No
Reference Spectrum Present: No
Number of Sampled Component Spectra: 1
Spectrometers: USB2+H05261
Integration Time (usec): 100000 (USB2+H05261)
Spectra Averaged: 1 (USB2+H05261)
Boxcar Smoothing: 0 (USB2+H05261)
Correct for Electrical Dark: No (USB2+H05261)
Strobe/Lamp Enabled: No (USB2+H05261)
Correct for Detector Non-linearity: No (USB2+H05261)
Correct for Stray Light: No (USB2+H05261)
Number of Pixels in Processed Spectrum: 2048
>>>>>Begin Processed Spectral Data<<<<<
365.73	147.45
365.92	147.45
366.12	147.45
366.32	107.66
366.52	67.88
366.72	39.79
366.91	46.81
367.11	9.36
367.31	46.81
367.51	72.56
367.70	65.54
367.90	81.92
368.10	0.00
368.30	63.19
368.49	63.19
368.69	102.98
368.89	16.38
369.09	30.43
369.28	128.73
369.48	163.84
369.68	140.43
369.87	91.28
370.07	124.05
370.27	72.56
370.47	217.67
370.66	367.46
370.86	479.81
371.06	477.47
371.25	550.03
371.45	479.81
371.65	512.58
371.84	440.02
372.04	521.94
372.24	468.11
372.44	498.53
372.63	493.85
372.83	435.34
373.03	428.32
373.22	440.02
373.42	479.81
373.62	566.41
373.81	543.00
374.01	573.43
374.21	547.69
374.40	552.37
374.60	535.98
374.79	493.85
374.99	571.09
375.19	603.86
375.38	552.37
375.58	566.41
375.78	463.43
375.97	545.34
376.17	631.94
376.37	578.11
376.56	580.45
376.76	531.30
376.95	585.13
377.15	648.33
377.35	627.26
377.54	603.86
377.74	613.22
377.93	667.05
378.13	629.60
378.33	662.37
378.52	580.45
378.72	627.26
378.91	606.20
379.11	594.50
379.31	622.58
379.50	589.82
379.70	690.46
379.89	706.84
380.09	636.63
380.28	641.31
380.48	634.29
380.68	610.88
380.87	664.71
381.07	732.59
381.26	706.84
381.46	615.56
381.65	683.44
381.85	692.80
382.04	631.94
382.24	678.76
382.43	732.59
382.63	667.05
382.83	685.78
383.02	727.91
383.22	699.82
383.41	678.76
383.61	730.25
383.80	793.44
384.00	645.99
384.19	723.23
384.39	805.14
384.58	746.63
384.78	732.59
384.97	763.01
385.17	713.86
385.36	763.01
385.56	795.78
385.75	746.63
385.95	704.50
386.14	720.88
386.34	748.97
386.53	791.10
386.72	767.70
386.92	746.63
387.11	828.55
387.31	765.36
387.50	793.44
387.70	847.27
387.89	788.76
388.09	774.72
388.28	788.76
388.48	840.25
388.67	861.32
388.86	898.77
389.06	957.28
389.25	901.11
389.45	936.21
389.64	870.68
389.84	908.13
390.03	863.66
390.22	823.87
390.42	828.55
390.61	959.62
390.81	849.61
391.00	912.81
391.19	1008.77
391.39	905.79
391.58	880.04
391.78	936.21
391.97	884.72
392.16	905.79
392.36	887.06
392.55	983.02
392.75	990.05
392.94	959.62
393.13	1034.52
393.33	957.28
393.52	992.39
393.71	1083.67
393.91	1046.22
394.10	1055.58
394.29	1048.56
394.49	1039.20
394.68	1090.69
394.88	1081.33
395.07	1083.67
395.26	1086.01
395.46	1097.71
395.65	1156.22
395.84	1167.93
396.04	1125.80
396.23	1090.69
396.42	1046.22
396.62	1102.39
396.81	1125.80
397.00	1158.57
397.19	1151.54
397.39	1170.27
397.58	1245.16
397.77	1205.38
397.97	1256.87
398.16	1233.46
398.35	1273.25
398.55	1226.44
398.74	1282.61
398.93	1352.83
399.12	1249.85
399.32	1306.02
399.51	1320.06
399.70	1327.08
399.90	1336.45
400.09	1378.58
400.28	1451.13
400.47	1399.64
400.67	1359.85
400.86	1329.42
401.05	1373.89
401.24	1432.41
401.44	1413.68
401.63	1434.75
401.82	1528.37
402.01	1488.58
402.21	1542.41
402.40	1563.48
402.59	1565.82
402.78	1626.67
402.97	1565.82
403.17	1528.37
403.36	1547.09
403.55	1589.22
403.74	1579.86
403.93	1579.86
404.13	1621.99
404.32	1586.88
404.51	1591.56
404.70	1739.02
404.89	1647.74
405.09	1732.00
405.28	1621.99
405.47	1612.63
405.66	1778.81
405.85	1722.63
406.05	1701.57
406.24	1790.51
406.43	1902.86
406.62	1846.68
406.81	1914.56
407.00	1809.23
407.20	1790.51
407.39	1809.23
407.58	1870.09
407.77	1926.26
407.96	1853.70
408.15	1919.24
408.34	1884.13
408.54	1944.99
408.73	1877.11
408.92	1877.11
409.11	1968.39
409.30	1996.48
409.49	1980.09
409.68	1916.90
409.87	2073.71
410.07	1970.73
410.26	2090.10
410.45	2066.69
410.64	2129.89
410.83	2179.04
411.02	2263.30
411.21	2183.72
411.40	2251.60
411.59	2284.36
411.78	2218.83
411.98	2307.77
412.17	2314.79
412.36	2298.41
412.55	2338.20
412.74	2375.64
412.93	2436.50
413.12	2377.98
413.31	2427.14
413.50	2497.35
413.69	2518.42
413.88	2539.48
414.07	2513.74
414.26	2473.95
414.45	2532.46
414.64	2502.03
414.83	2626.08
415.02	2605.02
415.22	2724.38
415.41	2738.43
415.60	2722.04
415.79	2846.09
415.98	2846.09
416.17	2799.28
416.36	2715.02
416.55	2841.41
416.74	2935.03
416.93	2773.53
417.12	2878.86
417.31	2834.39
417.50	2963.12
417.69	2928.01
417.88	3035.67
418.07	3045.04
418.26	3033.33
418.45	3054.40
418.64	3089.51
418.83	3150.36
419.02	3082.49
419.21	3112.91
419.39	3162.06
419.58	3162.06
419.77	3066.10
419.96	3129.30
420.15	3234.62
420.34	3229.94
420.53	3204.19
420.72	3316.54
420.91	3300.16
421.10	3323.56
421.29	3456.97
421.48	3428.88
421.67	3400.80
421.86	3248.66
422.05	3410.16
422.24	3386.76
422.43	3417.18
422.61	3325.90
422.80	3492.08
422.99	3356.33
423.18	3440.59
423.37	3653.58
423.56	3478.04
423.75	3487.40
423.94	3447.61
424.13	3269.73
424.32	3346.97
424.50	3524.85
424.69	3513.14
424.88	3735.50
425.07	3487.40
425.26	3459.31
425.45	3534.21
425.64	3426.54
425.83	3578.68
426.01	3644.21
426.20	3588.04
426.39	3480.38
426.58	3421.86
426.77	3513.14
426.96	3578.68
427.15	3414.84
427.33	3578.68
427.52	3723.79
427.71	3702.73
427.90	3702.73
428.09	3651.24
428.28	3719.11
428.46	3571.66
428.65	3768.26
428.84	3772.94
429.03	3868.91
429.22	3686.34
429.40	3777.62
429.59	3669.96
429.78	3473.36
429.97	3644.21
430.16	3672.30
430.34	3712.09
430.53	3735.50
430.72	3798.69
430.91	3878.27
431.10	3857.20
431.28	3960.19
431.47	4091.26
431.66	4152.11
431.85	3990.61
432.03	4145.09
432.22	4297.22
432.41	3946.14
432.60	4067.85
432.79	4278.50
432.97	4201.26
433.16	4222.33
433.35	4046.79
433.54	4212.96
433.72	4173.18
433.91	4255.09
434.10	4187.22
434.28	4177.86
434.47	4334.67
434.66	4348.72
434.85	4308.93
435.03	4409.57
435.22	4432.97
435.41	4617.88
435.59	4409.57
435.78	4688.09
435.97	4596.81
436.16	4409.57
436.34	4461.06
436.53	4629.58
436.72	4664.69
436.90	4568.73
437.09	4678.73
437.28	4482.13
437.46	4547.66
437.65	4475.10
437.84	4674.05
438.02	4559.36
438.21	4627.24
438.40	4550.00
438.58	4805.12
438.77	4889.38
438.96	4704.48
439.14	4870.65
439.33	4903.42
439.52	5006.41
439.70	4964.28
439.89	4891.72
440.08	5111.73
440.26	5118.75
440.45	5146.84
440.63	5118.75
440.82	5418.34
441.01	5280.25
441.19	5284.93
441.38	5336.42
441.57	5350.46
441.75	5385.57
441.94	5507.28
442.12	5542.39
442.31	5607.92
442.50	5755.38
442.68	5600.90
442.87	5692.18
443.05	5430.04
443.24	5778.78
443.43	5750.70
443.61	5610.26
443.80	5748.36
443.98	5617.29
444.17	5530.69
444.35	5802.19
444.54	5832.62
444.73	5724.95
444.91	5675.80
445.10	5902.83
445.28	5748.36
445.47	5621.97
445.65	5825.59
445.84	5650.05
446.02	5781.12
446.21	5870.06
446.39	5657.07
446.58	5895.81
446.77	5926.24
446.95	5628.99
447.14	5902.83
447.32	6017.52
447.51	5891.13
447.69	5968.37
447.88	5942.62
448.06	5959.00
448.25	5877.09
448.43	5783.46
448.62	5991.77
448.80	5846.66
448.99	6001.13
449.17	6040.92
449.36	5954.32
449.54	6221.14
449.73	6204.76
449.91	6256.25
450.10	6286.68
450.28	6312.42
450.46	6387.32
450.65	6272.64
450.83	6328.81
451.02	6333.49
451.20	6347.53
451.39	6497.33
451.57	6345.19
451.76	6431.79
451.94	6459.88
452.13	6377.96
452.31	6448.18
452.49	6396.68
452.68	6321.79
452.86	6452.86
453.05	6623.72
453.23	6520.73
453.42	6340.51
453.60	6509.03
453.78	6544.14
453.97	6665.85
454.15	6562.86
454.34	6534.78
454.52	6740.74
454.70	6623.72
454.89	6705.63
455.07	6759.47
455.26	6679.89
455.44	6862.45
455.62	6668.19
455.81	6796.92
455.99	6846.07
456.17	6867.13
456.36	6874.15
456.54	7080.12
456.73	6998.20
456.91	7253.32
457.09	7040.33
457.28	7368.01
457.46	7157.36
457.64	7225.23
457.83	7133.95
458.01	7178.42
458.19	7286.09
458.38	7309.49
458.56	7393.75
458.74	7384.39
458.93	7377.37
459.11	7513.12
459.29	7452.27
459.48	7466.31
459.66	7389.07
459.84	7597.38
460.03	7623.12
460.21	7630.15
460.39	7583.34
460.57	7445.24
460.76	7702.70
460.94	7768.24
461.12	7625.47
461.31	7646.53
461.49	7588.02
461.67	7721.43
461.85	7889.95
462.04	7571.63
462.22	8198.90
462.40	7775.26
462.59	7756.54
462.77	7740.15
462.95	8112.30
463.13	7946.12
463.32	8042.08
463.50	7838.45
463.68	8002.29
463.86	8049.10
464.05	8131.02
464.23	7943.78
464.41	7808.03
464.59	7850.16
464.78	8203.58
464.96	7934.42
465.14	8102.93
465.32	8152.09
465.50	8273.79
465.69	8341.67
465.87	8102.93
466.05	8308.90
466.23	8285.50
466.41	8053.78
466.60	8360.39
466.78	8107.62
466.96	8180.17
467.14	8393.16
467.32	8353.37
467.51	8477.42
467.69	8208.26
467.87	8414.23
468.05	8608.49
468.23	8610.83
468.41	8505.51
468.60	8503.17
468.78	8662.32
468.96	8446.99
469.14	8662.32
469.32	8802.75
469.50	8465.72
469.69	8634.24
469.87	8835.52
470.05	8889.35
470.23	8872.97
470.41	8971.27
470.59	8917.44
470.77	9001.70
470.95	9034.47
471.14	9034.47
471.32	9097.66
471.50	9331.72
471.68	9214.69
471.86	9355.12
472.04	9305.97
472.22	9268.52
472.40	9277.88
472.58	9226.39
472.77	9261.50
472.95	9446.40
473.13	9823.23
473.31	9542.36
473.49	9444.06
473.67	9418.32
473.85	9795.14
474.03	9596.20
474.21	9856.00
474.39	9949.62
474.57	9837.27
474.75	9905.15
474.93	10324.10
475.12	10106.43
475.30	10050.26
475.48	9893.44
475.66	10160.27
475.84	10118.14
476.02	10249.21
476.20	10274.95
476.38	10581.56
476.56	10607.31
476.74	10600.29
476.92	10586.24
477.10	10853.06
477.28	10897.53
477.46	10836.68
477.64	10843.70
477.82	11117.54
478.00	11262.66
478.18	11267.34
478.36	11197.12
478.54	11449.90
478.72	11534.16
478.90	11506.07
479.08	11770.55
479.26	11700.34
479.44	11772.89
479.62	12102.91
479.80	12053.76
479.98	12184.83
480.16	12332.28
480.34	12222.28
480.52	12374.41
480.70	12369.73
480.88	12269.09
481.06	12517.18
481.24	12561.66
481.41	12737.20
481.59	12891.67
481.77	13205.30
481.95	12835.50
482.13	13090.62
482.31	13291.90
482.49	13738.94
482.67	13308.29
482.85	13626.60
483.03	13724.90
483.21	13692.13
483.39	13895.76
483.57	13820.86
483.74	13748.31
483.92	13947.25
484.10	13937.89
484.28	14167.26
484.46	14569.83
484.64	14574.52
484.82	14525.36
485.00	14635.37
485.18	14764.10
485.35	15227.53
485.53	14850.70
485.71	14839.00
485.89	15234.55
486.07	15157.31
486.25	15300.08
486.43	15304.76
486.61	15545.84
486.78	15616.05
486.96	15662.86
487.14	16053.73
487.32	15889.90
487.50	16044.37
487.68	16549.93
487.85	16486.73
488.03	16760.58
488.21	17062.51
488.39	16758.24
488.57	16931.44
488.75	17067.19
488.92	17174.85
489.10	17554.02
489.28	17944.89
489.46	17769.35
489.64	17593.81
489.81	18085.32
489.99	18200.01
490.17	18288.95
490.35	18530.02
490.53	18256.18
490.70	18534.70
490.88	18420.02
491.06	18890.46
491.24	18888.12
491.41	18923.23
491.59	18956.00
491.77	19140.90
491.95	19374.95
492.13	19393.68
492.30	19609.01
492.48	19906.26
492.66	19770.51
492.84	19772.85
493.01	20102.86
493.19	20198.82
493.37	20264.36
493.54	20849.49
493.72	20828.43
493.90	20514.80
494.08	20837.79
494.25	21209.93
494.43	21062.48
494.61	21259.09
494.79	21341.00
494.96	20961.84
495.14	21252.06
495.32	21565.70
495.49	21561.02
495.67	21603.14
495.85	21909.75
496.02	21928.48
496.20	22125.08
496.38	22097.00
496.55	22352.12
496.73	22670.43
496.91	22520.63
497.09	22944.27
497.26	22609.58
497.44	22693.83
497.62	22740.64
497.79	23332.80
497.97	23087.04
498.14	23396.00
498.32	23480.25
498.50	23440.47
498.67	23864.10
498.85	23716.65
499.03	23934.32
499.20	23784.52
499.38	23939.00
499.56	24254.97
499.73	24212.84
499.91	24692.65
500.08	24320.51
500.26	24386.04
500.44	24751.17
500.61	24381.36
500.79	24584.99
500.97	24950.11
501.14	24985.22
501.32	24760.53
501.49	24723.08
501.67	25104.59
501.84	25214.59
502.02	24870.53
502.20	25493.12
502.37	25366.73
502.55	25619.50
502.72	25919.09
502.90	25685.04
503.07	25546.95
503.25	25432.26
503.43	25678.02
503.60	26087.61
503.78	25998.67
503.95	26244.43
504.13	26230.38
504.30	26029.10
504.48	26050.16
504.65	26525.29
504.83	26759.34
505.01	26576.78
505.18	26696.15
505.36	26979.36
505.53	26916.16
505.71	27398.31
505.88	27267.24
506.06	26785.09
506.23	27407.67
506.41	27103.40
506.58	27639.39
506.76	27625.34
506.93	27524.70
507.11	27665.13
507.28	27934.29
507.46	27735.35
507.63	27756.41
507.81	27810.25
507.98	27929.61
508.16	28002.17
508.33	28254.95
508.50	28135.58
508.68	28177.71
508.85	28591.98
509.03	28828.38
509.20	28538.15
509.38	28659.86
509.55	28975.83
509.73	29050.73
509.90	29081.16
510.08	28854.12
510.25	29034.35
510.42	29195.84
510.60	29296.49
510.77	29376.06
510.95	29610.12
511.12	28966.47
511.30	29661.61
511.47	29893.32
511.64	29848.85
511.82	29942.47
511.99	29596.07
512.17	29898.00
512.34	29860.55
512.51	30031.41
512.69	30323.98
512.86	30015.03
513.04	30820.17
513.21	30618.89
513.38	30426.96
513.56	30656.34
513.73	30394.20
513.90	30881.03
514.08	30850.60
514.25	30974.65
514.43	30408.24
514.60	30803.79
514.77	30558.03
514.95	30981.67
515.12	31054.23
515.29	31152.53
515.47	31316.37
515.64	31491.91
515.81	31264.88
515.99	31604.25
516.16	31646.38
516.33	31473.18
516.51	31690.85
516.68	31576.17
516.85	31381.90
517.03	31817.24
517.20	31847.67
517.37	31873.42
517.54	32233.86
517.72	32320.46
517.89	31945.97
518.06	32128.53
518.24	31728.30
518.41	32189.39
518.58	31658.09
518.75	32713.67
518.93	32744.09
519.10	32903.25
519.27	32739.41
519.45	32957.08
519.62	32886.87
519.79	32943.04
519.96	33116.24
520.14	33535.20
520.31	32868.14
520.48	33308.16
520.65	32790.91
520.83	33497.75
521.00	33298.80
521.17	33450.94
521.34	33525.83
521.52	33743.50
521.69	34029.05
521.86	33862.87
522.03	34188.21
522.20	34150.76
522.38	34106.29
522.55	33975.22
522.72	34040.75
522.89	34139.05
523.07	34054.79
523.24	34068.84
523.41	34382.47
523.58	34171.82
523.75	34565.03
523.92	34511.20
524.10	34883.34
524.27	34611.84
524.44	34923.13
524.61	34768.66
524.78	35061.22
524.96	35138.46
525.13	35042.50
525.30	35182.93
525.47	35473.16
525.64	35051.86
525.81	35526.99
525.98	35314.00
526.16	35091.65
526.33	34717.17
526.50	35672.10
526.67	35145.48
526.84	35054.20
527.01	35058.88
527.18	35583.16
527.36	35292.94
527.53	35697.85
527.70	36084.04
527.87	36245.54
528.04	35885.09
528.21	35817.22
528.38	36175.32
528.55	36488.95
528.72	36329.80
528.89	36620.02
529.07	36297.03
529.24	36070.00
529.41	36280.64
529.58	35924.88
529.75	36254.90
529.92	36610.66
530.09	36762.79
530.26	36491.29
530.43	36533.42
530.60	36374.27
530.77	36608.32
530.94	36849.39
531.11	36638.75
531.28	36973.44
531.46	37195.79
531.63	37015.57
531.80	37013.23
531.97	37383.04
532.14	36943.02
532.31	36905.57
532.48	37436.87
532.65	37345.59
532.82	37935.40
532.99	37783.27
533.16	37174.73
533.33	37816.04
533.50	37511.77
533.67	37837.10
533.84	37471.98
534.01	37886.25
534.18	37858.17
534.35	38010.30
534.52	37937.74
534.69	37984.55
534.86	37525.81
535.03	37809.01
535.20	38286.48
535.37	38246.69
535.54	38403.51
535.71	38164.78
535.88	38234.99
536.05	38099.24
536.22	38328.61
536.38	38300.53
536.55	38122.65
536.72	38146.05
536.89	38036.05
537.06	38342.66
537.23	38546.28
537.40	38181.16
537.57	38466.70
537.74	38368.40
537.91	38876.30
538.08	38721.82
538.25	38464.36
538.42	38845.87
538.59	38883.32
538.75	38548.62
538.92	39089.29
539.09	39072.90
539.26	38822.47
539.43	39103.33
539.60	39030.77
539.77	38897.36
539.94	39353.77
540.11	39112.69
540.28	39065.88
540.44	39161.84
540.61	39012.05
540.78	39393.56
540.95	39531.65
541.12	39360.79
541.29	39065.88
541.46	39419.30
541.62	39515.26
541.79	39356.11
541.96	39037.80
542.13	39491.86
542.30	39620.59
542.47	39653.36
542.63	39578.46
542.80	40048.91
542.97	40067.63
543.14	40329.77
543.31	39849.96
543.48	40051.25
543.64	40898.52
543.81	40755.75
543.98	40329.77
544.15	40596.59
544.32	40144.87
544.48	41113.85
544.65	40706.60
544.82	39931.88
544.99	40308.71
545.16	40287.64
545.32	40517.01
545.49	40603.61
545.66	41387.69
545.83	40715.96
546.00	41249.60
546.16	40851.71
546.33	40341.47
546.50	40311.05
546.67	41244.92
546.83	40449.14
547.00	40765.11
547.17	40945.33
547.34	40744.05
547.50	40739.36
547.67	41319.82
547.84	41249.60
548.00	41041.29
548.17	41762.18
548.34	41310.46
548.51	41914.31
548.67	41263.64
548.84	41619.41
549.01	41432.16
549.18	41390.03
549.34	41698.98
549.51	41715.37
549.68	41471.95
549.84	41553.87
550.01	41708.35
550.18	41635.79
550.34	41631.11
550.51	41296.41
550.68	41764.52
550.84	41546.85
551.01	41691.96
551.18	42054.75
551.34	41818.35
551.51	41750.48
551.68	41984.53
551.84	42375.40
552.01	41537.49
552.18	42129.64
552.34	41752.82
552.51	42239.65
552.68	42506.47
552.84	42471.36
553.01	42663.28
553.18	42113.26
553.34	42052.41
553.51	42483.06
553.67	41954.10
553.84	42777.97
554.01	42653.92
554.17	42726.48
554.34	42703.07
554.51	42265.39
554.67	42958.19
554.84	42445.62
555.00	42380.08
555.17	42529.87
555.33	42717.12
555.50	42572.00
555.67	42511.15
555.83	42775.63
556.00	42574.34
556.16	43084.58
556.33	42808.40
556.50	43016.71
556.66	42593.07
556.83	42651.58
556.99	43124.37
557.16	42740.52
557.32	42871.59
557.49	43091.60
557.65	42862.23
557.82	42951.17
557.98	43138.41
558.15	43152.46
558.32	43433.32
558.48	42667.97
558.65	42946.49
558.81	42920.74
558.98	43576.09
559.14	42918.40
559.31	43065.86
559.47	42997.98
559.64	43391.19
559.80	43679.08
559.97	43150.12
560.13	43159.48
560.30	43276.51
560.46	43426.30
560.63	43367.79
560.79	43398.21
560.96	43669.72
561.12	43187.56
561.29	43178.20
561.45	43676.74
561.61	43515.24
561.78	43728.23
561.94	43484.81
562.11	43529.28
562.27	43164.16
562.44	43615.88
562.60	44231.44
562.77	43634.61
562.93	43576.09
563.10	43936.54
563.26	43313.95
563.42	44217.40
563.59	43468.43
563.75	43395.87
563.92	43625.25
564.08	43915.47
564.24	43814.83
564.41	43770.36
564.57	43608.86
564.74	43758.66
564.90	43721.21
565.07	43819.51
565.23	43084.58
565.39	43772.70
565.56	44065.27
565.72	43585.46
565.88	44041.86
566.05	43915.47
566.21	43569.07
566.38	43693.12
566.54	43817.17
566.70	43885.04
566.87	44222.08
567.03	43957.60
567.19	44402.30
567.36	44144.84
567.52	43749.29
567.68	43768.02
567.85	43674.40
568.01	43955.26
568.17	43910.79
568.34	44245.49
568.50	43723.55
568.66	44268.89
568.83	44203.36
568.99	44137.82
569.15	44074.63
569.32	44226.76
569.48	43667.37
569.64	44170.59
569.81	44245.49
569.97	44273.57
570.13	44273.57
570.30	43988.03
570.46	44175.27
570.62	43765.68
570.78	43875.68
570.95	43962.28
571.11	44367.20
571.27	44046.54
571.43	44030.16
571.60	44556.78
571.76	43845.26
571.92	44119.10
572.09	43800.79
572.25	44119.10
572.41	44172.93
572.57	44121.44
572.74	44495.92
572.90	44168.25
573.06	44217.40
573.22	44432.73
573.38	44182.29
573.55	44275.91
573.71	44385.92
573.87	44086.33
574.03	43770.36
574.20	44226.76
574.36	44383.58
574.52	44879.77
574.68	44748.70
574.84	44437.41
575.01	44458.48
575.17	44250.17
575.33	44273.57
575.49	44261.87
575.65	44676.15
575.82	44486.56
575.98	44570.82
576.14	44568.48
576.30	44229.10
576.46	43924.83
576.62	44318.04
576.79	43903.77
576.95	44046.54
577.11	44399.96
577.27	44250.17
577.43	44669.12
577.59	44509.97
577.75	44177.61
577.92	44233.78
578.08	43817.17
578.24	43819.51
578.40	44720.62
578.56	44765.09
578.72	44156.55
578.88	44711.25
579.04	44540.39
579.21	43959.94
579.37	44322.72
579.53	44240.81
579.69	44020.80
579.85	44257.19
580.01	44107.40
580.17	44795.51
580.33	44591.89
580.49	44868.07
580.65	44701.89
580.82	44446.77
580.98	44449.11
581.14	44222.08
581.30	44802.53
581.46	44399.96
581.62	44720.62
581.78	44151.87
581.94	44989.78
582.10	44385.92
582.26	44968.71
582.42	44823.60
582.58	44570.82
582.74	44446.77
582.90	44453.79
583.06	44704.23
583.22	44802.53
583.38	44657.42
583.54	44612.95
583.70	44725.30
583.86	44116.76
584.02	44697.21
584.18	44491.24
584.34	44591.89
584.50	44666.78
584.66	44161.23
584.82	44444.43
584.98	44835.30
585.14	44718.28
585.30	44428.05
585.46	44203.36
585.62	44135.48
585.78	44435.07
585.94	44313.36
586.10	44491.24
586.26	44346.13
586.42	44896.16
586.58	44725.30
586.74	44444.43
586.90	44538.05
587.06	44299.32
587.22	44594.23
587.38	44545.08
587.54	44975.73
587.70	44933.60
587.86	44701.89
588.02	44596.57
588.18	44292.30
588.34	44395.28
588.49	44587.21
588.65	44671.46
588.81	44470.18
588.97	44439.75
589.13	44818.92
589.29	44783.81
589.45	44641.04
589.61	45102.12
589.77	44961.69
589.93	44666.78
590.08	44687.85
590.24	44664.44
590.40	44865.73
590.56	44975.73
590.72	45109.14
590.88	44692.53
591.04	44926.58
591.20	44502.95
591.35	45120.85
591.51	45216.81
591.67	44690.19
591.83	44926.58
591.99	44596.57
592.15	44535.71
592.31	44626.99
592.46	45158.30
592.62	44603.59
592.78	45041.27
592.94	45268.30
593.10	44940.63
593.26	44854.03
593.41	44741.68
593.57	45017.86
593.73	44884.45
593.89	44858.71
594.05	44729.98
594.20	44755.72
594.36	45294.05
594.52	44968.71
594.68	44961.69
594.84	44708.91
594.99	45478.95
595.15	44664.44
595.31	45544.48
595.47	44872.75
595.62	44917.22
595.78	45258.94
595.94	44882.11
596.10	45275.32
596.25	45001.48
596.41	45275.32
596.57	44741.68
596.73	45146.59
596.88	45034.25
597.04	45195.74
597.20	45092.76
597.36	45027.23
597.51	45277.66
597.67	45188.72
597.83	45083.40
597.99	45315.11
598.14	44949.99
598.30	44701.89
598.46	45315.11
598.61	44945.31
598.77	44973.39
598.93	44666.78
599.09	45041.27
599.24	45111.49
599.40	45174.68
599.56	45120.85
599.71	45340.86
599.87	45663.85
600.03	45048.29
600.18	45200.43
600.34	45132.55
600.50	45207.45
600.65	45022.54
600.81	45153.62
600.97	45102.12
601.12	45963.44
601.28	45205.11
601.44	45244.90
601.59	45165.32
601.75	44942.97
601.91	45162.98
602.06	44589.55
602.22	45017.86
602.37	45076.38
602.53	45214.47
602.69	45296.39
602.84	44942.97
603.00	44863.39
603.16	45216.81
603.31	45001.48
603.47	44882.11
603.62	44919.56
603.78	45113.83
603.94	44809.56
604.09	44858.71
604.25	44935.95
604.40	45179.36
604.56	44844.66
604.71	45284.68
604.87	45083.40
605.03	45130.21
605.18	44917.22
605.34	45099.78
605.49	44636.36
605.65	45223.83
605.80	44842.32
605.96	45216.81
606.12	44872.75
606.27	44748.70
606.43	44856.37
606.58	44903.18
606.74	44449.11
606.89	44694.87
607.05	44800.19
607.20	44729.98
607.36	44926.58
607.51	45088.08
607.67	44905.52
607.82	44858.71
607.98	44704.23
608.13	44823.60
608.29	44828.28
608.44	44158.89
608.60	44315.70
608.75	44802.53
608.91	44804.88
609.06	44650.40
609.22	44744.02
609.37	44229.10
609.53	44802.53
609.68	44931.26
609.84	44589.55
609.99	44807.22
610.15	44683.17
610.30	44233.78
610.46	44498.26
610.61	44566.14
610.76	44582.52
610.92	44425.71
611.07	44439.75
611.23	44140.16
611.38	44327.41
611.54	44144.84
611.69	44500.61
611.84	44287.62
612.00	44254.85
612.15	44137.82
612.31	44399.96
612.46	44098.03
612.62	44847.00
612.77	44069.95
612.92	44788.49
613.08	44006.75
613.23	44002.07
613.39	44098.03
613.54	44222.08
613.69	44069.95
613.85	44210.38
614.00	44292.30
614.15	44388.26
614.31	44161.23
614.46	44406.98
614.62	44023.14
614.77	44194.00
614.92	43658.01
615.08	43875.68
615.23	43805.47
615.38	43875.68
615.54	43667.37
615.69	43922.49
615.84	43407.58
616.00	43887.39
616.15	43887.39
616.30	43693.12
616.46	43543.33
616.61	43742.27
616.76	43810.15
616.92	43335.02
617.07	43737.59
617.22	43529.28
617.37	43435.66
617.53	43875.68
617.68	44016.11
617.83	43892.07
617.99	43955.26
618.14	43716.53
618.29	43751.63
618.45	43189.91
618.60	43840.57
618.75	43189.91
618.90	43533.96
619.06	43723.55
619.21	43578.43
619.36	43576.09
619.51	43838.23
619.67	43351.40
619.82	43185.22
619.97	43524.60
620.12	43351.40
620.28	42944.15
620.43	43372.47
620.58	42658.60
620.73	42904.36
620.89	42895.00
621.04	43320.98
621.19	43185.22
621.34	43206.29
621.49	42749.88
621.65	42871.59
621.80	43157.14
621.95	43164.16
622.10	42967.55
622.25	42941.81
622.41	42469.02
622.56	42796.70
622.71	43276.51
622.86	43072.88
623.01	42986.28
623.16	43143.09
623.32	42808.40
623.47	43250.76
623.62	43131.39
623.77	43199.27
623.92	42862.23
624.07	42424.55
624.23	42745.20
624.38	42230.29
624.53	42307.52
624.68	42794.36
624.83	42497.11
624.98	42628.18
625.13	42405.83
625.29	43098.62
625.44	42607.11
625.59	42419.87
625.74	42148.37
625.89	42024.32
626.04	42148.37
626.19	42323.91
626.34	42417.53
626.49	42508.81
626.65	42218.58
626.80	42216.24
626.95	41886.23
627.10	41965.81
627.25	41874.52
627.40	41801.97
627.55	41844.10
627.70	41418.12
627.85	41371.31
628.00	42127.30
628.15	42029.00
628.30	42141.35
628.45	41879.21
628.60	41500.04
628.76	41940.06
628.91	41778.56
629.06	41846.44
629.21	41099.81
629.36	41502.38
629.51	41586.64
629.66	41808.99
629.81	41633.45
629.96	41640.47
630.11	41523.44
630.26	42117.94
630.41	41902.61
630.56	41577.28
630.71	41425.14
630.86	41460.25
631.01	41364.29
631.16	41064.70
631.31	40828.30
631.46	40620.00
631.61	41289.39
631.76	41345.56
631.91	41193.43
632.06	41336.20
632.21	41385.35
632.36	41434.50
632.51	40926.61
632.66	40994.48
632.81	40566.16
632.96	40879.80
633.10	40814.26
633.25	41057.68
633.40	40870.43
633.55	41216.83
633.70	41017.89
633.85	41045.97
634.00	41031.93
634.15	40861.07
634.30	40804.90
634.45	40980.44
634.60	41053.00
634.75	40505.31
634.90	41029.59
635.05	40985.12
635.19	40849.37
635.34	40931.29
635.49	40715.96
635.64	40608.29
635.79	40224.45
635.94	40542.76
636.09	40519.35
636.24	40353.18
636.39	40191.68
636.53	40678.51
636.68	40350.84
636.83	40264.24
636.98	40371.90
637.13	39913.16
637.28	40727.66
637.43	40442.12
637.57	40435.10
637.72	40065.29
637.87	40353.18
638.02	40142.53
638.17	40020.82
638.32	40294.66
638.46	40060.61
638.61	39908.47
638.76	39629.95
638.91	40236.15
639.06	40091.04
639.20	40004.44
639.35	40495.95
639.50	39681.44
639.65	40196.36
639.80	40140.19
639.94	40189.34
640.09	40133.17
640.24	39807.83
640.39	39896.77
640.54	39758.68
640.68	39566.76
640.83	39690.80
640.98	39454.41
641.13	39306.96
641.27	39779.74
641.42	39503.56
641.57	39852.30
641.72	39810.17
641.86	39330.36
642.01	39428.66
642.16	39414.62
642.31	39033.11
642.45	39290.57
642.60	39297.59
642.75	38888.00
642.90	39210.99
643.04	39150.14
643.19	39395.90
643.34	39412.28
643.48	39225.04
643.63	39456.75
643.78	39571.44
643.93	39192.27
644.07	39306.96
644.22	38700.76
644.37	38789.70
644.51	38939.49
644.66	39061.20
644.81	39398.24
644.95	38976.94
645.10	38979.28
645.25	38976.94
645.39	39124.40
645.54	38988.64
645.69	38817.78
645.83	38960.56
645.98	38927.79
646.13	38752.25
646.27	38698.42
646.42	38808.42
646.57	38871.62
646.71	38684.37
646.86	38508.83
647.00	38747.57
647.15	38955.88
647.30	39140.78
647.44	38731.18
647.59	38904.38
647.74	38565.01
647.88	38614.16
648.03	38265.42
648.17	38572.03
648.32	38167.12
648.47	38307.55
648.61	37748.16
648.76	38693.74
648.90	38115.62
649.05	38162.43
649.20	38316.91
649.34	38665.65
649.49	38176.48
649.63	38246.69
649.78	37956.47
649.92	38223.29
650.07	38511.17
650.21	38115.62
650.36	38078.18
650.51	38337.98
650.65	38799.06
650.80	38497.13
650.94	38604.80
651.09	37940.08
651.23	37827.74
651.38	37902.64
651.52	38136.69
651.67	38263.08
651.81	38394.15
651.96	37748.16
652.10	37715.39
652.25	37771.57
652.39	38096.90
652.54	37699.01
652.68	38155.41
652.83	37736.46
652.97	37951.79
653.12	37675.60
653.26	37673.26
653.41	38106.26
653.55	37734.12
653.70	37411.12
653.84	37361.97
653.99	37724.75
654.13	37607.73
654.27	37434.53
654.42	37706.03
654.56	37511.77
654.71	37862.85
654.85	37235.58
655.00	37132.60
655.14	37427.51
655.29	37137.28
655.43	37471.98
655.57	37258.99
655.72	36816.63
655.86	37198.13
656.01	37219.20
656.15	36781.52
656.30	37064.72
656.44	36790.88
656.58	36926.63
656.73	37134.94
656.87	36865.78
657.01	36575.55
657.16	36629.38
657.30	36708.96
657.45	36524.06
657.59	36690.24
657.73	36711.30
657.88	36924.29
658.02	36503.00
658.16	36753.43
658.31	36795.56
658.45	36973.44
658.60	36643.43
658.74	36741.73
658.88	36842.37
659.03	36423.42
659.17	36212.77
659.31	36449.16
659.46	36273.62
659.60	36650.45
659.74	36027.87
659.89	36275.96
660.03	35952.97
660.17	35969.35
660.32	36105.10
660.46	36070.00
660.60	36224.47
660.74	36292.35
660.89	36336.82
661.03	35337.41
661.17	35700.19
661.32	35304.64
661.46	36011.48
661.60	35587.85
661.74	35735.30
661.89	36004.46
662.03	35789.13
662.17	35412.31
662.31	35501.25
662.46	35765.73
662.60	35880.41
662.74	35187.61
662.88	35281.24
663.03	35559.76
663.17	35332.73
663.31	34918.45
663.45	35365.49
663.60	34981.65
663.74	34829.51
663.88	35227.40
664.02	34733.55
664.17	35194.64
664.31	34394.17
664.45	34457.37
664.59	34787.38
664.73	34635.25
664.88	35112.72
665.02	34529.92
665.16	34595.46
665.30	34583.76
665.44	34457.37
665.59	34389.49
665.73	33954.15
665.87	33970.54
666.01	33867.55
666.15	34188.21
666.29	34127.35
666.44	33905.00
666.58	33921.38
666.72	34286.51
666.86	34487.79
667.00	34134.37
667.14	34089.90
667.28	33855.85
667.43	33493.07
667.57	33916.70
667.71	33362.00
667.85	33816.06
667.99	33500.09
668.13	33289.44
668.27	33476.68
668.41	33481.36
668.56	32959.42
668.70	33200.50
668.84	33322.21
668.98	33200.50
669.12	32989.85
669.26	33221.56
669.40	33085.81
669.54	33113.90
669.68	32982.83
669.82	32975.81
669.96	32575.58
670.10	32945.38
670.25	32896.23
670.39	32442.17
670.53	32470.25
670.67	32591.96
670.81	32727.71
670.95	32676.22
671.09	32657.49
671.23	32718.35
671.37	32692.60
671.51	32664.52
671.65	32088.74
671.79	32369.61
671.93	31850.01
672.07	32147.26
672.21	31964.70
672.35	31718.94
672.49	31690.85
672.63	31875.76
672.77	31646.38
672.91	31461.48
673.05	31545.74
673.19	31391.26
673.33	31559.78
673.47	31360.84
673.61	31175.94
673.75	31014.44
673.89	30822.51
674.03	30630.59
674.17	30878.69
674.31	30597.82
674.45	31215.72
674.59	30836.56
674.73	31108.06
674.87	30988.69
675.01	30586.12
675.15	30785.07
675.29	30871.67
675.43	30326.32
675.56	30724.21
675.70	30284.19
675.84	30522.93
675.98	29069.45
676.12	30197.59
676.26	29869.92
676.40	29996.31
676.54	29694.38
676.68	29785.66
676.82	29207.55
676.96	29605.44
677.10	29266.06
677.23	29457.98
677.37	29266.06
677.51	29336.27
677.65	29303.51
677.79	28938.38
677.93	28982.85
678.07	29270.74
678.21	28386.02
678.34	28442.19
678.48	28781.57
678.62	28519.43
678.76	28563.90
678.90	28292.40
679.04	28107.49
679.18	28484.32
679.31	27758.75
679.45	28180.05
679.59	27615.98
679.73	28175.37
679.87	28016.21
680.00	27260.22
680.14	27573.85
680.28	27445.12
680.42	27372.57
680.56	27821.95
680.70	27435.76
680.83	26813.18
680.97	26635.30
681.11	26925.52
681.25	26810.84
681.39	26792.11
681.52	26944.25
681.66	26988.72
681.80	26309.96
681.94	26623.59
682.07	26176.55
682.21	26544.02
682.35	26235.06
682.49	26581.46
682.62	26286.56
682.76	26136.76
682.90	25713.13
683.04	25965.90
683.17	25977.61
683.31	25951.86
683.45	25502.48
683.59	25380.77
683.72	25593.76
683.86	25010.96
684.00	24938.41
684.13	25488.43
684.27	25324.60
684.41	25137.35
684.55	24849.47
684.68	24669.25
684.82	24680.95
684.96	24638.82
685.09	24467.96
685.23	24561.58
685.37	24524.13
685.50	24442.21
685.64	24491.37
685.78	24339.23
685.91	24453.92
686.05	23936.66
686.19	23618.35
686.32	23763.46
686.46	23744.73
686.60	23475.57
686.73	23466.21
686.87	23257.90
687.01	23136.20
687.14	23342.16
687.28	22850.65
687.42	23019.17
687.55	23009.81
687.69	23138.54
687.82	22768.73
687.96	23014.49
688.10	22684.47
688.23	22101.68
688.37	22366.16
688.50	22115.72
688.64	22174.24
688.78	22237.43
688.91	22026.78
689.05	22099.34
689.18	22143.81
689.32	21614.85
689.46	22221.05
689.59	21781.03
689.73	22104.02
689.86	21624.21
690.00	21425.26
690.13	21830.18
690.27	21458.03
690.41	21167.80
690.54	20989.92
690.68	21247.38
690.81	21111.63
690.95	20900.98
691.08	20973.54
691.22	21060.14
691.35	20786.30
691.49	20821.41
691.62	20978.22
691.76	21104.61
691.89	20676.29
692.03	20535.86
692.16	20259.68
692.30	20341.60
692.43	20140.31
692.57	19997.54
692.70	20161.37
692.84	20238.61
692.97	19613.69
693.11	19859.45
693.24	19520.07
693.38	19440.49
693.51	19211.12
693.65	19822.00
693.78	19648.80
693.92	19475.60
694.05	19286.01
694.19	19112.81
694.32	19255.59
694.45	19190.05
694.59	19084.73
694.72	18743.01
694.86	18689.18
694.99	18757.05
695.13	18417.68
695.26	18277.24
695.39	18384.91
695.53	18232.77
695.66	18455.12
695.80	18132.13
695.93	17991.70
696.07	17902.76
696.20	18331.08
696.33	17900.42
696.47	18104.04
696.60	18003.40
696.73	18008.08
696.87	17816.16
697.00	17916.80
697.14	17799.77
697.27	17570.40
697.40	17460.40
697.54	17411.25
697.67	17172.51
697.80	17493.16
697.94	17294.22
698.07	17057.82
698.21	16936.12
698.34	16912.71
698.47	16936.12
698.61	16339.28
698.74	16423.54
698.87	16697.38
699.01	16470.35
699.14	16444.60
699.27	16362.69
699.40	16432.90
699.54	16154.38
699.67	16123.95
699.80	16166.08
699.94	15964.79
700.07	16067.78
700.20	15782.23
700.34	15653.50
700.47	15950.75
700.60	15754.15
700.73	15936.71
700.87	15386.68
701.00	15475.62
701.13	15522.43
701.26	15435.83
701.40	15602.01
701.53	15412.43
701.66	15110.50
701.79	15044.96
701.93	14761.76
702.06	14918.57
702.19	14616.65
702.32	14843.68
702.46	14501.96
702.59	14576.86
702.72	14693.88
702.85	14803.89
702.99	14649.41
703.12	14710.27
703.25	14200.03
703.38	14366.21
703.51	14310.04
703.65	14188.33
703.78	14251.52
703.91	13980.02
704.04	14061.94
704.17	14134.50
704.31	13837.25
704.44	13603.19
704.57	13666.39
704.70	13455.74
704.83	13563.40
704.96	13811.50
705.10	13884.06
705.23	13799.80
>>>>>End Processed Spectral Data<<<<<
