SpectraSuite Data File
++++++++++++++++++++++++++++++++++++
Date: Fri Oct 25 10:48:36 EDT 2013
User: price-jones
Dark Spectrum Present: No
Reference Spectrum Present: No
Number of Sampled Component Spectra: 1
Spectrometers: USB2+H05261
Integration Time (usec): 100000 (USB2+H05261)
Spectra Averaged: 1 (USB2+H05261)
Boxcar Smoothing: 0 (USB2+H05261)
Correct for Electrical Dark: No (USB2+H05261)
Strobe/Lamp Enabled: No (USB2+H05261)
Correct for Detector Non-linearity: No (USB2+H05261)
Correct for Stray Light: No (USB2+H05261)
Number of Pixels in Processed Spectrum: 2048
>>>>>Begin Processed Spectral Data<<<<<
365.73	86.60
365.92	86.60
366.12	86.60
366.32	86.60
366.52	0.00
366.72	51.49
366.91	7.02
367.11	81.92
367.31	0.00
367.51	44.47
367.70	49.15
367.90	67.88
368.10	56.17
368.30	67.88
368.49	35.11
368.69	81.92
368.89	51.49
369.09	79.58
369.28	42.13
369.48	21.06
369.68	100.64
369.87	70.22
370.07	93.62
370.27	152.13
370.47	234.05
370.66	449.38
370.86	437.68
371.06	421.30
371.25	533.64
371.45	475.13
371.65	550.03
371.84	533.64
372.04	524.28
372.24	578.11
372.44	554.71
372.63	449.38
372.83	505.56
373.03	594.50
373.22	528.96
373.42	571.09
373.62	521.94
373.81	578.11
374.01	589.82
374.21	636.63
374.40	514.92
374.60	575.77
374.79	592.16
374.99	610.88
375.19	624.92
375.38	657.69
375.58	606.20
375.78	603.86
375.97	734.93
376.17	685.78
376.37	638.97
376.56	624.92
376.76	674.07
376.95	594.50
377.15	692.80
377.35	667.05
377.54	706.84
377.74	751.31
377.93	657.69
378.13	704.50
378.33	718.54
378.52	809.83
378.72	709.18
378.91	653.01
379.11	730.25
379.31	641.31
379.50	655.35
379.70	795.78
379.89	770.04
380.09	774.72
380.28	786.42
380.48	809.83
380.68	706.84
380.87	751.31
381.07	765.36
381.26	791.10
381.46	634.29
381.65	711.52
381.85	821.53
382.04	748.97
382.24	732.59
382.43	772.38
382.63	777.06
382.83	732.59
383.02	812.17
383.22	844.93
383.41	741.95
383.61	819.19
383.80	798.12
384.00	828.55
384.19	842.59
384.39	800.46
384.58	884.72
384.78	840.25
384.97	901.11
385.17	823.87
385.36	858.98
385.56	917.49
385.75	814.51
385.95	884.72
386.14	945.58
386.34	884.72
386.53	894.08
386.72	931.53
386.92	950.26
387.11	957.28
387.31	945.58
387.50	933.87
387.70	929.19
387.89	924.51
388.09	992.39
388.28	1018.13
388.48	1020.47
388.67	1018.13
388.86	1018.13
389.06	976.00
389.25	1116.44
389.45	1053.24
389.64	997.07
389.84	992.39
390.03	1008.77
390.22	1139.84
390.42	1036.86
390.61	1144.52
390.81	1046.22
391.00	1048.56
391.19	1139.84
391.39	1174.95
391.58	1139.84
391.78	1109.41
391.97	1078.99
392.16	1111.75
392.36	1102.39
392.55	1074.31
392.75	1086.01
392.94	1069.62
393.13	1055.58
393.33	1050.90
393.52	1111.75
393.71	1071.97
393.91	1170.27
394.10	1174.95
394.29	1181.97
394.49	1289.64
394.68	1228.78
394.88	1277.93
395.07	1409.00
395.26	1299.00
395.46	1376.24
395.65	1303.68
395.84	1303.68
396.04	1261.55
396.23	1207.72
396.42	1196.01
396.62	1240.48
396.81	1256.87
397.00	1301.34
397.19	1364.53
397.39	1327.08
397.58	1453.47
397.77	1465.18
397.97	1434.75
398.16	1479.22
398.35	1572.84
398.55	1568.16
398.74	1568.16
398.93	1715.61
399.12	1673.48
399.32	1474.54
399.51	1558.80
399.70	1685.19
399.90	1591.56
400.09	1687.53
400.28	1687.53
400.47	1689.87
400.67	1673.48
400.86	1727.32
401.05	1827.96
401.24	1764.76
401.44	1874.77
401.63	1776.47
401.82	1832.64
402.01	1703.91
402.21	1820.94
402.40	1776.47
402.59	1795.19
402.78	1809.23
402.97	1895.83
403.17	1879.45
403.36	1928.60
403.55	1902.86
403.74	1991.80
403.93	1926.26
404.13	2052.65
404.32	1895.83
404.51	1933.28
404.70	2097.12
404.89	2012.86
405.09	2113.50
405.28	2031.58
405.47	2106.48
405.66	2057.33
405.85	2211.81
406.05	2083.08
406.24	2108.82
406.43	2111.16
406.62	2162.66
406.81	2265.64
407.00	2176.70
407.20	2207.13
407.39	2157.97
407.58	2228.19
407.77	2298.41
407.96	2319.47
408.15	2436.50
408.34	2209.47
408.54	2422.45
408.73	2333.51
408.92	2331.17
409.11	2352.24
409.30	2485.65
409.49	2394.37
409.68	2415.43
409.87	2448.20
410.07	2347.56
410.26	2431.82
410.45	2406.07
410.64	2654.17
410.83	2560.55
411.02	2609.70
411.21	2726.72
411.40	2775.88
411.59	2651.83
411.78	2717.36
411.98	2703.32
412.17	2710.34
412.36	2885.88
412.55	2815.66
412.74	2920.99
412.93	2754.81
413.12	2853.11
413.31	3040.36
413.50	2942.05
413.69	2974.82
413.88	3021.63
414.07	3026.31
414.26	3110.57
414.45	3155.04
414.64	3164.40
414.83	3213.56
415.02	3040.36
415.22	3138.66
415.41	3267.39
415.60	3276.75
415.79	3428.88
415.98	3414.84
416.17	3356.33
416.36	3386.76
416.55	3421.86
416.74	3363.35
416.93	3382.07
417.12	3494.42
417.31	3503.78
417.50	3576.34
417.69	3527.19
417.88	3531.87
418.07	3545.91
418.26	3461.65
418.45	3569.32
418.64	3896.99
418.83	3637.19
419.02	3716.77
419.21	3796.35
419.39	3709.75
419.58	3595.06
419.77	3620.81
419.96	3854.86
420.15	3796.35
420.34	3854.86
420.53	3801.03
420.72	3978.91
420.91	4028.06
421.10	4194.24
421.29	3999.98
421.48	3995.29
421.67	4058.49
421.86	4065.51
422.05	4002.32
422.24	4044.45
422.43	3950.82
422.61	4138.07
422.80	4109.98
422.99	3955.51
423.18	4046.79
423.37	4189.56
423.56	4135.73
423.75	4205.94
423.94	4121.68
424.13	3838.48
424.32	3892.31
424.50	4007.00
424.69	4166.15
424.88	4297.22
425.07	4149.77
425.26	4053.81
425.45	4065.51
425.64	4095.94
425.83	4156.79
426.01	4271.48
426.20	4091.26
426.39	4203.60
426.58	4105.30
426.77	3957.85
426.96	4161.47
427.15	4163.81
427.33	4229.35
427.52	4217.65
427.71	4297.22
427.90	4315.95
428.09	4416.59
428.28	4245.73
428.46	4161.47
428.65	4411.91
428.84	4418.93
429.03	4475.10
429.22	4229.35
429.40	4294.88
429.59	4299.56
429.78	4112.32
429.97	4196.58
430.16	4098.28
430.34	4198.92
430.53	4222.33
430.72	4329.99
430.91	4423.61
431.10	4418.93
431.28	4704.48
431.47	4847.25
431.66	4896.40
431.85	4814.48
432.03	4896.40
432.22	4826.18
432.41	4676.39
432.60	4924.49
432.79	4746.61
432.97	4884.70
433.16	4887.04
433.35	4945.55
433.54	4882.36
433.72	5015.77
433.91	4809.80
434.10	4933.85
434.28	5074.28
434.47	4999.38
434.66	5067.26
434.85	5067.26
435.03	5263.86
435.22	5139.82
435.41	5352.81
435.59	5345.78
435.78	5376.21
435.97	5275.57
436.16	5455.79
436.34	5310.68
436.53	5355.15
436.72	5317.70
436.90	5397.28
437.09	5406.64
437.28	5167.90
437.46	5317.70
437.65	5390.25
437.84	5303.65
438.02	5313.02
438.21	5315.36
438.40	5226.42
438.58	5479.19
438.77	5593.88
438.96	5476.85
439.14	5781.12
439.33	5865.38
439.52	5839.64
439.70	5863.04
439.89	5846.66
440.08	5900.49
440.26	5998.79
440.45	5959.00
440.63	6122.84
440.82	6333.49
441.01	6221.14
441.19	6216.46
441.38	6211.78
441.57	6516.05
441.75	6333.49
441.94	6581.59
442.12	6530.09
442.31	6534.78
442.50	6626.06
442.68	6593.29
442.87	6497.33
443.05	6675.21
443.24	6616.69
443.43	6803.94
443.61	6792.23
443.80	6785.21
443.98	6413.07
444.17	6422.43
444.35	6747.76
444.54	6899.90
444.73	6850.75
444.91	6740.74
445.10	6616.69
445.28	6686.91
445.47	6569.88
445.65	6789.89
445.84	6663.51
446.02	6820.32
446.21	6848.41
446.39	6918.62
446.58	6995.86
446.77	6960.75
446.95	6817.98
447.14	6949.05
447.32	7087.14
447.51	6899.90
447.69	7009.90
447.88	6963.09
448.06	7016.93
448.25	7136.29
448.43	7014.59
448.62	7033.31
448.80	6906.92
448.99	7180.76
449.17	7253.32
449.36	7028.63
449.54	7382.05
449.73	7253.32
449.91	7339.92
450.10	7365.67
450.28	7609.08
450.46	7482.69
450.65	7463.97
450.83	7421.84
451.02	7396.09
451.20	7611.42
451.39	7496.74
451.57	7431.20
451.76	7639.51
451.94	7386.73
452.13	7438.22
452.31	7506.10
452.49	7290.77
452.68	7473.33
452.86	7496.74
453.05	7768.24
453.23	7578.65
453.42	7573.97
453.60	7812.71
453.78	7826.75
453.97	7616.10
454.15	7854.84
454.34	7871.22
454.52	7852.50
454.70	7819.73
454.89	7927.39
455.07	7777.60
455.26	7971.86
455.44	7997.61
455.62	7990.59
455.81	8238.69
455.99	8383.80
456.17	8142.72
456.36	8124.00
456.54	8234.00
456.73	8269.11
456.91	8372.10
457.09	8353.37
457.28	8545.30
457.46	8114.64
457.64	8510.19
457.83	8395.50
458.01	8393.16
458.19	8624.87
458.38	8437.63
458.56	8638.92
458.74	8521.89
458.93	8491.46
459.11	8676.37
459.29	8671.68
459.48	8739.56
459.66	8765.31
459.84	8643.60
460.03	8933.82
460.21	8800.41
460.39	8856.59
460.57	8964.25
460.76	9020.42
460.94	8910.42
461.12	9062.55
461.31	9043.83
461.49	9118.73
461.67	8950.21
461.85	9174.90
462.04	9247.46
462.22	9523.64
462.40	9207.67
462.59	9284.91
462.77	9226.39
462.95	9467.47
463.13	9165.54
463.32	9352.78
463.50	9444.06
463.68	9282.56
463.86	9242.78
464.05	9254.48
464.23	9327.03
464.41	9202.99
464.59	9275.54
464.78	9394.91
464.96	9399.59
465.14	9652.37
465.32	9453.42
465.50	9467.47
465.69	9640.67
465.87	9483.85
466.05	9743.65
466.23	9439.38
466.41	9687.48
466.60	9544.70
466.78	9710.88
466.96	9593.86
467.14	9540.02
467.32	9888.76
467.51	10071.33
467.69	9481.51
467.87	9682.80
468.05	9689.82
468.23	9591.52
468.41	9811.53
468.60	9996.43
468.78	10139.20
468.96	10045.58
469.14	10083.03
469.32	10134.52
469.50	9820.89
469.69	10169.63
469.87	10258.57
470.05	10363.89
470.23	10237.50
470.41	10204.74
470.59	10141.54
470.77	10244.52
470.95	10546.45
471.14	10513.69
471.32	10391.98
471.50	10736.04
471.68	10729.02
471.86	10555.82
472.04	10843.70
472.22	11126.91
472.40	10803.91
472.58	10815.62
472.77	10869.45
472.95	10796.89
473.13	11332.87
473.31	10874.13
473.49	10855.40
473.67	10995.84
473.85	11178.40
474.03	11447.56
474.21	11307.13
474.39	11613.74
474.57	11531.82
474.75	11569.27
474.93	11463.94
475.12	11428.84
475.30	11777.58
475.48	11595.01
475.66	11777.58
475.84	11616.08
476.02	11857.15
476.20	12011.63
476.38	12184.83
476.56	12582.72
476.74	12315.90
476.92	12095.89
477.10	12245.68
477.28	12493.78
477.46	12552.29
477.64	12809.75
477.82	12879.97
478.00	13118.70
478.18	13041.46
478.36	13111.68
478.54	13212.32
478.72	13114.02
478.90	13486.17
479.08	13444.04
479.26	13741.29
479.44	13565.74
479.62	13874.70
479.80	13804.48
479.98	13680.43
480.16	14171.94
480.34	14054.92
480.52	14281.95
480.70	14153.22
480.88	14190.67
481.06	14546.43
481.24	14298.33
481.41	14462.17
481.59	15040.28
481.77	14934.96
481.95	14869.42
482.13	15250.93
482.31	15122.20
482.49	15625.42
482.67	15456.90
482.85	15468.60
483.03	15704.99
483.21	15913.30
483.39	16074.80
483.57	15997.56
483.74	16116.93
483.92	16273.74
484.10	16009.26
484.28	16264.38
484.46	16662.27
484.64	16893.99
484.82	16758.24
485.00	16657.59
485.18	16889.31
485.35	16954.84
485.53	16753.55
485.71	16765.26
485.89	17177.19
486.07	17191.23
486.25	17563.38
486.43	17455.72
486.61	17673.39
486.78	17834.88
486.96	18036.17
487.14	18485.55
487.32	18464.49
487.50	18637.69
487.68	18941.96
487.85	18932.59
488.03	18869.40
488.21	19403.04
488.39	18988.77
488.57	19318.78
488.75	19323.46
488.92	19552.84
489.10	20032.65
489.28	20046.69
489.46	20453.94
489.64	20409.47
489.81	20947.79
489.99	20634.16
490.17	21216.96
490.35	21142.06
490.53	21415.90
490.70	21142.06
490.88	21322.28
491.06	21668.68
491.24	21518.89
491.41	21502.50
491.59	21774.00
491.77	21886.35
491.95	21827.84
492.13	21965.93
492.30	22040.82
492.48	22522.98
492.66	22675.11
492.84	22874.06
493.01	23119.81
493.19	23033.21
493.37	22974.70
493.54	23143.22
493.72	23398.34
493.90	22899.80
494.08	24030.28
494.25	24254.97
494.43	24063.05
494.61	24142.63
494.79	24482.00
494.96	24205.82
495.14	24243.27
495.32	24554.56
495.49	24561.58
495.67	24772.23
495.85	24627.12
496.02	25380.77
496.20	25284.81
496.38	25205.23
496.55	25720.15
496.73	25790.36
496.91	25469.71
497.09	25865.26
497.26	26129.74
497.44	25975.27
497.62	26003.35
497.79	26132.08
497.97	26015.05
498.14	26506.57
498.32	26565.08
498.50	26733.60
498.67	26735.94
498.85	26857.65
499.03	27262.56
499.20	27440.44
499.38	27365.54
499.56	26885.73
499.73	27442.78
499.91	27440.44
500.08	27784.50
500.26	27047.23
500.44	27852.38
500.61	27976.42
500.79	27779.82
500.97	27775.14
501.14	28180.05
501.32	28224.52
501.49	28116.86
501.67	28133.24
501.84	28627.09
502.02	28472.62
502.20	28620.07
502.37	28680.92
502.55	28589.64
502.72	28882.21
502.90	28826.04
503.07	29130.31
503.25	29343.30
503.43	28807.31
503.60	29062.43
503.78	29418.19
503.95	29188.82
504.13	29640.54
504.30	29530.54
504.48	29638.20
504.65	30181.21
504.83	29954.18
505.01	30391.86
505.18	30082.91
505.36	30476.12
505.53	30335.68
505.71	30630.59
505.88	31035.50
506.06	30195.25
506.23	30635.27
506.41	30689.10
506.58	30820.17
506.76	30974.65
506.93	31213.38
507.11	30771.02
507.28	31274.24
507.46	31512.97
507.63	30799.11
507.81	31391.26
507.98	31431.05
508.16	31562.12
508.33	31681.49
508.50	31702.56
508.68	31948.31
508.85	32254.92
509.03	31896.82
509.20	31850.01
509.38	32531.11
509.55	32243.22
509.73	32266.63
509.90	32598.98
510.08	32510.04
510.25	32318.12
510.42	32746.44
510.60	32884.53
510.77	33160.71
510.95	33605.41
511.12	32980.49
511.30	33539.88
511.47	33425.19
511.64	33448.60
511.82	33748.18
511.99	33467.32
512.17	33731.80
512.34	33661.58
512.51	33710.74
512.69	34082.88
512.86	33778.61
513.04	34007.98
513.21	34092.24
513.38	33617.11
513.56	34597.80
513.73	34080.54
513.90	33965.85
514.08	34106.29
514.25	34387.15
514.43	34284.17
514.60	34487.79
514.77	34417.58
514.95	34698.44
515.12	34749.93
515.29	34396.51
515.47	35189.95
515.64	35690.83
515.81	34845.90
515.99	34845.90
516.16	34476.09
516.33	34342.68
516.51	34653.97
516.68	34188.21
516.85	34249.06
517.03	34476.09
517.20	35178.25
517.37	34799.08
517.54	35629.98
517.72	35482.52
517.89	35147.82
518.06	35496.56
518.24	35538.69
518.41	35426.35
518.58	35789.13
518.75	35414.65
518.93	36004.46
519.10	36142.55
519.27	36271.28
519.45	36292.35
519.62	36362.56
519.79	36374.27
519.96	36966.42
520.14	36898.55
520.31	36617.68
520.48	36898.55
520.65	36898.55
520.83	36917.27
521.00	36781.52
521.17	36879.82
521.34	37275.37
521.52	37624.11
521.69	37317.50
521.86	37516.45
522.03	38047.75
522.20	37727.10
522.38	37631.13
522.55	38043.07
522.72	37694.33
522.89	37834.76
523.07	37570.28
523.24	37549.21
523.41	38232.65
523.58	37944.76
523.75	38181.16
523.92	38401.17
524.10	38534.58
524.27	38740.55
524.44	38597.77
524.61	38670.33
524.78	38679.69
524.96	38845.87
525.13	39428.66
525.30	39250.78
525.47	39260.15
525.64	38763.95
525.81	38944.17
525.98	38990.98
526.16	38211.59
526.33	38583.73
526.50	38642.24
526.67	38698.42
526.84	38302.87
527.01	38543.94
527.18	39124.40
527.36	39161.84
527.53	39922.52
527.70	39693.15
527.87	39412.28
528.04	39931.88
528.21	39695.49
528.38	39915.50
528.55	40271.26
528.72	39817.19
528.89	40322.75
529.07	39964.65
529.24	39494.20
529.41	40175.30
529.58	40032.52
529.75	40023.16
529.92	40025.50
530.09	40247.85
530.26	40507.65
530.43	40552.12
530.60	40538.08
530.77	40650.42
530.94	40767.45
531.11	40657.45
531.28	40535.74
531.46	40931.29
531.63	40898.52
531.80	40718.30
531.97	41137.26
532.14	40765.11
532.31	40486.59
532.48	41029.59
532.65	40917.25
532.82	41008.53
532.99	41481.31
533.16	41345.56
533.33	41268.33
533.50	41486.00
533.67	41338.54
533.84	41418.12
534.01	41205.13
534.18	41312.80
534.35	41811.33
534.52	41570.25
534.69	41837.08
534.86	41460.25
535.03	41797.29
535.20	42188.16
535.37	42246.67
535.54	41968.15
535.71	42007.94
535.88	42204.54
536.05	42068.79
536.22	42450.30
536.38	42260.71
536.55	42103.90
536.72	41621.75
536.89	41928.36
537.06	42017.30
537.23	42780.31
537.40	42171.77
537.57	42672.65
537.74	42590.73
537.91	42831.80
538.08	42801.38
538.25	42454.98
538.42	42548.60
538.59	42693.71
538.75	42494.77
538.92	42698.39
539.09	42728.82
539.26	42581.37
539.43	42564.98
539.60	42895.00
539.77	42644.56
539.94	42829.46
540.11	42492.43
540.28	42731.16
540.44	43302.25
540.61	42897.34
540.78	42925.42
540.95	43185.22
541.12	42719.46
541.29	43150.12
541.46	42595.41
541.62	43461.41
541.79	43164.16
541.96	43246.08
542.13	43201.61
542.30	43494.18
542.47	43344.38
542.63	43454.39
542.80	43679.08
542.97	43999.73
543.14	44013.77
543.31	43936.54
543.48	43929.51
543.64	44446.77
543.81	44196.34
543.98	44170.59
544.15	43976.33
544.32	44666.78
544.48	44474.86
544.65	44428.05
544.82	44254.85
544.99	44112.08
545.16	44254.85
545.32	43948.24
545.49	44582.52
545.66	44081.65
545.83	44694.87
546.00	44346.13
546.16	44334.43
546.33	44114.42
546.50	44296.98
546.67	44428.05
546.83	44030.16
547.00	44500.61
547.17	44336.77
547.34	44364.85
547.50	44725.30
547.67	44788.49
547.84	44561.46
548.00	44938.29
548.17	45127.87
548.34	44917.22
548.51	45261.28
548.67	45460.23
548.84	45141.91
549.01	45076.38
549.18	45677.90
549.34	44980.42
549.51	45256.60
549.68	45469.59
549.84	45464.91
550.01	45617.04
550.18	44713.59
550.34	45071.70
550.51	45406.39
550.68	45162.98
550.84	44725.30
551.01	45460.23
551.18	45420.44
551.34	45656.83
551.51	45605.34
551.68	45787.90
551.84	45654.49
552.01	45572.57
552.18	45237.87
552.34	45230.85
552.51	45886.20
552.68	45155.96
552.84	46101.53
553.01	45542.14
553.18	45652.15
553.34	45773.86
553.51	46136.64
553.67	45846.41
553.84	46284.09
554.01	46164.73
554.17	45944.72
554.34	45982.16
554.51	45914.29
554.67	45886.20
554.84	45914.29
555.00	46227.92
555.17	46075.79
555.33	46157.70
555.50	46012.59
555.67	46265.37
555.83	46424.53
556.00	46621.13
556.16	46068.76
556.33	46803.69
556.50	46454.95
556.66	46068.76
556.83	46178.77
556.99	46157.70
557.16	46902.00
557.32	46700.71
557.49	46433.89
557.65	46368.35
557.82	46279.41
557.98	46410.48
558.15	46752.20
558.32	46527.51
558.48	46279.41
558.65	46375.37
558.81	46134.30
558.98	46279.41
559.14	46450.27
559.31	46569.64
559.47	46192.81
559.64	46731.14
559.80	47117.32
559.97	46590.70
560.13	46609.43
560.30	46726.46
560.46	46681.98
560.63	46731.14
560.79	46763.90
560.96	47019.02
561.12	46728.80
561.29	46775.61
561.45	46480.70
561.61	46801.35
561.78	47016.68
561.94	46679.64
562.11	46794.33
562.27	46508.79
562.44	46766.24
562.60	47267.12
562.77	47356.06
562.93	46827.10
563.10	47084.56
563.26	46366.01
563.42	47084.56
563.59	46791.99
563.75	46876.25
563.92	47547.98
564.08	46869.23
564.24	47222.65
564.41	47180.52
564.57	46658.58
564.74	46972.21
564.90	46813.05
565.07	47297.55
565.23	47014.34
565.39	47051.79
565.56	47058.81
565.72	46604.75
565.88	47143.07
566.05	46850.50
566.21	47145.41
566.38	46909.02
566.54	46925.40
566.70	47264.78
566.87	47512.88
567.03	47517.56
567.19	48135.46
567.36	47140.73
567.52	47232.01
567.68	47168.82
567.85	47159.45
568.01	46965.19
568.17	47264.78
568.34	46768.58
568.50	47358.40
568.66	47199.24
568.83	47180.52
568.99	46937.10
569.15	47157.11
569.32	47182.86
569.48	47100.94
569.64	47234.35
569.81	47470.75
569.97	46885.61
570.13	46960.51
570.30	46976.89
570.46	46918.38
570.62	47122.01
570.78	47161.79
570.95	46892.63
571.11	47440.32
571.27	47433.30
571.43	47309.25
571.60	47037.75
571.76	47196.90
571.92	46969.87
572.09	47084.56
572.25	47061.15
572.41	47086.90
572.57	47538.62
572.74	47697.78
572.90	47323.29
573.06	47295.21
573.22	47365.42
573.38	47253.08
573.55	47679.05
573.71	47358.40
573.87	47344.36
574.03	47047.11
574.20	47051.79
574.36	47164.14
574.52	47423.93
574.68	47271.80
574.84	47159.45
575.01	47283.50
575.17	47224.99
575.33	47114.98
575.49	46951.15
575.65	47632.24
575.82	47295.21
575.98	47526.92
576.14	47807.78
576.30	46962.85
576.46	47547.98
576.62	47409.89
576.79	47459.04
576.95	47023.70
577.11	47325.63
577.27	47185.20
577.43	47260.10
577.59	47325.63
577.75	47150.09
577.92	46803.69
578.08	47164.14
578.24	47063.49
578.40	46857.52
578.56	47559.69
578.72	47543.30
578.88	47665.01
579.04	47278.82
579.21	47339.68
579.37	47407.55
579.53	47229.67
579.69	46939.44
579.85	47421.59
580.01	47571.39
580.17	47625.22
580.33	47622.88
580.49	47641.60
580.65	47433.30
580.82	47419.25
580.98	47578.41
581.14	47054.13
581.30	47386.49
581.46	47601.82
581.62	47739.91
581.78	47232.01
581.94	47798.42
582.10	47339.68
582.26	47360.74
582.42	47196.90
582.58	47533.94
582.74	47559.69
582.90	47742.25
583.06	47756.29
583.22	47695.44
583.38	47578.41
583.54	47620.54
583.70	47426.28
583.86	47578.41
584.02	46911.36
584.18	47391.17
584.34	47590.11
584.50	47573.73
584.66	47105.62
584.82	47381.80
584.98	47412.23
585.14	47915.45
585.30	47203.92
585.46	47356.06
585.62	47253.08
585.78	47480.11
585.94	46955.83
586.10	47260.10
586.26	46885.61
586.42	47599.47
586.58	47501.17
586.74	47480.11
586.90	47086.90
587.06	47672.03
587.22	47828.85
587.38	47522.24
587.54	47597.13
587.70	47845.23
587.86	47667.35
588.02	47571.39
588.18	47580.75
588.34	47519.90
588.49	46902.00
588.65	47292.86
588.81	46789.65
588.97	46937.10
589.13	47367.76
589.29	46646.88
589.45	46976.89
589.61	47473.09
589.77	47615.86
589.93	47243.71
590.08	47798.42
590.24	47892.04
590.40	47697.78
590.56	47674.37
590.72	47622.88
590.88	47192.22
591.04	47327.97
591.20	47498.83
591.35	47739.91
591.51	47833.53
591.67	47477.77
591.83	47636.92
591.99	47529.26
592.15	47433.30
592.31	47810.12
592.46	47648.63
592.62	47330.31
592.78	47599.47
592.94	47636.92
593.10	47545.64
593.26	47695.44
593.41	47117.32
593.57	47559.69
593.73	47484.79
593.89	47077.54
594.05	47592.45
594.20	47650.97
594.36	47480.11
594.52	47089.24
594.68	47332.65
594.84	47655.65
594.99	47971.62
595.15	47758.63
595.31	47775.02
595.47	47969.28
595.62	47749.27
595.78	47938.85
595.94	47941.19
596.10	48154.18
596.25	47922.47
596.41	47690.76
596.57	47538.62
596.73	47824.17
596.88	47669.69
597.04	47426.28
597.20	47735.23
597.36	47330.31
597.51	47894.38
597.67	47849.91
597.83	48069.92
597.99	47421.59
598.14	47543.30
598.30	47274.14
598.46	47765.65
598.61	47608.84
598.77	47679.05
598.93	47540.96
599.09	47714.16
599.24	47828.85
599.40	47789.06
599.56	48069.92
599.71	47779.70
599.87	47878.00
600.03	47751.61
600.18	47803.10
600.34	47585.43
600.50	47819.49
600.65	47327.97
600.81	47964.60
600.97	47913.11
601.12	48147.16
601.28	47859.27
601.44	47899.06
601.59	47674.37
601.75	47241.37
601.91	47681.39
602.06	47398.19
602.22	47959.92
602.37	47660.33
602.53	47559.69
602.69	48128.44
602.84	47653.31
603.00	47767.99
603.16	47753.95
603.31	47257.76
603.47	47414.57
603.62	47353.72
603.78	47725.86
603.94	47611.18
604.09	47913.11
604.25	47791.40
604.40	47407.55
604.56	47533.94
604.71	47608.84
604.87	47318.61
605.03	47913.11
605.18	47299.89
605.34	47735.23
605.49	47278.82
605.65	47437.98
605.80	47353.72
605.96	47679.05
606.12	47716.50
606.27	47744.59
606.43	47526.92
606.58	47580.75
606.74	46782.63
606.89	47459.04
607.05	47412.23
607.20	47473.09
607.36	47428.62
607.51	47632.24
607.67	47540.96
607.82	47262.44
607.98	47728.20
608.13	47224.99
608.29	47246.05
608.44	46906.68
608.60	46782.63
608.75	46969.87
608.91	46885.61
609.06	47175.84
609.22	47454.36
609.37	47086.90
609.53	47615.86
609.68	47070.51
609.84	47199.24
609.99	47267.12
610.15	46880.93
610.30	47021.36
610.46	46602.41
610.61	46644.54
610.76	47129.03
610.92	47323.29
611.07	46653.90
611.23	46871.57
611.38	47044.77
611.54	47061.15
611.69	46909.02
611.84	46878.59
612.00	46642.20
612.15	46639.86
612.31	46951.15
612.46	46951.15
612.62	46845.82
612.77	47159.45
612.92	46801.35
613.08	46717.09
613.23	46649.22
613.39	45982.16
613.54	46588.36
613.69	46356.65
613.85	46525.17
614.00	46871.57
614.15	47075.19
614.31	46366.01
614.46	46815.40
614.62	46253.67
614.77	46326.22
614.92	46436.23
615.08	46316.86
615.23	46363.67
615.38	46370.69
615.54	46309.84
615.69	45911.95
615.84	46153.02
616.00	46131.96
616.15	46405.80
616.30	45855.78
616.46	45841.73
616.61	46073.45
616.76	45958.76
616.92	46469.00
617.07	45984.51
617.22	45942.38
617.37	45855.78
617.53	46167.07
617.68	46363.67
617.83	46344.95
617.99	45949.40
618.14	45975.14
618.29	45900.25
618.45	45530.44
618.60	45600.66
618.75	45666.19
618.90	46007.91
619.06	45677.90
619.21	45853.44
619.36	46120.26
619.51	46052.38
619.67	45670.87
619.82	45815.99
619.97	45918.97
620.12	45722.37
620.28	45230.85
620.43	45247.24
620.58	45759.81
620.73	45619.38
620.89	45219.15
621.04	45457.88
621.19	45738.75
621.34	45263.62
621.49	45207.45
621.65	45310.43
621.80	45282.34
621.95	44767.43
622.10	45801.94
622.25	45127.87
622.41	45422.78
622.56	44872.75
622.71	45354.90
622.86	44971.05
623.01	45027.23
623.16	45518.74
623.32	45198.09
623.47	45375.97
623.62	45507.04
623.77	45205.11
623.92	45162.98
624.07	44914.88
624.23	44491.24
624.38	44594.23
624.53	44669.12
624.68	45296.39
624.83	45083.40
624.98	44861.05
625.13	44692.53
625.29	44804.88
625.44	45106.80
625.59	44451.45
625.74	44287.62
625.89	44376.56
626.04	44041.86
626.19	44327.41
626.34	44381.24
626.49	44154.21
626.65	44573.16
626.80	44804.88
626.95	44432.73
627.10	44130.80
627.25	44280.60
627.40	44186.97
627.55	43782.06
627.70	43480.13
627.85	43863.98
628.00	43702.48
628.15	44390.60
628.30	44128.46
628.45	44224.42
628.60	43903.77
628.76	43997.39
628.91	43700.14
629.06	43519.92
629.21	43749.29
629.36	43690.78
629.51	43545.67
629.66	43374.81
629.81	43871.00
629.96	43835.89
630.11	43849.94
630.26	43363.11
630.41	43845.26
630.56	43339.70
630.71	43838.23
630.86	43697.80
631.01	43285.87
631.16	44144.84
631.31	43409.92
631.46	43021.39
631.61	43409.92
631.76	43274.16
631.91	43545.67
632.06	43751.63
632.21	43377.15
632.36	43863.98
632.51	43037.77
632.66	42967.55
632.81	43009.68
632.96	43285.87
633.10	43110.33
633.25	43037.77
633.40	42501.79
633.55	43320.98
633.70	43344.38
633.85	42792.01
634.00	43262.46
634.15	43105.65
634.30	42703.07
634.45	42827.12
634.60	42836.48
634.75	43084.58
634.90	43215.65
635.05	42838.83
635.19	42705.41
635.34	43063.52
635.49	42623.50
635.64	42440.93
635.79	42932.45
635.94	42663.28
636.09	42777.97
636.24	43255.44
636.39	42803.72
636.53	42607.11
636.68	42206.88
636.83	42363.70
636.98	42796.70
637.13	42562.64
637.28	42738.18
637.43	42415.19
637.57	42948.83
637.72	42890.32
637.87	42527.53
638.02	42593.07
638.17	42274.76
638.32	41827.71
638.46	42260.71
638.61	42148.37
638.76	41769.20
638.91	42513.49
639.06	42073.47
639.20	41993.89
639.35	42316.89
639.50	42155.39
639.65	42045.38
639.80	42061.77
639.94	41951.76
640.09	41656.85
640.24	41888.57
640.39	41621.75
640.54	41799.63
640.68	41993.89
640.83	41698.98
640.98	41820.69
641.13	41808.99
641.27	42024.32
641.42	41436.84
641.57	41289.39
641.72	41855.80
641.86	41167.68
642.01	41696.64
642.16	41464.93
642.31	41048.32
642.45	41675.58
642.60	41031.93
642.75	41167.68
642.90	41511.74
643.04	41221.52
643.19	41322.16
643.34	41717.71
643.48	41373.65
643.63	40872.78
643.78	40725.32
643.93	40919.59
644.07	40472.54
644.22	40879.80
644.37	40968.74
644.51	40634.04
644.66	41132.57
644.81	41443.87
644.95	41109.17
645.10	41237.90
645.25	40762.77
645.39	41205.13
645.54	41219.17
645.69	40774.47
645.83	40753.41
645.98	41053.00
646.13	40982.78
646.27	40957.03
646.42	40678.51
646.57	40694.89
646.71	40308.71
646.86	40652.76
647.00	40257.21
647.15	40823.62
647.30	40699.58
647.44	40718.30
647.59	40828.30
647.74	40591.91
647.88	40552.12
648.03	40676.17
648.17	40119.12
648.32	40121.46
648.47	40484.25
648.61	40023.16
648.76	40163.59
648.90	40535.74
649.05	40418.71
649.20	39997.41
649.34	40098.06
649.49	39880.39
649.63	40112.10
649.78	40039.54
649.92	40126.14
650.07	40172.96
650.21	40158.91
650.36	40161.25
650.51	39810.17
650.65	40294.66
650.80	40187.00
650.94	40627.02
651.09	40048.91
651.23	39803.15
651.38	40175.30
651.52	39697.83
651.67	39803.15
651.81	39751.66
651.96	39367.81
652.10	39758.68
652.25	39597.18
652.39	39723.57
652.54	39735.27
652.68	39711.87
652.83	39807.83
652.97	39573.78
653.12	39730.59
653.26	39791.45
653.41	39442.71
653.55	39449.73
653.70	39440.37
653.84	39639.31
653.99	39552.71
654.13	39299.94
654.27	39449.73
654.42	39241.42
654.56	39297.59
654.71	39117.37
654.85	39290.57
655.00	38979.28
655.14	39426.32
655.29	38909.07
655.43	38536.92
655.57	38953.54
655.72	38410.53
655.86	38749.91
656.01	38424.57
656.15	38068.81
656.30	38646.93
656.44	38581.39
656.58	38607.14
656.73	38384.79
656.87	38312.23
657.01	38422.23
657.16	38059.45
657.30	38663.31
657.45	38328.61
657.59	38433.94
657.73	38394.15
657.88	38405.85
658.02	38471.39
658.16	38307.55
658.31	38773.31
658.45	39288.23
658.60	38497.13
658.74	38639.90
658.88	38754.59
659.03	37963.49
659.17	38345.00
659.31	37581.98
659.46	37996.26
659.60	38078.18
659.74	37982.21
659.89	37694.33
660.03	38078.18
660.17	37713.05
660.32	38132.01
660.46	38113.28
660.60	37970.51
660.74	37759.86
660.89	37560.92
661.03	37649.86
661.17	37338.57
661.32	37013.23
661.46	37675.60
661.60	37216.86
661.74	37820.72
661.89	37394.74
662.03	37596.03
662.17	37289.42
662.31	36884.50
662.46	37340.91
662.60	37172.39
662.74	37296.44
662.88	37361.97
663.03	37207.50
663.17	37083.45
663.31	36900.89
663.45	36833.01
663.60	36699.60
663.74	36617.68
663.88	36507.68
664.02	36573.21
664.17	36664.49
664.31	36226.81
664.45	36210.43
664.59	36474.91
664.73	36322.77
664.88	36610.66
665.02	36095.74
665.16	36758.11
665.30	36568.53
665.44	35889.77
665.59	35597.21
665.73	35913.18
665.87	35784.45
666.01	35716.58
666.15	35550.40
666.29	35379.54
666.44	36107.44
666.58	35974.03
666.72	36168.30
666.86	35950.63
667.00	35864.03
667.14	35295.28
667.28	35501.25
667.43	35512.95
667.57	35255.49
667.71	35419.33
667.85	35274.21
667.99	35566.78
668.13	34986.33
668.27	35089.31
668.41	34714.83
668.56	34450.35
668.70	35276.55
668.84	34553.33
668.98	34890.37
669.12	34558.01
669.26	34611.84
669.40	34822.49
669.54	34078.20
669.68	34424.60
669.82	34405.88
669.96	34293.53
670.10	33811.38
670.25	34342.68
670.39	34431.62
670.53	34125.01
670.67	34162.46
670.81	33972.88
670.95	33729.46
671.09	33930.75
671.23	34075.86
671.37	33677.97
671.51	33425.19
671.65	33404.13
671.79	33816.06
671.93	33736.48
672.07	33373.70
672.21	33813.72
672.35	33057.73
672.49	33345.61
672.63	33336.25
672.77	33060.07
672.91	33031.98
673.05	33198.16
673.19	32753.46
673.33	33001.55
673.47	32636.43
673.61	32708.99
673.75	32622.39
673.89	31948.31
674.03	32634.09
674.17	32233.86
674.31	32229.18
674.45	32432.80
674.59	32549.83
674.73	32397.70
674.87	32369.61
675.01	32147.26
675.15	32329.82
675.29	32032.57
675.43	31704.90
675.56	32027.89
675.70	31688.51
675.84	31601.91
675.98	30836.56
676.12	31496.59
676.26	31564.46
676.40	31576.17
676.54	31213.38
676.68	31550.42
676.82	30693.79
676.96	31061.25
677.10	30728.89
677.23	31037.84
677.37	30869.33
677.51	30466.75
677.65	30548.67
677.79	30223.34
677.93	30426.96
678.07	30302.92
678.21	29537.56
678.34	29832.47
678.48	29970.56
678.62	29535.22
678.76	29883.96
678.90	29385.43
679.04	29633.52
679.18	29429.90
679.31	29450.96
679.45	29394.79
679.59	28701.99
679.73	29039.03
679.87	28814.34
680.00	28872.85
680.14	29081.16
680.28	28734.76
680.42	28854.12
680.56	28804.97
680.70	28402.40
680.83	28222.18
680.97	28297.08
681.11	28177.71
681.25	27758.75
681.39	27697.90
681.52	28100.47
681.66	28175.37
681.80	27924.93
681.94	27744.71
682.07	27882.80
682.21	27351.50
682.35	27637.05
682.49	27847.69
682.62	27536.40
682.76	27374.91
682.90	26998.08
683.04	27257.88
683.17	27049.57
683.31	26548.70
683.45	27037.87
683.59	26616.57
683.72	26569.76
683.86	26293.58
684.00	26190.59
684.13	26398.90
684.27	26469.12
684.41	26431.67
684.55	26061.87
684.68	25802.07
684.82	25947.18
684.96	25858.24
685.09	25792.70
685.23	25495.46
685.37	25603.12
685.50	25507.16
685.64	25504.82
685.78	25472.05
685.91	25132.67
686.05	25371.41
686.19	25060.12
686.32	25060.12
686.46	24615.41
686.60	24065.39
686.73	24308.80
686.87	23915.59
687.01	23590.26
687.14	23606.64
687.28	23747.08
687.42	23597.28
687.55	23716.65
687.69	23796.23
687.82	23323.44
687.96	23323.44
688.10	23508.34
688.23	23709.63
688.37	23475.57
688.50	23374.93
688.64	23192.37
688.78	23262.58
688.91	22827.24
689.05	22927.89
689.18	22576.81
689.32	22410.63
689.46	22820.22
689.59	23367.91
689.73	22775.75
689.86	22328.71
690.00	22473.82
690.13	22677.45
690.27	22611.92
690.41	22443.40
690.54	22024.44
690.68	22045.51
690.81	21947.20
690.95	22148.49
691.08	21582.08
691.22	21738.90
691.35	21776.34
691.49	21766.98
691.62	21589.10
691.76	21949.54
691.89	21514.20
692.03	21233.34
692.16	21106.95
692.30	20989.92
692.43	20835.45
692.57	20900.98
692.70	20688.00
692.84	20849.49
692.97	20713.74
693.11	20425.86
693.24	20404.79
693.38	20278.40
693.51	20203.50
693.65	20589.69
693.78	20264.36
693.92	19971.79
694.05	20395.43
694.19	19847.74
694.32	19878.17
694.45	19723.69
694.59	19978.81
694.72	20009.24
694.86	19536.45
694.99	19133.88
695.13	19374.95
695.26	19358.57
695.39	18759.39
695.53	19496.66
695.66	19215.80
695.80	19161.97
695.93	19019.19
696.07	18719.60
696.20	18911.53
696.33	18775.78
696.47	18724.29
696.60	18555.77
696.73	18780.46
696.87	18459.81
697.00	18710.24
697.14	18525.34
697.27	18373.21
697.40	18794.50
697.54	18120.43
697.67	17996.38
697.80	17877.01
697.94	17462.74
698.07	17689.77
698.21	17635.94
698.34	17654.66
698.47	17458.06
698.61	17298.90
698.74	17355.07
698.87	17549.34
699.01	17085.91
699.14	16905.69
699.27	17069.53
699.40	17076.55
699.54	16882.28
699.67	16414.18
699.80	17097.61
699.94	16554.61
700.07	16463.33
700.20	16575.67
700.34	16528.86
700.47	16187.14
700.60	16374.39
700.73	16297.15
700.87	16287.79
701.00	16079.48
701.13	16137.99
701.26	15983.52
701.40	16006.92
701.53	15737.76
701.66	15541.16
701.79	15566.90
701.93	15440.51
702.06	15513.07
702.19	15470.94
702.32	15382.00
702.46	15360.94
702.59	15150.29
702.72	15398.38
702.85	15304.76
702.99	15103.48
703.12	15267.31
703.25	15075.39
703.38	15185.40
703.51	14747.72
703.65	14911.55
703.78	14759.42
703.91	14834.32
704.04	14464.51
704.17	14593.24
704.31	14501.96
704.44	14242.16
704.57	14134.50
704.70	13991.72
704.83	13998.74
704.96	14043.21
705.10	14326.42
705.23	14303.01
>>>>>End Processed Spectral Data<<<<<
