SpectraSuite Data File
++++++++++++++++++++++++++++++++++++
Date: Fri Oct 25 10:47:02 EDT 2013
User: price-jones
Dark Spectrum Present: No
Reference Spectrum Present: No
Number of Sampled Component Spectra: 1
Spectrometers: USB2+H05261
Integration Time (usec): 100000 (USB2+H05261)
Spectra Averaged: 1 (USB2+H05261)
Boxcar Smoothing: 0 (USB2+H05261)
Correct for Electrical Dark: No (USB2+H05261)
Strobe/Lamp Enabled: No (USB2+H05261)
Correct for Detector Non-linearity: No (USB2+H05261)
Correct for Stray Light: No (USB2+H05261)
Number of Pixels in Processed Spectrum: 2048
>>>>>Begin Processed Spectral Data<<<<<
365.73	98.30
365.92	98.30
366.12	98.30
366.32	79.58
366.52	23.41
366.72	23.41
366.91	49.15
367.11	0.00
367.31	44.47
367.51	2.34
367.70	0.00
367.90	39.79
368.10	81.92
368.30	49.15
368.49	98.30
368.69	35.11
368.89	30.43
369.09	7.02
369.28	145.11
369.48	102.98
369.68	119.37
369.87	74.90
370.07	58.51
370.27	149.79
370.47	156.82
370.66	330.02
370.86	390.87
371.06	404.91
371.25	458.74
371.45	449.38
371.65	444.70
371.84	470.45
372.04	484.49
372.24	498.53
372.44	447.04
372.63	582.79
372.83	526.62
373.03	428.32
373.22	470.45
373.42	524.28
373.62	458.74
373.81	552.37
374.01	634.29
374.21	554.71
374.40	578.11
374.60	624.92
374.79	535.98
374.99	606.20
375.19	566.41
375.38	650.67
375.58	547.69
375.78	578.11
375.97	674.07
376.17	603.86
376.37	580.45
376.56	573.43
376.76	587.47
376.95	587.47
377.15	592.16
377.35	592.16
377.54	608.54
377.74	641.31
377.93	641.31
378.13	631.94
378.33	622.58
378.52	683.44
378.72	660.03
378.91	629.60
379.11	697.48
379.31	709.18
379.50	613.22
379.70	713.86
379.89	645.99
380.09	627.26
380.28	620.24
380.48	617.90
380.68	711.52
380.87	702.16
381.07	674.07
381.26	718.54
381.46	650.67
381.65	718.54
381.85	723.23
382.04	655.35
382.24	702.16
382.43	636.63
382.63	653.01
382.83	643.65
383.02	660.03
383.22	781.74
383.41	695.14
383.61	713.86
383.80	786.42
384.00	772.38
384.19	699.82
384.39	758.33
384.58	793.44
384.78	744.29
384.97	805.14
385.17	737.27
385.36	805.14
385.56	772.38
385.75	744.29
385.95	734.93
386.14	840.25
386.34	805.14
386.53	816.85
386.72	807.48
386.92	791.10
387.11	823.87
387.31	828.55
387.50	891.74
387.70	798.12
387.89	842.59
388.09	910.47
388.28	767.70
388.48	798.12
388.67	898.77
388.86	901.11
389.06	903.45
389.25	973.66
389.45	973.66
389.64	903.45
389.84	868.34
390.03	924.51
390.22	964.30
390.42	1004.09
390.61	971.32
390.81	933.87
391.00	1020.47
391.19	954.94
391.39	898.77
391.58	985.37
391.78	931.53
391.97	987.71
392.16	1039.20
392.36	985.37
392.55	1011.11
392.75	978.34
392.94	985.37
393.13	997.07
393.33	992.39
393.52	997.07
393.71	1069.62
393.91	1057.92
394.10	1015.79
394.29	1050.90
394.49	1116.44
394.68	1128.14
394.88	1139.84
395.07	1153.88
395.26	1196.01
395.46	1221.76
395.65	1172.61
395.84	1184.31
396.04	1210.06
396.23	1170.27
396.42	1156.22
396.62	1174.95
396.81	1151.54
397.00	1097.71
397.19	1151.54
397.39	1144.52
397.58	1240.48
397.77	1270.91
397.97	1284.95
398.16	1355.17
398.35	1327.08
398.55	1306.02
398.74	1324.74
398.93	1362.19
399.12	1439.43
399.32	1378.58
399.51	1357.51
399.70	1453.47
399.90	1376.24
400.09	1441.77
400.28	1462.83
400.47	1404.32
400.67	1465.18
400.86	1481.56
401.05	1413.68
401.24	1579.86
401.44	1516.67
401.63	1542.41
401.82	1554.12
402.01	1542.41
402.21	1591.56
402.40	1493.26
402.59	1614.97
402.78	1537.73
402.97	1617.31
403.17	1626.67
403.36	1589.22
403.55	1678.16
403.74	1722.63
403.93	1781.15
404.13	1806.89
404.32	1713.27
404.51	1729.66
404.70	1762.42
404.89	1760.08
405.09	1884.13
405.28	1741.36
405.47	1825.62
405.66	1874.77
405.85	1825.62
406.05	1839.66
406.24	1834.98
406.43	1820.94
406.62	1952.01
406.81	1867.75
407.00	1919.24
407.20	1874.77
407.39	1912.22
407.58	2010.52
407.77	1975.41
407.96	2001.16
408.15	1982.43
408.34	2038.61
408.54	2094.78
408.73	1940.30
408.92	2104.14
409.11	2127.55
409.30	2204.78
409.49	2071.37
409.68	2139.25
409.87	2059.67
410.07	2174.36
410.26	2209.47
410.45	2228.19
410.64	2200.10
410.83	2275.00
411.02	2223.51
411.21	2359.26
411.40	2289.04
411.59	2359.26
411.78	2319.47
411.98	2328.83
412.17	2368.62
412.36	2410.75
412.55	2452.88
412.74	2499.69
412.93	2450.54
413.12	2431.82
413.31	2555.86
413.50	2534.80
413.69	2588.63
413.88	2722.04
414.07	2668.21
414.26	2740.77
414.45	2736.09
414.64	2679.91
414.83	2616.72
415.02	2722.04
415.22	2691.62
415.41	2677.57
415.60	2888.22
415.79	2871.84
415.98	3070.78
416.17	3005.25
416.36	2942.05
416.55	3000.57
416.74	3007.59
416.93	3042.70
417.12	2949.08
417.31	3035.67
417.50	3141.00
417.69	3248.66
417.88	3183.13
418.07	3056.74
418.26	3138.66
418.45	3119.93
418.64	3351.65
418.83	3318.88
419.02	3234.62
419.21	3361.01
419.39	3220.58
419.58	3311.86
419.77	3211.22
419.96	3323.56
420.15	3358.67
420.34	3400.80
420.53	3337.60
420.72	3506.12
420.91	3515.48
421.10	3510.80
421.29	3566.98
421.48	3485.06
421.67	3492.08
421.86	3574.00
422.05	3426.54
422.24	3478.04
422.43	3473.36
422.61	3578.68
422.80	3576.34
422.99	3674.64
423.18	3644.21
423.37	3756.56
423.56	3676.98
423.75	3698.05
423.94	3735.50
424.13	3389.10
424.32	3492.08
424.50	3744.86
424.69	3653.58
424.88	3686.34
425.07	3508.46
425.26	3595.06
425.45	3655.92
425.64	3709.75
425.83	3655.92
426.01	3707.41
426.20	3623.15
426.39	3648.90
426.58	3714.43
426.77	3662.94
426.96	3606.77
427.15	3735.50
427.33	3838.48
427.52	3801.03
427.71	3789.33
427.90	3955.51
428.09	3796.35
428.28	3868.91
428.46	3749.54
428.65	3779.97
428.84	3974.23
429.03	3955.51
429.22	3719.11
429.40	3936.78
429.59	3857.20
429.78	3698.05
429.97	3765.92
430.16	3810.39
430.34	4042.11
430.53	3943.80
430.72	3878.27
430.91	3983.59
431.10	4065.51
431.28	4311.27
431.47	4318.29
431.66	4362.76
431.85	4208.28
432.03	4248.07
432.22	4334.67
432.41	4222.33
432.60	4344.03
432.79	4351.06
432.97	4334.67
433.16	4571.07
433.35	4231.69
433.54	4442.34
433.72	4552.34
433.91	4339.35
434.10	4362.76
434.28	4486.81
434.47	4421.27
434.66	4568.73
434.85	4456.38
435.03	4528.94
435.22	4678.73
435.41	4741.93
435.59	4634.26
435.78	4744.27
435.97	4755.97
436.16	4856.61
436.34	4718.52
436.53	4702.14
436.72	4786.40
436.90	4627.24
437.09	4657.67
437.28	4622.56
437.46	4732.56
437.65	4842.57
437.84	4877.68
438.02	4863.63
438.21	4716.18
438.40	4950.23
438.58	4990.02
438.77	4947.89
438.96	4968.96
439.14	5228.76
439.33	5226.42
439.52	5203.01
439.70	5289.61
439.89	5385.57
440.08	5305.99
440.26	5411.32
440.45	5352.81
440.63	5453.45
440.82	5628.99
441.01	5579.84
441.19	5643.03
441.38	5575.16
441.57	5598.56
441.75	5643.03
441.94	5930.92
442.12	5825.59
442.31	5944.96
442.50	5654.73
442.68	5891.13
442.87	5753.04
443.05	5832.62
443.24	5909.85
443.43	5893.47
443.61	5916.87
443.80	6136.88
443.98	5877.09
444.17	5675.80
444.35	6076.03
444.54	6022.20
444.73	6132.20
444.91	5898.15
445.10	5940.28
445.28	5926.24
445.47	5860.70
445.65	5888.79
445.84	6036.24
446.02	6136.88
446.21	6066.67
446.39	6054.97
446.58	6108.80
446.77	6087.73
446.95	6022.20
447.14	6104.12
447.32	6221.14
447.51	6193.06
447.69	6015.18
447.88	6111.14
448.06	6190.72
448.25	6092.41
448.43	6260.93
448.62	6090.07
448.80	6246.89
448.99	6319.45
449.17	6211.78
449.36	6076.03
449.54	6347.53
449.73	6424.77
449.91	6464.56
450.10	6494.99
450.28	6583.93
450.46	6623.72
450.65	6562.86
450.83	6544.14
451.02	6567.54
451.20	6651.80
451.39	6792.23
451.57	6621.38
451.76	6752.45
451.94	6619.04
452.13	6773.51
452.31	6923.30
452.49	6672.87
452.68	6661.16
452.86	6757.13
453.05	6806.28
453.23	6736.06
453.42	6677.55
453.60	6731.38
453.78	6839.05
453.97	6806.28
454.15	6881.18
454.34	6857.77
454.52	6895.22
454.70	6958.41
454.89	6843.73
455.07	7026.29
455.26	7026.29
455.44	7145.66
455.62	7045.01
455.81	7164.38
455.99	7330.56
456.17	7304.81
456.36	7337.58
456.54	7398.43
456.73	7494.40
456.91	7452.27
457.09	7300.13
457.28	7674.62
457.46	7412.48
457.64	7489.71
457.83	7618.44
458.01	7288.43
458.19	7536.52
458.38	7573.97
458.56	7744.83
458.74	7559.93
458.93	7964.84
459.11	7754.19
459.29	7878.24
459.48	7756.54
459.66	7637.17
459.84	7721.43
460.03	7927.39
460.21	7819.73
460.39	7887.61
460.57	7735.47
460.76	7878.24
460.94	7861.86
461.12	8018.68
461.31	8079.53
461.49	8023.36
461.67	7995.27
461.85	8226.98
462.04	7932.08
462.22	8596.79
462.40	8287.84
462.59	8280.82
462.77	8053.78
462.95	8334.65
463.13	8182.51
463.32	8187.19
463.50	8276.13
463.68	8203.58
463.86	8198.90
464.05	8411.89
464.23	8238.69
464.41	8645.94
464.59	8231.66
464.78	8631.90
464.96	8435.29
465.14	8486.78
465.32	8695.09
465.50	8753.60
465.69	8603.81
465.87	8489.12
466.05	8538.27
466.23	8610.83
466.41	8659.98
466.60	8657.64
466.78	8259.75
466.96	8664.66
467.14	8606.15
467.32	8549.98
467.51	8802.75
467.69	8659.98
467.87	8594.45
468.05	8910.42
468.23	8641.26
468.41	8713.81
468.60	8842.54
468.78	8917.44
468.96	8929.14
469.14	8844.88
469.32	8950.21
469.50	8826.16
469.69	8966.59
469.87	9015.74
470.05	9198.31
470.23	9029.79
470.41	9071.92
470.59	9441.72
470.77	9165.54
470.95	9261.50
471.14	9577.47
471.32	9240.44
471.50	9666.41
471.68	9380.87
471.86	9607.90
472.04	9476.83
472.22	9846.63
472.40	9530.66
472.58	9692.16
472.77	9706.20
472.95	9774.08
473.13	10162.61
473.31	10106.43
473.49	9820.89
473.67	9820.89
473.85	9980.04
474.03	10071.33
474.21	10298.36
474.39	10178.99
474.57	10455.17
474.75	10356.87
474.93	10462.19
475.12	10635.39
475.30	10120.48
475.48	10363.89
475.66	10532.41
475.84	10466.88
476.02	10689.23
476.20	10513.69
476.38	10855.40
476.56	10986.47
476.74	10878.81
476.92	10963.07
477.10	11206.48
477.28	11066.05
477.46	11061.37
477.64	11314.15
477.82	11592.67
478.00	11772.89
478.18	11534.16
478.36	11999.93
478.54	11693.32
478.72	11815.02
478.90	12161.42
479.08	12201.21
479.26	12072.48
479.44	12463.35
479.62	12540.59
479.80	12297.17
479.98	12638.89
480.16	12851.88
480.34	12589.74
480.52	12788.69
480.70	12727.83
480.88	12610.81
481.06	12863.58
481.24	12945.50
481.41	13327.01
481.59	13680.43
481.77	13462.76
481.95	13359.78
482.13	13699.16
482.31	13516.59
482.49	13771.71
482.67	13834.91
482.85	13872.36
483.03	13980.02
483.21	14125.13
483.39	14415.36
483.57	14654.09
483.74	14691.54
483.92	14647.07
484.10	14403.66
484.28	15030.92
484.46	14853.04
484.64	15297.74
484.82	15101.14
485.00	15173.69
485.18	15391.36
485.35	15449.88
485.53	15335.19
485.71	15222.84
485.89	15648.82
486.07	15508.39
486.25	15796.28
486.43	16011.60
486.61	16152.04
486.78	16470.35
486.96	16229.27
487.14	16622.48
487.32	16695.04
487.50	16826.11
487.68	16996.97
487.85	17081.23
488.03	17603.17
488.21	17420.61
488.39	17273.15
488.57	17392.52
488.75	17748.28
488.92	17998.72
489.10	17837.22
489.28	18466.83
489.46	18312.35
489.64	18347.46
489.81	18501.93
489.99	18932.59
490.17	18916.21
490.35	18995.79
490.53	18927.91
490.70	19257.93
490.88	19066.00
491.06	19468.58
491.24	19597.31
491.41	19658.16
491.59	19391.34
491.77	19800.93
491.95	19655.82
492.13	19976.47
492.30	20552.24
492.48	20355.64
492.66	20524.16
492.84	20442.24
493.01	20971.20
493.19	20556.93
493.37	20891.62
493.54	20966.52
493.72	21219.30
493.90	20900.98
494.08	21530.59
494.25	21612.51
494.43	21631.23
494.61	21834.86
494.79	21834.86
494.96	21961.25
495.14	22242.11
495.32	22022.10
495.49	22408.29
495.67	22293.60
495.85	22567.45
496.02	22757.03
496.20	22991.08
496.38	23080.02
496.55	23117.47
496.73	23786.86
496.91	23255.56
497.09	23515.36
497.26	23506.00
497.44	23807.93
497.62	23817.29
497.79	24058.37
497.97	23592.60
498.14	24051.34
498.32	24343.91
498.50	24098.16
498.67	24442.21
498.85	24386.04
499.03	24627.12
499.20	24678.61
499.38	24683.29
499.56	24797.98
499.73	24947.77
499.91	25247.36
500.08	25532.90
500.26	25001.60
500.44	25287.15
500.61	25200.55
500.79	25123.31
500.97	25671.00
501.14	25425.24
501.32	25436.94
501.49	25785.68
501.67	25771.64
501.84	26059.52
502.02	25851.22
502.20	26120.38
502.37	26256.13
502.55	26410.60
502.72	26487.84
502.90	26600.19
503.07	26417.63
503.25	26387.20
503.43	26733.60
503.60	26644.66
503.78	26675.09
503.95	27077.66
504.13	27056.59
504.30	27068.30
504.48	27089.36
504.65	27440.44
504.83	27875.78
505.01	27505.98
505.18	27578.53
505.36	27866.42
505.53	27807.90
505.71	28388.36
505.88	28105.15
506.06	27838.33
506.23	27852.38
506.41	28126.22
506.58	28336.87
506.76	28046.64
506.93	28481.98
507.11	28512.41
507.28	28638.80
507.46	28444.53
507.63	28510.07
507.81	28755.82
507.98	28627.09
508.16	28989.88
508.33	29032.00
508.50	29041.37
508.68	28877.53
508.85	29263.72
509.03	29303.51
509.20	29436.92
509.38	29570.33
509.55	29827.79
509.73	29708.42
509.90	29668.63
510.08	29333.93
510.25	29509.47
510.42	29809.06
510.60	30405.90
510.77	29968.22
510.95	30213.98
511.12	30204.61
511.30	30031.41
511.47	30611.87
511.64	30345.05
511.82	30389.52
511.99	30616.55
512.17	30710.17
512.34	30616.55
512.51	30822.51
512.69	30953.58
512.86	31129.12
513.04	30845.92
513.21	31168.91
513.38	31285.94
513.56	31519.99
513.73	31021.46
513.90	31531.70
514.08	31049.55
514.25	31772.77
514.43	31810.22
514.60	31665.11
514.77	32044.27
514.95	31845.33
515.12	32086.40
515.29	32198.75
515.47	32407.06
515.64	32538.13
515.81	32334.50
515.99	32355.57
516.16	32673.88
516.33	31962.36
516.51	32610.68
516.68	32020.87
516.85	32123.85
517.03	31999.80
517.20	32498.34
517.37	32521.74
517.54	32767.50
517.72	32886.87
517.89	32900.91
518.06	32474.93
518.24	32636.43
518.41	32861.12
518.58	33053.05
518.75	32971.13
518.93	33322.21
519.10	33057.73
519.27	33333.91
519.45	33413.49
519.62	33778.61
519.79	33881.60
519.96	33647.54
520.14	34045.43
520.31	33823.08
520.48	33876.91
520.65	34122.67
520.83	34232.68
521.00	34174.16
521.17	34309.91
521.34	34401.19
521.52	34335.66
521.69	34071.18
521.86	34850.58
522.03	34614.18
522.20	34651.63
522.38	35086.97
522.55	34632.91
522.72	34574.39
522.89	34738.23
523.07	35061.22
523.24	35147.82
523.41	35206.34
523.58	35000.37
523.75	35592.53
523.92	35267.19
524.10	35934.24
524.27	35538.69
524.44	35728.28
524.61	35393.58
524.78	35906.16
524.96	36175.32
525.13	36140.21
525.30	36306.39
525.47	36144.89
525.64	36154.26
525.81	36016.16
525.98	35943.61
526.16	35990.42
526.33	35866.37
526.50	36332.14
526.67	35646.36
526.84	36189.36
527.01	36053.61
527.18	36746.41
527.36	36666.83
527.53	36708.96
527.70	37060.04
527.87	36765.14
528.04	36678.54
528.21	37069.40
528.38	37198.13
528.55	36830.67
528.72	36788.54
528.89	37383.04
529.07	37284.73
529.24	37043.66
529.41	36940.68
529.58	36938.33
529.75	36987.49
529.92	37280.05
530.09	37343.25
530.26	37347.93
530.43	37411.12
530.60	37310.48
530.77	37607.73
530.94	37666.24
531.11	37448.57
531.28	37305.80
531.46	37851.14
531.63	37888.59
531.80	37607.73
531.97	37958.81
532.14	37834.76
532.31	37731.78
532.48	38108.60
532.65	38279.46
532.82	37804.33
532.99	38347.34
533.16	37846.46
533.33	38466.70
533.50	38328.61
533.67	38614.16
533.84	38422.23
534.01	38614.16
534.18	38284.14
534.35	38567.35
534.52	38979.28
534.69	38518.20
534.86	38747.57
535.03	38447.98
535.20	38892.68
535.37	39023.75
535.54	39232.06
535.71	38520.54
535.88	39131.42
536.05	39234.40
536.22	39152.48
536.38	39398.24
536.55	39604.20
536.72	39026.09
536.89	39047.16
537.06	38990.98
537.23	39391.22
537.40	39110.35
537.57	39651.02
537.74	39421.64
537.91	39768.04
538.08	39665.06
538.25	39730.59
538.42	39536.33
538.59	40046.57
538.75	39658.04
538.92	39583.14
539.09	40018.48
539.26	40079.33
539.43	39555.05
539.60	39969.33
539.77	39798.47
539.94	40027.84
540.11	39695.49
540.28	40163.59
540.44	39871.03
540.61	39896.77
540.78	39854.64
540.95	40039.54
541.12	39861.66
541.29	40404.67
541.46	40034.86
541.62	40187.00
541.79	40385.94
541.96	40364.88
542.13	40769.79
542.30	40582.55
542.47	40643.40
542.63	40758.09
542.80	40856.39
542.97	40886.82
543.14	41085.76
543.31	41287.05
543.48	41448.55
543.64	41371.31
543.81	41535.15
543.98	41565.57
544.15	41106.83
544.32	41476.63
544.48	41495.36
544.65	41216.83
544.82	41635.79
544.99	41132.57
545.16	41441.53
545.32	41263.64
545.49	41469.61
545.66	41759.84
545.83	41713.03
546.00	41921.34
546.16	41649.83
546.33	41223.86
546.50	41188.75
546.67	41766.86
546.83	41453.23
547.00	41537.49
547.17	41942.40
547.34	41776.22
547.50	41745.80
547.67	42658.60
547.84	41926.02
548.00	42417.53
548.17	42309.86
548.34	42014.96
548.51	42511.15
548.67	42445.62
548.84	42071.13
549.01	42148.37
549.18	42003.25
549.34	42422.21
549.51	42424.55
549.68	42499.45
549.84	42370.72
550.01	42895.00
550.18	42382.42
550.34	42539.24
550.51	42246.67
550.68	42611.79
550.84	41729.41
551.01	42597.75
551.18	42827.12
551.34	42679.67
551.51	42925.42
551.68	42726.48
551.84	42941.81
552.01	42618.81
552.18	43077.56
552.34	42424.55
552.51	43330.34
552.68	42782.65
552.84	43262.46
553.01	43189.91
553.18	43239.06
553.34	43377.15
553.51	43007.34
553.67	42932.45
553.84	43592.48
554.01	43482.47
554.17	43161.82
554.34	43440.34
554.51	43356.08
554.67	43548.01
554.84	43339.70
555.00	43632.27
555.17	43365.45
555.33	43594.82
555.50	42951.17
555.67	43391.19
555.83	43519.92
556.00	43622.90
556.16	44371.88
556.33	43950.58
556.50	43793.76
556.66	43552.69
556.83	43456.73
556.99	44194.00
557.16	44119.10
557.32	44006.75
557.49	44140.16
557.65	43571.41
557.82	43667.37
557.98	43819.51
558.15	43700.14
558.32	43566.73
558.48	43817.17
558.65	43723.55
558.81	44201.02
558.98	43688.44
559.14	43810.15
559.31	44088.67
559.47	44048.88
559.64	44112.08
559.80	44009.09
559.97	44126.12
560.13	43983.35
560.30	43730.57
560.46	44399.96
560.63	44053.56
560.79	44339.11
560.96	44257.19
561.12	43814.83
561.29	44076.97
561.45	44201.02
561.61	43999.73
561.78	44231.44
561.94	44294.64
562.11	44360.17
562.27	44425.71
562.44	44034.84
562.60	44465.50
562.77	44715.93
562.93	44615.29
563.10	44266.55
563.26	44334.43
563.42	44383.58
563.59	44137.82
563.75	44376.56
563.92	44505.29
564.08	44615.29
564.24	44521.67
564.41	44755.72
564.57	44252.51
564.74	44643.38
564.90	44797.85
565.07	44704.23
565.23	44573.16
565.39	44643.38
565.56	44701.89
565.72	44240.81
565.88	44479.54
566.05	44753.38
566.21	44495.92
566.38	44652.74
566.54	44652.74
566.70	44535.71
566.87	44816.58
567.03	44257.19
567.19	44961.69
567.36	44589.55
567.52	44957.01
567.68	44509.97
567.85	44629.34
568.01	44713.59
568.17	44650.40
568.34	44837.64
568.50	44811.90
568.66	44524.01
568.83	44788.49
568.99	44313.36
569.15	44793.17
569.32	45001.48
569.48	44399.96
569.64	44676.15
569.81	44898.50
569.97	44893.82
570.13	44933.60
570.30	44524.01
570.46	44388.26
570.62	44189.31
570.78	44961.69
570.95	44725.30
571.11	44657.42
571.27	44619.97
571.43	44898.50
571.60	44947.65
571.76	44652.74
571.92	44926.58
572.09	44533.37
572.25	45120.85
572.41	44615.29
572.57	44406.98
572.74	45284.68
572.90	45256.60
573.06	44566.14
573.22	44708.91
573.38	45017.86
573.55	44755.72
573.71	44863.39
573.87	45181.70
574.03	45368.94
574.20	45083.40
574.36	44971.05
574.52	45553.85
574.68	44772.11
574.84	45289.37
575.01	44769.77
575.17	44793.17
575.33	44992.12
575.49	44790.83
575.65	45490.65
575.82	45226.17
575.98	44818.92
576.14	45368.94
576.30	45090.42
576.46	45074.04
576.62	44498.26
576.79	45064.67
576.95	45146.59
577.11	45305.75
577.27	45338.52
577.43	45422.78
577.59	44858.71
577.75	44779.13
577.92	45151.27
578.08	44734.66
578.24	44699.55
578.40	45076.38
578.56	44669.12
578.72	45095.10
578.88	45301.07
579.04	45448.52
579.21	45162.98
579.37	44765.09
579.53	44994.46
579.69	44884.45
579.85	45425.12
580.01	45324.47
580.17	45212.13
580.33	45244.90
580.49	45567.89
580.65	45485.97
580.82	45167.66
580.98	45097.44
581.14	44875.09
581.30	45240.21
581.46	45411.07
581.62	45698.96
581.78	45109.14
581.94	45485.97
582.10	45291.71
582.26	45223.83
582.42	44856.37
582.58	45181.70
582.74	44987.44
582.90	44823.60
583.06	45319.79
583.22	44856.37
583.38	45158.30
583.54	45247.24
583.70	45006.16
583.86	45109.14
584.02	44889.13
584.18	45116.17
584.34	45684.92
584.50	45244.90
584.66	45350.22
584.82	45113.83
584.98	45820.67
585.14	45504.70
585.30	45558.53
585.46	45181.70
585.62	44999.14
585.78	45308.09
585.94	44975.73
586.10	44751.04
586.26	44865.73
586.42	45453.20
586.58	45364.26
586.74	45352.56
586.90	45284.68
587.06	45106.80
587.22	45167.66
587.38	45401.71
587.54	45504.70
587.70	45762.15
587.86	45450.86
588.02	45558.53
588.18	45696.62
588.34	44893.82
588.49	45195.74
588.65	44732.32
588.81	44839.98
588.97	45038.93
589.13	44762.75
589.29	44985.10
589.45	45193.40
589.61	45579.59
589.77	45420.44
589.93	45350.22
590.08	45385.33
590.24	45696.62
590.40	45528.10
590.56	45773.86
590.72	45382.99
590.88	45436.82
591.04	45530.44
591.20	45565.55
591.35	45846.41
591.51	46347.29
591.67	45434.48
591.83	45652.15
591.99	45008.50
592.15	45275.32
592.31	45448.52
592.46	45179.36
592.62	45560.87
592.78	45357.24
592.94	45577.25
593.10	45600.66
593.26	45174.68
593.41	45698.96
593.57	45280.00
593.73	45553.85
593.89	45855.78
594.05	45212.13
594.20	45588.95
594.36	45900.25
594.52	45808.96
594.68	45570.23
594.84	44994.46
594.99	45947.06
595.15	45588.95
595.31	45799.60
595.47	45478.95
595.62	45467.25
595.78	45862.80
595.94	45462.57
596.10	45961.10
596.25	45820.67
596.41	45478.95
596.57	45303.41
596.73	45581.93
596.88	45235.53
597.04	45420.44
597.20	45593.64
597.36	45928.33
597.51	45766.84
597.67	45851.09
597.83	46038.34
597.99	45925.99
598.14	45591.30
598.30	45240.21
598.46	45617.04
598.61	45846.41
598.77	45514.06
598.93	45705.98
599.09	45284.68
599.24	46068.76
599.40	45958.76
599.56	45909.61
599.71	45933.01
599.87	45956.42
600.03	45420.44
600.18	46040.68
600.34	45558.53
600.50	45694.28
600.65	45446.18
600.81	45956.42
600.97	45691.94
601.12	45827.69
601.28	45490.65
601.44	45460.23
601.59	45720.02
601.75	44903.18
601.91	45525.76
602.06	45705.98
602.22	45680.24
602.37	45591.30
602.53	45312.77
602.69	46005.57
602.84	45247.24
603.00	45542.14
603.16	45734.07
603.31	45783.22
603.47	45083.40
603.62	45443.84
603.78	45888.54
603.94	45869.82
604.09	45925.99
604.25	45713.00
604.40	45729.39
604.56	45324.47
604.71	45174.68
604.87	45270.64
605.03	45724.71
605.18	45146.59
605.34	45331.50
605.49	45371.28
605.65	45682.58
605.80	45104.46
605.96	45717.68
606.12	45464.91
606.27	45839.39
606.43	45408.73
606.58	45752.79
606.74	45254.26
606.89	44835.30
607.05	45560.87
607.20	45488.31
607.36	45680.24
607.51	45703.64
607.67	45556.19
607.82	45748.11
607.98	45375.97
608.13	45392.35
608.29	44989.78
608.44	45272.98
608.60	44634.02
608.75	45071.70
608.91	45202.77
609.06	45265.96
609.22	45794.92
609.37	44788.49
609.53	45628.74
609.68	45401.71
609.84	44893.82
609.99	44776.79
610.15	45350.22
610.30	45167.66
610.46	44966.37
610.61	45184.04
610.76	44952.33
610.92	45289.37
611.07	44949.99
611.23	44734.66
611.38	45249.58
611.54	44987.44
611.69	44690.19
611.84	44652.74
612.00	45069.36
612.15	44858.71
612.31	45130.21
612.46	44898.50
612.62	45155.96
612.77	44615.29
612.92	44896.16
613.08	44680.83
613.23	44570.82
613.39	44832.96
613.54	44376.56
613.69	44765.09
613.85	44673.81
614.00	44650.40
614.15	44554.44
614.31	44650.40
614.46	45036.59
614.62	44830.62
614.77	44727.64
614.92	44765.09
615.08	44531.03
615.23	44315.70
615.38	44477.20
615.54	44278.25
615.69	44306.34
615.84	44069.95
616.00	44257.19
616.15	44521.67
616.30	44385.92
616.46	44205.70
616.61	43538.65
616.76	44034.84
616.92	44011.43
617.07	44067.61
617.22	44004.41
617.37	43833.55
617.53	44325.07
617.68	43798.44
617.83	44346.13
617.99	44294.64
618.14	44409.32
618.29	44053.56
618.45	43901.43
618.60	43697.80
618.75	44224.42
618.90	43849.94
619.06	44105.06
619.21	43810.15
619.36	44252.51
619.51	43983.35
619.67	43613.54
619.82	43629.93
619.97	44254.85
620.12	43627.59
620.28	43470.77
620.43	43629.93
620.58	43990.37
620.73	43608.86
620.89	43536.30
621.04	43576.09
621.19	43878.02
621.34	43150.12
621.49	43482.47
621.65	43138.41
621.80	43882.70
621.95	43278.85
622.10	43393.53
622.25	43384.17
622.41	43002.66
622.56	43152.46
622.71	43629.93
622.86	43650.99
623.01	43515.24
623.16	43854.62
623.32	42913.72
623.47	43351.40
623.62	43697.80
623.77	42873.93
623.92	43557.37
624.07	42902.02
624.23	43365.45
624.38	43299.91
624.53	42902.02
624.68	43470.77
624.83	43086.92
624.98	42960.53
625.13	42993.30
625.29	43124.37
625.44	42913.72
625.59	42799.04
625.74	42522.85
625.89	42564.98
626.04	42153.05
626.19	42923.08
626.34	42742.86
626.49	42642.22
626.65	42824.78
626.80	43070.54
626.95	42906.70
627.10	42490.09
627.25	42405.83
627.40	42508.81
627.55	42101.56
627.70	41605.36
627.85	42087.51
628.00	42174.11
628.15	42644.56
628.30	42469.02
628.45	42480.72
628.60	41977.51
628.76	42466.68
628.91	42454.98
629.06	42803.72
629.21	42419.87
629.36	41951.76
629.51	41968.15
629.66	41876.86
629.81	42244.33
629.96	41954.10
630.11	42314.55
630.26	42373.06
630.41	42148.37
630.56	42286.46
630.71	42115.60
630.86	41986.87
631.01	42003.25
631.16	42286.46
631.31	41858.14
631.46	41926.02
631.61	41790.27
631.76	42007.94
631.91	41581.96
632.06	41986.87
632.21	41890.91
632.36	41902.61
632.51	41478.97
632.66	41834.74
632.81	41141.94
632.96	41397.06
633.10	41305.77
633.25	41315.14
633.40	41294.07
633.55	41687.28
633.70	41490.68
633.85	41495.36
634.00	41706.01
634.15	41184.07
634.30	41111.51
634.45	41605.36
634.60	40980.44
634.75	40999.16
634.90	41443.87
635.05	41315.14
635.19	40982.78
635.34	41600.68
635.49	41638.13
635.64	41085.76
635.79	40980.44
635.94	40896.18
636.09	40704.26
636.24	40320.41
636.39	40425.73
636.53	40662.13
636.68	40437.44
636.83	40704.26
636.98	41118.53
637.13	40753.41
637.28	40940.65
637.43	40407.01
637.57	40678.51
637.72	40657.45
637.87	40617.66
638.02	40617.66
638.17	40605.95
638.32	40055.93
638.46	40069.97
638.61	40526.38
638.76	39849.96
638.91	40587.23
639.06	40069.97
639.20	40458.50
639.35	40402.33
639.50	40591.91
639.65	40385.94
639.80	40500.63
639.94	40378.92
640.09	40760.43
640.24	40463.18
640.39	40596.59
640.54	40065.29
640.68	40196.36
640.83	40168.27
640.98	39686.12
641.13	40175.30
641.27	40399.99
641.42	40505.31
641.57	40112.10
641.72	40381.26
641.86	39674.42
642.01	39194.61
642.16	39770.38
642.31	39358.45
642.45	39824.22
642.60	39618.25
642.75	39454.41
642.90	39639.31
643.04	39541.01
643.19	40004.44
643.34	39990.39
643.48	39899.11
643.63	39721.23
643.78	39480.16
643.93	39409.94
644.07	39431.01
644.22	39423.98
644.37	39189.93
644.51	39510.58
644.66	39335.04
644.81	39578.46
644.95	39370.15
645.10	39255.46
645.25	39805.49
645.39	39421.64
645.54	40273.60
645.69	39299.94
645.83	39061.20
645.98	39175.89
646.13	39353.77
646.27	39562.08
646.42	38998.01
646.57	39253.12
646.71	39201.63
646.86	39311.64
647.00	39257.81
647.15	39321.00
647.30	39791.45
647.44	39309.30
647.59	39166.52
647.74	38625.86
647.88	38588.41
648.03	38902.04
648.17	38719.48
648.32	38827.15
648.47	38822.47
648.61	38660.97
648.76	39236.74
648.90	38768.63
649.05	39157.16
649.20	38920.77
649.34	38836.51
649.49	38494.79
649.63	38518.20
649.78	38600.12
649.92	38607.14
650.07	38829.49
650.21	38724.16
650.36	38501.81
650.51	38637.56
650.65	39042.48
650.80	38953.54
650.94	38656.29
651.09	38309.89
651.23	38382.45
651.38	38408.19
651.52	38373.08
651.67	38775.66
651.81	38234.99
651.96	37947.11
652.10	38312.23
652.25	37951.79
652.39	37996.26
652.54	38295.85
652.68	38288.82
652.83	38387.13
652.97	38258.40
653.12	38188.18
653.26	38422.23
653.41	38494.79
653.55	38515.86
653.70	38050.09
653.84	37876.89
653.99	37977.53
654.13	38298.19
654.27	37928.38
654.42	37947.11
654.56	38183.50
654.71	37993.92
654.85	37563.26
655.00	38178.82
655.14	37659.22
655.29	37373.67
655.43	37411.12
655.57	37572.62
655.72	37612.41
655.86	37027.28
656.01	37659.22
656.15	37092.81
656.30	37263.67
656.44	37015.57
656.58	36737.05
656.73	37256.65
656.87	37668.58
657.01	37464.96
657.16	36940.68
657.30	37036.64
657.45	37062.38
657.59	36966.42
657.73	36889.18
657.88	37102.17
658.02	37050.68
658.16	37153.66
658.31	36830.67
658.45	37050.68
658.60	37041.32
658.74	37099.83
658.88	36914.93
659.03	36556.83
659.17	36648.11
659.31	36563.85
659.46	36582.57
659.60	36500.65
659.74	36458.52
659.89	37165.37
660.03	36568.53
660.17	36566.19
660.32	36545.12
660.46	36697.26
660.60	36378.95
660.74	36547.47
660.89	36533.42
661.03	36402.35
661.17	35871.05
661.32	36034.89
661.46	35915.52
661.60	35894.46
661.74	36140.21
661.89	36142.55
662.03	36142.55
662.17	35618.27
662.31	35857.01
662.46	36182.34
662.60	35590.19
662.74	35922.54
662.88	36091.06
663.03	35920.20
663.17	35941.27
663.31	35267.19
663.45	35372.52
663.60	35346.77
663.74	35407.62
663.88	35246.13
664.02	35138.46
664.17	35424.01
664.31	34682.06
664.45	34925.47
664.59	35201.66
664.73	35269.53
664.88	35152.51
665.02	34885.68
665.16	34745.25
665.30	34822.49
665.44	34983.99
665.59	34338.00
665.73	34515.88
665.87	34181.18
666.01	34581.42
666.15	34209.27
666.29	34356.72
666.44	34377.79
666.58	34279.49
666.72	34401.19
666.86	34682.06
667.00	34747.59
667.14	34183.52
667.28	34363.75
667.43	33834.78
667.57	33699.03
667.71	33965.85
667.85	33996.28
667.99	34017.35
668.13	33591.37
668.27	33607.75
668.41	33727.12
668.56	33432.21
668.70	33266.03
668.84	33450.94
668.98	33120.92
669.12	33507.11
669.26	33563.28
669.40	33287.10
669.54	33270.72
669.68	33631.16
669.82	33390.08
669.96	33354.97
670.10	33022.62
670.25	33553.92
670.39	33490.73
670.53	33266.03
670.67	32711.33
670.81	33116.24
670.95	33050.70
671.09	33116.24
671.23	32765.16
671.37	32769.84
671.51	32559.19
671.65	32716.01
671.79	32608.34
671.93	32306.41
672.07	32554.51
672.21	32320.46
672.35	32023.21
672.49	32414.08
672.63	32627.07
672.77	32128.53
672.91	32095.77
673.05	31901.50
673.19	31501.27
673.33	31749.37
673.47	31557.44
673.61	31079.97
673.75	31023.80
673.89	31129.12
674.03	31075.29
674.17	31414.67
674.31	31365.52
674.45	31489.57
674.59	31314.03
674.73	30962.95
674.87	30960.61
675.01	31002.74
675.15	30876.35
675.29	31388.92
675.43	30862.30
675.56	30789.75
675.70	30731.23
675.84	30192.91
675.98	29731.83
676.12	30288.87
676.26	30068.86
676.40	30291.21
676.54	29879.28
676.68	29785.66
676.82	29340.96
676.96	29844.17
677.10	29607.78
677.23	29706.08
677.37	29759.91
677.51	29446.28
677.65	29699.06
677.79	29151.37
677.93	29095.20
678.07	28751.14
678.21	28924.34
678.34	29090.52
678.48	28760.50
678.62	28554.54
678.76	28561.56
678.90	28542.83
679.04	28900.94
679.18	28477.30
679.31	28343.89
679.45	28112.17
679.59	28205.80
679.73	28212.82
679.87	27578.53
680.00	28098.13
680.14	28088.77
680.28	27534.06
680.42	27510.66
680.56	27428.74
680.70	27414.69
680.83	27424.06
680.97	27290.65
681.11	27269.58
681.25	26986.38
681.39	27154.90
681.52	26927.86
681.66	26735.94
681.80	26820.20
681.94	26754.66
682.07	26691.47
682.21	26434.01
682.35	26628.27
682.49	26513.59
682.62	26265.49
682.76	26335.71
682.90	26464.44
683.04	26045.48
683.17	26012.71
683.31	26146.12
683.45	26078.25
683.59	26260.81
683.72	25689.72
683.86	25415.88
684.00	25390.13
684.13	25120.97
684.27	25666.31
684.41	25254.38
684.55	25291.83
684.68	25186.50
684.82	25076.50
684.96	24975.86
685.09	24683.29
685.23	24561.58
685.37	24776.91
685.50	24819.04
685.64	24428.17
685.78	24060.71
685.91	24596.69
686.05	24442.21
686.19	24240.93
686.32	24367.32
686.46	23660.48
686.60	23491.96
686.73	23648.77
686.87	23707.29
687.01	23175.98
687.14	23321.10
687.28	22885.76
687.42	23281.31
687.55	22920.87
687.69	23101.09
687.82	23094.07
687.96	23054.28
688.10	22668.09
688.23	22738.30
688.37	22462.12
688.50	22305.31
688.64	22742.99
688.78	22181.26
688.91	22338.07
689.05	22459.78
689.18	22199.98
689.32	21673.36
689.46	22097.00
689.59	22382.54
689.73	22026.78
689.86	21921.46
690.00	21443.99
690.13	21837.20
690.27	21504.84
690.41	21652.30
690.54	21460.37
690.68	21170.15
690.81	21240.36
690.95	21205.25
691.08	20985.24
691.22	21032.05
691.35	21135.04
691.49	21104.61
691.62	21057.80
691.76	21088.23
691.89	20816.72
692.03	20547.56
692.16	20173.08
692.30	20016.26
692.43	20311.17
692.57	20027.96
692.70	20058.39
692.84	20430.54
692.97	19878.17
693.11	19964.77
693.24	19697.95
693.38	19559.86
693.51	19737.74
693.65	19707.31
693.78	19599.65
693.92	19754.12
694.05	19648.80
694.19	19630.07
694.32	19726.04
694.45	19213.46
694.59	19215.80
694.72	18958.34
694.86	18754.71
694.99	18850.67
695.13	18972.38
695.26	18518.32
695.39	18616.62
695.53	18560.45
695.66	18281.92
695.80	18169.58
695.93	18176.60
696.07	18239.79
696.20	18087.66
696.33	18036.17
696.47	18256.18
696.60	18293.63
696.73	18295.97
696.87	17907.44
697.00	17834.88
697.14	18108.72
697.27	17673.39
697.40	17696.79
697.54	17324.65
697.67	17081.23
697.80	17341.03
697.94	17472.10
698.07	17184.21
698.21	17146.76
698.34	17097.61
698.47	17025.06
698.61	16669.30
698.74	16652.91
698.87	16720.79
699.01	16458.65
699.14	16325.24
699.27	16475.03
699.40	16248.00
699.54	16353.32
699.67	16168.42
699.80	16070.12
699.94	15967.13
700.07	16084.16
700.20	16161.40
700.34	16025.65
700.47	15880.53
700.60	16091.18
700.73	16058.42
700.87	15800.96
701.00	15740.10
701.13	15733.08
701.26	15688.61
701.40	15520.09
701.53	15442.85
701.66	15169.01
701.79	15082.41
701.93	15173.69
702.06	15213.48
702.19	15103.48
702.32	15117.52
702.46	14885.81
702.59	14780.48
702.72	14728.99
702.85	14806.23
702.99	14831.97
703.12	14862.40
703.25	14691.54
703.38	14736.01
703.51	14300.67
703.65	14445.79
703.78	14431.74
703.91	14148.54
704.04	14017.47
704.17	14207.05
704.31	13977.68
704.44	13909.80
704.57	13741.29
704.70	13451.06
704.83	13652.34
704.96	13741.29
705.10	13708.52
705.23	13795.12
>>>>>End Processed Spectral Data<<<<<
