SpectraSuite Data File
++++++++++++++++++++++++++++++++++++
Date: Fri Oct 25 11:33:22 EDT 2013
User: price-jones
Dark Spectrum Present: No
Reference Spectrum Present: No
Number of Sampled Component Spectra: 1
Spectrometers: USB2+H05261
Integration Time (usec): 100000 (USB2+H05261)
Spectra Averaged: 1 (USB2+H05261)
Boxcar Smoothing: 0 (USB2+H05261)
Correct for Electrical Dark: No (USB2+H05261)
Strobe/Lamp Enabled: No (USB2+H05261)
Correct for Detector Non-linearity: No (USB2+H05261)
Correct for Stray Light: No (USB2+H05261)
Number of Pixels in Processed Spectrum: 2048
>>>>>Begin Processed Spectral Data<<<<<
365.73	252.78
365.92	252.78
366.12	252.78
366.32	205.97
366.52	177.88
366.72	201.29
366.91	119.37
367.11	175.54
367.31	229.37
367.51	201.29
367.70	184.90
367.90	212.99
368.10	220.01
368.30	180.22
368.49	194.26
368.69	196.60
368.89	187.24
369.09	191.92
369.28	154.48
369.48	140.43
369.68	119.37
369.87	266.82
370.07	208.31
370.27	203.63
370.47	341.72
370.66	479.81
370.86	503.22
371.06	521.94
371.25	543.00
371.45	540.66
371.65	571.09
371.84	489.17
372.04	624.92
372.24	627.26
372.44	582.79
372.63	685.78
372.83	596.84
373.03	559.39
373.22	627.26
373.42	655.35
373.62	610.88
373.81	610.88
374.01	641.31
374.21	688.12
374.40	617.90
374.60	718.54
374.79	627.26
374.99	610.88
375.19	669.39
375.38	758.33
375.58	638.97
375.78	718.54
375.97	723.23
376.17	711.52
376.37	753.65
376.56	709.18
376.76	669.39
376.95	746.63
377.15	779.40
377.35	727.91
377.54	704.50
377.74	716.20
377.93	702.16
378.13	767.70
378.33	723.23
378.52	763.01
378.72	772.38
378.91	732.59
379.11	699.82
379.31	683.44
379.50	723.23
379.70	746.63
379.89	737.27
380.09	744.29
380.28	674.07
380.48	720.88
380.68	723.23
380.87	758.33
381.07	805.14
381.26	767.70
381.46	734.93
381.65	767.70
381.85	730.25
382.04	678.76
382.24	770.04
382.43	784.08
382.63	746.63
382.83	798.12
383.02	887.06
383.22	744.29
383.41	760.67
383.61	755.99
383.80	826.21
384.00	837.91
384.19	807.48
384.39	826.21
384.58	788.76
384.78	779.40
384.97	880.04
385.17	854.30
385.36	875.36
385.56	828.55
385.75	835.57
385.95	866.00
386.14	894.08
386.34	868.34
386.53	842.59
386.72	891.74
386.92	936.21
387.11	999.41
387.31	912.81
387.50	954.94
387.70	905.79
387.89	968.98
388.09	898.77
388.28	947.92
388.48	898.77
388.67	898.77
388.86	854.30
389.06	908.13
389.25	894.08
389.45	894.08
389.64	997.07
389.84	1060.26
390.03	903.45
390.22	924.51
390.42	924.51
390.61	940.90
390.81	987.71
391.00	990.05
391.19	985.37
391.39	1057.92
391.58	1055.58
391.78	952.60
391.97	1029.84
392.16	1008.77
392.36	1004.09
392.55	971.32
392.75	1006.43
392.94	992.39
393.13	1083.67
393.33	1083.67
393.52	1046.22
393.71	1151.54
393.91	1156.22
394.10	1074.31
394.29	1004.09
394.49	1046.22
394.68	1060.26
394.88	1102.39
395.07	1153.88
395.26	1078.99
395.46	1167.93
395.65	1174.95
395.84	1210.06
396.04	1214.74
396.23	1231.12
396.42	1203.04
396.62	1259.21
396.81	1294.32
397.00	1247.51
397.19	1268.57
397.39	1207.72
397.58	1263.89
397.77	1205.38
397.97	1200.69
398.16	1296.66
398.35	1224.10
398.55	1277.93
398.74	1369.21
398.93	1303.68
399.12	1336.45
399.32	1376.24
399.51	1352.83
399.70	1350.49
399.90	1259.21
400.09	1366.87
400.28	1394.96
400.47	1359.85
400.67	1497.94
400.86	1387.94
401.05	1453.47
401.24	1338.79
401.44	1451.13
401.63	1320.06
401.82	1425.39
402.01	1439.43
402.21	1495.60
402.40	1554.12
402.59	1516.67
402.78	1483.90
402.97	1432.41
403.17	1593.90
403.36	1544.75
403.55	1537.73
403.74	1558.80
403.93	1696.89
404.13	1619.65
404.32	1687.53
404.51	1633.69
404.70	1607.95
404.89	1554.12
405.09	1636.03
405.28	1715.61
405.47	1692.21
405.66	1760.08
405.85	1600.93
406.05	1696.89
406.24	1621.99
406.43	1689.87
406.62	1802.21
406.81	1804.55
407.00	1790.51
407.20	1809.23
407.39	1767.10
407.58	1827.96
407.77	1830.30
407.96	1952.01
408.15	1919.24
408.34	1916.90
408.54	1975.41
408.73	1874.77
408.92	1984.77
409.11	2050.31
409.30	2057.33
409.49	1996.48
409.68	2017.54
409.87	1973.07
410.07	2099.46
410.26	2017.54
410.45	2024.56
410.64	2015.20
410.83	2181.38
411.02	2207.13
411.21	2139.25
411.40	2183.72
411.59	2122.87
411.78	2120.53
411.98	2207.13
412.17	2328.83
412.36	2228.19
412.55	2293.72
412.74	2282.02
412.93	2380.32
413.12	2328.83
413.31	2347.56
413.50	2399.05
413.69	2438.84
413.88	2516.08
414.07	2452.88
414.26	2469.27
414.45	2619.06
414.64	2464.58
414.83	2572.25
415.02	2626.08
415.22	2628.42
415.41	2602.68
415.60	2665.87
415.79	2616.72
415.98	2876.52
416.17	2820.35
416.36	2644.81
416.55	2780.56
416.74	2787.58
416.93	2841.41
417.12	2794.60
417.31	2923.33
417.50	2972.48
417.69	2991.20
417.88	2984.18
418.07	2963.12
418.26	2925.67
418.45	3052.06
418.64	3110.57
418.83	3007.59
419.02	3108.23
419.21	3112.91
419.39	3059.08
419.58	3091.85
419.77	3082.49
419.96	3162.06
420.15	3260.37
420.34	3117.59
420.53	3197.17
420.72	3276.75
420.91	3241.64
421.10	3370.37
421.29	3353.99
421.48	3304.84
421.67	3283.77
421.86	3403.14
422.05	3363.35
422.24	3368.03
422.43	3419.52
422.61	3384.41
422.80	3442.93
422.99	3393.78
423.18	3379.73
423.37	3478.04
423.56	3321.22
423.75	3431.23
423.94	3398.46
424.13	3197.17
424.32	3215.90
424.50	3386.76
424.69	3410.16
424.88	3389.10
425.07	3410.16
425.26	3480.38
425.45	3499.10
425.64	3403.14
425.83	3501.44
426.01	3506.12
426.20	3559.95
426.39	3510.80
426.58	3424.20
426.77	3634.85
426.96	3639.53
427.15	3576.34
427.33	3660.60
427.52	3569.32
427.71	3609.11
427.90	3623.15
428.09	3803.37
428.28	3742.52
428.46	3630.17
428.65	3775.28
428.84	3728.47
429.03	3850.18
429.22	3859.54
429.40	3833.80
429.59	3819.75
429.78	3679.32
429.97	3712.09
430.16	3901.67
430.34	3847.84
430.53	3824.44
430.72	3894.65
430.91	3880.61
431.10	3772.94
431.28	4100.62
431.47	3913.38
431.66	4079.55
431.85	3815.07
432.03	4067.85
432.22	4011.68
432.41	4112.32
432.60	4065.51
432.79	4131.05
432.97	4177.86
433.16	4201.26
433.35	4042.11
433.54	4109.98
433.72	4238.71
433.91	4236.37
434.10	4344.03
434.28	4273.82
434.47	4147.43
434.66	4353.40
434.85	4313.61
435.03	4372.12
435.22	4404.89
435.41	4528.94
435.59	4365.10
435.78	4386.16
435.97	4376.80
436.16	4292.54
436.34	4449.36
436.53	4397.87
436.72	4402.55
436.90	4402.55
437.09	4503.19
437.28	4381.48
437.46	4496.17
437.65	4601.49
437.84	4578.09
438.02	4699.80
438.21	4638.94
438.40	4554.68
438.58	4779.37
438.77	4805.12
438.96	4748.95
439.14	4975.98
439.33	4936.19
439.52	4945.55
439.70	4802.78
439.89	5195.99
440.08	5111.73
440.26	4933.85
440.45	4891.72
440.63	5034.49
440.82	5214.71
441.01	5170.24
441.19	5238.12
441.38	5254.50
441.57	5242.80
441.75	5214.71
441.94	5547.07
442.12	5483.88
442.31	5575.16
442.50	5420.68
442.68	5441.75
442.87	5551.75
443.05	5408.98
443.24	5701.54
443.43	5549.41
443.61	5575.16
443.80	5806.87
443.98	5465.15
444.17	5387.91
444.35	5703.89
444.54	5619.63
444.73	5645.37
444.91	5675.80
445.10	5727.29
445.28	5603.24
445.47	5652.39
445.65	5701.54
445.84	5771.76
446.02	5811.55
446.21	5928.58
446.39	5832.62
446.58	5905.17
446.77	5694.52
446.95	5530.69
447.14	5846.66
447.32	5891.13
447.51	5776.44
447.69	5738.99
447.88	5795.17
448.06	5879.43
448.25	5699.20
448.43	6033.90
448.62	5748.36
448.80	5823.25
448.99	5994.11
449.17	6150.93
449.36	5830.27
449.54	5944.96
449.73	6024.54
449.91	6038.58
450.10	6026.88
450.28	6314.77
450.46	6061.99
450.65	6249.23
450.83	6202.42
451.02	6195.40
451.20	6354.55
451.39	6186.04
451.57	6326.47
451.76	6101.78
451.94	6324.13
452.13	6265.61
452.31	6335.83
452.49	6101.78
452.68	6214.12
452.86	6246.89
453.05	6478.60
453.23	6399.02
453.42	6396.68
453.60	6389.66
453.78	6464.56
453.97	6478.60
454.15	6363.92
454.34	6427.11
454.52	6597.97
454.70	6457.54
454.89	6815.64
455.07	6691.59
455.26	6677.55
455.44	6705.63
455.62	6703.29
455.81	6780.53
455.99	6715.00
456.17	7075.44
456.36	6642.44
456.54	6960.75
456.73	6909.26
456.91	7084.80
457.09	6890.54
457.28	7180.76
457.46	6944.37
457.64	7155.02
457.83	7138.63
458.01	7162.04
458.19	7243.96
458.38	6925.65
458.56	7255.66
458.74	7236.94
458.93	7122.25
459.11	7391.41
459.29	7283.75
459.48	7438.22
459.66	7225.23
459.84	7543.55
460.03	7456.95
460.21	7440.56
460.39	7468.65
460.57	7536.52
460.76	7510.78
460.94	7452.27
461.12	7414.82
461.31	7585.68
461.49	7606.74
461.67	7571.63
461.85	7801.01
462.04	7716.75
462.22	8198.90
462.40	7840.79
462.59	7815.05
462.77	7857.18
462.95	7824.41
463.13	7758.88
463.32	7964.84
463.50	7976.55
463.68	8131.02
463.86	7901.65
464.05	7875.90
464.23	8084.21
464.41	7962.50
464.59	7815.05
464.78	8119.32
464.96	8154.43
465.14	8074.85
465.32	8336.99
465.50	8149.75
465.69	8229.32
465.87	8252.73
466.05	8217.62
466.23	8109.96
466.41	8290.18
466.60	8465.72
466.78	8065.49
466.96	8226.98
467.14	8290.18
467.32	8552.32
467.51	8549.98
467.69	8393.16
467.87	8449.33
468.05	8568.70
468.23	8446.99
468.41	8397.84
468.60	8610.83
468.78	8657.64
468.96	8568.70
469.14	8475.08
469.32	8781.69
469.50	8615.51
469.69	8622.53
469.87	8777.01
470.05	8840.20
470.23	8734.88
470.41	8667.00
470.59	8891.70
470.77	8926.80
470.95	8791.05
471.14	9004.04
471.32	8805.10
471.50	9153.84
471.68	9263.84
471.86	9111.71
472.04	9320.01
472.22	9366.82
472.40	9153.84
472.58	9420.66
472.77	9444.06
472.95	9371.50
473.13	9856.00
473.31	9537.68
473.49	9554.07
473.67	9371.50
473.85	9579.81
474.03	9727.27
474.21	9865.36
474.39	9968.34
474.57	9987.07
474.75	10012.81
474.93	10221.12
475.12	9982.38
475.30	10113.45
475.48	10036.22
475.66	10139.20
475.84	10270.27
476.02	10532.41
476.20	10450.49
476.38	10593.26
476.56	10518.37
476.74	10747.74
476.92	10602.63
477.10	10548.79
477.28	10710.29
477.46	10759.44
477.64	10918.60
477.82	11204.14
478.00	11417.13
478.18	11089.46
478.36	11405.43
478.54	11431.18
478.72	11440.54
478.90	11648.85
479.08	11918.01
479.26	11669.91
479.44	11925.03
479.62	11920.35
479.80	12233.98
479.98	11920.35
480.16	12407.18
480.34	11892.26
480.52	12489.10
480.70	12386.12
480.88	12224.62
481.06	12423.56
481.24	12381.43
481.41	12819.11
481.59	12741.88
481.77	13107.00
481.95	13132.75
482.13	13214.66
482.31	12828.48
482.49	13523.62
482.67	13329.35
482.85	13355.10
483.03	13509.57
483.21	13757.67
483.39	13961.30
483.57	13727.24
483.74	13973.00
483.92	14150.88
484.10	14043.21
484.28	14501.96
484.46	14420.04
484.64	14831.97
484.82	14583.88
485.00	14867.08
485.18	15117.52
485.35	15445.20
485.53	14897.51
485.71	15152.63
485.89	15623.08
486.07	15349.23
486.25	15569.24
486.43	15770.53
486.61	15939.05
486.78	15901.60
486.96	15915.64
487.14	16095.86
487.32	16035.01
487.50	16472.69
487.68	16472.69
487.85	16952.50
488.03	16999.31
488.21	17177.19
488.39	17240.39
488.57	17128.04
488.75	17284.86
488.92	17490.82
489.10	17502.53
489.28	17586.79
489.46	17965.95
489.64	18050.21
489.81	18466.83
489.99	18539.38
490.17	18310.01
490.35	18766.42
490.53	18370.86
490.70	18970.04
490.88	18391.93
491.06	19117.50
491.24	19009.83
491.41	19222.82
491.59	19190.05
491.77	19218.14
491.95	19630.07
492.13	19711.99
492.30	19702.63
492.48	19913.28
492.66	19892.21
492.84	19885.19
493.01	20360.32
493.19	20301.81
493.37	20538.20
493.54	20739.49
493.72	20755.87
493.90	20727.78
494.08	20912.69
494.25	21074.18
494.43	21193.55
494.61	21640.59
494.79	21305.90
494.96	21261.43
495.14	21738.90
495.32	21776.34
495.49	22195.30
495.67	21811.45
495.85	22321.69
496.02	22157.85
496.20	22113.38
496.38	22497.23
496.55	22457.44
496.73	23035.55
496.91	23021.51
497.09	23173.64
497.26	23302.37
497.44	23173.64
497.62	23262.58
497.79	23779.84
497.97	23667.50
498.14	23758.78
498.32	23742.39
498.50	23885.17
498.67	24313.48
498.85	24334.55
499.03	24266.67
499.20	24011.56
499.38	24594.35
499.56	24599.03
499.73	24896.28
499.91	24748.82
500.08	24805.00
500.26	24996.92
500.44	24996.92
500.61	25226.29
500.79	24978.20
500.97	24992.24
501.14	25851.22
501.32	25458.01
501.49	25394.81
501.67	25605.46
501.84	25853.56
502.02	25663.97
502.20	25610.14
502.37	25640.57
502.55	25713.13
502.72	25989.31
502.90	25993.99
503.07	26136.76
503.25	26544.02
503.43	26518.27
503.60	26742.96
503.78	26911.48
503.95	26707.85
504.13	26448.05
504.30	26958.29
504.48	26789.77
504.65	26941.91
504.83	27250.86
505.01	27363.20
505.18	27271.92
505.36	27557.47
505.53	27480.23
505.71	27550.45
505.88	27498.95
506.06	27461.51
506.23	27931.95
506.41	27758.75
506.58	27655.77
506.76	28074.73
506.93	28500.70
507.11	28474.96
507.28	28430.49
507.46	28313.46
507.63	28364.95
507.81	28809.65
507.98	28486.66
508.16	28549.85
508.33	28842.42
508.50	28865.83
508.68	29008.60
508.85	29067.11
509.03	29111.58
509.20	29415.85
509.38	29572.67
509.55	29427.56
509.73	30015.03
509.90	29970.56
510.08	29504.79
510.25	29682.67
510.42	30000.99
510.60	30087.59
510.77	30171.85
510.95	30213.98
511.12	30417.60
511.30	30235.04
511.47	30293.55
511.64	30377.81
511.82	30684.42
511.99	30546.33
512.17	30738.26
512.34	30869.33
512.51	30665.70
512.69	31335.09
512.86	30686.76
513.04	31360.84
513.21	31079.97
513.38	31173.60
513.56	31882.78
513.73	31529.36
513.90	31239.13
514.08	31405.31
514.25	31791.50
514.43	31817.24
514.60	32123.85
514.77	32037.25
514.95	32140.24
515.12	31964.70
515.29	32327.48
515.47	32524.08
515.64	32451.53
515.81	32163.64
515.99	32737.07
516.16	32011.51
516.33	32449.19
516.51	32996.87
516.68	32697.28
516.85	32662.18
517.03	32781.54
517.20	32833.04
517.37	33195.82
517.54	33329.23
517.72	32692.60
517.89	33130.28
518.06	33565.62
518.24	33097.52
518.41	33336.25
518.58	33247.31
518.75	33563.28
518.93	33692.01
519.10	33413.49
519.27	33881.60
519.45	33509.45
519.62	33991.60
519.79	33883.94
519.96	33780.95
520.14	34045.43
520.31	33745.84
520.48	34595.46
520.65	33998.62
520.83	34476.09
521.00	34623.54
521.17	34462.05
521.34	34546.31
521.52	35089.31
521.69	35016.75
521.86	35379.54
522.03	35482.52
522.20	35133.78
522.38	35236.77
522.55	35002.71
522.72	35161.87
522.89	35288.26
523.07	35857.01
523.24	35482.52
523.41	35335.07
523.58	35435.71
523.75	36093.40
523.92	35580.82
524.10	35641.68
524.27	35859.35
524.44	35824.24
524.61	36329.80
524.78	36039.57
524.96	36112.13
525.13	36006.80
525.30	36507.68
525.47	36409.37
525.64	36421.08
525.81	36524.06
525.98	36739.39
526.16	36341.50
526.33	36367.24
526.50	37148.98
526.67	37060.04
526.84	36893.86
527.01	36587.25
527.18	36964.08
527.36	37148.98
527.53	37350.27
527.70	37507.08
527.87	37436.87
528.04	37102.17
528.21	37116.22
528.38	37617.09
528.55	37663.90
528.72	37794.97
528.89	37722.41
529.07	37792.63
529.24	37699.01
529.41	37956.47
529.58	37488.36
529.75	37965.83
529.92	38106.26
530.09	37544.53
530.26	37851.14
530.43	38199.88
530.60	37914.34
530.77	38162.43
530.94	38728.84
531.11	38092.22
531.28	38139.03
531.46	38295.85
531.63	38342.66
531.80	38314.57
531.97	38789.70
532.14	38398.83
532.31	38326.27
532.48	38852.89
532.65	39086.95
532.82	38569.69
532.99	38803.74
533.16	38579.05
533.33	38824.81
533.50	39234.40
533.67	39278.87
533.84	38684.37
534.01	39342.06
534.18	39283.55
534.35	39683.78
534.52	39751.66
534.69	39484.84
534.86	39880.39
535.03	39290.57
535.20	39721.23
535.37	39896.77
535.54	39751.66
535.71	39653.36
535.88	39922.52
536.05	39732.93
536.22	39882.73
536.38	40250.19
536.55	40039.54
536.72	39838.26
536.89	40009.12
537.06	40175.30
537.23	40273.60
537.40	40135.51
537.57	40540.42
537.74	39845.28
537.91	40580.21
538.08	40540.42
538.25	40137.85
538.42	40554.46
538.59	40278.28
538.75	40509.99
538.92	40507.65
539.09	41062.36
539.26	40884.48
539.43	40491.27
539.60	41048.32
539.77	40928.95
539.94	40935.97
540.11	40935.97
540.28	41085.76
540.44	40701.92
540.61	40954.69
540.78	41242.58
540.95	40942.99
541.12	41118.53
541.29	41308.11
541.46	41235.56
541.62	41755.16
541.79	41668.56
541.96	41408.76
542.13	41045.97
542.30	41219.17
542.47	41530.47
542.63	41706.01
542.80	41586.64
542.97	42103.90
543.14	42447.96
543.31	42239.65
543.48	41881.55
543.64	42473.70
543.81	42473.70
543.98	42415.19
544.15	42525.19
544.32	42237.31
544.48	42843.51
544.65	42693.71
544.82	42431.57
544.99	42375.40
545.16	42597.75
545.32	42642.22
545.49	43136.07
545.66	43012.02
545.83	43124.37
546.00	43262.46
546.16	43084.58
546.33	42731.16
546.50	42714.78
546.67	43239.06
546.83	42497.11
547.00	43009.68
547.17	43086.92
547.34	42834.14
547.50	43536.30
547.67	43278.85
547.84	43021.39
548.00	43646.31
548.17	43674.40
548.34	43332.68
548.51	43718.87
548.67	43739.93
548.84	43700.14
549.01	43255.44
549.18	43786.74
549.34	43812.49
549.51	43728.23
549.68	43931.86
549.84	43826.53
550.01	44172.93
550.18	43583.12
550.34	43847.60
550.51	44091.01
550.68	43838.23
550.84	43693.12
551.01	44350.81
551.18	43999.73
551.34	44378.90
551.51	44201.02
551.68	44142.50
551.84	44006.75
552.01	44002.07
552.18	43924.83
552.34	44088.67
552.51	44547.42
552.68	44119.10
552.84	44280.60
553.01	44549.76
553.18	44151.87
553.34	44612.95
553.51	44643.38
553.67	44957.01
553.84	44685.51
554.01	45148.93
554.17	44734.66
554.34	44924.24
554.51	44971.05
554.67	45162.98
554.84	44533.37
555.00	44919.56
555.17	44900.84
555.33	44631.68
555.50	45085.74
555.67	45127.87
555.83	44776.79
556.00	45160.64
556.16	45083.40
556.33	45631.08
556.50	45027.23
556.66	45242.56
556.83	44816.58
556.99	45591.30
557.16	45413.41
557.32	45532.78
557.49	45574.91
557.65	45062.33
557.82	45586.61
557.98	45294.05
558.15	45483.63
558.32	45055.31
558.48	45233.19
558.65	45413.41
558.81	45563.21
558.98	45640.45
559.14	45518.74
559.31	45584.27
559.47	45397.03
559.64	45652.15
559.80	45666.19
559.97	45918.97
560.13	45752.79
560.30	45930.67
560.46	46010.25
560.63	45794.92
560.79	45961.10
560.96	46190.47
561.12	46265.37
561.29	45811.31
561.45	45696.62
561.61	46103.87
561.78	46068.76
561.94	45698.96
562.11	46099.19
562.27	46108.55
562.44	45998.55
562.60	46206.86
562.77	46043.02
562.93	46005.57
563.10	46377.72
563.26	45975.14
563.42	46756.88
563.59	46239.62
563.75	46284.09
563.92	46251.33
564.08	46649.22
564.24	45937.69
564.41	46351.97
564.57	46307.50
564.74	46314.52
564.90	46110.89
565.07	46199.83
565.23	46457.29
565.39	46337.93
565.56	46513.47
565.72	46230.26
565.88	46534.53
566.05	46197.49
566.21	46667.94
566.38	46756.88
566.54	46724.11
566.70	46880.93
566.87	46696.03
567.03	46314.52
567.19	46660.92
567.36	46527.51
567.52	46817.74
567.68	47075.19
567.85	46873.91
568.01	47299.89
568.17	46721.77
568.34	47028.38
568.50	46609.43
568.66	46445.59
568.83	47126.69
568.99	46944.12
569.15	46941.78
569.32	46639.86
569.48	46768.58
569.64	47100.94
569.81	46653.90
569.97	46775.61
570.13	47201.58
570.30	46796.67
570.46	46569.64
570.62	47227.33
570.78	46520.49
570.95	47035.41
571.11	47143.07
571.27	47100.94
571.43	46857.52
571.60	46777.95
571.76	46951.15
571.92	47327.97
572.09	46904.34
572.25	46717.09
572.41	46808.37
572.57	46728.80
572.74	47611.18
572.90	46923.06
573.06	47870.98
573.22	47306.91
573.38	47262.44
573.55	47215.63
573.71	47372.44
573.87	47091.58
574.03	47349.04
574.20	47320.95
574.36	47122.01
574.52	47283.50
574.68	47449.68
574.84	47304.57
575.01	47402.87
575.17	47274.14
575.33	47330.31
575.49	47353.72
575.65	47185.20
575.82	47334.99
575.98	47150.09
576.14	47152.43
576.30	47533.94
576.46	47536.28
576.62	47262.44
576.79	47423.93
576.95	47313.93
577.11	47208.61
577.27	47276.48
577.43	47515.22
577.59	47381.80
577.75	47363.08
577.92	47021.36
578.08	47351.38
578.24	47529.26
578.40	47576.07
578.56	47578.41
578.72	47353.72
578.88	47571.39
579.04	47660.33
579.21	47576.07
579.37	47430.96
579.53	47381.80
579.69	47398.19
579.85	47437.98
580.01	47569.05
580.17	47599.47
580.33	47416.91
580.49	47276.48
580.65	47920.13
580.82	47077.54
580.98	47264.78
581.14	47306.91
581.30	47922.47
581.46	47491.81
581.62	47114.98
581.78	47461.38
581.94	47295.21
582.10	47660.33
582.26	47590.11
582.42	47828.85
582.58	47557.35
582.74	47758.63
582.90	47370.10
583.06	47477.77
583.22	47217.97
583.38	47562.03
583.54	47618.20
583.70	47597.13
583.86	47679.05
584.02	47636.92
584.18	47910.77
584.34	47885.02
584.50	47730.54
584.66	47459.04
584.82	47950.56
584.98	48107.37
585.14	47814.80
585.30	47618.20
585.46	48079.28
585.62	47461.38
585.78	47709.48
585.94	47400.53
586.10	47625.22
586.26	47206.26
586.42	47564.37
586.58	47835.87
586.74	47786.72
586.90	47370.10
587.06	47927.15
587.22	47756.29
587.38	47688.42
587.54	48053.54
587.70	48168.22
587.86	47826.51
588.02	47419.25
588.18	47899.06
588.34	47587.77
588.49	48011.41
588.65	47856.93
588.81	48151.84
588.97	47641.60
589.13	47632.24
589.29	48161.20
589.45	47950.56
589.61	48259.51
589.77	47885.02
589.93	47983.32
590.08	48158.86
590.24	48273.55
590.40	48512.28
590.56	48018.43
590.72	48002.05
590.88	48193.97
591.04	47826.51
591.20	48193.97
591.35	48208.01
591.51	48559.09
591.67	48287.59
591.83	48362.49
591.99	47922.47
592.15	47833.53
592.31	47856.93
592.46	47908.43
592.62	48303.98
592.78	48404.62
592.94	48685.48
593.10	48790.81
593.26	48308.66
593.41	48479.52
593.57	47964.60
593.73	48182.27
593.89	48636.33
594.05	48531.01
594.20	48245.46
594.36	48765.06
594.52	48336.74
594.68	48416.32
594.84	48376.53
594.99	48203.33
595.15	48273.55
595.31	48252.48
595.47	48488.88
595.62	48540.37
595.78	48100.35
595.94	48523.99
596.10	48360.15
596.25	48648.03
596.41	48479.52
596.57	48603.56
596.73	48744.00
596.88	48802.51
597.04	48444.41
597.20	48779.10
597.36	48680.80
597.51	48444.41
597.67	48114.39
597.83	48306.32
597.99	48706.55
598.14	48346.11
598.30	48645.69
598.46	48580.16
598.61	48514.62
598.77	48615.27
598.93	48526.33
599.09	48495.90
599.24	49303.38
599.40	48636.33
599.56	48624.63
599.71	48774.42
599.87	49177.00
600.03	48736.98
600.18	48619.95
600.34	48708.89
600.50	48669.10
600.65	48673.78
600.81	49029.54
600.97	48790.81
601.12	48570.80
601.28	48601.22
601.44	48704.21
601.59	48715.91
601.75	48470.15
601.91	49055.29
602.06	48570.80
602.22	48802.51
602.37	48615.27
602.53	48713.57
602.69	48704.21
602.84	48898.47
603.00	48772.08
603.16	48919.54
603.31	48657.40
603.47	48919.54
603.62	48657.40
603.78	49074.01
603.94	48538.03
604.09	48617.61
604.25	48566.12
604.40	48725.27
604.56	48498.24
604.71	48610.59
604.87	48362.49
605.03	48413.98
605.18	48573.14
605.34	48505.26
605.49	48416.32
605.65	48549.73
605.80	48285.25
605.96	48477.18
606.12	48732.29
606.27	48891.45
606.43	47957.58
606.58	48692.50
606.74	48744.00
606.89	48643.35
607.05	48523.99
607.20	48631.65
607.36	48418.66
607.51	48664.42
607.67	48311.00
607.82	48240.78
607.98	48378.87
608.13	48460.79
608.29	48191.63
608.44	48285.25
608.60	48322.70
608.75	48746.34
608.91	48325.04
609.06	47870.98
609.22	48746.34
609.37	48315.68
609.53	48596.54
609.68	48451.43
609.84	48439.73
609.99	48582.50
610.15	48217.38
610.30	48271.21
610.46	48278.23
610.61	48278.23
610.76	48507.60
610.92	48058.22
611.07	48161.20
611.23	47749.27
611.38	47955.24
611.54	48287.59
611.69	48706.55
611.84	48463.13
612.00	48559.09
612.15	48186.95
612.31	48095.67
612.46	47845.23
612.62	48163.54
612.77	48053.54
612.92	48273.55
613.08	48154.18
613.23	47826.51
613.39	47854.59
613.54	48229.08
613.69	47920.13
613.85	47906.08
614.00	47854.59
614.15	48018.43
614.31	47608.84
614.46	47894.38
614.62	47985.66
614.77	47606.50
614.92	47737.57
615.08	47847.57
615.23	47978.64
615.38	48034.81
615.54	48170.57
615.69	48079.28
615.84	47498.83
616.00	47707.14
616.15	47920.13
616.30	47985.66
616.46	48112.05
616.61	47913.11
616.76	47866.30
616.92	47784.38
617.07	47903.74
617.22	48067.58
617.37	47276.48
617.53	47782.04
617.68	47489.47
617.83	47672.03
617.99	48128.44
618.14	47349.04
618.29	47089.24
618.45	47136.05
618.60	47505.85
618.75	47201.58
618.90	47164.14
619.06	47545.64
619.21	47473.09
619.36	47704.80
619.51	46789.65
619.67	47531.60
619.82	47349.04
619.97	47503.51
620.12	47072.85
620.28	47533.94
620.43	47728.20
620.58	47210.95
620.73	47157.11
620.89	47512.88
621.04	47789.06
621.19	47203.92
621.34	46876.25
621.49	47138.39
621.65	47072.85
621.80	47189.88
621.95	46902.00
622.10	47760.97
622.25	46941.78
622.41	47342.02
622.56	46955.83
622.71	46789.65
622.86	47229.67
623.01	47201.58
623.16	47248.39
623.32	46813.05
623.47	47229.67
623.62	46927.74
623.77	47147.75
623.92	47054.13
624.07	46719.43
624.23	47040.09
624.38	47019.02
624.53	46834.12
624.68	46609.43
624.83	46518.15
624.98	46705.39
625.13	46202.18
625.29	46590.70
625.44	46700.71
625.59	46632.83
625.74	46810.71
625.89	46274.73
626.04	46387.08
626.19	46155.36
626.34	46291.12
626.49	46366.01
626.65	46120.26
626.80	46351.97
626.95	46174.09
627.10	45933.01
627.25	46246.65
627.40	46522.83
627.55	46396.44
627.70	46195.15
627.85	46057.06
628.00	46403.46
628.15	46248.99
628.30	45392.35
628.45	45755.13
628.60	45488.31
628.76	45977.48
628.91	45923.65
629.06	45483.63
629.21	45691.94
629.36	45830.03
629.51	46192.81
629.66	45703.64
629.81	46068.76
629.96	46117.92
630.11	45631.08
630.26	45773.86
630.41	45963.44
630.56	45209.79
630.71	46176.43
630.86	45830.03
631.01	45048.29
631.16	45446.18
631.31	45933.01
631.46	45741.09
631.61	45801.94
631.76	45928.33
631.91	45324.47
632.06	45600.66
632.21	45603.00
632.36	45656.83
632.51	45062.33
632.66	45457.88
632.81	45038.93
632.96	45574.91
633.10	45162.98
633.25	45542.14
633.40	45343.20
633.55	45684.92
633.70	45478.95
633.85	44952.33
634.00	45055.31
634.15	45193.40
634.30	44804.88
634.45	45485.97
634.60	44985.10
634.75	45287.03
634.90	45162.98
635.05	45361.92
635.19	44973.39
635.34	45076.38
635.49	45083.40
635.64	44952.33
635.79	45141.91
635.94	44870.41
636.09	44896.16
636.24	44863.39
636.39	45125.53
636.53	45303.41
636.68	44713.59
636.83	44479.54
636.98	44945.31
637.13	44098.03
637.28	44257.19
637.43	44495.92
637.57	45071.70
637.72	44219.74
637.87	44353.15
638.02	44849.35
638.17	44465.50
638.32	44177.61
638.46	44041.86
638.61	44231.44
638.76	44495.92
638.91	44179.95
639.06	44282.94
639.20	44177.61
639.35	44208.04
639.50	44399.96
639.65	44170.59
639.80	44428.05
639.94	44350.81
640.09	44421.03
640.24	44392.94
640.39	44048.88
640.54	43910.79
640.68	44556.78
640.83	43990.37
640.98	44020.80
641.13	43634.61
641.27	44182.29
641.42	43856.96
641.57	43948.24
641.72	44296.98
641.86	44341.45
642.01	43583.12
642.16	43901.43
642.31	43573.75
642.45	43744.61
642.60	43494.18
642.75	43854.62
642.90	43704.82
643.04	43894.41
643.19	43791.42
643.34	43388.85
643.48	43278.85
643.63	43931.86
643.78	43569.07
643.93	43463.75
644.07	43702.48
644.22	43545.67
644.37	43339.70
644.51	43290.55
644.66	43641.63
644.81	43344.38
644.95	43840.57
645.10	43374.81
645.25	43426.30
645.39	42878.61
645.54	43054.15
645.69	43112.67
645.83	43253.10
645.98	43077.56
646.13	43178.20
646.27	43466.09
646.42	43433.32
646.57	43239.06
646.71	43110.33
646.86	43089.26
647.00	43540.99
647.15	43049.47
647.30	43147.78
647.44	43220.33
647.59	42838.83
647.74	43044.79
647.88	43262.46
648.03	43129.05
648.17	43419.28
648.32	43061.18
648.47	43239.06
648.61	42614.13
648.76	42920.74
648.90	42511.15
649.05	42986.28
649.20	42726.48
649.34	42644.56
649.49	42941.81
649.63	42614.13
649.78	42885.64
649.92	42447.96
650.07	43171.18
650.21	43140.75
650.36	43119.69
650.51	42682.01
650.65	42693.71
650.80	42574.34
650.94	42770.95
651.09	42438.59
651.23	42274.76
651.38	41846.44
651.52	42209.22
651.67	41780.90
651.81	42117.94
651.96	42337.95
652.10	42429.23
652.25	41867.50
652.39	42513.49
652.54	41975.17
652.68	41799.63
652.83	42312.20
652.97	42019.64
653.12	42279.44
653.26	42452.64
653.41	42682.01
653.55	42253.69
653.70	42167.09
653.84	42548.60
653.99	42206.88
654.13	42197.52
654.27	42295.82
654.42	42410.51
654.56	41731.75
654.71	42120.28
654.85	42075.81
655.00	41886.23
655.14	41869.84
655.29	41759.84
655.43	41975.17
655.57	42246.67
655.72	41694.30
655.86	41378.33
656.01	41132.57
656.15	41277.69
656.30	41324.50
656.44	41652.17
656.58	41574.94
656.73	41684.94
656.87	41521.10
657.01	41385.35
657.16	41329.18
657.30	41450.89
657.45	41214.49
657.59	41352.58
657.73	40858.73
657.88	41195.77
658.02	41345.56
658.16	41343.22
658.31	40966.40
658.45	41397.06
658.60	41373.65
658.74	40783.83
658.88	40638.72
659.03	40854.05
659.17	40636.38
659.31	40517.01
659.46	40629.36
659.60	40999.16
659.74	40886.82
659.89	40603.61
660.03	40580.21
660.17	40509.99
660.32	40636.38
660.46	39948.26
660.60	40203.38
660.74	40112.10
660.89	40549.78
661.03	40088.70
661.17	39882.73
661.32	39988.05
661.46	40116.78
661.60	39995.07
661.74	40044.23
661.89	39889.75
662.03	39889.75
662.17	39847.62
662.31	39955.29
662.46	39974.01
662.60	39487.18
662.74	39484.84
662.88	39391.22
663.03	39503.56
663.17	39681.44
663.31	38983.96
663.45	39557.39
663.60	39597.18
663.74	39566.76
663.88	38871.62
664.02	38923.11
664.17	39842.94
664.31	39075.24
664.45	38721.82
664.59	38948.85
664.73	38738.21
664.88	38792.04
665.02	38761.61
665.16	38686.71
665.30	38436.28
665.44	38885.66
665.59	38438.62
665.73	38115.62
665.87	38110.94
666.01	38532.24
666.15	38424.57
666.29	38014.98
666.44	38742.89
666.58	38157.75
666.72	38122.65
666.86	38127.33
667.00	37549.21
667.14	38150.73
667.28	37839.44
667.43	37684.97
667.57	37757.52
667.71	38192.86
667.85	38103.92
667.99	37539.85
668.13	37516.45
668.27	37577.30
668.41	37642.84
668.56	36945.36
668.70	37408.78
668.84	37338.57
668.98	36783.86
669.12	37123.24
669.26	37195.79
669.40	37120.90
669.54	37048.34
669.68	36917.27
669.82	36725.35
669.96	36781.52
670.10	36264.26
670.25	36477.25
670.39	36404.69
670.53	36603.64
670.67	36645.77
670.81	36678.54
670.95	36137.87
671.09	36105.10
671.23	36240.86
671.37	36624.70
671.51	35922.54
671.65	36280.64
671.79	35936.59
671.93	36123.83
672.07	35564.44
672.21	35969.35
672.35	35559.76
672.49	35395.92
672.63	35697.85
672.77	35140.80
672.91	35384.22
673.05	35311.66
673.19	35103.35
673.33	35182.93
673.47	35489.54
673.61	34656.31
673.75	34726.53
673.89	34733.55
674.03	34799.08
674.17	34707.80
674.31	34450.35
674.45	34448.00
674.59	34335.66
674.73	34501.84
674.87	34066.50
675.01	34108.63
675.15	33670.95
675.29	33579.67
675.43	33666.27
675.56	33738.82
675.70	33771.59
675.84	33750.52
675.98	32779.20
676.12	33947.13
676.26	33926.07
676.40	33104.54
676.54	33167.73
676.68	32959.42
676.82	32921.98
676.96	32830.69
677.10	33067.09
677.23	32921.98
677.37	32760.48
677.51	32947.72
677.65	32648.13
677.79	32378.97
677.93	32446.85
678.07	32268.97
678.21	32046.62
678.34	31707.24
678.48	31517.65
678.62	31332.75
678.76	31765.75
678.90	31295.30
679.04	31431.05
679.18	31538.72
679.31	31297.64
679.45	31079.97
679.59	30888.05
679.73	31054.23
679.87	30754.64
680.00	31145.51
680.14	31061.25
680.28	30691.44
680.42	30382.49
680.56	30649.32
680.70	30529.95
680.83	29996.31
680.97	30012.69
681.11	30321.64
681.25	29788.00
681.39	29516.50
681.52	29930.77
681.66	29376.06
681.80	29069.45
681.94	29090.52
682.07	29139.67
682.21	28940.72
682.35	29120.95
682.49	28776.89
682.62	28987.53
682.76	28730.08
682.90	28800.29
683.04	28671.56
683.17	28980.51
683.31	28444.53
683.45	28067.70
683.59	27992.81
683.72	28091.11
683.86	27763.43
684.00	28011.53
684.13	27749.39
684.27	27613.64
684.41	27456.82
684.55	27714.28
684.68	27819.61
684.82	27187.66
684.96	27094.04
685.09	27262.56
685.23	27356.18
685.37	27199.37
685.50	27311.71
685.64	27330.44
685.78	26813.18
685.91	26342.73
686.05	26314.64
686.19	25986.97
686.32	25956.54
686.46	26045.48
686.60	25923.77
686.73	26075.91
686.87	26064.21
687.01	25778.66
687.14	25979.95
687.28	25703.76
687.42	25628.87
687.55	25369.07
687.69	25249.70
687.82	25015.65
687.96	25177.14
688.10	24943.09
688.23	25163.10
688.37	25296.51
688.50	25200.55
688.64	25153.74
688.78	25029.69
688.91	24517.11
689.05	24594.35
689.18	24233.91
689.32	23838.36
689.46	23824.31
689.59	23971.77
689.73	24332.21
689.86	23960.06
690.00	23892.19
690.13	23971.77
690.27	23388.97
690.41	23803.25
690.54	23175.98
690.68	23009.81
690.81	23293.01
690.95	23070.66
691.08	22955.97
691.22	22532.34
691.35	22834.27
691.49	23243.86
691.62	22714.90
691.76	22251.47
691.89	22305.31
692.03	22284.24
692.16	22251.47
692.30	22274.88
692.43	22080.61
692.57	21706.13
692.70	21844.22
692.84	21989.33
692.97	21443.99
693.11	21652.30
693.24	21345.69
693.38	21558.67
693.51	21259.09
693.65	21298.88
693.78	20713.74
693.92	21001.63
694.05	20872.90
694.19	20858.85
694.32	21083.55
694.45	20805.02
694.59	20706.72
694.72	20814.38
694.86	20561.61
694.99	20306.49
695.13	20247.97
695.26	20168.40
695.39	20084.14
695.53	19843.06
695.66	20147.33
695.80	19775.19
695.93	19807.95
696.07	19206.44
696.20	19524.75
696.33	19300.06
696.47	18932.59
696.60	19119.84
696.73	19269.63
696.87	19295.38
697.00	19185.37
697.14	18883.44
697.27	18738.33
697.40	18689.18
697.54	18876.42
697.67	18523.00
697.80	18581.51
697.94	18356.82
698.07	18492.57
698.21	18047.87
698.34	18286.61
698.47	17837.22
698.61	17886.37
698.74	17542.32
698.87	17998.72
699.01	17589.13
699.14	17675.73
699.27	17710.83
699.40	17565.72
699.54	17472.10
699.67	17193.58
699.80	17268.47
699.94	17090.59
700.07	17163.15
700.20	17029.74
700.34	16807.39
700.47	16915.05
700.60	16975.91
700.73	16868.24
700.87	16662.27
701.00	16416.52
701.13	16535.88
701.26	16294.81
701.40	16269.06
701.53	16163.74
701.66	16217.57
701.79	16114.59
701.93	15875.85
702.06	16032.67
702.19	15580.95
702.32	15880.53
702.46	15557.54
702.59	15648.82
702.72	15618.39
702.85	15693.29
702.99	15477.96
703.12	15363.28
703.25	15267.31
703.38	15059.01
703.51	15096.46
703.65	15143.27
703.78	14923.26
703.91	14558.13
704.04	14857.72
704.17	14611.96
704.31	14487.92
704.44	14532.39
704.57	14492.60
704.70	14815.59
704.83	14272.59
704.96	14190.67
705.10	14122.79
705.23	14099.39
>>>>>End Processed Spectral Data<<<<<
