SpectraSuite Data File
++++++++++++++++++++++++++++++++++++
Date: Fri Oct 25 10:43:44 EDT 2013
User: price-jones
Dark Spectrum Present: No
Reference Spectrum Present: No
Number of Sampled Component Spectra: 1
Spectrometers: USB2+H05261
Integration Time (usec): 100000 (USB2+H05261)
Spectra Averaged: 1 (USB2+H05261)
Boxcar Smoothing: 0 (USB2+H05261)
Correct for Electrical Dark: No (USB2+H05261)
Strobe/Lamp Enabled: No (USB2+H05261)
Correct for Detector Non-linearity: No (USB2+H05261)
Correct for Stray Light: No (USB2+H05261)
Number of Pixels in Processed Spectrum: 2048
>>>>>Begin Processed Spectral Data<<<<<
365.73	152.13
365.92	152.13
366.12	152.13
366.32	86.60
366.52	16.38
366.72	72.56
366.91	0.00
367.11	39.79
367.31	0.00
367.51	42.13
367.70	0.00
367.90	0.00
368.10	0.00
368.30	88.94
368.49	9.36
368.69	65.54
368.89	2.34
369.09	0.00
369.28	49.15
369.48	0.00
369.68	88.94
369.87	114.69
370.07	79.58
370.27	79.58
370.47	234.05
370.66	332.36
370.86	437.68
371.06	477.47
371.25	449.38
371.45	437.68
371.65	468.11
371.84	423.64
372.04	456.40
372.24	428.32
372.44	489.17
372.63	486.83
372.83	552.37
373.03	451.72
373.22	526.62
373.42	547.69
373.62	468.11
373.81	615.56
374.01	603.86
374.21	526.62
374.40	547.69
374.60	564.07
374.79	575.77
374.99	580.45
375.19	566.41
375.38	571.09
375.58	547.69
375.78	505.56
375.97	599.18
376.17	587.47
376.37	674.07
376.56	592.16
376.76	617.90
376.95	662.37
377.15	699.82
377.35	685.78
377.54	662.37
377.74	685.78
377.93	627.26
378.13	716.20
378.33	645.99
378.52	660.03
378.72	655.35
378.91	695.14
379.11	704.50
379.31	662.37
379.50	601.52
379.70	751.31
379.89	669.39
380.09	716.20
380.28	660.03
380.48	676.41
380.68	671.73
380.87	653.01
381.07	702.16
381.26	676.41
381.46	819.19
381.65	753.65
381.85	730.25
382.04	746.63
382.24	753.65
382.43	650.67
382.63	746.63
382.83	720.88
383.02	695.14
383.22	751.31
383.41	692.80
383.61	641.31
383.80	777.06
384.00	624.92
384.19	741.95
384.39	765.36
384.58	751.31
384.78	730.25
384.97	826.21
385.17	809.83
385.36	779.40
385.56	732.59
385.75	826.21
385.95	870.68
386.14	856.64
386.34	777.06
386.53	840.25
386.72	816.85
386.92	842.59
387.11	877.70
387.31	901.11
387.50	919.83
387.70	837.91
387.89	929.19
388.09	844.93
388.28	880.04
388.48	922.17
388.67	940.90
388.86	931.53
389.06	861.32
389.25	978.34
389.45	997.07
389.64	1020.47
389.84	929.19
390.03	976.00
390.22	952.60
390.42	1018.13
390.61	945.58
390.81	1055.58
391.00	992.39
391.19	1053.24
391.39	1086.01
391.58	1020.47
391.78	1062.60
391.97	1118.78
392.16	908.13
392.36	983.02
392.55	983.02
392.75	954.94
392.94	1011.11
393.13	973.66
393.33	931.53
393.52	1011.11
393.71	1022.81
393.91	1039.20
394.10	1160.91
394.29	1050.90
394.49	1156.22
394.68	1219.42
394.88	1177.29
395.07	1219.42
395.26	1203.04
395.46	1256.87
395.65	1268.57
395.84	1266.23
396.04	1231.12
396.23	1214.74
396.42	1114.10
396.62	1214.74
396.81	1114.10
397.00	1214.74
397.19	1238.14
397.39	1263.89
397.58	1448.79
397.77	1313.04
397.97	1390.28
398.16	1404.32
398.35	1476.88
398.55	1369.21
398.74	1493.26
398.93	1493.26
399.12	1409.00
399.32	1385.60
399.51	1455.81
399.70	1551.78
399.90	1519.01
400.09	1556.46
400.28	1551.78
400.47	1551.78
400.67	1675.82
400.86	1696.89
401.05	1659.44
401.24	1640.72
401.44	1598.59
401.63	1666.46
401.82	1757.74
402.01	1568.16
402.21	1750.72
402.40	1785.83
402.59	1729.66
402.78	1710.93
402.97	1645.40
403.17	1788.17
403.36	1713.27
403.55	1834.98
403.74	1827.96
403.93	1844.34
404.13	1888.81
404.32	1907.54
404.51	1790.51
404.70	1851.36
404.89	1860.73
405.09	2040.95
405.28	2031.58
405.47	1998.82
405.66	1909.88
405.85	1994.14
406.05	2019.88
406.24	1942.64
406.43	1994.14
406.62	2085.42
406.81	2029.24
407.00	2099.46
407.20	1996.48
407.39	2022.22
407.58	2064.35
407.77	2160.31
407.96	2062.01
408.15	2157.97
408.34	2176.70
408.54	2169.68
408.73	2282.02
408.92	2246.91
409.11	2293.72
409.30	2326.49
409.49	2197.76
409.68	2328.83
409.87	2214.15
410.07	2319.47
410.26	2317.13
410.45	2359.26
410.64	2455.22
410.83	2431.82
411.02	2452.88
411.21	2637.78
411.40	2621.40
411.59	2665.87
411.78	2637.78
411.98	2630.76
412.17	2612.04
412.36	2595.65
412.55	2682.25
412.74	2686.94
412.93	2612.04
413.12	2717.36
413.31	2803.96
413.50	2733.75
413.69	2778.22
413.88	2906.95
414.07	2715.02
414.26	2766.51
414.45	2862.48
414.64	3016.95
414.83	3014.61
415.02	2946.73
415.22	3126.96
415.41	3091.85
415.60	3023.97
415.79	3166.74
415.98	3201.85
416.17	3295.47
416.36	3183.13
416.55	3131.64
416.74	3110.57
416.93	3208.87
417.12	3215.90
417.31	3293.13
417.50	3260.37
417.69	3342.28
417.88	3281.43
418.07	3382.07
418.26	3311.86
418.45	3433.57
418.64	3581.02
418.83	3644.21
419.02	3428.88
419.21	3543.57
419.39	3517.83
419.58	3534.21
419.77	3461.65
419.96	3595.06
420.15	3669.96
420.34	3630.17
420.53	3662.94
420.72	3744.86
420.91	3824.44
421.10	3702.73
421.29	3836.14
421.48	3796.35
421.67	3932.10
421.86	3868.91
422.05	3794.01
422.24	3751.88
422.43	3873.59
422.61	3847.84
422.80	3836.14
422.99	3878.27
423.18	3826.78
423.37	3925.08
423.56	3946.14
423.75	3810.39
423.94	3850.18
424.13	3599.74
424.32	3672.30
424.50	3948.48
424.69	3831.46
424.88	3962.53
425.07	3932.10
425.26	3775.28
425.45	3857.20
425.64	3908.69
425.83	3985.93
426.01	3927.42
426.20	4049.13
426.39	3911.04
426.58	3918.06
426.77	3854.86
426.96	4119.34
427.15	3953.16
427.33	3964.87
427.52	4046.79
427.71	3929.76
427.90	4042.11
428.09	4121.68
428.28	4053.81
428.46	4117.00
428.65	4126.36
428.84	3971.89
429.03	4227.01
429.22	4030.40
429.40	4072.53
429.59	4100.62
429.78	3955.51
429.97	3892.31
430.16	3936.78
430.34	4109.98
430.53	4152.11
430.72	4145.09
430.91	4255.09
431.10	4383.82
431.28	4360.42
431.47	4624.90
431.66	4664.69
431.85	4493.83
432.03	4414.25
432.22	4477.44
432.41	4486.81
432.60	4596.81
432.79	4664.69
432.97	4770.01
433.16	4697.46
433.35	4709.16
433.54	4578.09
433.72	4664.69
433.91	4603.83
434.10	4875.34
434.28	4753.63
434.47	4826.18
434.66	4739.58
434.85	4882.36
435.03	4891.72
435.22	4828.53
435.41	5020.45
435.59	5114.07
435.78	5018.11
435.97	5036.83
436.16	5090.67
436.34	5153.86
436.53	5142.16
436.72	5123.43
436.90	4983.00
437.09	5242.80
437.28	5188.97
437.46	5174.92
437.65	5116.41
437.84	5179.61
438.02	5158.54
438.21	5137.48
438.40	5102.37
438.58	5343.44
438.77	5455.79
438.96	5455.79
439.14	5593.88
439.33	5385.57
439.52	5511.96
439.70	5757.72
439.89	5650.05
440.08	5636.01
440.26	5673.46
440.45	5626.65
440.63	5921.56
440.82	5930.92
441.01	5830.27
441.19	5951.98
441.38	6188.38
441.57	6225.82
441.75	6155.61
441.94	6197.74
442.12	6136.88
442.31	6340.51
442.50	6289.02
442.68	6256.25
442.87	6237.53
443.05	6284.34
443.24	6441.15
443.43	6375.62
443.61	6307.74
443.80	6511.37
443.98	6291.36
444.17	6274.98
444.35	6455.20
444.54	6595.63
444.73	6361.58
444.91	6502.01
445.10	6415.41
445.28	6422.43
445.47	6333.49
445.65	6370.94
445.84	6396.68
446.02	6576.91
446.21	6541.80
446.39	6541.80
446.58	6696.27
446.77	6656.48
446.95	6450.52
447.14	6576.91
447.32	6871.81
447.51	6532.44
447.69	6778.19
447.88	6719.68
448.06	6502.01
448.25	6576.91
448.43	6696.27
448.62	6745.42
448.80	6729.04
448.99	6740.74
449.17	6815.64
449.36	6637.76
449.54	6946.71
449.73	6871.81
449.91	6916.28
450.10	7187.79
450.28	7255.66
450.46	6986.50
450.65	7059.06
450.83	7187.79
451.02	7218.21
451.20	7183.10
451.39	7019.27
451.57	7173.74
451.76	7087.14
451.94	7145.66
452.13	7215.87
452.31	7307.15
452.49	7002.88
452.68	7021.61
452.86	7070.76
453.05	7295.45
453.23	7248.64
453.42	7288.43
453.60	7276.73
453.78	7370.35
453.97	7180.76
454.15	7148.00
454.34	7265.02
454.52	7658.23
454.70	7550.57
454.89	7449.93
455.07	7531.84
455.26	7590.36
455.44	7880.58
455.62	7688.66
455.81	7616.10
455.99	7658.23
456.17	7768.24
456.36	7805.69
456.54	7831.43
456.73	7854.84
456.91	8006.97
457.09	7976.55
457.28	8243.37
457.46	7967.18
457.64	8142.72
457.83	8121.66
458.01	7854.84
458.19	8163.79
458.38	7892.29
458.56	8332.31
458.74	8168.47
458.93	8208.26
459.11	8149.75
459.29	8142.72
459.48	8334.65
459.66	8161.45
459.84	8388.48
460.03	8648.28
460.21	8393.16
460.39	8381.46
460.57	8500.83
460.76	8599.13
460.94	8468.06
461.12	8507.85
461.31	8425.93
461.49	8463.38
461.67	8531.25
461.85	8779.35
462.04	8659.98
462.22	8968.93
462.40	8879.99
462.59	8985.32
462.77	8767.65
462.95	8950.21
463.13	8968.93
463.32	8791.05
463.50	8741.90
463.68	8879.99
463.86	8940.85
464.05	8805.10
464.23	8784.03
464.41	8982.98
464.59	8889.35
464.78	9153.84
464.96	8936.17
465.14	8936.17
465.32	8954.89
465.50	9362.14
465.69	9057.87
465.87	9130.43
466.05	9310.65
466.23	9221.71
466.41	9174.90
466.60	9434.70
466.78	9095.32
466.96	9025.11
467.14	9142.13
467.32	9327.03
467.51	9516.62
467.69	9177.24
467.87	9366.82
468.05	9369.16
468.23	9315.33
468.41	9266.18
468.60	9441.72
468.78	9563.43
468.96	9322.35
469.14	9516.62
469.32	9827.91
469.50	9568.11
469.69	9675.77
469.87	9710.88
470.05	9783.44
470.23	9762.37
470.41	9722.59
470.59	9930.89
470.77	9902.81
470.95	9958.98
471.14	10122.82
471.32	9745.99
471.50	10200.05
471.68	10211.76
471.86	10253.89
472.04	10097.07
472.22	10473.90
472.40	10073.67
472.58	10242.18
472.77	10396.66
472.95	10675.18
473.13	10860.09
473.31	10466.88
473.49	10410.70
473.67	10436.45
473.85	10881.15
474.03	10785.19
474.21	10972.43
474.39	10876.47
474.57	11028.60
474.75	11073.07
474.93	11265.00
475.12	11019.24
475.30	11269.68
475.48	11129.25
475.66	11459.26
475.84	11075.42
476.02	11236.91
476.20	11068.39
476.38	11576.29
476.56	11836.09
476.74	11662.89
476.92	11880.56
477.10	11552.88
477.28	11770.55
477.46	12070.14
477.64	12147.38
477.82	12173.13
478.00	12472.71
478.18	12329.94
478.36	12369.73
478.54	12638.89
478.72	12678.68
478.90	12732.51
479.08	12978.27
479.26	12968.91
479.44	12971.25
479.62	13172.54
479.80	13107.00
479.98	13221.69
480.16	13446.38
480.34	13446.38
480.52	13760.01
480.70	13837.25
480.88	13385.52
481.06	13921.51
481.24	13734.26
481.41	13848.95
481.59	14057.26
481.77	14445.79
481.95	14174.28
482.13	14359.19
482.31	14544.09
482.49	15033.26
482.67	14443.45
482.85	14897.51
483.03	15061.35
483.21	15068.37
483.39	15133.90
483.57	15173.69
483.74	15655.84
483.92	15482.64
484.10	15466.26
484.28	15822.02
484.46	16070.12
484.64	16240.98
484.82	15740.10
485.00	15920.32
485.18	16173.10
485.35	16538.23
485.53	16196.51
485.71	15929.69
485.89	16191.83
486.07	16383.75
486.25	16297.15
486.43	16805.05
486.61	16919.73
486.78	17202.94
486.96	17252.09
487.14	17472.10
487.32	17535.29
487.50	17640.62
487.68	17860.63
487.85	18125.11
488.03	18508.96
488.21	18567.47
488.39	18230.43
488.57	18448.10
488.75	18747.69
488.92	18857.70
489.10	19133.88
489.28	19344.53
489.46	19976.47
489.64	19407.72
489.81	20250.32
489.99	20271.38
490.17	20037.33
490.35	20161.37
490.53	20247.97
490.70	20280.74
490.88	20451.60
491.06	20641.18
491.24	20400.11
491.41	20680.97
491.59	20423.51
491.77	20521.82
491.95	20739.49
492.13	21144.40
492.30	21565.70
492.48	21399.52
492.66	21656.98
492.84	21652.30
493.01	21876.99
493.19	22054.87
493.37	21841.88
493.54	21942.52
493.72	22228.07
493.90	22494.89
494.08	22831.93
494.25	22892.78
494.43	22937.25
494.61	22965.34
494.79	23087.04
494.96	23433.44
495.14	23051.94
495.32	23473.23
495.49	23627.71
495.67	23805.59
495.85	23786.86
496.02	24077.09
496.20	24156.67
496.38	24041.98
496.55	24126.24
496.73	24872.87
496.91	24655.20
497.09	24863.51
497.26	24606.05
497.44	24638.82
497.62	24943.09
497.79	25102.25
497.97	25116.29
498.14	25259.06
498.32	25715.47
498.50	25539.93
498.67	25701.42
498.85	26176.55
499.03	25993.99
499.20	25956.54
499.38	25881.64
499.56	26078.25
499.73	26480.82
499.91	26405.92
500.08	26017.40
500.26	26485.50
500.44	26492.52
500.61	26635.30
500.79	26026.76
500.97	26679.77
501.14	27112.77
501.32	27129.15
501.49	27220.43
501.67	27012.12
501.84	27204.05
502.02	26890.41
502.20	27555.13
502.37	27606.62
502.55	27129.15
502.72	27866.42
502.90	27840.67
503.07	27716.62
503.25	28039.62
503.43	27742.37
503.60	28435.17
503.78	27988.13
503.95	27835.99
504.13	28100.47
504.30	28535.81
504.48	28587.30
504.65	28821.36
504.83	28830.72
505.01	28900.94
505.18	29242.65
505.36	29071.79
505.53	29226.27
505.71	29350.32
505.88	29319.89
506.06	28968.81
506.23	29591.39
506.41	29406.49
506.58	29287.12
506.76	29469.69
506.93	29605.44
507.11	29914.39
507.28	30080.56
507.46	29797.36
507.63	29514.16
507.81	30221.00
507.98	29504.79
508.16	30471.43
508.33	30333.34
508.50	30756.98
508.68	30073.54
508.85	31110.40
509.03	30993.37
509.20	30857.62
509.38	30810.81
509.55	30951.24
509.73	31009.76
509.90	31002.74
510.08	31271.90
510.25	31030.82
510.42	31402.97
510.60	31398.29
510.77	31754.05
510.95	31798.52
511.12	32002.14
511.30	31929.59
511.47	32224.50
511.64	31772.77
511.82	32130.87
511.99	31782.13
512.17	32123.85
512.34	31960.02
512.51	32601.32
512.69	32535.79
512.86	32381.31
513.04	32760.48
513.21	32456.21
513.38	32488.98
513.56	32657.49
513.73	32547.49
513.90	33050.70
514.08	33160.71
514.25	32931.34
514.43	32875.16
514.60	33237.95
514.77	32816.65
514.95	33593.71
515.12	33591.37
515.29	33113.90
515.47	33530.51
515.64	33771.59
515.81	33256.67
515.99	33596.05
516.16	33790.31
516.33	33282.42
516.51	33642.86
516.68	33041.34
516.85	33371.36
517.03	33432.21
517.20	34197.57
517.37	34094.58
517.54	34450.35
517.72	34178.84
517.89	33689.67
518.06	33802.02
518.24	33797.34
518.41	33951.81
518.58	34836.53
518.75	34239.70
518.93	34438.64
519.10	34412.90
519.27	34740.57
519.45	34506.52
519.62	34569.71
519.79	35218.04
519.96	34679.72
520.14	35435.71
520.31	34927.81
520.48	35587.85
520.65	35494.22
520.83	35360.81
521.00	35594.87
521.17	35917.86
521.34	35941.27
521.52	35608.91
521.69	36275.96
521.86	35943.61
522.03	36144.89
522.20	36315.75
522.38	35702.53
522.55	35985.74
522.72	36180.00
522.89	36430.44
523.07	36411.71
523.24	36175.32
523.41	36617.68
523.58	36414.05
523.75	37338.57
523.92	36526.40
524.10	37060.04
524.27	37083.45
524.44	37158.34
524.61	36828.33
524.78	37209.84
524.96	37282.39
525.13	37376.01
525.30	37544.53
525.47	37350.27
525.64	37514.11
525.81	37249.63
525.98	37406.44
526.16	37296.44
526.33	37111.53
526.50	37439.21
526.67	37116.22
526.84	37361.97
527.01	37109.19
527.18	37574.96
527.36	37958.81
527.53	37876.89
527.70	38209.25
527.87	38281.80
528.04	37818.38
528.21	38403.51
528.38	38099.24
528.55	38618.84
528.72	39138.44
528.89	38539.26
529.07	38576.71
529.24	38396.49
529.41	38726.50
529.58	38796.72
529.75	38707.78
529.92	38724.16
530.09	39292.91
530.26	38946.51
530.43	38637.56
530.60	38658.63
530.77	38848.21
530.94	39157.16
531.11	39299.94
531.28	39454.41
531.46	39150.14
531.63	39653.36
531.80	39447.39
531.97	38925.45
532.14	39386.54
532.31	39208.65
532.48	38829.49
532.65	39105.67
532.82	39290.57
532.99	39873.37
533.16	39438.03
533.33	39791.45
533.50	40259.55
533.67	39709.53
533.84	39735.27
534.01	40053.59
534.18	39847.62
534.35	40121.46
534.52	40079.33
534.69	40088.70
534.86	40062.95
535.03	40051.25
535.20	40308.71
535.37	41123.21
535.54	40573.19
535.71	40322.75
535.88	40414.03
536.05	40507.65
536.22	40603.61
536.38	40697.24
536.55	40463.18
536.72	40484.25
536.89	40514.67
537.06	40039.54
537.23	40624.68
537.40	40364.88
537.57	40751.07
537.74	40832.99
537.91	41134.92
538.08	41443.87
538.25	40985.12
538.42	41001.50
538.59	41579.62
538.75	40730.00
538.92	41277.69
539.09	41144.28
539.26	41261.30
539.43	41167.68
539.60	41422.80
539.77	41010.87
539.94	41153.64
540.11	41247.26
540.28	41502.38
540.44	41368.97
540.61	41174.70
540.78	41273.01
540.95	40924.27
541.12	41214.49
541.29	41532.81
541.46	41397.06
541.62	41549.19
541.79	42026.66
541.96	41581.96
542.13	41724.73
542.30	41792.61
542.47	41710.69
542.63	41869.84
542.80	41996.23
542.97	42043.04
543.14	42405.83
543.31	42225.60
543.48	42387.10
543.64	42497.11
543.81	42635.20
543.98	42326.25
544.15	42658.60
544.32	42700.73
544.48	42770.95
544.65	42637.54
544.82	42677.33
544.99	42693.71
545.16	42759.25
545.32	42246.67
545.49	42913.72
545.66	43021.39
545.83	43318.64
546.00	43302.25
546.16	42733.50
546.33	43323.32
546.50	42691.37
546.67	43051.81
546.83	43091.60
547.00	43012.02
547.17	43077.56
547.34	43129.05
547.50	43112.67
547.67	43320.98
547.84	43409.92
548.00	43328.00
548.17	43672.06
548.34	43601.84
548.51	44069.95
548.67	43468.43
548.84	43643.97
549.01	43323.32
549.18	42983.94
549.34	43718.87
549.51	43819.51
549.68	43676.74
549.84	43618.22
550.01	43873.34
550.18	43665.03
550.34	43875.68
550.51	43847.60
550.68	43744.61
550.84	43400.55
551.01	43938.88
551.18	43793.76
551.34	43643.97
551.51	43971.64
551.68	44009.09
551.84	44378.90
552.01	43756.32
552.18	44226.76
552.34	43716.53
552.51	44161.23
552.68	44259.53
552.84	44196.34
553.01	44254.85
553.18	44226.76
553.34	44219.74
553.51	44149.53
553.67	44596.57
553.84	44839.98
554.01	44327.41
554.17	44477.20
554.34	44392.94
554.51	44278.25
554.67	44397.62
554.84	44531.03
555.00	44423.37
555.17	44336.77
555.33	44669.12
555.50	44542.74
555.67	44409.32
555.83	44465.50
556.00	44442.09
556.16	44966.37
556.33	44699.55
556.50	44715.93
556.66	44999.14
556.83	44282.94
556.99	44591.89
557.16	45191.06
557.32	44949.99
557.49	44905.52
557.65	44861.05
557.82	45085.74
557.98	44673.81
558.15	44196.34
558.32	45027.23
558.48	45104.46
558.65	44980.42
558.81	44854.03
558.98	45160.64
559.14	45160.64
559.31	44641.04
559.47	45043.61
559.64	44947.65
559.80	44985.10
559.97	45057.65
560.13	44648.06
560.30	44964.03
560.46	45076.38
560.63	45184.04
560.79	45380.65
560.96	45359.58
561.12	44961.69
561.29	45055.31
561.45	44854.03
561.61	45464.91
561.78	44931.26
561.94	45031.91
562.11	45354.90
562.27	45083.40
562.44	45577.25
562.60	45359.58
562.77	45656.83
562.93	45188.72
563.10	45933.01
563.26	44697.21
563.42	45301.07
563.59	45291.71
563.75	45071.70
563.92	45654.49
564.08	45308.09
564.24	45717.68
564.41	45333.84
564.57	45516.40
564.74	44966.37
564.90	45340.86
565.07	45741.09
565.23	44884.45
565.39	45408.73
565.56	45844.07
565.72	44893.82
565.88	45034.25
566.05	45492.99
566.21	45375.97
566.38	45289.37
566.54	45415.76
566.70	45638.11
566.87	45752.79
567.03	45455.54
567.19	45933.01
567.36	45783.22
567.52	46040.68
567.68	45958.76
567.85	45804.28
568.01	45619.38
568.17	45755.13
568.34	46092.17
568.50	45530.44
568.66	45741.09
568.83	45769.18
568.99	45586.61
569.15	45404.05
569.32	45446.18
569.48	45326.81
569.64	45792.58
569.81	45853.44
569.97	45689.60
570.13	46110.89
570.30	45345.54
570.46	45305.75
570.62	45453.20
570.78	45546.82
570.95	45413.41
571.11	45626.40
571.27	45731.73
571.43	45820.67
571.60	46026.63
571.76	45535.12
571.92	45928.33
572.09	45785.56
572.25	45830.03
572.41	45663.85
572.57	46092.17
572.74	46340.27
572.90	45823.01
573.06	46073.45
573.22	45867.48
573.38	45645.13
573.55	45787.90
573.71	46124.94
573.87	45921.31
574.03	45729.39
574.20	45736.41
574.36	45914.29
574.52	45488.31
574.68	45759.81
574.84	46028.98
575.01	45366.60
575.17	46092.17
575.33	45275.32
575.49	45247.24
575.65	45902.59
575.82	46361.33
575.98	45696.62
576.14	46241.96
576.30	46225.58
576.46	45792.58
576.62	45329.16
576.79	45904.93
576.95	45544.48
577.11	45450.86
577.27	45563.21
577.43	45942.38
577.59	45670.87
577.75	45715.34
577.92	45488.31
578.08	45504.70
578.24	45792.58
578.40	45872.16
578.56	46183.45
578.72	45329.16
578.88	45624.06
579.04	45944.72
579.21	45940.04
579.37	45860.46
579.53	45745.77
579.69	45558.53
579.85	45724.71
580.01	46237.28
580.17	46000.89
580.33	45785.56
580.49	46064.08
580.65	45799.60
580.82	45539.80
580.98	45771.52
581.14	45869.82
581.30	46113.23
581.46	46075.79
581.62	45769.18
581.78	45617.04
581.94	46436.23
582.10	46021.95
582.26	45858.12
582.42	46078.13
582.58	46464.32
582.74	46099.19
582.90	46312.18
583.06	46321.54
583.22	45991.53
583.38	46124.94
583.54	46190.47
583.70	46251.33
583.86	45947.06
584.02	45811.31
584.18	45668.53
584.34	46019.61
584.50	46230.26
584.66	46085.15
584.82	45797.26
584.98	46412.82
585.14	46321.54
585.30	45794.92
585.46	45525.76
585.62	45911.95
585.78	45858.12
585.94	45972.80
586.10	46213.88
586.26	45581.93
586.42	45820.67
586.58	46080.47
586.74	45804.28
586.90	45794.92
587.06	45897.91
587.22	46036.00
587.38	46073.45
587.54	45963.44
587.70	46164.73
587.86	45954.08
588.02	45818.33
588.18	46071.10
588.34	45823.01
588.49	45467.25
588.65	45134.89
588.81	45528.10
588.97	45813.65
589.13	45392.35
589.29	45961.10
589.45	45769.18
589.61	45710.66
589.77	46649.22
589.93	45968.12
590.08	45961.10
590.24	46267.71
590.40	46529.85
590.56	46440.91
590.72	46106.21
590.88	46251.33
591.04	46181.11
591.20	46487.72
591.35	46754.54
591.51	46923.06
591.67	46068.76
591.83	45991.53
591.99	45897.91
592.15	45794.92
592.31	46007.91
592.46	45991.53
592.62	46047.70
592.78	46375.37
592.94	46272.39
593.10	46267.71
593.26	46309.84
593.41	46071.10
593.57	46080.47
593.73	45890.88
593.89	46220.90
594.05	46089.83
594.20	45949.40
594.36	46483.04
594.52	46045.36
594.68	46131.96
594.84	46562.62
594.99	46295.80
595.15	46073.45
595.31	46305.16
595.47	45883.86
595.62	46307.50
595.78	46314.52
595.94	45886.20
596.10	46391.76
596.25	46433.89
596.41	46387.08
596.57	45928.33
596.73	46246.65
596.88	45933.01
597.04	46234.94
597.20	45984.51
597.36	46295.80
597.51	46445.59
597.67	46408.14
597.83	46614.11
597.99	46251.33
598.14	46103.87
598.30	46480.70
598.46	46239.62
598.61	46323.88
598.77	45837.05
598.93	46256.01
599.09	46534.53
599.24	46646.88
599.40	46562.62
599.56	46581.34
599.71	46113.23
599.87	46766.24
600.03	46471.34
600.18	46124.94
600.34	46536.87
600.50	45970.46
600.65	46134.30
600.81	46396.44
600.97	46099.19
601.12	46356.65
601.28	46216.22
601.44	46057.06
601.59	45876.84
601.75	45703.64
601.91	45914.29
602.06	45621.72
602.22	46274.73
602.37	46408.14
602.53	46412.82
602.69	46616.45
602.84	45933.01
603.00	45776.20
603.16	46028.98
603.31	46103.87
603.47	46265.37
603.62	46085.15
603.78	45867.48
603.94	46150.68
604.09	46389.42
604.25	46253.67
604.40	46017.27
604.56	45893.22
604.71	46288.77
604.87	45792.58
605.03	45925.99
605.18	45914.29
605.34	46021.95
605.49	45586.61
605.65	46087.49
605.80	45818.33
605.96	46021.95
606.12	46127.28
606.27	46213.88
606.43	45778.54
606.58	46480.70
606.74	45923.65
606.89	46089.83
607.05	46356.65
607.20	45581.93
607.36	46050.04
607.51	46199.83
607.67	45577.25
607.82	45841.73
607.98	45813.65
608.13	45673.21
608.29	45595.98
608.44	45652.15
608.60	44968.71
608.75	45638.11
608.91	45497.67
609.06	45642.79
609.22	46117.92
609.37	45633.42
609.53	45593.64
609.68	45745.77
609.84	45776.20
609.99	45734.07
610.15	45516.40
610.30	44949.99
610.46	45558.53
610.61	45205.11
610.76	45537.46
610.92	45680.24
611.07	45776.20
611.23	45504.70
611.38	45705.98
611.54	45467.25
611.69	45422.78
611.84	44959.35
612.00	44898.50
612.15	45340.86
612.31	45186.38
612.46	45380.65
612.62	45214.47
612.77	45464.91
612.92	45436.82
613.08	45193.40
613.23	45244.90
613.39	45361.92
613.54	44753.38
613.69	45160.64
613.85	44968.71
614.00	45284.68
614.15	45322.13
614.31	45240.21
614.46	45799.60
614.62	45296.39
614.77	45315.11
614.92	44722.96
615.08	44949.99
615.23	44821.26
615.38	44577.84
615.54	44701.89
615.69	44533.37
615.84	44793.17
616.00	44945.31
616.15	44715.93
616.30	44966.37
616.46	44713.59
616.61	44559.12
616.76	44437.41
616.92	44271.23
617.07	44676.15
617.22	44856.37
617.37	44512.31
617.53	45146.59
617.68	45022.54
617.83	44699.55
617.99	44945.31
618.14	44617.63
618.29	44406.98
618.45	44210.38
618.60	44619.97
618.75	44044.20
618.90	43988.03
619.06	44147.18
619.21	44744.02
619.36	44767.43
619.51	44062.93
619.67	44109.74
619.82	44402.30
619.97	44435.07
620.12	44034.84
620.28	43643.97
620.43	44224.42
620.58	44060.58
620.73	43702.48
620.89	44175.27
621.04	44362.51
621.19	44428.05
621.34	44147.18
621.49	44091.01
621.65	43676.74
621.80	44329.75
621.95	43957.60
622.10	43798.44
622.25	43831.21
622.41	43709.50
622.56	43922.49
622.71	43810.15
622.86	43833.55
623.01	43770.36
623.16	43943.56
623.32	43536.30
623.47	43470.77
623.62	43751.63
623.77	43552.69
623.92	43393.53
624.07	43461.41
624.23	43337.36
624.38	43208.63
624.53	43271.82
624.68	43430.98
624.83	43587.80
624.98	43292.89
625.13	42972.24
625.29	43019.05
625.44	42883.30
625.59	42763.93
625.74	43037.77
625.89	42754.57
626.04	42937.13
626.19	43416.94
626.34	43199.27
626.49	42646.90
626.65	43075.22
626.80	43262.46
626.95	42691.37
627.10	42829.46
627.25	42796.70
627.40	42710.10
627.55	42356.67
627.70	42548.60
627.85	42803.72
628.00	42841.17
628.15	42611.79
628.30	42703.07
628.45	42822.44
628.60	42990.96
628.76	42377.74
628.91	42902.02
629.06	42036.02
629.21	42712.44
629.36	42340.29
629.51	42005.59
629.66	41869.84
629.81	42050.06
629.96	42178.79
630.11	41888.57
630.26	42637.54
630.41	42141.35
630.56	42108.58
630.71	42356.67
630.86	42417.53
631.01	41649.83
631.16	41801.97
631.31	41839.42
631.46	41588.98
631.61	42019.64
631.76	41933.04
631.91	42230.29
632.06	42520.51
632.21	42223.26
632.36	42106.24
632.51	41392.37
632.66	41921.34
632.81	41617.07
632.96	41947.08
633.10	41628.77
633.25	41923.68
633.40	42141.35
633.55	41986.87
633.70	42087.51
633.85	41682.60
634.00	41755.16
634.15	41394.71
634.30	41111.51
634.45	41378.33
634.60	41574.94
634.75	41448.55
634.90	41249.60
635.05	41656.85
635.19	41673.24
635.34	41406.42
635.49	41038.95
635.64	41326.84
635.79	41560.89
635.94	41233.22
636.09	41109.17
636.24	40790.86
636.39	40402.33
636.53	41048.32
636.68	40980.44
636.83	40914.90
636.98	40737.02
637.13	41216.83
637.28	41404.08
637.43	41518.76
637.57	41141.94
637.72	41076.40
637.87	40907.88
638.02	40994.48
638.17	40875.12
638.32	41074.06
638.46	41034.27
638.61	40449.14
638.76	40893.84
638.91	40753.41
639.06	40968.74
639.20	41179.39
639.35	41024.91
639.50	40987.46
639.65	40765.11
639.80	40453.82
639.94	40706.60
640.09	40622.34
640.24	40563.82
640.39	40474.88
640.54	40425.73
640.68	40320.41
640.83	40500.63
640.98	40201.04
641.13	39810.17
641.27	40638.72
641.42	39952.94
641.57	40119.12
641.72	40250.19
641.86	40098.06
642.01	40425.73
642.16	40261.90
642.31	39873.37
642.45	40311.05
642.60	39679.10
642.75	39681.44
642.90	40151.89
643.04	39889.75
643.19	39466.11
643.34	39995.07
643.48	39992.73
643.63	40065.29
643.78	39772.72
643.93	39990.39
644.07	39653.36
644.22	39393.56
644.37	39739.96
644.51	39978.69
644.66	39613.57
644.81	40030.18
644.95	39812.51
645.10	39419.30
645.25	39489.52
645.39	39768.04
645.54	39723.57
645.69	39639.31
645.83	39484.84
645.98	39564.42
646.13	39660.38
646.27	39587.82
646.42	38986.30
646.57	39332.70
646.71	39056.52
646.86	39629.95
647.00	39676.76
647.15	39398.24
647.30	39517.60
647.44	39271.85
647.59	39138.44
647.74	38906.73
647.88	39054.18
648.03	39222.70
648.17	39117.37
648.32	38618.84
648.47	38878.64
648.61	39323.34
648.76	39100.99
648.90	38946.51
649.05	39014.39
649.20	38993.32
649.34	38993.32
649.49	38480.75
649.63	38607.14
649.78	38735.87
649.92	38962.90
650.07	38857.57
650.21	38602.46
650.36	38642.24
650.51	38431.60
650.65	39168.87
650.80	39075.24
650.94	38897.36
651.09	38911.41
651.23	38284.14
651.38	38267.76
651.52	38363.72
651.67	38106.26
651.81	38436.28
651.96	38106.26
652.10	38375.42
652.25	38052.43
652.39	38836.51
652.54	38349.68
652.68	38183.50
652.83	38314.57
652.97	38682.03
653.12	38543.94
653.26	38164.78
653.41	37977.53
653.55	38038.39
653.70	38113.28
653.84	37944.76
653.99	38272.44
654.13	37813.70
654.27	37663.90
654.42	38033.71
654.56	37970.51
654.71	38370.74
654.85	38249.03
655.00	37989.24
655.14	37778.59
655.29	37612.41
655.43	37572.62
655.57	37111.53
655.72	37373.67
655.86	37195.79
656.01	37055.36
656.15	37097.49
656.30	37181.75
656.44	36828.33
656.58	37148.98
656.73	37486.02
656.87	37081.11
657.01	36964.08
657.16	37357.29
657.30	37120.90
657.45	36762.79
657.59	36996.85
657.73	37156.00
657.88	37291.76
658.02	37455.59
658.16	37401.76
658.31	37280.05
658.45	37439.21
658.60	37081.11
658.74	37247.29
658.88	37017.91
659.03	37102.17
659.17	36545.12
659.31	36708.96
659.46	36727.69
659.60	36973.44
659.74	36802.58
659.89	36690.24
660.03	36203.41
660.17	36842.37
660.32	36676.19
660.46	36811.95
660.60	36329.80
660.74	36250.22
660.89	36158.94
661.03	36137.87
661.17	36198.73
661.32	36343.84
661.46	36533.42
661.60	36320.43
661.74	35805.52
661.89	36121.49
662.03	36348.52
662.17	36018.50
662.31	36062.97
662.46	36327.45
662.60	36208.09
662.74	35920.20
662.88	35594.87
663.03	35761.05
663.17	35964.67
663.31	35477.84
663.45	35669.76
663.60	35442.73
663.74	35257.83
663.88	35037.82
664.02	35204.00
664.17	35690.83
664.31	35133.78
664.45	35119.74
664.59	35360.81
664.73	35079.95
664.88	35407.62
665.02	34848.24
665.16	34761.64
665.30	34501.84
665.44	34895.05
665.59	34515.88
665.73	34656.31
665.87	34457.37
666.01	34494.82
666.15	34672.70
666.29	34803.77
666.44	34721.85
666.58	34717.17
666.72	34419.92
666.86	34335.66
667.00	34466.73
667.14	34225.65
667.28	34134.37
667.43	34242.04
667.57	34373.11
667.71	33844.15
667.85	34052.45
667.99	34223.31
668.13	33876.91
668.27	34136.71
668.41	34188.21
668.56	33902.66
668.70	33720.10
668.84	33446.26
668.98	33762.23
669.12	33436.89
669.26	33387.74
669.40	33401.79
669.54	33525.83
669.68	33027.30
669.82	33256.67
669.96	33235.61
670.10	33031.98
670.25	32989.85
670.39	32954.74
670.53	32716.01
670.67	33067.09
670.81	33050.70
670.95	32666.86
671.09	32783.88
671.23	32367.27
671.37	32531.11
671.51	32620.05
671.65	32545.15
671.79	32301.73
671.93	32215.13
672.07	32261.94
672.21	32629.41
672.35	32205.77
672.49	32102.79
672.63	32287.69
672.77	32098.11
672.91	32128.53
673.05	31716.60
673.19	31754.05
673.33	31714.26
673.47	31714.26
673.61	31342.11
673.75	31150.19
673.89	31318.71
674.03	31496.59
674.17	31138.49
674.31	31477.86
674.45	31105.72
674.59	31108.06
674.73	31360.84
674.87	31197.00
675.01	30675.06
675.15	30948.90
675.29	30822.51
675.43	31051.89
675.56	30635.27
675.70	30548.67
675.84	30375.47
675.98	29865.24
676.12	30169.51
676.26	30782.73
676.40	30340.36
676.54	30403.56
676.68	30216.32
676.82	29469.69
676.96	29876.94
677.10	30260.79
677.23	29467.34
677.37	29345.64
677.51	29556.28
677.65	29413.51
677.79	28957.11
677.93	29076.48
678.07	29254.36
678.21	28741.78
678.34	28701.99
678.48	28917.32
678.62	28526.45
678.76	28517.09
678.90	28521.77
679.04	28238.56
679.18	28147.28
679.31	28210.48
679.45	28407.08
679.59	27831.31
679.73	28009.19
679.87	27892.16
680.00	28009.19
680.14	27569.17
680.28	27847.69
680.42	27833.65
680.56	27424.06
680.70	27431.08
680.83	27585.55
680.97	27157.24
681.11	27295.33
681.25	27070.64
681.39	27271.92
681.52	26920.84
681.66	27033.19
681.80	26794.45
681.94	26614.23
682.07	26501.89
682.21	26331.03
682.35	26602.53
682.49	26408.26
682.62	26286.56
682.76	25898.03
682.90	25898.03
683.04	26197.62
683.17	26111.02
683.31	25734.19
683.45	25872.28
683.59	25530.56
683.72	25301.19
683.86	25722.49
684.00	25958.88
684.13	25560.99
684.27	25127.99
684.41	24907.98
684.55	24868.19
684.68	25025.01
684.82	25142.03
684.96	24989.90
685.09	25029.69
685.23	24985.22
685.37	24634.14
685.50	24772.23
685.64	24865.85
685.78	24505.41
685.91	24521.79
686.05	24041.98
686.19	23967.09
686.32	24065.39
686.46	23784.52
686.60	23105.77
686.73	23428.76
686.87	23009.81
687.01	23290.67
687.14	22733.62
687.28	22834.27
687.42	23044.91
687.55	23145.56
687.69	22852.99
687.82	22815.54
687.96	22775.75
688.10	22750.01
688.23	22501.91
688.37	22361.48
688.50	22424.67
688.64	22494.89
688.78	22419.99
688.91	22164.87
689.05	22001.04
689.18	21912.10
689.32	21465.05
689.46	22230.41
689.59	22129.77
689.73	21839.54
689.86	21617.19
690.00	21385.47
690.13	21649.96
690.27	21284.83
690.41	21654.64
690.54	21113.97
690.68	21305.90
690.81	21624.21
690.95	21111.63
691.08	21343.35
691.22	20947.79
691.35	20975.88
691.49	21245.04
691.62	20985.24
691.76	20685.65
691.89	21036.74
692.03	20503.09
692.16	20552.24
692.30	20526.50
692.43	20376.70
692.57	20189.46
692.70	20184.78
692.84	20030.30
692.97	19796.25
693.11	19641.78
693.24	19770.51
693.38	19475.60
693.51	19571.56
693.65	19580.92
693.78	19604.33
693.92	19276.65
694.05	19222.82
694.19	19377.30
694.32	19187.71
694.45	19257.93
694.59	19164.31
694.72	18981.74
694.86	18738.33
694.99	18752.37
695.13	18838.97
695.26	18794.50
695.39	18457.46
695.53	18558.11
695.66	18682.16
695.80	18450.44
695.93	18202.35
696.07	18405.97
696.20	18209.37
696.33	18064.25
696.47	17874.67
696.60	18019.78
696.73	17752.96
696.87	17696.79
697.00	17654.66
697.14	17355.07
697.27	17619.55
697.40	17607.85
697.54	17418.27
697.67	17249.75
697.80	17338.69
697.94	16854.20
698.07	17006.33
698.21	17018.04
698.34	16971.22
698.47	17081.23
698.61	16688.02
698.74	16893.99
698.87	16683.34
699.01	16585.04
699.14	16421.20
699.27	16116.93
699.40	16517.16
699.54	16135.65
699.67	16428.22
699.80	16245.66
699.94	15807.98
700.07	16072.46
700.20	16130.97
700.34	15988.20
700.47	15822.02
700.60	15892.24
700.73	15796.28
700.87	15609.03
701.00	15651.16
701.13	15695.63
701.26	15414.77
701.40	15749.46
701.53	15145.61
701.66	15140.93
701.79	15105.82
701.93	15103.48
702.06	14876.44
702.19	14843.68
702.32	14572.18
702.46	14375.57
702.59	14878.79
702.72	14757.08
702.85	14387.27
702.99	14743.03
703.12	14628.35
703.25	14544.09
703.38	14244.50
703.51	14305.35
703.65	14338.12
703.78	14258.54
703.91	13984.70
704.04	14075.98
704.17	13874.70
704.31	14003.43
704.44	13713.20
704.57	13977.68
704.70	13820.86
704.83	13736.60
704.96	13802.14
705.10	13858.31
705.23	13579.79
>>>>>End Processed Spectral Data<<<<<
