SpectraSuite Data File
++++++++++++++++++++++++++++++++++++
Date: Fri Oct 25 11:34:06 EDT 2013
User: price-jones
Dark Spectrum Present: No
Reference Spectrum Present: No
Number of Sampled Component Spectra: 1
Spectrometers: USB2+H05261
Integration Time (usec): 100000 (USB2+H05261)
Spectra Averaged: 1 (USB2+H05261)
Boxcar Smoothing: 0 (USB2+H05261)
Correct for Electrical Dark: No (USB2+H05261)
Strobe/Lamp Enabled: No (USB2+H05261)
Correct for Detector Non-linearity: No (USB2+H05261)
Correct for Stray Light: No (USB2+H05261)
Number of Pixels in Processed Spectrum: 2048
>>>>>Begin Processed Spectral Data<<<<<
365.73	231.71
365.92	231.71
366.12	231.71
366.32	245.76
366.52	170.86
366.72	205.97
366.91	131.07
367.11	227.03
367.31	100.64
367.51	133.41
367.70	159.16
367.90	142.77
368.10	184.90
368.30	220.01
368.49	152.13
368.69	217.67
368.89	191.92
369.09	93.62
369.28	205.97
369.48	201.29
369.68	231.71
369.87	248.10
370.07	264.48
370.27	297.25
370.47	285.55
370.66	414.27
370.86	538.32
371.06	503.22
371.25	545.34
371.45	545.34
371.65	552.37
371.84	545.34
372.04	552.37
372.24	596.84
372.44	580.45
372.63	573.43
372.83	610.88
373.03	585.13
373.22	517.26
373.42	603.86
373.62	578.11
373.81	657.69
374.01	610.88
374.21	636.63
374.40	709.18
374.60	704.50
374.79	674.07
374.99	681.10
375.19	617.90
375.38	624.92
375.58	601.52
375.78	699.82
375.97	676.41
376.17	720.88
376.37	678.76
376.56	692.80
376.76	643.65
376.95	723.23
377.15	662.37
377.35	669.39
377.54	777.06
377.74	636.63
377.93	704.50
378.13	690.46
378.33	723.23
378.52	582.79
378.72	697.48
378.91	702.16
379.11	683.44
379.31	624.92
379.50	662.37
379.70	741.95
379.89	720.88
380.09	671.73
380.28	772.38
380.48	746.63
380.68	638.97
380.87	716.20
381.07	737.27
381.26	760.67
381.46	753.65
381.65	779.40
381.85	697.48
382.04	763.01
382.24	751.31
382.43	828.55
382.63	784.08
382.83	821.53
383.02	854.30
383.22	889.40
383.41	819.19
383.61	835.57
383.80	812.17
384.00	844.93
384.19	798.12
384.39	732.59
384.58	819.19
384.78	884.72
384.97	781.74
385.17	725.57
385.36	807.48
385.56	915.15
385.75	833.23
385.95	823.87
386.14	889.40
386.34	833.23
386.53	861.32
386.72	844.93
386.92	889.40
387.11	919.83
387.31	896.43
387.50	819.19
387.70	823.87
387.89	833.23
388.09	828.55
388.28	896.43
388.48	880.04
388.67	980.68
388.86	926.85
389.06	896.43
389.25	929.19
389.45	931.53
389.64	947.92
389.84	929.19
390.03	933.87
390.22	933.87
390.42	870.68
390.61	922.17
390.81	990.05
391.00	1032.18
391.19	1086.01
391.39	1050.90
391.58	1015.79
391.78	973.66
391.97	987.71
392.16	861.32
392.36	1078.99
392.55	1004.09
392.75	1149.20
392.94	1043.88
393.13	1076.65
393.33	1020.47
393.52	1015.79
393.71	1095.37
393.91	1095.37
394.10	1043.88
394.29	1050.90
394.49	1100.05
394.68	1160.91
394.88	1090.69
395.07	1139.84
395.26	1156.22
395.46	1100.05
395.65	1039.20
395.84	1196.01
396.04	1207.72
396.23	1181.97
396.42	1231.12
396.62	1273.25
396.81	1149.20
397.00	1205.38
397.19	1179.63
397.39	1233.46
397.58	1214.74
397.77	1184.31
397.97	1249.85
398.16	1320.06
398.35	1327.08
398.55	1174.95
398.74	1306.02
398.93	1310.70
399.12	1240.48
399.32	1200.69
399.51	1245.16
399.70	1226.44
399.90	1327.08
400.09	1334.11
400.28	1383.26
400.47	1399.64
400.67	1385.60
400.86	1446.45
401.05	1425.39
401.24	1432.41
401.44	1427.73
401.63	1490.92
401.82	1519.01
402.01	1488.58
402.21	1366.87
402.40	1479.22
402.59	1399.64
402.78	1451.13
402.97	1561.14
403.17	1542.41
403.36	1507.30
403.55	1554.12
403.74	1481.56
403.93	1460.49
404.13	1490.92
404.32	1544.75
404.51	1521.35
404.70	1661.78
404.89	1575.18
405.09	1647.74
405.28	1664.12
405.47	1685.19
405.66	1694.55
405.85	1657.10
406.05	1650.08
406.24	1706.25
406.43	1717.95
406.62	1689.87
406.81	1820.94
407.00	1755.40
407.20	1846.68
407.39	1827.96
407.58	1811.57
407.77	1741.36
407.96	1774.13
408.15	1842.00
408.34	1823.28
408.54	1909.88
408.73	1884.13
408.92	1909.88
409.11	1893.49
409.30	1963.71
409.49	1933.28
409.68	1893.49
409.87	1919.24
410.07	2036.27
410.26	1954.35
410.45	2010.52
410.64	2064.35
410.83	2047.97
411.02	2066.69
411.21	2090.10
411.40	2146.27
411.59	2204.78
411.78	2157.97
411.98	2115.84
412.17	2059.67
412.36	2310.11
412.55	2284.36
412.74	2305.43
412.93	2223.51
413.12	2333.51
413.31	2375.64
413.50	2363.94
413.69	2314.79
413.88	2424.80
414.07	2366.28
414.26	2403.73
414.45	2394.37
414.64	2459.90
414.83	2504.37
415.02	2509.05
415.22	2534.80
415.41	2661.19
415.60	2438.84
415.79	2593.31
415.98	2780.56
416.17	2581.61
416.36	2693.96
416.55	2656.51
416.74	2771.19
416.93	2799.28
417.12	2670.55
417.31	2792.26
417.50	2820.35
417.69	2848.43
417.88	2956.10
418.07	2906.95
418.26	2829.71
418.45	2963.12
418.64	2949.08
418.83	3066.10
419.02	3045.04
419.21	2939.71
419.39	3023.97
419.58	3056.74
419.77	2942.05
419.96	3045.04
420.15	3094.19
420.34	3211.22
420.53	3042.70
420.72	3248.66
420.91	3122.27
421.10	3274.41
421.29	3349.31
421.48	3169.09
421.67	3265.05
421.86	3143.34
422.05	3267.39
422.24	3211.22
422.43	3330.58
422.61	3227.60
422.80	3318.88
422.99	3316.54
423.18	3382.07
423.37	3382.07
423.56	3300.16
423.75	3211.22
423.94	3180.79
424.13	3101.21
424.32	3152.70
424.50	3407.82
424.69	3435.91
424.88	3426.54
425.07	3379.73
425.26	3382.07
425.45	3435.91
425.64	3283.77
425.83	3363.35
426.01	3461.65
426.20	3382.07
426.39	3391.44
426.58	3506.12
426.77	3384.41
426.96	3419.52
427.15	3396.12
427.33	3534.21
427.52	3475.70
427.71	3566.98
427.90	3407.82
428.09	3590.38
428.28	3534.21
428.46	3534.21
428.65	3538.89
428.84	3592.72
429.03	3740.18
429.22	3737.84
429.40	3733.15
429.59	3822.09
429.78	3625.49
429.97	3576.34
430.16	3770.60
430.34	3810.39
430.53	3875.93
430.72	3768.26
430.91	3784.65
431.10	3763.58
431.28	3871.25
431.47	3868.91
431.66	3843.16
431.85	3873.59
432.03	3852.52
432.22	4004.66
432.41	3974.23
432.60	3817.41
432.79	3971.89
432.97	4159.13
433.16	3992.95
433.35	4128.70
433.54	4007.00
433.72	4287.86
433.91	4168.49
434.10	4227.01
434.28	4124.02
434.47	4180.20
434.66	4109.98
434.85	4215.30
435.03	4264.46
435.22	4376.80
435.41	4376.80
435.59	4449.36
435.78	4290.20
435.97	4269.14
436.16	4322.97
436.34	4290.20
436.53	4341.69
436.72	4475.10
436.90	4308.93
437.09	4400.21
437.28	4355.74
437.46	4507.87
437.65	4299.56
437.84	4479.79
438.02	4472.76
438.21	4596.81
438.40	4421.27
438.58	4660.01
438.77	4533.62
438.96	4657.67
439.14	4828.53
439.33	4664.69
439.52	4830.87
439.70	4805.12
439.89	4828.53
440.08	5057.90
440.26	4924.49
440.45	4910.44
440.63	5053.22
440.82	5097.69
441.01	4992.36
441.19	5004.07
441.38	5207.69
441.57	5191.31
441.75	5020.45
441.94	5364.51
442.12	5282.59
442.31	5345.78
442.50	5219.39
442.68	5362.17
442.87	5441.75
443.05	5390.25
443.24	5397.28
443.43	5430.04
443.61	5502.60
443.80	5586.86
443.98	5458.13
444.17	5296.63
444.35	5345.78
444.54	5717.93
444.73	5453.45
444.91	5481.53
445.10	5579.84
445.28	5495.58
445.47	5451.11
445.65	5598.56
445.84	5547.07
446.02	5607.92
446.21	5605.58
446.39	5490.90
446.58	5736.65
446.77	5575.16
446.95	5467.49
447.14	5713.25
447.32	5687.50
447.51	5584.52
447.69	5661.76
447.88	5731.97
448.06	5696.86
448.25	5554.09
448.43	5591.54
448.62	5724.95
448.80	5645.37
448.99	5769.42
449.17	5762.40
449.36	5830.27
449.54	5774.10
449.73	5895.81
449.91	6052.63
450.10	5909.85
450.28	6083.05
450.46	6064.33
450.65	6139.23
450.83	5921.56
451.02	5970.71
451.20	6317.11
451.39	6115.82
451.57	6094.76
451.76	5975.39
451.94	6139.23
452.13	6122.84
452.31	6136.88
452.49	6031.56
452.68	6263.27
452.86	6237.53
453.05	6476.26
453.23	6232.85
453.42	6345.19
453.60	6356.90
453.78	6392.00
453.97	6106.46
454.15	6394.34
454.34	6214.12
454.52	6434.13
454.70	6277.32
454.89	6553.50
455.07	6616.69
455.26	6394.34
455.44	6679.89
455.62	6356.90
455.81	6700.95
455.99	6626.06
456.17	6733.72
456.36	6633.08
456.54	6644.78
456.73	6642.44
456.91	6810.96
457.09	6736.06
457.28	7063.74
457.46	6890.54
457.64	6979.48
457.83	6881.18
458.01	6899.90
458.19	6974.80
458.38	6981.82
458.56	6942.03
458.74	7023.95
458.93	7115.23
459.11	7098.84
459.29	6960.75
459.48	7023.95
459.66	7110.55
459.84	7070.76
460.03	7393.75
460.21	7391.41
460.39	7190.13
460.57	7101.19
460.76	7470.99
460.94	7353.96
461.12	7506.10
461.31	7353.96
461.49	7339.92
461.67	7286.09
461.85	7536.52
462.04	7204.17
462.22	7775.26
462.40	7597.38
462.59	7679.30
462.77	7382.05
462.95	7667.60
463.13	7712.07
463.32	7555.25
463.50	7719.09
463.68	7644.19
463.86	7801.01
464.05	7660.57
464.23	7634.83
464.41	7822.07
464.59	7562.27
464.78	7962.50
464.96	7777.60
465.14	7798.66
465.32	7798.66
465.50	8063.15
465.69	8093.57
465.87	8145.06
466.05	8030.38
466.23	7833.77
466.41	8013.99
466.60	8116.98
466.78	8060.80
466.96	7939.10
467.14	7967.18
467.32	8182.51
467.51	8238.69
467.69	7901.65
467.87	8138.04
468.05	8245.71
468.23	8081.87
468.41	8070.17
468.60	8215.28
468.78	8187.19
468.96	8039.74
469.14	8109.96
469.32	8400.18
469.50	8348.69
469.69	8374.44
469.87	8439.97
470.05	8631.90
470.23	8454.02
470.41	8657.64
470.59	8699.77
470.77	8514.87
470.95	8795.73
471.14	8903.40
471.32	8505.51
471.50	8725.52
471.68	8774.67
471.86	8898.72
472.04	9102.34
472.22	9205.33
472.40	8924.46
472.58	9029.79
472.77	9027.45
472.95	8980.64
473.13	9612.58
473.31	9167.88
473.49	9315.33
473.67	9334.06
473.85	9387.89
474.03	9528.32
474.21	9528.32
474.39	9446.40
474.57	9430.02
474.75	9745.99
474.93	9792.80
475.12	9916.85
475.30	9895.78
475.48	9734.29
475.66	9933.23
475.84	9731.95
476.02	9905.15
476.20	9926.21
476.38	10064.30
476.56	10291.34
476.74	10246.87
476.92	10377.94
477.10	10164.95
477.28	10258.57
477.46	10476.24
477.64	10583.90
477.82	10787.53
478.00	11133.93
478.18	10850.72
478.36	10942.00
478.54	10960.73
478.72	10979.45
478.90	11269.68
479.08	11250.96
479.26	11503.73
479.44	11398.41
479.62	11396.07
479.80	11466.28
479.98	11520.12
480.16	11988.22
480.34	11831.41
480.52	11941.41
480.70	11983.54
480.88	11791.62
481.06	12154.40
481.24	12077.16
481.41	12297.17
481.59	12348.67
481.77	12564.00
481.95	12517.18
482.13	12828.48
482.31	12704.43
482.49	13043.81
482.67	12872.95
482.85	13116.36
483.03	13167.85
483.21	13369.14
483.39	13411.27
483.57	13558.72
483.74	13879.38
483.92	13916.83
484.10	13469.78
484.28	14146.20
484.46	13935.55
484.64	14373.23
484.82	14279.61
485.00	14310.04
485.18	14754.74
485.35	14672.82
485.53	14764.10
485.71	14693.88
485.89	14972.41
486.07	15117.52
486.25	15241.57
486.43	14958.36
486.61	15295.40
486.78	15611.37
486.96	15452.22
487.14	15719.04
487.32	15660.52
487.50	15976.50
487.68	16060.76
487.85	16149.70
488.03	16320.56
488.21	16601.42
488.39	16465.67
488.57	16709.08
488.75	16889.31
488.92	16826.11
489.10	17116.34
489.28	17341.03
489.46	17139.74
489.64	17694.45
489.81	18015.10
489.99	17614.87
490.17	18022.12
490.35	18050.21
490.53	18373.21
490.70	18347.46
490.88	18148.51
491.06	18576.83
491.24	18455.12
491.41	18349.80
491.59	18841.31
491.77	18855.36
491.95	18836.63
492.13	18986.43
492.30	18939.62
492.48	19180.69
492.66	19192.39
492.84	19293.04
493.01	19887.53
493.19	19784.55
493.37	19590.28
493.54	19990.52
493.72	20205.84
493.90	19896.89
494.08	20329.89
494.25	20137.97
494.43	20306.49
494.61	20388.41
494.79	20741.83
494.96	20755.87
495.14	21062.48
495.32	21050.78
495.49	21020.35
495.67	21064.82
495.85	21245.04
496.02	21472.07
496.20	21745.92
496.38	21837.20
496.55	21783.37
496.73	22387.22
496.91	22445.74
497.09	22190.62
497.26	22307.65
497.44	22340.41
497.62	22691.49
497.79	22995.76
497.97	22824.90
498.14	23225.14
498.32	23323.44
498.50	23398.34
498.67	23208.75
498.85	23641.75
499.03	23651.11
499.20	23498.98
499.38	23440.47
499.56	23821.97
499.73	24121.56
499.91	23871.12
500.08	24341.57
500.26	24151.99
500.44	24114.54
500.61	24561.58
500.79	23728.35
500.97	24453.92
501.14	24606.05
501.32	24608.39
501.49	24769.89
501.67	24830.74
501.84	25277.79
502.02	25303.53
502.20	25036.71
502.37	25055.43
502.55	25230.98
502.72	25579.71
502.90	25486.09
503.07	25378.43
503.25	25383.11
503.43	25659.29
503.60	25600.78
503.78	25832.49
503.95	25551.63
504.13	25696.74
504.30	25956.54
504.48	26202.30
504.65	26586.15
504.83	26321.66
505.01	26284.22
505.18	26600.19
505.36	26988.72
505.53	26415.29
505.71	26813.18
505.88	27150.21
506.06	26654.02
506.23	26764.03
506.41	27201.71
506.58	27096.38
506.76	27314.05
506.93	27538.74
507.11	27702.58
507.28	27363.20
507.46	27445.12
507.63	27639.39
507.81	27740.03
507.98	28013.87
508.16	27747.05
508.33	27477.89
508.50	28041.96
508.68	28261.97
508.85	28308.78
509.03	27941.32
509.20	28364.95
509.38	28400.06
509.55	28645.82
509.73	28861.15
509.90	28802.63
510.08	28629.43
510.25	28599.01
510.42	28919.66
510.60	29015.62
510.77	29266.06
510.95	29310.53
511.12	29408.83
511.30	28959.45
511.47	29439.26
511.64	29167.76
511.82	29268.40
511.99	29963.54
512.17	29816.08
512.34	30101.63
512.51	30139.08
512.69	29848.85
512.86	30181.21
513.04	30405.90
513.21	30321.64
513.38	30569.74
513.56	30735.92
513.73	30225.68
513.90	30305.26
514.08	30096.95
514.25	30527.61
514.43	30583.78
514.60	30756.98
514.77	30644.63
514.95	31281.26
515.12	30984.01
515.29	31213.38
515.47	31278.92
515.64	31393.61
515.81	30981.67
515.99	31508.29
516.16	31447.44
516.33	31068.27
516.51	31824.26
516.68	31688.51
516.85	31761.07
517.03	32016.19
517.20	31908.52
517.37	31955.33
517.54	32212.79
517.72	31803.20
517.89	31969.38
518.06	32554.51
518.24	32308.76
518.41	32210.45
518.58	32294.71
518.75	32109.81
518.93	32563.87
519.10	32217.47
519.27	32818.99
519.45	32697.28
519.62	33146.67
519.79	32844.74
519.96	32856.44
520.14	32996.87
520.31	32795.59
520.48	33464.98
520.65	33329.23
520.83	34033.73
521.00	33633.50
521.17	33673.29
521.34	33443.91
521.52	34120.33
521.69	34022.03
521.86	34099.26
522.03	34230.33
522.20	33757.55
522.38	34660.99
522.55	34167.14
522.72	33961.17
522.89	34232.68
523.07	34464.39
523.24	34270.12
523.41	34543.97
523.58	34436.30
523.75	34497.16
523.92	34448.00
524.10	34756.96
524.27	34719.51
524.44	35119.74
524.61	35051.86
524.78	35168.89
524.96	35108.04
525.13	35541.03
525.30	35349.11
525.47	35519.97
525.64	35218.04
525.81	35292.94
525.98	35639.34
526.16	35412.31
526.33	35461.46
526.50	35922.54
526.67	35660.40
526.84	35882.75
527.01	35658.06
527.18	35812.54
527.36	35601.89
527.53	35999.78
527.70	36196.38
527.87	36168.30
528.04	35948.29
528.21	36137.87
528.38	36254.90
528.55	36163.62
528.72	36306.39
528.89	36517.04
529.07	36332.14
529.24	36046.59
529.41	36711.30
529.58	36737.05
529.75	36694.92
529.92	36720.66
530.09	36636.41
530.26	36912.59
530.43	37139.62
530.60	36872.80
530.77	36886.84
530.94	36905.57
531.11	37085.79
531.28	37240.26
531.46	37177.07
531.63	37343.25
531.80	37212.18
531.97	37247.29
532.14	37376.01
532.31	37247.29
532.48	37876.89
532.65	37415.80
532.82	37521.13
532.99	37720.07
533.16	37528.15
533.33	37876.89
533.50	37699.01
533.67	37895.61
533.84	37525.81
534.01	37919.02
534.18	38010.30
534.35	38527.56
534.52	37944.76
534.69	38031.36
534.86	38604.80
535.03	38408.19
535.20	38405.85
535.37	38380.10
535.54	38754.59
535.71	39014.39
535.88	38993.32
536.05	38724.16
536.22	38761.61
536.38	38536.92
536.55	38646.93
536.72	38836.51
536.89	39016.73
537.06	38806.08
537.23	38953.54
537.40	38642.24
537.57	39161.84
537.74	39152.48
537.91	39070.56
538.08	39421.64
538.25	38885.66
538.42	38902.04
538.59	39571.44
538.75	38740.55
538.92	39201.63
539.09	39690.80
539.26	39791.45
539.43	39903.79
539.60	39585.48
539.77	39777.40
539.94	39976.35
540.11	39908.47
540.28	39569.10
540.44	39840.60
540.61	40128.48
540.78	40044.23
540.95	40126.14
541.12	40222.11
541.29	39360.79
541.46	40245.51
541.62	40093.38
541.79	40399.99
541.96	40187.00
542.13	40495.95
542.30	40147.21
542.47	40655.11
542.63	40383.60
542.80	40811.92
542.97	41010.87
543.14	40914.90
543.31	40727.66
543.48	41289.39
543.64	41153.64
543.81	40858.73
543.98	40942.99
544.15	40903.20
544.32	40928.95
544.48	41188.75
544.65	41418.12
544.82	41446.21
544.99	41439.18
545.16	41375.99
545.32	41261.30
545.49	41801.97
545.66	41715.37
545.83	41387.69
546.00	41949.42
546.16	41708.35
546.33	41361.95
546.50	41425.14
546.67	41717.71
546.83	41387.69
547.00	41399.40
547.17	41258.96
547.34	41766.86
547.50	41745.80
547.67	42330.93
547.84	42218.58
548.00	42520.51
548.17	42492.43
548.34	42377.74
548.51	42738.18
548.67	42567.32
548.84	42234.97
549.01	41769.20
549.18	42469.02
549.34	42347.31
549.51	42120.28
549.68	42539.24
549.84	42490.09
550.01	42691.37
550.18	42239.65
550.34	42550.94
550.51	42609.45
550.68	42780.31
550.84	42426.89
551.01	42806.06
551.18	42462.00
551.34	42817.76
551.51	42773.29
551.68	42796.70
551.84	42923.08
552.01	42721.80
552.18	42815.42
552.34	42841.17
552.51	43351.40
552.68	42848.19
552.84	43103.31
553.01	43033.09
553.18	43175.86
553.34	43203.95
553.51	43119.69
553.67	43143.09
553.84	43335.02
554.01	43704.82
554.17	43428.64
554.34	43777.38
554.51	43782.06
554.67	43896.75
554.84	43557.37
555.00	43498.86
555.17	43070.54
555.33	43761.00
555.50	43707.16
555.67	43725.89
555.83	43761.00
556.00	44037.18
556.16	44060.58
556.33	43999.73
556.50	44065.27
556.66	43966.96
556.83	43915.47
556.99	44252.51
557.16	44680.83
557.32	44362.51
557.49	44196.34
557.65	44023.14
557.82	44161.23
557.98	44009.09
558.15	44252.51
558.32	44140.16
558.48	43686.10
558.65	44327.41
558.81	43959.94
558.98	44334.43
559.14	44341.45
559.31	44123.78
559.47	44137.82
559.64	44432.73
559.80	44271.23
559.97	44521.67
560.13	44350.81
560.30	44315.70
560.46	44767.43
560.63	44779.13
560.79	44554.44
560.96	44896.16
561.12	44636.36
561.29	44868.07
561.45	44835.30
561.61	44477.20
561.78	44786.15
561.94	44479.54
562.11	44837.64
562.27	44734.66
562.44	44893.82
562.60	44903.18
562.77	44760.40
562.93	44678.49
563.10	44921.90
563.26	44891.48
563.42	45272.98
563.59	44928.92
563.75	44676.15
563.92	44898.50
564.08	44755.72
564.24	45195.74
564.41	44903.18
564.57	44919.56
564.74	45366.60
564.90	45144.25
565.07	44938.29
565.23	44971.05
565.39	45125.53
565.56	45216.81
565.72	45198.09
565.88	44863.39
566.05	45329.16
566.21	45680.24
566.38	45172.34
566.54	45071.70
566.70	45570.23
566.87	45406.39
567.03	45144.25
567.19	45523.42
567.36	45280.00
567.52	45221.49
567.68	45581.93
567.85	45382.99
568.01	45111.49
568.17	45464.91
568.34	45492.99
568.50	45694.28
568.66	45179.36
568.83	45258.94
568.99	45401.71
569.15	45560.87
569.32	45202.77
569.48	45287.03
569.64	45907.27
569.81	45350.22
569.97	45691.94
570.13	45806.62
570.30	45275.32
570.46	46085.15
570.62	45853.44
570.78	45815.99
570.95	45612.36
571.11	46321.54
571.27	45748.11
571.43	45624.06
571.60	45729.39
571.76	45193.40
571.92	45645.13
572.09	46122.60
572.25	45628.74
572.41	45567.89
572.57	45535.12
572.74	46307.50
572.90	45785.56
573.06	45790.24
573.22	46181.11
573.38	46061.74
573.55	46670.28
573.71	46398.78
573.87	45975.14
574.03	45603.00
574.20	45979.82
574.36	46206.86
574.52	45865.14
574.68	46026.63
574.84	45820.67
575.01	46366.01
575.17	46080.47
575.33	46195.15
575.49	46169.41
575.65	46382.40
575.82	46124.94
575.98	46012.59
576.14	46122.60
576.30	46384.74
576.46	46218.56
576.62	45792.58
576.79	46354.31
576.95	45647.47
577.11	45879.18
577.27	45858.12
577.43	45921.31
577.59	46059.40
577.75	45621.72
577.92	46068.76
578.08	45881.52
578.24	46155.36
578.40	46447.93
578.56	46358.99
578.72	46279.41
578.88	45734.07
579.04	46108.55
579.21	46122.60
579.37	46108.55
579.53	46344.95
579.69	46239.62
579.85	45607.68
580.01	46000.89
580.17	46356.65
580.33	46031.32
580.49	45982.16
580.65	46438.57
580.82	46438.57
580.98	46103.87
581.14	45890.88
581.30	46106.21
581.46	46178.77
581.62	46106.21
581.78	46124.94
581.94	46536.87
582.10	45886.20
582.26	46522.83
582.42	46213.88
582.58	46134.30
582.74	46550.91
582.90	46192.81
583.06	46286.43
583.22	46464.32
583.38	46431.55
583.54	46539.21
583.70	46078.13
583.86	46593.04
584.02	46124.94
584.18	46642.20
584.34	46761.56
584.50	46614.11
584.66	46302.82
584.82	46553.26
584.98	46759.22
585.14	46754.54
585.30	46476.02
585.46	46263.03
585.62	46314.52
585.78	46436.23
585.94	46274.73
586.10	46614.11
586.26	46461.97
586.42	46286.43
586.58	46717.09
586.74	46024.29
586.90	45916.63
587.06	46272.39
587.22	46571.98
587.38	46185.79
587.54	46550.91
587.70	46871.57
587.86	46483.04
588.02	46454.95
588.18	46515.81
588.34	46635.17
588.49	46422.19
588.65	46312.18
588.81	46230.26
588.97	46450.27
589.13	46550.91
589.29	46672.62
589.45	46534.53
589.61	46499.42
589.77	46574.32
589.93	46373.03
590.08	46899.65
590.24	46880.93
590.40	46923.06
590.56	47044.77
590.72	46944.12
590.88	46866.89
591.04	46632.83
591.20	47014.34
591.35	46899.65
591.51	47419.25
591.67	47063.49
591.83	47459.04
591.99	46784.97
592.15	47021.36
592.31	46892.63
592.46	46958.17
592.62	46773.27
592.78	46962.85
592.94	47309.25
593.10	47229.67
593.26	47323.29
593.41	46988.60
593.57	46941.78
593.73	47033.07
593.89	47437.98
594.05	47255.42
594.20	47093.92
594.36	47475.43
594.52	47129.03
594.68	46724.11
594.84	47199.24
594.99	47239.03
595.15	47089.24
595.31	47061.15
595.47	47026.04
595.62	46974.55
595.78	47084.56
595.94	47201.58
596.10	47257.76
596.25	47360.74
596.41	47351.38
596.57	47016.68
596.73	47166.48
596.88	47051.79
597.04	47082.22
597.20	47070.51
597.36	47140.73
597.51	47178.18
597.67	47199.24
597.83	46911.36
597.99	47398.19
598.14	47409.89
598.30	47269.46
598.46	47349.04
598.61	47501.17
598.77	46892.63
598.93	47297.55
599.09	47164.14
599.24	47709.48
599.40	46838.80
599.56	47323.29
599.71	47704.80
599.87	47643.94
600.03	47388.83
600.18	47276.48
600.34	47704.80
600.50	47704.80
600.65	47356.06
600.81	47622.88
600.97	47557.35
601.12	47075.19
601.28	47440.32
601.44	47620.54
601.59	47236.69
601.75	47365.42
601.91	47147.75
602.06	47131.37
602.22	47672.03
602.37	47222.65
602.53	47517.56
602.69	47873.32
602.84	47281.16
603.00	46981.57
603.16	47522.24
603.31	47246.05
603.47	47578.41
603.62	47477.77
603.78	47517.56
603.94	47304.57
604.09	47302.23
604.25	47484.79
604.40	47805.44
604.56	47503.51
604.71	48093.33
604.87	47489.47
605.03	47199.24
605.18	47419.25
605.34	47377.12
605.49	47082.22
605.65	47515.22
605.80	47229.67
605.96	47093.92
606.12	47042.43
606.27	47433.30
606.43	46871.57
606.58	47171.16
606.74	46906.68
606.89	47395.85
607.05	46869.23
607.20	47697.78
607.36	47229.67
607.51	47290.52
607.67	46857.52
607.82	46925.40
607.98	46979.23
608.13	47082.22
608.29	47014.34
608.44	47306.91
608.60	47229.67
608.75	47217.97
608.91	47203.92
609.06	46789.65
609.22	47297.55
609.37	46958.17
609.53	47264.78
609.68	47189.88
609.84	47199.24
609.99	47283.50
610.15	46967.53
610.30	46710.07
610.46	46981.57
610.61	46775.61
610.76	46873.91
610.92	46918.38
611.07	46976.89
611.23	46841.14
611.38	46754.54
611.54	46979.23
611.69	47199.24
611.84	46866.89
612.00	47196.90
612.15	46763.90
612.31	46728.80
612.46	46251.33
612.62	46714.75
612.77	46831.78
612.92	46962.85
613.08	47021.36
613.23	46972.21
613.39	46714.75
613.54	46396.44
613.69	47192.22
613.85	46775.61
614.00	46810.71
614.15	46883.27
614.31	46160.05
614.46	46384.74
614.62	46497.08
614.77	46476.02
614.92	46511.13
615.08	46480.70
615.23	46672.62
615.38	46553.26
615.54	46590.70
615.69	46789.65
615.84	46628.15
616.00	46560.28
616.15	46284.09
616.30	46335.59
616.46	46391.76
616.61	46429.21
616.76	46459.63
616.92	46216.22
617.07	46288.77
617.22	46583.68
617.37	45935.35
617.53	46267.71
617.68	46515.81
617.83	46206.86
617.99	46604.75
618.14	46286.43
618.29	46204.52
618.45	46148.34
618.60	46101.53
618.75	45769.18
618.90	45911.95
619.06	46391.76
619.21	46143.66
619.36	46408.14
619.51	46389.42
619.67	45738.75
619.82	45701.30
619.97	46190.47
620.12	45441.50
620.28	45727.05
620.43	45811.31
620.58	46387.08
620.73	46050.04
620.89	46127.28
621.04	46274.73
621.19	46082.81
621.34	45392.35
621.49	45483.63
621.65	46136.64
621.80	45951.74
621.95	45666.19
622.10	46021.95
622.25	45663.85
622.41	45420.44
622.56	45553.85
622.71	45947.06
622.86	45914.29
623.01	45876.84
623.16	45689.60
623.32	45331.50
623.47	45663.85
623.62	45525.76
623.77	45776.20
623.92	45825.35
624.07	45181.70
624.23	45799.60
624.38	45710.66
624.53	45443.84
624.68	45399.37
624.83	45200.43
624.98	45244.90
625.13	44793.17
625.29	45090.42
625.44	45492.99
625.59	45062.33
625.74	45104.46
625.89	44957.01
626.04	45141.91
626.19	44839.98
626.34	45242.56
626.49	44804.88
626.65	44694.87
626.80	44893.82
626.95	44713.59
627.10	44744.02
627.25	45148.93
627.40	45390.01
627.55	45244.90
627.70	44741.68
627.85	45284.68
628.00	45038.93
628.15	45160.64
628.30	44512.31
628.45	44177.61
628.60	44107.40
628.76	44531.03
628.91	44500.61
629.06	43988.03
629.21	44376.56
629.36	44191.65
629.51	45006.16
629.66	45106.80
629.81	44322.72
629.96	45212.13
630.11	44311.02
630.26	44465.50
630.41	44524.01
630.56	44318.04
630.71	44479.54
630.86	44463.16
631.01	44580.18
631.16	43889.73
631.31	44451.45
631.46	44011.43
631.61	44605.93
631.76	44395.28
631.91	44652.74
632.06	44215.06
632.21	44411.67
632.36	44481.88
632.51	43789.08
632.66	44128.46
632.81	44376.56
632.96	43821.85
633.10	44158.89
633.25	44123.78
633.40	44079.31
633.55	44273.57
633.70	43948.24
633.85	43721.21
634.00	43796.10
634.15	44280.60
634.30	44105.06
634.45	43285.87
634.60	43955.26
634.75	44247.83
634.90	43503.54
635.05	43896.75
635.19	43695.46
635.34	43887.39
635.49	43632.27
635.64	43887.39
635.79	44140.16
635.94	44144.84
636.09	43597.16
636.24	43405.23
636.39	43634.61
636.53	43562.05
636.68	43145.44
636.83	43185.22
636.98	43423.96
637.13	43320.98
637.28	42679.67
637.43	43344.38
637.57	43264.80
637.72	43203.95
637.87	43222.67
638.02	43182.88
638.17	42808.40
638.32	43014.37
638.46	42974.58
638.61	42955.85
638.76	42958.19
638.91	43229.69
639.06	43168.84
639.20	42958.19
639.35	42864.57
639.50	42883.30
639.65	43206.29
639.80	43426.30
639.94	43035.43
640.09	43133.73
640.24	42969.90
640.39	42459.66
640.54	42721.80
640.68	42962.87
640.83	42761.59
640.98	42408.17
641.13	42508.81
641.27	43016.71
641.42	42419.87
641.57	42618.81
641.72	42799.04
641.86	42841.17
642.01	42742.86
642.16	42520.51
642.31	42597.75
642.45	42557.96
642.60	42274.76
642.75	42286.46
642.90	42150.71
643.04	42122.62
643.19	42237.31
643.34	41963.46
643.48	41844.10
643.63	41928.36
643.78	42616.47
643.93	42518.17
644.07	42054.75
644.22	42216.24
644.37	42380.08
644.51	42403.49
644.66	41897.93
644.81	41879.21
644.95	42227.95
645.10	42029.00
645.25	42059.43
645.39	41823.03
645.54	41731.75
645.69	41383.01
645.83	42036.02
645.98	41769.20
646.13	41734.09
646.27	41986.87
646.42	41312.80
646.57	41773.88
646.71	41694.30
646.86	41942.40
647.00	41778.56
647.15	41722.39
647.30	41572.60
647.44	41874.52
647.59	41401.74
647.74	41378.33
647.88	42026.66
648.03	41607.70
648.17	41926.02
648.32	41525.78
648.47	41832.39
648.61	41415.78
648.76	41338.54
648.90	41301.09
649.05	41268.33
649.20	41331.52
649.34	41418.12
649.49	41661.54
649.63	41483.66
649.78	41394.71
649.92	41713.03
650.07	42047.72
650.21	41844.10
650.36	41567.91
650.51	40884.48
650.65	41954.10
650.80	41333.86
650.94	41284.71
651.09	41315.14
651.23	41022.57
651.38	40718.30
651.52	40587.23
651.67	40914.90
651.81	40744.05
651.96	40847.03
652.10	41287.05
652.25	40687.87
652.39	40453.82
652.54	40722.98
652.68	40643.40
652.83	40708.94
652.97	41174.70
653.12	41015.55
653.26	40524.04
653.41	41090.44
653.55	40652.76
653.70	40832.99
653.84	40868.09
653.99	41076.40
654.13	40781.49
654.27	40123.80
654.42	40739.36
654.56	40500.63
654.71	40800.22
654.85	40844.69
655.00	40521.69
655.14	40458.50
655.29	40858.73
655.43	40545.10
655.57	40332.11
655.72	40072.31
655.86	40334.45
656.01	40423.39
656.15	39920.18
656.30	40233.81
656.44	39997.41
656.58	40198.70
656.73	40524.04
656.87	39796.13
657.01	40086.36
657.16	40238.49
657.30	40327.43
657.45	40020.82
657.59	39976.35
657.73	39974.01
657.88	39608.89
658.02	40105.08
658.16	40091.04
658.31	39847.62
658.45	39974.01
658.60	39449.73
658.74	40002.10
658.88	39791.45
659.03	39456.75
659.17	39381.85
659.31	39089.29
659.46	39435.69
659.60	39419.30
659.74	39526.97
659.89	39232.06
660.03	38930.13
660.17	39201.63
660.32	38810.76
660.46	39164.18
660.60	38944.17
660.74	39388.88
660.89	39072.90
661.03	38644.59
661.17	38586.07
661.32	38785.02
661.46	38742.89
661.60	38824.81
661.74	38618.84
661.89	38623.52
662.03	38651.61
662.17	38389.47
662.31	38242.01
662.46	38527.56
662.60	38574.37
662.74	38513.52
662.88	38223.29
663.03	38167.12
663.17	38043.07
663.31	37708.37
663.45	38447.98
663.60	38412.87
663.74	37935.40
663.88	38022.00
664.02	37523.47
664.17	38117.96
664.31	38012.64
664.45	37579.64
664.59	37535.17
664.73	37413.46
664.88	37844.12
665.02	37457.93
665.16	37890.93
665.30	37343.25
665.44	37455.59
665.59	37113.87
665.73	36928.97
665.87	36521.72
666.01	36968.76
666.15	37191.11
666.29	37137.28
666.44	37296.44
666.58	37095.15
666.72	36746.41
666.86	36486.61
667.00	36865.78
667.14	36692.58
667.28	36416.40
667.43	36205.75
667.57	36872.80
667.71	36360.22
667.85	36704.28
667.99	36486.61
668.13	36446.82
668.27	36072.34
668.41	36332.14
668.56	35548.06
668.70	35885.09
668.84	35796.15
668.98	35435.71
669.12	35777.43
669.26	36018.50
669.40	36168.30
669.54	35917.86
669.68	36002.12
669.82	35732.96
669.96	35386.56
670.10	35328.05
670.25	35204.00
670.39	35222.72
670.53	35402.94
670.67	35428.69
670.81	35821.90
670.95	35608.91
671.09	35314.00
671.23	34962.92
671.37	34841.21
671.51	34742.91
671.65	34801.43
671.79	34471.41
671.93	34677.38
672.07	34630.57
672.21	35049.52
672.35	34153.10
672.49	34408.22
672.63	34253.74
672.77	33816.06
672.91	34015.01
673.05	34302.89
673.19	34443.32
673.33	33865.21
673.47	33963.51
673.61	33638.18
673.75	33708.40
673.89	33263.69
674.03	33577.33
674.17	33319.87
674.31	32968.79
674.45	33453.28
674.59	33198.16
674.73	33057.73
674.87	33022.62
675.01	32828.35
675.15	32381.31
675.29	32472.59
675.43	32685.58
675.56	32652.81
675.70	32716.01
675.84	32472.59
675.98	31438.08
676.12	32477.27
676.26	32170.66
676.40	32109.81
676.54	31618.30
676.68	31861.71
676.82	31576.17
676.96	31646.38
677.10	32128.53
677.23	31793.84
677.37	31412.33
677.51	31606.59
677.65	31194.66
677.79	30960.61
677.93	31225.09
678.07	30986.35
678.21	31110.40
678.34	30593.14
678.48	30382.49
678.62	30974.65
678.76	30471.43
678.90	30377.81
679.04	30433.99
679.18	30857.62
679.31	30331.00
679.45	30071.20
679.59	29951.84
679.73	30003.33
679.87	29579.69
680.00	29956.52
680.14	29694.38
680.28	29626.50
680.42	29741.19
680.56	29453.30
680.70	29223.93
680.83	29074.13
680.97	29273.08
681.11	28945.41
681.25	28804.97
681.39	28652.84
681.52	28716.03
681.66	28346.23
681.80	28128.56
681.94	27934.29
682.07	28229.20
682.21	28268.99
682.35	28020.89
682.49	27777.48
682.62	28016.21
682.76	28004.51
682.90	27896.85
683.04	27620.66
683.17	27615.98
683.31	27690.88
683.45	27225.11
683.59	27222.77
683.72	27070.64
683.86	26852.97
684.00	26916.16
684.13	27108.08
684.27	26747.64
684.41	26574.44
684.55	26504.23
684.68	26347.41
684.82	26321.66
684.96	26342.73
685.09	26672.74
685.23	26312.30
685.37	26614.23
685.50	26389.54
685.64	26246.77
685.78	25837.17
685.91	25624.18
686.05	25383.11
686.19	24889.26
686.32	25340.98
686.46	24975.86
686.60	24907.98
686.73	25144.38
686.87	24713.72
687.01	25460.35
687.14	24936.07
687.28	24996.92
687.42	25156.08
687.55	24584.99
687.69	24643.50
687.82	23990.49
687.96	24355.61
688.10	24514.77
688.23	24425.83
688.37	24243.27
688.50	24261.99
688.64	24107.52
688.78	23742.39
688.91	23751.76
689.05	24053.69
689.18	23384.29
689.32	23124.49
689.46	23044.91
689.59	23187.69
689.73	23438.12
689.86	23255.56
690.00	23105.77
690.13	23166.62
690.27	22860.01
690.41	22742.99
690.54	22539.36
690.68	22345.09
690.81	22295.94
690.95	22382.54
691.08	22405.95
691.22	22136.79
691.35	22111.04
691.49	22160.19
691.62	21879.33
691.76	21898.05
691.89	21551.65
692.03	21542.29
692.16	21097.59
692.30	21186.53
692.43	21537.61
692.57	21378.45
692.70	21205.25
692.84	20982.90
692.97	20575.65
693.11	20837.79
693.24	20365.00
693.38	20751.19
693.51	20561.61
693.65	20425.86
693.78	20479.69
693.92	20250.32
694.05	20224.57
694.19	19751.78
694.32	20236.27
694.45	20194.14
694.59	20135.63
694.72	19873.49
694.86	19885.19
694.99	19714.33
695.13	19278.99
695.26	19527.09
695.39	19131.54
695.53	19222.82
695.66	19400.70
695.80	18948.98
695.93	19220.48
696.07	18977.06
696.20	18862.38
696.33	18576.83
696.47	18700.88
696.60	18288.95
696.73	18485.55
696.87	18965.36
697.00	18523.00
697.14	18256.18
697.27	18033.83
697.40	17919.14
697.54	18012.76
697.67	17919.14
697.80	18153.20
697.94	17788.07
698.07	17605.51
698.21	17729.56
698.34	17488.48
698.47	17542.32
698.61	17216.98
698.74	17172.51
698.87	17259.11
699.01	17165.49
699.14	17247.41
699.27	17200.60
699.40	16821.43
699.54	16751.21
699.67	16999.31
699.80	16781.64
699.94	16629.51
700.07	16442.26
700.20	16491.41
700.34	16400.13
700.47	16460.99
700.60	16592.06
700.73	16369.71
700.87	16135.65
701.00	15758.83
701.13	15901.60
701.26	15592.65
701.40	15887.56
701.53	15414.77
701.66	15857.13
701.79	15316.47
701.93	15161.99
702.06	14998.15
702.19	15087.09
702.32	15386.68
702.46	15232.21
702.59	15206.46
702.72	15096.46
702.85	15199.44
702.99	15009.86
703.12	14920.92
703.25	14745.38
703.38	14696.22
703.51	14719.63
703.65	14427.06
703.78	14232.80
703.91	14253.86
704.04	14094.71
704.17	14127.47
704.31	14141.52
704.44	14235.14
704.57	14146.20
704.70	14008.11
704.83	13858.31
704.96	13923.85
705.10	13696.82
705.23	13532.98
>>>>>End Processed Spectral Data<<<<<
