SpectraSuite Data File
++++++++++++++++++++++++++++++++++++
Date: Fri Oct 25 10:48:35 EDT 2013
User: price-jones
Dark Spectrum Present: No
Reference Spectrum Present: No
Number of Sampled Component Spectra: 1
Spectrometers: USB2+H05261
Integration Time (usec): 100000 (USB2+H05261)
Spectra Averaged: 1 (USB2+H05261)
Boxcar Smoothing: 0 (USB2+H05261)
Correct for Electrical Dark: No (USB2+H05261)
Strobe/Lamp Enabled: No (USB2+H05261)
Correct for Detector Non-linearity: No (USB2+H05261)
Correct for Stray Light: No (USB2+H05261)
Number of Pixels in Processed Spectrum: 2048
>>>>>Begin Processed Spectral Data<<<<<
365.73	147.45
365.92	147.45
366.12	147.45
366.32	46.81
366.52	23.41
366.72	58.51
366.91	30.43
367.11	65.54
367.31	0.00
367.51	9.36
367.70	81.92
367.90	23.41
368.10	114.69
368.30	0.00
368.49	56.17
368.69	14.04
368.89	46.81
369.09	84.26
369.28	72.56
369.48	0.00
369.68	124.05
369.87	117.03
370.07	95.96
370.27	149.79
370.47	194.26
370.66	395.55
370.86	486.83
371.06	496.19
371.25	486.83
371.45	475.13
371.65	482.15
371.84	512.58
372.04	454.06
372.24	535.98
372.44	543.00
372.63	578.11
372.83	582.79
373.03	496.19
373.22	498.53
373.42	545.34
373.62	505.56
373.81	533.64
374.01	571.09
374.21	624.92
374.40	496.19
374.60	695.14
374.79	641.31
374.99	610.88
375.19	575.77
375.38	578.11
375.58	620.24
375.78	617.90
375.97	608.54
376.17	678.76
376.37	641.31
376.56	615.56
376.76	709.18
376.95	613.22
377.15	685.78
377.35	627.26
377.54	683.44
377.74	753.65
377.93	681.10
378.13	690.46
378.33	676.41
378.52	683.44
378.72	727.91
378.91	716.20
379.11	706.84
379.31	676.41
379.50	603.86
379.70	660.03
379.89	772.38
380.09	631.94
380.28	748.97
380.48	695.14
380.68	753.65
380.87	760.67
381.07	763.01
381.26	793.44
381.46	748.97
381.65	770.04
381.85	753.65
382.04	781.74
382.24	713.86
382.43	744.29
382.63	667.05
382.83	786.42
383.02	793.44
383.22	870.68
383.41	737.27
383.61	849.61
383.80	833.23
384.00	777.06
384.19	842.59
384.39	863.66
384.58	903.45
384.78	807.48
384.97	833.23
385.17	880.04
385.36	795.78
385.56	807.48
385.75	882.38
385.95	847.27
386.14	849.61
386.34	990.05
386.53	910.47
386.72	854.30
386.92	866.00
387.11	901.11
387.31	943.24
387.50	884.72
387.70	992.39
387.89	905.79
388.09	968.98
388.28	964.30
388.48	992.39
388.67	966.64
388.86	999.41
389.06	1041.54
389.25	938.55
389.45	990.05
389.64	1034.52
389.84	1032.18
390.03	1020.47
390.22	1100.05
390.42	1050.90
390.61	1053.24
390.81	1078.99
391.00	1111.75
391.19	1074.31
391.39	1109.41
391.58	1170.27
391.78	1156.22
391.97	1210.06
392.16	1062.60
392.36	1130.48
392.55	1100.05
392.75	1053.24
392.94	1041.54
393.13	1020.47
393.33	1097.71
393.52	1137.50
393.71	1181.97
393.91	1219.42
394.10	1153.88
394.29	1200.69
394.49	1214.74
394.68	1317.72
394.88	1338.79
395.07	1324.74
395.26	1355.17
395.46	1268.57
395.65	1268.57
395.84	1364.53
396.04	1259.21
396.23	1301.34
396.42	1217.08
396.62	1200.69
396.81	1270.91
397.00	1299.00
397.19	1306.02
397.39	1357.51
397.58	1371.55
397.77	1493.26
397.97	1439.43
398.16	1507.30
398.35	1551.78
398.55	1554.12
398.74	1516.67
398.93	1605.61
399.12	1572.84
399.32	1540.07
399.51	1600.93
399.70	1629.01
399.90	1654.76
400.09	1724.97
400.28	1619.65
400.47	1675.82
400.67	1668.80
400.86	1722.63
401.05	1743.70
401.24	1757.74
401.44	1797.53
401.63	1708.59
401.82	1797.53
402.01	1820.94
402.21	1781.15
402.40	1879.45
402.59	1858.39
402.78	1877.11
402.97	1788.17
403.17	1886.47
403.36	1898.17
403.55	1865.41
403.74	1860.73
403.93	1909.88
404.13	2012.86
404.32	1891.15
404.51	1895.83
404.70	2129.89
404.89	1961.37
405.09	2076.06
405.28	1959.03
405.47	1928.60
405.66	2038.61
405.85	2136.91
406.05	2228.19
406.24	2071.37
406.43	2064.35
406.62	2153.29
406.81	2307.77
407.00	2139.25
407.20	2260.96
407.39	2246.91
407.58	2228.19
407.77	2305.43
407.96	2300.75
408.15	2473.95
408.34	2410.75
408.54	2424.80
408.73	2413.09
408.92	2394.37
409.11	2382.67
409.30	2382.67
409.49	2331.17
409.68	2473.95
409.87	2401.39
410.07	2457.56
410.26	2401.39
410.45	2377.98
410.64	2520.76
410.83	2642.46
411.02	2539.48
411.21	2679.91
411.40	2609.70
411.59	2928.01
411.78	2708.00
411.98	2684.59
412.17	2796.94
412.36	2906.95
412.55	2836.73
412.74	2874.18
412.93	2965.46
413.12	2785.24
413.31	3016.95
413.50	2995.89
413.69	2974.82
413.88	3021.63
414.07	3082.49
414.26	3098.87
414.45	3030.99
414.64	3112.91
414.83	3208.87
415.02	3204.19
415.22	3201.85
415.41	3323.56
415.60	3265.05
415.79	3297.81
415.98	3403.14
416.17	3321.22
416.36	3452.29
416.55	3300.16
416.74	3412.50
416.93	3454.63
417.12	3564.64
417.31	3342.28
417.50	3487.40
417.69	3763.58
417.88	3627.83
418.07	3588.04
418.26	3585.70
418.45	3524.85
418.64	3716.77
418.83	3740.18
419.02	3602.08
419.21	3644.21
419.39	3693.37
419.58	3581.02
419.77	3620.81
419.96	3789.33
420.15	3777.62
420.34	3850.18
420.53	3927.42
420.72	3873.59
420.91	4051.47
421.10	3955.51
421.29	4107.64
421.48	4049.13
421.67	4077.21
421.86	4053.81
422.05	3810.39
422.24	3829.12
422.43	3894.65
422.61	3974.23
422.80	4030.40
422.99	4021.04
423.18	4147.43
423.37	4168.49
423.56	4105.30
423.75	4156.79
423.94	4021.04
424.13	3817.41
424.32	4004.66
424.50	4159.13
424.69	4215.30
424.88	4205.94
425.07	4070.19
425.26	4028.06
425.45	4105.30
425.64	4166.15
425.83	4112.32
426.01	4271.48
426.20	4156.79
426.39	4222.33
426.58	4161.47
426.77	4212.96
426.96	4201.26
427.15	4131.05
427.33	4285.52
427.52	4112.32
427.71	4287.86
427.90	4404.89
428.09	4320.63
428.28	4259.78
428.46	4304.25
428.65	4322.97
428.84	4418.93
429.03	4437.66
429.22	4344.03
429.40	4421.27
429.59	4259.78
429.78	4114.66
429.97	4039.76
430.16	4051.47
430.34	4229.35
430.53	4306.59
430.72	4194.24
430.91	4280.84
431.10	4519.57
431.28	4755.97
431.47	4671.71
431.66	4702.14
431.85	4758.31
432.03	4762.99
432.22	4784.06
432.41	4678.73
432.60	4929.17
432.79	4873.00
432.97	5006.41
433.16	4849.59
433.35	4678.73
433.54	4702.14
433.72	4835.55
433.91	4898.74
434.10	4880.02
434.28	5041.51
434.47	5074.28
434.66	5013.43
434.85	5102.37
435.03	5078.96
435.22	5083.64
435.41	5350.46
435.59	5181.95
435.78	5242.80
435.97	5444.09
436.16	5327.06
436.34	5263.86
436.53	5280.25
436.72	5448.77
436.90	5139.82
437.09	5500.26
437.28	5420.68
437.46	5432.38
437.65	5277.91
437.84	5437.06
438.02	5277.91
438.21	5383.23
438.40	5348.12
438.58	5561.11
438.77	5586.86
438.96	5619.63
439.14	5746.02
439.33	6005.81
439.52	5968.37
439.70	5867.72
439.89	5970.71
440.08	5865.38
440.26	5914.53
440.45	5713.25
440.63	6066.67
440.82	6132.20
441.01	6249.23
441.19	6225.82
441.38	6134.54
441.57	6406.05
441.75	6300.72
441.94	6516.05
442.12	6368.60
442.31	6537.12
442.50	6757.13
442.68	6579.25
442.87	6616.69
443.05	6553.50
443.24	6712.66
443.43	6731.38
443.61	6768.83
443.80	6803.94
443.98	6700.95
444.17	6576.91
444.35	6960.75
444.54	6904.58
444.73	6867.13
444.91	6689.25
445.10	6839.05
445.28	6710.32
445.47	6593.29
445.65	6696.27
445.84	6846.07
446.02	6918.62
446.21	6675.21
446.39	6803.94
446.58	6892.88
446.77	7087.14
446.95	6768.83
447.14	6909.26
447.32	7021.61
447.51	6806.28
447.69	6899.90
447.88	7012.24
448.06	6970.12
448.25	6895.22
448.43	7012.24
448.62	6974.80
448.80	6946.71
448.99	7087.14
449.17	7068.42
449.36	7035.65
449.54	7150.34
449.73	7115.23
449.91	7478.01
450.10	7335.24
450.28	7702.70
450.46	7655.89
450.65	7506.10
450.83	7578.65
451.02	7398.43
451.20	7571.63
451.39	7389.07
451.57	7365.67
451.76	7426.52
451.94	7641.85
452.13	7707.38
452.31	7358.64
452.49	7403.11
452.68	7431.20
452.86	7440.56
453.05	7637.17
453.23	7473.33
453.42	7562.27
453.60	7693.34
453.78	7660.57
453.97	7667.60
454.15	7573.97
454.34	7433.54
454.52	7894.63
454.70	7831.43
454.89	8058.46
455.07	7878.24
455.26	8140.38
455.44	7896.97
455.62	7999.95
455.81	8056.12
455.99	8320.60
456.17	8360.39
456.36	8133.36
456.54	8369.76
456.73	8507.85
456.91	8503.17
457.09	8421.25
457.28	8561.68
457.46	8336.99
457.64	8535.93
457.83	8449.33
458.01	8161.45
458.19	8428.27
458.38	8423.59
458.56	8718.50
458.74	8706.79
458.93	8557.00
459.11	8723.18
459.29	8475.08
459.48	8620.19
459.66	8723.18
459.84	8655.30
460.03	8858.93
460.21	8833.18
460.39	8638.92
460.57	8769.99
460.76	8868.29
460.94	8847.22
461.12	9008.72
461.31	9151.49
461.49	8936.17
461.67	8929.14
461.85	9142.13
462.04	8987.66
462.22	9596.20
462.40	9364.48
462.59	9100.00
462.77	9343.42
462.95	9270.86
463.13	9158.52
463.32	9235.75
463.50	9303.63
463.68	9387.89
463.86	9296.61
464.05	9188.94
464.23	9348.10
464.41	9528.32
464.59	9289.59
464.78	9479.17
464.96	9383.21
465.14	9350.44
465.32	9575.13
465.50	9673.43
465.69	9617.26
465.87	9516.62
466.05	9675.77
466.23	9432.36
466.41	9420.66
466.60	9465.13
466.78	9502.58
466.96	9465.13
467.14	9537.68
467.32	9643.01
467.51	10052.60
467.69	9788.12
467.87	10001.11
468.05	9914.51
468.23	9724.93
468.41	9795.14
468.60	9832.59
468.78	9930.89
468.96	9996.43
469.14	10104.09
469.32	10300.70
469.50	9816.21
469.69	9898.13
469.87	10115.80
470.05	10204.74
470.23	9994.09
470.41	10090.05
470.59	10349.85
470.77	10256.23
470.95	10368.57
471.14	10394.32
471.32	10410.70
471.50	10420.06
471.68	10534.75
471.86	10743.06
472.04	11005.20
472.22	10909.24
472.40	10579.22
472.58	10832.00
472.77	10792.21
472.95	10888.17
473.13	11117.54
473.31	10949.03
473.49	10927.96
473.67	11183.08
473.85	11332.87
474.03	11412.45
474.21	11379.68
474.39	11496.71
474.57	11534.16
474.75	11639.48
474.93	11480.33
475.12	11309.47
475.30	11777.58
475.48	11489.69
475.66	11819.71
475.84	11625.44
476.02	11880.56
476.20	11836.09
476.38	11934.39
476.56	12393.14
476.74	12449.31
476.92	11950.78
477.10	12149.72
477.28	12596.76
477.46	12571.02
477.64	12592.08
477.82	12830.82
478.00	13083.59
478.18	13099.98
478.36	13109.34
478.54	13064.87
478.72	13343.39
478.90	13399.57
479.08	13448.72
479.26	13734.26
479.44	13682.77
479.62	13743.63
479.80	13769.37
479.98	13741.29
480.16	14211.73
480.34	13781.07
480.52	14413.02
480.70	14148.54
480.88	14300.67
481.06	14408.34
481.24	14408.34
481.41	14616.65
481.59	15054.33
481.77	14745.38
481.95	15059.01
482.13	15140.93
482.31	15169.01
482.49	15573.92
482.67	15396.04
482.85	15466.26
483.03	15351.57
483.21	16170.76
483.39	16145.02
483.57	15868.83
483.74	15838.41
483.92	16252.68
484.10	16386.09
484.28	16208.21
484.46	16877.60
484.64	17280.18
484.82	16730.15
485.00	16723.13
485.18	16964.20
485.35	16975.91
485.53	16844.84
485.71	16727.81
485.89	16886.97
486.07	16938.46
486.25	17294.22
486.43	17476.78
486.61	17593.81
486.78	17802.11
486.96	18115.75
487.14	18321.71
487.32	18293.63
487.50	18661.09
487.68	18939.62
487.85	19211.12
488.03	18993.45
488.21	19300.06
488.39	19009.83
488.57	19152.60
488.75	19374.95
488.92	20018.60
489.10	20077.12
489.28	20067.75
489.46	20547.56
489.64	20393.09
489.81	20622.46
489.99	20823.75
490.17	20994.61
490.35	21254.40
490.53	20929.07
490.70	21586.76
490.88	21523.57
491.06	21397.18
491.24	21465.05
491.41	21795.07
491.59	21675.70
491.77	21556.33
491.95	21837.20
492.13	22094.66
492.30	22380.20
492.48	22403.61
492.66	22338.07
492.84	22501.91
493.01	22883.42
493.19	22726.60
493.37	23030.87
493.54	23143.22
493.72	23477.91
493.90	23552.81
494.08	23648.77
494.25	23939.00
494.43	23985.81
494.61	23992.83
494.79	24259.65
494.96	24432.85
495.14	24505.41
495.32	24177.73
495.49	24704.35
495.67	24608.39
495.85	25085.86
496.02	25230.98
496.20	25345.66
496.38	25041.39
496.55	25062.46
496.73	25816.11
496.91	25441.62
497.09	25841.85
497.26	25844.20
497.44	26333.37
497.62	25970.58
497.79	25898.03
497.97	25844.20
498.14	26302.94
498.32	26595.51
498.50	26462.10
498.67	26581.46
498.85	27143.19
499.03	27300.01
499.20	27199.37
499.38	27005.10
499.56	27527.04
499.73	27344.48
499.91	27711.94
500.08	27339.80
500.26	27257.88
500.44	27417.04
500.61	27531.72
500.79	27171.28
500.97	27936.63
501.14	28151.96
501.32	28236.22
501.49	28245.58
501.67	28276.01
501.84	28166.01
502.02	28465.60
502.20	28713.69
502.37	29256.70
502.55	28669.22
502.72	28669.22
502.90	28999.24
503.07	29006.26
503.25	29322.23
503.43	28800.29
503.60	29347.98
503.78	29085.84
503.95	29273.08
504.13	29230.95
504.30	29591.39
504.48	29441.60
504.65	29748.21
504.83	29851.19
505.01	30183.55
505.18	30253.76
505.36	30600.16
505.53	30274.83
505.71	30576.76
505.88	30984.01
506.06	30412.92
506.23	30829.54
506.41	30415.26
506.58	30984.01
506.76	30902.09
506.93	31000.40
507.11	30862.30
507.28	31037.84
507.46	31075.29
507.63	31096.36
507.81	31335.09
507.98	31735.32
508.16	31524.68
508.33	32041.93
508.50	31976.40
508.68	31784.48
508.85	32067.68
509.03	32020.87
509.20	31866.39
509.38	32044.27
509.55	32425.78
509.73	32720.69
509.90	32437.48
510.08	32353.23
510.25	32692.60
510.42	32287.69
510.60	32833.04
510.77	32959.42
510.95	33769.25
511.12	32725.37
511.30	33228.59
511.47	33413.49
511.64	33500.09
511.82	33656.90
511.99	33502.43
512.17	33404.13
512.34	33490.73
512.51	33359.66
512.69	33703.71
512.86	33640.52
513.04	33935.43
513.21	33865.21
513.38	33483.70
513.56	33635.84
513.73	33993.94
513.90	34422.26
514.08	34457.37
514.25	34352.04
514.43	34312.25
514.60	34962.92
514.77	34204.59
514.95	34752.27
515.12	34639.93
515.29	34419.92
515.47	34967.60
515.64	35330.39
515.81	35145.48
515.99	34457.37
516.16	34401.19
516.33	34700.78
516.51	35089.31
516.68	34017.35
516.85	34169.48
517.03	34501.84
517.20	34843.56
517.37	35192.30
517.54	35435.71
517.72	35253.15
517.89	35524.65
518.06	35124.42
518.24	35021.44
518.41	35447.41
518.58	35482.52
518.75	35665.08
518.93	35992.76
519.10	36074.68
519.27	36376.61
519.45	36292.35
519.62	36156.60
519.79	36961.74
519.96	36549.81
520.14	36364.90
520.31	36259.58
520.48	36662.15
520.65	36935.99
520.83	37116.22
521.00	37001.53
521.17	37067.06
521.34	37144.30
521.52	37687.31
521.69	37507.08
521.86	37474.32
522.03	37546.87
522.20	37605.39
522.38	37586.66
522.55	37921.36
522.72	37436.87
522.89	37427.51
523.07	37633.47
523.24	37837.10
523.41	37909.66
523.58	38050.09
523.75	38103.92
523.92	38436.28
524.10	38447.98
524.27	38398.83
524.44	38490.11
524.61	38520.54
524.78	38892.68
524.96	38735.87
525.13	38817.78
525.30	38897.36
525.47	38813.10
525.64	38927.79
525.81	38794.38
525.98	38354.36
526.16	38590.75
526.33	38288.82
526.50	38780.34
526.67	38609.48
526.84	38932.47
527.01	38377.76
527.18	38941.83
527.36	39288.23
527.53	39232.06
527.70	40079.33
527.87	39571.44
528.04	39711.87
528.21	40076.99
528.38	39966.99
528.55	40346.15
528.72	40144.87
528.89	40357.86
529.07	40030.18
529.24	39737.62
529.41	39934.22
529.58	39761.02
529.75	39901.45
529.92	40299.34
530.09	40231.47
530.26	40620.00
530.43	40493.61
530.60	40020.82
530.77	40722.98
530.94	40795.54
531.11	40643.40
531.28	40196.36
531.46	40905.54
531.63	41247.26
531.80	40973.42
531.97	40332.11
532.14	40418.71
532.31	40371.90
532.48	40694.89
532.65	40760.43
532.82	40863.41
532.99	41600.68
533.16	40692.55
533.33	40914.90
533.50	41516.42
533.67	41214.49
533.84	41034.27
534.01	41116.19
534.18	41123.21
534.35	41808.99
534.52	41563.23
534.69	42101.56
534.86	41439.18
535.03	41507.06
535.20	41741.11
535.37	42384.76
535.54	42422.21
535.71	42241.99
535.88	42153.05
536.05	42064.11
536.22	41851.12
536.38	41858.14
536.55	42047.72
536.72	42120.28
536.89	42040.70
537.06	42176.45
537.23	42574.34
537.40	42075.81
537.57	42052.41
537.74	42351.99
537.91	42260.71
538.08	42232.63
538.25	42040.70
538.42	42918.40
538.59	42670.31
538.75	42085.17
538.92	42628.18
539.09	42471.36
539.26	42712.44
539.43	42380.08
539.60	42672.65
539.77	42539.24
539.94	42607.11
540.11	42562.64
540.28	42892.66
540.44	42569.66
540.61	42529.87
540.78	42803.72
540.95	42906.70
541.12	42960.53
541.29	43002.66
541.46	42806.06
541.62	43217.99
541.79	43262.46
541.96	42895.00
542.13	43105.65
542.30	43124.37
542.47	43257.78
542.63	43119.69
542.80	43744.61
542.97	43913.13
543.14	43707.16
543.31	43831.21
543.48	44102.71
543.64	44093.35
543.81	43868.66
543.98	44196.34
544.15	44004.41
544.32	44332.09
544.48	44388.26
544.65	43592.48
544.82	43976.33
544.99	43917.81
545.16	44072.29
545.32	44287.62
545.49	44577.84
545.66	44708.91
545.83	44470.18
546.00	44135.48
546.16	44655.08
546.33	44491.24
546.50	43847.60
546.67	44388.26
546.83	43676.74
547.00	44666.78
547.17	44222.08
547.34	44772.11
547.50	44479.54
547.67	44886.79
547.84	44849.35
548.00	44715.93
548.17	45006.16
548.34	45013.18
548.51	45485.97
548.67	45380.65
548.84	44917.22
549.01	45223.83
549.18	44994.46
549.34	44872.75
549.51	45315.11
549.68	45043.61
549.84	44980.42
550.01	45390.01
550.18	44818.92
550.34	45247.24
550.51	45120.85
550.68	45247.24
550.84	45209.79
551.01	45336.18
551.18	45394.69
551.34	45790.24
551.51	45607.68
551.68	45879.18
551.84	45621.72
552.01	44987.44
552.18	45797.26
552.34	45120.85
552.51	45296.39
552.68	45474.27
552.84	46323.88
553.01	46087.49
553.18	45628.74
553.34	45984.51
553.51	45605.34
553.67	45785.56
553.84	46202.18
554.01	46258.35
554.17	46110.89
554.34	46057.06
554.51	45972.80
554.67	46394.10
554.84	46010.25
555.00	45698.96
555.17	46206.86
555.33	45848.75
555.50	46021.95
555.67	45851.09
555.83	46263.03
556.00	46281.75
556.16	46464.32
556.33	46218.56
556.50	46382.40
556.66	46529.85
556.83	46073.45
556.99	45904.93
557.16	46272.39
557.32	46604.75
557.49	46440.91
557.65	46183.45
557.82	46192.81
557.98	46478.36
558.15	46337.93
558.32	46291.12
558.48	46403.46
558.65	46656.24
558.81	46616.45
558.98	45743.43
559.14	46204.52
559.31	46522.83
559.47	46459.63
559.64	46590.70
559.80	46370.69
559.97	46422.19
560.13	46501.76
560.30	46248.99
560.46	46703.05
560.63	46415.16
560.79	46632.83
560.96	47058.81
561.12	46401.12
561.29	46548.57
561.45	46951.15
561.61	47267.12
561.78	46951.15
561.94	46272.39
562.11	46885.61
562.27	46344.95
562.44	46525.17
562.60	47091.58
562.77	46911.36
562.93	46555.60
563.10	46845.82
563.26	46543.89
563.42	46932.42
563.59	46698.37
563.75	46923.06
563.92	47002.64
564.08	46649.22
564.24	47026.04
564.41	46787.31
564.57	47192.22
564.74	47077.54
564.90	47054.13
565.07	47089.24
565.23	47058.81
565.39	47227.33
565.56	47021.36
565.72	46555.60
565.88	46916.04
566.05	46770.93
566.21	47009.66
566.38	47068.17
566.54	46871.57
566.70	47224.99
566.87	47646.29
567.03	47072.85
567.19	47342.02
567.36	46986.25
567.52	46969.87
567.68	47386.49
567.85	46885.61
568.01	46412.82
568.17	46869.23
568.34	47072.85
568.50	47091.58
568.66	46918.38
568.83	47255.42
568.99	47114.98
569.15	47021.36
569.32	46532.19
569.48	47021.36
569.64	47573.73
569.81	47145.41
569.97	47147.75
570.13	46651.56
570.30	46653.90
570.46	46796.67
570.62	46157.70
570.78	46710.07
570.95	46930.08
571.11	47061.15
571.27	47239.03
571.43	47260.10
571.60	47283.50
571.76	47271.80
571.92	46894.97
572.09	47590.11
572.25	46993.28
572.41	47105.62
572.57	47311.59
572.74	47447.34
572.90	47271.80
573.06	47061.15
573.22	47360.74
573.38	47051.79
573.55	46827.10
573.71	47597.13
573.87	46878.59
574.03	47760.97
574.20	47168.82
574.36	47100.94
574.52	47358.40
574.68	47320.95
574.84	47253.08
575.01	47192.22
575.17	47264.78
575.33	46829.44
575.49	47154.77
575.65	47807.78
575.82	47480.11
575.98	47456.70
576.14	47452.02
576.30	47145.41
576.46	47019.02
576.62	46925.40
576.79	47440.32
576.95	46234.94
577.11	47154.77
577.27	47325.63
577.43	47379.46
577.59	46859.87
577.75	47316.27
577.92	47194.56
578.08	46681.98
578.24	46653.90
578.40	47222.65
578.56	47068.17
578.72	46815.40
578.88	47388.83
579.04	47222.65
579.21	47150.09
579.37	47288.18
579.53	46770.93
579.69	46953.49
579.85	47199.24
580.01	47505.85
580.17	47496.49
580.33	47611.18
580.49	47283.50
580.65	47278.82
580.82	47246.05
580.98	47131.37
581.14	47468.40
581.30	47718.84
581.46	47260.10
581.62	47349.04
581.78	47229.67
581.94	47936.51
582.10	47349.04
582.26	47758.63
582.42	47690.76
582.58	47459.04
582.74	47180.52
582.90	47437.98
583.06	47613.52
583.22	47728.20
583.38	47760.97
583.54	47330.31
583.70	47489.47
583.86	47395.85
584.02	46932.42
584.18	47215.63
584.34	47646.29
584.50	47330.31
584.66	47283.50
584.82	47351.38
584.98	47545.64
585.14	47601.82
585.30	47084.56
585.46	47262.44
585.62	47224.99
585.78	47021.36
585.94	47164.14
586.10	47290.52
586.26	47316.27
586.42	47398.19
586.58	47580.75
586.74	47367.76
586.90	47360.74
587.06	47091.58
587.22	47697.78
587.38	47339.68
587.54	47316.27
587.70	47419.25
587.86	47440.32
588.02	47278.82
588.18	47445.00
588.34	47353.72
588.49	47100.94
588.65	46689.01
588.81	47185.20
588.97	47194.56
589.13	46951.15
589.29	46829.44
589.45	46909.02
589.61	47185.20
589.77	47320.95
589.93	47433.30
590.08	47285.84
590.24	47337.33
590.40	47728.20
590.56	47447.34
590.72	47604.16
590.88	47171.16
591.04	47679.05
591.20	48268.87
591.35	47821.83
591.51	47702.46
591.67	47517.56
591.83	47283.50
591.99	47281.16
592.15	47393.51
592.31	47608.84
592.46	47337.33
592.62	47606.50
592.78	47253.08
592.94	47587.77
593.10	47304.57
593.26	47709.48
593.41	47547.98
593.57	47580.75
593.73	47508.19
593.89	47232.01
594.05	47234.35
594.20	46876.25
594.36	47643.94
594.52	47665.01
594.68	47388.83
594.84	47257.76
594.99	47435.64
595.15	47337.33
595.31	47526.92
595.47	47777.36
595.62	47604.16
595.78	47887.36
595.94	47697.78
596.10	47585.43
596.25	48205.67
596.41	47955.24
596.57	47789.06
596.73	47309.25
596.88	47566.71
597.04	47435.64
597.20	47835.87
597.36	47437.98
597.51	47784.38
597.67	48107.37
597.83	47922.47
597.99	48280.57
598.14	47700.12
598.30	47840.55
598.46	47800.76
598.61	47622.88
598.77	47332.65
598.93	47742.25
599.09	47627.56
599.24	47948.21
599.40	47892.04
599.56	47749.27
599.71	47606.50
599.87	48156.52
600.03	47430.96
600.18	47533.94
600.34	47466.06
600.50	47672.03
600.65	47501.17
600.81	47847.57
600.97	47784.38
601.12	47718.84
601.28	47889.70
601.44	47700.12
601.59	47686.07
601.75	47749.27
601.91	47416.91
602.06	47091.58
602.22	47622.88
602.37	47313.93
602.53	47461.38
602.69	47906.08
602.84	47555.00
603.00	47393.51
603.16	47810.12
603.31	47557.35
603.47	47477.77
603.62	47728.20
603.78	47833.53
603.94	47861.61
604.09	47775.02
604.25	47770.33
604.40	47732.89
604.56	47700.12
604.71	47592.45
604.87	47217.97
605.03	47728.20
605.18	47288.18
605.34	47466.06
605.49	47136.05
605.65	47636.92
605.80	47496.49
605.96	47805.44
606.12	47309.25
606.27	47763.31
606.43	47117.32
606.58	47491.81
606.74	47239.03
606.89	47129.03
607.05	47409.89
607.20	47250.74
607.36	47679.05
607.51	47751.61
607.67	47636.92
607.82	46944.12
607.98	47323.29
608.13	47531.60
608.29	47243.71
608.44	47136.05
608.60	46628.15
608.75	46756.88
608.91	47051.79
609.06	46770.93
609.22	47196.90
609.37	46522.83
609.53	47400.53
609.68	47316.27
609.84	47281.16
609.99	46869.23
610.15	47023.70
610.30	46639.86
610.46	46499.42
610.61	46791.99
610.76	46766.24
610.92	46829.44
611.07	47264.78
611.23	46555.60
611.38	46684.33
611.54	46431.55
611.69	47194.56
611.84	46955.83
612.00	46747.52
612.15	46019.61
612.31	46841.14
612.46	46735.82
612.62	46831.78
612.77	47037.75
612.92	46836.46
613.08	46529.85
613.23	46368.35
613.39	46330.90
613.54	46160.05
613.69	46358.99
613.85	46333.24
614.00	46791.99
614.15	46700.71
614.31	46586.02
614.46	47138.39
614.62	46745.18
614.77	46604.75
614.92	46340.27
615.08	46522.83
615.23	46405.80
615.38	46279.41
615.54	46384.74
615.69	45923.65
615.84	46227.92
616.00	45972.80
616.15	46176.43
616.30	46443.25
616.46	46237.28
616.61	45921.31
616.76	45811.31
616.92	46131.96
617.07	45925.99
617.22	46024.29
617.37	45839.39
617.53	46085.15
617.68	46539.21
617.83	46256.01
617.99	46305.16
618.14	46010.25
618.29	45806.62
618.45	45727.05
618.60	45584.27
618.75	45792.58
618.90	45385.33
619.06	45738.75
619.21	45687.26
619.36	46040.68
619.51	45577.25
619.67	46153.02
619.82	45860.46
619.97	45675.55
620.12	45689.60
620.28	45017.86
620.43	45404.05
620.58	45137.23
620.73	45385.33
620.89	45305.75
621.04	45631.08
621.19	45703.64
621.34	45553.85
621.49	45076.38
621.65	45233.19
621.80	45404.05
621.95	45118.51
622.10	45209.79
622.25	45003.82
622.41	45593.64
622.56	44816.58
622.71	45221.49
622.86	45015.52
623.01	45177.02
623.16	45118.51
623.32	44839.98
623.47	45064.67
623.62	44893.82
623.77	44980.42
623.92	44779.13
624.07	44577.84
624.23	44947.65
624.38	44753.38
624.53	44734.66
624.68	45069.36
624.83	45055.31
624.98	44713.59
625.13	44189.31
625.29	44378.90
625.44	44498.26
625.59	44355.49
625.74	44257.19
625.89	44179.95
626.04	43658.01
626.19	44636.36
626.34	44257.19
626.49	44488.90
626.65	44348.47
626.80	44748.70
626.95	44432.73
627.10	44261.87
627.25	44156.55
627.40	43936.54
627.55	44170.59
627.70	43704.82
627.85	43728.23
628.00	43971.64
628.15	44041.86
628.30	43753.97
628.45	44219.74
628.60	44004.41
628.76	44093.35
628.91	43695.46
629.06	43971.64
629.21	43629.93
629.36	43688.44
629.51	43199.27
629.66	43695.46
629.81	43030.75
629.96	43564.39
630.11	43386.51
630.26	43540.99
630.41	43831.21
630.56	43337.36
630.71	43885.04
630.86	43452.05
631.01	43402.89
631.16	43629.93
631.31	43239.06
631.46	42806.06
631.61	43452.05
631.76	43470.77
631.91	43700.14
632.06	43765.68
632.21	43246.08
632.36	43297.57
632.51	42721.80
632.66	43452.05
632.81	42944.15
632.96	43187.56
633.10	42859.89
633.25	42363.70
633.40	42951.17
633.55	43019.05
633.70	43339.70
633.85	43002.66
634.00	42742.86
634.15	43164.16
634.30	42700.73
634.45	43208.63
634.60	42916.06
634.75	42789.67
634.90	42829.46
635.05	43262.46
635.19	42763.93
635.34	42990.96
635.49	42679.67
635.64	42604.77
635.79	42377.74
635.94	42557.96
636.09	42660.94
636.24	42403.49
636.39	42211.56
636.53	42539.24
636.68	42302.84
636.83	42211.56
636.98	42939.47
637.13	42103.90
637.28	42733.50
637.43	43161.82
637.57	42632.86
637.72	42040.70
637.87	42525.19
638.02	42330.93
638.17	41956.44
638.32	42223.26
638.46	42260.71
638.61	41813.67
638.76	41797.29
638.91	42326.25
639.06	42328.59
639.20	42082.83
639.35	42171.77
639.50	41916.65
639.65	42361.36
639.80	41972.83
639.94	42286.46
640.09	42363.70
640.24	41647.49
640.39	41411.10
640.54	41827.71
640.68	41497.70
640.83	41455.57
640.98	41315.14
641.13	41551.53
641.27	41851.12
641.42	41237.90
641.57	41708.35
641.72	41603.02
641.86	41354.93
642.01	41511.74
642.16	41350.24
642.31	41525.78
642.45	41390.03
642.60	41439.18
642.75	41273.01
642.90	41467.27
643.04	41116.19
643.19	41043.63
643.34	41090.44
643.48	41493.02
643.63	41251.94
643.78	41411.10
643.93	41027.25
644.07	40769.79
644.22	40882.14
644.37	41097.47
644.51	40638.72
644.66	41048.32
644.81	41177.04
644.95	40875.12
645.10	40840.01
645.25	41350.24
645.39	41165.34
645.54	41095.13
645.69	41235.56
645.83	41120.87
645.98	40442.12
646.13	40786.18
646.27	40893.84
646.42	40240.83
646.57	40708.94
646.71	40343.81
646.86	40287.64
647.00	40376.58
647.15	40942.99
647.30	40404.67
647.44	40318.07
647.59	40458.50
647.74	40369.56
647.88	40147.21
648.03	39817.19
648.17	40229.13
648.32	39346.75
648.47	40041.88
648.61	39868.69
648.76	40767.45
648.90	40332.11
649.05	40119.12
649.20	39810.17
649.34	40046.57
649.49	40098.06
649.63	40088.70
649.78	40044.23
649.92	39894.43
650.07	40371.90
650.21	40236.15
650.36	40407.01
650.51	39936.56
650.65	40292.32
650.80	39875.71
650.94	39948.26
651.09	40098.06
651.23	39871.03
651.38	39545.69
651.52	39606.55
651.67	39864.00
651.81	39578.46
651.96	39749.32
652.10	39899.11
652.25	39374.83
652.39	40032.52
652.54	39686.12
652.68	39533.99
652.83	39524.63
652.97	39667.40
653.12	39508.24
653.26	39641.65
653.41	39377.17
653.55	39283.55
653.70	39470.79
653.84	39477.82
653.99	39629.95
654.13	39360.79
654.27	39122.05
654.42	39384.19
654.56	39161.84
654.71	39213.34
654.85	39145.46
655.00	39150.14
655.14	39133.76
655.29	38796.72
655.43	38752.25
655.57	38705.44
655.72	38019.66
655.86	38572.03
656.01	38426.92
656.15	38529.90
656.30	37834.76
656.44	38101.58
656.58	38665.65
656.73	38410.53
656.87	37947.11
657.01	38291.16
657.16	38340.32
657.30	38141.37
657.45	38218.61
657.59	38134.35
657.73	38012.64
657.88	38148.39
658.02	38478.41
658.16	38520.54
658.31	38384.79
658.45	38312.23
658.60	37975.19
658.74	38326.27
658.88	38380.10
659.03	38178.82
659.17	37811.35
659.31	37883.91
659.46	37874.55
659.60	38419.89
659.74	38174.14
659.89	37811.35
660.03	37752.84
660.17	38206.90
660.32	37600.71
660.46	37888.59
660.60	38031.36
660.74	37326.86
660.89	37750.50
661.03	37457.93
661.17	37659.22
661.32	36568.53
661.46	37677.94
661.60	37221.54
661.74	37408.78
661.89	37432.19
662.03	37237.92
662.17	36903.23
662.31	37034.30
662.46	37326.86
662.60	37137.28
662.74	37029.62
662.88	36715.98
663.03	36992.17
663.17	37027.28
663.31	37088.13
663.45	36889.18
663.60	36636.41
663.74	36360.22
663.88	36472.57
664.02	36168.30
664.17	36222.13
664.31	36566.19
664.45	36479.59
664.59	36084.04
664.73	36641.09
664.88	36664.49
665.02	35658.06
665.16	36673.85
665.30	36222.13
665.44	36222.13
665.59	35955.31
665.73	35681.47
665.87	35578.48
666.01	35857.01
666.15	35491.88
666.29	35732.96
666.44	36079.36
666.58	35416.99
666.72	35683.81
666.86	35384.22
667.00	35943.61
667.14	35428.69
667.28	35302.30
667.43	35222.72
667.57	35395.92
667.71	35218.04
667.85	34995.69
667.99	35105.70
668.13	34677.38
668.27	34572.05
668.41	34829.51
668.56	34780.36
668.70	34794.40
668.84	34773.34
668.98	34719.51
669.12	34735.89
669.26	34803.77
669.40	34424.60
669.54	33832.44
669.68	34607.16
669.82	34401.19
669.96	33949.47
670.10	34220.97
670.25	34232.68
670.39	34466.73
670.53	34328.64
670.67	34019.69
670.81	33862.87
670.95	34134.37
671.09	33708.40
671.23	33900.32
671.37	33785.63
671.51	33670.95
671.65	33523.49
671.79	33280.08
671.93	33324.55
672.07	33661.58
672.21	33404.13
672.35	33221.56
672.49	33020.28
672.63	33298.80
672.77	32851.76
672.91	33354.97
673.05	32821.33
673.19	33041.34
673.33	32802.61
673.47	32804.95
673.61	32973.47
673.75	32872.82
673.89	32561.53
674.03	32107.47
674.17	32374.29
674.31	32404.72
674.45	32367.27
674.59	31723.62
674.73	32364.93
674.87	32058.32
675.01	31981.08
675.15	31810.22
675.29	32032.57
675.43	31871.07
675.56	31840.65
675.70	31400.63
675.84	31590.21
675.98	30852.94
676.12	31332.75
676.26	31344.45
676.40	30904.43
676.54	31349.14
676.68	30787.41
676.82	30485.48
676.96	30874.01
677.10	30555.69
677.23	30340.36
677.37	30984.01
677.51	30047.80
677.65	30253.76
677.79	30192.91
677.93	29825.45
678.07	29986.94
678.21	29647.57
678.34	29818.42
678.48	29790.34
678.62	29921.41
678.76	29600.76
678.90	29614.80
679.04	29612.46
679.18	29596.07
679.31	29532.88
679.45	29160.73
679.59	29062.43
679.73	29280.10
679.87	29324.57
680.00	29010.94
680.14	28765.18
680.28	28811.99
680.42	28325.16
680.56	28526.45
680.70	28229.20
680.83	28514.75
680.97	28187.07
681.11	27978.76
681.25	28100.47
681.39	27761.09
681.52	28105.15
681.66	27885.14
681.80	27985.79
681.94	27599.60
682.07	27772.80
682.21	27435.76
682.35	27321.07
682.49	27498.95
682.62	27405.33
682.76	27049.57
682.90	27042.55
683.04	27101.06
683.17	26869.35
683.31	26799.13
683.45	27133.83
683.59	26295.92
683.72	26359.11
683.86	26274.85
684.00	25921.43
684.13	26214.00
684.27	26251.45
684.41	26089.95
684.55	25832.49
684.68	25820.79
684.82	25605.46
684.96	25692.06
685.09	25928.45
685.23	25762.28
685.37	25776.32
685.50	25703.76
685.64	25722.49
685.78	25823.13
685.91	25270.76
686.05	25226.29
686.19	25116.29
686.32	25013.31
686.46	24627.12
686.60	24493.71
686.73	24196.46
686.87	24114.54
687.01	23644.09
687.14	23751.76
687.28	23812.61
687.42	23644.09
687.55	23756.44
687.69	23798.57
687.82	23723.67
687.96	23789.20
688.10	23693.24
688.23	23325.78
688.37	23325.78
688.50	22958.31
688.64	23061.30
688.78	23234.50
688.91	22850.65
689.05	22836.61
689.18	22867.03
689.32	22747.67
689.46	22707.88
689.59	22867.03
689.73	22843.63
689.86	22808.52
690.00	22616.60
690.13	22700.86
690.27	22382.54
690.41	22483.19
690.54	21977.63
690.68	21986.99
690.81	21851.24
690.95	21804.43
691.08	21743.58
691.22	21593.78
691.35	21638.25
691.49	21530.59
691.62	21633.57
691.76	21467.39
691.89	21523.57
692.03	21282.49
692.16	21266.11
692.30	20959.50
692.43	21125.68
692.57	20819.07
692.70	20758.21
692.84	20592.03
692.97	20566.29
693.11	20137.97
693.24	20262.02
693.38	20152.01
693.51	20149.67
693.65	20130.95
693.78	20252.66
693.92	20149.67
694.05	20173.08
694.19	20109.88
694.32	19707.31
694.45	19894.55
694.59	19796.25
694.72	19632.41
694.86	19564.54
694.99	19246.23
695.13	19440.49
695.26	19391.34
695.39	18635.35
695.53	18927.91
695.66	19190.05
695.80	19204.10
695.93	18939.62
696.07	18792.16
696.20	19091.75
696.33	18761.73
696.47	18743.01
696.60	18469.17
696.73	18478.53
696.87	18494.91
697.00	18405.97
697.14	18420.02
697.27	18225.75
697.40	17869.99
697.54	18139.15
697.67	17823.18
697.80	18111.07
697.94	17841.90
698.07	17738.92
698.21	17706.15
698.34	17474.44
698.47	17661.68
698.61	17336.35
698.74	17614.87
698.87	17514.23
699.01	16833.13
699.14	16922.07
699.27	17027.40
699.40	17252.09
699.54	16814.41
699.67	16559.29
699.80	16746.53
699.94	16599.08
700.07	16718.45
700.20	16540.57
700.34	16624.83
700.47	16379.07
700.60	16545.25
700.73	16393.11
700.87	16262.04
701.00	15988.20
701.13	15955.43
701.26	16201.19
701.40	16081.82
701.53	15690.95
701.66	15576.27
701.79	15503.71
701.93	15421.79
702.06	15351.57
702.19	15243.91
702.32	15562.22
702.46	15569.24
702.59	15419.45
702.72	15353.91
702.85	15208.80
702.99	15576.27
703.12	15255.61
703.25	15126.88
703.38	15000.49
703.51	15091.77
703.65	14899.85
703.78	14906.87
703.91	14539.41
704.04	14335.78
704.17	14487.92
704.31	14450.47
704.44	14080.66
704.57	14265.57
704.70	14150.88
704.83	14354.51
704.96	14420.04
705.10	13937.89
705.23	14204.71
>>>>>End Processed Spectral Data<<<<<
