SpectraSuite Data File
++++++++++++++++++++++++++++++++++++
Date: Fri Oct 25 10:43:22 EDT 2013
User: price-jones
Dark Spectrum Present: No
Reference Spectrum Present: No
Number of Sampled Component Spectra: 1
Spectrometers: USB2+H05261
Integration Time (usec): 100000 (USB2+H05261)
Spectra Averaged: 1 (USB2+H05261)
Boxcar Smoothing: 0 (USB2+H05261)
Correct for Electrical Dark: No (USB2+H05261)
Strobe/Lamp Enabled: No (USB2+H05261)
Correct for Detector Non-linearity: No (USB2+H05261)
Correct for Stray Light: No (USB2+H05261)
Number of Pixels in Processed Spectrum: 2048
>>>>>Begin Processed Spectral Data<<<<<
365.73	63.19
365.92	63.19
366.12	63.19
366.32	0.00
366.52	51.49
366.72	32.77
366.91	0.00
367.11	0.00
367.31	88.94
367.51	63.19
367.70	44.47
367.90	42.13
368.10	46.81
368.30	9.36
368.49	39.79
368.69	67.88
368.89	44.47
369.09	0.00
369.28	77.24
369.48	86.60
369.68	16.38
369.87	30.43
370.07	23.41
370.27	121.71
370.47	180.22
370.66	393.21
370.86	447.04
371.06	468.11
371.25	484.49
371.45	484.49
371.65	533.64
371.84	456.40
372.04	437.68
372.24	407.25
372.44	451.72
372.63	444.70
372.83	482.15
373.03	531.30
373.22	540.66
373.42	519.60
373.62	535.98
373.81	585.13
374.01	552.37
374.21	538.32
374.40	578.11
374.60	650.67
374.79	517.26
374.99	601.52
375.19	596.84
375.38	610.88
375.58	561.73
375.78	543.00
375.97	587.47
376.17	643.65
376.37	627.26
376.56	669.39
376.76	601.52
376.95	697.48
377.15	636.63
377.35	641.31
377.54	667.05
377.74	629.60
377.93	741.95
378.13	631.94
378.33	664.71
378.52	650.67
378.72	662.37
378.91	655.35
379.11	627.26
379.31	641.31
379.50	610.88
379.70	671.73
379.89	627.26
380.09	613.22
380.28	685.78
380.48	699.82
380.68	599.18
380.87	678.76
381.07	753.65
381.26	744.29
381.46	793.44
381.65	746.63
381.85	674.07
382.04	697.48
382.24	746.63
382.43	739.61
382.63	702.16
382.83	695.14
383.02	730.25
383.22	781.74
383.41	734.93
383.61	648.33
383.80	866.00
384.00	711.52
384.19	676.41
384.39	800.46
384.58	805.14
384.78	784.08
384.97	828.55
385.17	805.14
385.36	760.67
385.56	713.86
385.75	777.06
385.95	781.74
386.14	903.45
386.34	851.96
386.53	805.14
386.72	793.44
386.92	922.17
387.11	873.02
387.31	912.81
387.50	851.96
387.70	784.08
387.89	938.55
388.09	814.51
388.28	905.79
388.48	880.04
388.67	950.26
388.86	926.85
389.06	943.24
389.25	919.83
389.45	901.11
389.64	943.24
389.84	999.41
390.03	1013.45
390.22	964.30
390.42	978.34
390.61	1025.15
390.81	992.39
391.00	1006.43
391.19	1132.82
391.39	1025.15
391.58	1048.56
391.78	1064.94
391.97	1032.18
392.16	1067.28
392.36	1121.12
392.55	1039.20
392.75	966.64
392.94	1064.94
393.13	978.34
393.33	978.34
393.52	1060.26
393.71	1123.46
393.91	1107.07
394.10	1165.59
394.29	1191.33
394.49	1177.29
394.68	1240.48
394.88	1203.04
395.07	1287.29
395.26	1210.06
395.46	1142.18
395.65	1329.42
395.84	1200.69
396.04	1320.06
396.23	1167.93
396.42	1184.31
396.62	1224.10
396.81	1191.33
397.00	1242.82
397.19	1301.34
397.39	1277.93
397.58	1387.94
397.77	1427.73
397.97	1500.28
398.16	1577.52
398.35	1537.73
398.55	1511.99
398.74	1497.94
398.93	1516.67
399.12	1465.18
399.32	1488.58
399.51	1540.07
399.70	1500.28
399.90	1509.65
400.09	1579.86
400.28	1675.82
400.47	1638.38
400.67	1577.52
400.86	1593.90
401.05	1664.12
401.24	1652.42
401.44	1657.10
401.63	1762.42
401.82	1685.19
402.01	1682.85
402.21	1760.08
402.40	1708.59
402.59	1795.19
402.78	1818.60
402.97	1722.63
403.17	1834.98
403.36	1879.45
403.55	1799.87
403.74	1717.95
403.93	1727.32
404.13	1799.87
404.32	1902.86
404.51	1832.64
404.70	1902.86
404.89	2045.63
405.09	1973.07
405.28	1919.24
405.47	1987.11
405.66	2045.63
405.85	1949.67
406.05	1942.64
406.24	2036.27
406.43	1963.71
406.62	2099.46
406.81	2176.70
407.00	2104.14
407.20	2092.44
407.39	2099.46
407.58	2167.34
407.77	2195.42
407.96	2249.25
408.15	2263.30
408.34	2246.91
408.54	2272.66
408.73	2324.15
408.92	2347.56
409.11	2354.58
409.30	2321.81
409.49	2296.07
409.68	2363.94
409.87	2230.53
410.07	2307.77
410.26	2401.39
410.45	2370.96
410.64	2443.52
410.83	2527.78
411.02	2511.39
411.21	2605.02
411.40	2516.08
411.59	2586.29
411.78	2614.38
411.98	2609.70
412.17	2825.03
412.36	2686.94
412.55	2738.43
412.74	2764.17
412.93	2703.32
413.12	2693.96
413.31	2925.67
413.50	2796.94
413.69	2792.26
413.88	2874.18
414.07	2890.56
414.26	2951.42
414.45	2808.64
414.64	2911.63
414.83	3103.55
415.02	3000.57
415.22	3138.66
415.41	3056.74
415.60	3164.40
415.79	3199.51
415.98	3234.62
416.17	3267.39
416.36	3253.34
416.55	3211.22
416.74	3382.07
416.93	3218.24
417.12	3293.13
417.31	3339.94
417.50	3342.28
417.69	3599.74
417.88	3410.16
418.07	3300.16
418.26	3449.95
418.45	3435.91
418.64	3616.13
418.83	3676.98
419.02	3599.74
419.21	3550.59
419.39	3651.24
419.58	3592.72
419.77	3569.32
419.96	3609.11
420.15	3707.41
420.34	3747.20
420.53	3896.99
420.72	3861.88
420.91	3875.93
421.10	3915.72
421.29	3852.52
421.48	3791.67
421.67	3831.46
421.86	3779.97
422.05	3782.31
422.24	3730.81
422.43	3852.52
422.61	3894.65
422.80	4058.49
422.99	3953.16
423.18	3918.06
423.37	3957.85
423.56	3885.29
423.75	3913.38
423.94	3864.22
424.13	3744.86
424.32	3691.02
424.50	3894.65
424.69	3964.87
424.88	3946.14
425.07	3946.14
425.26	3894.65
425.45	3971.89
425.64	3946.14
425.83	3990.61
426.01	4095.94
426.20	4037.42
426.39	3981.25
426.58	3939.12
426.77	3978.91
426.96	4039.76
427.15	3946.14
427.33	4175.52
427.52	4051.47
427.71	4077.21
427.90	4318.29
428.09	3976.57
428.28	4203.60
428.46	4170.83
428.65	4044.45
428.84	4381.48
429.03	4269.14
429.22	4084.23
429.40	4222.33
429.59	4138.07
429.78	3939.12
429.97	3836.14
430.16	3999.98
430.34	4205.94
430.53	4095.94
430.72	4128.70
430.91	4084.23
431.10	4304.25
431.28	4498.51
431.47	4610.86
431.66	4755.97
431.85	4599.15
432.03	4589.79
432.22	4592.13
432.41	4727.88
432.60	4781.71
432.79	4795.76
432.97	4709.16
433.16	4999.38
433.35	4681.07
433.54	4678.73
433.72	4643.62
433.91	4634.26
434.10	4571.07
434.28	4819.16
434.47	4791.08
434.66	4882.36
434.85	4959.60
435.03	5020.45
435.22	5074.28
435.41	5085.98
435.59	5029.81
435.78	5144.50
435.97	5088.32
436.16	5121.09
436.34	5097.69
436.53	5046.20
436.72	5287.27
436.90	5083.64
437.09	5231.10
437.28	5020.45
437.46	5100.03
437.65	5252.16
437.84	5247.48
438.02	5233.44
438.21	5142.16
438.40	5144.50
438.58	5399.62
438.77	5451.11
438.96	5439.40
439.14	5427.70
439.33	5535.37
439.52	5715.59
439.70	5668.78
439.89	5823.25
440.08	5694.52
440.26	5741.33
440.45	5870.06
440.63	5884.11
440.82	6026.88
441.01	6017.52
441.19	6090.07
441.38	6036.24
441.57	6188.38
441.75	6462.22
441.94	6218.80
442.12	6162.63
442.31	6455.20
442.50	6263.27
442.68	6176.67
442.87	6352.21
443.05	6438.81
443.24	6476.26
443.43	6551.16
443.61	6401.37
443.80	6698.61
443.98	6366.26
444.17	6328.81
444.35	6380.30
444.54	6633.08
444.73	6518.39
444.91	6562.86
445.10	6583.93
445.28	6525.41
445.47	6401.37
445.65	6401.37
445.84	6520.73
446.02	6703.29
446.21	6707.98
446.39	6436.47
446.58	6834.36
446.77	6757.13
446.95	6663.51
447.14	6693.93
447.32	6977.14
447.51	6738.40
447.69	6820.32
447.88	6600.31
448.06	6848.41
448.25	6722.02
448.43	6740.74
448.62	6782.87
448.80	6609.67
448.99	6946.71
449.17	6722.02
449.36	6881.18
449.54	6953.73
449.73	7171.40
449.91	7162.04
450.10	7115.23
450.28	7176.08
450.46	7269.70
450.65	7234.60
450.83	7323.54
451.02	7152.68
451.20	7379.71
451.39	7276.73
451.57	7190.13
451.76	7049.69
451.94	7344.60
452.13	7419.50
452.31	7328.22
452.49	7070.76
452.68	7218.21
452.86	7197.15
453.05	7321.20
453.23	7328.22
453.42	7262.68
453.60	7389.07
453.78	7311.83
453.97	7393.75
454.15	7461.63
454.34	7307.15
454.52	7531.84
454.70	7473.33
454.89	7651.21
455.07	7452.27
455.26	7768.24
455.44	7747.17
455.62	7691.00
455.81	7852.50
455.99	7896.97
456.17	7999.95
456.36	7953.14
456.54	8161.45
456.73	7868.88
456.91	8198.90
457.09	8142.72
457.28	8325.29
457.46	8140.38
457.64	8404.86
457.83	8119.32
458.01	7941.44
458.19	8376.78
458.38	8306.56
458.56	8198.90
458.74	8163.79
458.93	8210.60
459.11	8269.11
459.29	8269.11
459.48	8351.03
459.66	8344.01
459.84	8418.91
460.03	8755.94
460.21	8521.89
460.39	8535.93
460.57	8657.64
460.76	8669.34
460.94	8798.07
461.12	8737.22
461.31	8746.58
461.49	8706.79
461.67	8744.24
461.85	8805.10
462.04	8664.66
462.22	9357.46
462.40	8896.38
462.59	9046.17
462.77	8814.46
462.95	9076.60
463.13	8915.10
463.32	8950.21
463.50	8954.89
463.68	8919.78
463.86	9156.18
464.05	8978.30
464.23	8908.08
464.41	9092.98
464.59	8856.59
464.78	9336.40
464.96	9193.62
465.14	9100.00
465.32	9282.56
465.50	9235.75
465.69	9329.38
465.87	9369.16
466.05	9217.03
466.23	9231.07
466.41	9343.42
466.60	9338.74
466.78	9270.86
466.96	9100.00
467.14	9451.08
467.32	9373.85
467.51	9352.78
467.69	9207.67
467.87	9334.06
468.05	9589.17
468.23	9544.70
468.41	9462.79
468.60	9582.15
468.78	9530.66
468.96	9556.41
469.14	9675.77
469.32	9813.87
469.50	9167.88
469.69	9558.75
469.87	9781.10
470.05	9802.16
470.23	9729.61
470.41	9682.80
470.59	9963.66
470.77	9844.29
470.95	9937.91
471.14	10289.00
471.32	9984.73
471.50	10384.96
471.68	10399.00
471.86	10445.81
472.04	10413.04
472.22	10541.77
472.40	10157.92
472.58	10506.66
472.77	10413.04
472.95	10637.73
473.13	10932.64
473.31	10590.92
473.49	10588.58
473.67	10637.73
473.85	10712.63
474.03	10963.07
474.21	10738.38
474.39	11119.89
474.57	11103.50
474.75	11229.89
474.93	11173.72
475.12	11171.38
475.30	11232.23
475.48	11246.27
475.66	11349.26
475.84	11314.15
476.02	11398.41
476.20	11564.59
476.38	11859.49
476.56	11772.89
476.74	11667.57
476.92	11894.60
477.10	11847.79
477.28	12456.33
477.46	12224.62
477.64	12222.28
477.82	12500.80
478.00	12697.41
478.18	12650.60
478.36	12409.52
478.54	12683.36
478.72	12718.47
478.90	13067.21
479.08	12863.58
479.26	13238.07
479.44	13099.98
479.62	13275.52
479.80	13348.08
479.98	13570.43
480.16	13652.34
480.34	13708.52
480.52	13879.38
480.70	13862.99
480.88	13687.45
481.06	14033.85
481.24	14010.45
481.41	14143.86
481.59	14373.23
481.77	14532.39
481.95	14345.14
482.13	14604.94
482.31	14560.47
482.49	14970.07
482.67	14923.26
482.85	15206.46
483.03	15321.15
483.21	15194.76
483.39	15290.72
483.57	15410.09
483.74	15611.37
483.92	15683.93
484.10	15510.73
484.28	15641.80
484.46	16212.89
484.64	16154.38
484.82	16056.08
485.00	16287.79
485.18	16650.57
485.35	16718.45
485.53	15917.98
485.71	16503.12
485.89	16678.66
486.07	16503.12
486.25	16718.45
486.43	17186.55
486.61	16945.48
486.78	17011.01
486.96	17460.40
487.14	17671.04
487.32	17898.08
487.50	18153.20
487.68	18097.02
487.85	18300.65
488.03	18750.03
488.21	18530.02
488.39	18583.85
488.57	18604.92
488.75	18918.55
488.92	18883.44
489.10	19431.13
489.28	19370.27
489.46	19726.04
489.64	19791.57
489.81	20245.63
489.99	20180.10
490.17	20355.64
490.35	20208.19
490.53	20372.02
490.70	20610.76
490.88	20496.07
491.06	20629.48
491.24	20706.72
491.41	20812.04
491.59	20748.85
491.77	20636.50
491.95	21083.55
492.13	21483.78
492.30	21919.12
492.48	21598.46
492.66	21900.39
492.84	22040.82
493.01	22319.35
493.19	22202.32
493.37	22281.90
493.54	21998.70
493.72	22677.45
493.90	22441.06
494.08	22911.50
494.25	23180.67
494.43	23557.49
494.61	23463.87
494.79	23583.24
494.96	23555.15
495.14	23644.09
495.32	23861.76
495.49	23838.36
495.67	23775.16
495.85	24041.98
496.02	24049.00
496.20	24538.18
496.38	24584.99
496.55	24533.50
496.73	24968.84
496.91	24479.66
497.09	25015.65
497.26	25280.13
497.44	25099.90
497.62	25294.17
497.79	25380.77
497.97	25336.30
498.14	25577.37
498.32	25558.65
498.50	26122.72
498.67	25968.24
498.85	25963.56
499.03	25823.13
499.20	26684.45
499.38	26398.90
499.56	26253.79
499.73	26452.73
499.91	26595.51
500.08	26424.65
500.26	26602.53
500.44	26588.49
500.61	26494.86
500.79	26335.71
500.97	26707.85
501.14	27431.08
501.32	27182.98
501.49	26796.79
501.67	27091.70
501.84	27463.85
502.02	27520.02
502.20	27372.57
502.37	27889.82
502.55	27964.72
502.72	28142.60
502.90	28105.15
503.07	28051.32
503.25	28107.49
503.43	28013.87
503.60	28182.39
503.78	28261.97
503.95	28336.87
504.13	28535.81
504.30	28238.56
504.48	28512.41
504.65	29064.77
504.83	28914.98
505.01	29277.76
505.18	28952.43
505.36	29191.16
505.53	29418.19
505.71	29851.19
505.88	29635.86
506.06	29310.53
506.23	29633.52
506.41	29638.20
506.58	29914.39
506.76	30047.80
506.93	30246.74
507.11	30085.25
507.28	30281.85
507.46	30171.85
507.63	30136.74
507.81	30199.93
507.98	29844.17
508.16	30618.89
508.33	30909.11
508.50	30785.07
508.68	30969.97
508.85	31281.26
509.03	31098.70
509.20	31351.48
509.38	31047.21
509.55	31159.55
509.73	31445.10
509.90	31538.72
510.08	31400.63
510.25	31557.44
510.42	31997.46
510.60	31943.63
510.77	31777.45
510.95	32107.47
511.12	31990.44
511.30	31882.78
511.47	32121.51
511.64	32561.53
511.82	32500.68
511.99	32130.87
512.17	32418.76
512.34	32519.40
512.51	32690.26
512.69	32734.73
512.86	32664.52
513.04	32933.68
513.21	32830.69
513.38	32631.75
513.56	33069.43
513.73	32741.75
513.90	33310.50
514.08	32664.52
514.25	33312.84
514.43	33352.63
514.60	33179.43
514.77	33233.27
514.95	33457.96
515.12	33684.99
515.29	33383.06
515.47	33832.44
515.64	34321.62
515.81	34003.30
515.99	34038.41
516.16	34026.71
516.33	33518.81
516.51	33647.54
516.68	33193.48
516.85	33310.50
517.03	33450.94
517.20	33881.60
517.37	34174.16
517.54	34691.42
517.72	34181.18
517.89	33722.44
518.06	33701.37
518.24	34377.79
518.41	34410.56
518.58	34677.38
518.75	34726.53
518.93	35267.19
519.10	34794.40
519.27	35063.57
519.45	34862.28
519.62	35388.90
519.79	35395.92
519.96	34885.68
520.14	35578.48
520.31	34735.89
520.48	35431.03
520.65	35356.13
520.83	35995.10
521.00	35693.17
521.17	35796.15
521.34	36196.38
521.52	35889.77
521.69	36254.90
521.86	36837.69
522.03	36556.83
522.20	35842.96
522.38	35941.27
522.55	36582.57
522.72	36500.65
522.89	36477.25
523.07	36795.56
523.24	36788.54
523.41	36980.46
523.58	36629.38
523.75	36957.06
523.92	37015.57
524.10	37156.00
524.27	37022.59
524.44	36825.99
524.61	37031.96
524.78	37050.68
524.96	37691.99
525.13	37235.58
525.30	37640.50
525.47	37750.50
525.64	37607.73
525.81	37715.39
525.98	37654.54
526.16	37015.57
526.33	37221.54
526.50	37626.45
526.67	37422.83
526.84	37488.36
527.01	37397.08
527.18	37563.26
527.36	37811.35
527.53	38244.35
527.70	38349.68
527.87	38581.39
528.04	38319.25
528.21	38665.65
528.38	38550.96
528.55	38555.64
528.72	38787.36
528.89	39239.08
529.07	38429.26
529.24	38714.80
529.41	38848.21
529.58	38780.34
529.75	39026.09
529.92	39271.85
530.09	39250.78
530.26	39180.57
530.43	39147.80
530.60	39271.85
530.77	39044.82
530.94	39400.58
531.11	39470.79
531.28	39772.72
531.46	39281.21
531.63	39585.48
531.80	39548.03
531.97	39470.79
532.14	39632.29
532.31	39407.60
532.48	39442.71
532.65	39758.68
532.82	39548.03
532.99	39456.75
533.16	39339.72
533.33	39777.40
533.50	40292.32
533.67	39700.17
533.84	40112.10
534.01	39971.67
534.18	39878.05
534.35	40863.41
534.52	40046.57
534.69	40514.67
534.86	40425.73
535.03	40119.12
535.20	40477.22
535.37	40931.29
535.54	41270.67
535.71	40945.33
535.88	40980.44
536.05	40818.94
536.22	40381.26
536.38	40898.52
536.55	40758.09
536.72	40669.15
536.89	40444.46
537.06	40774.47
537.23	41015.55
537.40	40411.69
537.57	41067.04
537.74	41170.02
537.91	41792.61
538.08	41235.56
538.25	41134.92
538.42	41617.07
538.59	41387.69
538.75	40989.80
538.92	41273.01
539.09	41324.50
539.26	41436.84
539.43	41237.90
539.60	41366.63
539.77	41556.21
539.94	41158.32
540.11	41294.07
540.28	41612.38
540.44	41553.87
540.61	41698.98
540.78	41588.98
540.95	41509.40
541.12	41514.08
541.29	41818.35
541.46	41886.23
541.62	42024.32
541.79	42403.49
541.96	41537.49
542.13	41935.38
542.30	41818.35
542.47	41942.40
542.63	41979.85
542.80	42047.72
542.97	42436.25
543.14	42714.78
543.31	42426.89
543.48	42480.72
543.64	42909.04
543.81	42770.95
543.98	42579.03
544.15	42600.09
544.32	42644.56
544.48	43173.52
544.65	43028.41
544.82	42747.54
544.99	42462.00
545.16	42579.03
545.32	42859.89
545.49	43882.70
545.66	43260.12
545.83	43337.36
546.00	43072.88
546.16	43196.93
546.33	42799.04
546.50	42319.23
546.67	43217.99
546.83	42934.79
547.00	43124.37
547.17	43384.17
547.34	43328.00
547.50	42993.30
547.67	43672.06
547.84	43615.88
548.00	43821.85
548.17	43569.07
548.34	44013.77
548.51	43887.39
548.67	43695.46
548.84	43938.88
549.01	43669.72
549.18	43660.35
549.34	43962.28
549.51	43573.75
549.68	43735.25
549.84	43611.20
550.01	43548.01
550.18	43459.07
550.34	44065.27
550.51	44378.90
550.68	44109.74
550.84	43138.41
551.01	44266.55
551.18	43618.22
551.34	43941.22
551.51	44243.15
551.68	44390.60
551.84	44341.45
552.01	43955.26
552.18	44245.49
552.34	43831.21
552.51	44306.34
552.68	44055.90
552.84	44083.99
553.01	44594.23
553.18	44357.83
553.34	44353.15
553.51	44055.90
553.67	44182.29
553.84	44662.10
554.01	45069.36
554.17	44884.45
554.34	44643.38
554.51	44905.52
554.67	44673.81
554.84	44615.29
555.00	45151.27
555.17	44692.53
555.33	44570.82
555.50	44804.88
555.67	44954.67
555.83	44814.24
556.00	44861.05
556.16	44706.57
556.33	45172.34
556.50	44378.90
556.66	45097.44
556.83	44467.84
556.99	44641.04
557.16	44856.37
557.32	44966.37
557.49	45151.27
557.65	45172.34
557.82	45127.87
557.98	45059.99
558.15	45408.73
558.32	45308.09
558.48	44893.82
558.65	44839.98
558.81	44701.89
558.98	44680.83
559.14	45013.18
559.31	44907.86
559.47	44938.29
559.64	45301.07
559.80	45120.85
559.97	44872.75
560.13	44900.84
560.30	45392.35
560.46	45441.50
560.63	45289.37
560.79	45558.53
560.96	45521.08
561.12	45399.37
561.29	45235.53
561.45	45525.76
561.61	45647.47
561.78	44959.35
561.94	44933.60
562.11	44732.32
562.27	45411.07
562.44	45631.08
562.60	45626.40
562.77	45464.91
562.93	45322.13
563.10	45823.01
563.26	45130.21
563.42	45525.76
563.59	45270.64
563.75	45701.30
563.92	45783.22
564.08	45940.04
564.24	45652.15
564.41	45567.89
564.57	45764.49
564.74	45511.72
564.90	45574.91
565.07	45862.80
565.23	45418.10
565.39	45439.16
565.56	45429.80
565.72	45504.70
565.88	45837.05
566.05	45085.74
566.21	45429.80
566.38	45439.16
566.54	45485.97
566.70	45818.33
566.87	45834.71
567.03	46234.94
567.19	45963.44
567.36	46256.01
567.52	46054.72
567.68	45818.33
567.85	45825.35
568.01	45982.16
568.17	45378.31
568.34	46204.52
568.50	45535.12
568.66	45303.41
568.83	45640.45
568.99	45492.99
569.15	45860.46
569.32	45773.86
569.48	45748.11
569.64	46256.01
569.81	46316.86
569.97	45528.10
570.13	45530.44
570.30	45801.94
570.46	45134.89
570.62	45247.24
570.78	45104.46
570.95	45535.12
571.11	45305.75
571.27	45544.48
571.43	45820.67
571.60	45823.01
571.76	45502.35
571.92	45607.68
572.09	46129.62
572.25	46019.61
572.41	45612.36
572.57	46169.41
572.74	46384.74
572.90	45776.20
573.06	45745.77
573.22	46302.82
573.38	45907.27
573.55	45951.74
573.71	45701.30
573.87	46464.32
574.03	45986.85
574.20	46003.23
574.36	46230.26
574.52	46452.61
574.68	45783.22
574.84	46115.58
575.01	45893.22
575.17	45900.25
575.33	45787.90
575.49	45675.55
575.65	46059.40
575.82	46082.81
575.98	45670.87
576.14	46368.35
576.30	46066.42
576.46	45916.63
576.62	45975.14
576.79	46000.89
576.95	45537.46
577.11	46328.56
577.27	46120.26
577.43	45666.19
577.59	45422.78
577.75	45933.01
577.92	45574.91
578.08	45088.08
578.24	45766.84
578.40	45902.59
578.56	45949.40
578.72	45984.51
578.88	46403.46
579.04	46351.97
579.21	45687.26
579.37	45708.32
579.53	46082.81
579.69	45851.09
579.85	46157.70
580.01	45928.33
580.17	45467.25
580.33	46040.68
580.49	46075.79
580.65	46138.98
580.82	46080.47
580.98	46099.19
581.14	45586.61
581.30	46101.53
581.46	46202.18
581.62	46230.26
581.78	46223.24
581.94	46588.36
582.10	46134.30
582.26	46396.44
582.42	45755.13
582.58	45982.16
582.74	45855.78
582.90	46368.35
583.06	46045.36
583.22	46007.91
583.38	46232.60
583.54	46256.01
583.70	46197.49
583.86	46251.33
584.02	46136.64
584.18	46014.93
584.34	45984.51
584.50	46272.39
584.66	46019.61
584.82	45986.85
584.98	46143.66
585.14	45823.01
585.30	45837.05
585.46	45881.52
585.62	45947.06
585.78	45956.42
585.94	45970.46
586.10	45738.75
586.26	45900.25
586.42	46305.16
586.58	46321.54
586.74	46349.63
586.90	46026.63
587.06	45811.31
587.22	46281.75
587.38	46190.47
587.54	46326.22
587.70	46230.26
587.86	46113.23
588.02	45993.87
588.18	46239.62
588.34	45942.38
588.49	45448.52
588.65	45654.49
588.81	45841.73
588.97	45668.53
589.13	45478.95
589.29	45556.19
589.45	45858.12
589.61	46155.36
589.77	46000.89
589.93	46766.24
590.08	45771.52
590.24	46258.35
590.40	46309.84
590.56	46251.33
590.72	46478.36
590.88	45851.09
591.04	46536.87
591.20	46429.21
591.35	46658.58
591.51	46651.56
591.67	46160.05
591.83	46150.68
591.99	45724.71
592.15	46024.29
592.31	46344.95
592.46	46363.67
592.62	46382.40
592.78	46312.18
592.94	46366.01
593.10	46176.43
593.26	46686.67
593.41	46342.61
593.57	46026.63
593.73	46150.68
593.89	46323.88
594.05	46314.52
594.20	46391.76
594.36	46337.93
594.52	46064.08
594.68	45792.58
594.84	46248.99
594.99	46719.43
595.15	46274.73
595.31	46440.91
595.47	46223.24
595.62	46162.39
595.78	46344.95
595.94	46368.35
596.10	46295.80
596.25	46153.02
596.41	46185.79
596.57	46204.52
596.73	46646.88
596.88	46047.70
597.04	46300.48
597.20	46438.57
597.36	46143.66
597.51	46183.45
597.67	46141.32
597.83	46110.89
597.99	46567.30
598.14	46417.50
598.30	46019.61
598.46	46515.81
598.61	46389.42
598.77	46106.21
598.93	46494.74
599.09	46169.41
599.24	46719.43
599.40	46621.13
599.56	46766.24
599.71	45944.72
599.87	46649.22
600.03	46461.97
600.18	46298.14
600.34	45954.08
600.50	46195.15
600.65	46010.25
600.81	46447.93
600.97	46113.23
601.12	46487.72
601.28	46122.60
601.44	45947.06
601.59	45928.33
601.75	46003.23
601.91	46075.79
602.06	45799.60
602.22	46541.55
602.37	46375.37
602.53	46621.13
602.69	46438.57
602.84	46101.53
603.00	45972.80
603.16	46033.66
603.31	45944.72
603.47	46131.96
603.62	46178.77
603.78	46373.03
603.94	46234.94
604.09	46398.78
604.25	46550.91
604.40	45734.07
604.56	45881.52
604.71	46515.81
604.87	46089.83
605.03	46059.40
605.18	45904.93
605.34	46256.01
605.49	45734.07
605.65	46445.59
605.80	45738.75
605.96	46213.88
606.12	45848.75
606.27	46375.37
606.43	45691.94
606.58	46110.89
606.74	45921.31
606.89	45916.63
607.05	46157.70
607.20	46188.13
607.36	46342.61
607.51	46298.14
607.67	46150.68
607.82	46141.32
607.98	45708.32
608.13	45977.48
608.29	45729.39
608.44	45757.47
608.60	45567.89
608.75	45614.70
608.91	45996.21
609.06	45663.85
609.22	45965.78
609.37	45876.84
609.53	46314.52
609.68	45918.97
609.84	45265.96
609.99	45235.53
610.15	45832.37
610.30	45247.24
610.46	45713.00
610.61	45579.59
610.76	45713.00
610.92	45977.48
611.07	45748.11
611.23	45750.45
611.38	45647.47
611.54	45195.74
611.69	45352.56
611.84	45373.63
612.00	45483.63
612.15	45460.23
612.31	45457.88
612.46	45162.98
612.62	45539.80
612.77	45310.43
612.92	45254.26
613.08	45380.65
613.23	45221.49
613.39	44903.18
613.54	45001.48
613.69	45263.62
613.85	44961.69
614.00	44814.24
614.15	45249.58
614.31	45120.85
614.46	45521.08
614.62	45340.86
614.77	45333.84
614.92	44917.22
615.08	44847.00
615.23	45099.78
615.38	45050.63
615.54	44491.24
615.69	44769.77
615.84	44486.56
616.00	45179.36
616.15	44865.73
616.30	44753.38
616.46	44786.15
616.61	44336.77
616.76	44854.03
616.92	43840.57
617.07	44711.25
617.22	44437.41
617.37	44353.15
617.53	44779.13
617.68	44594.23
617.83	44769.77
617.99	44009.09
618.14	44875.09
618.29	44664.44
618.45	44418.69
618.60	44772.11
618.75	44203.36
618.90	44016.11
619.06	44161.23
619.21	43896.75
619.36	44399.96
619.51	44091.01
619.67	44140.16
619.82	43981.01
619.97	44009.09
620.12	43634.61
620.28	43681.42
620.43	43873.34
620.58	43896.75
620.73	44161.23
620.89	44175.27
621.04	44369.54
621.19	44463.16
621.34	44346.13
621.49	43606.52
621.65	43442.68
621.80	44030.16
621.95	43840.57
622.10	43845.26
622.25	43716.53
622.41	44013.77
622.56	43899.09
622.71	43503.54
622.86	43803.13
623.01	43791.42
623.16	43714.19
623.32	43316.29
623.47	43690.78
623.62	43330.34
623.77	43056.50
623.92	43938.88
624.07	42951.17
624.23	43119.69
624.38	42997.98
624.53	43517.58
624.68	43545.67
624.83	43353.74
624.98	43529.28
625.13	42780.31
625.29	43438.00
625.44	43037.77
625.59	43098.62
625.74	43047.13
625.89	43016.71
626.04	42920.74
626.19	43136.07
626.34	42925.42
626.49	43309.27
626.65	43246.08
626.80	43136.07
626.95	42593.07
627.10	42988.62
627.25	42827.12
627.40	42375.40
627.55	42431.57
627.70	42480.72
627.85	42733.50
628.00	42614.13
628.15	42731.16
628.30	42513.49
628.45	42560.30
628.60	42831.80
628.76	42696.05
628.91	42384.76
629.06	42710.10
629.21	42501.79
629.36	41991.55
629.51	42047.72
629.66	42469.02
629.81	42326.25
629.96	42017.30
630.11	42469.02
630.26	42234.97
630.41	41949.42
630.56	42108.58
630.71	42356.67
630.86	41972.83
631.01	41921.34
631.16	41844.10
631.31	41869.84
631.46	41509.40
631.61	41865.16
631.76	41961.12
631.91	41886.23
632.06	42052.41
632.21	42485.40
632.36	42181.13
632.51	41535.15
632.66	41521.10
632.81	41385.35
632.96	42108.58
633.10	41350.24
633.25	41425.14
633.40	41743.45
633.55	41656.85
633.70	41539.83
633.85	41387.69
634.00	41727.07
634.15	41706.01
634.30	41577.28
634.45	41326.84
634.60	41600.68
634.75	41743.45
634.90	41394.71
635.05	41315.14
635.19	41521.10
635.34	41703.67
635.49	41076.40
635.64	41188.75
635.79	41167.68
635.94	41181.73
636.09	41195.77
636.24	41038.95
636.39	40945.33
636.53	41139.60
636.68	40987.46
636.83	40790.86
636.98	40912.56
637.13	40748.73
637.28	41640.47
637.43	41450.89
637.57	41406.42
637.72	40512.33
637.87	41020.23
638.02	40893.84
638.17	40837.67
638.32	41081.08
638.46	40491.27
638.61	40704.26
638.76	40474.88
638.91	40772.13
639.06	40980.44
639.20	40912.56
639.35	40528.72
639.50	40325.09
639.65	40842.35
639.80	40397.65
639.94	40697.24
640.09	40528.72
640.24	40519.35
640.39	40498.29
640.54	40208.06
640.68	40189.34
640.83	39983.37
640.98	40105.08
641.13	40119.12
641.27	40861.07
641.42	40020.82
641.57	40095.72
641.72	40470.20
641.86	40027.84
642.01	40158.91
642.16	40184.66
642.31	39807.83
642.45	40261.90
642.60	39601.86
642.75	39826.56
642.90	39922.52
643.04	40121.46
643.19	39866.34
643.34	39985.71
643.48	39990.39
643.63	39835.92
643.78	39948.26
643.93	39875.71
644.07	39873.37
644.22	39473.13
644.37	39227.38
644.51	39807.83
644.66	40067.63
644.81	39491.86
644.95	39826.56
645.10	39260.15
645.25	39824.22
645.39	39952.94
645.54	39365.47
645.69	39590.16
645.83	39349.09
645.98	39349.09
646.13	39257.81
646.27	39459.09
646.42	39583.14
646.57	39089.29
646.71	39505.90
646.86	39173.55
647.00	39402.92
647.15	39447.39
647.30	39285.89
647.44	39295.25
647.59	38831.83
647.74	39126.74
647.88	39072.90
648.03	39086.95
648.17	38848.21
648.32	38773.31
648.47	38644.59
648.61	38611.82
648.76	38785.02
648.90	38707.78
649.05	38892.68
649.20	38979.28
649.34	38792.04
649.49	38274.78
649.63	38625.86
649.78	38646.93
649.92	38677.35
650.07	38787.36
650.21	38717.14
650.36	38419.89
650.51	38436.28
650.65	39009.71
650.80	39007.37
650.94	38607.14
651.09	38171.80
651.23	38132.01
651.38	38143.71
651.52	38071.15
651.67	37996.26
651.81	37713.05
651.96	38178.82
652.10	38476.07
652.25	38593.09
652.39	38164.78
652.54	38871.62
652.68	38431.60
652.83	38036.05
652.97	38403.51
653.12	38628.20
653.26	38176.48
653.41	37907.32
653.55	38192.86
653.70	37956.47
653.84	38160.09
653.99	38078.18
654.13	38087.54
654.27	38148.39
654.42	38412.87
654.56	38064.13
654.71	38258.40
654.85	38047.75
655.00	38146.05
655.14	37736.46
655.29	37439.21
655.43	37467.30
655.57	36816.63
655.72	37397.08
655.86	36996.85
656.01	36926.63
656.15	36664.49
656.30	37301.12
656.44	37156.00
656.58	37736.46
656.73	37476.66
656.87	37240.26
657.01	37020.25
657.16	37081.11
657.30	37064.72
657.45	36694.92
657.59	36830.67
657.73	37219.20
657.88	37446.23
658.02	37289.42
658.16	37174.73
658.31	37153.66
658.45	37127.92
658.60	36793.22
658.74	37275.37
658.88	37282.39
659.03	36641.09
659.17	37022.59
659.31	36762.79
659.46	36725.35
659.60	37291.76
659.74	36467.89
659.89	36371.92
660.03	36715.98
660.17	36914.93
660.32	37010.89
660.46	36409.37
660.60	36528.74
660.74	36074.68
660.89	36601.30
661.03	36343.84
661.17	36390.65
661.32	35800.83
661.46	36318.09
661.60	35873.39
661.74	36051.27
661.89	35950.63
662.03	35576.14
662.17	35571.46
662.31	36182.34
662.46	36205.75
662.60	36472.57
662.74	36020.84
662.88	35952.97
663.03	35218.04
663.17	35768.07
663.31	35424.01
663.45	35786.79
663.60	35428.69
663.74	34897.39
663.88	35395.92
664.02	34677.38
664.17	35452.09
664.31	35143.14
664.45	34998.03
664.59	34946.54
664.73	34841.21
664.88	35220.38
665.02	34817.81
665.16	34614.18
665.30	34707.80
665.44	34263.10
665.59	34380.13
665.73	34513.54
665.87	34101.61
666.01	34632.91
666.15	35044.84
666.29	34181.18
666.44	34660.99
666.58	34391.83
666.72	34307.57
666.86	34696.10
667.00	34295.87
667.14	34162.46
667.28	34209.27
667.43	34412.90
667.57	33944.79
667.71	34061.82
667.85	34040.75
667.99	34373.11
668.13	34057.14
668.27	34139.05
668.41	33778.61
668.56	33340.93
668.70	33521.15
668.84	33174.75
668.98	33240.29
669.12	33366.68
669.26	33273.06
669.40	33390.08
669.54	33399.44
669.68	33537.54
669.82	33123.26
669.96	33167.73
670.10	32802.61
670.25	32723.03
670.39	33102.20
670.53	32786.22
670.67	32645.79
670.81	32879.85
670.95	32463.23
671.09	32694.94
671.23	32451.53
671.37	32376.63
671.51	32486.64
671.65	32751.12
671.79	32025.55
671.93	32423.44
672.07	32119.17
672.21	32100.45
672.35	32266.63
672.49	31882.78
672.63	31735.32
672.77	31648.72
672.91	31997.46
673.05	31763.41
673.19	31527.02
673.33	31527.02
673.47	31833.63
673.61	31309.35
673.75	31622.98
673.89	31204.02
674.03	31260.20
674.17	31372.54
674.31	31110.40
674.45	31136.15
674.59	31122.10
674.73	30923.16
674.87	31187.64
675.01	30916.14
675.15	30717.19
675.29	30623.57
675.43	30941.88
675.56	30808.47
675.70	30759.32
675.84	30560.37
675.98	29474.37
676.12	30389.52
676.26	30452.71
676.40	30239.72
676.54	29977.58
676.68	29947.15
676.82	29577.35
676.96	29556.28
677.10	29963.54
677.23	29848.85
677.37	29542.24
677.51	29214.57
677.65	29024.98
677.79	29198.18
677.93	29284.78
678.07	28755.82
678.21	28325.16
678.34	28189.41
678.48	28706.67
678.62	28261.97
678.76	28481.98
678.90	28318.14
679.04	28222.18
679.18	28442.19
679.31	27590.24
679.45	27976.42
679.59	28018.55
679.73	27962.38
679.87	27957.70
680.00	27669.81
680.14	27845.35
680.28	27496.61
680.42	27475.55
680.56	27407.67
680.70	27431.08
680.83	27527.04
680.97	27311.71
681.11	27213.41
681.25	27264.90
681.39	26941.91
681.52	26810.84
681.66	26810.84
681.80	26855.31
681.94	26703.17
682.07	26539.33
682.21	26677.43
682.35	26464.44
682.49	26197.62
682.62	26167.19
682.76	26216.34
682.90	26438.69
683.04	25893.35
683.17	25818.45
683.31	25329.28
683.45	25968.24
683.59	25596.10
683.72	25348.00
683.86	25656.95
684.00	25249.70
684.13	24835.42
684.27	25125.65
684.41	24950.11
684.55	24690.31
684.68	25053.09
684.82	25057.78
684.96	25160.76
685.09	24584.99
685.23	24629.46
685.37	24570.94
685.50	24786.27
685.64	24556.90
685.78	24250.29
685.91	24091.13
686.05	24170.71
686.19	23908.57
686.32	23632.39
686.46	23634.73
686.60	23082.36
686.73	23157.26
686.87	23065.98
687.01	23002.78
687.14	22876.40
687.28	22923.21
687.42	22995.76
687.55	22808.52
687.69	23173.64
687.82	23185.35
687.96	22977.04
688.10	22747.67
688.23	22532.34
688.37	22230.41
688.50	22328.71
688.64	22178.92
688.78	22204.66
688.91	21972.95
689.05	21731.87
689.18	21923.80
689.32	21591.44
689.46	21825.50
689.59	22026.78
689.73	21806.77
689.86	21591.44
690.00	21832.52
690.13	21198.23
690.27	21390.16
690.41	21355.05
690.54	21067.16
690.68	21345.69
690.81	20865.88
690.95	21413.56
691.08	21212.28
691.22	21106.95
691.35	20959.50
691.49	20664.59
691.62	20800.34
691.76	20599.05
691.89	20800.34
692.03	20449.26
692.16	20402.45
692.30	20276.06
692.43	20582.67
692.57	20180.10
692.70	19667.52
692.84	19693.27
692.97	19531.77
693.11	19499.00
693.24	19669.86
693.38	19700.29
693.51	19452.19
693.65	19585.60
693.78	19672.20
693.92	19527.09
694.05	19506.02
694.19	19016.85
694.32	19433.47
694.45	19183.03
694.59	19014.51
694.72	19126.86
694.86	18965.36
694.99	18853.02
695.13	18515.98
695.26	18520.66
695.39	18244.48
695.53	18757.05
695.66	18464.49
695.80	18523.00
695.93	18384.91
696.07	17998.72
696.20	18202.35
696.33	18256.18
696.47	17954.25
696.60	17874.67
696.73	17851.27
696.87	17469.76
697.00	17448.69
697.14	17481.46
697.27	17001.65
697.40	17256.77
697.54	17429.97
697.67	17036.76
697.80	17186.55
697.94	17415.93
698.07	16980.59
698.21	17060.16
698.34	17092.93
698.47	17025.06
698.61	16617.80
698.74	16751.21
698.87	16821.43
699.01	16329.92
699.14	16278.43
699.27	16105.23
699.40	16388.43
699.54	16189.49
699.67	15887.56
699.80	15955.43
699.94	15908.62
700.07	16189.49
700.20	15976.50
700.34	15859.47
700.47	15770.53
700.60	15735.42
700.73	15885.22
700.87	15653.50
701.00	15367.96
701.13	15302.42
701.26	15342.21
701.40	15513.07
701.53	15054.33
701.66	15161.99
701.79	15145.61
701.93	15026.24
702.06	15051.99
702.19	14930.28
702.32	15059.01
702.46	14829.63
702.59	14949.00
702.72	14492.60
702.85	14670.48
702.99	14651.75
703.12	14305.35
703.25	14452.81
703.38	14366.21
703.51	14380.25
703.65	14202.37
703.78	13984.70
703.91	13830.23
704.04	14120.45
704.17	13893.42
704.31	13874.70
704.44	13832.57
704.57	13727.24
704.70	13762.35
704.83	13462.76
704.96	13502.55
705.10	13647.66
705.23	13502.55
>>>>>End Processed Spectral Data<<<<<
