SpectraSuite Data File
++++++++++++++++++++++++++++++++++++
Date: Fri Oct 25 10:44:06 EDT 2013
User: price-jones
Dark Spectrum Present: No
Reference Spectrum Present: No
Number of Sampled Component Spectra: 1
Spectrometers: USB2+H05261
Integration Time (usec): 100000 (USB2+H05261)
Spectra Averaged: 1 (USB2+H05261)
Boxcar Smoothing: 0 (USB2+H05261)
Correct for Electrical Dark: No (USB2+H05261)
Strobe/Lamp Enabled: No (USB2+H05261)
Correct for Detector Non-linearity: No (USB2+H05261)
Correct for Stray Light: No (USB2+H05261)
Number of Pixels in Processed Spectrum: 2048
>>>>>Begin Processed Spectral Data<<<<<
365.73	65.54
365.92	65.54
366.12	65.54
366.32	30.43
366.52	37.45
366.72	51.49
366.91	21.06
367.11	32.77
367.31	0.00
367.51	11.70
367.70	0.00
367.90	100.64
368.10	0.00
368.30	0.00
368.49	37.45
368.69	84.26
368.89	0.00
369.09	7.02
369.28	91.28
369.48	30.43
369.68	35.11
369.87	0.00
370.07	53.83
370.27	170.86
370.47	159.16
370.66	402.57
370.86	430.66
371.06	489.17
371.25	510.24
371.45	491.51
371.65	454.06
371.84	456.40
372.04	486.83
372.24	484.49
372.44	489.17
372.63	528.96
372.83	566.41
373.03	517.26
373.22	468.11
373.42	589.82
373.62	547.69
373.81	531.30
374.01	540.66
374.21	521.94
374.40	540.66
374.60	617.90
374.79	603.86
374.99	587.47
375.19	627.26
375.38	648.33
375.58	580.45
375.78	561.73
375.97	608.54
376.17	634.29
376.37	589.82
376.56	620.24
376.76	617.90
376.95	657.69
377.15	657.69
377.35	676.41
377.54	699.82
377.74	622.58
377.93	608.54
378.13	634.29
378.33	692.80
378.52	692.80
378.72	631.94
378.91	669.39
379.11	723.23
379.31	641.31
379.50	662.37
379.70	737.27
379.89	629.60
380.09	732.59
380.28	734.93
380.48	667.05
380.68	636.63
380.87	692.80
381.07	594.50
381.26	711.52
381.46	683.44
381.65	697.48
381.85	774.72
382.04	662.37
382.24	748.97
382.43	739.61
382.63	645.99
382.83	734.93
383.02	807.48
383.22	746.63
383.41	688.12
383.61	751.31
383.80	777.06
384.00	849.61
384.19	812.17
384.39	770.04
384.58	706.84
384.78	840.25
384.97	844.93
385.17	751.31
385.36	866.00
385.56	772.38
385.75	809.83
385.95	849.61
386.14	880.04
386.34	828.55
386.53	826.21
386.72	809.83
386.92	877.70
387.11	821.53
387.31	837.91
387.50	828.55
387.70	854.30
387.89	826.21
388.09	849.61
388.28	835.57
388.48	877.70
388.67	919.83
388.86	880.04
389.06	933.87
389.25	959.62
389.45	1004.09
389.64	997.07
389.84	1034.52
390.03	957.28
390.22	1020.47
390.42	1057.92
390.61	1008.77
390.81	1034.52
391.00	1090.69
391.19	1062.60
391.39	1029.84
391.58	1137.50
391.78	1081.33
391.97	1095.37
392.16	938.55
392.36	1062.60
392.55	1121.12
392.75	1034.52
392.94	1043.88
393.13	1067.28
393.33	1050.90
393.52	994.73
393.71	1048.56
393.91	1107.07
394.10	1114.10
394.29	1093.03
394.49	1130.48
394.68	1193.67
394.88	1238.14
395.07	1301.34
395.26	1212.40
395.46	1275.59
395.65	1306.02
395.84	1284.95
396.04	1214.74
396.23	1247.51
396.42	1100.05
396.62	1172.61
396.81	1266.23
397.00	1226.44
397.19	1299.00
397.39	1345.81
397.58	1303.68
397.77	1315.38
397.97	1394.96
398.16	1355.17
398.35	1462.83
398.55	1533.05
398.74	1479.22
398.93	1519.01
399.12	1568.16
399.32	1523.69
399.51	1544.75
399.70	1600.93
399.90	1605.61
400.09	1568.16
400.28	1528.37
400.47	1584.54
400.67	1640.72
400.86	1722.63
401.05	1638.38
401.24	1694.55
401.44	1596.25
401.63	1729.66
401.82	1717.95
402.01	1685.19
402.21	1783.49
402.40	1760.08
402.59	1778.81
402.78	1781.15
402.97	1685.19
403.17	1823.28
403.36	1914.56
403.55	1781.15
403.74	1902.86
403.93	1874.77
404.13	1802.21
404.32	1884.13
404.51	1942.64
404.70	1895.83
404.89	1933.28
405.09	2057.33
405.28	2015.20
405.47	1968.39
405.66	1912.22
405.85	2090.10
406.05	2078.40
406.24	1935.62
406.43	2005.84
406.62	2064.35
406.81	2050.31
407.00	2134.57
407.20	2026.90
407.39	2015.20
407.58	2162.66
407.77	2174.36
407.96	2242.23
408.15	2183.72
408.34	2305.43
408.54	2258.62
408.73	2296.07
408.92	2235.21
409.11	2239.89
409.30	2249.25
409.49	2225.85
409.68	2214.15
409.87	2211.81
410.07	2431.82
410.26	2434.16
410.45	2385.01
410.64	2331.17
410.83	2572.25
411.02	2462.24
411.21	2726.72
411.40	2574.59
411.59	2595.65
411.78	2768.85
411.98	2656.51
412.17	2679.91
412.36	2722.04
412.55	2743.11
412.74	2794.60
412.93	2810.98
413.12	2808.64
413.31	2878.86
413.50	2750.13
413.69	2946.73
413.88	2911.63
414.07	3016.95
414.26	2981.84
414.45	2899.92
414.64	3009.93
414.83	3033.33
415.02	3112.91
415.22	3096.53
415.41	3197.17
415.60	3038.02
415.79	3208.87
415.98	3246.32
416.17	3283.77
416.36	3246.32
416.55	3248.66
416.74	3330.58
416.93	3253.34
417.12	3300.16
417.31	3375.05
417.50	3267.39
417.69	3419.52
417.88	3426.54
418.07	3431.23
418.26	3368.03
418.45	3489.74
418.64	3562.30
418.83	3578.68
419.02	3604.42
419.21	3543.57
419.39	3655.92
419.58	3627.83
419.77	3681.66
419.96	3702.73
420.15	3665.28
420.34	3559.95
420.53	3836.14
420.72	3691.02
420.91	3826.78
421.10	3843.16
421.29	3960.19
421.48	3698.05
421.67	3868.91
421.86	3826.78
422.05	3761.24
422.24	3826.78
422.43	3946.14
422.61	3889.97
422.80	4039.76
422.99	3829.12
423.18	3997.64
423.37	3988.27
423.56	3854.86
423.75	3836.14
423.94	3948.48
424.13	3798.69
424.32	3735.50
424.50	3789.33
424.69	4030.40
424.88	4098.28
425.07	3932.10
425.26	3927.42
425.45	3941.46
425.64	4067.85
425.83	3953.16
426.01	4032.74
426.20	4028.06
426.39	4149.77
426.58	4042.11
426.77	3971.89
426.96	4060.83
427.15	3913.38
427.33	4145.09
427.52	4032.74
427.71	4084.23
427.90	4175.52
428.09	4105.30
428.28	4201.26
428.46	4161.47
428.65	4100.62
428.84	4477.44
429.03	4337.01
429.22	4117.00
429.40	4222.33
429.59	4140.41
429.78	4072.53
429.97	3922.74
430.16	4051.47
430.34	4046.79
430.53	4074.87
430.72	4156.79
430.91	4210.62
431.10	4376.80
431.28	4447.02
431.47	4678.73
431.66	4732.56
431.85	4638.94
432.03	4575.75
432.22	4533.62
432.41	4575.75
432.60	4681.07
432.79	4685.75
432.97	4931.51
433.16	4765.33
433.35	4662.35
433.54	4746.61
433.72	4774.69
433.91	4660.01
434.10	4744.27
434.28	4704.48
434.47	4912.78
434.66	4912.78
434.85	4901.08
435.03	5018.11
435.22	5015.77
435.41	5130.45
435.59	5188.97
435.78	5198.33
435.97	5235.78
436.16	5184.29
436.34	5200.67
436.53	5221.74
436.72	5313.02
436.90	5135.14
437.09	5095.35
437.28	5064.92
437.46	5210.03
437.65	5118.75
437.84	5266.21
438.02	5275.57
438.21	5221.74
438.40	5093.01
438.58	5408.98
438.77	5514.30
438.96	5472.17
439.14	5504.94
439.33	5790.49
439.52	5682.82
439.70	5696.86
439.89	5823.25
440.08	5638.35
440.26	5624.31
440.45	5830.27
440.63	5802.19
440.82	5926.24
441.01	5874.74
441.19	5893.47
441.38	6069.01
441.57	6120.50
441.75	6099.44
441.94	6368.60
442.12	6436.47
442.31	6389.66
442.50	6300.72
442.68	6324.13
442.87	6317.11
443.05	6415.41
443.24	6511.37
443.43	6448.18
443.61	6523.07
443.80	6640.10
443.98	6480.94
444.17	6223.48
444.35	6651.80
444.54	6555.84
444.73	6541.80
444.91	6511.37
445.10	6431.79
445.28	6593.29
445.47	6509.03
445.65	6256.25
445.84	6401.37
446.02	6616.69
446.21	6504.35
446.39	6621.38
446.58	6796.92
446.77	6705.63
446.95	6635.42
447.14	6707.98
447.32	6960.75
447.51	6815.64
447.69	6726.70
447.88	6703.29
448.06	6581.59
448.25	6799.26
448.43	6738.40
448.62	6747.76
448.80	6846.07
448.99	6839.05
449.17	6792.23
449.36	6665.85
449.54	6995.86
449.73	7150.34
449.91	7136.29
450.10	7066.08
450.28	7250.98
450.46	7084.80
450.65	7353.96
450.83	7288.43
451.02	7253.32
451.20	7255.66
451.39	7428.86
451.57	7269.70
451.76	7131.61
451.94	7328.22
452.13	7321.20
452.31	7225.23
452.49	7185.44
452.68	7304.81
452.86	7220.55
453.05	7279.07
453.23	7258.00
453.42	7325.88
453.60	7311.83
453.78	7590.36
453.97	7435.88
454.15	7496.74
454.34	7463.97
454.52	7676.96
454.70	7658.23
454.89	7576.31
455.07	7529.50
455.26	7679.30
455.44	7911.01
455.62	7562.27
455.81	7751.85
455.99	7798.66
456.17	7941.44
456.36	7908.67
456.54	8023.36
456.73	8021.02
456.91	8105.28
457.09	8149.75
457.28	8241.03
457.46	8004.63
457.64	8269.11
457.83	8154.43
458.01	7999.95
458.19	8285.50
458.38	8175.49
458.56	8372.10
458.74	8271.45
458.93	8409.54
459.11	8105.28
459.29	8435.29
459.48	8320.60
459.66	8276.13
459.84	8458.70
460.03	8699.77
460.21	8472.74
460.39	8547.64
460.57	8685.73
460.76	8690.41
460.94	8760.63
461.12	8837.86
461.31	8704.45
461.49	8788.71
461.67	8615.51
461.85	8896.38
462.04	9027.45
462.22	9369.16
462.40	9118.73
462.59	8826.16
462.77	8847.22
462.95	9036.81
463.13	9132.77
463.32	8999.36
463.50	8835.52
463.68	8980.64
463.86	9160.86
464.05	8891.70
464.23	9142.13
464.41	9153.84
464.59	8964.25
464.78	9308.31
464.96	9121.07
465.14	9057.87
465.32	9074.26
465.50	9310.65
465.69	9460.45
465.87	9362.14
466.05	9315.33
466.23	9217.03
466.41	9291.93
466.60	9261.50
466.78	9415.98
466.96	9240.44
467.14	9317.67
467.32	9387.89
467.51	9404.27
467.69	9284.91
467.87	9474.49
468.05	9568.11
468.23	9401.93
468.41	9462.79
468.60	9469.81
468.78	9668.75
468.96	9626.62
469.14	9762.37
469.32	10003.45
469.50	9760.03
469.69	9944.94
469.87	9858.34
470.05	10040.90
470.23	9937.91
470.41	9937.91
470.59	9926.21
470.77	9933.23
470.95	9928.55
471.14	10352.19
471.32	10001.11
471.50	10492.62
471.68	10218.78
471.86	10443.47
472.04	10518.37
472.22	10459.85
472.40	10324.10
472.58	10370.91
472.77	10387.30
472.95	10541.77
473.13	11005.20
473.31	10420.06
473.49	10389.64
473.67	10761.78
473.85	10871.79
474.03	11016.90
474.21	11063.71
474.39	10965.41
474.57	11138.61
474.75	11145.63
474.93	10949.03
475.12	11227.55
475.30	11548.20
475.48	11421.81
475.66	11286.06
475.84	11323.51
476.02	11412.45
476.20	11590.33
476.38	11681.61
476.56	12131.00
476.74	11641.82
476.92	11744.81
477.10	11925.03
477.28	11955.46
477.46	11941.41
477.64	12259.73
477.82	12697.41
478.00	12697.41
478.18	12587.40
478.36	12856.56
478.54	12547.61
478.72	12718.47
478.90	13001.68
479.08	13109.34
479.26	13121.04
479.44	13404.25
479.62	13312.97
479.80	13429.99
479.98	13596.17
480.16	13628.94
480.34	13570.43
480.52	13884.06
480.70	13928.53
480.88	13678.09
481.06	13980.02
481.24	14125.13
481.41	14298.33
481.59	14485.58
481.77	14443.45
481.95	14572.18
482.13	14520.68
482.31	14628.35
482.49	15070.71
482.67	14850.70
482.85	15192.42
483.03	15126.88
483.21	15342.21
483.39	15761.17
483.57	15733.08
483.74	15578.61
483.92	15796.28
484.10	15726.06
484.28	16020.97
484.46	16065.44
484.64	16493.76
484.82	16215.23
485.00	16140.33
485.18	16587.38
485.35	16549.93
485.53	16453.97
485.71	16205.87
485.89	16748.87
486.07	16510.14
486.25	16755.90
486.43	16994.63
486.61	17135.06
486.78	17177.19
486.96	17521.25
487.14	17699.13
487.32	17605.51
487.50	18017.44
487.68	18363.84
487.85	18359.16
488.03	18579.17
488.21	18850.67
488.39	18635.35
488.57	18504.28
488.75	18986.43
488.92	19157.28
489.10	19447.51
489.28	19580.92
489.46	19976.47
489.64	20173.08
489.81	20299.47
489.99	20460.96
490.17	20329.89
490.35	20451.60
490.53	20542.88
490.70	20622.46
490.88	20702.04
491.06	20966.52
491.24	20980.56
491.41	20900.98
491.59	21167.80
491.77	20844.81
491.95	21231.00
492.13	21366.75
492.30	21600.80
492.48	21874.65
492.66	21912.10
492.84	21937.84
493.01	22038.48
493.19	22111.04
493.37	22284.24
493.54	22499.57
493.72	22647.02
493.90	22700.86
494.08	23274.29
494.25	23335.14
494.43	23276.63
494.61	23676.86
494.79	23803.25
494.96	23353.87
495.14	23585.58
495.32	23946.02
495.49	23733.03
495.67	24002.19
495.85	24182.42
496.02	24500.73
496.20	24238.59
496.38	24636.48
496.55	24659.88
496.73	25095.22
496.91	24926.71
497.09	25076.50
497.26	25408.86
497.44	24938.41
497.62	25130.33
497.79	25563.33
497.97	25411.20
498.14	25685.04
498.32	25764.62
498.50	25568.01
498.67	26373.16
498.85	26157.83
499.03	26506.57
499.20	26309.96
499.38	26314.64
499.56	26794.45
499.73	26686.79
499.91	26700.83
500.08	27051.91
500.26	26464.44
500.44	27175.96
500.61	26906.80
500.79	26651.68
500.97	27089.36
501.14	27175.96
501.32	27302.35
501.49	27325.75
501.67	27161.92
501.84	27564.49
502.02	27494.27
502.20	27864.08
502.37	27850.03
502.55	27971.74
502.72	28353.25
502.90	28060.68
503.07	28512.41
503.25	28418.78
503.43	28271.33
503.60	28074.73
503.78	28432.83
503.95	28491.34
504.13	28758.16
504.30	28912.64
504.48	28418.78
504.65	29022.64
504.83	29125.63
505.01	29483.73
505.18	29186.48
505.36	29685.01
505.53	29273.08
505.71	29642.88
505.88	29991.62
506.06	29347.98
506.23	30387.18
506.41	29745.87
506.58	29898.00
506.76	30052.48
506.93	30424.62
507.11	29832.47
507.28	30113.33
507.46	29792.68
507.63	30274.83
507.81	30644.63
507.98	30288.87
508.16	30508.88
508.33	30810.81
508.50	30974.65
508.68	31166.57
508.85	31512.97
509.03	30883.37
509.20	31555.10
509.38	31180.62
509.55	31395.95
509.73	31665.11
509.90	31723.62
510.08	31302.32
510.25	31505.95
510.42	31924.91
510.60	32315.78
510.77	32173.00
510.95	32432.80
511.12	32027.89
511.30	32540.47
511.47	32498.34
511.64	32666.86
511.82	32980.49
511.99	32512.38
512.17	32496.00
512.34	32474.93
512.51	32783.88
512.69	33015.60
512.86	33153.69
513.04	33188.80
513.21	33088.15
513.38	32870.48
513.56	33497.75
513.73	32980.49
513.90	33184.12
514.08	32896.23
514.25	33390.08
514.43	33605.41
514.60	33881.60
514.77	33844.15
514.95	33703.71
515.12	33579.67
515.29	33385.40
515.47	34417.58
515.64	34120.33
515.81	34160.12
515.99	34080.54
516.16	34312.25
516.33	33631.16
516.51	33839.47
516.68	33865.21
516.85	33387.74
517.03	33933.09
517.20	33844.15
517.37	34405.88
517.54	34735.89
517.72	34771.00
517.89	34174.16
518.06	34181.18
518.24	34754.61
518.41	34583.76
518.58	34848.24
518.75	34550.99
518.93	35044.84
519.10	34979.31
519.27	35496.56
519.45	35651.04
519.62	35480.18
519.79	35522.31
519.96	35372.52
520.14	35967.01
520.31	35735.30
520.48	35655.72
520.65	35899.14
520.83	36048.93
521.00	36116.81
521.17	35770.41
521.34	35770.41
521.52	36182.34
521.69	36580.23
521.86	36851.73
522.03	36439.80
522.20	36608.32
522.38	36638.75
522.55	36762.79
522.72	37256.65
522.89	36493.63
523.07	37167.71
523.24	36428.10
523.41	37125.58
523.58	36924.29
523.75	37666.24
523.92	37535.17
524.10	37511.77
524.27	37736.46
524.44	37425.17
524.61	37656.88
524.78	37457.93
524.96	37703.69
525.13	37881.57
525.30	37523.47
525.47	37797.31
525.64	38047.75
525.81	38010.30
525.98	37652.20
526.16	37481.34
526.33	37532.83
526.50	37687.31
526.67	37303.46
526.84	37483.68
527.01	37483.68
527.18	37876.89
527.36	38022.00
527.53	38707.78
527.70	38934.81
527.87	38724.16
528.04	38752.25
528.21	38995.67
528.38	38593.09
528.55	39098.65
528.72	39164.18
528.89	39618.25
529.07	39082.27
529.24	39077.58
529.41	39199.29
529.58	38836.51
529.75	39079.92
529.92	39569.10
530.09	39182.91
530.26	39299.94
530.43	39423.98
530.60	39257.81
530.77	39447.39
530.94	39519.95
531.11	39283.55
531.28	39854.64
531.46	40229.13
531.63	40027.84
531.80	40107.42
531.97	39929.54
532.14	39395.90
532.31	39386.54
532.48	39541.01
532.65	39849.96
532.82	39962.31
532.99	39597.18
533.16	39821.87
533.33	40514.67
533.50	40367.22
533.67	40788.52
533.84	40156.57
534.01	40458.50
534.18	40404.67
534.35	40687.87
534.52	40577.87
534.69	40662.13
534.86	40685.53
535.03	40711.28
535.20	41134.92
535.37	41464.93
535.54	41322.16
535.71	40947.67
535.88	41062.36
536.05	40793.20
536.22	41013.21
536.38	40842.35
536.55	40720.64
536.72	40573.19
536.89	40678.51
537.06	40966.40
537.23	41305.77
537.40	40907.88
537.57	41163.00
537.74	41294.07
537.91	41422.80
538.08	41624.09
538.25	41233.22
538.42	41359.61
538.59	41670.90
538.75	41118.53
538.92	41565.57
539.09	41677.92
539.26	41656.85
539.43	41464.93
539.60	41757.50
539.77	41621.75
539.94	41823.03
540.11	41586.64
540.28	41495.36
540.44	41769.20
540.61	41647.49
540.78	41567.91
540.95	42359.02
541.12	41928.36
541.29	41881.55
541.46	41918.99
541.62	42234.97
541.79	42373.06
541.96	42103.90
542.13	42115.60
542.30	41921.34
542.47	42602.43
542.63	42490.09
542.80	42213.90
542.97	42895.00
543.14	42796.70
543.31	42934.79
543.48	42864.57
543.64	43480.13
543.81	43335.02
543.98	43187.56
544.15	42590.73
544.32	43337.36
544.48	43131.39
544.65	43309.27
544.82	42997.98
544.99	43201.61
545.16	43398.21
545.32	43068.20
545.49	43878.02
545.66	43840.57
545.83	44140.16
546.00	44210.38
546.16	43381.83
546.33	43335.02
546.50	43194.59
546.67	43571.41
546.83	43180.54
547.00	43442.68
547.17	43335.02
547.34	43550.35
547.50	43849.94
547.67	43763.34
547.84	43552.69
548.00	43775.04
548.17	44107.40
548.34	44032.50
548.51	44205.70
548.67	44292.30
548.84	43985.69
549.01	43854.62
549.18	44058.24
549.34	43936.54
549.51	44083.99
549.68	44325.07
549.84	44268.89
550.01	44573.16
550.18	44423.37
550.34	44381.24
550.51	44428.05
550.68	44311.02
550.84	43981.01
551.01	44339.11
551.18	44397.62
551.34	44481.88
551.51	44568.48
551.68	44959.35
551.84	44339.11
552.01	44737.00
552.18	44556.78
552.34	44105.06
552.51	44531.03
552.68	44664.44
552.84	44907.86
553.01	45436.82
553.18	44978.07
553.34	44683.17
553.51	44547.42
553.67	44971.05
553.84	44849.35
554.01	44720.62
554.17	44973.39
554.34	45551.51
554.51	44828.28
554.67	44861.05
554.84	45001.48
555.00	44554.44
555.17	44790.83
555.33	45038.93
555.50	44868.07
555.67	45174.68
555.83	44772.11
556.00	45244.90
556.16	45284.68
556.33	44980.42
556.50	45301.07
556.66	44938.29
556.83	45034.25
556.99	45095.10
557.16	45345.54
557.32	45773.86
557.49	45872.16
557.65	45113.83
557.82	45214.47
557.98	45303.41
558.15	45390.01
558.32	45453.20
558.48	45399.37
558.65	45235.53
558.81	44907.86
558.98	45282.34
559.14	45294.05
559.31	45298.73
559.47	45968.12
559.64	45628.74
559.80	45628.74
559.97	45495.33
560.13	45162.98
560.30	45874.50
560.46	45715.34
560.63	45537.46
560.79	45675.55
560.96	46225.58
561.12	45642.79
561.29	45745.77
561.45	45827.69
561.61	45806.62
561.78	45455.54
561.94	45825.35
562.11	45289.37
562.27	45668.53
562.44	45411.07
562.60	45677.90
562.77	45921.31
562.93	46075.79
563.10	46120.26
563.26	45036.59
563.42	45846.41
563.59	45867.48
563.75	45698.96
563.92	46241.96
564.08	45895.56
564.24	45902.59
564.41	46033.66
564.57	45659.17
564.74	45886.20
564.90	45633.42
565.07	45991.53
565.23	45654.49
565.39	46003.23
565.56	45925.99
565.72	45680.24
565.88	45769.18
566.05	46127.28
566.21	46230.26
566.38	45682.58
566.54	45813.65
566.70	46113.23
566.87	46506.44
567.03	45738.75
567.19	46637.51
567.36	46148.34
567.52	46167.07
567.68	45881.52
567.85	46129.62
568.01	46504.10
568.17	45783.22
568.34	46209.20
568.50	45930.67
568.66	46052.38
568.83	45963.44
568.99	45638.11
569.15	46045.36
569.32	45851.09
569.48	46005.57
569.64	46007.91
569.81	46349.63
569.97	46286.43
570.13	46534.53
570.30	45937.69
570.46	46164.73
570.62	45776.20
570.78	45961.10
570.95	45886.20
571.11	46349.63
571.27	46167.07
571.43	46225.58
571.60	46246.65
571.76	46330.90
571.92	46223.24
572.09	46108.55
572.25	46017.27
572.41	46366.01
572.57	46532.19
572.74	46625.81
572.90	46431.55
573.06	46108.55
573.22	46134.30
573.38	46183.45
573.55	46059.40
573.71	46752.20
573.87	46312.18
574.03	46473.68
574.20	46719.43
574.36	46445.59
574.52	46270.05
574.68	46436.23
574.84	46536.87
575.01	46284.09
575.17	46476.02
575.33	45851.09
575.49	46047.70
575.65	46171.75
575.82	46536.87
575.98	46068.76
576.14	46515.81
576.30	46611.77
576.46	46199.83
576.62	46394.10
576.79	46485.38
576.95	45921.31
577.11	46237.28
577.27	46160.05
577.43	46248.99
577.59	46141.32
577.75	46263.03
577.92	45808.96
578.08	46000.89
578.24	46279.41
578.40	46178.77
578.56	46211.54
578.72	46494.74
578.88	46520.49
579.04	46763.90
579.21	46270.05
579.37	46344.95
579.53	46546.23
579.69	46356.65
579.85	46354.31
580.01	46653.90
580.17	46506.44
580.33	46389.42
580.49	46272.39
580.65	46515.81
580.82	46469.00
580.98	46424.53
581.14	46366.01
581.30	46721.77
581.46	46691.35
581.62	46906.68
581.78	46651.56
581.94	46773.27
582.10	46064.08
582.26	46590.70
582.42	46717.09
582.58	46263.03
582.74	46426.87
582.90	46363.67
583.06	46333.24
583.22	46583.68
583.38	46808.37
583.54	46527.51
583.70	46735.82
583.86	46686.67
584.02	46380.06
584.18	46740.50
584.34	46588.36
584.50	46663.26
584.66	46312.18
584.82	46316.86
584.98	46602.41
585.14	46344.95
585.30	46487.72
585.46	46440.91
585.62	46316.86
585.78	45968.12
585.94	45820.67
586.10	46515.81
586.26	46513.47
586.42	46796.67
586.58	46684.33
586.74	46836.46
586.90	46335.59
587.06	46344.95
587.22	46735.82
587.38	46408.14
587.54	46497.08
587.70	46525.17
587.86	46564.96
588.02	46419.84
588.18	46576.66
588.34	46113.23
588.49	45874.50
588.65	45755.13
588.81	45743.43
588.97	46078.13
589.13	46005.57
589.29	46155.36
589.45	46415.16
589.61	46534.53
589.77	46885.61
589.93	46588.36
590.08	46717.09
590.24	46553.26
590.40	46649.22
590.56	47089.24
590.72	46602.41
590.88	46522.83
591.04	46548.57
591.20	47236.69
591.35	46918.38
591.51	47185.20
591.67	46574.32
591.83	46426.87
591.99	46426.87
592.15	46787.31
592.31	46574.32
592.46	46674.96
592.62	46829.44
592.78	46726.46
592.94	46780.29
593.10	46593.04
593.26	46721.77
593.41	46740.50
593.57	46382.40
593.73	46494.74
593.89	46724.11
594.05	46614.11
594.20	46532.19
594.36	46719.43
594.52	47136.05
594.68	46894.97
594.84	46766.24
594.99	47152.43
595.15	46522.83
595.31	46976.89
595.47	46791.99
595.62	47023.70
595.78	46548.57
595.94	46618.79
596.10	46756.88
596.25	46897.31
596.41	46965.19
596.57	46543.89
596.73	46911.36
596.88	46698.37
597.04	46869.23
597.20	47051.79
597.36	46923.06
597.51	47140.73
597.67	47143.07
597.83	46885.61
597.99	46972.21
598.14	46777.95
598.30	46302.82
598.46	47000.30
598.61	46749.86
598.77	46457.29
598.93	46335.59
599.09	46752.20
599.24	47189.88
599.40	46962.85
599.56	47000.30
599.71	46429.21
599.87	46962.85
600.03	46777.95
600.18	46555.60
600.34	46579.00
600.50	46941.78
600.65	47051.79
600.81	46602.41
600.97	47112.64
601.12	46707.73
601.28	46850.50
601.44	46433.89
601.59	46583.68
601.75	46141.32
601.91	46270.05
602.06	46686.67
602.22	46777.95
602.37	46525.17
602.53	46997.96
602.69	47040.09
602.84	46691.35
603.00	46443.25
603.16	46473.68
603.31	46614.11
603.47	46150.68
603.62	46724.11
603.78	46698.37
603.94	46607.09
604.09	46796.67
604.25	46674.96
604.40	46450.27
604.56	46464.32
604.71	46656.24
604.87	46330.90
605.03	46529.85
605.18	46487.72
605.34	46450.27
605.49	46707.73
605.65	46319.20
605.80	46162.39
605.96	46412.82
606.12	46356.65
606.27	46981.57
606.43	46464.32
606.58	46256.01
606.74	46300.48
606.89	46157.70
607.05	46677.30
607.20	46543.89
607.36	46579.00
607.51	46473.68
607.67	46490.06
607.82	46089.83
607.98	46494.74
608.13	46082.81
608.29	46162.39
608.44	46366.01
608.60	45588.95
608.75	46234.94
608.91	46188.13
609.06	46068.76
609.22	46295.80
609.37	46260.69
609.53	46616.45
609.68	46260.69
609.84	46138.98
609.99	46277.07
610.15	45705.98
610.30	46382.40
610.46	45614.70
610.61	46120.26
610.76	45710.66
610.92	46426.87
611.07	45883.86
611.23	45869.82
611.38	45872.16
611.54	45865.14
611.69	45546.82
611.84	45741.09
612.00	45720.02
612.15	45881.52
612.31	46047.70
612.46	45619.38
612.62	45654.49
612.77	45563.21
612.92	46157.70
613.08	45684.92
613.23	45834.71
613.39	45818.33
613.54	45319.79
613.69	45638.11
613.85	45511.72
614.00	45713.00
614.15	46150.68
614.31	45645.13
614.46	46188.13
614.62	45724.71
614.77	45680.24
614.92	45794.92
615.08	45340.86
615.23	44935.95
615.38	45106.80
615.54	45347.88
615.69	45359.58
615.84	45193.40
616.00	45254.26
616.15	45123.19
616.30	45387.67
616.46	45134.89
616.61	45390.01
616.76	45123.19
616.92	44580.18
617.07	44786.15
617.22	44720.62
617.37	44739.34
617.53	45287.03
617.68	45333.84
617.83	45034.25
617.99	45549.17
618.14	44875.09
618.29	45144.25
618.45	44837.64
618.60	44690.19
618.75	44617.63
618.90	44626.99
619.06	44734.66
619.21	45214.47
619.36	45495.33
619.51	44823.60
619.67	44346.13
619.82	44872.75
619.97	45031.91
620.12	44708.91
620.28	43983.35
620.43	44444.43
620.58	44615.29
620.73	44629.34
620.89	44751.04
621.04	44664.44
621.19	45088.08
621.34	44172.93
621.49	44144.84
621.65	44535.71
621.80	44701.89
621.95	44486.56
622.10	44533.37
622.25	44098.03
622.41	43903.77
622.56	44177.61
622.71	44149.53
622.86	44289.96
623.01	44437.41
623.16	44130.80
623.32	44116.76
623.47	43859.30
623.62	44030.16
623.77	43538.65
623.92	43957.60
624.07	43697.80
624.23	44004.41
624.38	44222.08
624.53	43459.07
624.68	44009.09
624.83	44252.51
624.98	43625.25
625.13	43089.26
625.29	43772.70
625.44	43494.18
625.59	43203.95
625.74	43311.61
625.89	43086.92
626.04	43267.14
626.19	43863.98
626.34	43489.49
626.49	43569.07
626.65	43559.71
626.80	43901.43
626.95	43337.36
627.10	42831.80
627.25	43126.71
627.40	43201.61
627.55	43161.82
627.70	42749.88
627.85	43157.14
628.00	43002.66
628.15	43091.60
628.30	43047.13
628.45	43189.91
628.60	42944.15
628.76	43320.98
628.91	43140.75
629.06	42897.34
629.21	42682.01
629.36	42534.56
629.51	42731.16
629.66	42387.10
629.81	42595.41
629.96	42646.90
630.11	42693.71
630.26	42698.39
630.41	42880.95
630.56	42527.53
630.71	42911.38
630.86	42403.49
631.01	42419.87
631.16	42429.23
631.31	42721.80
631.46	42071.13
631.61	42534.56
631.76	42438.59
631.91	42644.56
632.06	42153.05
632.21	42391.78
632.36	42663.28
632.51	42263.05
632.66	42333.27
632.81	41844.10
632.96	42169.43
633.10	42508.81
633.25	42433.91
633.40	42412.85
633.55	42403.49
633.70	42246.67
633.85	41928.36
634.00	42476.04
634.15	41748.14
634.30	41715.37
634.45	42050.06
634.60	41893.25
634.75	41986.87
634.90	41467.27
635.05	42094.53
635.19	41565.57
635.34	41904.95
635.49	41841.76
635.64	41586.64
635.79	41993.89
635.94	41399.40
636.09	41319.82
636.24	41280.03
636.39	41287.05
636.53	41226.20
636.68	41696.64
636.83	41890.91
636.98	41469.61
637.13	40989.80
637.28	41523.44
637.43	41738.77
637.57	41244.92
637.72	41155.98
637.87	41036.61
638.02	41757.50
638.17	41486.00
638.32	41282.37
638.46	41336.20
638.61	41315.14
638.76	40989.80
638.91	41415.78
639.06	41078.74
639.20	41331.52
639.35	41488.34
639.50	41502.38
639.65	41895.59
639.80	41731.75
639.94	40992.14
640.09	41116.19
640.24	41043.63
640.39	40535.74
640.54	40624.68
640.68	40680.85
640.83	40718.30
640.98	40566.16
641.13	40725.32
641.27	41090.44
641.42	41081.08
641.57	40381.26
641.72	40816.60
641.86	40390.62
642.01	40371.90
642.16	40704.26
642.31	40416.37
642.45	40531.06
642.60	40004.44
642.75	40268.92
642.90	40535.74
643.04	40582.55
643.19	40170.61
643.34	40074.65
643.48	39985.71
643.63	40439.78
643.78	40271.26
643.93	40135.51
644.07	40287.64
644.22	40236.15
644.37	39938.90
644.51	39962.31
644.66	40261.90
644.81	40261.90
644.95	39651.02
645.10	40128.48
645.25	40229.13
645.39	39959.97
645.54	40280.62
645.69	40009.12
645.83	40009.12
645.98	39669.74
646.13	40315.73
646.27	39770.38
646.42	39459.09
646.57	39615.91
646.71	39899.11
646.86	39658.04
647.00	39913.16
647.15	40137.85
647.30	39423.98
647.44	39325.68
647.59	39428.66
647.74	39229.72
647.88	39206.31
648.03	39761.02
648.17	39564.42
648.32	39260.15
648.47	39510.58
648.61	39545.69
648.76	39541.01
648.90	39541.01
649.05	39555.05
649.20	38972.26
649.34	39557.39
649.49	38815.44
649.63	39070.56
649.78	39000.35
649.92	39519.95
650.07	39655.70
650.21	38817.78
650.36	39070.56
650.51	38911.41
650.65	39168.87
650.80	39505.90
650.94	39646.33
651.09	39161.84
651.23	39192.27
651.38	39070.56
651.52	38398.83
651.67	38803.74
651.81	38834.17
651.96	38747.57
652.10	38719.48
652.25	38691.40
652.39	38728.84
652.54	38979.28
652.68	38976.94
652.83	38555.64
652.97	38796.72
653.12	38700.76
653.26	38642.24
653.41	38387.13
653.55	38293.50
653.70	38286.48
653.84	38504.15
653.99	38651.61
654.13	38808.42
654.27	38588.41
654.42	38373.08
654.56	38277.12
654.71	38305.21
654.85	38242.01
655.00	38260.74
655.14	38101.58
655.29	37970.51
655.43	38270.10
655.57	38225.63
655.72	37380.70
655.86	37324.52
656.01	37645.18
656.15	37408.78
656.30	37495.38
656.44	37708.37
656.58	37539.85
656.73	37715.39
656.87	38047.75
657.01	37694.33
657.16	37694.33
657.30	37371.33
657.45	37043.66
657.59	37083.45
657.73	37244.94
657.88	37638.15
658.02	37710.71
658.16	37851.14
658.31	37610.07
658.45	37710.71
658.60	37312.82
658.74	37186.43
658.88	37380.70
659.03	37385.38
659.17	37464.96
659.31	36954.72
659.46	37200.47
659.60	37130.26
659.74	37392.40
659.89	37127.92
660.03	37048.34
660.17	37111.53
660.32	36877.48
660.46	37081.11
660.60	37109.19
660.74	36823.65
660.89	36708.96
661.03	36673.85
661.17	36552.15
661.32	36304.05
661.46	36542.78
661.60	36343.84
661.74	36875.14
661.89	36858.76
662.03	36481.93
662.17	36423.42
662.31	36072.34
662.46	36673.85
662.60	36172.98
662.74	36093.40
662.88	35882.75
663.03	36266.60
663.17	36107.44
663.31	35821.90
663.45	35992.76
663.60	36121.49
663.74	35908.50
663.88	35866.37
664.02	35674.45
664.17	35871.05
664.31	35749.34
664.45	35739.98
664.59	35449.75
664.73	35534.01
664.88	35133.78
665.02	35335.07
665.16	35115.06
665.30	35297.62
665.44	35196.98
665.59	34941.86
665.73	34920.79
665.87	35079.95
666.01	35044.84
666.15	35044.84
666.29	35037.82
666.44	35054.20
666.58	34923.13
666.72	35122.08
666.86	34632.91
667.00	34735.89
667.14	34225.65
667.28	34504.18
667.43	34295.87
667.57	34628.23
667.71	34326.30
667.85	34527.58
667.99	34340.34
668.13	34527.58
668.27	34298.21
668.41	34361.40
668.56	34169.48
668.70	34106.29
668.84	33895.64
668.98	33497.75
669.12	33757.55
669.26	33670.95
669.40	33839.47
669.54	33694.35
669.68	33778.61
669.82	33418.17
669.96	33230.93
670.10	33469.66
670.25	33333.91
670.39	33266.03
670.53	32933.68
670.67	33055.39
670.81	33422.85
670.95	33266.03
671.09	32989.85
671.23	33062.41
671.37	32818.99
671.51	32779.20
671.65	32657.49
671.79	32503.02
671.93	32870.48
672.07	32598.98
672.21	32701.96
672.35	32678.56
672.49	32858.78
672.63	32755.80
672.77	32587.28
672.91	32683.24
673.05	32044.27
673.19	32004.49
673.33	31821.92
673.47	31999.80
673.61	31449.78
673.75	31639.36
673.89	32070.02
674.03	31592.55
674.17	31686.17
674.31	31594.89
674.45	31569.15
674.59	31688.51
674.73	31782.13
674.87	31400.63
675.01	31363.18
675.15	31152.53
675.29	31115.08
675.43	30712.51
675.56	31000.40
675.70	30469.09
675.84	30705.49
675.98	29944.81
676.12	30728.89
676.26	30871.67
676.40	30450.37
676.54	30572.08
676.68	30717.19
676.82	29741.19
676.96	30223.34
677.10	29893.32
677.23	30075.88
677.37	30059.50
677.51	29797.36
677.65	29649.91
677.79	29371.38
677.93	29230.95
678.07	29383.09
678.21	29331.59
678.34	28926.68
678.48	28861.15
678.62	29191.16
678.76	28542.83
678.90	28624.75
679.04	28278.35
679.18	28655.18
679.31	28456.23
679.45	28634.11
679.59	28297.08
679.73	28095.79
679.87	27948.34
680.00	27906.21
680.14	27920.25
680.28	28327.50
680.42	28144.94
680.56	27873.44
680.70	28044.30
680.83	28140.26
680.97	27424.06
681.11	27644.07
681.25	27318.73
681.39	27367.88
681.52	27250.86
681.66	26930.20
681.80	27154.90
681.94	27290.65
682.07	26906.80
682.21	26841.26
682.35	26459.76
682.49	26775.73
682.62	26476.14
682.76	26817.86
682.90	26464.44
683.04	26256.13
683.17	26190.59
683.31	26256.13
683.45	26206.98
683.59	26176.55
683.72	25769.30
683.86	25638.23
684.00	26160.17
684.13	25926.11
684.27	25369.07
684.41	25645.25
684.55	25591.42
684.68	24989.90
684.82	25092.88
684.96	24971.18
685.09	25261.40
685.23	24709.04
685.37	24800.32
685.50	24985.22
685.64	25170.12
685.78	24315.83
685.91	24575.62
686.05	24517.11
686.19	24283.06
686.32	23901.55
686.46	24077.09
686.60	23459.19
686.73	23726.01
686.87	23828.99
687.01	23431.10
687.14	23073.00
687.28	22925.55
687.42	23070.66
687.55	23318.76
687.69	23016.83
687.82	23084.70
687.96	23215.77
688.10	23154.92
688.23	22595.53
688.37	22841.29
688.50	22649.36
688.64	22632.98
688.78	22527.66
688.91	22565.10
689.05	22356.80
689.18	22125.08
689.32	22115.72
689.46	22202.32
689.59	22281.90
689.73	22178.92
689.86	22405.95
690.00	21720.17
690.13	22075.93
690.27	22188.28
690.41	21689.74
690.54	21474.42
690.68	21280.15
690.81	21238.02
690.95	21596.12
691.08	21776.34
691.22	21319.94
691.35	20954.82
691.49	21062.48
691.62	20973.54
691.76	20868.22
691.89	20844.81
692.03	21090.57
692.16	20863.54
692.30	20278.40
692.43	20257.34
692.57	20451.60
692.70	20287.76
692.84	20416.49
692.97	19999.88
693.11	20058.39
693.24	19988.18
693.38	19971.79
693.51	19672.20
693.65	19988.18
693.78	19681.56
693.92	19463.90
694.05	19814.98
694.19	19665.18
694.32	19442.83
694.45	19337.51
694.59	19295.38
694.72	19005.15
694.86	19042.60
694.99	18934.93
695.13	18897.49
695.26	19133.88
695.39	18958.34
695.53	19037.92
695.66	19105.79
695.80	18815.57
695.93	18665.77
696.07	18497.25
696.20	18537.04
696.33	18581.51
696.47	18293.63
696.60	18436.40
696.73	18047.87
696.87	18204.69
697.00	17989.36
697.14	17767.01
697.27	17568.06
697.40	17750.62
697.54	17933.18
697.67	17444.01
697.80	17509.55
697.94	17446.35
698.07	17118.68
698.21	17252.09
698.34	16673.98
698.47	16929.09
698.61	16812.07
698.74	16688.02
698.87	16931.44
699.01	16568.65
699.14	16851.86
699.27	16673.98
699.40	16629.51
699.54	16444.60
699.67	16482.05
699.80	16245.66
699.94	16203.53
700.07	16285.45
700.20	16168.42
700.34	16250.34
700.47	15889.90
700.60	16187.14
700.73	16112.25
700.87	15927.35
701.00	15868.83
701.13	15817.34
701.26	15557.54
701.40	15403.07
701.53	15492.01
701.66	15396.04
701.79	15040.28
701.93	14986.45
702.06	15019.22
702.19	15250.93
702.32	15246.25
702.46	14703.25
702.59	14988.79
702.72	14993.47
702.85	14649.41
702.99	14686.86
703.12	14860.06
703.25	14494.94
703.38	14714.95
703.51	14434.08
703.65	14368.55
703.78	14443.45
703.91	14494.94
704.04	14422.38
704.17	14270.25
704.31	14090.02
704.44	14274.93
704.57	14193.01
704.70	13738.94
704.83	13844.27
704.96	14017.47
705.10	13832.57
705.23	13497.87
>>>>>End Processed Spectral Data<<<<<
