SpectraSuite Data File
++++++++++++++++++++++++++++++++++++
Date: Fri Oct 25 11:34:50 EDT 2013
User: price-jones
Dark Spectrum Present: No
Reference Spectrum Present: No
Number of Sampled Component Spectra: 1
Spectrometers: USB2+H05261
Integration Time (usec): 100000 (USB2+H05261)
Spectra Averaged: 1 (USB2+H05261)
Boxcar Smoothing: 0 (USB2+H05261)
Correct for Electrical Dark: No (USB2+H05261)
Strobe/Lamp Enabled: No (USB2+H05261)
Correct for Detector Non-linearity: No (USB2+H05261)
Correct for Stray Light: No (USB2+H05261)
Number of Pixels in Processed Spectrum: 2048
>>>>>Begin Processed Spectral Data<<<<<
365.73	250.44
365.92	250.44
366.12	250.44
366.32	227.03
366.52	198.95
366.72	184.90
366.91	224.69
367.11	184.90
367.31	170.86
367.51	168.52
367.70	220.01
367.90	180.22
368.10	187.24
368.30	215.33
368.49	208.31
368.69	194.26
368.89	205.97
369.09	180.22
369.28	222.35
369.48	220.01
369.68	194.26
369.87	236.39
370.07	248.10
370.27	280.86
370.47	308.95
370.66	475.13
370.86	498.53
371.06	545.34
371.25	568.75
371.45	510.24
371.65	554.71
371.84	531.30
372.04	573.43
372.24	552.37
372.44	489.17
372.63	634.29
372.83	692.80
373.03	596.84
373.22	629.60
373.42	615.56
373.62	578.11
373.81	613.22
374.01	601.52
374.21	629.60
374.40	653.01
374.60	624.92
374.79	568.75
374.99	629.60
375.19	657.69
375.38	655.35
375.58	610.88
375.78	627.26
375.97	624.92
376.17	702.16
376.37	688.12
376.56	763.01
376.76	678.76
376.95	676.41
377.15	631.94
377.35	664.71
377.54	688.12
377.74	723.23
377.93	638.97
378.13	695.14
378.33	629.60
378.52	655.35
378.72	697.48
378.91	671.73
379.11	704.50
379.31	641.31
379.50	678.76
379.70	699.82
379.89	704.50
380.09	779.40
380.28	723.23
380.48	695.14
380.68	748.97
380.87	697.48
381.07	734.93
381.26	697.48
381.46	774.72
381.65	690.46
381.85	737.27
382.04	758.33
382.24	751.31
382.43	713.86
382.63	716.20
382.83	765.36
383.02	716.20
383.22	795.78
383.41	802.80
383.61	695.14
383.80	828.55
384.00	767.70
384.19	826.21
384.39	868.34
384.58	819.19
384.78	755.99
384.97	877.70
385.17	765.36
385.36	795.78
385.56	884.72
385.75	814.51
385.95	777.06
386.14	938.55
386.34	863.66
386.53	945.58
386.72	901.11
386.92	908.13
387.11	793.44
387.31	940.90
387.50	896.43
387.70	812.17
387.89	880.04
388.09	898.77
388.28	851.96
388.48	880.04
388.67	938.55
388.86	1001.75
389.06	945.58
389.25	929.19
389.45	961.96
389.64	873.02
389.84	877.70
390.03	931.53
390.22	933.87
390.42	910.47
390.61	961.96
390.81	964.30
391.00	959.62
391.19	971.32
391.39	983.02
391.58	950.26
391.78	976.00
391.97	985.37
392.16	987.71
392.36	1060.26
392.55	891.74
392.75	1046.22
392.94	973.66
393.13	924.51
393.33	1004.09
393.52	1025.15
393.71	1132.82
393.91	1053.24
394.10	1071.97
394.29	1027.50
394.49	1057.92
394.68	1144.52
394.88	1053.24
395.07	1104.73
395.26	1100.05
395.46	1053.24
395.65	1069.62
395.84	1125.80
396.04	1287.29
396.23	1121.12
396.42	1090.69
396.62	1196.01
396.81	1107.07
397.00	1174.95
397.19	1224.10
397.39	1109.41
397.58	1144.52
397.77	1200.69
397.97	1212.40
398.16	1200.69
398.35	1289.64
398.55	1177.29
398.74	1270.91
398.93	1217.08
399.12	1226.44
399.32	1212.40
399.51	1306.02
399.70	1352.83
399.90	1261.55
400.09	1341.13
400.28	1280.27
400.47	1254.53
400.67	1425.39
400.86	1362.19
401.05	1348.15
401.24	1352.83
401.44	1392.62
401.63	1476.88
401.82	1502.62
402.01	1418.36
402.21	1357.51
402.40	1394.96
402.59	1345.81
402.78	1516.67
402.97	1514.33
403.17	1469.86
403.36	1540.07
403.55	1526.03
403.74	1547.09
403.93	1507.30
404.13	1568.16
404.32	1570.50
404.51	1509.65
404.70	1523.69
404.89	1624.33
405.09	1680.50
405.28	1558.80
405.47	1603.27
405.66	1575.18
405.85	1722.63
406.05	1586.88
406.24	1643.06
406.43	1610.29
406.62	1734.34
406.81	1710.93
407.00	1762.42
407.20	1715.61
407.39	1694.55
407.58	1713.27
407.77	1783.49
407.96	1720.29
408.15	1846.68
408.34	1769.44
408.54	1785.83
408.73	1881.79
408.92	1853.70
409.11	1872.43
409.30	1877.11
409.49	1872.43
409.68	1851.36
409.87	1919.24
410.07	1898.17
410.26	1919.24
410.45	1942.64
410.64	2038.61
410.83	1919.24
411.02	1998.82
411.21	2094.78
411.40	2022.22
411.59	2157.97
411.78	2115.84
411.98	2073.71
412.17	2104.14
412.36	2249.25
412.55	2267.98
412.74	2239.89
412.93	2155.63
413.12	2202.44
413.31	2293.72
413.50	2197.76
413.69	2326.49
413.88	2305.43
414.07	2321.81
414.26	2293.72
414.45	2366.28
414.64	2413.09
414.83	2436.50
415.02	2408.41
415.22	2565.23
415.41	2441.18
415.60	2480.97
415.79	2588.63
415.98	2537.14
416.17	2663.53
416.36	2431.82
416.55	2693.96
416.74	2569.91
416.93	2656.51
417.12	2733.75
417.31	2661.19
417.50	2705.66
417.69	2614.38
417.88	2818.00
418.07	2764.17
418.26	2846.09
418.45	2867.16
418.64	2874.18
418.83	2935.03
419.02	2918.65
419.21	2918.65
419.39	2953.76
419.58	2953.76
419.77	3019.29
419.96	2960.78
420.15	3019.29
420.34	2995.89
420.53	3033.33
420.72	3061.42
420.91	3103.55
421.10	3042.70
421.29	3201.85
421.48	3091.85
421.67	3108.23
421.86	3035.67
422.05	3143.34
422.24	3197.17
422.43	3206.53
422.61	3173.77
422.80	3414.84
422.99	3258.03
423.18	3227.60
423.37	3307.18
423.56	3234.62
423.75	3302.50
423.94	3178.45
424.13	3112.91
424.32	3054.40
424.50	3103.55
424.69	3384.41
424.88	3417.18
425.07	3255.69
425.26	3204.19
425.45	3248.66
425.64	3192.49
425.83	3311.86
426.01	3297.81
426.20	3337.60
426.39	3328.24
426.58	3185.47
426.77	3353.99
426.96	3433.57
427.15	3478.04
427.33	3396.12
427.52	3361.01
427.71	3548.25
427.90	3431.23
428.09	3517.83
428.28	3550.59
428.46	3557.61
428.65	3386.76
428.84	3648.90
429.03	3541.23
429.22	3508.46
429.40	3541.23
429.59	3630.17
429.78	3513.14
429.97	3478.04
430.16	3510.80
430.34	3597.40
430.53	3754.22
430.72	3604.42
430.91	3648.90
431.10	3543.57
431.28	3681.66
431.47	3688.68
431.66	3751.88
431.85	3679.32
432.03	3803.37
432.22	3831.46
432.41	3880.61
432.60	3850.18
432.79	3751.88
432.97	3789.33
433.16	3953.16
433.35	3861.88
433.54	3918.06
433.72	3971.89
433.91	3964.87
434.10	3906.35
434.28	3941.46
434.47	4056.15
434.66	4018.70
434.85	4114.66
435.03	4035.08
435.22	4058.49
435.41	4182.54
435.59	4241.05
435.78	4035.08
435.97	4109.98
436.16	4065.51
436.34	4205.94
436.53	4271.48
436.72	4353.40
436.90	4145.09
437.09	4311.27
437.28	4147.43
437.46	4264.46
437.65	4458.72
437.84	4365.10
438.02	4332.33
438.21	4435.32
438.40	4308.93
438.58	4542.98
438.77	4575.75
438.96	4505.53
439.14	4547.66
439.33	4641.28
439.52	4575.75
439.70	4589.79
439.89	4662.35
440.08	4723.20
440.26	4858.95
440.45	4730.22
440.63	4786.40
440.82	4809.80
441.01	4833.21
441.19	4812.14
441.38	4861.29
441.57	5060.24
441.75	5076.62
441.94	5060.24
442.12	5116.41
442.31	5114.07
442.50	5097.69
442.68	5060.24
442.87	5114.07
443.05	5275.57
443.24	5247.48
443.43	5060.24
443.61	5210.03
443.80	5303.65
443.98	5247.48
444.17	5029.81
444.35	5090.67
444.54	5320.04
444.73	5355.15
444.91	5249.82
445.10	5277.91
445.28	5369.19
445.47	5224.08
445.65	5334.08
445.84	5343.44
446.02	5296.63
446.21	5462.81
446.39	5423.02
446.58	5357.49
446.77	5280.25
446.95	5177.26
447.14	5425.36
447.32	5359.83
447.51	5495.58
447.69	5364.51
447.88	5390.25
448.06	5322.38
448.25	5521.32
448.43	5542.39
448.62	5533.03
448.80	5408.98
448.99	5373.87
449.17	5514.30
449.36	5511.96
449.54	5612.60
449.73	5572.82
449.91	5795.17
450.10	5753.04
450.28	5827.93
450.46	5612.60
450.65	5757.72
450.83	5790.49
451.02	5640.69
451.20	5856.02
451.39	5795.17
451.57	5994.11
451.76	5769.42
451.94	5872.40
452.13	5914.53
452.31	5980.07
452.49	5783.46
452.68	5881.77
452.86	5912.19
453.05	6179.01
453.23	6113.48
453.42	5977.73
453.60	5956.66
453.78	6045.60
453.97	6038.58
454.15	6017.52
454.34	5970.71
454.52	6202.42
454.70	6207.10
454.89	6113.48
455.07	6377.96
455.26	6164.97
455.44	6305.40
455.62	6256.25
455.81	6443.49
455.99	6415.41
456.17	6272.64
456.36	6324.13
456.54	6387.32
456.73	6539.46
456.91	6775.85
457.09	6705.63
457.28	6750.10
457.46	6305.40
457.64	6846.07
457.83	6621.38
458.01	6509.03
458.19	6918.62
458.38	6677.55
458.56	6745.42
458.74	6806.28
458.93	6787.55
459.11	6913.94
459.29	6846.07
459.48	6853.09
459.66	6743.08
459.84	6913.94
460.03	6853.09
460.21	7059.06
460.39	7009.90
460.57	6836.70
460.76	7077.78
460.94	7110.55
461.12	7040.33
461.31	7007.56
461.49	7049.69
461.67	6970.12
461.85	7293.11
462.04	7283.75
462.22	7375.03
462.40	7286.09
462.59	7250.98
462.77	7192.47
462.95	7229.91
463.13	7194.81
463.32	7243.96
463.50	7389.07
463.68	7421.84
463.86	7475.67
464.05	7304.81
464.23	7426.52
464.41	7557.59
464.59	7342.26
464.78	7578.65
464.96	7487.37
465.14	7391.41
465.32	7637.17
465.50	7665.25
465.69	7566.95
465.87	7534.18
466.05	7529.50
466.23	7709.72
466.41	7630.15
466.60	7808.03
466.78	7646.53
466.96	7709.72
467.14	7676.96
467.32	7878.24
467.51	7885.26
467.69	7555.25
467.87	7859.52
468.05	7845.48
468.23	7868.88
468.41	7939.10
468.60	8046.76
468.78	7866.54
468.96	7936.76
469.14	8006.97
469.32	7978.89
469.50	8142.72
469.69	8116.98
469.87	8252.73
470.05	8182.51
470.23	8154.43
470.41	8372.10
470.59	8290.18
470.77	8341.67
470.95	8365.07
471.14	8451.67
471.32	8381.46
471.50	8386.14
471.68	8507.85
471.86	8552.32
472.04	8650.62
472.22	8777.01
472.40	8610.83
472.58	8678.71
472.77	8723.18
472.95	8781.69
473.13	9177.24
473.31	8940.85
473.49	8816.80
473.67	8854.25
473.85	8957.23
474.03	9022.77
474.21	9053.19
474.39	9125.75
474.57	9181.92
474.75	9462.79
474.93	9507.26
475.12	9252.14
475.30	9392.57
475.48	9399.59
475.66	9657.05
475.84	9598.54
476.02	9687.48
476.20	9650.03
476.38	9701.52
476.56	9916.85
476.74	10061.96
476.92	9895.78
477.10	9912.17
477.28	9970.68
477.46	10008.13
477.64	10265.59
477.82	10136.86
478.00	10651.78
478.18	10413.04
478.36	10574.54
478.54	10621.35
478.72	10590.92
478.90	10651.78
479.08	10991.16
479.26	10909.24
479.44	10775.83
479.62	10970.09
479.80	11140.95
479.98	11213.51
480.16	11438.20
480.34	11487.35
480.52	11321.17
480.70	11599.70
480.88	11360.96
481.06	11868.86
481.24	11777.58
481.41	11838.43
481.59	12140.36
481.77	11971.84
481.95	12081.85
482.13	12269.09
482.31	12093.55
482.49	12187.17
482.67	12505.48
482.85	12627.19
483.03	12636.55
483.21	12774.64
483.39	12924.44
483.57	12788.69
483.74	12996.99
483.92	13071.89
484.10	13128.06
484.28	13558.72
484.46	13532.98
484.64	13935.55
484.82	13706.18
485.00	13837.25
485.18	14033.85
485.35	14115.77
485.53	14328.76
485.71	13942.57
485.89	14558.13
486.07	14565.15
486.25	14368.55
486.43	14679.84
486.61	14853.04
486.78	14841.34
486.96	14930.28
487.14	15166.67
487.32	15159.65
487.50	15393.70
487.68	15166.67
487.85	15220.50
488.03	15681.59
488.21	16013.95
488.39	15981.18
488.57	16184.80
488.75	16037.35
488.92	16332.26
489.10	16334.60
489.28	16114.59
489.46	16622.48
489.64	16517.16
489.81	17111.66
489.99	16830.79
490.17	17020.38
490.35	17404.22
490.53	17324.65
490.70	17605.51
490.88	17537.63
491.06	17788.07
491.24	17645.30
491.41	18033.83
491.59	17869.99
491.77	18197.67
491.95	18359.16
492.13	18462.15
492.30	18602.58
492.48	18532.36
492.66	18504.28
492.84	18438.74
493.01	18485.55
493.19	19084.73
493.37	19035.58
493.54	19316.44
493.72	19417.08
493.90	19379.64
494.08	19522.41
494.25	19658.16
494.43	19777.53
494.61	20166.06
494.79	20013.92
494.96	20109.88
495.14	19826.68
495.32	20411.81
495.49	20205.84
495.67	20374.36
495.85	20372.02
496.02	20863.54
496.20	20996.95
496.38	21118.65
496.55	20950.14
496.73	21673.36
496.91	21200.57
497.09	21383.13
497.26	21514.20
497.44	21741.24
497.62	21652.30
497.79	21986.99
497.97	21701.45
498.14	22178.92
498.32	22345.09
498.50	22195.30
498.67	22642.34
498.85	22424.67
499.03	22539.36
499.20	22717.24
499.38	22593.19
499.56	22984.06
499.73	22862.35
499.91	23068.32
500.08	23274.29
500.26	22937.25
500.44	23248.54
500.61	23459.19
500.79	23403.02
500.97	23623.03
501.14	23957.72
501.32	23496.64
501.49	23936.66
501.67	23887.51
501.84	23880.49
502.02	23922.62
502.20	24203.48
502.37	24294.76
502.55	24269.01
502.72	24144.97
502.90	24170.71
503.07	23971.77
503.25	24680.95
503.43	24390.72
503.60	24617.75
503.78	24603.71
503.95	24919.68
504.13	24961.81
504.30	25111.61
504.48	24989.90
504.65	25399.49
504.83	25553.97
505.01	25380.77
505.18	25553.97
505.36	25483.75
505.53	25804.41
505.71	25703.76
505.88	25598.44
506.06	25436.94
506.23	26129.74
506.41	25823.13
506.58	26204.64
506.76	26375.50
506.93	26328.69
507.11	26340.39
507.28	26309.96
507.46	26441.03
507.63	26335.71
507.81	26541.68
507.98	26623.59
508.16	26916.16
508.33	26607.21
508.50	26960.63
508.68	26796.79
508.85	27253.20
509.03	27145.53
509.20	27353.84
509.38	27419.38
509.55	27407.67
509.73	27665.13
509.90	27559.81
510.08	27491.93
510.25	27651.09
510.42	27845.35
510.60	28301.76
510.77	27498.95
510.95	28280.69
511.12	28294.74
511.30	28058.34
511.47	28002.17
511.64	28364.95
511.82	28360.27
511.99	28496.02
512.17	28444.53
512.34	28437.51
512.51	28912.64
512.69	29036.69
512.86	29081.16
513.04	28999.24
513.21	28814.34
513.38	29425.22
513.56	29172.44
513.73	29266.06
513.90	29139.67
514.08	29460.32
514.25	29687.36
514.43	29486.07
514.60	29666.29
514.77	29355.00
514.95	29869.92
515.12	29565.65
515.29	29633.52
515.47	30298.23
515.64	29986.94
515.81	30258.45
515.99	30029.07
516.16	30272.49
516.33	29930.77
516.51	30129.72
516.68	30143.76
516.85	30710.17
517.03	30375.47
517.20	30623.57
517.37	30824.86
517.54	30874.01
517.72	30930.18
517.89	30621.23
518.06	31026.14
518.24	31110.40
518.41	31033.16
518.58	31094.02
518.75	30953.58
518.93	31569.15
519.10	31239.13
519.27	31225.09
519.45	31257.85
519.62	31714.26
519.79	31840.65
519.96	31562.12
520.14	31665.11
520.31	31761.07
520.48	32297.05
520.65	31655.75
520.83	32187.05
521.00	32627.07
521.17	32187.05
521.34	32273.65
521.52	32231.52
521.69	32191.73
521.86	32694.94
522.03	32584.94
522.20	32641.11
522.38	32877.51
522.55	32957.08
522.72	32842.40
522.89	33160.71
523.07	32833.04
523.24	32795.59
523.41	32919.63
523.58	33219.22
523.75	33001.55
523.92	33303.48
524.10	33511.79
524.27	33324.55
524.44	33310.50
524.61	33584.35
524.78	33558.60
524.96	33783.29
525.13	34188.21
525.30	33890.96
525.47	33869.89
525.64	33996.28
525.81	34508.86
525.98	34162.46
526.16	34085.22
526.33	34157.78
526.50	34335.66
526.67	34244.38
526.84	34675.04
527.01	34316.93
527.18	34693.76
527.36	34267.78
527.53	34440.98
527.70	34754.61
527.87	34572.05
528.04	34785.04
528.21	34668.02
528.38	34785.04
528.55	34946.54
528.72	35093.99
528.89	35143.14
529.07	34831.85
529.24	34897.39
529.41	34909.09
529.58	35136.12
529.75	34813.13
529.92	35356.13
530.09	35189.95
530.26	35133.78
530.43	35646.36
530.60	35072.93
530.77	35510.61
530.94	35239.11
531.11	35559.76
531.28	35454.44
531.46	35857.01
531.63	35859.35
531.80	35501.25
531.97	35943.61
532.14	36196.38
532.31	35721.26
532.48	36168.30
532.65	35742.32
532.82	36201.07
532.99	36481.93
533.16	35651.04
533.33	36568.53
533.50	36383.63
533.67	36294.69
533.84	36032.55
534.01	36659.81
534.18	36332.14
534.35	36708.96
534.52	36666.83
534.69	36926.63
534.86	36830.67
535.03	36631.72
535.20	37132.60
535.37	36734.71
535.54	36872.80
535.71	37088.13
535.88	37048.34
536.05	36605.98
536.22	37394.74
536.38	37228.56
536.55	36999.19
536.72	37055.36
536.89	37483.68
537.06	37418.14
537.23	37837.10
537.40	37163.03
537.57	37244.94
537.74	37696.67
537.91	37720.07
538.08	37338.57
538.25	37256.65
538.42	37750.50
538.59	37773.91
538.75	37673.26
538.92	38071.15
539.09	38490.11
539.26	38153.07
539.43	38026.68
539.60	37624.11
539.77	37954.13
539.94	38445.64
540.11	38153.07
540.28	38307.55
540.44	38443.30
540.61	38429.26
540.78	38476.07
540.95	38066.47
541.12	38216.27
541.29	38265.42
541.46	38277.12
541.62	38576.71
541.79	38768.63
541.96	38185.84
542.13	38143.71
542.30	38459.68
542.47	38607.14
542.63	38742.89
542.80	39028.43
542.97	39290.57
543.14	38873.96
543.31	39215.68
543.48	39264.83
543.64	39576.12
543.81	39566.76
543.98	39438.03
544.15	39517.60
544.32	39934.22
544.48	39812.51
544.65	39468.45
544.82	39468.45
544.99	39271.85
545.16	40210.40
545.32	39512.92
545.49	39908.47
545.66	40067.63
545.83	39966.99
546.00	40114.44
546.16	40023.16
546.33	40184.66
546.50	39943.58
546.67	40425.73
546.83	39732.93
547.00	39445.05
547.17	39896.77
547.34	40100.40
547.50	40217.43
547.67	40559.14
547.84	40121.46
548.00	40299.34
548.17	40755.75
548.34	40481.91
548.51	40776.81
548.67	40840.01
548.84	40390.62
549.01	40395.31
549.18	40863.41
549.34	40957.03
549.51	40776.81
549.68	40975.76
549.84	40987.46
550.01	41212.15
550.18	40744.05
550.34	40940.65
550.51	41207.47
550.68	40996.82
550.84	40961.72
551.01	41106.83
551.18	41008.53
551.34	41436.84
551.51	41612.38
551.68	41109.17
551.84	41418.12
552.01	41151.30
552.18	41069.38
552.34	41158.32
552.51	41766.86
552.68	41038.95
552.84	41134.92
553.01	41537.49
553.18	41277.69
553.34	41432.16
553.51	41537.49
553.67	41493.02
553.84	41874.52
554.01	41743.45
554.17	41883.89
554.34	41722.39
554.51	41759.84
554.67	41970.49
554.84	41888.57
555.00	41642.81
555.17	41734.09
555.33	42195.18
555.50	41867.50
555.67	41677.92
555.83	42047.72
556.00	41848.78
556.16	42272.42
556.33	42101.56
556.50	42024.32
556.66	42550.94
556.83	41909.63
556.99	42344.97
557.16	42946.49
557.32	42335.61
557.49	43019.05
557.65	41972.83
557.82	42305.18
557.98	42141.35
558.15	42258.37
558.32	42728.82
558.48	42412.85
558.65	42581.37
558.81	42838.83
558.98	42630.52
559.14	42602.43
559.31	43131.39
559.47	42916.06
559.64	42682.01
559.80	42607.11
559.97	42887.98
560.13	42480.72
560.30	42590.73
560.46	43292.89
560.63	43037.77
560.79	42714.78
560.96	43157.14
561.12	43217.99
561.29	42930.11
561.45	43386.51
561.61	43206.29
561.78	42880.95
561.94	42782.65
562.11	43100.97
562.27	43023.73
562.44	43267.14
562.60	43641.63
562.77	43077.56
562.93	43063.52
563.10	43620.56
563.26	43210.97
563.42	43503.54
563.59	43091.60
563.75	43133.73
563.92	43730.57
564.08	43281.19
564.24	43646.31
564.41	43370.13
564.57	43480.13
564.74	43243.74
564.90	43386.51
565.07	43150.12
565.23	43311.61
565.39	43311.61
565.56	43604.18
565.72	43601.84
565.88	43419.28
566.05	43487.15
566.21	43571.41
566.38	43632.27
566.54	43742.27
566.70	43779.72
566.87	43608.86
567.03	43498.86
567.19	43391.19
567.36	43943.56
567.52	43374.81
567.68	43814.83
567.85	43491.83
568.01	43927.17
568.17	43555.03
568.34	43805.47
568.50	43978.67
568.66	43826.53
568.83	43779.72
568.99	43674.40
569.15	43665.03
569.32	43239.06
569.48	43749.29
569.64	44364.85
569.81	44208.04
569.97	44406.98
570.13	44048.88
570.30	43229.69
570.46	44196.34
570.62	44006.75
570.78	44158.89
570.95	43676.74
571.11	44226.76
571.27	43517.58
571.43	43592.48
571.60	43828.87
571.76	43765.68
571.92	43793.76
572.09	43587.80
572.25	43674.40
572.41	44112.08
572.57	43903.77
572.74	44128.46
572.90	44215.06
573.06	44273.57
573.22	44343.79
573.38	44601.25
573.55	43737.59
573.71	44570.82
573.87	44318.04
574.03	44399.96
574.20	44201.02
574.36	43873.34
574.52	44142.50
574.68	44280.60
574.84	44357.83
575.01	44837.64
575.17	44065.27
575.33	44327.41
575.49	44362.51
575.65	44664.44
575.82	44182.29
575.98	44039.52
576.14	44729.98
576.30	44659.76
576.46	44107.40
576.62	44240.81
576.79	44105.06
576.95	43950.58
577.11	43988.03
577.27	44161.23
577.43	44837.64
577.59	44081.65
577.75	44004.41
577.92	44196.34
578.08	43962.28
578.24	44753.38
578.40	44296.98
578.56	44325.07
578.72	44577.84
578.88	44243.15
579.04	44130.80
579.21	44388.26
579.37	44694.87
579.53	44411.67
579.69	44339.11
579.85	44119.10
580.01	44294.64
580.17	44535.71
580.33	44861.05
580.49	44130.80
580.65	44882.11
580.82	44313.36
580.98	44172.93
581.14	43852.28
581.30	44580.18
581.46	44325.07
581.62	44411.67
581.78	44465.50
581.94	44418.69
582.10	44083.99
582.26	44821.26
582.42	44879.77
582.58	44849.35
582.74	44601.25
582.90	44385.92
583.06	44760.40
583.22	44467.84
583.38	44547.42
583.54	44847.00
583.70	44182.29
583.86	44528.69
584.02	44603.59
584.18	45041.27
584.34	44772.11
584.50	44896.16
584.66	44779.13
584.82	44617.63
584.98	44662.10
585.14	44729.98
585.30	44645.72
585.46	44575.50
585.62	44243.15
585.78	44634.02
585.94	44268.89
586.10	44718.28
586.26	43831.21
586.42	44383.58
586.58	44662.10
586.74	45020.20
586.90	44404.64
587.06	44411.67
587.22	45111.49
587.38	44655.08
587.54	44975.73
587.70	44568.48
587.86	44610.61
588.02	44758.06
588.18	44680.83
588.34	44809.56
588.49	44624.65
588.65	44540.39
588.81	44905.52
588.97	45029.57
589.13	44479.54
589.29	44329.75
589.45	45015.52
589.61	44959.35
589.77	44973.39
589.93	45165.32
590.08	45076.38
590.24	45137.23
590.40	45411.07
590.56	45146.59
590.72	45076.38
590.88	44795.51
591.04	45109.14
591.20	45045.95
591.35	45212.13
591.51	45448.52
591.67	44821.26
591.83	45418.10
591.99	45097.44
592.15	45333.84
592.31	45284.68
592.46	44957.01
592.62	45050.63
592.78	45425.12
592.94	45481.29
593.10	45045.95
593.26	45478.95
593.41	45514.06
593.57	45467.25
593.73	45331.50
593.89	45799.60
594.05	45446.18
594.20	45361.92
594.36	45544.48
594.52	45518.74
594.68	45382.99
594.84	45134.89
594.99	45701.30
595.15	44886.79
595.31	45682.58
595.47	45347.88
595.62	45813.65
595.78	45214.47
595.94	45514.06
596.10	45525.76
596.25	45462.57
596.41	45413.41
596.57	45556.19
596.73	45897.91
596.88	45741.09
597.04	45787.90
597.20	45572.57
597.36	45652.15
597.51	45380.65
597.67	45083.40
597.83	45390.01
597.99	45736.41
598.14	45137.23
598.30	45219.15
598.46	45523.42
598.61	45916.63
598.77	45361.92
598.93	45401.71
599.09	45188.72
599.24	45689.60
599.40	45736.41
599.56	45553.85
599.71	45572.57
599.87	46248.99
600.03	46036.00
600.18	45942.38
600.34	45429.80
600.50	45326.81
600.65	45614.70
600.81	45694.28
600.97	45759.81
601.12	45717.68
601.28	45397.03
601.44	45731.73
601.59	45514.06
601.75	45485.97
601.91	45647.47
602.06	45579.59
602.22	46096.85
602.37	45771.52
602.53	45593.64
602.69	45584.27
602.84	45523.42
603.00	45546.82
603.16	45462.57
603.31	45219.15
603.47	45727.05
603.62	45483.63
603.78	45633.42
603.94	45116.17
604.09	45441.50
604.25	45382.99
604.40	45343.20
604.56	45748.11
604.71	45958.76
604.87	45010.84
605.03	45104.46
605.18	45301.07
605.34	45727.05
605.49	45539.80
605.65	45661.51
605.80	45619.38
605.96	45670.87
606.12	45631.08
606.27	45858.12
606.43	45071.70
606.58	45521.08
606.74	45312.77
606.89	45132.55
607.05	46057.06
607.20	45336.18
607.36	45523.42
607.51	45294.05
607.67	45170.00
607.82	45265.96
607.98	45483.63
608.13	45439.16
608.29	45170.00
608.44	45659.17
608.60	45237.87
608.75	45392.35
608.91	45081.06
609.06	45151.27
609.22	45289.37
609.37	44912.54
609.53	45207.45
609.68	45418.10
609.84	45045.95
609.99	45336.18
610.15	45258.94
610.30	45113.83
610.46	45017.86
610.61	44788.49
610.76	45057.65
610.92	45132.55
611.07	45146.59
611.23	44847.00
611.38	45240.21
611.54	45675.55
611.69	45024.89
611.84	45085.74
612.00	45179.36
612.15	45404.05
612.31	45132.55
612.46	45020.20
612.62	44982.76
612.77	44905.52
612.92	45104.46
613.08	44790.83
613.23	45027.23
613.39	45223.83
613.54	44900.84
613.69	44800.19
613.85	44994.46
614.00	45148.93
614.15	45120.85
614.31	44526.35
614.46	44577.84
614.62	44589.55
614.77	45235.53
614.92	45029.57
615.08	44486.56
615.23	44973.39
615.38	44821.26
615.54	44769.77
615.69	44886.79
615.84	44589.55
616.00	45357.24
616.15	44994.46
616.30	44814.24
616.46	44823.60
616.61	44823.60
616.76	44861.05
616.92	44498.26
617.07	44641.04
617.22	44582.52
617.37	44201.02
617.53	44573.16
617.68	44378.90
617.83	44381.24
617.99	44692.53
618.14	44996.80
618.29	43943.56
618.45	44128.46
618.60	44280.60
618.75	44032.50
618.90	44025.48
619.06	44065.27
619.21	44261.87
619.36	44470.18
619.51	44058.24
619.67	44025.48
619.82	44264.21
619.97	44381.24
620.12	44226.76
620.28	43973.98
620.43	44311.02
620.58	44285.28
620.73	44116.76
620.89	43920.15
621.04	44369.54
621.19	43824.19
621.34	44264.21
621.49	44341.45
621.65	43662.69
621.80	44163.57
621.95	44034.84
622.10	44336.77
622.25	43863.98
622.41	43737.59
622.56	43847.60
622.71	44182.29
622.86	44020.80
623.01	43931.86
623.16	43536.30
623.32	44088.67
623.47	43650.99
623.62	43166.50
623.77	43611.20
623.92	43632.27
624.07	43716.53
624.23	43936.54
624.38	44264.21
624.53	43519.92
624.68	43548.01
624.83	43044.79
624.98	43753.97
625.13	43178.20
625.29	42946.49
625.44	43470.77
625.59	43606.52
625.74	43569.07
625.89	43496.52
626.04	42916.06
626.19	43194.59
626.34	43388.85
626.49	43220.33
626.65	43124.37
626.80	43255.44
626.95	43285.87
627.10	42775.63
627.25	43320.98
627.40	43159.48
627.55	43257.78
627.70	43168.84
627.85	43070.54
628.00	43405.23
628.15	43320.98
628.30	42834.14
628.45	42623.50
628.60	42663.28
628.76	42749.88
628.91	42990.96
629.06	42698.39
629.21	42773.29
629.36	42389.44
629.51	42738.18
629.66	42997.98
629.81	42597.75
629.96	42918.40
630.11	42651.58
630.26	42649.24
630.41	42440.93
630.56	42396.46
630.71	43012.02
630.86	42522.85
631.01	42405.83
631.16	42356.67
631.31	42305.18
631.46	42490.09
631.61	42363.70
631.76	42246.67
631.91	42600.09
632.06	42342.63
632.21	42541.58
632.36	42567.32
632.51	42036.02
632.66	42328.59
632.81	41897.93
632.96	42597.75
633.10	42178.79
633.25	42174.11
633.40	42181.13
633.55	42515.83
633.70	41989.21
633.85	41757.50
634.00	42033.68
634.15	42019.64
634.30	41874.52
634.45	41776.22
634.60	41816.01
634.75	42017.30
634.90	42014.96
635.05	42464.34
635.19	41790.27
635.34	42164.75
635.49	42085.17
635.64	41727.07
635.79	41909.63
635.94	42010.28
636.09	42012.62
636.24	41780.90
636.39	41607.70
636.53	41556.21
636.68	41659.20
636.83	41394.71
636.98	41291.73
637.13	41448.55
637.28	41434.50
637.43	41291.73
637.57	41502.38
637.72	41233.22
637.87	41612.38
638.02	41394.71
638.17	41041.29
638.32	40971.08
638.46	41104.49
638.61	40840.01
638.76	41097.47
638.91	41343.22
639.06	40957.03
639.20	40634.04
639.35	41235.56
639.50	41212.15
639.65	41237.90
639.80	41673.24
639.94	41324.50
640.09	41216.83
640.24	41544.51
640.39	41153.64
640.54	40587.23
640.68	41125.55
640.83	41434.50
640.98	40732.34
641.13	40704.26
641.27	41055.34
641.42	40559.14
641.57	40652.76
641.72	40708.94
641.86	40549.78
642.01	40341.47
642.16	40849.37
642.31	40130.83
642.45	40664.47
642.60	40282.96
642.75	40594.25
642.90	40641.06
643.04	40491.27
643.19	40346.15
643.34	40488.93
643.48	40428.07
643.63	40212.74
643.78	40706.60
643.93	41221.52
644.07	40273.60
644.22	40818.94
644.37	40339.13
644.51	40533.40
644.66	40399.99
644.81	40397.65
644.95	40353.18
645.10	40147.21
645.25	40072.31
645.39	39805.49
645.54	40081.67
645.69	40170.61
645.83	39906.13
645.98	40004.44
646.13	40285.30
646.27	39927.20
646.42	39962.31
646.57	40046.57
646.71	40456.16
646.86	40062.95
647.00	40392.97
647.15	40128.48
647.30	40072.31
647.44	39974.01
647.59	39871.03
647.74	39966.99
647.88	40053.59
648.03	40147.21
648.17	40203.38
648.32	40023.16
648.47	39592.50
648.61	39746.98
648.76	40013.80
648.90	39515.26
649.05	39990.39
649.20	39739.96
649.34	39571.44
649.49	39948.26
649.63	40128.48
649.78	39643.99
649.92	39739.96
650.07	40261.90
650.21	39849.96
650.36	39959.97
650.51	39489.52
650.65	40055.93
650.80	39620.59
650.94	39517.60
651.09	39007.37
651.23	39077.58
651.38	39395.90
651.52	38955.88
651.67	39295.25
651.81	39349.09
651.96	39573.78
652.10	38761.61
652.25	39033.11
652.39	39445.05
652.54	39014.39
652.68	38974.60
652.83	38969.92
652.97	39480.16
653.12	38864.60
653.26	38948.85
653.41	39313.98
653.55	38880.98
653.70	39550.37
653.84	39243.76
653.99	38937.15
654.13	39100.99
654.27	38588.41
654.42	39023.75
654.56	38646.93
654.71	38761.61
654.85	38651.61
655.00	38614.16
655.14	39030.77
655.29	38873.96
655.43	38998.01
655.57	38471.39
655.72	38415.21
655.86	38637.56
656.01	38642.24
656.15	38136.69
656.30	38157.75
656.44	37954.13
656.58	38396.49
656.73	38213.93
656.87	37876.89
657.01	37780.93
657.16	38323.93
657.30	38101.58
657.45	38136.69
657.59	37940.08
657.73	37663.90
657.88	38323.93
658.02	38321.59
658.16	38548.62
658.31	38227.97
658.45	38127.33
658.60	37706.03
658.74	37699.01
658.88	38267.76
659.03	37750.50
659.17	37736.46
659.31	37500.06
659.46	37404.10
659.60	37991.58
659.74	37528.15
659.89	37338.57
660.03	37277.71
660.17	37696.67
660.32	37312.82
660.46	37177.07
660.60	37132.60
660.74	37343.25
660.89	37546.87
661.03	36739.39
661.17	36994.51
661.32	36863.44
661.46	37181.75
661.60	37359.63
661.74	36769.82
661.89	37057.70
662.03	37244.94
662.17	36837.69
662.31	36549.81
662.46	36886.84
662.60	36364.90
662.74	36479.59
662.88	36371.92
663.03	36355.54
663.17	36313.41
663.31	36332.14
663.45	36187.02
663.60	36837.69
663.74	36355.54
663.88	36463.21
664.02	35934.24
664.17	36336.82
664.31	36172.98
664.45	35990.42
664.59	36360.22
664.73	36346.18
664.88	35936.59
665.02	35693.17
665.16	35372.52
665.30	35864.03
665.44	35819.56
665.59	35864.03
665.73	35187.61
665.87	35229.74
666.01	35421.67
666.15	35428.69
666.29	35522.31
666.44	35562.10
666.58	35637.00
666.72	35173.57
666.86	35201.66
667.00	35037.82
667.14	35084.63
667.28	35363.15
667.43	34698.44
667.57	35426.35
667.71	34991.01
667.85	34845.90
667.99	34824.83
668.13	34871.64
668.27	34609.50
668.41	34401.19
668.56	34464.39
668.70	34398.85
668.84	34015.01
668.98	34349.70
669.12	34581.42
669.26	33993.94
669.40	34110.97
669.54	34120.33
669.68	34448.00
669.82	33923.72
669.96	33975.22
670.10	33560.94
670.25	33745.84
670.39	33701.37
670.53	33809.04
670.67	33890.96
670.81	33862.87
670.95	33895.64
671.09	33579.67
671.23	33336.25
671.37	33439.23
671.51	33235.61
671.65	33415.83
671.79	33085.81
671.93	33198.16
672.07	33163.05
672.21	32929.00
672.35	32872.82
672.49	33041.34
672.63	32830.69
672.77	32830.69
672.91	32921.98
673.05	32247.90
673.19	32163.64
673.33	32315.78
673.47	32130.87
673.61	32306.41
673.75	32070.02
673.89	32182.37
674.03	31922.57
674.17	32065.34
674.31	31283.60
674.45	31573.83
674.59	31924.91
674.73	31730.64
674.87	31627.66
675.01	31262.54
675.15	31433.39
675.29	31456.80
675.43	31332.75
675.56	31314.03
675.70	30895.07
675.84	31180.62
675.98	30129.72
676.12	30668.04
676.26	30890.39
676.40	30981.67
676.54	30211.64
676.68	30356.75
676.82	30059.50
676.96	30436.33
677.10	30338.02
677.23	30284.19
677.37	30204.61
677.51	29895.66
677.65	30174.19
677.79	30033.75
677.93	29977.58
678.07	29996.31
678.21	29575.01
678.34	29013.28
678.48	29450.96
678.62	29465.00
678.76	29097.54
678.90	28978.17
679.04	29401.81
679.18	29043.71
679.31	28599.01
679.45	28521.77
679.59	28725.39
679.73	28266.65
679.87	28020.89
680.00	28467.94
680.14	28414.10
680.28	28039.62
680.42	28334.53
680.56	28048.98
680.70	27814.93
680.83	28030.26
680.97	27632.36
681.11	27744.71
681.25	27894.50
681.39	27281.28
681.52	27161.92
681.66	26771.05
681.80	27016.80
681.94	26773.39
682.07	27063.61
682.21	26782.75
682.35	26639.98
682.49	26663.38
682.62	26588.49
682.76	26436.35
682.90	26384.86
683.04	26717.22
683.17	26745.30
683.31	25813.77
683.45	26211.66
683.59	25979.95
683.72	26047.82
683.86	25755.26
684.00	25928.45
684.13	25685.04
684.27	25324.60
684.41	25310.55
684.55	25240.34
684.68	25380.77
684.82	25502.48
684.96	25202.89
685.09	25193.53
685.23	25088.20
685.37	25345.66
685.50	25174.80
685.64	24971.18
685.78	24776.91
685.91	24835.42
686.05	24364.98
686.19	24088.79
686.32	24257.31
686.46	23915.59
686.60	23623.03
686.73	24254.97
686.87	23908.57
687.01	23772.82
687.14	23756.44
687.28	23648.77
687.42	23648.77
687.55	23810.27
687.69	23721.33
687.82	23199.39
687.96	23138.54
688.10	22974.70
688.23	22984.06
688.37	23372.59
688.50	23094.07
688.64	22998.10
688.78	22855.33
688.91	22803.84
689.05	22211.68
689.18	22625.96
689.32	21986.99
689.46	22108.70
689.59	22068.91
689.73	22347.44
689.86	22251.47
690.00	22033.80
690.13	22127.42
690.27	21954.22
690.41	21949.54
690.54	21642.93
690.68	21394.84
690.81	21415.90
690.95	21088.23
691.08	21088.23
691.22	21036.74
691.35	20980.56
691.49	21212.28
691.62	21106.95
691.76	20610.76
691.89	20287.76
692.03	20547.56
692.16	20187.12
692.30	20334.57
692.43	20203.50
692.57	20042.01
692.70	19964.77
692.84	20182.44
692.97	19445.17
693.11	19910.94
693.24	19601.99
693.38	19562.20
693.51	19681.56
693.65	19328.14
693.78	19168.99
693.92	19332.82
694.05	18984.09
694.19	19129.20
694.32	19176.01
694.45	19206.44
694.59	19161.97
694.72	19300.06
694.86	18838.97
694.99	18567.47
695.13	18787.48
695.26	18492.57
695.39	18284.26
695.53	18258.52
695.66	18480.87
695.80	18305.33
695.93	18265.54
696.07	18160.22
696.20	17612.53
696.33	17682.75
696.47	17755.30
696.60	17956.59
696.73	17654.66
696.87	17685.09
697.00	17521.25
697.14	17331.67
697.27	17104.64
697.40	17188.89
697.54	17083.57
697.67	17301.24
697.80	17123.36
697.94	16931.44
698.07	17006.33
698.21	16908.03
698.34	16702.06
698.47	16519.50
698.61	16526.52
698.74	16549.93
698.87	16306.51
699.01	15999.90
699.14	16226.93
699.27	16355.66
699.40	16060.76
699.54	15824.36
699.67	16240.98
699.80	15960.11
699.94	15829.04
700.07	15889.90
700.20	15899.26
700.34	15665.21
700.47	15513.07
700.60	15777.55
700.73	15616.05
700.87	15302.42
701.00	15316.47
701.13	15080.07
701.26	15119.86
701.40	15129.22
701.53	14925.60
701.66	14771.12
701.79	14731.33
701.93	14848.36
702.06	14525.36
702.19	14623.67
702.32	14604.94
702.46	14422.38
702.59	14427.06
702.72	14455.15
702.85	14434.08
702.99	14494.94
703.12	14026.83
703.25	13893.42
703.38	14167.26
703.51	14010.45
703.65	13792.78
703.78	13720.22
703.91	13767.03
704.04	13593.83
704.17	13525.96
704.31	13582.13
704.44	13198.28
704.57	13764.69
704.70	13420.63
704.83	13242.75
704.96	13036.78
705.10	13114.02
705.23	12865.92
>>>>>End Processed Spectral Data<<<<<
