SpectraSuite Data File
++++++++++++++++++++++++++++++++++++
Date: Fri Oct 25 11:34:36 EDT 2013
User: price-jones
Dark Spectrum Present: No
Reference Spectrum Present: No
Number of Sampled Component Spectra: 1
Spectrometers: USB2+H05261
Integration Time (usec): 100000 (USB2+H05261)
Spectra Averaged: 1 (USB2+H05261)
Boxcar Smoothing: 0 (USB2+H05261)
Correct for Electrical Dark: No (USB2+H05261)
Strobe/Lamp Enabled: No (USB2+H05261)
Correct for Detector Non-linearity: No (USB2+H05261)
Correct for Stray Light: No (USB2+H05261)
Number of Pixels in Processed Spectrum: 2048
>>>>>Begin Processed Spectral Data<<<<<
365.73	255.12
365.92	255.12
366.12	255.12
366.32	215.33
366.52	166.18
366.72	184.90
366.91	229.37
367.11	205.97
367.31	135.75
367.51	191.92
367.70	215.33
367.90	154.48
368.10	154.48
368.30	145.11
368.49	149.79
368.69	154.48
368.89	147.45
369.09	248.10
369.28	273.84
369.48	198.95
369.68	217.67
369.87	283.20
370.07	173.20
370.27	287.89
370.47	374.49
370.66	454.06
370.86	538.32
371.06	538.32
371.25	585.13
371.45	603.86
371.65	528.96
371.84	599.18
372.04	615.56
372.24	589.82
372.44	568.75
372.63	552.37
372.83	645.99
373.03	578.11
373.22	601.52
373.42	667.05
373.62	596.84
373.81	631.94
374.01	631.94
374.21	596.84
374.40	599.18
374.60	702.16
374.79	653.01
374.99	655.35
375.19	587.47
375.38	662.37
375.58	645.99
375.78	650.67
375.97	627.26
376.17	739.61
376.37	624.92
376.56	711.52
376.76	641.31
376.95	664.71
377.15	662.37
377.35	685.78
377.54	676.41
377.74	655.35
377.93	681.10
378.13	692.80
378.33	772.38
378.52	631.94
378.72	730.25
378.91	734.93
379.11	667.05
379.31	739.61
379.50	704.50
379.70	695.14
379.89	755.99
380.09	774.72
380.28	667.05
380.48	669.39
380.68	744.29
380.87	650.67
381.07	692.80
381.26	685.78
381.46	793.44
381.65	793.44
381.85	777.06
382.04	826.21
382.24	737.27
382.43	748.97
382.63	704.50
382.83	734.93
383.02	767.70
383.22	781.74
383.41	699.82
383.61	765.36
383.80	821.53
384.00	812.17
384.19	814.51
384.39	774.72
384.58	840.25
384.78	758.33
384.97	835.57
385.17	784.08
385.36	844.93
385.56	826.21
385.75	772.38
385.95	798.12
386.14	851.96
386.34	734.93
386.53	826.21
386.72	823.87
386.92	877.70
387.11	903.45
387.31	887.06
387.50	894.08
387.70	791.10
387.89	882.38
388.09	746.63
388.28	961.96
388.48	861.32
388.67	922.17
388.86	877.70
389.06	870.68
389.25	943.24
389.45	898.77
389.64	898.77
389.84	898.77
390.03	980.68
390.22	919.83
390.42	961.96
390.61	994.73
390.81	954.94
391.00	844.93
391.19	926.85
391.39	931.53
391.58	957.28
391.78	929.19
391.97	961.96
392.16	1008.77
392.36	1081.33
392.55	1046.22
392.75	1071.97
392.94	971.32
393.13	1041.54
393.33	1076.65
393.52	1067.28
393.71	1114.10
393.91	1050.90
394.10	1057.92
394.29	954.94
394.49	1043.88
394.68	1050.90
394.88	1086.01
395.07	1095.37
395.26	1123.46
395.46	1088.35
395.65	1121.12
395.84	1139.84
396.04	1158.57
396.23	1170.27
396.42	1160.91
396.62	1172.61
396.81	1116.44
397.00	1191.33
397.19	1252.19
397.39	1193.67
397.58	1210.06
397.77	1184.31
397.97	1263.89
398.16	1275.59
398.35	1306.02
398.55	1226.44
398.74	1219.42
398.93	1245.16
399.12	1270.91
399.32	1306.02
399.51	1296.66
399.70	1289.64
399.90	1170.27
400.09	1387.94
400.28	1359.85
400.47	1331.76
400.67	1299.00
400.86	1249.85
401.05	1404.32
401.24	1303.68
401.44	1490.92
401.63	1423.05
401.82	1448.79
402.01	1296.66
402.21	1434.75
402.40	1404.32
402.59	1399.64
402.78	1453.47
402.97	1582.20
403.17	1596.25
403.36	1462.83
403.55	1493.26
403.74	1497.94
403.93	1511.99
404.13	1504.96
404.32	1490.92
404.51	1504.96
404.70	1624.33
404.89	1549.43
405.09	1582.20
405.28	1596.25
405.47	1685.19
405.66	1610.29
405.85	1717.95
406.05	1743.70
406.24	1652.42
406.43	1645.40
406.62	1661.78
406.81	1785.83
407.00	1689.87
407.20	1678.16
407.39	1776.47
407.58	1799.87
407.77	1837.32
407.96	1692.21
408.15	1846.68
408.34	1771.79
408.54	1860.73
408.73	1816.26
408.92	1820.94
409.11	1886.47
409.30	1891.15
409.49	1909.88
409.68	1834.98
409.87	1893.49
410.07	1949.67
410.26	1980.09
410.45	1982.43
410.64	2005.84
410.83	1949.67
411.02	1909.88
411.21	2083.08
411.40	2029.24
411.59	2050.31
411.78	2143.93
411.98	2076.06
412.17	2125.21
412.36	2127.55
412.55	2186.06
412.74	2242.23
412.93	2232.87
413.12	2167.34
413.31	2211.81
413.50	2324.15
413.69	2267.98
413.88	2385.01
414.07	2272.66
414.26	2303.09
414.45	2422.45
414.64	2373.30
414.83	2490.33
415.02	2431.82
415.22	2595.65
415.41	2544.16
415.60	2513.74
415.79	2546.50
415.98	2523.10
416.17	2658.85
416.36	2626.08
416.55	2586.29
416.74	2640.12
416.93	2675.23
417.12	2661.19
417.31	2708.00
417.50	2801.62
417.69	2782.90
417.88	2942.05
418.07	2885.88
418.26	2691.62
418.45	2890.56
418.64	2860.13
418.83	2909.29
419.02	2942.05
419.21	2820.35
419.39	2930.35
419.58	2986.52
419.77	3033.33
419.96	3089.51
420.15	3091.85
420.34	2939.71
420.53	2979.50
420.72	3166.74
420.91	3171.43
421.10	3049.72
421.29	3215.90
421.48	3016.95
421.67	3304.84
421.86	3194.83
422.05	3131.64
422.24	3115.25
422.43	3166.74
422.61	3150.36
422.80	3087.17
422.99	3339.94
423.18	3269.73
423.37	3323.56
423.56	3300.16
423.75	3330.58
423.94	3311.86
424.13	3082.49
424.32	3059.08
424.50	3279.09
424.69	3288.45
424.88	3314.20
425.07	3346.97
425.26	3295.47
425.45	3225.26
425.64	3176.11
425.83	3295.47
426.01	3302.50
426.20	3283.77
426.39	3375.05
426.58	3246.32
426.77	3384.41
426.96	3342.28
427.15	3325.90
427.33	3492.08
427.52	3318.88
427.71	3559.95
427.90	3407.82
428.09	3552.93
428.28	3609.11
428.46	3487.40
428.65	3620.81
428.84	3588.04
429.03	3564.64
429.22	3494.42
429.40	3583.36
429.59	3574.00
429.78	3538.89
429.97	3541.23
430.16	3538.89
430.34	3733.15
430.53	3559.95
430.72	3669.96
430.91	3786.99
431.10	3602.08
431.28	3681.66
431.47	3723.79
431.66	3791.67
431.85	3885.29
432.03	3857.20
432.22	3941.46
432.41	3857.20
432.60	3873.59
432.79	3913.38
432.97	3854.86
433.16	3985.93
433.35	3962.53
433.54	3988.27
433.72	3941.46
433.91	4032.74
434.10	4067.85
434.28	3999.98
434.47	3946.14
434.66	4098.28
434.85	4170.83
435.03	4161.47
435.22	4049.13
435.41	4299.56
435.59	4145.09
435.78	4163.81
435.97	4255.09
436.16	4102.96
436.34	4177.86
436.53	4248.07
436.72	4273.82
436.90	4198.92
437.09	4337.01
437.28	4212.96
437.46	4262.12
437.65	4444.68
437.84	4430.63
438.02	4486.81
438.21	4470.42
438.40	4344.03
438.58	4498.51
438.77	4585.11
438.96	4526.60
439.14	4533.62
439.33	4718.52
439.52	4709.16
439.70	4678.73
439.89	4877.68
440.08	4692.77
440.26	4751.29
440.45	4793.42
440.63	4910.44
440.82	5034.49
441.01	4779.37
441.19	5018.11
441.38	4978.32
441.57	5100.03
441.75	5039.17
441.94	5046.20
442.12	5048.54
442.31	5214.71
442.50	5322.38
442.68	5142.16
442.87	5114.07
443.05	5416.00
443.24	5378.55
443.43	5315.36
443.61	5252.16
443.80	5490.90
443.98	5329.40
444.17	5144.50
444.35	5273.23
444.54	5383.23
444.73	5376.21
444.91	5287.27
445.10	5294.29
445.28	5268.55
445.47	5329.40
445.65	5425.36
445.84	5497.92
446.02	5411.32
446.21	5387.91
446.39	5247.48
446.58	5521.32
446.77	5535.37
446.95	5254.50
447.14	5493.24
447.32	5570.48
447.51	5481.53
447.69	5336.42
447.88	5537.71
448.06	5465.15
448.25	5320.04
448.43	5483.88
448.62	5507.28
448.80	5617.29
448.99	5420.68
449.17	5572.82
449.36	5565.79
449.54	5703.89
449.73	5916.87
449.91	5823.25
450.10	5743.67
450.28	5652.39
450.46	5724.95
450.65	5762.40
450.83	5940.28
451.02	5762.40
451.20	5951.98
451.39	5942.62
451.57	5959.00
451.76	5797.51
451.94	5928.58
452.13	6162.63
452.31	5937.94
452.49	5879.43
452.68	6106.46
452.86	5923.90
453.05	5949.64
453.23	6071.35
453.42	6183.70
453.60	6043.26
453.78	6148.59
453.97	6148.59
454.15	6080.71
454.34	6087.73
454.52	6197.74
454.70	6443.49
454.89	6293.70
455.07	6342.85
455.26	6499.67
455.44	6354.55
455.62	6221.14
455.81	6408.39
455.99	6356.90
456.17	6366.26
456.36	6389.66
456.54	6429.45
456.73	6649.46
456.91	6597.97
457.09	6670.53
457.28	6792.23
457.46	6693.93
457.64	6785.21
457.83	6715.00
458.01	6696.27
458.19	6902.24
458.38	6693.93
458.56	6803.94
458.74	6740.74
458.93	6853.09
459.11	6846.07
459.29	6778.19
459.48	6916.28
459.66	6998.20
459.84	7098.84
460.03	7283.75
460.21	7012.24
460.39	6960.75
460.57	7059.06
460.76	7049.69
460.94	6995.86
461.12	7178.42
461.31	7250.98
461.49	7307.15
461.67	7105.87
461.85	7351.62
462.04	7180.76
462.22	7602.06
462.40	7358.64
462.59	7311.83
462.77	7311.83
462.95	7473.33
463.13	7391.41
463.32	7351.62
463.50	7414.82
463.68	7604.40
463.86	7456.95
464.05	7576.31
464.23	7363.33
464.41	7515.46
464.59	7623.12
464.78	7658.23
464.96	7646.53
465.14	7419.50
465.32	7499.08
465.50	7585.68
465.69	7857.18
465.87	7765.90
466.05	7751.85
466.23	7822.07
466.41	7925.05
466.60	7878.24
466.78	7721.43
466.96	7716.75
467.14	7929.74
467.32	8006.97
467.51	7974.21
467.69	7768.24
467.87	7990.59
468.05	7995.27
468.23	8093.57
468.41	7932.08
468.60	8098.25
468.78	8056.12
468.96	7941.44
469.14	8229.32
469.32	8355.71
469.50	8159.11
469.69	8238.69
469.87	8124.00
470.05	8201.24
470.23	8264.43
470.41	8245.71
470.59	8407.20
470.77	8390.82
470.95	8542.96
471.14	8461.04
471.32	8276.13
471.50	8566.36
471.68	8524.23
471.86	8592.11
472.04	8697.43
472.22	8901.06
472.40	8458.70
472.58	8592.11
472.77	8837.86
472.95	8816.80
473.13	9132.77
473.31	8947.87
473.49	8957.23
473.67	8926.80
473.85	9158.52
474.03	9179.58
474.21	9067.24
474.39	9352.78
474.57	9324.69
474.75	9343.42
474.93	9535.34
475.12	9427.68
475.30	9469.81
475.48	9481.51
475.66	9540.02
475.84	9394.91
476.02	9577.47
476.20	9650.03
476.38	10026.86
476.56	9851.31
476.74	10068.98
476.92	9839.61
477.10	9970.68
477.28	10129.84
477.46	10115.80
477.64	10359.21
477.82	10422.41
478.00	10635.39
478.18	10476.24
478.36	10656.46
478.54	10731.36
478.72	10635.39
478.90	10754.76
479.08	10890.51
479.26	11087.12
479.44	10949.03
479.62	10965.41
479.80	11232.23
479.98	11412.45
480.16	11583.31
480.34	11597.35
480.52	11454.58
480.70	11627.78
480.88	11676.93
481.06	11637.14
481.24	11817.36
481.41	11693.32
481.59	11925.03
481.77	12205.89
481.95	12236.32
482.13	12248.02
482.31	12091.21
482.49	12606.13
482.67	12657.62
482.85	12812.09
483.03	12868.27
483.21	12894.01
483.39	13001.68
483.57	12884.65
483.74	13034.44
483.92	13109.34
484.10	13312.97
484.28	13460.42
484.46	13554.04
484.64	13895.76
484.82	13830.23
485.00	13792.78
485.18	14218.75
485.35	14352.16
485.53	14377.91
485.71	14185.99
485.89	14398.98
486.07	14436.42
486.25	14808.57
486.43	14693.88
486.61	14911.55
486.78	15119.86
486.96	15087.09
487.14	15335.19
487.32	15260.29
487.50	15749.46
487.68	15484.98
487.85	15602.01
488.03	15868.83
488.21	15822.02
488.39	15967.13
488.57	16126.29
488.75	16358.00
488.92	16528.86
489.10	16669.30
489.28	16683.34
489.46	16723.13
489.64	16535.88
489.81	17053.14
489.99	17022.72
490.17	17207.62
490.35	17348.05
490.53	17516.57
490.70	17935.53
490.88	17738.92
491.06	17886.37
491.24	17837.22
491.41	18010.42
491.59	18321.71
491.77	18160.22
491.95	18466.83
492.13	18586.19
492.30	18333.42
492.48	18679.82
492.66	18944.30
492.84	19040.26
493.01	19168.99
493.19	19112.81
493.37	19309.42
493.54	19286.01
493.72	19559.86
493.90	19681.56
494.08	19559.86
494.25	19976.47
494.43	19281.33
494.61	20147.33
494.79	20418.83
494.96	19924.98
495.14	20423.51
495.32	20577.99
495.49	20680.97
495.67	20673.95
495.85	21060.14
496.02	20751.19
496.20	21153.76
496.38	21303.56
496.55	21380.79
496.73	21729.53
496.91	21371.43
497.09	21715.49
497.26	21825.50
497.44	21736.56
497.62	21603.14
497.79	22033.80
497.97	21816.13
498.14	22230.41
498.32	22288.92
498.50	21989.33
498.67	22431.69
498.85	22576.81
499.03	22801.50
499.20	22850.65
499.38	22747.67
499.56	23159.60
499.73	23133.86
499.91	23225.14
500.08	23756.44
500.26	22979.38
500.44	22958.31
500.61	23391.31
500.79	23077.68
500.97	23761.12
501.14	24116.88
501.32	24058.37
501.49	23782.18
501.67	24292.42
501.84	24652.86
502.02	23779.84
502.20	24049.00
502.37	24233.91
502.55	24320.51
502.72	24435.19
502.90	24692.65
503.07	24500.73
503.25	24950.11
503.43	24900.96
503.60	24842.45
503.78	25263.74
503.95	24718.40
504.13	24797.98
504.30	25106.93
504.48	25125.65
504.65	25153.74
504.83	25504.82
505.01	25364.39
505.18	25671.00
505.36	25900.37
505.53	25951.86
505.71	26029.10
505.88	25986.97
506.06	25692.06
506.23	26167.19
506.41	25778.66
506.58	26340.39
506.76	26426.99
506.93	26501.89
507.11	26508.91
507.28	26576.78
507.46	26597.85
507.63	26555.72
507.81	27049.57
507.98	26941.91
508.16	27208.73
508.33	27346.82
508.50	27274.26
508.68	27393.63
508.85	27154.90
509.03	27517.68
509.20	27468.53
509.38	27704.92
509.55	27754.07
509.73	27658.11
509.90	27821.95
510.08	27934.29
510.25	27962.38
510.42	27707.26
510.60	27955.36
510.77	28315.80
510.95	28692.63
511.12	28362.61
511.30	28496.02
511.47	28418.78
511.64	28308.78
511.82	28978.17
511.99	28467.94
512.17	28755.82
512.34	29102.22
512.51	29015.62
512.69	29221.59
512.86	29074.13
513.04	29355.00
513.21	29638.20
513.38	29120.95
513.56	29453.30
513.73	29315.21
513.90	29570.33
514.08	29575.01
514.25	29656.93
514.43	29755.23
514.60	29792.68
514.77	29776.30
514.95	30094.61
515.12	29919.07
515.29	30323.98
515.47	30221.00
515.64	30211.64
515.81	30019.71
515.99	30897.41
516.16	30962.95
516.33	30761.66
516.51	30717.19
516.68	30831.88
516.85	30459.73
517.03	30813.15
517.20	30888.05
517.37	30829.54
517.54	30897.41
517.72	31175.94
517.89	31213.38
518.06	31330.41
518.24	31269.56
518.41	31414.67
518.58	31314.03
518.75	31309.35
518.93	31449.78
519.10	31316.37
519.27	31814.90
519.45	31573.83
519.62	31594.89
519.79	31821.92
519.96	32006.83
520.14	31842.99
520.31	31974.06
520.48	32198.75
520.65	32011.51
520.83	32444.51
521.00	32603.66
521.17	32425.78
521.34	32278.33
521.52	32524.08
521.69	32425.78
521.86	32496.00
522.03	33106.88
522.20	32737.07
522.38	33055.39
522.55	33127.94
522.72	33191.14
522.89	33069.43
523.07	33284.76
523.24	33546.90
523.41	33626.48
523.58	33453.28
523.75	33862.87
523.92	33448.60
524.10	33708.40
524.27	33336.25
524.44	33876.91
524.61	33919.04
524.78	33954.15
524.96	33820.74
525.13	33858.19
525.30	34031.39
525.47	33975.22
525.64	34136.71
525.81	34263.10
525.98	34490.13
526.16	34586.10
526.33	34153.10
526.50	34391.83
526.67	34405.88
526.84	34363.75
527.01	34237.36
527.18	34333.32
527.36	34710.14
527.53	34852.92
527.70	35440.39
527.87	35311.66
528.04	35019.10
528.21	34969.94
528.38	35129.10
528.55	35580.82
528.72	35101.01
528.89	35346.77
529.07	35093.99
529.24	34761.64
529.41	35508.27
529.58	35728.28
529.75	35372.52
529.92	35618.27
530.09	35644.02
530.26	35711.89
530.43	35786.79
530.60	35758.70
530.77	35828.92
530.94	35627.63
531.11	35407.62
531.28	35737.64
531.46	36315.75
531.63	36304.05
531.80	36252.56
531.97	36418.74
532.14	36381.29
532.31	35936.59
532.48	36575.55
532.65	36718.32
532.82	36187.02
532.99	36797.90
533.16	36439.80
533.33	36697.26
533.50	36938.33
533.67	36620.02
533.84	36025.53
534.01	36854.08
534.18	37083.45
534.35	37060.04
534.52	37301.12
534.69	37003.87
534.86	37263.67
535.03	36985.15
535.20	37270.69
535.37	37460.27
535.54	37570.28
535.71	37617.09
535.88	37385.38
536.05	37460.27
536.22	37296.44
536.38	37589.00
536.55	37504.74
536.72	37343.25
536.89	37860.51
537.06	37720.07
537.23	37933.06
537.40	37214.52
537.57	37811.35
537.74	37713.05
537.91	38117.96
538.08	37958.81
538.25	37460.27
538.42	37902.64
538.59	38167.12
538.75	37874.55
538.92	38155.41
539.09	38382.45
539.26	38218.61
539.43	38492.45
539.60	38075.84
539.77	38349.68
539.94	38593.09
540.11	38639.90
540.28	38829.49
540.44	38349.68
540.61	38426.92
540.78	38588.41
540.95	38529.90
541.12	39140.78
541.29	38363.72
541.46	39044.82
541.62	39068.22
541.79	39498.88
541.96	38403.51
542.13	38693.74
542.30	38862.26
542.47	39136.10
542.63	39466.11
542.80	39285.89
542.97	39693.15
543.14	39721.23
543.31	39524.63
543.48	39695.49
543.64	40013.80
543.81	39952.94
543.98	39810.17
544.15	39714.21
544.32	39915.50
544.48	40339.13
544.65	40294.66
544.82	39990.39
544.99	39789.11
545.16	40006.78
545.32	39966.99
545.49	40711.28
545.66	40435.10
545.83	40322.75
546.00	40411.69
546.16	40765.11
546.33	40531.06
546.50	40198.70
546.67	40498.29
546.83	39999.76
547.00	40465.52
547.17	40442.12
547.34	40540.42
547.50	40935.97
547.67	41095.13
547.84	40800.22
548.00	40818.94
548.17	41064.70
548.34	40802.56
548.51	40975.76
548.67	40835.33
548.84	41097.47
549.01	41118.53
549.18	40769.79
549.34	41460.25
549.51	41081.08
549.68	41399.40
549.84	41141.94
550.01	41329.18
550.18	41125.55
550.34	41329.18
550.51	41593.66
550.68	41242.58
550.84	41198.11
551.01	41766.86
551.18	41216.83
551.34	41366.63
551.51	41546.85
551.68	41450.89
551.84	41652.17
552.01	41607.70
552.18	41226.20
552.34	41734.09
552.51	41647.49
552.68	41439.18
552.84	41933.04
553.01	41446.21
553.18	41811.33
553.34	41813.67
553.51	41792.61
553.67	42160.07
553.84	42113.26
554.01	42052.41
554.17	42473.70
554.34	41886.23
554.51	42344.97
554.67	42632.86
554.84	42185.82
555.00	41996.23
555.17	41940.06
555.33	42150.71
555.50	42677.33
555.67	42281.78
555.83	42316.89
556.00	42279.44
556.16	42689.03
556.33	42576.69
556.50	42422.21
556.66	42745.20
556.83	42293.48
556.99	42670.31
557.16	42471.36
557.32	42817.76
557.49	42932.45
557.65	42485.40
557.82	42714.78
557.98	42794.36
558.15	42834.14
558.32	42492.43
558.48	42808.40
558.65	43316.29
558.81	43054.15
558.98	42869.25
559.14	42691.37
559.31	43143.09
559.47	42799.04
559.64	43203.95
559.80	42693.71
559.97	43189.91
560.13	42850.53
560.30	42784.99
560.46	43880.36
560.63	43540.99
560.79	43557.37
560.96	43498.86
561.12	43505.88
561.29	43384.17
561.45	43409.92
561.61	43702.48
561.78	43335.02
561.94	43463.75
562.11	43117.35
562.27	43512.90
562.44	43538.65
562.60	43536.30
562.77	43969.30
562.93	43519.92
563.10	43950.58
563.26	43264.80
563.42	43959.94
563.59	43679.08
563.75	43831.21
563.92	43576.09
564.08	44041.86
564.24	43548.01
564.41	43459.07
564.57	43681.42
564.74	44105.06
564.90	43660.35
565.07	43934.20
565.23	43889.73
565.39	44069.95
565.56	43819.51
565.72	43728.23
565.88	43487.15
566.05	43695.46
566.21	43849.94
566.38	43681.42
566.54	44311.02
566.70	43910.79
566.87	43688.44
567.03	44004.41
567.19	43863.98
567.36	43873.34
567.52	44378.90
567.68	44484.22
567.85	43966.96
568.01	44308.68
568.17	44142.50
568.34	44451.45
568.50	44350.81
568.66	43943.56
568.83	43793.76
568.99	44020.80
569.15	44301.66
569.32	43971.64
569.48	43758.66
569.64	44622.31
569.81	44348.47
569.97	44292.30
570.13	44631.68
570.30	43658.01
570.46	44109.74
570.62	44708.91
570.78	44362.51
570.95	44638.70
571.11	44374.22
571.27	43973.98
571.43	44147.18
571.60	44250.17
571.76	43976.33
571.92	44388.26
572.09	44589.55
572.25	44484.22
572.41	44275.91
572.57	44341.45
572.74	45109.14
572.90	44399.96
573.06	44624.65
573.22	44521.67
573.38	44910.20
573.55	44875.09
573.71	44758.06
573.87	44708.91
574.03	44472.52
574.20	44762.75
574.36	44545.08
574.52	44851.69
574.68	44650.40
574.84	45085.74
575.01	44472.52
575.17	44538.05
575.33	44575.50
575.49	44360.17
575.65	44664.44
575.82	44402.30
575.98	44573.16
576.14	45111.49
576.30	45251.92
576.46	44800.19
576.62	44643.38
576.79	44566.14
576.95	44390.60
577.11	44772.11
577.27	44711.25
577.43	44748.70
577.59	44669.12
577.75	44666.78
577.92	44112.08
578.08	44907.86
578.24	44847.00
578.40	44669.12
578.56	45081.06
578.72	44491.24
578.88	44708.91
579.04	44622.31
579.21	44570.82
579.37	44753.38
579.53	44734.66
579.69	44442.09
579.85	45010.84
580.01	44896.16
580.17	44502.95
580.33	44837.64
580.49	44924.24
580.65	44814.24
580.82	44811.90
580.98	45085.74
581.14	44767.43
581.30	45174.68
581.46	45048.29
581.62	44638.70
581.78	44652.74
581.94	44893.82
582.10	44676.15
582.26	44662.10
582.42	45111.49
582.58	45186.38
582.74	44863.39
582.90	44732.32
583.06	45134.89
583.22	44718.28
583.38	45345.54
583.54	44989.78
583.70	44971.05
583.86	44706.57
584.02	45268.30
584.18	45160.64
584.34	45574.91
584.50	45043.61
584.66	45099.78
584.82	45242.56
584.98	45675.55
585.14	45518.74
585.30	44781.47
585.46	44942.97
585.62	44978.07
585.78	45511.72
585.94	44868.07
586.10	45123.19
586.26	44753.38
586.42	44947.65
586.58	45038.93
586.74	44879.77
586.90	44861.05
587.06	45034.25
587.22	45029.57
587.38	44552.10
587.54	45055.31
587.70	45390.01
587.86	45130.21
588.02	44882.11
588.18	44884.45
588.34	45254.26
588.49	45071.70
588.65	44858.71
588.81	45153.62
588.97	45141.91
589.13	44629.34
589.29	45057.65
589.45	45090.42
589.61	45184.04
589.77	45354.90
589.93	45177.02
590.08	45572.57
590.24	45457.88
590.40	45436.82
590.56	45799.60
590.72	45951.74
590.88	45474.27
591.04	45127.87
591.20	45935.35
591.35	45911.95
591.51	45949.40
591.67	45738.75
591.83	45624.06
591.99	45280.00
592.15	45570.23
592.31	45691.94
592.46	45528.10
592.62	45497.67
592.78	45771.52
592.94	45542.14
593.10	45811.31
593.26	45792.58
593.41	45443.84
593.57	45675.55
593.73	45668.53
593.89	45883.86
594.05	45579.59
594.20	45769.18
594.36	46117.92
594.52	45928.33
594.68	45434.48
594.84	45254.26
594.99	45799.60
595.15	46052.38
595.31	45563.21
595.47	45612.36
595.62	46211.54
595.78	45607.68
595.94	45982.16
596.10	45989.19
596.25	46012.59
596.41	46157.70
596.57	45752.79
596.73	45968.12
596.88	45790.24
597.04	45942.38
597.20	45694.28
597.36	45820.67
597.51	45668.53
597.67	45584.27
597.83	45958.76
597.99	46169.41
598.14	45729.39
598.30	45663.85
598.46	45680.24
598.61	46064.08
598.77	46171.75
598.93	45574.91
599.09	45951.74
599.24	46403.46
599.40	46160.05
599.56	46113.23
599.71	46436.23
599.87	46550.91
600.03	46391.76
600.18	45675.55
600.34	45947.06
600.50	45745.77
600.65	45827.69
600.81	46136.64
600.97	45956.42
601.12	45930.67
601.28	45925.99
601.44	45865.14
601.59	45607.68
601.75	45977.48
601.91	46260.69
602.06	46178.77
602.22	45940.04
602.37	46005.57
602.53	46363.67
602.69	45993.87
602.84	46169.41
603.00	45883.86
603.16	45741.09
603.31	45947.06
603.47	46078.13
603.62	46068.76
603.78	46239.62
603.94	46007.91
604.09	45783.22
604.25	45539.80
604.40	45790.24
604.56	46036.00
604.71	46305.16
604.87	45207.45
605.03	45722.37
605.18	46129.62
605.34	45731.73
605.49	45900.25
605.65	45900.25
605.80	45975.14
605.96	45755.13
606.12	45443.84
606.27	45916.63
606.43	45766.84
606.58	46225.58
606.74	45598.32
606.89	45738.75
607.05	45975.14
607.20	45961.10
607.36	45663.85
607.51	45642.79
607.67	45640.45
607.82	45481.29
607.98	45532.78
608.13	45455.54
608.29	45684.92
608.44	45918.97
608.60	45837.05
608.75	45921.31
608.91	45436.82
609.06	45345.54
609.22	45778.54
609.37	45488.31
609.53	45949.40
609.68	46064.08
609.84	45390.01
609.99	45661.51
610.15	46031.32
610.30	45869.82
610.46	45289.37
610.61	45584.27
610.76	45443.84
610.92	45476.61
611.07	45392.35
611.23	45247.24
611.38	45556.19
611.54	45567.89
611.69	45366.60
611.84	45394.69
612.00	45401.71
612.15	45041.27
612.31	45404.05
612.46	45331.50
612.62	45647.47
612.77	45722.37
612.92	45860.46
613.08	45132.55
613.23	45535.12
613.39	45422.78
613.54	44896.16
613.69	45839.39
613.85	45261.28
614.00	45223.83
614.15	45202.77
614.31	44898.50
614.46	45097.44
614.62	45031.91
614.77	45464.91
614.92	45045.95
615.08	45191.06
615.23	45364.26
615.38	45680.24
615.54	45326.81
615.69	45191.06
615.84	45144.25
616.00	45343.20
616.15	44947.65
616.30	45162.98
616.46	45244.90
616.61	45200.43
616.76	45263.62
616.92	45085.74
617.07	45338.52
617.22	44959.35
617.37	44397.62
617.53	44872.75
617.68	44905.52
617.83	44718.28
617.99	45191.06
618.14	45036.59
618.29	44547.42
618.45	44477.20
618.60	45052.97
618.75	44521.67
618.90	44449.11
619.06	44676.15
619.21	44596.57
619.36	45013.18
619.51	44502.95
619.67	44502.95
619.82	44505.29
619.97	44428.05
620.12	44266.55
620.28	44460.82
620.43	44715.93
620.58	44662.10
620.73	44589.55
620.89	44947.65
621.04	44664.44
621.19	44748.70
621.34	44421.03
621.49	44158.89
621.65	44626.99
621.80	44673.81
621.95	44477.20
622.10	44304.00
622.25	44399.96
622.41	44332.09
622.56	44343.79
622.71	44605.93
622.86	44261.87
623.01	44252.51
623.16	44711.25
623.32	43962.28
623.47	44458.48
623.62	44191.65
623.77	44409.32
623.92	44268.89
624.07	44650.40
624.23	44348.47
624.38	44062.93
624.53	44076.97
624.68	44013.77
624.83	43882.70
624.98	43997.39
625.13	43702.48
625.29	43606.52
625.44	44095.69
625.59	43922.49
625.74	43653.33
625.89	43756.32
626.04	43807.81
626.19	43438.00
626.34	43634.61
626.49	43187.56
626.65	43590.14
626.80	43838.23
626.95	43524.60
627.10	43335.02
627.25	43728.23
627.40	43466.09
627.55	43672.06
627.70	43377.15
627.85	43753.97
628.00	43416.94
628.15	43475.45
628.30	42885.64
628.45	43203.95
628.60	42916.06
628.76	43070.54
628.91	43157.14
629.06	42632.86
629.21	43246.08
629.36	42913.72
629.51	43117.35
629.66	43512.90
629.81	42726.48
629.96	43316.29
630.11	43115.01
630.26	42557.96
630.41	43189.91
630.56	42759.25
630.71	43306.93
630.86	43040.11
631.01	42492.43
631.16	42506.47
631.31	42820.10
631.46	42618.81
631.61	43377.15
631.76	42801.38
631.91	43421.62
632.06	43421.62
632.21	42763.93
632.36	43182.88
632.51	42459.66
632.66	42927.77
632.81	42588.39
632.96	42883.30
633.10	42787.33
633.25	42541.58
633.40	42464.34
633.55	42562.64
633.70	42775.63
633.85	42557.96
634.00	42134.32
634.15	42389.44
634.30	42007.94
634.45	42057.09
634.60	42312.20
634.75	42239.65
634.90	42328.59
635.05	42522.85
635.19	42445.62
635.34	42576.69
635.49	42382.42
635.64	42410.51
635.79	42579.03
635.94	42052.41
636.09	42492.43
636.24	42202.20
636.39	42239.65
636.53	41886.23
636.68	41965.81
636.83	41984.53
636.98	41853.46
637.13	41776.22
637.28	42218.58
637.43	41717.71
637.57	42096.88
637.72	41551.53
637.87	41837.08
638.02	41923.68
638.17	41752.82
638.32	41581.96
638.46	41226.20
638.61	41420.46
638.76	41495.36
638.91	41869.84
639.06	41736.43
639.20	41354.93
639.35	41523.44
639.50	41181.73
639.65	41696.64
639.80	41242.58
639.94	41528.13
640.09	42064.11
640.24	41390.03
640.39	41125.55
640.54	41329.18
640.68	41570.25
640.83	41631.11
640.98	41020.23
641.13	41654.51
641.27	41544.51
641.42	41851.12
641.57	40954.69
641.72	41191.09
641.86	41607.70
642.01	40992.14
642.16	41006.19
642.31	40509.99
642.45	41102.15
642.60	40751.07
642.75	41113.85
642.90	41249.60
643.04	40844.69
643.19	40947.67
643.34	40645.74
643.48	40631.70
643.63	40753.41
643.78	40975.76
643.93	41092.79
644.07	40830.65
644.22	41209.81
644.37	40821.28
644.51	40722.98
644.66	41013.21
644.81	40388.28
644.95	40730.00
645.10	40559.14
645.25	40772.13
645.39	40439.78
645.54	40065.29
645.69	40189.34
645.83	40278.28
645.98	40491.27
646.13	40414.03
646.27	40666.81
646.42	40350.84
646.57	40327.43
646.71	40774.47
646.86	40669.15
647.00	40601.27
647.15	40353.18
647.30	40985.12
647.44	40287.64
647.59	40493.61
647.74	40093.38
647.88	40474.88
648.03	40502.97
648.17	40685.53
648.32	40624.68
648.47	40458.50
648.61	40374.24
648.76	40268.92
648.90	40392.97
649.05	39737.62
649.20	40205.72
649.34	40191.68
649.49	39910.82
649.63	39875.71
649.78	40203.38
649.92	39899.11
650.07	39709.53
650.21	39754.00
650.36	40051.25
650.51	39683.78
650.65	39934.22
650.80	39861.66
650.94	39971.67
651.09	39819.53
651.23	39372.49
651.38	39601.86
651.52	38972.26
651.67	40222.11
651.81	39517.60
651.96	39501.22
652.10	39487.18
652.25	39861.66
652.39	39768.04
652.54	39435.69
652.68	39379.51
652.83	39262.49
652.97	39761.02
653.12	39269.51
653.26	39117.37
653.41	39009.71
653.55	39175.89
653.70	39580.80
653.84	39435.69
653.99	39358.45
654.13	39882.73
654.27	39269.51
654.42	39388.88
654.56	38579.05
654.71	39302.28
654.85	39241.42
655.00	39161.84
655.14	39108.01
655.29	39157.16
655.43	39323.34
655.57	38796.72
655.72	38822.47
655.86	38998.01
656.01	38469.04
656.15	38553.30
656.30	38813.10
656.44	39269.51
656.58	38941.83
656.73	38665.65
656.87	38513.52
657.01	38391.81
657.16	38946.51
657.30	38644.59
657.45	38492.45
657.59	38347.34
657.73	38227.97
657.88	39012.05
658.02	39098.65
658.16	38588.41
658.31	38342.66
658.45	38614.16
658.60	37806.67
658.74	38242.01
658.88	38609.48
659.03	38326.27
659.17	37963.49
659.31	38110.94
659.46	38150.73
659.60	38391.81
659.74	38181.16
659.89	37748.16
660.03	37780.93
660.17	37928.38
660.32	38167.12
660.46	38064.13
660.60	37539.85
660.74	37635.81
660.89	38136.69
661.03	37530.49
661.17	37144.30
661.32	37294.10
661.46	37579.64
661.60	36861.10
661.74	37481.34
661.89	37436.87
662.03	37233.24
662.17	37418.14
662.31	36886.84
662.46	37172.39
662.60	36863.44
662.74	36657.47
662.88	36643.43
663.03	36666.83
663.17	36755.77
663.31	36631.72
663.45	36919.61
663.60	37258.99
663.74	37216.86
663.88	36809.61
664.02	36409.37
664.17	37261.33
664.31	36306.39
664.45	36514.70
664.59	36760.45
664.73	36156.60
664.88	36133.19
665.02	36144.89
665.16	36114.47
665.30	35964.67
665.44	36533.42
665.59	35854.67
665.73	35875.73
665.87	35384.22
666.01	36128.51
666.15	35775.09
666.29	35852.33
666.44	35964.67
666.58	35438.05
666.72	35655.72
666.86	35667.42
667.00	35531.67
667.14	35393.58
667.28	35306.98
667.43	35316.34
667.57	35555.08
667.71	35220.38
667.85	35515.29
667.99	35438.05
668.13	35402.94
668.27	35105.70
668.41	34848.24
668.56	34558.01
668.70	34368.43
668.84	34216.29
668.98	34459.71
669.12	34785.04
669.26	34466.73
669.40	34611.84
669.54	34841.21
669.68	34588.44
669.82	34401.19
669.96	33954.15
670.10	33809.04
670.25	34103.95
670.39	34064.16
670.53	34377.79
670.67	34206.93
670.81	34206.93
670.95	33607.75
671.09	33675.63
671.23	33827.76
671.37	34183.52
671.51	33645.20
671.65	33858.19
671.79	33659.24
671.93	33720.10
672.07	33429.87
672.21	33647.54
672.35	32989.85
672.49	33331.57
672.63	33432.21
672.77	33151.35
672.91	33118.58
673.05	32734.73
673.19	32896.23
673.33	32634.09
673.47	32531.11
673.61	32755.80
673.75	31981.08
673.89	32453.87
674.03	32465.57
674.17	31941.29
674.31	31686.17
674.45	32135.56
674.59	31821.92
674.73	31894.48
674.87	31681.49
675.01	31981.08
675.15	31688.51
675.29	31541.06
675.43	31365.52
675.56	31519.99
675.70	31435.74
675.84	31412.33
675.98	30160.14
676.12	31468.50
676.26	31323.39
676.40	30696.13
676.54	31002.74
676.68	31012.10
676.82	30218.66
676.96	30658.68
677.10	30469.09
677.23	30543.99
677.37	30445.69
677.51	30450.37
677.65	30534.63
677.79	30338.02
677.93	30118.01
678.07	30398.88
678.21	29621.82
678.34	29638.20
678.48	29600.76
678.62	29619.48
678.76	29359.68
678.90	29663.95
679.04	29310.53
679.18	29661.61
679.31	29071.79
679.45	29060.09
679.59	28982.85
679.73	28905.62
679.87	28659.86
680.00	28767.52
680.14	28697.31
680.28	28788.59
680.42	28690.29
680.56	28404.74
680.70	28465.60
680.83	27864.08
680.97	28041.96
681.11	27950.68
681.25	28194.09
681.39	27819.61
681.52	27868.76
681.66	27323.41
681.80	27405.33
681.94	26965.31
682.07	27145.53
682.21	27119.79
682.35	27208.73
682.49	27007.44
682.62	26951.27
682.76	27009.78
682.90	26586.15
683.04	26930.20
683.17	26604.87
683.31	25914.41
683.45	26441.03
683.59	26066.55
683.72	26108.68
683.86	26267.83
684.00	26057.18
684.13	25902.71
684.27	25916.75
684.41	25582.06
684.55	25720.15
684.68	25422.90
684.82	25427.58
684.96	25127.99
685.09	25495.46
685.23	25095.22
685.37	25294.17
685.50	25109.27
685.64	24999.26
685.78	25326.94
685.91	24706.70
686.05	24662.22
686.19	24056.03
686.32	24414.13
686.46	24168.37
686.60	24058.37
686.73	24240.93
686.87	23957.72
687.01	24233.91
687.14	23946.02
687.28	23957.72
687.42	23861.76
687.55	23744.73
687.69	23527.06
687.82	23594.94
687.96	23241.52
688.10	23538.77
688.23	23358.55
688.37	23611.32
688.50	23545.79
688.64	23154.92
688.78	23110.45
688.91	22750.01
689.05	22913.84
689.18	22597.87
689.32	22558.08
689.46	22199.98
689.59	22267.86
689.73	22569.79
689.86	22450.42
690.00	22515.95
690.13	22150.83
690.27	22129.77
690.41	22361.48
690.54	21905.07
690.68	21500.16
690.81	21799.75
690.95	21568.04
691.08	21415.90
691.22	21188.87
691.35	21071.84
691.49	21259.09
691.62	21322.28
691.76	21034.39
691.89	20900.98
692.03	20428.20
692.16	20357.98
692.30	20498.41
692.43	20732.47
692.57	20362.66
692.70	20374.36
692.84	20205.84
692.97	20044.35
693.11	20135.63
693.24	19658.16
693.38	19688.59
693.51	19714.33
693.65	19599.65
693.78	19878.17
693.92	19557.52
694.05	19569.22
694.19	19470.92
694.32	19487.30
694.45	19740.08
694.59	19393.68
694.72	19143.24
694.86	18820.25
694.99	18750.03
695.13	18686.84
695.26	18534.70
695.39	18525.34
695.53	18476.19
695.66	18834.29
695.80	18305.33
695.93	18272.56
696.07	18153.20
696.20	17935.53
696.33	17921.48
696.47	17820.84
696.60	18113.41
696.73	17867.65
696.87	17811.48
697.00	17858.29
697.14	17736.58
697.27	17542.32
697.40	17628.92
697.54	17394.86
697.67	17282.52
697.80	17380.82
697.94	17336.35
698.07	17259.11
698.21	16961.86
698.34	17036.76
698.47	16823.77
698.61	16210.55
698.74	16248.00
698.87	16758.24
699.01	16334.60
699.14	16475.03
699.27	16308.85
699.40	16159.06
699.54	16154.38
699.67	15981.18
699.80	16203.53
699.94	15969.48
700.07	15903.94
700.20	16027.99
700.34	15723.72
700.47	15737.76
700.60	15943.73
700.73	15672.23
700.87	15676.91
701.00	15115.18
701.13	15335.19
701.26	15059.01
701.40	14939.64
701.53	15068.37
701.66	15283.70
701.79	14890.49
701.93	14923.26
702.06	14553.45
702.19	14607.28
702.32	14607.28
702.46	14565.15
702.59	14801.55
702.72	14761.76
702.85	14633.03
702.99	14569.83
703.12	14181.31
703.25	14408.34
703.38	14188.33
703.51	14132.15
703.65	13823.20
703.78	13760.01
703.91	13678.09
704.04	13666.39
704.17	13584.47
704.31	13547.02
704.44	13486.17
704.57	13558.72
704.70	13540.00
704.83	13453.40
704.96	13277.86
705.10	13252.11
705.23	13156.15
>>>>>End Processed Spectral Data<<<<<
