SpectraSuite Data File
++++++++++++++++++++++++++++++++++++
Date: Fri Oct 25 10:44:41 EDT 2013
User: price-jones
Dark Spectrum Present: No
Reference Spectrum Present: No
Number of Sampled Component Spectra: 1
Spectrometers: USB2+H05261
Integration Time (usec): 100000 (USB2+H05261)
Spectra Averaged: 1 (USB2+H05261)
Boxcar Smoothing: 0 (USB2+H05261)
Correct for Electrical Dark: No (USB2+H05261)
Strobe/Lamp Enabled: No (USB2+H05261)
Correct for Detector Non-linearity: No (USB2+H05261)
Correct for Stray Light: No (USB2+H05261)
Number of Pixels in Processed Spectrum: 2048
>>>>>Begin Processed Spectral Data<<<<<
365.73	147.45
365.92	147.45
366.12	147.45
366.32	32.77
366.52	107.66
366.72	32.77
366.91	60.85
367.11	4.68
367.31	65.54
367.51	0.00
367.70	30.43
367.90	0.00
368.10	0.00
368.30	0.00
368.49	72.56
368.69	72.56
368.89	58.51
369.09	124.05
369.28	84.26
369.48	126.39
369.68	60.85
369.87	100.64
370.07	117.03
370.27	170.86
370.47	198.95
370.66	358.10
370.86	416.62
371.06	428.32
371.25	458.74
371.45	304.27
371.65	421.30
371.84	411.93
372.04	369.80
372.24	461.09
372.44	505.56
372.63	421.30
372.83	388.53
373.03	468.11
373.22	535.98
373.42	512.58
373.62	477.47
373.81	496.19
374.01	596.84
374.21	496.19
374.40	517.26
374.60	559.39
374.79	526.62
374.99	503.22
375.19	578.11
375.38	545.34
375.58	624.92
375.78	545.34
375.97	610.88
376.17	561.73
376.37	594.50
376.56	533.64
376.76	664.71
376.95	561.73
377.15	568.75
377.35	596.84
377.54	601.52
377.74	631.94
377.93	559.39
378.13	547.69
378.33	720.88
378.52	578.11
378.72	627.26
378.91	589.82
379.11	594.50
379.31	571.09
379.50	662.37
379.70	631.94
379.89	578.11
380.09	610.88
380.28	702.16
380.48	641.31
380.68	601.52
380.87	662.37
381.07	636.63
381.26	695.14
381.46	683.44
381.65	671.73
381.85	613.22
382.04	603.86
382.24	725.57
382.43	631.94
382.63	699.82
382.83	634.29
383.02	702.16
383.22	695.14
383.41	695.14
383.61	704.50
383.80	643.65
384.00	734.93
384.19	744.29
384.39	723.23
384.58	795.78
384.78	702.16
384.97	751.31
385.17	767.70
385.36	697.48
385.56	727.91
385.75	765.36
385.95	716.20
386.14	784.08
386.34	744.29
386.53	802.80
386.72	725.57
386.92	863.66
387.11	837.91
387.31	798.12
387.50	786.42
387.70	837.91
387.89	861.32
388.09	826.21
388.28	873.02
388.48	798.12
388.67	870.68
388.86	887.06
389.06	819.19
389.25	868.34
389.45	863.66
389.64	795.78
389.84	854.30
390.03	894.08
390.22	884.72
390.42	929.19
390.61	966.64
390.81	945.58
391.00	894.08
391.19	992.39
391.39	985.37
391.58	933.87
391.78	922.17
391.97	971.32
392.16	931.53
392.36	980.68
392.55	992.39
392.75	985.37
392.94	940.90
393.13	917.49
393.33	1001.75
393.52	1036.86
393.71	947.92
393.91	1081.33
394.10	1034.52
394.29	983.02
394.49	1032.18
394.68	1039.20
394.88	1057.92
395.07	1135.16
395.26	1086.01
395.46	1015.79
395.65	1022.81
395.84	1114.10
396.04	1217.08
396.23	1025.15
396.42	1090.69
396.62	994.73
396.81	1128.14
397.00	1083.67
397.19	1104.73
397.39	1139.84
397.58	1219.42
397.77	1212.40
397.97	1261.55
398.16	1322.40
398.35	1390.28
398.55	1242.82
398.74	1263.89
398.93	1366.87
399.12	1364.53
399.32	1263.89
399.51	1327.08
399.70	1350.49
399.90	1406.66
400.09	1345.81
400.28	1369.21
400.47	1481.56
400.67	1397.30
400.86	1465.18
401.05	1430.07
401.24	1455.81
401.44	1446.45
401.63	1446.45
401.82	1502.62
402.01	1376.24
402.21	1502.62
402.40	1610.29
402.59	1612.63
402.78	1582.20
402.97	1607.95
403.17	1605.61
403.36	1582.20
403.55	1593.90
403.74	1621.99
403.93	1671.14
404.13	1598.59
404.32	1603.27
404.51	1614.97
404.70	1589.22
404.89	1741.36
405.09	1776.47
405.28	1809.23
405.47	1664.12
405.66	1778.81
405.85	1830.30
406.05	1727.32
406.24	1776.47
406.43	1785.83
406.62	1788.17
406.81	1963.71
407.00	1827.96
407.20	1839.66
407.39	1832.64
407.58	1937.96
407.77	1944.99
407.96	1975.41
408.15	1973.07
408.34	2005.84
408.54	1937.96
408.73	1926.26
408.92	1959.03
409.11	2003.50
409.30	1982.43
409.49	1895.83
409.68	2008.18
409.87	1926.26
410.07	2043.29
410.26	2076.06
410.45	2153.29
410.64	2190.74
410.83	2106.48
411.02	2186.06
411.21	2293.72
411.40	2162.66
411.59	2293.72
411.78	2256.28
411.98	2197.76
412.17	2258.62
412.36	2321.81
412.55	2417.77
412.74	2476.29
412.93	2373.30
413.12	2260.96
413.31	2511.39
413.50	2380.32
413.69	2410.75
413.88	2537.14
414.07	2586.29
414.26	2576.93
414.45	2621.40
414.64	2682.25
414.83	2703.32
415.02	2619.06
415.22	2752.47
415.41	2722.04
415.60	2757.15
415.79	2794.60
415.98	2820.35
416.17	2895.24
416.36	2815.66
416.55	2825.03
416.74	2918.65
416.93	2979.50
417.12	2892.90
417.31	3087.17
417.50	2885.88
417.69	3045.04
417.88	2998.23
418.07	3026.31
418.26	3047.38
418.45	3141.00
418.64	3171.43
418.83	3119.93
419.02	3145.68
419.21	3056.74
419.39	3063.76
419.58	3229.94
419.77	3166.74
419.96	3190.15
420.15	3232.28
420.34	3227.60
420.53	3368.03
420.72	3522.51
420.91	3246.32
421.10	3330.58
421.29	3330.58
421.48	3405.48
421.67	3400.80
421.86	3496.76
422.05	3356.33
422.24	3267.39
422.43	3538.89
422.61	3440.59
422.80	3337.60
422.99	3391.44
423.18	3421.86
423.37	3557.61
423.56	3485.06
423.75	3562.30
423.94	3407.82
424.13	3370.37
424.32	3424.20
424.50	3456.97
424.69	3728.47
424.88	3630.17
425.07	3564.64
425.26	3517.83
425.45	3524.85
425.64	3461.65
425.83	3646.55
426.01	3506.12
426.20	3595.06
426.39	3520.17
426.58	3489.74
426.77	3482.72
426.96	3684.00
427.15	3475.70
427.33	3712.09
427.52	3529.53
427.71	3606.77
427.90	3779.97
428.09	3714.43
428.28	3737.84
428.46	3712.09
428.65	3836.14
428.84	3920.40
429.03	3815.07
429.22	3808.05
429.40	3791.67
429.59	3925.08
429.78	3632.51
429.97	3545.91
430.16	3772.94
430.34	3763.58
430.53	3866.56
430.72	3974.23
430.91	3911.04
431.10	3906.35
431.28	3929.76
431.47	4119.34
431.66	4070.19
431.85	4021.04
432.03	4182.54
432.22	4067.85
432.41	4245.73
432.60	4138.07
432.79	4067.85
432.97	4222.33
433.16	4241.05
433.35	4102.96
433.54	4215.30
433.72	4234.03
433.91	4180.20
434.10	4264.46
434.28	4339.35
434.47	4451.70
434.66	4386.16
434.85	4304.25
435.03	4517.23
435.22	4360.42
435.41	4550.00
435.59	4652.98
435.78	4393.19
435.97	4692.77
436.16	4613.20
436.34	4381.48
436.53	4648.30
436.72	4660.01
436.90	4545.32
437.09	4709.16
437.28	4369.78
437.46	4575.75
437.65	4667.03
437.84	4571.07
438.02	4634.26
438.21	4613.20
438.40	4716.18
438.58	4823.84
438.77	4873.00
438.96	4842.57
439.14	4828.53
439.33	4952.57
439.52	5032.15
439.70	5053.22
439.89	5097.69
440.08	5008.75
440.26	5266.21
440.45	5060.24
440.63	5165.56
440.82	5476.85
441.01	5308.34
441.19	5282.59
441.38	5654.73
441.57	5371.53
441.75	5399.62
441.94	5654.73
442.12	5612.60
442.31	5603.24
442.50	5598.56
442.68	5448.77
442.87	5591.54
443.05	5598.56
443.24	5856.02
443.43	5650.05
443.61	5816.23
443.80	5837.30
443.98	5736.65
444.17	5666.44
444.35	5799.85
444.54	5870.06
444.73	5771.76
444.91	5795.17
445.10	5753.04
445.28	5820.91
445.47	5703.89
445.65	5776.44
445.84	6029.22
446.02	5792.83
446.21	5944.96
446.39	5827.93
446.58	6066.67
446.77	6019.86
446.95	5753.04
447.14	5788.14
447.32	6008.16
447.51	6008.16
447.69	5849.00
447.88	6136.88
448.06	6050.28
448.25	6019.86
448.43	6080.71
448.62	6136.88
448.80	5912.19
448.99	6232.85
449.17	6115.82
449.36	6113.48
449.54	6090.07
449.73	6200.08
449.91	6314.77
450.10	6174.33
450.28	6469.24
450.46	6352.21
450.65	6396.68
450.83	6450.52
451.02	6370.94
451.20	6317.11
451.39	6509.03
451.57	6368.60
451.76	6406.05
451.94	6511.37
452.13	6647.12
452.31	6499.67
452.49	6443.49
452.68	6438.81
452.86	6384.98
453.05	6607.33
453.23	6689.25
453.42	6480.94
453.60	6569.88
453.78	6796.92
453.97	6635.42
454.15	6588.61
454.34	6530.09
454.52	6705.63
454.70	6644.78
454.89	6773.51
455.07	6581.59
455.26	6951.39
455.44	6977.14
455.62	6878.83
455.81	6857.77
455.99	7073.10
456.17	7033.31
456.36	6932.67
456.54	7194.81
456.73	7082.46
456.91	7255.66
457.09	7262.68
457.28	7433.54
457.46	7169.06
457.64	7220.55
457.83	7185.44
458.01	7164.38
458.19	7360.98
458.38	7131.61
458.56	7288.43
458.74	7236.94
458.93	7265.02
459.11	7339.92
459.29	7398.43
459.48	7613.76
459.66	7346.94
459.84	7583.34
460.03	7676.96
460.21	7632.49
460.39	7630.15
460.57	7634.83
460.76	7651.21
460.94	7620.78
461.12	7618.44
461.31	7730.79
461.49	7798.66
461.67	7698.02
461.85	7929.74
462.04	7733.13
462.22	8072.51
462.40	7967.18
462.59	7903.99
462.77	7763.56
462.95	8063.15
463.13	7866.54
463.32	7894.63
463.50	7948.46
463.68	8196.56
463.86	8184.85
464.05	7971.86
464.23	8056.12
464.41	8095.91
464.59	8030.38
464.78	8461.04
464.96	8229.32
465.14	7906.33
465.32	8177.83
465.50	8229.32
465.69	8379.12
465.87	8079.53
466.05	8360.39
466.23	8194.22
466.41	8234.00
466.60	8372.10
466.78	8449.33
466.96	8191.88
467.14	8187.19
467.32	8575.72
467.51	8514.87
467.69	8191.88
467.87	8351.03
468.05	8568.70
468.23	8542.96
468.41	8503.17
468.60	8615.51
468.78	8674.03
468.96	8706.79
469.14	8690.41
469.32	8795.73
469.50	8486.78
469.69	8748.92
469.87	8753.60
470.05	8879.99
470.23	8844.88
470.41	8889.35
470.59	8741.90
470.77	8936.17
470.95	8985.32
471.14	9139.79
471.32	9057.87
471.50	9100.00
471.68	9181.92
471.86	9336.40
472.04	9294.27
472.22	9554.07
472.40	9193.62
472.58	9221.71
472.77	9383.21
472.95	9612.58
473.13	9685.14
473.31	9540.02
473.49	9664.07
473.67	9626.62
473.85	9610.24
474.03	9668.75
474.21	9935.57
474.39	9701.52
474.57	9706.20
474.75	9977.70
474.93	10176.65
475.12	10305.38
475.30	10324.10
475.48	10186.01
475.66	10202.40
475.84	10312.40
476.02	10480.92
476.20	10485.60
476.38	10623.69
476.56	10766.46
476.74	10736.04
476.92	10497.30
477.10	10565.18
477.28	11037.97
477.46	10895.19
477.64	11131.59
477.82	11283.72
478.00	11272.02
478.18	11246.27
478.36	11419.47
478.54	11632.46
478.72	11363.30
478.90	11641.82
479.08	11779.92
479.26	11676.93
479.44	11796.30
479.62	11892.26
479.80	12051.42
479.98	12320.58
480.16	12315.90
480.34	12545.27
480.52	12280.79
480.70	12566.34
480.88	12446.97
481.06	12498.46
481.24	12676.34
481.41	13245.09
481.59	13128.06
481.77	13156.15
481.95	12910.40
482.13	13282.54
482.31	13032.10
482.49	13540.00
482.67	13640.64
482.85	13378.50
483.03	13701.50
483.21	13928.53
483.39	13914.48
483.57	14120.45
483.74	14258.54
483.92	14026.83
484.10	14286.63
484.28	14288.97
484.46	14607.28
484.64	14684.52
484.82	14534.73
485.00	14970.07
485.18	14993.47
485.35	15105.82
485.53	15070.71
485.71	14904.53
485.89	15220.50
486.07	15157.31
486.25	15325.83
486.43	15772.87
486.61	15768.19
486.78	15637.12
486.96	15910.96
487.14	16130.97
487.32	16470.35
487.50	16170.76
487.68	16343.96
487.85	16858.88
488.03	17006.33
488.21	16884.62
488.39	16933.78
488.57	16905.69
488.75	17322.30
488.92	17240.39
489.10	17565.72
489.28	17848.93
489.46	17940.21
489.64	17802.11
489.81	18408.31
489.99	17989.36
490.17	18366.18
490.35	18700.88
490.53	18438.74
490.70	18768.76
490.88	18909.19
491.06	19243.88
491.24	19115.16
491.41	19161.97
491.59	19307.08
491.77	19040.26
491.95	19201.76
492.13	19646.46
492.30	20072.43
492.48	19791.57
492.66	19674.54
492.84	19892.21
493.01	20032.65
493.19	20095.84
493.37	20421.17
493.54	20222.23
493.72	20669.27
493.90	20664.59
494.08	21113.97
494.25	20952.48
494.43	21324.62
494.61	21551.65
494.79	21649.96
494.96	21418.24
495.14	21720.17
495.32	21921.46
495.49	21525.91
495.67	21696.77
495.85	21804.43
496.02	21876.99
496.20	22302.96
496.38	22405.95
496.55	22190.62
496.73	22843.63
496.91	22546.38
497.09	22988.74
497.26	22958.31
497.44	23054.28
497.62	23030.87
497.79	23211.09
497.97	22955.97
498.14	23185.35
498.32	23384.29
498.50	23438.12
498.67	23768.14
498.85	23864.10
499.03	24184.76
499.20	24065.39
499.38	24037.30
499.56	24041.98
499.73	24570.94
499.91	24673.93
500.08	24472.64
500.26	24130.92
500.44	24547.54
500.61	24414.13
500.79	24400.08
500.97	24924.36
501.14	25071.82
501.32	24797.98
501.49	24868.19
501.67	25284.81
501.84	25556.31
502.02	25259.06
502.20	25530.56
502.37	25633.55
502.55	26029.10
502.72	25820.79
502.90	26005.69
503.07	25830.15
503.25	25888.67
503.43	26129.74
503.60	26281.88
503.78	26040.80
503.95	26087.61
504.13	26426.99
504.30	26593.17
504.48	26625.93
504.65	26717.22
504.83	26480.82
505.01	26916.16
505.18	26869.35
505.36	27215.75
505.53	27300.01
505.71	27527.04
505.88	27271.92
506.06	27150.21
506.23	27517.68
506.41	27117.45
506.58	27520.02
506.76	27534.06
506.93	27917.91
507.11	27557.47
507.28	27831.31
507.46	27899.19
507.63	27953.02
507.81	27960.04
507.98	28100.47
508.16	28025.57
508.33	28294.74
508.50	28205.80
508.68	28521.77
508.85	28804.97
509.03	28620.07
509.20	28718.37
509.38	28685.61
509.55	28851.78
509.73	28725.39
509.90	29069.45
510.08	29193.50
510.25	28907.96
510.42	29383.09
510.60	29528.20
510.77	29308.19
510.95	29642.88
511.12	29441.60
511.30	29692.04
511.47	29855.87
511.64	29851.19
511.82	29909.71
511.99	29926.09
512.17	30204.61
512.34	29972.90
512.51	29848.85
512.69	30190.57
512.86	30377.81
513.04	30221.00
513.21	30335.68
513.38	30452.71
513.56	30162.48
513.73	30501.86
513.90	30553.35
514.08	30572.08
514.25	31110.40
514.43	31035.50
514.60	30794.43
514.77	31040.18
514.95	31426.37
515.12	30941.88
515.29	31524.68
515.47	31735.32
515.64	31559.78
515.81	31204.02
515.99	31651.06
516.16	31136.15
516.33	31304.67
516.51	31615.96
516.68	31009.76
516.85	31646.38
517.03	31641.70
517.20	31679.15
517.37	31819.58
517.54	32224.50
517.72	32107.47
517.89	32088.74
518.06	32100.45
518.24	31756.39
518.41	31997.46
518.58	32137.90
518.75	32102.79
518.93	32699.62
519.10	32112.15
519.27	32727.71
519.45	32500.68
519.62	32383.65
519.79	32947.72
519.96	32779.20
520.14	33193.48
520.31	32896.23
520.48	33134.96
520.65	32870.48
520.83	33469.66
521.00	33488.38
521.17	33518.81
521.34	33710.74
521.52	33521.15
521.69	33532.86
521.86	34087.56
522.03	33703.71
522.20	33907.34
522.38	33996.28
522.55	34204.59
522.72	33783.29
522.89	34185.86
523.07	34464.39
523.24	33895.64
523.41	34176.50
523.58	34220.97
523.75	34581.42
523.92	34529.92
524.10	34923.13
524.27	35051.86
524.44	34859.94
524.61	35192.30
524.78	35021.44
524.96	35213.36
525.13	35384.22
525.30	35363.15
525.47	35302.30
525.64	35014.41
525.81	35351.45
525.98	35213.36
526.16	35225.06
526.33	34953.56
526.50	35398.26
526.67	34649.29
526.84	34684.40
527.01	35449.75
527.18	35487.20
527.36	36037.23
527.53	35768.07
527.70	35938.93
527.87	35971.69
528.04	35798.49
528.21	36325.11
528.38	35934.24
528.55	36116.81
528.72	36294.69
528.89	36577.89
529.07	36077.02
529.24	36374.27
529.41	36533.42
529.58	36219.79
529.75	36290.01
529.92	36802.58
530.09	36814.29
530.26	36353.20
530.43	36772.16
530.60	36676.19
530.77	36800.24
530.94	36706.62
531.11	36697.26
531.28	36821.31
531.46	36844.71
531.63	36781.52
531.80	36854.08
531.97	36842.37
532.14	36975.78
532.31	37029.62
532.48	37078.77
532.65	37471.98
532.82	37471.98
532.99	37083.45
533.16	37071.75
533.33	37619.43
533.50	37876.89
533.67	37652.20
533.84	37715.39
534.01	37706.03
534.18	37509.43
534.35	37647.52
534.52	37727.10
534.69	37949.45
534.86	38026.68
535.03	37958.81
535.20	38213.93
535.37	38623.52
535.54	38293.50
535.71	38017.32
535.88	37806.67
536.05	37813.70
536.22	38415.21
536.38	38199.88
536.55	37780.93
536.72	38553.30
536.89	38295.85
537.06	38345.00
537.23	38639.90
537.40	38171.80
537.57	38234.99
537.74	38616.50
537.91	38876.30
538.08	38527.56
538.25	38387.13
538.42	38665.65
538.59	38768.63
538.75	38770.97
538.92	38998.01
539.09	38829.49
539.26	38569.69
539.43	38700.76
539.60	38876.30
539.77	38770.97
539.94	39007.37
540.11	39459.09
540.28	38965.24
540.44	39122.05
540.61	39311.64
540.78	39178.23
540.95	39330.36
541.12	39466.11
541.29	39433.35
541.46	39063.54
541.62	39304.62
541.79	39704.85
541.96	39061.20
542.13	39864.00
542.30	39454.41
542.47	39625.27
542.63	39482.50
542.80	39360.79
542.97	39915.50
543.14	40662.13
543.31	40114.44
543.48	40409.35
543.64	41083.42
543.81	40657.45
543.98	40423.39
544.15	40346.15
544.32	40519.35
544.48	40704.26
544.65	40643.40
544.82	40598.93
544.99	40570.85
545.16	40580.21
545.32	40552.12
545.49	41050.66
545.66	41134.92
545.83	40521.69
546.00	41050.66
546.16	41003.85
546.33	40882.14
546.50	40629.36
546.67	40488.93
546.83	40692.55
547.00	41188.75
547.17	41181.73
547.34	41333.86
547.50	40992.14
547.67	41010.87
547.84	41076.40
548.00	41146.62
548.17	41415.78
548.34	41265.99
548.51	41326.84
548.67	41617.07
548.84	40921.93
549.01	41181.73
549.18	41415.78
549.34	41497.70
549.51	41254.28
549.68	41663.88
549.84	41567.91
550.01	41785.58
550.18	41579.62
550.34	41909.63
550.51	41436.84
550.68	41483.66
550.84	41467.27
551.01	41689.62
551.18	41696.64
551.34	41785.58
551.51	42073.47
551.68	41563.23
551.84	41666.22
552.01	41778.56
552.18	42029.00
552.34	41958.78
552.51	41872.18
552.68	42150.71
552.84	41846.44
553.01	42164.75
553.18	42169.43
553.34	42237.31
553.51	41645.15
553.67	42192.84
553.84	42249.01
554.01	42249.01
554.17	42576.69
554.34	42670.31
554.51	42305.18
554.67	43194.59
554.84	42120.28
555.00	42293.48
555.17	42714.78
555.33	42887.98
555.50	42682.01
555.67	42197.52
555.83	42649.24
556.00	42106.24
556.16	42773.29
556.33	42515.83
556.50	42649.24
556.66	42749.88
556.83	42738.18
556.99	42904.36
557.16	42869.25
557.32	43129.05
557.49	42948.83
557.65	42529.87
557.82	42902.02
557.98	42731.16
558.15	43250.76
558.32	43215.65
558.48	42848.19
558.65	42880.95
558.81	42691.37
558.98	43028.41
559.14	43217.99
559.31	42740.52
559.47	43351.40
559.64	43105.65
559.80	43065.86
559.97	43335.02
560.13	42939.47
560.30	42642.22
560.46	43318.64
560.63	43084.58
560.79	43477.79
560.96	43475.45
561.12	42965.21
561.29	43145.44
561.45	43470.77
561.61	42946.49
561.78	43517.58
561.94	43253.10
562.11	43313.95
562.27	43030.75
562.44	43517.58
562.60	43290.55
562.77	43758.66
562.93	43154.80
563.10	43494.18
563.26	43124.37
563.42	43512.90
563.59	43271.82
563.75	43285.87
563.92	43641.63
564.08	43784.40
564.24	44161.23
564.41	43803.13
564.57	43353.74
564.74	43384.17
564.90	43571.41
565.07	43562.05
565.23	43639.29
565.39	43863.98
565.56	43737.59
565.72	44004.41
565.88	43386.51
566.05	43543.33
566.21	43756.32
566.38	43580.78
566.54	43557.37
566.70	44428.05
566.87	44123.78
567.03	43608.86
567.19	44292.30
567.36	43789.08
567.52	43789.08
567.68	44245.49
567.85	43405.23
568.01	44238.47
568.17	43725.89
568.34	43562.05
568.50	44018.46
568.66	43856.96
568.83	43793.76
568.99	43667.37
569.15	43545.67
569.32	43751.63
569.48	44067.61
569.64	44147.18
569.81	44154.21
569.97	44102.71
570.13	43924.83
570.30	43906.11
570.46	43660.35
570.62	43452.05
570.78	44032.50
570.95	43438.00
571.11	43887.39
571.27	43669.72
571.43	43753.97
571.60	43959.94
571.76	43842.92
571.92	43866.32
572.09	43887.39
572.25	43494.18
572.41	44086.33
572.57	44240.81
572.74	43999.73
572.90	43976.33
573.06	43756.32
573.22	44156.55
573.38	43842.92
573.55	43828.87
573.71	44091.01
573.87	44067.61
574.03	44058.24
574.20	43973.98
574.36	44273.57
574.52	44215.06
574.68	44194.00
574.84	44039.52
575.01	44336.77
575.17	44072.29
575.33	43723.55
575.49	43768.02
575.65	44313.36
575.82	44282.94
575.98	44273.57
576.14	44231.44
576.30	44594.23
576.46	43997.39
576.62	44053.56
576.79	44165.91
576.95	43962.28
577.11	44294.64
577.27	44446.77
577.43	44093.35
577.59	44425.71
577.75	44353.15
577.92	43697.80
578.08	44135.48
578.24	43800.79
578.40	44137.82
578.56	43873.34
578.72	44144.84
578.88	44385.92
579.04	44594.23
579.21	44486.56
579.37	44296.98
579.53	44219.74
579.69	43908.45
579.85	43828.87
580.01	44769.77
580.17	44163.57
580.33	44432.73
580.49	44456.14
580.65	44470.18
580.82	44444.43
580.98	44261.87
581.14	43859.30
581.30	44528.69
581.46	43985.69
581.62	44275.91
581.78	44563.80
581.94	44573.16
582.10	44570.82
582.26	44257.19
582.42	44339.11
582.58	44409.32
582.74	44058.24
582.90	44203.36
583.06	44449.11
583.22	44369.54
583.38	44287.62
583.54	44364.85
583.70	44388.26
583.86	44435.07
584.02	43711.84
584.18	44442.09
584.34	44114.42
584.50	44301.66
584.66	44186.97
584.82	44240.81
584.98	44849.35
585.14	44629.34
585.30	43969.30
585.46	44612.95
585.62	44477.20
585.78	44531.03
585.94	43871.00
586.10	44313.36
586.26	44163.57
586.42	44229.10
586.58	44715.93
586.74	44165.91
586.90	43924.83
587.06	43658.01
587.22	44472.52
587.38	44009.09
587.54	43952.92
587.70	44093.35
587.86	44406.98
588.02	44524.01
588.18	44526.35
588.34	43943.56
588.49	43660.35
588.65	44069.95
588.81	44341.45
588.97	44109.74
589.13	44074.63
589.29	44474.86
589.45	44325.07
589.61	44488.90
589.77	44917.22
589.93	44643.38
590.08	44685.51
590.24	44334.43
590.40	44781.47
590.56	44280.60
590.72	44664.44
590.88	44575.50
591.04	44545.08
591.20	44856.37
591.35	44772.11
591.51	45076.38
591.67	45001.48
591.83	44659.76
591.99	45125.53
592.15	44811.90
592.31	44889.13
592.46	44495.92
592.62	44477.20
592.78	44715.93
592.94	44364.85
593.10	44772.11
593.26	44516.99
593.41	45048.29
593.57	44645.72
593.73	44245.49
593.89	44879.77
594.05	44858.71
594.20	44905.52
594.36	45165.32
594.52	44357.83
594.68	44498.26
594.84	44404.64
594.99	44837.64
595.15	44610.61
595.31	44919.56
595.47	44488.90
595.62	44615.29
595.78	45460.23
595.94	44725.30
596.10	44828.28
596.25	44807.22
596.41	44912.54
596.57	44636.36
596.73	44987.44
596.88	44584.86
597.04	44940.63
597.20	44896.16
597.36	44650.40
597.51	45127.87
597.67	45081.06
597.83	44889.13
597.99	44790.83
598.14	44839.98
598.30	44769.77
598.46	44280.60
598.61	44636.36
598.77	44423.37
598.93	44715.93
599.09	44868.07
599.24	45195.74
599.40	44971.05
599.56	44823.60
599.71	44587.21
599.87	45230.85
600.03	44818.92
600.18	44884.45
600.34	44753.38
600.50	44968.71
600.65	44318.04
600.81	44720.62
600.97	45270.64
601.12	44849.35
601.28	44924.24
601.44	44509.97
601.59	44271.23
601.75	44610.61
601.91	44605.93
602.06	44449.11
602.22	45085.74
602.37	44795.51
602.53	44718.28
602.69	44868.07
602.84	45017.86
603.00	44966.37
603.16	44804.88
603.31	44535.71
603.47	44481.88
603.62	44547.42
603.78	44821.26
603.94	44839.98
604.09	44872.75
604.25	44910.20
604.40	44919.56
604.56	44722.96
604.71	44879.77
604.87	44554.44
605.03	44442.09
605.18	44435.07
605.34	44999.14
605.49	44516.99
605.65	44463.16
605.80	44643.38
605.96	45022.54
606.12	44811.90
606.27	44926.58
606.43	44884.45
606.58	45111.49
606.74	44589.55
606.89	44549.76
607.05	44652.74
607.20	44509.97
607.36	44744.02
607.51	44638.70
607.67	44666.78
607.82	44631.68
607.98	44765.09
608.13	44514.65
608.29	44437.41
608.44	43821.85
608.60	43871.00
608.75	43983.35
608.91	44123.78
609.06	44121.44
609.22	44610.61
609.37	43800.79
609.53	44460.82
609.68	44151.87
609.84	44137.82
609.99	44189.31
610.15	43943.56
610.30	44266.55
610.46	43945.90
610.61	44306.34
610.76	43709.50
610.92	44601.25
611.07	44542.74
611.23	44353.15
611.38	44343.79
611.54	44072.29
611.69	44346.13
611.84	44086.33
612.00	44357.83
612.15	44083.99
612.31	44292.30
612.46	44142.50
612.62	43775.04
612.77	44091.01
612.92	44648.06
613.08	43775.04
613.23	44304.00
613.39	43608.86
613.54	43636.95
613.69	43552.69
613.85	43590.14
614.00	43482.47
614.15	43966.96
614.31	44086.33
614.46	44676.15
614.62	44172.93
614.77	43817.17
614.92	43765.68
615.08	43388.85
615.23	43737.59
615.38	43709.50
615.54	43414.60
615.69	43508.22
615.84	43288.21
616.00	43768.02
616.15	43796.10
616.30	43508.22
616.46	42927.77
616.61	43229.69
616.76	43433.32
616.92	42878.61
617.07	42904.36
617.22	42967.55
617.37	43227.35
617.53	43629.93
617.68	43133.73
617.83	43395.87
617.99	43416.94
618.14	43636.95
618.29	43040.11
618.45	43131.39
618.60	43105.65
618.75	43037.77
618.90	42768.61
619.06	43489.49
619.21	43227.35
619.36	43351.40
619.51	43016.71
619.67	43086.92
619.82	43611.20
619.97	43367.79
620.12	42630.52
620.28	43044.79
620.43	43070.54
620.58	42997.98
620.73	42546.26
620.89	42590.73
621.04	42447.96
621.19	42543.92
621.34	43122.03
621.49	42597.75
621.65	42677.33
621.80	42326.25
621.95	42731.16
622.10	42824.78
622.25	42017.30
622.41	42220.92
622.56	42506.47
622.71	43278.85
622.86	42471.36
623.01	42857.55
623.16	41888.57
623.32	42391.78
623.47	42808.40
623.62	42459.66
623.77	42471.36
623.92	42370.72
624.07	42141.35
624.23	42513.49
624.38	42185.82
624.53	42122.62
624.68	41970.49
624.83	42309.86
624.98	41661.54
625.13	42103.90
625.29	42752.23
625.44	42445.62
625.59	41785.58
625.74	41340.88
625.89	41883.89
626.04	41530.47
626.19	41769.20
626.34	42265.39
626.49	41778.56
626.65	41759.84
626.80	42337.95
626.95	41476.63
627.10	41640.47
627.25	41816.01
627.40	41546.85
627.55	41301.09
627.70	40968.74
627.85	41265.99
628.00	41375.99
628.15	41453.23
628.30	41244.92
628.45	41408.76
628.60	41603.02
628.76	41296.41
628.91	41354.93
629.06	41188.75
629.21	41539.83
629.36	41418.12
629.51	41111.51
629.66	41443.87
629.81	40811.92
629.96	40917.25
630.11	40954.69
630.26	41371.31
630.41	41413.44
630.56	41251.94
630.71	41200.45
630.86	41095.13
631.01	40837.67
631.16	40854.05
631.31	40758.09
631.46	40500.63
631.61	40837.67
631.76	41191.09
631.91	41125.55
632.06	40865.75
632.21	40844.69
632.36	40966.40
632.51	40559.14
632.66	40802.56
632.81	40533.40
632.96	40470.20
633.10	40589.57
633.25	40676.17
633.40	40683.19
633.55	40617.66
633.70	40627.02
633.85	40187.00
634.00	40418.71
634.15	40678.51
634.30	40509.99
634.45	40500.63
634.60	40224.45
634.75	40304.02
634.90	40912.56
635.05	39988.05
635.19	40350.84
635.34	40528.72
635.49	40208.06
635.64	40437.44
635.79	39681.44
635.94	40198.70
636.09	40205.72
636.24	40388.28
636.39	39941.24
636.53	39871.03
636.68	39732.93
636.83	39864.00
636.98	39821.87
637.13	39463.77
637.28	40006.78
637.43	40158.91
637.57	40027.84
637.72	40011.46
637.87	39948.26
638.02	39871.03
638.17	40076.99
638.32	39634.63
638.46	39545.69
638.61	39557.39
638.76	39599.52
638.91	39676.76
639.06	39349.09
639.20	39538.67
639.35	40327.43
639.50	39510.58
639.65	39854.64
639.80	39744.64
639.94	39503.56
640.09	39618.25
640.24	39503.56
640.39	39700.17
640.54	39196.95
640.68	39393.56
640.83	39571.44
640.98	39192.27
641.13	39515.26
641.27	39356.11
641.42	39187.59
641.57	39426.32
641.72	39491.86
641.86	38625.86
642.01	38714.80
642.16	38911.41
642.31	38700.76
642.45	39138.44
642.60	38855.23
642.75	38817.78
642.90	38768.63
643.04	39077.58
643.19	39033.11
643.34	38902.04
643.48	38724.16
643.63	39115.03
643.78	38164.78
643.93	38539.26
644.07	38455.00
644.22	38485.43
644.37	38691.40
644.51	38480.75
644.66	38948.85
644.81	38672.67
644.95	38838.85
645.10	38464.36
645.25	38920.77
645.39	38534.58
645.54	38920.77
645.69	38565.01
645.83	38686.71
645.98	38550.96
646.13	38560.33
646.27	38806.08
646.42	38455.00
646.57	38499.47
646.71	38417.55
646.86	38293.50
647.00	38794.38
647.15	38293.50
647.30	38583.73
647.44	37900.29
647.59	38483.09
647.74	37914.34
647.88	38363.72
648.03	38120.31
648.17	38087.54
648.32	37862.85
648.47	38146.05
648.61	37703.69
648.76	38115.62
648.90	38305.21
649.05	38230.31
649.20	38197.54
649.34	38078.18
649.49	37677.94
649.63	38459.68
649.78	37720.07
649.92	37544.53
650.07	38281.80
650.21	37673.26
650.36	38192.86
650.51	37811.35
650.65	38281.80
650.80	38302.87
650.94	37715.39
651.09	37823.06
651.23	37474.32
651.38	37970.51
651.52	37467.30
651.67	37401.76
651.81	37324.52
651.96	37904.98
652.10	37411.12
652.25	37553.90
652.39	37766.88
652.54	37607.73
652.68	37448.57
652.83	37600.71
652.97	37656.88
653.12	37319.84
653.26	37251.97
653.41	37530.49
653.55	37261.33
653.70	37350.27
653.84	37689.65
653.99	37179.41
654.13	36954.72
654.27	36835.35
654.42	36835.35
654.56	36921.95
654.71	37549.21
654.85	37102.17
655.00	36959.40
655.14	36634.06
655.29	36821.31
655.43	36882.16
655.57	36821.31
655.72	36385.97
655.86	36669.17
656.01	36732.37
656.15	36730.03
656.30	36608.32
656.44	36575.55
656.58	36371.92
656.73	36816.63
656.87	36685.56
657.01	36442.14
657.16	36573.21
657.30	36650.45
657.45	36105.10
657.59	36294.69
657.73	36062.97
657.88	36327.45
658.02	36428.10
658.16	36669.17
658.31	36559.17
658.45	36837.69
658.60	36240.86
658.74	36360.22
658.88	36350.86
659.03	35819.56
659.17	35842.96
659.31	35749.34
659.46	35955.31
659.60	35896.80
659.74	36130.85
659.89	35950.63
660.03	35985.74
660.17	36116.81
660.32	35665.08
660.46	36191.70
660.60	36240.86
660.74	35702.53
660.89	35899.14
661.03	35487.20
661.17	35225.06
661.32	35283.58
661.46	35421.67
661.60	35164.21
661.74	35491.88
661.89	35204.00
662.03	35360.81
662.17	35058.88
662.31	35091.65
662.46	35620.61
662.60	35344.43
662.74	35377.20
662.88	35030.80
663.03	34796.74
663.17	34960.58
663.31	34623.54
663.45	34700.78
663.60	34696.10
663.74	34583.76
663.88	34632.91
664.02	34609.50
664.17	34686.74
664.31	34492.47
664.45	34361.40
664.59	34457.37
664.73	34319.28
664.88	34279.49
665.02	34181.18
665.16	34022.03
665.30	34319.28
665.44	33982.24
665.59	33968.19
665.73	33926.07
665.87	33783.29
666.01	33923.72
666.15	34141.39
666.29	33823.08
666.44	33834.78
666.58	33598.39
666.72	33542.22
666.86	33680.31
667.00	33902.66
667.14	33301.14
667.28	33813.72
667.43	33399.44
667.57	33780.95
667.71	33511.79
667.85	33380.72
667.99	33188.80
668.13	32856.44
668.27	33259.01
668.41	33083.47
668.56	33198.16
668.70	33172.41
668.84	32854.10
668.98	32898.57
669.12	32334.50
669.26	32786.22
669.40	32985.17
669.54	32978.15
669.68	32329.82
669.82	32636.43
669.96	32210.45
670.10	32177.68
670.25	32467.91
670.39	32151.94
670.53	32032.57
670.67	31960.02
670.81	32325.14
670.95	32156.62
671.09	31868.73
671.23	32261.94
671.37	32060.66
671.51	31637.02
671.65	32077.04
671.79	31138.49
671.93	31702.56
672.07	31866.39
672.21	32018.53
672.35	31552.76
672.49	31512.97
672.63	31557.44
672.77	31255.51
672.91	31009.76
673.05	31536.38
673.19	31173.60
673.33	31381.90
673.47	30918.48
673.61	30759.32
673.75	30801.45
673.89	30377.81
674.03	30199.93
674.17	30635.27
674.31	30984.01
674.45	30377.81
674.59	30520.59
674.73	30768.68
674.87	30197.59
675.01	30541.65
675.15	30405.90
675.29	30057.16
675.43	30209.29
675.56	30064.18
675.70	29912.05
675.84	30106.31
675.98	28905.62
676.12	30089.93
676.26	29647.57
676.40	29617.14
676.54	29605.44
676.68	29261.38
676.82	29092.86
676.96	29546.92
677.10	29205.20
677.23	29137.33
677.37	29399.47
677.51	28982.85
677.65	28856.46
677.79	28589.64
677.93	28849.44
678.07	28662.20
678.21	28257.29
678.34	28142.60
678.48	28177.71
678.62	27969.40
678.76	28121.54
678.90	27875.78
679.04	27768.12
679.18	27938.97
679.31	27817.27
679.45	27538.74
679.59	27274.26
679.73	27353.84
679.87	27182.98
680.00	26977.01
680.14	27178.30
680.28	27417.04
680.42	27185.32
680.56	27393.63
680.70	26717.22
680.83	27269.58
680.97	27133.83
681.11	26656.36
681.25	26536.99
681.39	26572.10
681.52	26792.11
681.66	26434.01
681.80	26558.06
681.94	26359.11
682.07	26092.29
682.21	25972.92
682.35	26134.42
682.49	26256.13
682.62	25954.20
682.76	25399.49
682.90	25949.52
683.04	25710.78
683.17	25326.94
683.31	25118.63
683.45	25450.99
683.59	25013.31
683.72	24748.82
683.86	25078.84
684.00	25046.07
684.13	24718.40
684.27	24790.95
684.41	24657.54
684.55	24709.04
684.68	24496.05
684.82	24348.59
684.96	24503.07
685.09	24018.58
685.23	24208.16
685.37	24226.89
685.50	24140.29
685.64	24273.70
685.78	24070.07
685.91	23894.53
686.05	23931.98
686.19	23707.29
686.32	23372.59
686.46	23131.51
686.60	22948.95
686.73	22991.08
686.87	22995.76
687.01	22988.74
687.14	23264.92
687.28	22663.41
687.42	23019.17
687.55	22539.36
687.69	22759.37
687.82	22794.48
687.96	22644.68
688.10	22644.68
688.23	22565.10
688.37	22293.60
688.50	21942.52
688.64	22136.79
688.78	22010.40
688.91	21745.92
689.05	21940.18
689.18	21989.33
689.32	21907.41
689.46	21322.28
689.59	21778.68
689.73	21617.19
689.86	21645.27
690.00	21355.05
690.13	21291.85
690.27	21469.73
690.41	21067.16
690.54	20891.62
690.68	20886.94
690.81	20856.51
690.95	20805.02
691.08	21064.82
691.22	20971.20
691.35	20540.54
691.49	20692.68
691.62	20734.81
691.76	20631.82
691.89	20407.13
692.03	20243.29
692.16	20222.23
692.30	20367.34
692.43	19924.98
692.57	19852.42
692.70	19857.10
692.84	19772.85
692.97	19637.09
693.11	19482.62
693.24	19693.27
693.38	19391.34
693.51	19192.39
693.65	19459.21
693.78	19246.23
693.92	19168.99
694.05	19372.61
694.19	19171.33
694.32	19019.19
694.45	18754.71
694.59	18630.66
694.72	18506.62
694.86	18476.19
694.99	18651.73
695.13	18438.74
695.26	18354.48
695.39	18340.44
695.53	18319.37
695.66	18195.32
695.80	18377.89
695.93	18497.25
696.07	17818.50
696.20	17947.23
696.33	17839.56
696.47	17633.60
696.60	17598.49
696.73	17561.04
696.87	17537.63
697.00	17287.20
697.14	17425.29
697.27	17509.55
697.40	17415.93
697.54	17282.52
697.67	17097.61
697.80	17083.57
697.94	17064.85
698.07	16631.85
698.21	16453.97
698.34	16645.89
698.47	16559.29
698.61	16329.92
698.74	16521.84
698.87	16402.47
699.01	16231.62
699.14	16004.58
699.27	16042.03
699.40	16173.10
699.54	16002.24
699.67	15594.99
699.80	15845.43
699.94	16025.65
700.07	15775.21
700.20	15398.38
700.34	15658.18
700.47	15669.89
700.60	15702.65
700.73	15896.92
700.87	15662.86
701.00	15180.71
701.13	15283.70
701.26	14916.23
701.40	15190.08
701.53	15211.14
701.66	15227.53
701.79	14949.00
701.93	15030.92
702.06	14920.92
702.19	14740.69
702.32	14567.49
702.46	14431.74
702.59	14492.60
702.72	14572.18
702.85	14579.20
702.99	14574.52
703.12	14291.31
703.25	13998.74
703.38	13973.00
703.51	13909.80
703.65	13994.06
703.78	14005.77
703.91	14026.83
704.04	13930.87
704.17	13961.30
704.31	13933.21
704.44	13497.87
704.57	13607.87
704.70	13481.49
704.83	13394.89
704.96	13540.00
705.10	13310.63
705.23	13331.69
>>>>>End Processed Spectral Data<<<<<
