SpectraSuite Data File
++++++++++++++++++++++++++++++++++++
Date: Fri Oct 25 10:44:03 EDT 2013
User: price-jones
Dark Spectrum Present: No
Reference Spectrum Present: No
Number of Sampled Component Spectra: 1
Spectrometers: USB2+H05261
Integration Time (usec): 100000 (USB2+H05261)
Spectra Averaged: 1 (USB2+H05261)
Boxcar Smoothing: 0 (USB2+H05261)
Correct for Electrical Dark: No (USB2+H05261)
Strobe/Lamp Enabled: No (USB2+H05261)
Correct for Detector Non-linearity: No (USB2+H05261)
Correct for Stray Light: No (USB2+H05261)
Number of Pixels in Processed Spectrum: 2048
>>>>>Begin Processed Spectral Data<<<<<
365.73	121.71
365.92	121.71
366.12	121.71
366.32	16.38
366.52	98.30
366.72	35.11
366.91	25.75
367.11	37.45
367.31	0.00
367.51	42.13
367.70	0.00
367.90	98.30
368.10	39.79
368.30	2.34
368.49	0.00
368.69	84.26
368.89	65.54
369.09	86.60
369.28	86.60
369.48	95.96
369.68	67.88
369.87	42.13
370.07	65.54
370.27	138.09
370.47	203.63
370.66	418.96
370.86	461.09
371.06	456.40
371.25	484.49
371.45	498.53
371.65	461.09
371.84	418.96
372.04	489.17
372.24	491.51
372.44	477.47
372.63	554.71
372.83	456.40
373.03	521.94
373.22	524.28
373.42	458.74
373.62	554.71
373.81	566.41
374.01	610.88
374.21	585.13
374.40	596.84
374.60	582.79
374.79	564.07
374.99	571.09
375.19	601.52
375.38	580.45
375.58	641.31
375.78	596.84
375.97	603.86
376.17	594.50
376.37	634.29
376.56	655.35
376.76	594.50
376.95	582.79
377.15	655.35
377.35	648.33
377.54	636.63
377.74	674.07
377.93	657.69
378.13	671.73
378.33	685.78
378.52	676.41
378.72	690.46
378.91	678.76
379.11	667.05
379.31	648.33
379.50	636.63
379.70	636.63
379.89	772.38
380.09	704.50
380.28	739.61
380.48	706.84
380.68	706.84
380.87	746.63
381.07	734.93
381.26	772.38
381.46	746.63
381.65	734.93
381.85	669.39
382.04	702.16
382.24	755.99
382.43	793.44
382.63	753.65
382.83	725.57
383.02	767.70
383.22	791.10
383.41	711.52
383.61	751.31
383.80	866.00
384.00	807.48
384.19	812.17
384.39	713.86
384.58	807.48
384.78	880.04
384.97	861.32
385.17	898.77
385.36	926.85
385.56	875.36
385.75	858.98
385.95	842.59
386.14	861.32
386.34	791.10
386.53	802.80
386.72	985.37
386.92	884.72
387.11	870.68
387.31	889.40
387.50	866.00
387.70	868.34
387.89	842.59
388.09	866.00
388.28	903.45
388.48	905.79
388.67	1025.15
388.86	1048.56
389.06	933.87
389.25	1025.15
389.45	978.34
389.64	987.71
389.84	1083.67
390.03	1078.99
390.22	1036.86
390.42	992.39
390.61	1100.05
390.81	1055.58
391.00	1130.48
391.19	1130.48
391.39	1144.52
391.58	1057.92
391.78	1062.60
391.97	1135.16
392.16	1102.39
392.36	1064.94
392.55	1067.28
392.75	1097.71
392.94	931.53
393.13	985.37
393.33	1032.18
393.52	1135.16
393.71	1090.69
393.91	1125.80
394.10	1153.88
394.29	1139.84
394.49	1247.51
394.68	1266.23
394.88	1221.76
395.07	1317.72
395.26	1348.15
395.46	1306.02
395.65	1268.57
395.84	1275.59
396.04	1224.10
396.23	1231.12
396.42	1111.75
396.62	1179.63
396.81	1261.55
397.00	1188.99
397.19	1362.19
397.39	1296.66
397.58	1451.13
397.77	1430.07
397.97	1479.22
398.16	1451.13
398.35	1467.52
398.55	1565.82
398.74	1568.16
398.93	1629.01
399.12	1645.40
399.32	1706.25
399.51	1664.12
399.70	1631.35
399.90	1701.57
400.09	1748.38
400.28	1699.23
400.47	1624.33
400.67	1720.29
400.86	1764.76
401.05	1727.32
401.24	1853.70
401.44	1732.00
401.63	1837.32
401.82	1858.39
402.01	1900.52
402.21	1898.17
402.40	1816.26
402.59	1865.41
402.78	1926.26
402.97	1778.81
403.17	1872.43
403.36	2005.84
403.55	1825.62
403.74	1975.41
403.93	1900.52
404.13	1914.56
404.32	1914.56
404.51	2005.84
404.70	1907.54
404.89	1959.03
405.09	2157.97
405.28	2001.16
405.47	2064.35
405.66	2078.40
405.85	2186.06
406.05	2019.88
406.24	2108.82
406.43	2066.69
406.62	2324.15
406.81	2197.76
407.00	2270.32
407.20	2078.40
407.39	2207.13
407.58	2345.22
407.77	2277.34
407.96	2342.88
408.15	2431.82
408.34	2314.79
408.54	2420.11
408.73	2534.80
408.92	2434.16
409.11	2452.88
409.30	2424.80
409.49	2403.73
409.68	2368.62
409.87	2328.83
410.07	2457.56
410.26	2478.63
410.45	2523.10
410.64	2448.20
410.83	2602.68
411.02	2661.19
411.21	2820.35
411.40	2672.89
411.59	2773.53
411.78	2792.26
411.98	2703.32
412.17	2864.82
412.36	2679.91
412.55	2832.05
412.74	2843.75
412.93	2937.37
413.12	2839.07
413.31	3122.27
413.50	3056.74
413.69	2923.33
413.88	2986.52
414.07	3000.57
414.26	3075.46
414.45	3030.99
414.64	3091.85
414.83	3197.17
415.02	3148.02
415.22	3311.86
415.41	3220.58
415.60	3243.98
415.79	3276.75
415.98	3412.50
416.17	3403.14
416.36	3459.31
416.55	3323.56
416.74	3225.26
416.93	3475.70
417.12	3454.63
417.31	3356.33
417.50	3365.69
417.69	3630.17
417.88	3665.28
418.07	3545.91
418.26	3700.39
418.45	3574.00
418.64	3728.47
418.83	3740.18
419.02	3805.71
419.21	3791.67
419.39	3747.20
419.58	3688.68
419.77	3688.68
419.96	3885.29
420.15	3899.33
420.34	3824.44
420.53	3906.35
420.72	4093.60
420.91	3932.10
421.10	3824.44
421.29	3929.76
421.48	4079.55
421.67	4007.00
421.86	4004.66
422.05	3990.61
422.24	3857.20
422.43	3960.19
422.61	3988.27
422.80	4124.02
422.99	4032.74
423.18	4163.81
423.37	4086.58
423.56	4219.99
423.75	4208.28
423.94	4152.11
424.13	3700.39
424.32	3906.35
424.50	4142.75
424.69	4264.46
424.88	4301.90
425.07	4194.24
425.26	4077.21
425.45	4135.73
425.64	4149.77
425.83	4205.94
426.01	4173.18
426.20	4147.43
426.39	4175.52
426.58	4093.60
426.77	4227.01
426.96	4133.39
427.15	4114.66
427.33	4280.84
427.52	4208.28
427.71	4257.43
427.90	4276.16
428.09	4355.74
428.28	4285.52
428.46	4341.69
428.65	4454.04
428.84	4440.00
429.03	4510.21
429.22	4353.40
429.40	4266.80
429.59	4287.86
429.78	4021.04
429.97	4159.13
430.16	4219.99
430.34	4252.75
430.53	4353.40
430.72	4400.21
430.91	4437.66
431.10	4285.52
431.28	4683.41
431.47	4706.82
431.66	4985.34
431.85	4571.07
432.03	4765.33
432.22	4968.96
432.41	4865.97
432.60	4997.04
432.79	4683.41
432.97	5067.26
433.16	4805.12
433.35	4896.40
433.54	4854.27
433.72	4774.69
433.91	4863.63
434.10	4915.12
434.28	5036.83
434.47	5008.75
434.66	5247.48
434.85	5144.50
435.03	5235.78
435.22	5093.01
435.41	5263.86
435.59	5348.12
435.78	5322.38
435.97	5303.65
436.16	5245.14
436.34	5277.91
436.53	5444.09
436.72	5526.00
436.90	5277.91
437.09	5317.70
437.28	5294.29
437.46	5371.53
437.65	5425.36
437.84	5411.32
438.02	5488.56
438.21	5383.23
438.40	5425.36
438.58	5631.33
438.77	5715.59
438.96	5600.90
439.14	5764.74
439.33	5954.32
439.52	5774.10
439.70	5851.34
439.89	6036.24
440.08	5921.56
440.26	5982.41
440.45	6153.27
440.63	6108.80
440.82	6345.19
441.01	6183.70
441.19	6202.42
441.38	6441.15
441.57	6359.24
441.75	6462.22
441.94	6614.35
442.12	6665.85
442.31	6555.84
442.50	6649.46
442.68	6637.76
442.87	6487.96
443.05	6754.79
443.24	6773.51
443.43	6792.23
443.61	6740.74
443.80	6977.14
443.98	6689.25
444.17	6448.18
444.35	6670.53
444.54	7030.97
444.73	6810.96
444.91	6839.05
445.10	6789.89
445.28	6738.40
445.47	6747.76
445.65	6619.04
445.84	6817.98
446.02	6820.32
446.21	6759.47
446.39	6902.24
446.58	7171.40
446.77	6949.05
446.95	6881.18
447.14	6897.56
447.32	6965.43
447.51	6911.60
447.69	6993.52
447.88	7166.72
448.06	7059.06
448.25	6967.77
448.43	7047.35
448.62	7192.47
448.80	7045.01
448.99	7194.81
449.17	7173.74
449.36	7283.75
449.54	7131.61
449.73	7375.03
449.91	7496.74
450.10	7513.12
450.28	7510.78
450.46	7435.88
450.65	7644.19
450.83	7452.27
451.02	7438.22
451.20	7576.31
451.39	7810.37
451.57	7473.33
451.76	7344.60
451.94	7562.27
452.13	7590.36
452.31	7496.74
452.49	7344.60
452.68	7662.91
452.86	7599.72
453.05	7529.50
453.23	7641.85
453.42	7508.44
453.60	7721.43
453.78	7681.64
453.97	7693.34
454.15	7676.96
454.34	7569.29
454.52	7915.69
454.70	7850.16
454.89	7878.24
455.07	8102.93
455.26	8006.97
455.44	8203.58
455.62	8091.23
455.81	8152.09
455.99	8138.04
456.17	8159.11
456.36	8285.50
456.54	8212.94
456.73	8229.32
456.91	8308.90
457.09	8596.79
457.28	8713.81
457.46	8437.63
457.64	8353.37
457.83	8456.36
458.01	8454.02
458.19	8657.64
458.38	8514.87
458.56	8549.98
458.74	8475.08
458.93	8690.41
459.11	8772.33
459.29	8472.74
459.48	8781.69
459.66	8615.51
459.84	8879.99
460.03	8933.82
460.21	8884.67
460.39	8844.88
460.57	9081.28
460.76	9092.98
460.94	9053.19
461.12	8999.36
461.31	9226.39
461.49	8978.30
461.67	9069.58
461.85	9320.01
462.04	9294.27
462.22	9748.33
462.40	9266.18
462.59	9516.62
462.77	9270.86
462.95	9259.16
463.13	9200.65
463.32	9296.61
463.50	9322.35
463.68	9228.73
463.86	9404.27
464.05	9256.82
464.23	9331.72
464.41	9614.92
464.59	9231.07
464.78	9490.87
464.96	9647.69
465.14	9542.36
465.32	9579.81
465.50	9537.68
465.69	9692.16
465.87	9575.13
466.05	9638.33
466.23	9631.30
466.41	9692.16
466.60	9987.07
466.78	9507.26
466.96	9556.41
467.14	9799.82
467.32	9776.42
467.51	9851.31
467.69	9891.10
467.87	9879.40
468.05	9846.63
468.23	9856.00
468.41	9797.48
468.60	9774.08
468.78	10120.48
468.96	9926.21
469.14	10209.42
469.32	10139.20
469.50	9881.74
469.69	10101.75
469.87	10059.62
470.05	10171.97
470.23	10256.23
470.41	10251.55
470.59	10485.60
470.77	10272.61
470.95	10377.94
471.14	10527.73
471.32	10225.80
471.50	10583.90
471.68	10544.11
471.86	10876.47
472.04	10773.49
472.22	11150.31
472.40	10757.10
472.58	10717.31
472.77	10913.92
472.95	11019.24
473.13	11337.56
473.31	11021.58
473.49	10850.72
473.67	11052.01
473.85	11061.37
474.03	11496.71
474.21	11342.24
474.39	11421.81
474.57	11580.97
474.75	11620.76
474.93	11761.19
475.12	11679.27
475.30	11775.24
475.48	11852.47
475.66	11754.17
475.84	11578.63
476.02	11934.39
476.20	11808.00
476.38	12259.73
476.56	12222.28
476.74	12114.61
476.92	12259.73
477.10	12414.20
477.28	12549.95
477.46	12676.34
477.64	12854.22
477.82	12922.10
478.00	13193.60
478.18	13036.78
478.36	12952.52
478.54	13191.26
478.72	13465.10
478.90	13355.10
479.08	13907.46
479.26	13781.07
479.44	13760.01
479.62	13914.48
479.80	13837.25
479.98	13682.77
480.16	14073.64
480.34	14094.71
480.52	14167.26
480.70	14420.04
480.88	14256.20
481.06	14544.09
481.24	14466.85
481.41	14944.32
481.59	14897.51
481.77	15178.37
481.95	14918.57
482.13	15482.64
482.31	15300.08
482.49	15641.80
482.67	15501.37
482.85	15669.89
483.03	15985.86
483.21	15857.13
483.39	15906.28
483.57	15800.96
483.74	16191.83
483.92	16093.52
484.10	16245.66
484.28	16531.20
484.46	16891.65
484.64	16924.41
484.82	16627.17
485.00	16758.24
485.18	17139.74
485.35	16989.95
485.53	16681.00
485.71	16620.14
485.89	16821.43
486.07	17062.51
486.25	17453.37
486.43	17715.51
486.61	17586.79
486.78	17942.55
486.96	17989.36
487.14	18368.52
487.32	18586.19
487.50	18743.01
487.68	18831.95
487.85	19154.94
488.03	19131.54
488.21	19288.35
488.39	18944.30
488.57	19475.60
488.75	19580.92
488.92	19726.04
489.10	19908.60
489.28	20285.42
489.46	20491.39
489.64	20482.03
489.81	21146.74
489.99	20936.09
490.17	21109.29
490.35	21397.18
490.53	20996.95
490.70	21331.64
490.88	21362.07
491.06	21720.17
491.24	21710.81
491.41	21790.39
491.59	21631.23
491.77	21235.68
491.95	21811.45
492.13	22431.69
492.30	22319.35
492.48	22228.07
492.66	22717.24
492.84	22778.09
493.01	22993.42
493.19	22794.48
493.37	23075.34
493.54	23278.97
493.72	23576.22
493.90	23456.85
494.08	23599.62
494.25	23896.87
494.43	24269.01
494.61	24634.14
494.79	24421.15
494.96	24388.38
495.14	24233.91
495.32	24496.05
495.49	24652.86
495.67	24528.81
495.85	24936.07
496.02	25195.87
496.20	25434.60
496.38	25247.36
496.55	25495.46
496.73	25537.59
496.91	25724.83
497.09	25930.80
497.26	26045.48
497.44	26036.12
497.62	26195.28
497.79	26595.51
497.97	25748.23
498.14	26300.60
498.32	26274.85
498.50	26541.68
498.67	27026.17
498.85	26913.82
499.03	27534.06
499.20	27328.10
499.38	27517.68
499.56	27311.71
499.73	27452.14
499.91	27475.55
500.08	27632.36
500.26	27227.45
500.44	27744.71
500.61	27772.80
500.79	27255.54
500.97	27927.27
501.14	28493.68
501.32	28257.29
501.49	27957.70
501.67	28034.94
501.84	28577.94
502.02	28643.48
502.20	28711.35
502.37	29120.95
502.55	28905.62
502.72	29015.62
502.90	29134.99
503.07	29151.37
503.25	28985.19
503.43	29123.29
503.60	29172.44
503.78	29134.99
503.95	29259.04
504.13	29565.65
504.30	29668.63
504.48	29816.08
504.65	29989.28
504.83	30087.59
505.01	30204.61
505.18	30459.73
505.36	30429.30
505.53	30326.32
505.71	31012.10
505.88	31246.15
506.06	30356.75
506.23	30670.38
506.41	30455.05
506.58	30934.86
506.76	31065.93
506.93	30916.14
507.11	31051.89
507.28	30815.49
507.46	31229.77
507.63	31412.33
507.81	30991.03
507.98	30988.69
508.16	31335.09
508.33	31276.58
508.50	31693.19
508.68	32102.79
508.85	32112.15
509.03	32123.85
509.20	32046.62
509.38	32107.47
509.55	32156.62
509.73	32011.51
509.90	32357.91
510.08	32385.99
510.25	32582.60
510.42	32840.06
510.60	33081.13
510.77	32954.74
510.95	33390.08
511.12	32802.61
511.30	33366.68
511.47	33535.20
511.64	33308.16
511.82	33713.08
511.99	33034.32
512.17	33984.58
512.34	33504.77
512.51	33652.22
512.69	34157.78
512.86	33710.74
513.04	33790.31
513.21	33584.35
513.38	33706.05
513.56	33675.63
513.73	34024.37
513.90	34330.98
514.08	34146.08
514.25	34487.79
514.43	34019.69
514.60	34483.11
514.77	34387.15
514.95	34560.35
515.12	34778.02
515.29	34909.09
515.47	35412.31
515.64	35159.53
515.81	34852.92
515.99	35290.60
516.16	34256.08
516.33	34747.59
516.51	34824.83
516.68	34412.90
516.85	34291.19
517.03	34525.24
517.20	34913.77
517.37	34962.92
517.54	35606.57
517.72	35110.38
517.89	35194.64
518.06	34948.88
518.24	34972.28
518.41	35192.30
518.58	35665.08
518.75	35536.35
518.93	35995.10
519.10	36161.28
519.27	36292.35
519.45	36196.38
519.62	36367.24
519.79	36294.69
519.96	36467.89
520.14	37069.40
520.31	36477.25
520.48	36519.38
520.65	36437.46
520.83	37141.96
521.00	37076.43
521.17	37038.98
521.34	37158.34
521.52	37359.63
521.69	37326.86
521.86	37773.91
522.03	37373.67
522.20	36921.95
522.38	37523.47
522.55	37193.45
522.72	37212.18
522.89	37638.15
523.07	37848.80
523.24	37757.52
523.41	38047.75
523.58	37703.69
523.75	38836.51
523.92	38323.93
524.10	38218.61
524.27	38646.93
524.44	38101.58
524.61	38899.70
524.78	38410.53
524.96	39019.07
525.13	39063.54
525.30	39070.56
525.47	39297.59
525.64	38937.15
525.81	38780.34
525.98	38623.52
526.16	38380.10
526.33	38206.90
526.50	38724.16
526.67	38527.56
526.84	38660.97
527.01	38504.15
527.18	39161.84
527.36	39356.11
527.53	39510.58
527.70	39627.61
527.87	39526.97
528.04	39948.26
528.21	39318.66
528.38	39667.40
528.55	39917.84
528.72	39838.26
528.89	40191.68
529.07	39899.11
529.24	39920.18
529.41	40233.81
529.58	39924.86
529.75	40020.82
529.92	40210.40
530.09	40463.18
530.26	40254.87
530.43	40112.10
530.60	40355.52
530.77	40708.94
530.94	41092.79
531.11	40549.78
531.28	40481.91
531.46	40938.31
531.63	40779.15
531.80	40577.87
531.97	40744.05
532.14	40514.67
532.31	40287.64
532.48	40678.51
532.65	40547.44
532.82	40961.72
532.99	40781.49
533.16	40884.48
533.33	41329.18
533.50	41537.49
533.67	41249.60
533.84	41076.40
534.01	41237.90
534.18	41708.35
534.35	41518.76
534.52	41518.76
534.69	41668.56
534.86	41560.89
535.03	41841.76
535.20	41986.87
535.37	41839.42
535.54	42462.00
535.71	41684.94
535.88	42202.20
536.05	42005.59
536.22	42099.22
536.38	41614.72
536.55	41549.19
536.72	42066.45
536.89	41717.71
537.06	41876.86
537.23	42078.15
537.40	42139.00
537.57	42532.22
537.74	42143.69
537.91	42724.14
538.08	42714.78
538.25	42380.08
538.42	42078.15
538.59	42462.00
538.75	42363.70
538.92	42307.52
539.09	42506.47
539.26	42642.22
539.43	42223.26
539.60	42628.18
539.77	42366.04
539.94	42696.05
540.11	42419.87
540.28	42770.95
540.44	42309.86
540.61	42761.59
540.78	42621.16
540.95	42401.14
541.12	42721.80
541.29	42876.27
541.46	43147.78
541.62	42883.30
541.79	43215.65
541.96	42958.19
542.13	42948.83
542.30	43023.73
542.47	43856.96
542.63	43339.70
542.80	43075.22
542.97	43442.68
543.14	43978.67
543.31	43737.59
543.48	43821.85
543.64	43842.92
543.81	44048.88
543.98	44114.42
544.15	44060.58
544.32	44306.34
544.48	44697.21
544.65	44128.46
544.82	43845.26
544.99	44128.46
545.16	44044.20
545.32	43875.68
545.49	44528.69
545.66	44165.91
545.83	45083.40
546.00	44837.64
546.16	44301.66
546.33	44126.12
546.50	43988.03
546.67	44088.67
546.83	43924.83
547.00	44404.64
547.17	44098.03
547.34	44285.28
547.50	44617.63
547.67	44769.77
547.84	44240.81
548.00	44814.24
548.17	45003.82
548.34	45146.59
548.51	44975.73
548.67	45062.33
548.84	44907.86
549.01	44942.97
549.18	45226.17
549.34	45081.06
549.51	45237.87
549.68	44996.80
549.84	44788.49
550.01	45478.95
550.18	45003.82
550.34	45221.49
550.51	44582.52
550.68	44954.67
550.84	44545.08
551.01	45432.14
551.18	45186.38
551.34	45553.85
551.51	45464.91
551.68	45174.68
551.84	45549.17
552.01	45174.68
552.18	45481.29
552.34	44718.28
552.51	45200.43
552.68	45181.70
552.84	45759.81
553.01	45560.87
553.18	45270.64
553.34	45535.12
553.51	44949.99
553.67	45666.19
553.84	46047.70
554.01	45968.12
554.17	45872.16
554.34	45647.47
554.51	45619.38
554.67	46256.01
554.84	45977.48
555.00	45600.66
555.17	45750.45
555.33	46108.55
555.50	45925.99
555.67	45708.32
555.83	45663.85
556.00	45958.76
556.16	46412.82
556.33	45537.46
556.50	45975.14
556.66	45961.10
556.83	45713.00
556.99	46136.64
557.16	46094.51
557.32	46286.43
557.49	46265.37
557.65	45741.09
557.82	46335.59
557.98	46319.20
558.15	46127.28
558.32	46195.15
558.48	45813.65
558.65	45841.73
558.81	45797.26
558.98	46014.93
559.14	46527.51
559.31	46211.54
559.47	46520.49
559.64	46375.37
559.80	46005.57
559.97	46375.37
560.13	46068.76
560.30	46146.00
560.46	45944.72
560.63	46230.26
560.79	46829.44
560.96	46546.23
561.12	46990.94
561.29	46396.44
561.45	45996.21
561.61	46836.46
561.78	46473.68
561.94	46059.40
562.11	46295.80
562.27	46387.08
562.44	46555.60
562.60	46742.84
562.77	46412.82
562.93	46569.64
563.10	46658.58
563.26	46469.00
563.42	46487.72
563.59	46478.36
563.75	46373.03
563.92	46885.61
564.08	47030.72
564.24	46974.55
564.41	46471.34
564.57	46784.97
564.74	46859.87
564.90	46761.56
565.07	46721.77
565.23	46588.36
565.39	46464.32
565.56	46466.66
565.72	46747.52
565.88	46375.37
566.05	46529.85
566.21	46557.94
566.38	46775.61
566.54	46508.79
566.70	46817.74
566.87	47096.26
567.03	46583.68
567.19	47112.64
567.36	47117.32
567.52	46878.59
567.68	47281.16
567.85	46962.85
568.01	47009.66
568.17	46913.70
568.34	46941.78
568.50	46595.38
568.66	46850.50
568.83	46616.45
568.99	46546.23
569.15	46829.44
569.32	46431.55
569.48	47000.30
569.64	46735.82
569.81	47002.64
569.97	46777.95
570.13	47054.13
570.30	46609.43
570.46	46742.84
570.62	46377.72
570.78	46841.14
570.95	46876.25
571.11	46714.75
571.27	46988.60
571.43	46476.02
571.60	46653.90
571.76	46738.16
571.92	47107.96
572.09	46876.25
572.25	46602.41
572.41	46974.55
572.57	46946.47
572.74	47232.01
572.90	46873.91
573.06	47175.84
573.22	47201.58
573.38	47264.78
573.55	46995.62
573.71	47086.90
573.87	47210.95
574.03	46532.19
574.20	46913.70
574.36	47203.92
574.52	46815.40
574.68	47168.82
574.84	46883.27
575.01	47264.78
575.17	46923.06
575.33	46962.85
575.49	46681.98
575.65	47454.36
575.82	47114.98
575.98	46852.84
576.14	47386.49
576.30	47363.08
576.46	47173.50
576.62	46923.06
576.79	46892.63
576.95	46878.59
577.11	46939.44
577.27	47180.52
577.43	47250.74
577.59	47110.30
577.75	46546.23
577.92	46373.03
578.08	46916.04
578.24	46754.54
578.40	46824.76
578.56	47449.68
578.72	47264.78
578.88	47531.60
579.04	47220.31
579.21	46869.23
579.37	46995.62
579.53	47065.83
579.69	46731.14
579.85	46920.72
580.01	47145.41
580.17	47152.43
580.33	47105.62
580.49	47203.92
580.65	47229.67
580.82	47147.75
580.98	46827.10
581.14	46799.01
581.30	47199.24
581.46	47208.61
581.62	47416.91
581.78	47269.46
581.94	47545.64
582.10	46906.68
582.26	47072.85
582.42	47185.20
582.58	47143.07
582.74	47229.67
582.90	47344.36
583.06	47402.87
583.22	47182.86
583.38	47398.19
583.54	47445.00
583.70	47339.68
583.86	47276.48
584.02	47147.75
584.18	47147.75
584.34	46841.14
584.50	47063.49
584.66	47206.26
584.82	47051.79
584.98	47569.05
585.14	47248.39
585.30	47058.81
585.46	47318.61
585.62	46909.02
585.78	47323.29
585.94	46714.75
586.10	47580.75
586.26	46965.19
586.42	47302.23
586.58	47320.95
586.74	47704.80
586.90	47166.48
587.06	46955.83
587.22	46920.72
587.38	46803.69
587.54	47157.11
587.70	47447.34
587.86	47519.90
588.02	46784.97
588.18	46925.40
588.34	46707.73
588.49	46806.03
588.65	46609.43
588.81	46305.16
588.97	46817.74
589.13	46564.96
589.29	46478.36
589.45	46962.85
589.61	46731.14
589.77	47337.33
589.93	46834.12
590.08	47491.81
590.24	47325.63
590.40	47463.72
590.56	47353.72
590.72	47372.44
590.88	47210.95
591.04	47133.71
591.20	47508.19
591.35	47533.94
591.51	47421.59
591.67	47199.24
591.83	47255.42
591.99	47260.10
592.15	47054.13
592.31	47753.95
592.46	47047.11
592.62	47461.38
592.78	47281.16
592.94	47489.47
593.10	47323.29
593.26	47468.40
593.41	47379.46
593.57	47199.24
593.73	46981.57
593.89	47140.73
594.05	47107.96
594.20	47253.08
594.36	47260.10
594.52	47246.05
594.68	47026.04
594.84	47215.63
594.99	47566.71
595.15	47192.22
595.31	47304.57
595.47	47412.23
595.62	47356.06
595.78	47257.76
595.94	47632.24
596.10	47576.07
596.25	47840.55
596.41	47606.50
596.57	47463.72
596.73	47255.42
596.88	46955.83
597.04	47215.63
597.20	47203.92
597.36	47194.56
597.51	47346.70
597.67	47267.12
597.83	47428.62
597.99	47676.71
598.14	47175.84
598.30	47299.89
598.46	47330.31
598.61	47494.15
598.77	47000.30
598.93	47234.35
599.09	47753.95
599.24	47852.25
599.40	47622.88
599.56	47505.85
599.71	46831.78
599.87	47519.90
600.03	47234.35
600.18	47477.77
600.34	47220.31
600.50	47061.15
600.65	47220.31
600.81	47456.70
600.97	47550.32
601.12	47466.06
601.28	47524.58
601.44	47283.50
601.59	46808.37
601.75	46597.73
601.91	46719.43
602.06	47208.61
602.22	47428.62
602.37	47145.41
602.53	47210.95
602.69	47503.51
602.84	47241.37
603.00	46780.29
603.16	47316.27
603.31	47283.50
603.47	47152.43
603.62	47004.98
603.78	47276.48
603.94	47058.81
604.09	47515.22
604.25	46983.91
604.40	46691.35
604.56	47379.46
604.71	47760.97
604.87	46930.08
605.03	47264.78
605.18	46944.12
605.34	47196.90
605.49	47035.41
605.65	47033.07
605.80	47285.84
605.96	47065.83
606.12	46981.57
606.27	47503.51
606.43	46909.02
606.58	47246.05
606.74	46869.23
606.89	46864.55
607.05	47012.00
607.20	47040.09
607.36	46932.42
607.51	46791.99
607.67	46890.29
607.82	46831.78
607.98	46920.72
608.13	46873.91
608.29	46618.79
608.44	46747.52
608.60	46358.99
608.75	46670.28
608.91	47433.30
609.06	46876.25
609.22	47124.35
609.37	46689.01
609.53	46665.60
609.68	46433.89
609.84	46869.23
609.99	46747.52
610.15	46616.45
610.30	46513.47
610.46	46600.07
610.61	46340.27
610.76	46644.54
610.92	47004.98
611.07	46803.69
611.23	46831.78
611.38	46010.25
611.54	46227.92
611.69	46316.86
611.84	46368.35
612.00	45893.22
612.15	46433.89
612.31	46707.73
612.46	46211.54
612.62	46499.42
612.77	46438.57
612.92	46609.43
613.08	45982.16
613.23	46410.48
613.39	46445.59
613.54	45731.73
613.69	46335.59
613.85	46443.25
614.00	46401.12
614.15	46120.26
614.31	45984.51
614.46	46366.01
614.62	46323.88
614.77	46167.07
614.92	46485.38
615.08	46157.70
615.23	45612.36
615.38	45666.19
615.54	45605.34
615.69	45581.93
615.84	45923.65
616.00	45949.40
616.15	45764.49
616.30	45872.16
616.46	45703.64
616.61	45476.61
616.76	45581.93
616.92	45443.84
617.07	45127.87
617.22	45462.57
617.37	45387.67
617.53	45963.44
617.68	45457.88
617.83	45539.80
617.99	45593.64
618.14	45464.91
618.29	45553.85
618.45	45256.60
618.60	44935.95
618.75	45181.70
618.90	45291.71
619.06	45214.47
619.21	45242.56
619.36	45769.18
619.51	45420.44
619.67	45720.02
619.82	45495.33
619.97	45411.07
620.12	45144.25
620.28	44900.84
620.43	44800.19
620.58	45425.12
620.73	45265.96
620.89	45057.65
621.04	45092.76
621.19	45017.86
621.34	45476.61
621.49	45095.10
621.65	44718.28
621.80	45055.31
621.95	44687.85
622.10	44741.68
622.25	44755.72
622.41	44423.37
622.56	44463.16
622.71	45153.62
622.86	44648.06
623.01	44772.11
623.16	44608.27
623.32	44437.41
623.47	44732.32
623.62	44758.06
623.77	44416.35
623.92	44776.79
624.07	44154.21
624.23	44257.19
624.38	44395.28
624.53	44069.95
624.68	44460.82
624.83	44444.43
624.98	44465.50
625.13	44208.04
625.29	44484.22
625.44	43751.63
625.59	43899.09
625.74	43634.61
625.89	43391.19
626.04	43765.68
626.19	43955.26
626.34	44179.95
626.49	44065.27
626.65	44144.84
626.80	44041.86
626.95	43756.32
627.10	43641.63
627.25	43812.49
627.40	43536.30
627.55	43517.58
627.70	43147.78
627.85	43220.33
628.00	43601.84
628.15	43765.68
628.30	43463.75
628.45	43681.42
628.60	43573.75
628.76	43407.58
628.91	43540.99
629.06	43208.63
629.21	43103.31
629.36	43145.44
629.51	43325.66
629.66	43220.33
629.81	43023.73
629.96	43119.69
630.11	43065.86
630.26	43531.62
630.41	42974.58
630.56	43049.47
630.71	43246.08
630.86	42976.92
631.01	42501.79
631.16	43051.81
631.31	42534.56
631.46	42426.89
631.61	42794.36
631.76	42745.20
631.91	43192.25
632.06	42782.65
632.21	43138.41
632.36	42946.49
632.51	42623.50
632.66	42422.21
632.81	42288.80
632.96	42719.46
633.10	42541.58
633.25	42660.94
633.40	42431.57
633.55	42876.27
633.70	42897.34
633.85	42845.85
634.00	42541.58
634.15	42417.53
634.30	42136.66
634.45	42623.50
634.60	42019.64
634.75	42902.02
634.90	42188.16
635.05	42387.10
635.19	41956.44
635.34	42607.11
635.49	42286.46
635.64	41830.05
635.79	42211.56
635.94	41801.97
636.09	42136.66
636.24	42199.86
636.39	41663.88
636.53	41532.81
636.68	41904.95
636.83	42052.41
636.98	42466.68
637.13	41897.93
637.28	42391.78
637.43	42017.30
637.57	42300.50
637.72	41787.92
637.87	42068.79
638.02	42073.47
638.17	42225.60
638.32	41670.90
638.46	41764.52
638.61	41797.29
638.76	41577.28
638.91	42071.13
639.06	41350.24
639.20	41794.95
639.35	41935.38
639.50	41691.96
639.65	41989.21
639.80	41619.41
639.94	41373.65
640.09	41282.37
640.24	41008.53
640.39	40882.14
640.54	41092.79
640.68	41242.58
640.83	41167.68
640.98	41298.75
641.13	41205.13
641.27	41478.97
641.42	40961.72
641.57	40701.92
641.72	40999.16
641.86	40718.30
642.01	40727.66
642.16	40847.03
642.31	40762.77
642.45	41329.18
642.60	40374.24
642.75	40807.24
642.90	40603.61
643.04	40875.12
643.19	40751.07
643.34	40627.02
643.48	40657.45
643.63	40877.46
643.78	40229.13
643.93	40823.62
644.07	40804.90
644.22	40877.46
644.37	40645.74
644.51	40706.60
644.66	40463.18
644.81	40362.54
644.95	40416.37
645.10	40989.80
645.25	40786.18
645.39	40605.95
645.54	40060.61
645.69	40121.46
645.83	40179.98
645.98	40240.83
646.13	40498.29
646.27	40502.97
646.42	39866.34
646.57	39955.29
646.71	39962.31
646.86	40037.20
647.00	40355.52
647.15	40554.46
647.30	40257.21
647.44	39826.56
647.59	40020.82
647.74	39817.19
647.88	39896.77
648.03	40222.11
648.17	40037.20
648.32	39779.74
648.47	39721.23
648.61	39564.42
648.76	39629.95
648.90	39459.09
649.05	39543.35
649.20	39915.50
649.34	39950.60
649.49	39557.39
649.63	39416.96
649.78	39519.95
649.92	39363.13
650.07	39838.26
650.21	39885.07
650.36	40016.14
650.51	39381.85
650.65	40142.53
650.80	39559.73
650.94	39634.63
651.09	39789.11
651.23	39583.14
651.38	39456.75
651.52	39510.58
651.67	39157.16
651.81	38953.54
651.96	39213.34
652.10	39459.09
652.25	39213.34
652.39	39138.44
652.54	39009.71
652.68	39086.95
652.83	39358.45
652.97	39454.41
653.12	39089.29
653.26	39007.37
653.41	39012.05
653.55	38462.02
653.70	39002.69
653.84	39096.31
653.99	38712.46
654.13	38759.27
654.27	38616.50
654.42	38548.62
654.56	38333.29
654.71	38686.71
654.85	38557.99
655.00	38911.41
655.14	38288.82
655.29	38436.28
655.43	38216.27
655.57	37748.16
655.72	38307.55
655.86	37780.93
656.01	38045.41
656.15	37879.23
656.30	37909.66
656.44	38139.03
656.58	38234.99
656.73	38333.29
656.87	38342.66
657.01	37717.73
657.16	38108.60
657.30	37832.42
657.45	37563.26
657.59	38089.88
657.73	38204.56
657.88	38279.46
658.02	38227.97
658.16	38150.73
658.31	38410.53
658.45	37827.74
658.60	37785.61
658.74	37715.39
658.88	37851.14
659.03	37345.59
659.17	37429.85
659.31	37378.36
659.46	37600.71
659.60	37563.26
659.74	37654.54
659.89	37631.13
660.03	37205.16
660.17	37570.28
660.32	37549.21
660.46	37462.61
660.60	37244.94
660.74	37038.98
660.89	37244.94
661.03	37067.06
661.17	36865.78
661.32	36718.32
661.46	36744.07
661.60	37361.97
661.74	36715.98
661.89	37038.98
662.03	36720.66
662.17	36694.92
662.31	36851.73
662.46	37137.28
662.60	36931.31
662.74	36596.62
662.88	36584.91
663.03	36313.41
663.17	36519.38
663.31	36840.03
663.45	36697.26
663.60	36311.07
663.74	36294.69
663.88	36332.14
664.02	35969.35
664.17	36297.03
664.31	35849.99
664.45	35817.22
664.59	35906.16
664.73	35627.63
664.88	35906.16
665.02	35744.66
665.16	35475.50
665.30	35730.62
665.44	35510.61
665.59	35433.37
665.73	35468.48
665.87	35180.59
666.01	35414.65
666.15	35885.09
666.29	35505.93
666.44	35325.71
666.58	35021.44
666.72	34979.31
666.86	34993.35
667.00	35225.06
667.14	35101.01
667.28	34902.07
667.43	34127.35
667.57	34979.31
667.71	34895.05
667.85	35021.44
667.99	34881.00
668.13	34588.44
668.27	35072.93
668.41	34597.80
668.56	34333.32
668.70	34773.34
668.84	34429.28
668.98	33902.66
669.12	33680.31
669.26	34185.86
669.40	33914.36
669.54	33935.43
669.68	33574.98
669.82	34019.69
669.96	33968.19
670.10	33600.73
670.25	33734.14
670.39	33598.39
670.53	33167.73
670.67	33509.45
670.81	33549.24
670.95	33631.16
671.09	33766.91
671.23	33586.69
671.37	32996.87
671.51	33132.62
671.65	33270.72
671.79	32943.04
671.93	32823.67
672.07	33034.32
672.21	33448.60
672.35	33055.39
672.49	33020.28
672.63	32959.42
672.77	32601.32
672.91	32858.78
673.05	32634.09
673.19	32554.51
673.33	32079.38
673.47	32081.72
673.61	32404.72
673.75	32149.60
673.89	31751.71
674.03	31772.77
674.17	32067.68
674.31	32051.30
674.45	31864.05
674.59	31772.77
674.73	32011.51
674.87	31800.86
675.01	31494.25
675.15	31524.68
675.29	31770.43
675.43	31428.71
675.56	31323.39
675.70	31126.78
675.84	31117.42
675.98	30134.40
676.12	30965.29
676.26	31278.92
676.40	31225.09
676.54	31360.84
676.68	30719.53
676.82	30295.89
676.96	30433.99
677.10	30366.11
677.23	30649.32
677.37	30515.90
677.51	29806.72
677.65	29947.15
677.79	29322.23
677.93	29776.30
678.07	29476.71
678.21	29425.22
678.34	29469.69
678.48	29418.19
678.62	29221.59
678.76	29010.94
678.90	28802.63
679.04	28985.19
679.18	29296.49
679.31	28739.44
679.45	28479.64
679.59	28547.51
679.73	28680.92
679.87	28423.47
680.00	28226.86
680.14	28299.42
680.28	28196.43
680.42	28327.50
680.56	28086.43
680.70	28435.17
680.83	28437.51
680.97	27978.76
681.11	27887.48
681.25	27784.50
681.39	27716.62
681.52	27627.68
681.66	27484.91
681.80	27431.08
681.94	27360.86
682.07	27421.72
682.21	27021.48
682.35	27606.62
682.49	26885.73
682.62	27271.92
682.76	26506.57
682.90	26742.96
683.04	26654.02
683.17	26471.46
683.31	26441.03
683.45	26408.26
683.59	26359.11
683.72	26040.80
683.86	25895.69
684.00	26534.65
684.13	26033.78
684.27	25703.76
684.41	25668.66
684.55	25362.04
684.68	25727.17
684.82	25603.12
684.96	25312.89
685.09	25193.53
685.23	25153.74
685.37	25006.28
685.50	25315.23
685.64	25163.10
685.78	24802.66
685.91	24788.61
686.05	24938.41
686.19	24414.13
686.32	24355.61
686.46	23941.34
686.60	23531.75
686.73	23241.52
686.87	23295.35
687.01	23585.58
687.14	23374.93
687.28	23353.87
687.42	23396.00
687.55	22970.02
687.69	23384.29
687.82	23248.54
687.96	23557.49
688.10	23119.81
688.23	23145.56
688.37	22817.88
688.50	22984.06
688.64	23161.94
688.78	22958.31
688.91	22499.57
689.05	22635.32
689.18	22548.72
689.32	22251.47
689.46	22464.46
689.59	22375.52
689.73	22389.56
689.86	22104.02
690.00	22171.89
690.13	21837.20
690.27	21827.84
690.41	21654.64
690.54	21532.93
690.68	21659.32
690.81	21820.81
690.95	21694.43
691.08	21734.21
691.22	21308.24
691.35	21544.63
691.49	21708.47
691.62	21507.18
691.76	21488.46
691.89	21467.39
692.03	20854.17
692.16	21106.95
692.30	20685.65
692.43	20542.88
692.57	20301.81
692.70	20542.88
692.84	20465.64
692.97	19915.62
693.11	20540.54
693.24	19999.88
693.38	20159.03
693.51	20198.82
693.65	20219.89
693.78	20072.43
693.92	19878.17
694.05	19707.31
694.19	19609.01
694.32	19253.25
694.45	19260.27
694.59	19569.22
694.72	19421.77
694.86	19124.52
694.99	18960.68
695.13	19143.24
695.26	19087.07
695.39	18911.53
695.53	19012.17
695.66	18843.65
695.80	18951.32
695.93	18796.84
696.07	18581.51
696.20	18429.38
696.33	18506.62
696.47	18459.81
696.60	18242.14
696.73	17987.02
696.87	18043.19
697.00	17956.59
697.14	18054.89
697.27	17916.80
697.40	17965.95
697.54	17724.88
697.67	17877.01
697.80	17647.64
697.94	17708.49
698.07	17284.86
698.21	17441.67
698.34	17366.78
698.47	17172.51
698.61	17102.29
698.74	17319.96
698.87	16905.69
699.01	16650.57
699.14	16662.27
699.27	16446.94
699.40	16439.92
699.54	16388.43
699.67	16339.28
699.80	16517.16
699.94	16414.18
700.07	16212.89
700.20	16343.96
700.34	16203.53
700.47	16484.39
700.60	16201.19
700.73	16350.98
700.87	16091.18
701.00	15660.52
701.13	15822.02
701.26	15410.09
701.40	15627.76
701.53	15412.43
701.66	15344.55
701.79	15719.04
701.93	15435.83
702.06	14946.66
702.19	15033.26
702.32	15014.54
702.46	14993.47
702.59	15059.01
702.72	15260.29
702.85	15028.58
702.99	15049.64
703.12	14738.35
703.25	14815.59
703.38	14483.24
703.51	14328.76
703.65	14635.37
703.78	14295.99
703.91	14384.93
704.04	14300.67
704.17	14286.63
704.31	14197.69
704.44	14169.60
704.57	14202.37
704.70	14115.77
704.83	14043.21
704.96	13898.10
705.10	13944.91
705.23	13874.70
>>>>>End Processed Spectral Data<<<<<
