SpectraSuite Data File
++++++++++++++++++++++++++++++++++++
Date: Fri Oct 25 10:44:34 EDT 2013
User: price-jones
Dark Spectrum Present: No
Reference Spectrum Present: No
Number of Sampled Component Spectra: 1
Spectrometers: USB2+H05261
Integration Time (usec): 100000 (USB2+H05261)
Spectra Averaged: 1 (USB2+H05261)
Boxcar Smoothing: 0 (USB2+H05261)
Correct for Electrical Dark: No (USB2+H05261)
Strobe/Lamp Enabled: No (USB2+H05261)
Correct for Detector Non-linearity: No (USB2+H05261)
Correct for Stray Light: No (USB2+H05261)
Number of Pixels in Processed Spectrum: 2048
>>>>>Begin Processed Spectral Data<<<<<
365.73	159.16
365.92	159.16
366.12	159.16
366.32	63.19
366.52	0.00
366.72	67.88
366.91	0.00
367.11	42.13
367.31	0.00
367.51	16.38
367.70	0.00
367.90	142.77
368.10	0.00
368.30	88.94
368.49	49.15
368.69	0.00
368.89	91.28
369.09	16.38
369.28	58.51
369.48	84.26
369.68	112.35
369.87	149.79
370.07	140.43
370.27	166.18
370.47	124.05
370.66	397.89
370.86	449.38
371.06	468.11
371.25	421.30
371.45	505.56
371.65	397.89
371.84	475.13
372.04	397.89
372.24	552.37
372.44	472.79
372.63	470.45
372.83	535.98
373.03	468.11
373.22	491.51
373.42	444.70
373.62	507.90
373.81	489.17
374.01	514.92
374.21	564.07
374.40	545.34
374.60	561.73
374.79	496.19
374.99	564.07
375.19	550.03
375.38	660.03
375.58	554.71
375.78	554.71
375.97	580.45
376.17	561.73
376.37	613.22
376.56	599.18
376.76	596.84
376.95	557.05
377.15	610.88
377.35	601.52
377.54	592.16
377.74	528.96
377.93	596.84
378.13	603.86
378.33	603.86
378.52	561.73
378.72	557.05
378.91	678.76
379.11	660.03
379.31	636.63
379.50	660.03
379.70	704.50
379.89	678.76
380.09	657.69
380.28	713.86
380.48	685.78
380.68	671.73
380.87	690.46
381.07	631.94
381.26	734.93
381.46	779.40
381.65	683.44
381.85	704.50
382.04	702.16
382.24	788.76
382.43	660.03
382.63	706.84
382.83	678.76
383.02	671.73
383.22	786.42
383.41	676.41
383.61	653.01
383.80	667.05
384.00	779.40
384.19	657.69
384.39	739.61
384.58	739.61
384.78	709.18
384.97	709.18
385.17	788.76
385.36	732.59
385.56	741.95
385.75	840.25
385.95	718.54
386.14	788.76
386.34	734.93
386.53	767.70
386.72	809.83
386.92	802.80
387.11	854.30
387.31	709.18
387.50	793.44
387.70	870.68
387.89	760.67
388.09	823.87
388.28	884.72
388.48	802.80
388.67	816.85
388.86	929.19
389.06	880.04
389.25	863.66
389.45	940.90
389.64	880.04
389.84	905.79
390.03	980.68
390.22	971.32
390.42	966.64
390.61	891.74
390.81	954.94
391.00	842.59
391.19	947.92
391.39	905.79
391.58	1001.75
391.78	1022.81
391.97	978.34
392.16	1034.52
392.36	1020.47
392.55	1013.45
392.75	954.94
392.94	819.19
393.13	945.58
393.33	964.30
393.52	915.15
393.71	961.96
393.91	1013.45
394.10	1006.43
394.29	999.41
394.49	1041.54
394.68	1109.41
394.88	1006.43
395.07	1132.82
395.26	1128.14
395.46	1130.48
395.65	1179.63
395.84	1118.78
396.04	1128.14
396.23	1086.01
396.42	1107.07
396.62	1111.75
396.81	1156.22
397.00	1188.99
397.19	1123.46
397.39	1196.01
397.58	1275.59
397.77	1282.61
397.97	1214.74
398.16	1217.08
398.35	1413.68
398.55	1280.27
398.74	1266.23
398.93	1462.83
399.12	1352.83
399.32	1315.38
399.51	1324.74
399.70	1327.08
399.90	1364.53
400.09	1378.58
400.28	1366.87
400.47	1406.66
400.67	1455.81
400.86	1390.28
401.05	1465.18
401.24	1542.41
401.44	1540.07
401.63	1547.09
401.82	1591.56
402.01	1465.18
402.21	1535.39
402.40	1570.50
402.59	1570.50
402.78	1638.38
402.97	1612.63
403.17	1603.27
403.36	1654.76
403.55	1603.27
403.74	1720.29
403.93	1607.95
404.13	1614.97
404.32	1659.44
404.51	1668.80
404.70	1680.50
404.89	1706.25
405.09	1724.97
405.28	1799.87
405.47	1785.83
405.66	1865.41
405.85	1830.30
406.05	1732.00
406.24	1830.30
406.43	1860.73
406.62	1935.62
406.81	1949.67
407.00	1804.55
407.20	1834.98
407.39	1916.90
407.58	1937.96
407.77	1930.94
407.96	2047.97
408.15	2029.24
408.34	1966.05
408.54	2090.10
408.73	1966.05
408.92	1996.48
409.11	1952.01
409.30	2141.59
409.49	2024.56
409.68	1991.80
409.87	2115.84
410.07	2246.91
410.26	2136.91
410.45	2167.34
410.64	2223.51
410.83	2172.02
411.02	2258.62
411.21	2235.21
411.40	2359.26
411.59	2377.98
411.78	2333.51
411.98	2303.09
412.17	2408.41
412.36	2352.24
412.55	2387.35
412.74	2333.51
412.93	2473.95
413.12	2410.75
413.31	2562.89
413.50	2452.88
413.69	2581.61
413.88	2544.16
414.07	2682.25
414.26	2689.28
414.45	2729.06
414.64	2649.49
414.83	2808.64
415.02	2801.62
415.22	2750.13
415.41	2818.00
415.60	2848.43
415.79	2822.69
415.98	3019.29
416.17	2956.10
416.36	2928.01
416.55	2871.84
416.74	3028.65
416.93	3101.21
417.12	3042.70
417.31	3075.46
417.50	2979.50
417.69	3194.83
417.88	3131.64
418.07	3089.51
418.26	3136.32
418.45	3159.72
418.64	3183.13
418.83	3232.28
419.02	3225.26
419.21	3248.66
419.39	3281.43
419.58	3183.13
419.77	3258.03
419.96	3311.86
420.15	3384.41
420.34	3398.46
420.53	3428.88
420.72	3405.48
420.91	3527.19
421.10	3449.95
421.29	3445.27
421.48	3398.46
421.67	3541.23
421.86	3527.19
422.05	3323.56
422.24	3400.80
422.43	3459.31
422.61	3517.83
422.80	3517.83
422.99	3595.06
423.18	3655.92
423.37	3463.99
423.56	3667.62
423.75	3630.17
423.94	3520.17
424.13	3297.81
424.32	3272.07
424.50	3623.15
424.69	3545.91
424.88	3700.39
425.07	3527.19
425.26	3590.38
425.45	3515.48
425.64	3531.87
425.83	3653.58
426.01	3749.54
426.20	3618.47
426.39	3801.03
426.58	3555.27
426.77	3669.96
426.96	3627.83
427.15	3719.11
427.33	3749.54
427.52	3618.47
427.71	3588.04
427.90	3772.94
428.09	3765.92
428.28	3620.81
428.46	3730.81
428.65	3892.31
428.84	3971.89
429.03	4025.72
429.22	3957.85
429.40	3929.76
429.59	3882.95
429.78	3707.41
429.97	3840.82
430.16	3744.86
430.34	3847.84
430.53	4014.02
430.72	3904.01
430.91	3983.59
431.10	3885.29
431.28	4107.64
431.47	4007.00
431.66	4262.12
431.85	4159.13
432.03	4337.01
432.22	4348.72
432.41	4329.99
432.60	4119.34
432.79	4276.16
432.97	4327.65
433.16	4362.76
433.35	4297.22
433.54	4304.25
433.72	4236.37
433.91	4301.90
434.10	4388.50
434.28	4367.44
434.47	4388.50
434.66	4428.29
434.85	4444.68
435.03	4489.15
435.22	4585.11
435.41	4739.58
435.59	4505.53
435.78	4655.33
435.97	4762.99
436.16	4753.63
436.34	4744.27
436.53	4751.29
436.72	4573.41
436.90	4631.92
437.09	4669.37
437.28	4657.67
437.46	4734.90
437.65	4652.98
437.84	4821.50
438.02	4784.06
438.21	4772.35
438.40	4844.91
438.58	4936.19
438.77	4990.02
438.96	4945.55
439.14	5088.32
439.33	5123.43
439.52	5167.90
439.70	5132.79
439.89	5207.69
440.08	5217.05
440.26	5284.93
440.45	5219.39
440.63	5373.87
440.82	5528.35
441.01	5357.49
441.19	5416.00
441.38	5558.77
441.57	5486.22
441.75	5430.04
441.94	5607.92
442.12	5748.36
442.31	5816.23
442.50	5870.06
442.68	5827.93
442.87	5659.42
443.05	5849.00
443.24	5921.56
443.43	5692.18
443.61	5867.72
443.80	6019.86
443.98	5717.93
444.17	5795.17
444.35	5961.34
444.54	5928.58
444.73	6125.18
444.91	5884.11
445.10	5921.56
445.28	5933.26
445.47	5757.72
445.65	5823.25
445.84	6003.47
446.02	5984.75
446.21	5893.47
446.39	6050.28
446.58	6221.14
446.77	6045.60
446.95	6045.60
447.14	6118.16
447.32	6282.00
447.51	6176.67
447.69	6078.37
447.88	5991.77
448.06	6083.05
448.25	6249.23
448.43	6193.06
448.62	6153.27
448.80	6111.14
448.99	6230.51
449.17	6251.57
449.36	6340.51
449.54	6368.60
449.73	6499.67
449.91	6635.42
450.10	6483.28
450.28	6424.77
450.46	6616.69
450.65	6586.27
450.83	6609.67
451.02	6530.09
451.20	6516.05
451.39	6574.56
451.57	6513.71
451.76	6502.01
451.94	6607.33
452.13	6752.45
452.31	6494.99
452.49	6413.07
452.68	6635.42
452.86	6572.22
453.05	6710.32
453.23	6668.19
453.42	6689.25
453.60	6590.95
453.78	6689.25
453.97	6637.76
454.15	6806.28
454.34	6829.68
454.52	6911.60
454.70	6843.73
454.89	6775.85
455.07	7103.53
455.26	7042.67
455.44	6867.13
455.62	7108.21
455.81	7037.99
455.99	7129.27
456.17	7157.36
456.36	7136.29
456.54	7262.68
456.73	7159.70
456.91	7372.69
457.09	7342.26
457.28	7623.12
457.46	7314.17
457.64	7618.44
457.83	7475.67
458.01	7293.11
458.19	7400.77
458.38	7351.62
458.56	7517.80
458.74	7606.74
458.93	7550.57
459.11	7527.16
459.29	7625.47
459.48	7758.88
459.66	7592.70
459.84	7695.68
460.03	7775.26
460.21	7737.81
460.39	7611.42
460.57	7918.03
460.76	7730.79
460.94	7999.95
461.12	7896.97
461.31	7948.46
461.49	7852.50
461.67	8056.12
461.85	8168.47
462.04	7918.03
462.22	8290.18
462.40	8145.06
462.59	8098.25
462.77	8147.40
462.95	8264.43
463.13	8287.84
463.32	8262.09
463.50	8163.79
463.68	8308.90
463.86	8336.99
464.05	8217.62
464.23	8175.49
464.41	8407.20
464.59	8201.24
464.78	8397.84
464.96	8414.23
465.14	8280.82
465.32	8400.18
465.50	8449.33
465.69	8428.27
465.87	8528.91
466.05	8360.39
466.23	8423.59
466.41	8442.31
466.60	8454.02
466.78	8517.21
466.96	8809.78
467.14	8697.43
467.32	8538.27
467.51	8777.01
467.69	8446.99
467.87	8688.07
468.05	8774.67
468.23	8606.15
468.41	8779.35
468.60	8606.15
468.78	8861.27
468.96	8557.00
469.14	8784.03
469.32	8952.55
469.50	8671.68
469.69	9057.87
469.87	9097.66
470.05	8919.78
470.23	9123.41
470.41	8973.61
470.59	9015.74
470.77	9191.28
470.95	9233.41
471.14	9254.48
471.32	9034.47
471.50	9497.89
471.68	9453.42
471.86	9291.93
472.04	9523.64
472.22	9671.09
472.40	9462.79
472.58	9575.13
472.77	9582.15
472.95	9895.78
473.13	10120.48
473.31	9537.68
473.49	9460.45
473.67	9844.29
473.85	9858.34
474.03	10031.54
474.21	10087.71
474.39	10314.74
474.57	10281.97
474.75	10134.52
474.93	10415.38
475.12	10129.84
475.30	10207.08
475.48	10279.63
475.66	10511.35
475.84	10324.10
476.02	10399.00
476.20	10476.24
476.38	10604.97
476.56	10923.28
476.74	11052.01
476.92	10829.66
477.10	10827.32
477.28	11157.33
477.46	11070.73
477.64	11435.86
477.82	11290.74
478.00	11681.61
478.18	11517.78
478.36	11534.16
478.54	11833.75
478.72	11824.39
478.90	11655.87
479.08	11868.86
479.26	12079.50
479.44	11817.36
479.62	12198.87
479.80	12168.45
479.98	12397.82
480.16	12690.38
480.34	12435.27
480.52	12664.64
480.70	12491.44
480.88	12549.95
481.06	12837.84
481.24	12641.23
481.41	13195.94
481.59	13163.17
481.77	13429.99
481.95	13334.03
482.13	13259.13
482.31	13397.23
482.49	13474.46
482.67	13722.56
482.85	13912.14
483.03	13949.59
483.21	14200.03
483.39	14209.39
483.57	14134.50
483.74	14389.61
483.92	14628.35
484.10	14298.33
484.28	14616.65
484.46	14862.40
484.64	15227.53
484.82	14764.10
485.00	15061.35
485.18	15398.38
485.35	15499.03
485.53	15213.48
485.71	15304.76
485.89	15419.45
486.07	15302.42
486.25	15550.52
486.43	15697.97
486.61	15934.37
486.78	16187.14
486.96	16255.02
487.14	16582.70
487.32	16222.25
487.50	16540.57
487.68	16968.88
487.85	16594.40
488.03	16968.88
488.21	17132.72
488.39	17233.36
488.57	17420.61
488.75	17401.88
488.92	17593.81
489.10	17811.48
489.28	17490.82
489.46	18185.96
489.64	18024.47
489.81	18670.45
489.99	18740.67
490.17	18810.89
490.35	19023.87
490.53	18853.02
490.70	19304.74
490.88	18902.17
491.06	19290.70
491.24	19435.81
491.41	19386.66
491.59	19496.66
491.77	19683.91
491.95	19868.81
492.13	20051.37
492.30	20072.43
492.48	19941.36
492.66	20032.65
492.84	20191.80
493.01	20343.94
493.19	20374.36
493.37	20608.42
493.54	20713.74
493.72	21057.80
493.90	20999.29
494.08	21125.68
494.25	21546.97
494.43	21380.79
494.61	21586.76
494.79	21816.13
494.96	21607.83
495.14	21577.40
495.32	22038.48
495.49	21956.57
495.67	22272.54
495.85	22398.93
496.02	22698.52
496.20	22728.94
496.38	22637.66
496.55	22852.99
496.73	23283.65
496.91	23173.64
497.09	23138.54
497.26	23377.27
497.44	23204.07
497.62	23718.99
497.79	23847.72
497.97	23435.78
498.14	24173.05
498.32	23491.96
498.50	24170.71
498.67	24376.68
498.85	23946.02
499.03	24503.07
499.20	24379.02
499.38	24673.93
499.56	24264.33
499.73	24734.78
499.91	24638.82
500.08	24790.95
500.26	24662.22
500.44	24790.95
500.61	24812.02
500.79	25069.48
500.97	24854.15
501.14	25383.11
501.32	25193.53
501.49	25230.98
501.67	25708.44
501.84	25642.91
502.02	25874.62
502.20	25933.14
502.37	25942.50
502.55	25951.86
502.72	25954.20
502.90	26094.63
503.07	26300.60
503.25	26260.81
503.43	26441.03
503.60	26572.10
503.78	26548.70
503.95	26417.63
504.13	26614.23
504.30	26876.37
504.48	26534.65
504.65	27255.54
504.83	27419.38
505.01	27199.37
505.18	27206.39
505.36	27257.88
505.53	27302.35
505.71	27562.15
505.88	27868.76
506.06	27304.69
506.23	28109.83
506.41	27697.90
506.58	27798.54
506.76	28025.57
506.93	28261.97
507.11	28070.04
507.28	28470.28
507.46	28058.34
507.63	28451.55
507.81	28561.56
507.98	27999.83
508.16	28580.28
508.33	28781.57
508.50	28680.92
508.68	28980.51
508.85	28697.31
509.03	28954.77
509.20	29109.24
509.38	29298.83
509.55	29240.31
509.73	29221.59
509.90	29345.64
510.08	29846.51
510.25	29343.30
510.42	29610.12
510.60	29528.20
510.77	29745.87
510.95	29895.66
511.12	29713.10
511.30	30136.74
511.47	30211.64
511.64	30644.63
511.82	30771.02
511.99	30267.81
512.17	30452.71
512.34	29921.41
512.51	30644.63
512.69	30831.88
512.86	30616.55
513.04	30991.03
513.21	30991.03
513.38	30560.37
513.56	31131.47
513.73	30864.64
513.90	31435.74
514.08	31424.03
514.25	31725.96
514.43	31550.42
514.60	31260.20
514.77	31597.23
514.95	31873.42
515.12	31477.86
515.29	31552.76
515.47	32088.74
515.64	31716.60
515.81	31765.75
515.99	31562.12
516.16	32175.34
516.33	32107.47
516.51	32189.39
516.68	31700.22
516.85	31679.15
517.03	32041.93
517.20	31758.73
517.37	32643.45
517.54	32334.50
517.72	32156.62
517.89	32313.44
518.06	32575.58
518.24	32606.00
518.41	32556.85
518.58	32708.99
518.75	32617.71
518.93	32788.56
519.10	32961.76
519.27	32907.93
519.45	33247.31
519.62	33390.08
519.79	33174.75
519.96	33535.20
520.14	33518.81
520.31	33481.36
520.48	33472.00
520.65	33399.44
520.83	34258.42
521.00	33860.53
521.17	33872.23
521.34	34085.22
521.52	34080.54
521.69	34005.64
521.86	34457.37
522.03	34403.53
522.20	34370.77
522.38	34576.73
522.55	34312.25
522.72	34677.38
522.89	34440.98
523.07	34623.54
523.24	34464.39
523.41	34761.64
523.58	34401.19
523.75	35079.95
523.92	34932.50
524.10	35868.71
524.27	35585.50
524.44	35559.76
524.61	35318.68
524.78	35260.17
524.96	35735.30
525.13	36079.36
525.30	35564.44
525.47	36002.12
525.64	35564.44
525.81	35416.99
525.98	35545.72
526.16	35702.53
526.33	35440.39
526.50	35519.97
526.67	35653.38
526.84	35239.11
527.01	35599.55
527.18	35424.01
527.36	36086.38
527.53	35950.63
527.70	36460.87
527.87	36282.98
528.04	36154.26
528.21	36245.54
528.38	36266.60
528.55	36584.91
528.72	36528.74
528.89	37151.32
529.07	36767.48
529.24	36629.38
529.41	36905.57
529.58	37076.43
529.75	36760.45
529.92	37345.59
530.09	36746.41
530.26	37319.84
530.43	37446.23
530.60	37221.54
530.77	37071.75
530.94	37820.72
531.11	37294.10
531.28	37247.29
531.46	37329.20
531.63	37579.64
531.80	37298.78
531.97	37376.01
532.14	37495.38
532.31	37350.27
532.48	37235.58
532.65	37982.21
532.82	37528.15
532.99	37654.54
533.16	37673.26
533.33	38043.07
533.50	37937.74
533.67	37848.80
533.84	37820.72
534.01	38267.76
534.18	38242.01
534.35	38440.96
534.52	38148.39
534.69	38277.12
534.86	38382.45
535.03	37956.47
535.20	38880.98
535.37	38789.70
535.54	39117.37
535.71	38607.14
535.88	38438.62
536.05	38873.96
536.22	38876.30
536.38	38782.68
536.55	38724.16
536.72	38859.91
536.89	38515.86
537.06	38934.81
537.23	38808.42
537.40	38682.03
537.57	38937.15
537.74	39203.97
537.91	39328.02
538.08	39222.70
538.25	38878.64
538.42	39136.10
538.59	39674.42
538.75	39159.50
538.92	39367.81
539.09	39709.53
539.26	39695.49
539.43	39562.08
539.60	39599.52
539.77	39438.03
539.94	39328.02
540.11	39344.41
540.28	39899.11
540.44	39821.87
540.61	39414.62
540.78	39423.98
540.95	39622.93
541.12	39524.63
541.29	39828.90
541.46	39683.78
541.62	39786.77
541.79	40341.47
541.96	39555.05
542.13	40238.49
542.30	40238.49
542.47	40175.30
542.63	40542.76
542.80	40126.14
542.97	40671.49
543.14	40704.26
543.31	40673.83
543.48	40641.06
543.64	40891.50
543.81	40582.55
543.98	40762.77
544.15	40975.76
544.32	41017.89
544.48	41195.77
544.65	41045.97
544.82	40708.94
544.99	40435.10
545.16	40746.39
545.32	40582.55
545.49	41443.87
545.66	41254.28
545.83	41425.14
546.00	41427.48
546.16	41322.16
546.33	41347.90
546.50	41329.18
546.67	41221.52
546.83	41074.06
547.00	41371.31
547.17	41228.54
547.34	41345.56
547.50	41729.41
547.67	41450.89
547.84	41354.93
548.00	41481.31
548.17	42033.68
548.34	41986.87
548.51	42059.43
548.67	41923.68
548.84	41771.54
549.01	41996.23
549.18	41790.27
549.34	41858.14
549.51	41977.51
549.68	42672.65
549.84	42103.90
550.01	42036.02
550.18	42078.15
550.34	42368.38
550.51	42066.45
550.68	42211.56
550.84	41937.72
551.01	42490.09
551.18	42265.39
551.34	42103.90
551.51	42658.60
551.68	42370.72
551.84	42321.57
552.01	42607.11
552.18	42497.11
552.34	41706.01
552.51	42480.72
552.68	42618.81
552.84	42541.58
553.01	42983.94
553.18	42569.66
553.34	42677.33
553.51	42337.95
553.67	42265.39
553.84	42773.29
554.01	42892.66
554.17	43000.32
554.34	43234.38
554.51	42864.57
554.67	43203.95
554.84	43171.18
555.00	42740.52
555.17	42667.97
555.33	42979.26
555.50	42965.21
555.67	42639.88
555.83	43005.00
556.00	43763.34
556.16	43384.17
556.33	43051.81
556.50	42841.17
556.66	43297.57
556.83	42719.46
556.99	43077.56
557.16	43578.43
557.32	43012.02
557.49	43454.39
557.65	42927.77
557.82	43021.39
557.98	43365.45
558.15	43423.96
558.32	43070.54
558.48	43150.12
558.65	42944.15
558.81	43234.38
558.98	43482.47
559.14	43323.32
559.31	43538.65
559.47	43267.14
559.64	43526.94
559.80	44098.03
559.97	43674.40
560.13	43447.36
560.30	43552.69
560.46	43412.26
560.63	43309.27
560.79	43463.75
560.96	43840.57
561.12	43299.91
561.29	43725.89
561.45	43861.64
561.61	43676.74
561.78	43758.66
561.94	43454.39
562.11	44252.51
562.27	44278.25
562.44	43555.03
562.60	43728.23
562.77	43854.62
562.93	43997.39
563.10	44304.00
563.26	43697.80
563.42	44210.38
563.59	43681.42
563.75	44135.48
563.92	43786.74
564.08	43966.96
564.24	44264.21
564.41	44261.87
564.57	43653.33
564.74	44051.22
564.90	43679.08
565.07	44332.09
565.23	44327.41
565.39	44154.21
565.56	44072.29
565.72	43791.42
565.88	44194.00
566.05	43999.73
566.21	44018.46
566.38	43903.77
566.54	44343.79
566.70	44439.75
566.87	44568.48
567.03	43936.54
567.19	44711.25
567.36	43957.60
567.52	44215.06
567.68	44580.18
567.85	43903.77
568.01	44194.00
568.17	44102.71
568.34	44322.72
568.50	44430.39
568.66	44245.49
568.83	44367.20
568.99	43880.36
569.15	44088.67
569.32	43742.27
569.48	44449.11
569.64	44479.54
569.81	44755.72
569.97	44687.85
570.13	44376.56
570.30	44058.24
570.46	44418.69
570.62	44095.69
570.78	43826.53
570.95	44161.23
571.11	44474.86
571.27	44346.13
571.43	44610.61
571.60	44568.48
571.76	44182.29
571.92	44191.65
572.09	44350.81
572.25	44524.01
572.41	44009.09
572.57	44624.65
572.74	44847.00
572.90	44575.50
573.06	44949.99
573.22	44203.36
573.38	44596.57
573.55	43995.05
573.71	44292.30
573.87	44531.03
574.03	44603.59
574.20	44301.66
574.36	44388.26
574.52	44619.97
574.68	44222.08
574.84	44488.90
575.01	44341.45
575.17	44273.57
575.33	44037.18
575.49	44201.02
575.65	44893.82
575.82	44971.05
575.98	44495.92
576.14	44776.79
576.30	44444.43
576.46	44278.25
576.62	44259.53
576.79	44341.45
576.95	43941.22
577.11	44514.65
577.27	44626.99
577.43	44659.76
577.59	44631.68
577.75	44596.57
577.92	44250.17
578.08	44247.83
578.24	44098.03
578.40	44493.58
578.56	44446.77
578.72	44465.50
578.88	44781.47
579.04	45064.67
579.21	44608.27
579.37	44570.82
579.53	44655.08
579.69	44472.52
579.85	44755.72
580.01	44163.57
580.17	44402.30
580.33	44657.42
580.49	44652.74
580.65	44795.51
580.82	44861.05
580.98	44210.38
581.14	44552.10
581.30	44755.72
581.46	44697.21
581.62	44949.99
581.78	44694.87
581.94	45085.74
582.10	44428.05
582.26	44573.16
582.42	44692.53
582.58	45155.96
582.74	45022.54
582.90	44718.28
583.06	44945.31
583.22	45022.54
583.38	45233.19
583.54	45041.27
583.70	44811.90
583.86	44744.02
584.02	44552.10
584.18	44687.85
584.34	45055.31
584.50	44650.40
584.66	44821.26
584.82	44612.95
584.98	45013.18
585.14	44863.39
585.30	44783.81
585.46	45125.53
585.62	44552.10
585.78	44814.24
585.94	44322.72
586.10	44144.84
586.26	44371.88
586.42	45174.68
586.58	44769.77
586.74	45146.59
586.90	44495.92
587.06	44219.74
587.22	44685.51
587.38	44360.17
587.54	45109.14
587.70	44926.58
587.86	44949.99
588.02	44835.30
588.18	45134.89
588.34	44818.92
588.49	44285.28
588.65	44264.21
588.81	44453.79
588.97	44540.39
589.13	44493.58
589.29	44914.88
589.45	44556.78
589.61	44594.23
589.77	45216.81
589.93	44732.32
590.08	44933.60
590.24	44971.05
590.40	45191.06
590.56	45085.74
590.72	45275.32
590.88	45078.72
591.04	44907.86
591.20	45448.52
591.35	45595.98
591.51	45331.50
591.67	45595.98
591.83	45181.70
591.99	44907.86
592.15	45013.18
592.31	45010.84
592.46	44690.19
592.62	44748.70
592.78	45359.58
592.94	45298.73
593.10	44664.44
593.26	45038.93
593.41	45078.72
593.57	44921.90
593.73	45111.49
593.89	45457.88
594.05	44926.58
594.20	44566.14
594.36	45385.33
594.52	45209.79
594.68	45153.62
594.84	44708.91
594.99	45045.95
595.15	44947.65
595.31	45450.86
595.47	45359.58
595.62	44776.79
595.78	45378.31
595.94	45497.67
596.10	45345.54
596.25	45165.32
596.41	45535.12
596.57	45067.02
596.73	45244.90
596.88	44851.69
597.04	44928.92
597.20	45319.79
597.36	45137.23
597.51	45294.05
597.67	45303.41
597.83	44748.70
597.99	45303.41
598.14	45123.19
598.30	45048.29
598.46	45308.09
598.61	44847.00
598.77	44814.24
598.93	45359.58
599.09	44589.55
599.24	45736.41
599.40	44945.31
599.56	45038.93
599.71	45134.89
599.87	45195.74
600.03	45116.17
600.18	45460.23
600.34	45277.66
600.50	45111.49
600.65	44917.22
600.81	45132.55
600.97	45521.08
601.12	45368.94
601.28	45085.74
601.44	45186.38
601.59	45331.50
601.75	44952.33
601.91	44919.56
602.06	45001.48
602.22	45191.06
602.37	45172.34
602.53	44978.07
602.69	45312.77
602.84	44886.79
603.00	44851.69
603.16	45104.46
603.31	44868.07
603.47	45013.18
603.62	44790.83
603.78	44746.36
603.94	45059.99
604.09	45460.23
604.25	45624.06
604.40	45130.21
604.56	45244.90
604.71	45312.77
604.87	44720.62
605.03	44954.67
605.18	45015.52
605.34	45263.62
605.49	44842.32
605.65	44699.55
605.80	45010.84
605.96	45062.33
606.12	45408.73
606.27	44924.24
606.43	45240.21
606.58	44940.63
606.74	44634.02
606.89	44758.06
607.05	45247.24
607.20	45074.04
607.36	45209.79
607.51	45324.47
607.67	45322.13
607.82	44942.97
607.98	45067.02
608.13	44760.40
608.29	44713.59
608.44	44659.76
608.60	44154.21
608.75	44509.97
608.91	44430.39
609.06	44676.15
609.22	45085.74
609.37	44568.48
609.53	44479.54
609.68	44917.22
609.84	45109.14
609.99	44451.45
610.15	44020.80
610.30	44568.48
610.46	44727.64
610.61	44257.19
610.76	44566.14
610.92	44428.05
611.07	44509.97
611.23	44498.26
611.38	44343.79
611.54	44526.35
611.69	44334.43
611.84	44671.46
612.00	44683.17
612.15	44549.76
612.31	44739.34
612.46	44514.65
612.62	44348.47
612.77	44442.09
612.92	44493.58
613.08	44414.01
613.23	44065.27
613.39	44296.98
613.54	44107.40
613.69	44334.43
613.85	44250.17
614.00	44280.60
614.15	44837.64
614.31	43957.60
614.46	44889.13
614.62	44329.75
614.77	44240.81
614.92	43861.64
615.08	43856.96
615.23	43868.66
615.38	44208.04
615.54	43992.71
615.69	43449.70
615.84	43796.10
616.00	44060.58
616.15	43838.23
616.30	43744.61
616.46	43583.12
616.61	43653.33
616.76	43320.98
616.92	43007.34
617.07	43449.70
617.22	43442.68
617.37	43697.80
617.53	44158.89
617.68	44027.82
617.83	43798.44
617.99	43363.11
618.14	43761.00
618.29	43529.28
618.45	43311.61
618.60	43199.27
618.75	43683.76
618.90	43562.05
619.06	43393.53
619.21	43658.01
619.36	43634.61
619.51	43407.58
619.67	43058.84
619.82	43196.93
619.97	43660.35
620.12	43496.52
620.28	42937.13
620.43	43086.92
620.58	43217.99
620.73	42967.55
620.89	43112.67
621.04	43372.47
621.19	43070.54
621.34	43302.25
621.49	42897.34
621.65	42607.11
621.80	43150.12
621.95	43082.24
622.10	43103.31
622.25	42611.79
622.41	42859.89
622.56	42651.58
622.71	42667.97
622.86	42979.26
623.01	43002.66
623.16	42775.63
623.32	42920.74
623.47	43260.12
623.62	42792.01
623.77	42569.66
623.92	42742.86
624.07	42223.26
624.23	42380.08
624.38	42513.49
624.53	42532.22
624.68	42291.14
624.83	42101.56
624.98	42494.77
625.13	42354.33
625.29	42529.87
625.44	42033.68
625.59	42099.22
625.74	41996.23
625.89	41949.42
626.04	41528.13
626.19	42171.77
626.34	42197.52
626.49	42043.04
626.65	42394.12
626.80	42045.38
626.95	42188.16
627.10	42019.64
627.25	41918.99
627.40	41874.52
627.55	42047.72
627.70	41588.98
627.85	41413.44
628.00	41879.21
628.15	42010.28
628.30	41378.33
628.45	42082.83
628.60	41918.99
628.76	41823.03
628.91	41876.86
629.06	41970.49
629.21	41586.64
629.36	41378.33
629.51	41539.83
629.66	41560.89
629.81	40928.95
629.96	41275.35
630.11	41432.16
630.26	41361.95
630.41	41771.54
630.56	41408.76
630.71	41471.95
630.86	41385.35
631.01	41219.17
631.16	41230.88
631.31	40959.38
631.46	41120.87
631.61	41221.52
631.76	41148.96
631.91	41060.02
632.06	41326.84
632.21	41706.01
632.36	41205.13
632.51	41064.70
632.66	41336.20
632.81	40648.08
632.96	40739.36
633.10	40720.64
633.25	40980.44
633.40	41282.37
633.55	41375.99
633.70	40748.73
633.85	40643.40
634.00	40964.06
634.15	41090.44
634.30	40788.52
634.45	40795.54
634.60	40781.49
634.75	40989.80
634.90	40446.80
635.05	40561.48
635.19	40526.38
635.34	40699.58
635.49	40713.62
635.64	40631.70
635.79	40495.95
635.94	40329.77
636.09	40435.10
636.24	40521.69
636.39	40058.27
636.53	40165.93
636.68	39997.41
636.83	40355.52
636.98	40184.66
637.13	39831.24
637.28	40210.40
637.43	40194.02
637.57	40477.22
637.72	40725.32
637.87	40325.09
638.02	40039.54
638.17	40395.31
638.32	40081.67
638.46	39995.07
638.61	40179.98
638.76	40048.91
638.91	39959.97
639.06	39997.41
639.20	40004.44
639.35	39915.50
639.50	39777.40
639.65	39943.58
639.80	40292.32
639.94	39690.80
640.09	39817.19
640.24	39665.06
640.39	39845.28
640.54	39966.99
640.68	39845.28
640.83	39746.98
640.98	39643.99
641.13	39227.38
641.27	40161.25
641.42	39171.21
641.57	39601.86
641.72	39431.01
641.86	39330.36
642.01	39313.98
642.16	39395.90
642.31	38595.43
642.45	39208.65
642.60	39250.78
642.75	39208.65
642.90	39061.20
643.04	39100.99
643.19	39103.33
643.34	39248.44
643.48	38857.57
643.63	38981.62
643.78	38513.52
643.93	38675.01
644.07	39072.90
644.22	38995.67
644.37	38850.55
644.51	38824.81
644.66	39061.20
644.81	39023.75
644.95	39063.54
645.10	39299.94
645.25	39124.40
645.39	38740.55
645.54	39096.31
645.69	38979.28
645.83	38675.01
645.98	38911.41
646.13	38859.91
646.27	38859.91
646.42	38766.29
646.57	38782.68
646.71	38773.31
646.86	38895.02
647.00	38934.81
647.15	38483.09
647.30	38644.59
647.44	38614.16
647.59	38457.34
647.74	38405.85
647.88	38604.80
648.03	38239.67
648.17	38302.87
648.32	38265.42
648.47	38316.91
648.61	38120.31
648.76	38529.90
648.90	38354.36
649.05	38075.84
649.20	38389.47
649.34	38082.86
649.49	38183.50
649.63	38010.30
649.78	37993.92
649.92	37900.29
650.07	38712.46
650.21	37787.95
650.36	37762.20
650.51	38281.80
650.65	38307.55
650.80	38071.15
650.94	38363.72
651.09	38141.37
651.23	37855.82
651.38	38038.39
651.52	37872.21
651.67	37921.36
651.81	37729.44
651.96	37308.14
652.10	37422.83
652.25	37378.36
652.39	37563.26
652.54	38019.66
652.68	38014.98
652.83	37771.57
652.97	37851.14
653.12	37816.04
653.26	37181.75
653.41	37357.29
653.55	37441.55
653.70	37074.09
653.84	37516.45
653.99	37574.96
654.13	37656.88
654.27	37148.98
654.42	37392.40
654.56	37277.71
654.71	37432.19
654.85	37179.41
655.00	37326.86
655.14	36844.71
655.29	36720.66
655.43	36760.45
655.57	36886.84
655.72	36694.92
655.86	36451.50
656.01	36924.29
656.15	36622.36
656.30	36678.54
656.44	36723.01
656.58	36692.58
656.73	36514.70
656.87	36645.77
657.01	36645.77
657.16	36818.97
657.30	36954.72
657.45	36467.89
657.59	36458.52
657.73	36280.64
657.88	36793.22
658.02	36603.64
658.16	36945.36
658.31	37116.22
658.45	36374.27
658.60	36442.14
658.74	36559.17
658.88	36746.41
659.03	36498.31
659.17	35880.41
659.31	36123.83
659.46	36634.06
659.60	36549.81
659.74	36718.32
659.89	36140.21
660.03	36053.61
660.17	36027.87
660.32	36032.55
660.46	36187.02
660.60	35910.84
660.74	35711.89
660.89	35814.88
661.03	35550.40
661.17	35765.73
661.32	35133.78
661.46	35901.48
661.60	35552.74
661.74	35569.12
661.89	35524.65
662.03	35744.66
662.17	35236.77
662.31	35335.07
662.46	35768.07
662.60	35428.69
662.74	35328.05
662.88	35431.03
663.03	34789.72
663.17	34857.60
663.31	34836.53
663.45	34897.39
663.60	34969.94
663.74	35009.73
663.88	34630.57
664.02	34689.08
664.17	35145.48
664.31	34543.97
664.45	34558.01
664.59	34796.74
664.73	34541.63
664.88	34679.72
665.02	34473.75
665.16	34469.07
665.30	34225.65
665.44	34312.25
665.59	34293.53
665.73	34192.89
665.87	34185.86
666.01	34040.75
666.15	34249.06
666.29	34249.06
666.44	34342.68
666.58	33979.90
666.72	33958.83
666.86	34106.29
667.00	34033.73
667.14	33399.44
667.28	33270.72
667.43	33457.96
667.57	33734.14
667.71	33511.79
667.85	33474.34
667.99	33275.40
668.13	33301.14
668.27	33137.30
668.41	33294.12
668.56	33008.58
668.70	33511.79
668.84	33654.56
668.98	33036.66
669.12	32814.31
669.26	32947.72
669.40	32896.23
669.54	32634.09
669.68	32919.63
669.82	32238.54
669.96	32224.50
670.10	32746.44
670.25	32378.97
670.39	32603.66
670.53	32591.96
670.67	32652.81
670.81	32552.17
670.95	32196.41
671.09	32397.70
671.23	32074.70
671.37	32198.75
671.51	32041.93
671.65	32320.46
671.79	31625.32
671.93	31887.46
672.07	31850.01
672.21	31955.33
672.35	31967.04
672.49	31988.10
672.63	31721.28
672.77	31592.55
672.91	31496.59
673.05	31363.18
673.19	31342.11
673.33	31168.91
673.47	31250.83
673.61	31094.02
673.75	30815.49
673.89	30937.20
674.03	30644.63
674.17	30892.73
674.31	30682.08
674.45	30787.41
674.59	31194.66
674.73	31264.88
674.87	30600.16
675.01	30251.42
675.15	30473.78
675.29	30728.89
675.43	30181.21
675.56	30094.61
675.70	30443.35
675.84	30359.09
675.98	29193.50
676.12	30162.48
676.26	29696.72
676.40	29914.39
676.54	29890.98
676.68	29708.42
676.82	29067.11
676.96	29443.94
677.10	29359.68
677.23	29008.60
677.37	29249.67
677.51	28891.57
677.65	28666.88
677.79	28222.18
677.93	28914.98
678.07	28610.71
678.21	28783.91
678.34	28491.34
678.48	28233.88
678.62	28407.08
678.76	28013.87
678.90	27946.00
679.04	28020.89
679.18	27978.76
679.31	27644.07
679.45	27957.70
679.59	27688.54
679.73	27812.59
679.87	27484.91
680.00	27115.11
680.14	27475.55
680.28	27381.93
680.42	27180.64
680.56	26930.20
680.70	27168.94
680.83	27187.66
680.97	27353.84
681.11	27297.67
681.25	26703.17
681.39	26789.77
681.52	27023.83
681.66	26338.05
681.80	26466.78
681.94	26412.95
682.07	26796.79
682.21	26183.57
682.35	26111.02
682.49	26361.45
682.62	26520.61
682.76	26101.65
682.90	25619.50
683.04	26087.61
683.17	25504.82
683.31	25390.13
683.45	25680.36
683.59	25123.31
683.72	25062.46
683.86	25408.86
684.00	25343.32
684.13	25193.53
684.27	24723.08
684.41	24893.94
684.55	24613.07
684.68	24823.72
684.82	24856.49
684.96	24631.80
685.09	24823.72
685.23	24514.77
685.37	24638.82
685.50	24437.53
685.64	24105.18
685.78	23763.46
685.91	23967.09
686.05	23981.13
686.19	23543.45
686.32	23770.48
686.46	23264.92
686.60	23449.83
686.73	23363.23
686.87	23157.26
687.01	22864.69
687.14	22951.29
687.28	22920.87
687.42	22988.74
687.55	22883.42
687.69	22977.04
687.82	22965.34
687.96	22719.58
688.10	22637.66
688.23	22703.20
688.37	21991.67
688.50	22148.49
688.64	22401.27
688.78	22242.11
688.91	22314.67
689.05	22082.95
689.18	22068.91
689.32	21671.02
689.46	22162.53
689.59	21783.37
689.73	21853.58
689.86	21839.54
690.00	21242.70
690.13	21774.00
690.27	21282.49
690.41	21254.40
690.54	21062.48
690.68	20933.75
690.81	20886.94
690.95	20423.51
691.08	20629.48
691.22	20793.32
691.35	20882.26
691.49	20989.92
691.62	20655.23
691.76	20336.91
691.89	20582.67
692.03	20278.40
692.16	20233.93
692.30	19714.33
692.43	20276.06
692.57	20095.84
692.70	19744.76
692.84	20044.35
692.97	19683.91
693.11	19496.66
693.24	19594.96
693.38	19377.30
693.51	19218.14
693.65	19335.17
693.78	19674.54
693.92	19569.22
694.05	19180.69
694.19	19372.61
694.32	18953.66
694.45	19002.81
694.59	18628.32
694.72	18574.49
694.86	18838.97
694.99	18537.04
695.13	18256.18
695.26	18356.82
695.39	18305.33
695.53	18640.03
695.66	18319.37
695.80	18562.79
695.93	18132.13
696.07	18195.32
696.20	17970.63
696.33	17869.99
696.47	17603.17
696.60	17727.22
696.73	17591.47
696.87	17659.34
697.00	17605.51
697.14	17734.24
697.27	17563.38
697.40	17462.74
697.54	17343.37
697.67	17071.87
697.80	16898.67
697.94	16882.28
698.07	16601.42
698.21	16709.08
698.34	16730.15
698.47	16601.42
698.61	16470.35
698.74	16334.60
698.87	16582.70
699.01	16297.15
699.14	16493.76
699.27	16315.87
699.40	15896.92
699.54	15943.73
699.67	16002.24
699.80	15768.19
699.94	15985.86
700.07	15751.81
700.20	15871.17
700.34	15857.13
700.47	15761.17
700.60	15903.94
700.73	16060.76
700.87	15477.96
701.00	15484.98
701.13	15447.54
701.26	15300.08
701.40	15136.24
701.53	14822.61
701.66	15180.71
701.79	14780.48
701.93	15073.05
702.06	14923.26
702.19	14918.57
702.32	15026.24
702.46	14705.59
702.59	14551.11
702.72	14370.89
702.85	14609.62
702.99	14750.06
703.12	14586.22
703.25	14370.89
703.38	14387.27
703.51	14239.82
703.65	14253.86
703.78	14134.50
703.91	14136.84
704.04	14108.75
704.17	14120.45
704.31	13984.70
704.44	13689.79
704.57	13958.96
704.70	13518.93
704.83	13598.51
704.96	13619.58
705.10	13579.79
705.23	13554.04
>>>>>End Processed Spectral Data<<<<<
