SpectraSuite Data File
++++++++++++++++++++++++++++++++++++
Date: Fri Oct 25 10:44:39 EDT 2013
User: price-jones
Dark Spectrum Present: No
Reference Spectrum Present: No
Number of Sampled Component Spectra: 1
Spectrometers: USB2+H05261
Integration Time (usec): 100000 (USB2+H05261)
Spectra Averaged: 1 (USB2+H05261)
Boxcar Smoothing: 0 (USB2+H05261)
Correct for Electrical Dark: No (USB2+H05261)
Strobe/Lamp Enabled: No (USB2+H05261)
Correct for Detector Non-linearity: No (USB2+H05261)
Correct for Stray Light: No (USB2+H05261)
Number of Pixels in Processed Spectrum: 2048
>>>>>Begin Processed Spectral Data<<<<<
365.73	156.82
365.92	156.82
366.12	156.82
366.32	49.15
366.52	21.06
366.72	2.34
366.91	0.00
367.11	25.75
367.31	49.15
367.51	2.34
367.70	30.43
367.90	51.49
368.10	0.00
368.30	72.56
368.49	60.85
368.69	86.60
368.89	74.90
369.09	0.00
369.28	0.00
369.48	42.13
369.68	81.92
369.87	91.28
370.07	91.28
370.27	119.37
370.47	145.11
370.66	304.27
370.86	362.78
371.06	433.00
371.25	437.68
371.45	477.47
371.65	454.06
371.84	437.68
372.04	440.02
372.24	503.22
372.44	552.37
372.63	491.51
372.83	400.23
373.03	510.24
373.22	402.57
373.42	514.92
373.62	575.77
373.81	571.09
374.01	528.96
374.21	512.58
374.40	535.98
374.60	566.41
374.79	585.13
374.99	540.66
375.19	519.60
375.38	554.71
375.58	568.75
375.78	580.45
375.97	573.43
376.17	582.79
376.37	540.66
376.56	535.98
376.76	559.39
376.95	599.18
377.15	692.80
377.35	634.29
377.54	610.88
377.74	622.58
377.93	528.96
378.13	608.54
378.33	571.09
378.52	660.03
378.72	580.45
378.91	573.43
379.11	564.07
379.31	606.20
379.50	608.54
379.70	580.45
379.89	683.44
380.09	620.24
380.28	603.86
380.48	645.99
380.68	662.37
380.87	634.29
381.07	660.03
381.26	669.39
381.46	713.86
381.65	732.59
381.85	664.71
382.04	704.50
382.24	709.18
382.43	660.03
382.63	638.97
382.83	634.29
383.02	709.18
383.22	760.67
383.41	758.33
383.61	655.35
383.80	709.18
384.00	624.92
384.19	748.97
384.39	777.06
384.58	748.97
384.78	713.86
384.97	751.31
385.17	730.25
385.36	699.82
385.56	732.59
385.75	767.70
385.95	770.04
386.14	753.65
386.34	779.40
386.53	774.72
386.72	704.50
386.92	767.70
387.11	830.89
387.31	819.19
387.50	828.55
387.70	795.78
387.89	849.61
388.09	807.48
388.28	774.72
388.48	805.14
388.67	912.81
388.86	823.87
389.06	858.98
389.25	786.42
389.45	798.12
389.64	851.96
389.84	891.74
390.03	915.15
390.22	915.15
390.42	805.14
390.61	880.04
390.81	896.43
391.00	945.58
391.19	973.66
391.39	903.45
391.58	926.85
391.78	938.55
391.97	940.90
392.16	954.94
392.36	1055.58
392.55	1011.11
392.75	915.15
392.94	999.41
393.13	987.71
393.33	863.66
393.52	929.19
393.71	936.21
393.91	1083.67
394.10	1015.79
394.29	1064.94
394.49	1055.58
394.68	1055.58
394.88	1118.78
395.07	1060.26
395.26	1123.46
395.46	1001.75
395.65	1095.37
395.84	1128.14
396.04	1167.93
396.23	1158.57
396.42	1074.31
396.62	1123.46
396.81	1078.99
397.00	1050.90
397.19	1179.63
397.39	1198.35
397.58	1144.52
397.77	1177.29
397.97	1334.11
398.16	1296.66
398.35	1277.93
398.55	1214.74
398.74	1299.00
398.93	1378.58
399.12	1259.21
399.32	1357.51
399.51	1416.02
399.70	1303.68
399.90	1291.98
400.09	1308.36
400.28	1483.90
400.47	1364.53
400.67	1397.30
400.86	1425.39
401.05	1460.49
401.24	1502.62
401.44	1406.66
401.63	1528.37
401.82	1474.54
402.01	1467.52
402.21	1570.50
402.40	1509.65
402.59	1451.13
402.78	1621.99
402.97	1542.41
403.17	1584.54
403.36	1551.78
403.55	1582.20
403.74	1661.78
403.93	1568.16
404.13	1563.48
404.32	1652.42
404.51	1570.50
404.70	1757.74
404.89	1769.44
405.09	1781.15
405.28	1746.04
405.47	1776.47
405.66	1717.95
405.85	1741.36
406.05	1713.27
406.24	1741.36
406.43	1750.72
406.62	1729.66
406.81	1872.43
407.00	1842.00
407.20	1856.04
407.39	1757.74
407.58	1832.64
407.77	1888.81
407.96	1942.64
408.15	2078.40
408.34	1919.24
408.54	2003.50
408.73	2036.27
408.92	1942.64
409.11	1933.28
409.30	2073.71
409.49	1987.11
409.68	1973.07
409.87	2022.22
410.07	2010.52
410.26	2087.76
410.45	2150.95
410.64	2150.95
410.83	2190.74
411.02	2263.30
411.21	2260.96
411.40	2366.28
411.59	2370.96
411.78	2188.40
411.98	2251.60
412.17	2361.60
412.36	2291.38
412.55	2373.30
412.74	2326.49
412.93	2471.61
413.12	2396.71
413.31	2534.80
413.50	2422.45
413.69	2520.76
413.88	2558.21
414.07	2553.52
414.26	2544.16
414.45	2436.50
414.64	2696.30
414.83	2703.32
415.02	2712.68
415.22	2785.24
415.41	2745.45
415.60	2677.57
415.79	2717.36
415.98	2829.71
416.17	2752.47
416.36	2923.33
416.55	2794.60
416.74	3082.49
416.93	2813.32
417.12	3000.57
417.31	2890.56
417.50	2960.78
417.69	2960.78
417.88	2995.89
418.07	3049.72
418.26	3033.33
418.45	3171.43
418.64	3197.17
418.83	3054.40
419.02	3183.13
419.21	3183.13
419.39	3204.19
419.58	3234.62
419.77	3056.74
419.96	3417.18
420.15	3262.71
420.34	3243.98
420.53	3384.41
420.72	3414.84
420.91	3323.56
421.10	3297.81
421.29	3431.23
421.48	3435.91
421.67	3454.63
421.86	3412.50
422.05	3435.91
422.24	3349.31
422.43	3260.37
422.61	3552.93
422.80	3487.40
422.99	3534.21
423.18	3494.42
423.37	3454.63
423.56	3548.25
423.75	3515.48
423.94	3506.12
424.13	3103.55
424.32	3438.25
424.50	3463.99
424.69	3613.79
424.88	3644.21
425.07	3527.19
425.26	3386.76
425.45	3569.32
425.64	3414.84
425.83	3501.44
426.01	3709.75
426.20	3534.21
426.39	3562.30
426.58	3485.06
426.77	3660.60
426.96	3583.36
427.15	3625.49
427.33	3552.93
427.52	3632.51
427.71	3681.66
427.90	3630.17
428.09	3847.84
428.28	3679.32
428.46	3871.25
428.65	3754.22
428.84	3894.65
429.03	3775.28
429.22	3637.19
429.40	3744.86
429.59	3794.01
429.78	3716.77
429.97	3520.17
430.16	3639.53
430.34	3646.55
430.53	3772.94
430.72	3824.44
430.91	3866.56
431.10	3927.42
431.28	4114.66
431.47	4037.42
431.66	4072.53
431.85	4002.32
432.03	4152.11
432.22	4367.44
432.41	4196.58
432.60	4201.26
432.79	4229.35
432.97	4222.33
433.16	4311.27
433.35	4245.73
433.54	4077.21
433.72	4257.43
433.91	4236.37
434.10	4210.62
434.28	4234.03
434.47	4372.12
434.66	4329.99
434.85	4402.55
435.03	4402.55
435.22	4585.11
435.41	4550.00
435.59	4542.98
435.78	4512.55
435.97	4500.85
436.16	4526.60
436.34	4514.89
436.53	4643.62
436.72	4669.37
436.90	4505.53
437.09	4613.20
437.28	4667.03
437.46	4580.43
437.65	4734.90
437.84	4720.86
438.02	4519.57
438.21	4575.75
438.40	4601.49
438.58	4788.74
438.77	4777.03
438.96	4894.06
439.14	5020.45
439.33	5156.20
439.52	5050.88
439.70	5114.07
439.89	5156.20
440.08	5046.20
440.26	5214.71
440.45	5050.88
440.63	5235.78
440.82	5149.18
441.01	5334.08
441.19	5334.08
441.38	5425.36
441.57	5441.75
441.75	5598.56
441.94	5605.58
442.12	5518.98
442.31	5603.24
442.50	5647.71
442.68	5542.39
442.87	5671.12
443.05	5661.76
443.24	5668.78
443.43	5755.38
443.61	5870.06
443.80	5968.37
443.98	5488.56
444.17	5486.22
444.35	5654.73
444.54	5907.51
444.73	5844.32
444.91	5731.97
445.10	5652.39
445.28	5764.74
445.47	5762.40
445.65	5806.87
445.84	5898.15
446.02	6092.41
446.21	5820.91
446.39	5860.70
446.58	5926.24
446.77	5954.32
446.95	5879.43
447.14	6008.16
447.32	6080.71
447.51	5827.93
447.69	6017.52
447.88	5968.37
448.06	6113.48
448.25	5940.28
448.43	6160.29
448.62	5942.62
448.80	6033.90
448.99	5982.41
449.17	6169.65
449.36	6111.14
449.54	6174.33
449.73	6277.32
449.91	6235.19
450.10	6349.87
450.28	6565.20
450.46	6237.53
450.65	6258.59
450.83	6490.31
451.02	6415.41
451.20	6537.12
451.39	6438.81
451.57	6284.34
451.76	6338.17
451.94	6476.26
452.13	6541.80
452.31	6424.77
452.49	6366.26
452.68	6441.15
452.86	6595.63
453.05	6565.20
453.23	6392.00
453.42	6478.60
453.60	6544.14
453.78	6670.53
453.97	6707.98
454.15	6651.80
454.34	6607.33
454.52	6698.61
454.70	6511.37
454.89	6768.83
455.07	6654.14
455.26	7035.65
455.44	7007.56
455.62	6944.37
455.81	6993.52
455.99	6939.69
456.17	7000.54
456.36	6939.69
456.54	7250.98
456.73	7066.08
456.91	7325.88
457.09	7215.87
457.28	7461.63
457.46	7208.85
457.64	7295.45
457.83	7304.81
458.01	7152.68
458.19	7344.60
458.38	7339.92
458.56	7391.41
458.74	7445.24
458.93	7648.87
459.11	7543.55
459.29	7506.10
459.48	7735.47
459.66	7478.01
459.84	7410.14
460.03	7770.58
460.21	7665.25
460.39	7499.08
460.57	7529.50
460.76	7726.11
460.94	7873.56
461.12	7777.60
461.31	7719.09
461.49	7751.85
461.67	7737.81
461.85	7880.58
462.04	7733.13
462.22	8100.59
462.40	7906.33
462.59	7882.92
462.77	7859.52
462.95	7833.77
463.13	7922.71
463.32	8109.96
463.50	8028.04
463.68	8149.75
463.86	8184.85
464.05	7967.18
464.23	8142.72
464.41	8011.65
464.59	7833.77
464.78	8112.30
464.96	8234.00
465.14	8184.85
465.32	8308.90
465.50	8306.56
465.69	8187.19
465.87	8294.86
466.05	8355.71
466.23	8351.03
466.41	8229.32
466.60	8500.83
466.78	8238.69
466.96	8318.26
467.14	8454.02
467.32	8533.59
467.51	8482.10
467.69	8280.82
467.87	8381.46
468.05	8517.21
468.23	8482.10
468.41	8535.93
468.60	8458.70
468.78	8732.54
468.96	8435.29
469.14	8737.22
469.32	8648.28
469.50	8711.47
469.69	8964.25
469.87	8669.34
470.05	8908.08
470.23	8788.71
470.41	8748.92
470.59	8865.95
470.77	8723.18
470.95	8943.19
471.14	9188.94
471.32	9029.79
471.50	9252.14
471.68	9252.14
471.86	9240.44
472.04	9434.70
472.22	9586.83
472.40	9268.52
472.58	9451.08
472.77	9329.38
472.95	9607.90
473.13	9802.16
473.31	9495.55
473.49	9537.68
473.67	9848.97
473.85	9385.55
474.03	9928.55
474.21	10012.81
474.39	10033.88
474.57	9898.13
474.75	10061.96
474.93	10291.34
475.12	10134.52
475.30	10298.36
475.48	10153.24
475.66	10139.20
475.84	10108.77
476.02	10359.21
476.20	10293.68
476.38	10523.05
476.56	10738.38
476.74	10768.80
476.92	10932.64
477.10	10635.39
477.28	10810.93
477.46	10874.13
477.64	11101.16
477.82	11063.71
478.00	11389.05
478.18	11194.78
478.36	11424.15
478.54	11190.10
478.72	11424.15
478.90	11885.24
479.08	11721.40
479.26	11843.11
479.44	11693.32
479.62	11997.59
479.80	11847.79
479.98	12037.38
480.16	12233.98
480.34	12269.09
480.52	12430.59
480.70	12376.75
480.88	12203.55
481.06	12657.62
481.24	12547.61
481.41	12837.84
481.59	12966.57
481.77	12898.69
481.95	12856.56
482.13	13137.43
482.31	13128.06
482.49	13380.84
482.67	13493.19
482.85	13483.83
483.03	13769.37
483.21	13582.13
483.39	13965.98
483.57	13870.01
483.74	14169.60
483.92	14207.05
484.10	13977.68
484.28	14438.76
484.46	14600.26
484.64	14888.15
484.82	14501.96
485.00	14567.49
485.18	14881.13
485.35	15033.26
485.53	14839.00
485.71	14963.04
485.89	14939.64
486.07	15335.19
486.25	15466.26
486.43	15562.22
486.61	15604.35
486.78	15749.46
486.96	15810.32
487.14	16116.93
487.32	16074.80
487.50	16360.34
487.68	16409.50
487.85	16695.04
488.03	17001.65
488.21	16985.27
488.39	17020.38
488.57	16926.75
488.75	17242.73
488.92	17420.61
489.10	17509.55
489.28	17865.31
489.46	17738.92
489.64	17652.32
489.81	18047.87
489.99	18207.03
490.17	18412.99
490.35	18691.52
490.53	18618.96
490.70	18345.12
490.88	18335.76
491.06	18937.27
491.24	18860.04
491.41	19082.39
491.59	18897.49
491.77	19159.63
491.95	19183.03
492.13	19426.45
492.30	19733.06
492.48	19665.18
492.66	19578.58
492.84	19765.82
493.01	19873.49
493.19	20093.50
493.37	20119.24
493.54	20306.49
493.72	20844.81
493.90	20631.82
494.08	20669.27
494.25	20952.48
494.43	20957.16
494.61	21432.29
494.79	21399.52
494.96	21097.59
495.14	21053.12
495.32	22047.85
495.49	21755.28
495.67	21434.63
495.85	21795.07
496.02	22045.51
496.20	22359.14
496.38	22118.06
496.55	22487.87
496.73	22785.12
496.91	22616.60
497.09	22675.11
497.26	22714.90
497.44	22782.77
497.62	23040.23
497.79	23253.22
497.97	22902.14
498.14	23227.48
498.32	23321.10
498.50	23494.30
498.67	23770.48
498.85	23840.70
499.03	23709.63
499.20	23716.65
499.38	24212.84
499.56	24027.94
499.73	23990.49
499.91	24484.34
500.08	24510.09
500.26	24238.59
500.44	24404.77
500.61	24322.85
500.79	24400.08
500.97	24533.50
501.14	24669.25
501.32	24992.24
501.49	25008.62
501.67	24795.64
501.84	25528.22
502.02	25495.46
502.20	25776.32
502.37	25694.40
502.55	25479.07
502.72	25523.54
502.90	25589.08
503.07	25806.75
503.25	26066.55
503.43	25940.16
503.60	26120.38
503.78	26122.72
503.95	26324.01
504.13	26178.89
504.30	26218.68
504.48	26513.59
504.65	26529.97
504.83	26663.38
505.01	26742.96
505.18	26618.91
505.36	27115.11
505.53	27035.53
505.71	27227.45
505.88	26909.14
506.06	26951.27
506.23	27351.50
506.41	27262.56
506.58	27435.76
506.76	27349.16
506.93	27604.28
507.11	27728.33
507.28	27271.92
507.46	27683.86
507.63	27370.22
507.81	27899.19
507.98	27332.78
508.16	28018.55
508.33	28058.34
508.50	28393.04
508.68	28493.68
508.85	28414.10
509.03	28430.49
509.20	28669.22
509.38	28961.79
509.55	28786.25
509.73	28821.36
509.90	28819.02
510.08	28945.41
510.25	28891.57
510.42	28863.49
510.60	29130.31
510.77	29507.13
510.95	29575.01
511.12	29244.99
511.30	29355.00
511.47	29663.95
511.64	29905.02
511.82	30045.46
511.99	29701.40
512.17	29853.53
512.34	29699.06
512.51	30251.42
512.69	30087.59
512.86	30106.31
513.04	30501.86
513.21	30319.30
513.38	30607.19
513.56	30457.39
513.73	30441.01
513.90	30562.72
514.08	30244.40
514.25	30984.01
514.43	30696.13
514.60	30466.75
514.77	30658.68
514.95	31239.13
515.12	31087.00
515.29	31161.89
515.47	31531.70
515.64	31681.49
515.81	31051.89
515.99	31323.39
516.16	31468.50
516.33	31435.74
516.51	31398.29
516.68	31339.77
516.85	31063.59
517.03	31253.17
517.20	31974.06
517.37	31866.39
517.54	32093.43
517.72	31728.30
517.89	32158.96
518.06	31618.30
518.24	32023.21
518.41	31655.75
518.58	32428.12
518.75	31971.72
518.93	32802.61
519.10	32676.22
519.27	32664.52
519.45	32652.81
519.62	32826.01
519.79	32917.29
519.96	32629.41
520.14	33017.94
520.31	32514.72
520.48	32996.87
520.65	33031.98
520.83	33579.67
521.00	33207.52
521.17	33411.15
521.34	33109.22
521.52	33600.73
521.69	33462.64
521.86	33727.12
522.03	33757.55
522.20	33708.40
522.38	33825.42
522.55	34050.11
522.72	33837.12
522.89	34050.11
523.07	34204.59
523.24	33890.96
523.41	34195.23
523.58	34162.46
523.75	34579.07
523.92	34553.33
524.10	34546.31
524.27	34588.44
524.44	34616.52
524.61	35056.54
524.78	34979.31
524.96	34888.03
525.13	35257.83
525.30	34927.81
525.47	35374.86
525.64	34885.68
525.81	35021.44
525.98	35023.78
526.16	34958.24
526.33	35239.11
526.50	35035.48
526.67	34740.57
526.84	35372.52
527.01	35339.75
527.18	35239.11
527.36	35622.95
527.53	35480.18
527.70	35761.05
527.87	36091.06
528.04	35861.69
528.21	35988.08
528.38	35880.41
528.55	36046.59
528.72	36182.34
528.89	36706.62
529.07	36196.38
529.24	36311.07
529.41	36107.44
529.58	35852.33
529.75	36329.80
529.92	36297.03
530.09	36737.05
530.26	36224.47
530.43	36711.30
530.60	36926.63
530.77	36730.03
530.94	36446.82
531.11	36786.20
531.28	36697.26
531.46	37254.31
531.63	36790.88
531.80	37127.92
531.97	36870.46
532.14	37359.63
532.31	36891.52
532.48	37308.14
532.65	37539.85
532.82	37368.99
532.99	37081.11
533.16	36975.78
533.33	37579.64
533.50	37343.25
533.67	37717.73
533.84	37301.12
534.01	37556.24
534.18	37151.32
534.35	37642.84
534.52	37392.40
534.69	37778.59
534.86	37823.06
535.03	37605.39
535.20	38150.73
535.37	38101.58
535.54	38040.73
535.71	38197.54
535.88	38031.36
536.05	38239.67
536.22	38345.00
536.38	38363.72
536.55	38178.82
536.72	37977.53
536.89	37944.76
537.06	38188.18
537.23	38274.78
537.40	38202.22
537.57	38323.93
537.74	38459.68
537.91	38569.69
538.08	38735.87
538.25	38370.74
538.42	38267.76
538.59	39178.23
538.75	38403.51
538.92	38712.46
539.09	38675.01
539.26	39110.35
539.43	38923.11
539.60	38878.64
539.77	38607.14
539.94	39267.17
540.11	38789.70
540.28	39166.52
540.44	38939.49
540.61	39140.78
540.78	39290.57
540.95	38986.30
541.12	39054.18
541.29	39136.10
541.46	39187.59
541.62	39047.16
541.79	39552.71
541.96	39098.65
542.13	39660.38
542.30	39122.05
542.47	39538.67
542.63	39189.93
542.80	40126.14
542.97	40673.83
543.14	39999.76
543.31	40079.33
543.48	40034.86
543.64	40226.79
543.81	40587.23
543.98	40807.24
544.15	40409.35
544.32	40692.55
544.48	40582.55
544.65	40547.44
544.82	40591.91
544.99	40439.78
545.16	40575.53
545.32	40519.35
545.49	41429.82
545.66	40891.50
545.83	41202.79
546.00	41256.62
546.16	40818.94
546.33	40746.39
546.50	40245.51
546.67	40437.44
546.83	40348.50
547.00	40935.97
547.17	40886.82
547.34	40889.16
547.50	41083.42
547.67	41060.02
547.84	41071.72
548.00	41038.95
548.17	41584.30
548.34	41235.56
548.51	41315.14
548.67	41607.70
548.84	41518.76
549.01	41247.26
549.18	41263.64
549.34	41474.29
549.51	41450.89
549.68	41443.87
549.84	41598.34
550.01	41593.66
550.18	41408.76
550.34	41876.86
550.51	41792.61
550.68	41497.70
550.84	41539.83
551.01	41743.45
551.18	41443.87
551.34	41792.61
551.51	41874.52
551.68	41916.65
551.84	41911.97
552.01	41549.19
552.18	41741.11
552.34	41516.42
552.51	41911.97
552.68	41413.44
552.84	42370.72
553.01	42370.72
553.18	41890.91
553.34	42199.86
553.51	41736.43
553.67	42349.65
553.84	42211.56
554.01	42167.09
554.17	42209.22
554.34	42932.45
554.51	42490.09
554.67	42590.73
554.84	42038.36
555.00	42508.81
555.17	42239.65
555.33	42536.90
555.50	42232.63
555.67	42443.27
555.83	41708.35
556.00	42932.45
556.16	43320.98
556.33	42213.90
556.50	42600.09
556.66	42787.33
556.83	42155.39
556.99	42801.38
557.16	42658.60
557.32	42745.20
557.49	42628.18
557.65	42436.25
557.82	42852.87
557.98	42733.50
558.15	42782.65
558.32	43040.11
558.48	42590.73
558.65	42642.22
558.81	42848.19
558.98	43122.03
559.14	42707.76
559.31	42990.96
559.47	42642.22
559.64	43143.09
559.80	43276.51
559.97	42801.38
560.13	43021.39
560.30	42614.13
560.46	43012.02
560.63	43199.27
560.79	43278.85
560.96	43374.81
561.12	43225.01
561.29	43019.05
561.45	43304.59
561.61	43164.16
561.78	43138.41
561.94	42953.51
562.11	42974.58
562.27	43365.45
562.44	43262.46
562.60	43679.08
562.77	43182.88
562.93	43274.16
563.10	43562.05
563.26	42642.22
563.42	43187.56
563.59	43239.06
563.75	43115.01
563.92	43856.96
564.08	43632.27
564.24	43667.37
564.41	43519.92
564.57	43407.58
564.74	43585.46
564.90	43658.01
565.07	43761.00
565.23	43435.66
565.39	43243.74
565.56	43672.06
565.72	43178.20
565.88	43487.15
566.05	43262.46
566.21	43859.30
566.38	43489.49
566.54	43491.83
566.70	43739.93
566.87	43697.80
567.03	43456.73
567.19	43922.49
567.36	43601.84
567.52	43737.59
567.68	43969.30
567.85	43257.78
568.01	43915.47
568.17	43524.60
568.34	43950.58
568.50	43826.53
568.66	43414.60
568.83	43742.27
568.99	43313.95
569.15	43700.14
569.32	43889.73
569.48	43732.91
569.64	43901.43
569.81	44158.89
569.97	44147.18
570.13	43648.65
570.30	43625.25
570.46	43508.22
570.62	43538.65
570.78	43629.93
570.95	43512.90
571.11	43990.37
571.27	43889.73
571.43	44030.16
571.60	43744.61
571.76	43676.74
571.92	44196.34
572.09	43786.74
572.25	43550.35
572.41	43477.79
572.57	43557.37
572.74	44091.01
572.90	44126.12
573.06	43894.41
573.22	43765.68
573.38	44032.50
573.55	43899.09
573.71	43728.23
573.87	43840.57
574.03	43784.40
574.20	43363.11
574.36	43856.96
574.52	43564.39
574.68	43721.21
574.84	43854.62
575.01	43976.33
575.17	44023.14
575.33	43611.20
575.49	44102.71
575.65	43908.45
575.82	43981.01
575.98	43786.74
576.14	44219.74
576.30	43812.49
576.46	43892.07
576.62	43796.10
576.79	43786.74
576.95	43746.95
577.11	43887.39
577.27	43690.78
577.43	43899.09
577.59	44091.01
577.75	44421.03
577.92	43629.93
578.08	44034.84
578.24	43920.15
578.40	43945.90
578.56	44252.51
578.72	43695.46
578.88	44402.30
579.04	44123.78
579.21	43929.51
579.37	43992.71
579.53	44154.21
579.69	43971.64
579.85	44058.24
580.01	44231.44
580.17	44186.97
580.33	44098.03
580.49	44177.61
580.65	44165.91
580.82	44385.92
580.98	43952.92
581.14	44060.58
581.30	44060.58
581.46	44203.36
581.62	43938.88
581.78	44549.76
581.94	44346.13
582.10	44105.06
582.26	44098.03
582.42	44055.90
582.58	44467.84
582.74	43892.07
582.90	44493.58
583.06	44264.21
583.22	44208.04
583.38	44381.24
583.54	44034.84
583.70	44634.02
583.86	44072.29
584.02	43679.08
584.18	44418.69
584.34	44051.22
584.50	44105.06
584.66	44229.10
584.82	44318.04
584.98	44348.47
585.14	44786.15
585.30	43721.21
585.46	44296.98
585.62	44158.89
585.78	44404.64
585.94	43791.42
586.10	43999.73
586.26	44414.01
586.42	44250.17
586.58	44472.52
586.74	44690.19
586.90	44252.51
587.06	43924.83
587.22	44559.12
587.38	44046.54
587.54	44275.91
587.70	44418.69
587.86	44446.77
588.02	44388.26
588.18	44704.23
588.34	44172.93
588.49	43983.35
588.65	44072.29
588.81	43707.16
588.97	44645.72
589.13	43955.26
589.29	44133.14
589.45	44355.49
589.61	44343.79
589.77	44442.09
589.93	44758.06
590.08	44587.21
590.24	44378.90
590.40	44542.74
590.56	44629.34
590.72	45111.49
590.88	44287.62
591.04	44390.60
591.20	44931.26
591.35	45008.50
591.51	44610.61
591.67	44491.24
591.83	44526.35
591.99	44357.83
592.15	44591.89
592.31	44308.68
592.46	44334.43
592.62	44519.33
592.78	44308.68
592.94	44402.30
593.10	44100.37
593.26	44582.52
593.41	44615.29
593.57	44030.16
593.73	44779.13
593.89	44322.72
594.05	44671.46
594.20	44196.34
594.36	44800.19
594.52	44708.91
594.68	44409.32
594.84	44706.57
594.99	45069.36
595.15	44765.09
595.31	44458.48
595.47	44409.32
595.62	45008.50
595.78	44563.80
595.94	45099.78
596.10	44811.90
596.25	44765.09
596.41	44301.66
596.57	44949.99
596.73	44964.03
596.88	44074.63
597.04	44987.44
597.20	44847.00
597.36	44603.59
597.51	44952.33
597.67	44854.03
597.83	45251.92
597.99	44713.59
598.14	44875.09
598.30	44327.41
598.46	44603.59
598.61	44938.29
598.77	44463.16
598.93	44786.15
599.09	44744.02
599.24	45209.79
599.40	44870.41
599.56	45008.50
599.71	44451.45
599.87	45092.76
600.03	44746.36
600.18	44865.73
600.34	44854.03
600.50	44760.40
600.65	44685.51
600.81	44945.31
600.97	44985.10
601.12	44779.13
601.28	44877.43
601.44	44875.09
601.59	44369.54
601.75	44580.18
601.91	44666.78
602.06	44711.25
602.22	44645.72
602.37	44229.10
602.53	44704.23
602.69	45102.12
602.84	44528.69
603.00	44538.05
603.16	44767.43
603.31	44676.15
603.47	44304.00
603.62	44385.92
603.78	44715.93
603.94	44671.46
604.09	44992.12
604.25	44818.92
604.40	44467.84
604.56	44626.99
604.71	45036.59
604.87	44463.16
605.03	44575.50
605.18	44416.35
605.34	44790.83
605.49	44507.63
605.65	44823.60
605.80	44500.61
605.96	44849.35
606.12	44928.92
606.27	44577.84
606.43	44608.27
606.58	44208.04
606.74	44554.44
606.89	44378.90
607.05	44332.09
607.20	44549.76
607.36	44584.86
607.51	44505.29
607.67	44589.55
607.82	44634.02
607.98	44268.89
608.13	44233.78
608.29	44282.94
608.44	44112.08
608.60	44004.41
608.75	44030.16
608.91	44327.41
609.06	44172.93
609.22	43892.07
609.37	44018.46
609.53	44261.87
609.68	44275.91
609.84	44212.72
609.99	44175.27
610.15	44060.58
610.30	44289.96
610.46	43674.40
610.61	43875.68
610.76	44266.55
610.92	43983.35
611.07	43938.88
611.23	44261.87
611.38	44278.25
611.54	43620.56
611.69	44280.60
611.84	44027.82
612.00	43732.91
612.15	43416.94
612.31	43742.27
612.46	43676.74
612.62	44041.86
612.77	43658.01
612.92	44545.08
613.08	43913.13
613.23	43941.22
613.39	43882.70
613.54	43920.15
613.69	44013.77
613.85	43845.26
614.00	44025.48
614.15	44009.09
614.31	43927.17
614.46	44060.58
614.62	44126.12
614.77	43636.95
614.92	43922.49
615.08	43278.85
615.23	43531.62
615.38	43526.94
615.54	43639.29
615.69	43501.20
615.84	43782.06
616.00	43311.61
616.15	43526.94
616.30	43791.42
616.46	43161.82
616.61	43367.79
616.76	43391.19
616.92	43171.18
617.07	42885.64
617.22	43222.67
617.37	43124.37
617.53	43714.19
617.68	43320.98
617.83	43175.86
617.99	43091.60
618.14	43725.89
618.29	43679.08
618.45	43208.63
618.60	42923.08
618.75	42864.57
618.90	42930.11
619.06	43299.91
619.21	43077.56
619.36	42885.64
619.51	42848.19
619.67	42696.05
619.82	43435.66
619.97	43276.51
620.12	43122.03
620.28	42649.24
620.43	42836.48
620.58	42658.60
620.73	42806.06
620.89	42876.27
621.04	42749.88
621.19	42845.85
621.34	42780.31
621.49	42417.53
621.65	42471.36
621.80	42887.98
621.95	42520.51
622.10	42323.91
622.25	42827.12
622.41	42122.62
622.56	42127.30
622.71	42309.86
622.86	42085.17
623.01	42335.61
623.16	42375.40
623.32	42344.97
623.47	42478.38
623.62	42089.85
623.77	41804.31
623.92	42277.10
624.07	41954.10
624.23	42204.54
624.38	41918.99
624.53	42040.70
624.68	41867.50
624.83	42782.65
624.98	42230.29
625.13	41420.46
625.29	41839.42
625.44	42202.20
625.59	41422.80
625.74	41455.57
625.89	41535.15
626.04	41565.57
626.19	41874.52
626.34	42031.34
626.49	41785.58
626.65	42099.22
626.80	42349.65
626.95	41717.71
627.10	41621.75
627.25	41785.58
627.40	41773.88
627.55	41200.45
627.70	41097.47
627.85	41106.83
628.00	40840.01
628.15	41383.01
628.30	41390.03
628.45	41347.90
628.60	40971.08
628.76	41823.03
628.91	41720.05
629.06	41462.59
629.21	41467.27
629.36	41153.64
629.51	41333.86
629.66	41053.00
629.81	40985.12
629.96	41102.15
630.11	40786.18
630.26	41057.68
630.41	41258.96
630.56	40987.46
630.71	41020.23
630.86	40854.05
631.01	40332.11
631.16	40924.27
631.31	40718.30
631.46	40603.61
631.61	40978.10
631.76	40957.03
631.91	40793.20
632.06	40825.96
632.21	40921.93
632.36	40898.52
632.51	40470.20
632.66	40737.02
632.81	40261.90
632.96	40715.96
633.10	40418.71
633.25	40540.42
633.40	40797.88
633.55	40861.07
633.70	40624.68
633.85	40737.02
634.00	40589.57
634.15	40568.51
634.30	40753.41
634.45	40229.13
634.60	40179.98
634.75	40278.28
634.90	40456.16
635.05	40264.24
635.19	40119.12
635.34	40388.28
635.49	40416.37
635.64	40079.33
635.79	40182.32
635.94	40617.66
636.09	40229.13
636.24	40219.77
636.39	39718.89
636.53	39796.13
636.68	39742.30
636.83	40315.73
636.98	39819.53
637.13	40105.08
637.28	39744.64
637.43	40098.06
637.57	40116.78
637.72	39337.38
637.87	40076.99
638.02	39779.74
638.17	40032.52
638.32	39428.66
638.46	39693.15
638.61	39814.85
638.76	39356.11
638.91	39779.74
639.06	39746.98
639.20	39758.68
639.35	39871.03
639.50	39482.50
639.65	39454.41
639.80	39854.64
639.94	39538.67
640.09	39145.46
640.24	39215.68
640.39	39178.23
640.54	39409.94
640.68	39313.98
640.83	39405.26
640.98	39665.06
641.13	38974.60
641.27	39559.73
641.42	38902.04
641.57	39047.16
641.72	39159.50
641.86	39201.63
642.01	38866.94
642.16	38700.76
642.31	38763.95
642.45	38813.10
642.60	38670.33
642.75	38993.32
642.90	39189.93
643.04	38979.28
643.19	38726.50
643.34	38459.68
643.48	38911.41
643.63	38590.75
643.78	38890.34
643.93	38543.94
644.07	38850.55
644.22	38614.16
644.37	38440.96
644.51	38829.49
644.66	38649.27
644.81	39159.50
644.95	39311.64
645.10	38754.59
645.25	38520.54
645.39	38838.85
645.54	38770.97
645.69	38459.68
645.83	38384.79
645.98	38555.64
646.13	38810.76
646.27	38293.50
646.42	38433.94
646.57	38499.47
646.71	38595.43
646.86	38279.46
647.00	38445.64
647.15	38466.70
647.30	38675.01
647.44	38309.89
647.59	38471.39
647.74	38518.20
647.88	38272.44
648.03	38326.27
648.17	38075.84
648.32	38014.98
648.47	37755.18
648.61	37713.05
648.76	38176.48
648.90	38050.09
649.05	37642.84
649.20	37731.78
649.34	37914.34
649.49	37909.66
649.63	37811.35
649.78	37493.04
649.92	38010.30
650.07	37750.50
650.21	37474.32
650.36	37668.58
650.51	37493.04
650.65	38101.58
650.80	37862.85
650.94	37680.28
651.09	38075.84
651.23	37757.52
651.38	37467.30
651.52	37773.91
651.67	37319.84
651.81	37266.01
651.96	37663.90
652.10	37289.42
652.25	37312.82
652.39	37186.43
652.54	37282.39
652.68	37488.36
652.83	37570.28
652.97	37406.44
653.12	37462.61
653.26	37209.84
653.41	37394.74
653.55	37013.23
653.70	37617.09
653.84	37134.94
653.99	36788.54
654.13	36989.83
654.27	37294.10
654.42	36737.05
654.56	36914.93
654.71	37069.40
654.85	37188.77
655.00	37214.52
655.14	36849.39
655.29	36641.09
655.43	36687.90
655.57	36748.75
655.72	36479.59
655.86	36491.29
656.01	36786.20
656.15	36240.86
656.30	36308.73
656.44	36730.03
656.58	36554.49
656.73	36753.43
656.87	36418.74
657.01	36325.11
657.16	36769.82
657.30	36041.91
657.45	35957.65
657.59	36144.89
657.73	35800.83
657.88	36769.82
658.02	37116.22
658.16	36444.48
658.31	36559.17
658.45	36334.48
658.60	36107.44
658.74	35742.32
658.88	35992.76
659.03	36278.30
659.17	35915.52
659.31	36355.54
659.46	35985.74
659.60	35728.28
659.74	36355.54
659.89	36135.53
660.03	35536.35
660.17	35992.76
660.32	35920.20
660.46	35861.69
660.60	35484.86
660.74	35468.48
660.89	35672.10
661.03	35388.90
661.17	35585.50
661.32	35047.18
661.46	35349.11
661.60	34918.45
661.74	35339.75
661.89	35468.48
662.03	35484.86
662.17	35021.44
662.31	34986.33
662.46	35512.95
662.60	35000.37
662.74	35246.13
662.88	34682.06
663.03	34611.84
663.17	34771.00
663.31	34515.88
663.45	34888.03
663.60	34415.24
663.74	34703.12
663.88	34583.76
664.02	34450.35
664.17	34487.79
664.31	34368.43
664.45	34555.67
664.59	34227.99
664.73	34532.26
664.88	34752.27
665.02	34295.87
665.16	33937.77
665.30	34464.39
665.44	33975.22
665.59	34108.63
665.73	34146.08
665.87	33970.54
666.01	33682.65
666.15	34117.99
666.29	34122.67
666.44	33956.49
666.58	33872.23
666.72	34024.37
666.86	33832.44
667.00	34298.21
667.14	33429.87
667.28	33596.05
667.43	33338.59
667.57	33387.74
667.71	32882.19
667.85	33448.60
667.99	33359.66
668.13	32877.51
668.27	32921.98
668.41	33083.47
668.56	32591.96
668.70	32912.61
668.84	33048.36
668.98	32868.14
669.12	32620.05
669.26	32641.11
669.40	32247.90
669.54	32095.77
669.68	32634.09
669.82	32369.61
669.96	32151.94
670.10	32514.72
670.25	32659.84
670.39	32102.79
670.53	32039.59
670.67	32259.60
670.81	32189.39
670.95	32201.09
671.09	31838.31
671.23	31945.97
671.37	32037.25
671.51	31679.15
671.65	31634.68
671.79	31585.53
671.93	31608.93
672.07	31489.57
672.21	31307.01
672.35	31328.07
672.49	31517.65
672.63	31321.05
672.77	31206.36
672.91	31447.44
673.05	31131.47
673.19	31433.39
673.33	30960.61
673.47	31105.72
673.61	30883.37
673.75	30417.60
673.89	30532.29
674.03	30754.64
674.17	30548.67
674.31	30195.25
674.45	30588.46
674.59	30471.43
674.73	30911.46
674.87	30305.26
675.01	29942.47
675.15	30621.23
675.29	30279.51
675.43	30092.27
675.56	30157.80
675.70	29818.42
675.84	29649.91
675.98	28767.52
676.12	29715.44
676.26	29759.91
676.40	29542.24
676.54	29750.55
676.68	29617.14
676.82	28900.94
676.96	29607.78
677.10	29254.36
677.23	28938.38
677.37	28989.88
677.51	29013.28
677.65	28879.87
677.79	28624.75
677.93	28339.21
678.07	28357.93
678.21	28009.19
678.34	28177.71
678.48	27864.08
678.62	27929.61
678.76	27751.73
678.90	27894.50
679.04	27545.76
679.18	27676.83
679.31	27623.00
679.45	27651.09
679.59	27424.06
679.73	27257.88
679.87	26899.78
680.00	26768.71
680.14	26925.52
680.28	27494.27
680.42	27150.21
680.56	27419.38
680.70	27119.79
680.83	27068.30
680.97	26768.71
681.11	26845.94
681.25	26522.95
681.39	26349.75
681.52	26794.45
681.66	26291.24
681.80	26263.15
681.94	26464.44
682.07	26150.81
682.21	26150.81
682.35	25846.54
682.49	25715.47
682.62	25851.22
682.76	25652.27
682.90	25439.28
683.04	25523.54
683.17	25621.84
683.31	25415.88
683.45	24924.36
683.59	25329.28
683.72	24889.26
683.86	24973.52
684.00	24889.26
684.13	25022.67
684.27	24542.86
684.41	24554.56
684.55	24730.10
684.68	24360.30
684.82	24704.35
684.96	24245.61
685.09	24383.70
685.23	24430.51
685.37	24266.67
685.50	24203.48
685.64	23817.29
685.78	23812.61
685.91	23428.76
686.05	23814.95
686.19	23388.97
686.32	23498.98
686.46	23241.52
686.60	22827.24
686.73	22974.70
686.87	23087.04
687.01	22764.05
687.14	22881.08
687.28	22691.49
687.42	22934.91
687.55	22684.47
687.69	22822.56
687.82	22464.46
687.96	22560.42
688.10	22710.22
688.23	22333.39
688.37	22396.59
688.50	22125.08
688.64	21905.07
688.78	22129.77
688.91	21734.21
689.05	22099.34
689.18	22118.06
689.32	21469.73
689.46	21879.33
689.59	21514.20
689.73	21851.24
689.86	21741.24
690.00	21504.84
690.13	21350.37
690.27	21427.60
690.41	21027.37
690.54	20732.47
690.68	20996.95
690.81	20641.18
690.95	20898.64
691.08	20669.27
691.22	20563.95
691.35	20496.07
691.49	20475.01
691.62	20662.25
691.76	20414.15
691.89	20458.62
692.03	20020.94
692.16	20334.57
692.30	20128.61
692.43	19992.86
692.57	19590.28
692.70	19704.97
692.84	19775.19
692.97	19171.33
693.11	19651.14
693.24	19119.84
693.38	19342.19
693.51	19234.52
693.65	19452.19
693.78	19335.17
693.92	19286.01
694.05	19084.73
694.19	19098.77
694.32	19012.17
694.45	18801.52
694.59	18593.22
694.72	18391.93
694.86	18380.23
694.99	18431.72
695.13	18347.46
695.26	18335.76
695.39	18445.76
695.53	18434.06
695.66	18209.37
695.80	18300.65
695.93	17989.36
696.07	18164.90
696.20	17940.21
696.33	17860.63
696.47	17748.28
696.60	17596.15
696.73	17738.92
696.87	17706.15
697.00	17467.42
697.14	17118.68
697.27	17270.81
697.40	17586.79
697.54	17128.04
697.67	16924.41
697.80	16882.28
697.94	16697.38
698.07	16645.89
698.21	16585.04
698.34	16828.45
698.47	16521.84
698.61	16327.58
698.74	16308.85
698.87	16400.13
699.01	16166.08
699.14	16121.61
699.27	16107.57
699.40	16259.70
699.54	16271.40
699.67	15932.03
699.80	15910.96
699.94	15999.90
700.07	15791.59
700.20	15534.14
700.34	15634.78
700.47	15662.86
700.60	15777.55
700.73	15562.22
700.87	15365.62
701.00	15499.03
701.13	15499.03
701.26	15264.97
701.40	15077.73
701.53	14932.62
701.66	15112.84
701.79	14553.45
701.93	14796.87
702.06	14841.34
702.19	14607.28
702.32	14775.80
702.46	14459.83
702.59	14576.86
702.72	14237.48
702.85	14361.53
702.99	14310.04
703.12	14398.98
703.25	14139.18
703.38	14097.05
703.51	13734.26
703.65	14132.15
703.78	14054.92
703.91	13895.76
704.04	13771.71
704.17	13827.88
704.31	13760.01
704.44	13682.77
704.57	13771.71
704.70	13584.47
704.83	13518.93
704.96	13715.54
705.10	13380.84
705.23	13486.17
>>>>>End Processed Spectral Data<<<<<
