SpectraSuite Data File
++++++++++++++++++++++++++++++++++++
Date: Fri Oct 25 10:44:00 EDT 2013
User: price-jones
Dark Spectrum Present: No
Reference Spectrum Present: No
Number of Sampled Component Spectra: 1
Spectrometers: USB2+H05261
Integration Time (usec): 100000 (USB2+H05261)
Spectra Averaged: 1 (USB2+H05261)
Boxcar Smoothing: 0 (USB2+H05261)
Correct for Electrical Dark: No (USB2+H05261)
Strobe/Lamp Enabled: No (USB2+H05261)
Correct for Detector Non-linearity: No (USB2+H05261)
Correct for Stray Light: No (USB2+H05261)
Number of Pixels in Processed Spectrum: 2048
>>>>>Begin Processed Spectral Data<<<<<
365.73	86.60
365.92	86.60
366.12	86.60
366.32	0.00
366.52	21.06
366.72	0.00
366.91	32.77
367.11	107.66
367.31	65.54
367.51	51.49
367.70	46.81
367.90	28.09
368.10	0.00
368.30	58.51
368.49	18.72
368.69	30.43
368.89	14.04
369.09	51.49
369.28	65.54
369.48	110.01
369.68	84.26
369.87	105.32
370.07	58.51
370.27	81.92
370.47	217.67
370.66	425.98
370.86	374.49
371.06	479.81
371.25	461.09
371.45	437.68
371.65	463.43
371.84	489.17
372.04	411.93
372.24	531.30
372.44	550.03
372.63	535.98
372.83	559.39
373.03	482.15
373.22	449.38
373.42	557.05
373.62	617.90
373.81	519.60
374.01	519.60
374.21	566.41
374.40	566.41
374.60	592.16
374.79	519.60
374.99	521.94
375.19	664.71
375.38	627.26
375.58	571.09
375.78	641.31
375.97	613.22
376.17	685.78
376.37	617.90
376.56	564.07
376.76	592.16
376.95	587.47
377.15	751.31
377.35	692.80
377.54	636.63
377.74	667.05
377.93	681.10
378.13	645.99
378.33	676.41
378.52	636.63
378.72	678.76
378.91	610.88
379.11	718.54
379.31	631.94
379.50	678.76
379.70	615.56
379.89	739.61
380.09	723.23
380.28	650.67
380.48	720.88
380.68	690.46
380.87	713.86
381.07	753.65
381.26	763.01
381.46	727.91
381.65	669.39
381.85	676.41
382.04	718.54
382.24	727.91
382.43	725.57
382.63	744.29
382.83	781.74
383.02	732.59
383.22	753.65
383.41	772.38
383.61	711.52
383.80	800.46
384.00	734.93
384.19	793.44
384.39	814.51
384.58	842.59
384.78	833.23
384.97	858.98
385.17	774.72
385.36	851.96
385.56	877.70
385.75	828.55
385.95	746.63
386.14	842.59
386.34	875.36
386.53	854.30
386.72	807.48
386.92	929.19
387.11	880.04
387.31	816.85
387.50	814.51
387.70	830.89
387.89	889.40
388.09	851.96
388.28	821.53
388.48	943.24
388.67	992.39
388.86	931.53
389.06	938.55
389.25	938.55
389.45	987.71
389.64	957.28
389.84	1020.47
390.03	1060.26
390.22	1053.24
390.42	1027.50
390.61	980.68
390.81	1128.14
391.00	1118.78
391.19	1008.77
391.39	1125.80
391.58	1102.39
391.78	1053.24
391.97	1118.78
392.16	1074.31
392.36	1062.60
392.55	1006.43
392.75	966.64
392.94	985.37
393.13	1053.24
393.33	1064.94
393.52	1039.20
393.71	1020.47
393.91	1088.35
394.10	1149.20
394.29	1135.16
394.49	1149.20
394.68	1231.12
394.88	1247.51
395.07	1341.13
395.26	1233.46
395.46	1132.82
395.65	1306.02
395.84	1214.74
396.04	1322.40
396.23	1203.04
396.42	1090.69
396.62	1247.51
396.81	1249.85
397.00	1327.08
397.19	1235.80
397.39	1399.64
397.58	1413.68
397.77	1376.24
397.97	1439.43
398.16	1481.56
398.35	1451.13
398.55	1446.45
398.74	1547.09
398.93	1591.56
399.12	1511.99
399.32	1556.46
399.51	1516.67
399.70	1600.93
399.90	1469.86
400.09	1591.56
400.28	1607.95
400.47	1598.59
400.67	1741.36
400.86	1694.55
401.05	1699.23
401.24	1619.65
401.44	1741.36
401.63	1661.78
401.82	1760.08
402.01	1706.25
402.21	1778.81
402.40	1783.49
402.59	1832.64
402.78	1722.63
402.97	1830.30
403.17	1813.92
403.36	1811.57
403.55	1928.60
403.74	1909.88
403.93	1902.86
404.13	1884.13
404.32	1872.43
404.51	1956.69
404.70	2064.35
404.89	2047.97
405.09	1973.07
405.28	1970.73
405.47	1987.11
405.66	2165.00
405.85	1966.05
406.05	1923.92
406.24	2003.50
406.43	2040.95
406.62	2122.87
406.81	2165.00
407.00	2090.10
407.20	2012.86
407.39	2141.59
407.58	2129.89
407.77	2139.25
407.96	2256.28
408.15	2270.32
408.34	2228.19
408.54	2321.81
408.73	2342.88
408.92	2307.77
409.11	2356.92
409.30	2417.77
409.49	2370.96
409.68	2417.77
409.87	2338.20
410.07	2347.56
410.26	2431.82
410.45	2422.45
410.64	2495.01
410.83	2562.89
411.02	2502.03
411.21	2612.04
411.40	2569.91
411.59	2621.40
411.78	2794.60
411.98	2630.76
412.17	2548.84
412.36	2736.09
412.55	2668.21
412.74	2799.28
412.93	2668.21
413.12	2864.82
413.31	2899.92
413.50	2862.48
413.69	2906.95
413.88	2998.23
414.07	2822.69
414.26	2895.24
414.45	3028.65
414.64	3000.57
414.83	3082.49
415.02	3122.27
415.22	3054.40
415.41	3166.74
415.60	3124.62
415.79	3234.62
415.98	3323.56
416.17	3302.50
416.36	3356.33
416.55	3304.84
416.74	3431.23
416.93	3208.87
417.12	3363.35
417.31	3332.92
417.50	3325.90
417.69	3501.44
417.88	3428.88
418.07	3527.19
418.26	3454.63
418.45	3562.30
418.64	3761.24
418.83	3536.55
419.02	3714.43
419.21	3609.11
419.39	3700.39
419.58	3541.23
419.77	3669.96
419.96	3705.07
420.15	3630.17
420.34	3808.05
420.53	3873.59
420.72	3936.78
420.91	3866.56
421.10	3904.01
421.29	3896.99
421.48	3899.33
421.67	3768.26
421.86	3974.23
422.05	3911.04
422.24	3878.27
422.43	3971.89
422.61	3978.91
422.80	3969.55
422.99	4014.02
423.18	3892.31
423.37	4014.02
423.56	4079.55
423.75	4121.68
423.94	4007.00
424.13	3866.56
424.32	3953.16
424.50	4018.70
424.69	4067.85
424.88	3983.59
425.07	4021.04
425.26	3983.59
425.45	4077.21
425.64	3941.46
425.83	4018.70
426.01	4231.69
426.20	4070.19
426.39	4121.68
426.58	4121.68
426.77	4007.00
426.96	3999.98
427.15	4039.76
427.33	4271.48
427.52	4187.22
427.71	4243.39
427.90	4070.19
428.09	4154.45
428.28	4360.42
428.46	4168.49
428.65	4182.54
428.84	4416.59
429.03	4269.14
429.22	4259.78
429.40	4243.39
429.59	4245.73
429.78	4072.53
429.97	4070.19
430.16	4173.18
430.34	4058.49
430.53	4224.67
430.72	4311.27
430.91	4269.14
431.10	4294.88
431.28	4622.56
431.47	4664.69
431.66	4629.58
431.85	4650.64
432.03	4741.93
432.22	4739.58
432.41	4552.34
432.60	4851.93
432.79	4699.80
432.97	4908.10
433.16	4961.94
433.35	4758.31
433.54	4758.31
433.72	4847.25
433.91	4821.50
434.10	4950.23
434.28	4863.63
434.47	4905.76
434.66	5069.60
434.85	4973.64
435.03	5008.75
435.22	5046.20
435.41	5235.78
435.59	5195.99
435.78	5224.08
435.97	5130.45
436.16	5380.89
436.34	5109.39
436.53	5390.25
436.72	5305.99
436.90	5153.86
437.09	5359.83
437.28	5268.55
437.46	5313.02
437.65	5193.65
437.84	5446.43
438.02	5329.40
438.21	5191.31
438.40	5252.16
438.58	5387.91
438.77	5432.38
438.96	5614.95
439.14	5755.38
439.33	5678.14
439.52	5802.19
439.70	5746.02
439.89	5638.35
440.08	5783.46
440.26	5783.46
440.45	5809.21
440.63	5811.55
440.82	6111.14
441.01	6026.88
441.19	6125.18
441.38	6183.70
441.57	6289.02
441.75	6237.53
441.94	6452.86
442.12	6307.74
442.31	6392.00
442.50	6506.69
442.68	6525.41
442.87	6478.60
443.05	6413.07
443.24	6417.75
443.43	6473.92
443.61	6644.78
443.80	6806.28
443.98	6410.73
444.17	6368.60
444.35	6614.35
444.54	6764.15
444.73	6794.58
444.91	6698.61
445.10	6609.67
445.28	6555.84
445.47	6588.61
445.65	6483.28
445.84	6548.82
446.02	6799.26
446.21	6541.80
446.39	6768.83
446.58	6752.45
446.77	6864.79
446.95	6785.21
447.14	6803.94
447.32	6918.62
447.51	6733.72
447.69	6892.88
447.88	6726.70
448.06	6895.22
448.25	6817.98
448.43	6743.08
448.62	6766.49
448.80	6707.98
448.99	6895.22
449.17	7204.17
449.36	6949.05
449.54	6984.16
449.73	7021.61
449.91	7215.87
450.10	7187.79
450.28	7122.25
450.46	7360.98
450.65	7307.15
450.83	7389.07
451.02	7225.23
451.20	7386.73
451.39	7393.75
451.57	7330.56
451.76	7288.43
451.94	7405.46
452.13	7339.92
452.31	7393.75
452.49	7260.34
452.68	7335.24
452.86	7276.73
453.05	7339.92
453.23	7407.80
453.42	7440.56
453.60	7424.18
453.78	7534.18
453.97	7410.14
454.15	7466.31
454.34	7550.57
454.52	7681.64
454.70	7845.48
454.89	7564.61
455.07	7520.14
455.26	7751.85
455.44	7789.30
455.62	7824.41
455.81	7939.10
455.99	8011.65
456.17	7920.37
456.36	8046.76
456.54	8016.33
456.73	8037.40
456.91	8341.67
457.09	8142.72
457.28	8243.37
457.46	8219.96
457.64	8306.56
457.83	8180.17
458.01	8170.81
458.19	8622.53
458.38	8269.11
458.56	8446.99
458.74	8379.12
458.93	8362.73
459.11	8479.76
459.29	8454.02
459.48	8542.96
459.66	8411.89
459.84	8451.67
460.03	8608.49
460.21	8755.94
460.39	8542.96
460.57	8711.47
460.76	8793.39
460.94	8753.60
461.12	8648.28
461.31	8912.76
461.49	8805.10
461.67	8812.12
461.85	8919.78
462.04	8786.37
462.22	9202.99
462.40	9053.19
462.59	9048.51
462.77	9132.77
462.95	9137.45
463.13	9041.49
463.32	8915.10
463.50	9078.94
463.68	9102.34
463.86	9268.52
464.05	9202.99
464.23	9214.69
464.41	9219.37
464.59	8943.19
464.78	9249.80
464.96	9202.99
465.14	9146.81
465.32	9249.80
465.50	9378.53
465.69	9453.42
465.87	9549.39
466.05	9249.80
466.23	9366.82
466.41	9359.80
466.60	9509.60
466.78	9430.02
466.96	9570.45
467.14	9369.16
467.32	9551.73
467.51	9596.20
467.69	9338.74
467.87	9687.48
468.05	9767.06
468.23	9408.95
468.41	9549.39
468.60	9764.72
468.78	9626.62
468.96	9753.01
469.14	10033.88
469.32	9954.30
469.50	9745.99
469.69	9809.19
469.87	10150.90
470.05	9827.91
470.23	9839.61
470.41	9872.38
470.59	9933.23
470.77	10239.84
470.95	10148.56
471.14	10347.51
471.32	10293.68
471.50	10340.49
471.68	10235.16
471.86	10609.65
472.04	10539.43
472.22	10827.32
472.40	10501.98
472.58	10562.84
472.77	10558.16
472.95	10705.61
473.13	11056.69
473.31	10642.42
473.49	10719.65
473.67	10796.89
473.85	11068.39
474.03	11119.89
474.21	11204.14
474.39	11463.94
474.57	11323.51
474.75	11571.61
474.93	11328.19
475.12	11220.53
475.30	11665.23
475.48	11417.13
475.66	11459.26
475.84	11393.73
476.02	11461.60
476.20	11749.49
476.38	11847.79
476.56	12166.10
476.74	11950.78
476.92	11957.80
477.10	12269.09
477.28	12388.46
477.46	12114.61
477.64	12456.33
477.82	12421.22
478.00	12833.16
478.18	12751.24
478.36	12901.03
478.54	13032.10
478.72	12933.80
478.90	13109.34
479.08	13198.28
479.26	13437.02
479.44	13448.72
479.62	13411.27
479.80	13542.34
479.98	13764.69
480.16	13900.44
480.34	13596.17
480.52	13954.27
480.70	13902.78
480.88	13818.52
481.06	13926.19
481.24	14064.28
481.41	14403.66
481.59	14567.49
481.77	14583.88
481.95	14525.36
482.13	14757.08
482.31	14867.08
482.49	14998.15
482.67	15051.99
482.85	15098.80
483.03	15337.53
483.21	15747.12
483.39	15686.27
483.57	15583.29
483.74	15971.82
483.92	16187.14
484.10	15988.20
484.28	16013.95
484.46	16133.31
484.64	16732.49
484.82	16453.97
485.00	16505.46
485.18	16428.22
485.35	16570.99
485.53	16444.60
485.71	16624.83
485.89	16503.12
486.07	16767.60
486.25	17043.78
486.43	16772.28
486.61	17488.48
486.78	17401.88
486.96	17811.48
487.14	18047.87
487.32	18148.51
487.50	18302.99
487.68	18441.08
487.85	18782.80
488.03	18712.58
488.21	18782.80
488.39	19049.62
488.57	18874.08
488.75	19129.20
488.92	19145.58
489.10	19800.93
489.28	19765.82
489.46	20098.18
489.64	19997.54
489.81	20472.67
489.99	20664.59
490.17	20479.69
490.35	20414.15
490.53	20650.55
490.70	21062.48
490.88	20554.58
491.06	21338.66
491.24	21120.99
491.41	21092.91
491.59	21167.80
491.77	20744.17
491.95	21570.38
492.13	21664.00
492.30	21839.54
492.48	21893.37
492.66	22326.37
492.84	21874.65
493.01	22333.39
493.19	22347.44
493.37	22752.35
493.54	22806.18
493.72	23274.29
493.90	23112.79
494.08	23503.66
494.25	23545.79
494.43	23351.52
494.61	23648.77
494.79	23798.57
494.96	23917.93
495.14	23840.70
495.32	24067.73
495.49	24154.33
495.67	24540.52
495.85	24407.11
496.02	24470.30
496.20	24734.78
496.38	24849.47
496.55	25209.91
496.73	25137.35
496.91	25376.09
497.09	25326.94
497.26	25317.57
497.44	25078.84
497.62	25418.22
497.79	25956.54
497.97	25727.17
498.14	25834.83
498.32	26134.42
498.50	25949.52
498.67	26457.42
498.85	26403.58
499.03	26845.94
499.20	26703.17
499.38	26691.47
499.56	26707.85
499.73	26602.53
499.91	27087.02
500.08	27239.15
500.26	26801.47
500.44	27220.43
500.61	26930.20
500.79	26958.29
500.97	27363.20
501.14	27587.89
501.32	27508.32
501.49	27091.70
501.67	27676.83
501.84	27601.94
502.02	27826.63
502.20	28334.53
502.37	28306.44
502.55	28299.42
502.72	28266.65
502.90	28381.34
503.07	28781.57
503.25	28559.22
503.43	28535.81
503.60	28732.42
503.78	28884.55
503.95	28421.13
504.13	29034.35
504.30	29277.76
504.48	28919.66
504.65	29696.72
504.83	29764.59
505.01	29783.32
505.18	29645.23
505.36	30052.48
505.53	29745.87
505.71	29951.84
505.88	30010.35
506.06	29858.21
506.23	30302.92
506.41	30087.59
506.58	30555.69
506.76	30569.74
506.93	30272.49
507.11	30436.33
507.28	30581.44
507.46	30588.46
507.63	30501.86
507.81	30955.93
507.98	30176.53
508.16	30822.51
508.33	30888.05
508.50	31236.79
508.68	31550.42
508.85	31447.44
509.03	31267.22
509.20	31482.55
509.38	31622.98
509.55	31770.43
509.73	31789.16
509.90	31590.21
510.08	31805.54
510.25	31810.22
510.42	32151.94
510.60	32133.21
510.77	32542.81
510.95	32603.66
511.12	32531.11
511.30	32456.21
511.47	32793.25
511.64	32666.86
511.82	32938.36
511.99	32624.73
512.17	33013.26
512.34	32620.05
512.51	33383.06
512.69	33303.48
512.86	33273.06
513.04	33221.56
513.21	33221.56
513.38	33406.47
513.56	33305.82
513.73	33249.65
513.90	33584.35
514.08	33343.27
514.25	33415.83
514.43	33635.84
514.60	33795.00
514.77	33542.22
514.95	34370.77
515.12	34204.59
515.29	34211.61
515.47	34536.94
515.64	34754.61
515.81	34162.46
515.99	34792.06
516.16	34106.29
516.33	33951.81
516.51	34040.75
516.68	33858.19
516.85	33649.88
517.03	34054.79
517.20	34302.89
517.37	34866.96
517.54	34930.16
517.72	34969.94
517.89	34586.10
518.06	34492.47
518.24	34869.30
518.41	34714.83
518.58	35339.75
518.75	35243.79
518.93	35461.46
519.10	35147.82
519.27	35222.72
519.45	35447.41
519.62	35658.06
519.79	36240.86
519.96	35969.35
520.14	35999.78
520.31	35676.79
520.48	36018.50
520.65	36240.86
520.83	35943.61
521.00	36360.22
521.17	36617.68
521.34	36837.69
521.52	36350.86
521.69	36425.76
521.86	37006.21
522.03	36521.72
522.20	36535.76
522.38	37240.26
522.55	36526.40
522.72	36500.65
522.89	36638.75
523.07	37228.56
523.24	36900.89
523.41	37228.56
523.58	37287.07
523.75	37720.07
523.92	37699.01
524.10	38230.31
524.27	38050.09
524.44	37841.78
524.61	38022.00
524.78	38014.98
524.96	37895.61
525.13	38167.12
525.30	38483.09
525.47	38295.85
525.64	38181.16
525.81	38295.85
525.98	38354.36
526.16	37816.04
526.33	37600.71
526.50	37841.78
526.67	37628.79
526.84	38291.16
527.01	37855.82
527.18	38869.28
527.36	38576.71
527.53	38927.79
527.70	39140.78
527.87	38857.57
528.04	38763.95
528.21	39138.44
528.38	39079.92
528.55	39241.42
528.72	39330.36
528.89	39690.80
529.07	39538.67
529.24	39442.71
529.41	39679.10
529.58	39292.91
529.75	39098.65
529.92	39416.96
530.09	39615.91
530.26	39835.92
530.43	39838.26
530.60	39557.39
530.77	39573.78
530.94	39761.02
531.11	39840.60
531.28	39966.99
531.46	40350.84
531.63	39922.52
531.80	40025.50
531.97	40079.33
532.14	40137.85
532.31	39845.28
532.48	39995.07
532.65	40210.40
532.82	40226.79
532.99	40123.80
533.16	40549.78
533.33	40404.67
533.50	40734.68
533.67	40561.48
533.84	40140.19
534.01	40507.65
534.18	40547.44
534.35	41148.96
534.52	40975.76
534.69	41106.83
534.86	40999.16
535.03	41172.36
535.20	41411.10
535.37	41495.36
535.54	41436.84
535.71	41071.72
535.88	41251.94
536.05	41148.96
536.22	41118.53
536.38	41375.99
536.55	41153.64
536.72	41249.60
536.89	41228.54
537.06	41357.27
537.23	41486.00
537.40	41588.98
537.57	41668.56
537.74	41776.22
537.91	42176.45
538.08	41596.00
538.25	41628.77
538.42	41663.88
538.59	41434.50
538.75	41586.64
538.92	42188.16
539.09	41928.36
539.26	42246.67
539.43	42209.22
539.60	41935.38
539.77	41848.78
539.94	42117.94
540.11	41808.99
540.28	41869.84
540.44	42075.81
540.61	41729.41
540.78	41495.36
540.95	42169.43
541.12	42195.18
541.29	42396.46
541.46	42595.41
541.62	42342.63
541.79	42471.36
541.96	42260.71
542.13	42092.19
542.30	42321.57
542.47	42401.14
542.63	42335.61
542.80	42209.22
542.97	43054.15
543.14	43086.92
543.31	43351.40
543.48	43068.20
543.64	43487.15
543.81	43171.18
543.98	43597.16
544.15	43288.21
544.32	42993.30
544.48	43615.88
544.65	43349.06
544.82	43564.39
544.99	43402.89
545.16	43491.83
545.32	43159.48
545.49	44046.54
545.66	43758.66
545.83	43695.46
546.00	43899.09
546.16	43555.03
546.33	43573.75
546.50	43658.01
546.67	43866.32
546.83	43498.86
547.00	43882.70
547.17	43552.69
547.34	43789.08
547.50	44037.18
547.67	44109.74
547.84	44114.42
548.00	44395.28
548.17	44594.23
548.34	44800.19
548.51	44582.52
548.67	44404.64
548.84	44509.97
549.01	43985.69
549.18	44198.68
549.34	44332.09
549.51	44835.30
549.68	44659.76
549.84	44704.23
550.01	44626.99
550.18	44439.75
550.34	44636.36
550.51	44491.24
550.68	44514.65
550.84	44538.05
551.01	44399.96
551.18	44669.12
551.34	44446.77
551.51	44882.11
551.68	44559.12
551.84	44556.78
552.01	44823.60
552.18	44655.08
552.34	44624.65
552.51	45071.70
552.68	44793.17
552.84	44708.91
553.01	44563.80
553.18	44847.00
553.34	45111.49
553.51	44744.02
553.67	45090.42
553.84	45233.19
554.01	45434.48
554.17	45038.93
554.34	45404.05
554.51	45198.09
554.67	45818.33
554.84	45404.05
555.00	45092.76
555.17	45282.34
555.33	45378.31
555.50	44987.44
555.67	45394.69
555.83	45464.91
556.00	45319.79
556.16	46024.29
556.33	45284.68
556.50	45411.07
556.66	45448.52
556.83	45240.21
556.99	45722.37
557.16	45628.74
557.32	45750.45
557.49	46115.58
557.65	45474.27
557.82	45577.25
557.98	45911.95
558.15	45537.46
558.32	45736.41
558.48	45420.44
558.65	45418.10
558.81	45375.97
558.98	45518.74
559.14	45640.45
559.31	45776.20
559.47	45652.15
559.64	45703.64
559.80	46026.63
559.97	45928.33
560.13	45420.44
560.30	45656.83
560.46	46000.89
560.63	45827.69
560.79	46302.82
560.96	45771.52
561.12	45993.87
561.29	45638.11
561.45	45818.33
561.61	45972.80
561.78	45581.93
561.94	45830.03
562.11	45614.70
562.27	45720.02
562.44	46085.15
562.60	46337.93
562.77	45556.19
562.93	46218.56
563.10	46113.23
563.26	46230.26
563.42	46153.02
563.59	46075.79
563.75	45893.22
563.92	46234.94
564.08	46162.39
564.24	46373.03
564.41	46284.09
564.57	46143.66
564.74	45904.93
564.90	46293.46
565.07	46574.32
565.23	45942.38
565.39	46033.66
565.56	46155.36
565.72	45862.80
565.88	45879.18
566.05	46253.67
566.21	46127.28
566.38	46108.55
566.54	45804.28
566.70	46220.90
566.87	46543.89
567.03	46438.57
567.19	46904.34
567.36	46150.68
567.52	46499.42
567.68	46323.88
567.85	46267.71
568.01	46291.12
568.17	46319.20
568.34	46157.70
568.50	46333.24
568.66	46031.32
568.83	46674.96
568.99	45886.20
569.15	46246.65
569.32	46244.30
569.48	46036.00
569.64	46216.22
569.81	46335.59
569.97	46499.42
570.13	46244.30
570.30	46195.15
570.46	46211.54
570.62	46323.88
570.78	45745.77
570.95	46263.03
571.11	46171.75
571.27	46019.61
571.43	46288.77
571.60	46653.90
571.76	46319.20
571.92	46597.73
572.09	46707.73
572.25	46176.43
572.41	46686.67
572.57	46667.94
572.74	46883.27
572.90	46721.77
573.06	46667.94
573.22	46466.66
573.38	46845.82
573.55	46295.80
573.71	46878.59
573.87	46553.26
574.03	46637.51
574.20	46513.47
574.36	46183.45
574.52	46485.38
574.68	46937.10
574.84	46419.84
575.01	46527.51
575.17	46595.38
575.33	45918.97
575.49	46146.00
575.65	46384.74
575.82	46501.76
575.98	46295.80
576.14	46941.78
576.30	46885.61
576.46	46326.22
576.62	46497.08
576.79	46073.45
576.95	46305.16
577.11	46464.32
577.27	46410.48
577.43	46478.36
577.59	46241.96
577.75	46679.64
577.92	45827.69
578.08	46576.66
578.24	46536.87
578.40	46635.17
578.56	46270.05
578.72	46312.18
578.88	46628.15
579.04	46810.71
579.21	46419.84
579.37	46382.40
579.53	46728.80
579.69	46351.97
579.85	46597.73
580.01	46749.86
580.17	46452.61
580.33	46515.81
580.49	46703.05
580.65	46557.94
580.82	46543.89
580.98	46597.73
581.14	46440.91
581.30	46937.10
581.46	46607.09
581.62	47077.54
581.78	46887.95
581.94	46728.80
582.10	46490.06
582.26	46997.96
582.42	46674.96
582.58	46754.54
582.74	46597.73
582.90	46719.43
583.06	46967.53
583.22	46600.07
583.38	46930.08
583.54	47384.15
583.70	46937.10
583.86	46714.75
584.02	46597.73
584.18	46689.01
584.34	46391.76
584.50	46822.42
584.66	46632.83
584.82	46405.80
584.98	46607.09
585.14	46934.76
585.30	46387.08
585.46	46681.98
585.62	46476.02
585.78	46583.68
585.94	46234.94
586.10	46515.81
586.26	46623.47
586.42	47019.02
586.58	46951.15
586.74	46829.44
586.90	46635.17
587.06	46417.50
587.22	46665.60
587.38	46841.14
587.54	46639.86
587.70	46710.07
587.86	46960.51
588.02	46782.63
588.18	46705.39
588.34	46417.50
588.49	46157.70
588.65	45682.58
588.81	46394.10
588.97	46270.05
589.13	46174.09
589.29	46426.87
589.45	46550.91
589.61	46382.40
589.77	46789.65
589.93	46967.53
590.08	46768.58
590.24	46738.16
590.40	46932.42
590.56	47107.96
590.72	46600.07
590.88	46733.48
591.04	46646.88
591.20	47306.91
591.35	47035.41
591.51	47290.52
591.67	46190.47
591.83	46944.12
591.99	46508.79
592.15	46342.61
592.31	47180.52
592.46	46894.97
592.62	46913.70
592.78	46625.81
592.94	47180.52
593.10	46855.18
593.26	46887.95
593.41	46810.71
593.57	46511.13
593.73	46862.21
593.89	46930.08
594.05	46681.98
594.20	46890.29
594.36	46894.97
594.52	46337.93
594.68	46419.84
594.84	46244.30
594.99	46665.60
595.15	46586.02
595.31	46665.60
595.47	47033.07
595.62	46796.67
595.78	47297.55
595.94	46909.02
596.10	46866.89
596.25	47164.14
596.41	47028.38
596.57	46457.29
596.73	46894.97
596.88	46787.31
597.04	46642.20
597.20	47061.15
597.36	46693.69
597.51	47110.30
597.67	46944.12
597.83	46906.68
597.99	47234.35
598.14	46803.69
598.30	46979.23
598.46	46429.21
598.61	46625.81
598.77	46719.43
598.93	46831.78
599.09	47072.85
599.24	47257.76
599.40	46962.85
599.56	46796.67
599.71	46986.25
599.87	46873.91
600.03	46909.02
600.18	46848.16
600.34	46962.85
600.50	46429.21
600.65	46305.16
600.81	46852.84
600.97	47206.26
601.12	46848.16
601.28	46607.09
601.44	46726.46
601.59	46328.56
601.75	46450.27
601.91	46806.03
602.06	46419.84
602.22	46859.87
602.37	46752.20
602.53	46728.80
602.69	46845.82
602.84	46801.35
603.00	46796.67
603.16	46667.94
603.31	46335.59
603.47	46670.28
603.62	46724.11
603.78	46909.02
603.94	46986.25
604.09	47140.73
604.25	46892.63
604.40	46291.12
604.56	46340.27
604.71	46904.34
604.87	46389.42
605.03	47168.82
605.18	46351.97
605.34	46784.97
605.49	46557.94
605.65	46653.90
605.80	46593.04
605.96	46562.62
606.12	46684.33
606.27	46927.74
606.43	46354.31
606.58	46789.65
606.74	46740.50
606.89	46525.17
607.05	46579.00
607.20	46623.47
607.36	46670.28
607.51	46803.69
607.67	46384.74
607.82	46597.73
607.98	46658.58
608.13	46356.65
608.29	46581.34
608.44	46192.81
608.60	45813.65
608.75	46473.68
608.91	46513.47
609.06	46216.22
609.22	46300.48
609.37	46031.32
609.53	46230.26
609.68	46391.76
609.84	46129.62
609.99	46305.16
610.15	45827.69
610.30	45860.46
610.46	46237.28
610.61	46251.33
610.76	46218.56
610.92	46649.22
611.07	46419.84
611.23	46480.70
611.38	46000.89
611.54	46106.21
611.69	45691.94
611.84	45762.15
612.00	45862.80
612.15	45738.75
612.31	45883.86
612.46	45970.46
612.62	45776.20
612.77	46017.27
612.92	46295.80
613.08	45558.53
613.23	45652.15
613.39	45944.72
613.54	45544.48
613.69	45858.12
613.85	45605.34
614.00	45668.53
614.15	45851.09
614.31	45738.75
614.46	46012.59
614.62	45846.41
614.77	46045.36
614.92	45607.68
615.08	45951.74
615.23	45310.43
615.38	45745.77
615.54	45507.04
615.69	45612.36
615.84	44886.79
616.00	45780.88
616.15	45118.51
616.30	45162.98
616.46	45588.95
616.61	44879.77
616.76	45256.60
616.92	44741.68
617.07	44957.01
617.22	44816.58
617.37	44587.21
617.53	45401.71
617.68	45488.31
617.83	45233.19
617.99	45034.25
618.14	45331.50
618.29	44797.85
618.45	44563.80
618.60	45099.78
618.75	44505.29
618.90	44781.47
619.06	44732.32
619.21	44914.88
619.36	45242.56
619.51	44790.83
619.67	45132.55
619.82	45209.79
619.97	44753.38
620.12	44666.78
620.28	44776.79
620.43	44825.94
620.58	44905.52
620.73	44933.60
620.89	44622.31
621.04	44786.15
621.19	44465.50
621.34	45024.89
621.49	44219.74
621.65	44727.64
621.80	44957.01
621.95	44371.88
622.10	44409.32
622.25	44271.23
622.41	44018.46
622.56	43990.37
622.71	44823.60
622.86	44318.04
623.01	43938.88
623.16	44067.61
623.32	44247.83
623.47	44219.74
623.62	44381.24
623.77	44273.57
623.92	44432.73
624.07	44023.14
624.23	43936.54
624.38	43487.15
624.53	43601.84
624.68	44168.25
624.83	44301.66
624.98	43934.20
625.13	43782.06
625.29	43555.03
625.44	43416.94
625.59	43496.52
625.74	43782.06
625.89	43131.39
626.04	43306.93
626.19	43756.32
626.34	43423.96
626.49	44116.76
626.65	43470.77
626.80	43700.14
626.95	43683.76
627.10	43182.88
627.25	43112.67
627.40	43217.99
627.55	43000.32
627.70	42904.36
627.85	43110.33
628.00	42679.67
628.15	42843.51
628.30	43625.25
628.45	43470.77
628.60	42621.16
628.76	43257.78
628.91	43278.85
629.06	42920.74
629.21	42932.45
629.36	43063.52
629.51	42677.33
629.66	42649.24
629.81	42857.55
629.96	43129.05
630.11	42611.79
630.26	43049.47
630.41	43271.82
630.56	42920.74
630.71	42656.26
630.86	42635.20
631.01	42314.55
631.16	42394.12
631.31	42550.94
631.46	42064.11
631.61	42707.76
631.76	42469.02
631.91	42513.49
632.06	42536.90
632.21	42777.97
632.36	42457.32
632.51	42494.77
632.66	42700.73
632.81	42440.93
632.96	42426.89
633.10	42047.72
633.25	42635.20
633.40	42302.84
633.55	42871.59
633.70	42204.54
633.85	41986.87
634.00	42010.28
634.15	42253.69
634.30	41663.88
634.45	42094.53
634.60	41734.09
634.75	42373.06
634.90	41975.17
635.05	41684.94
635.19	41853.46
635.34	42131.98
635.49	41837.08
635.64	42071.13
635.79	41673.24
635.94	41598.34
636.09	41612.38
636.24	41591.32
636.39	40964.06
636.53	41441.53
636.68	41553.87
636.83	41577.28
636.98	42103.90
637.13	41748.14
637.28	41404.08
637.43	42139.00
637.57	41638.13
637.72	41617.07
637.87	41324.50
638.02	41411.10
638.17	41390.03
638.32	41647.49
638.46	41682.60
638.61	41118.53
638.76	41184.07
638.91	41565.57
639.06	41493.02
639.20	41195.77
639.35	41675.58
639.50	41303.43
639.65	41476.63
639.80	41219.17
639.94	40933.63
640.09	41441.53
640.24	40844.69
640.39	40882.14
640.54	40797.88
640.68	41053.00
640.83	41277.69
640.98	40931.29
641.13	40980.44
641.27	41137.26
641.42	40289.98
641.57	41125.55
641.72	40727.66
641.86	40395.31
642.01	40446.80
642.16	40453.82
642.31	39896.77
642.45	40945.33
642.60	40079.33
642.75	40657.45
642.90	40465.52
643.04	40407.01
643.19	40282.96
643.34	40664.47
643.48	40446.80
643.63	40392.97
643.78	40428.07
643.93	40254.87
644.07	39936.56
644.22	40259.55
644.37	40107.42
644.51	40275.94
644.66	40119.12
644.81	40123.80
644.95	39988.05
645.10	39985.71
645.25	40184.66
645.39	40079.33
645.54	40151.89
645.69	40378.92
645.83	40112.10
645.98	40289.98
646.13	39924.86
646.27	39772.72
646.42	40025.50
646.57	39222.70
646.71	40098.06
646.86	39676.76
647.00	39690.80
647.15	39948.26
647.30	39723.57
647.44	39545.69
647.59	39634.63
647.74	39906.13
647.88	39775.06
648.03	40027.84
648.17	39601.86
648.32	39494.20
648.47	39569.10
648.61	39203.97
648.76	39648.68
648.90	39292.91
649.05	39419.30
649.20	39515.26
649.34	39330.36
649.49	39290.57
649.63	39271.85
649.78	39210.99
649.92	38768.63
650.07	39667.40
650.21	39009.71
650.36	39103.33
650.51	39140.78
650.65	39952.94
650.80	39526.97
650.94	39503.56
651.09	39192.27
651.23	39108.01
651.38	39126.74
651.52	38925.45
651.67	38632.88
651.81	38663.31
651.96	39168.87
652.10	39302.28
652.25	38665.65
652.39	38843.53
652.54	39344.41
652.68	38733.53
652.83	38850.55
652.97	39393.56
653.12	38611.82
653.26	38670.33
653.41	38457.34
653.55	38321.59
653.70	38724.16
653.84	38597.77
653.99	38665.65
654.13	38553.30
654.27	38782.68
654.42	38440.96
654.56	37872.21
654.71	38431.60
654.85	38190.52
655.00	38653.95
655.14	38017.32
655.29	38192.86
655.43	38012.64
655.57	37874.55
655.72	37736.46
655.86	37418.14
656.01	37649.86
656.15	37336.23
656.30	37851.14
656.44	37680.28
656.58	37677.94
656.73	37963.49
656.87	37930.72
657.01	37528.15
657.16	37801.99
657.30	37172.39
657.45	37373.67
657.59	37560.92
657.73	37708.37
657.88	38258.40
658.02	37837.10
658.16	37947.11
658.31	38132.01
658.45	37675.60
658.60	37628.79
658.74	37865.19
658.88	37518.79
659.03	37186.43
659.17	37137.28
659.31	37198.13
659.46	37148.98
659.60	37160.69
659.74	37567.94
659.89	37071.75
660.03	36629.38
660.17	37441.55
660.32	36950.04
660.46	37263.67
660.60	37240.26
660.74	37071.75
660.89	36788.54
661.03	36383.63
661.17	36498.31
661.32	36437.46
661.46	36533.42
661.60	36652.79
661.74	36315.75
661.89	36582.57
662.03	36432.78
662.17	36247.88
662.31	36041.91
662.46	36765.14
662.60	36198.73
662.74	36275.96
662.88	36039.57
663.03	36615.34
663.17	36257.24
663.31	35693.17
663.45	36278.30
663.60	35875.73
663.74	35880.41
663.88	35849.99
664.02	35749.34
664.17	36210.43
664.31	35594.87
664.45	35676.79
664.59	35531.67
664.73	35742.32
664.88	35864.03
665.02	35180.59
665.16	35505.93
665.30	35168.89
665.44	35253.15
665.59	35281.24
665.73	35014.41
665.87	35337.41
666.01	35164.21
666.15	35037.82
666.29	35140.80
666.44	35241.45
666.58	34925.47
666.72	34766.32
666.86	34646.95
667.00	35044.84
667.14	34857.60
667.28	34756.96
667.43	34560.35
667.57	34426.94
667.71	34415.24
667.85	34663.33
667.99	34815.47
668.13	34265.44
668.27	34492.47
668.41	34223.31
668.56	34422.26
668.70	34401.19
668.84	33993.94
668.98	33715.42
669.12	33766.91
669.26	33776.27
669.40	33738.82
669.54	33584.35
669.68	33832.44
669.82	33455.62
669.96	33347.95
670.10	33046.02
670.25	33787.97
670.39	33263.69
670.53	33223.90
670.67	33151.35
670.81	33151.35
670.95	33387.74
671.09	33259.01
671.23	33104.54
671.37	33064.75
671.51	32985.17
671.65	32900.91
671.79	32910.27
671.93	32606.00
672.07	32996.87
672.21	32507.70
672.35	32261.94
672.49	32596.64
672.63	32446.85
672.77	32432.80
672.91	32531.11
673.05	32051.30
673.19	32121.51
673.33	32046.62
673.47	31875.76
673.61	32095.77
673.75	31653.40
673.89	31824.26
674.03	31548.08
674.17	31707.24
674.31	31690.85
674.45	31435.74
674.59	31590.21
674.73	31639.36
674.87	31646.38
675.01	31110.40
675.15	31381.90
675.29	31257.85
675.43	30850.60
675.56	31248.49
675.70	31180.62
675.84	30719.53
675.98	30490.16
676.12	30820.17
676.26	30885.71
676.40	30810.81
676.54	30679.74
676.68	30670.38
676.82	29914.39
676.96	30101.63
677.10	30036.09
677.23	30323.98
677.37	29795.02
677.51	29762.25
677.65	30120.35
677.79	29450.96
677.93	29158.39
678.07	29329.25
678.21	29221.59
678.34	29259.04
678.48	28851.78
678.62	28910.30
678.76	28699.65
678.90	28744.12
679.04	28332.18
679.18	28865.83
679.31	28563.90
679.45	28519.43
679.59	28854.12
679.73	28428.15
679.87	28386.02
680.00	28320.48
680.14	28224.52
680.28	28273.67
680.42	28027.92
680.56	28072.39
680.70	28030.26
680.83	28004.51
680.97	27711.94
681.11	27381.93
681.25	27426.40
681.39	27337.46
681.52	27534.06
681.66	27182.98
681.80	27271.92
681.94	26848.29
682.07	26845.94
682.21	26948.93
682.35	26817.86
682.49	26771.05
682.62	26625.93
682.76	26141.44
682.90	26462.10
683.04	26483.16
683.17	26040.80
683.31	26277.19
683.45	25993.99
683.59	26263.15
683.72	25259.06
683.86	25982.29
684.00	26167.19
684.13	25757.60
684.27	25373.75
684.41	25504.82
684.55	24985.22
684.68	25336.30
684.82	25469.71
684.96	25319.92
685.09	25348.00
685.23	25064.80
685.37	25067.14
685.50	24849.47
685.64	25015.65
685.78	24404.77
685.91	24329.87
686.05	24599.03
686.19	24269.01
686.32	24004.53
686.46	23978.79
686.60	23608.98
686.73	23407.70
686.87	23028.53
687.01	23239.18
687.14	23133.86
687.28	23229.82
687.42	23199.39
687.55	23442.81
687.69	23407.70
687.82	23194.71
687.96	23384.29
688.10	22897.46
688.23	22918.53
688.37	22658.73
688.50	22801.50
688.64	22623.62
688.78	22647.02
688.91	22511.27
689.05	22307.65
689.18	22368.50
689.32	22199.98
689.46	22452.76
689.59	22171.89
689.73	22230.41
689.86	22153.17
690.00	22106.36
690.13	21930.82
690.27	21738.90
690.41	21680.38
690.54	20973.54
690.68	21582.08
690.81	21413.56
690.95	21317.60
691.08	21266.11
691.22	21305.90
691.35	21135.04
691.49	21256.75
691.62	21441.65
691.76	21053.12
691.89	21242.70
692.03	20835.45
692.16	20676.29
692.30	20514.80
692.43	20346.28
692.57	20198.82
692.70	20374.36
692.84	20032.65
692.97	19997.54
693.11	20334.57
693.24	19955.41
693.38	19960.09
693.51	19513.05
693.65	19943.70
693.78	19758.80
693.92	19489.64
694.05	19866.47
694.19	19646.46
694.32	19566.88
694.45	19454.53
694.59	19180.69
694.72	19372.61
694.86	18682.16
694.99	18911.53
695.13	18771.10
695.26	18757.05
695.39	18876.42
695.53	18813.23
695.66	18684.50
695.80	18810.89
695.93	18523.00
696.07	18574.49
696.20	18354.48
696.33	18565.13
696.47	18375.55
696.60	18141.49
696.73	17919.14
696.87	17797.43
697.00	18080.64
697.14	17982.34
697.27	17640.62
697.40	17631.26
697.54	17570.40
697.67	17736.58
697.80	17280.18
697.94	17118.68
698.07	17130.38
698.21	17032.08
698.34	17317.62
698.47	17142.08
698.61	16910.37
698.74	17032.08
698.87	16783.98
699.01	16615.46
699.14	16470.35
699.27	16355.66
699.40	16683.34
699.54	16664.61
699.67	16276.09
699.80	16222.25
699.94	16123.95
700.07	16196.51
700.20	16137.99
700.34	16273.74
700.47	16070.12
700.60	16114.59
700.73	16081.82
700.87	15765.85
701.00	15730.74
701.13	15627.76
701.26	15508.39
701.40	15396.04
701.53	15269.66
701.66	15417.11
701.79	15199.44
701.93	15215.82
702.06	15073.05
702.19	14714.95
702.32	14979.43
702.46	15103.48
702.59	15080.07
702.72	15019.22
702.85	14785.16
702.99	14822.61
703.12	14635.37
703.25	14651.75
703.38	14363.87
703.51	14244.50
703.65	14263.22
703.78	14120.45
703.91	14075.98
704.04	14260.88
704.17	14017.47
704.31	13996.40
704.44	14092.37
704.57	14258.54
704.70	13891.08
704.83	14040.87
704.96	13973.00
705.10	13921.51
705.23	13748.31
>>>>>End Processed Spectral Data<<<<<
