SpectraSuite Data File
++++++++++++++++++++++++++++++++++++
Date: Fri Oct 25 10:44:35 EDT 2013
User: price-jones
Dark Spectrum Present: No
Reference Spectrum Present: No
Number of Sampled Component Spectra: 1
Spectrometers: USB2+H05261
Integration Time (usec): 100000 (USB2+H05261)
Spectra Averaged: 1 (USB2+H05261)
Boxcar Smoothing: 0 (USB2+H05261)
Correct for Electrical Dark: No (USB2+H05261)
Strobe/Lamp Enabled: No (USB2+H05261)
Correct for Detector Non-linearity: No (USB2+H05261)
Correct for Stray Light: No (USB2+H05261)
Number of Pixels in Processed Spectrum: 2048
>>>>>Begin Processed Spectral Data<<<<<
365.73	149.79
365.92	149.79
366.12	149.79
366.32	51.49
366.52	25.75
366.72	0.00
366.91	0.00
367.11	49.15
367.31	4.68
367.51	28.09
367.70	51.49
367.90	0.00
368.10	30.43
368.30	46.81
368.49	21.06
368.69	114.69
368.89	67.88
369.09	30.43
369.28	70.22
369.48	124.05
369.68	88.94
369.87	93.62
370.07	46.81
370.27	142.77
370.47	227.03
370.66	376.83
370.86	470.45
371.06	374.49
371.25	538.32
371.45	369.80
371.65	456.40
371.84	395.55
372.04	409.59
372.24	475.13
372.44	451.72
372.63	564.07
372.83	440.02
373.03	489.17
373.22	456.40
373.42	472.79
373.62	547.69
373.81	535.98
374.01	503.22
374.21	505.56
374.40	573.43
374.60	564.07
374.79	510.24
374.99	585.13
375.19	550.03
375.38	521.94
375.58	599.18
375.78	557.05
375.97	606.20
376.17	624.92
376.37	622.58
376.56	606.20
376.76	531.30
376.95	664.71
377.15	603.86
377.35	587.47
377.54	669.39
377.74	631.94
377.93	578.11
378.13	671.73
378.33	615.56
378.52	608.54
378.72	589.82
378.91	645.99
379.11	636.63
379.31	655.35
379.50	610.88
379.70	685.78
379.89	641.31
380.09	634.29
380.28	653.01
380.48	716.20
380.68	685.78
380.87	596.84
381.07	634.29
381.26	643.65
381.46	641.31
381.65	657.69
381.85	634.29
382.04	739.61
382.24	676.41
382.43	662.37
382.63	716.20
382.83	734.93
383.02	704.50
383.22	772.38
383.41	645.99
383.61	655.35
383.80	751.31
384.00	716.20
384.19	744.29
384.39	655.35
384.58	664.71
384.78	774.72
384.97	753.65
385.17	704.50
385.36	741.95
385.56	678.76
385.75	697.48
385.95	772.38
386.14	753.65
386.34	720.88
386.53	748.97
386.72	807.48
386.92	814.51
387.11	758.33
387.31	837.91
387.50	697.48
387.70	868.34
387.89	798.12
388.09	847.27
388.28	828.55
388.48	826.21
388.67	858.98
388.86	896.43
389.06	880.04
389.25	945.58
389.45	908.13
389.64	901.11
389.84	882.38
390.03	957.28
390.22	990.05
390.42	856.64
390.61	952.60
390.81	877.70
391.00	875.36
391.19	940.90
391.39	882.38
391.58	978.34
391.78	954.94
391.97	997.07
392.16	943.24
392.36	1025.15
392.55	889.40
392.75	917.49
392.94	926.85
393.13	1006.43
393.33	873.02
393.52	990.05
393.71	1057.92
393.91	1048.56
394.10	983.02
394.29	1095.37
394.49	1095.37
394.68	1132.82
394.88	1071.97
395.07	1144.52
395.26	1142.18
395.46	1074.31
395.65	1130.48
395.84	1139.84
396.04	1174.95
396.23	1123.46
396.42	1123.46
396.62	1142.18
396.81	1156.22
397.00	1179.63
397.19	1193.67
397.39	1273.25
397.58	1214.74
397.77	1299.00
397.97	1238.14
398.16	1198.35
398.35	1313.04
398.55	1327.08
398.74	1252.19
398.93	1348.15
399.12	1383.26
399.32	1413.68
399.51	1352.83
399.70	1418.36
399.90	1362.19
400.09	1427.73
400.28	1420.71
400.47	1352.83
400.67	1404.32
400.86	1497.94
401.05	1423.05
401.24	1465.18
401.44	1556.46
401.63	1650.08
401.82	1521.35
402.01	1584.54
402.21	1547.09
402.40	1563.48
402.59	1547.09
402.78	1600.93
402.97	1596.25
403.17	1703.91
403.36	1619.65
403.55	1659.44
403.74	1614.97
403.93	1565.82
404.13	1621.99
404.32	1659.44
404.51	1668.80
404.70	1724.97
404.89	1514.33
405.09	1720.29
405.28	1762.42
405.47	1699.23
405.66	1820.94
405.85	1769.44
406.05	1820.94
406.24	1722.63
406.43	1797.53
406.62	1881.79
406.81	1937.96
407.00	1813.92
407.20	1860.73
407.39	1834.98
407.58	1902.86
407.77	1914.56
407.96	1994.14
408.15	1916.90
408.34	1914.56
408.54	2008.18
408.73	2012.86
408.92	2024.56
409.11	2050.31
409.30	2101.80
409.49	2003.50
409.68	2097.12
409.87	2113.50
410.07	2146.27
410.26	2033.93
410.45	2183.72
410.64	2207.13
410.83	2223.51
411.02	2202.44
411.21	2310.11
411.40	2249.25
411.59	2246.91
411.78	2291.38
411.98	2436.50
412.17	2438.84
412.36	2363.94
412.55	2485.65
412.74	2511.39
412.93	2492.67
413.12	2422.45
413.31	2656.51
413.50	2614.38
413.69	2565.23
413.88	2574.59
414.07	2530.12
414.26	2593.31
414.45	2637.78
414.64	2670.55
414.83	2626.08
415.02	2731.41
415.22	2799.28
415.41	2745.45
415.60	2874.18
415.79	2829.71
415.98	2906.95
416.17	2890.56
416.36	2991.20
416.55	2857.79
416.74	2881.20
416.93	2963.12
417.12	2953.76
417.31	2956.10
417.50	3042.70
417.69	3204.19
417.88	3112.91
418.07	3035.67
418.26	3096.53
418.45	3138.66
418.64	3183.13
418.83	3225.26
419.02	3138.66
419.21	3269.73
419.39	3211.22
419.58	3169.09
419.77	3049.72
419.96	3363.35
420.15	3328.24
420.34	3255.69
420.53	3351.65
420.72	3393.78
420.91	3353.99
421.10	3382.07
421.29	3496.76
421.48	3325.90
421.67	3517.83
421.86	3368.03
422.05	3541.23
422.24	3510.80
422.43	3501.44
422.61	3515.48
422.80	3538.89
422.99	3538.89
423.18	3527.19
423.37	3503.78
423.56	3644.21
423.75	3513.14
423.94	3595.06
424.13	3337.60
424.32	3463.99
424.50	3531.87
424.69	3566.98
424.88	3669.96
425.07	3679.32
425.26	3571.66
425.45	3595.06
425.64	3618.47
425.83	3803.37
426.01	3712.09
426.20	3634.85
426.39	3716.77
426.58	3578.68
426.77	3571.66
426.96	3777.62
427.15	3639.53
427.33	3880.61
427.52	3712.09
427.71	3894.65
427.90	3744.86
428.09	3843.16
428.28	3779.97
428.46	3824.44
428.65	3751.88
428.84	3941.46
429.03	3819.75
429.22	3845.50
429.40	3812.73
429.59	3810.39
429.78	3651.24
429.97	3679.32
430.16	3805.71
430.34	3782.31
430.53	3822.09
430.72	3948.48
430.91	3878.27
431.10	4014.02
431.28	4142.75
431.47	4131.05
431.66	4189.56
431.85	4095.94
432.03	4091.26
432.22	4224.67
432.41	4227.01
432.60	4407.23
432.79	4374.46
432.97	4397.87
433.16	4332.33
433.35	4236.37
433.54	4248.07
433.72	4432.97
433.91	4297.22
434.10	4280.84
434.28	4339.35
434.47	4365.10
434.66	4444.68
434.85	4428.29
435.03	4561.70
435.22	4475.10
435.41	4648.30
435.59	4594.47
435.78	4685.75
435.97	4702.14
436.16	4704.48
436.34	4585.11
436.53	4634.26
436.72	4798.10
436.90	4514.89
437.09	4676.39
437.28	4547.66
437.46	4699.80
437.65	4652.98
437.84	4662.35
438.02	4854.27
438.21	4847.25
438.40	4765.33
438.58	5011.09
438.77	5142.16
438.96	4973.64
439.14	5163.22
439.33	5214.71
439.52	5142.16
439.70	4968.96
439.89	5277.91
440.08	5277.91
440.26	5261.52
440.45	5275.57
440.63	5305.99
440.82	5547.07
441.01	5518.98
441.19	5518.98
441.38	5561.11
441.57	5446.43
441.75	5570.48
441.94	5703.89
442.12	5535.37
442.31	5717.93
442.50	5727.29
442.68	5621.97
442.87	5776.44
443.05	5818.57
443.24	5783.46
443.43	5898.15
443.61	5968.37
443.80	6090.07
443.98	5788.14
444.17	5729.63
444.35	5856.02
444.54	5987.09
444.73	5914.53
444.91	5982.41
445.10	5973.05
445.28	5959.00
445.47	5891.13
445.65	5949.64
445.84	5888.79
446.02	5928.58
446.21	5778.78
446.39	5959.00
446.58	5968.37
446.77	5975.39
446.95	5933.26
447.14	5919.21
447.32	6071.35
447.51	6099.44
447.69	5991.77
447.88	6200.08
448.06	6122.84
448.25	6181.35
448.43	6017.52
448.62	6146.25
448.80	6047.94
448.99	6267.95
449.17	6148.59
449.36	6223.48
449.54	6253.91
449.73	6394.34
449.91	6256.25
450.10	6366.26
450.28	6392.00
450.46	6537.12
450.65	6492.65
450.83	6478.60
451.02	6537.12
451.20	6490.31
451.39	6581.59
451.57	6436.47
451.76	6518.39
451.94	6494.99
452.13	6644.78
452.31	6623.72
452.49	6464.56
452.68	6436.47
452.86	6363.92
453.05	6616.69
453.23	6633.08
453.42	6560.52
453.60	6602.65
453.78	6759.47
453.97	6808.62
454.15	6471.58
454.34	6794.58
454.52	6883.52
454.70	6822.66
454.89	6789.89
455.07	6881.18
455.26	6810.96
455.44	7073.10
455.62	6974.80
455.81	6951.39
455.99	7117.57
456.17	7103.53
456.36	7105.87
456.54	7143.32
456.73	7201.83
456.91	7265.02
457.09	7232.26
457.28	7389.07
457.46	7232.26
457.64	7260.34
457.83	7372.69
458.01	7229.91
458.19	7616.10
458.38	7393.75
458.56	7531.84
458.74	7365.67
458.93	7555.25
459.11	7552.91
459.29	7520.14
459.48	7826.75
459.66	7709.72
459.84	7548.23
460.03	7831.43
460.21	7803.35
460.39	7777.60
460.57	7761.22
460.76	7878.24
460.94	7793.98
461.12	8013.99
461.31	7999.95
461.49	7852.50
461.67	7845.48
461.85	8091.23
462.04	8077.19
462.22	8336.99
462.40	8231.66
462.59	8102.93
462.77	8224.64
462.95	8140.38
463.13	8124.00
463.32	8166.13
463.50	8329.97
463.68	8177.83
463.86	8358.05
464.05	8184.85
464.23	8271.45
464.41	8479.76
464.59	8264.43
464.78	8461.04
464.96	8241.03
465.14	8184.85
465.32	8219.96
465.50	8355.71
465.69	8627.21
465.87	8400.18
466.05	8475.08
466.23	8142.72
466.41	8273.79
466.60	8641.26
466.78	8290.18
466.96	8332.31
467.14	8351.03
467.32	8624.87
467.51	8847.22
467.69	8545.30
467.87	8587.43
468.05	8655.30
468.23	8580.40
468.41	8344.01
468.60	8613.17
468.78	8798.07
468.96	8732.54
469.14	9027.45
469.32	8966.59
469.50	8812.12
469.69	8952.55
469.87	8926.80
470.05	9062.55
470.23	9022.77
470.41	9163.20
470.59	9327.03
470.77	9050.85
470.95	9022.77
471.14	9217.03
471.32	9085.96
471.50	9432.36
471.68	9399.59
471.86	9238.09
472.04	9282.56
472.22	9790.46
472.40	9320.01
472.58	9626.62
472.77	9554.07
472.95	9778.76
473.13	9961.32
473.31	9521.30
473.49	9570.45
473.67	9633.64
473.85	9961.32
474.03	10054.94
474.21	10031.54
474.39	10230.48
474.57	10078.35
474.75	10036.22
474.93	10237.50
475.12	10132.18
475.30	10190.69
475.48	10450.49
475.66	10267.93
475.84	10370.91
476.02	10279.63
476.20	10553.48
476.38	10668.16
476.56	11044.99
476.74	10810.93
476.92	10970.09
477.10	10972.43
477.28	10995.84
477.46	10860.09
477.64	11201.80
477.82	11180.74
478.00	11571.61
478.18	11669.91
478.36	11442.88
478.54	11644.17
478.72	11440.54
478.90	11836.09
479.08	11901.62
479.26	11964.82
479.44	12002.27
479.62	12105.25
479.80	12177.81
479.98	12163.76
480.16	12596.76
480.34	12418.88
480.52	12540.59
480.70	12716.13
480.88	12524.21
481.06	12737.20
481.24	12617.83
481.41	13048.49
481.59	13167.85
481.77	13221.69
481.95	13195.94
482.13	13207.64
482.31	13338.71
482.49	13827.88
482.67	13572.77
482.85	14012.79
483.03	14047.90
483.21	14221.10
483.39	13982.36
483.57	14171.94
483.74	14244.50
483.92	14094.71
484.10	14300.67
484.28	14340.46
484.46	14813.25
484.64	14799.21
484.82	14661.12
485.00	14829.63
485.18	15147.95
485.35	15283.70
485.53	15225.18
485.71	15169.01
485.89	15396.04
486.07	15417.11
486.25	15566.90
486.43	15662.86
486.61	15854.79
486.78	15932.03
486.96	16191.83
487.14	16439.92
487.32	16449.28
487.50	16837.81
487.68	16769.94
487.85	16816.75
488.03	17170.17
488.21	17235.70
488.39	17460.40
488.57	17128.04
488.75	17425.29
488.92	17535.29
489.10	17921.48
489.28	18082.98
489.46	18258.52
489.64	18176.60
489.81	18597.90
489.99	18326.39
490.17	18707.90
490.35	18845.99
490.53	18794.50
490.70	19073.03
490.88	18799.18
491.06	19377.30
491.24	19496.66
491.41	19117.50
491.59	19351.55
491.77	19405.38
491.95	19543.47
492.13	19800.93
492.30	19824.34
492.48	20013.92
492.66	19971.79
492.84	20255.00
493.01	20428.20
493.19	20119.24
493.37	20629.48
493.54	20458.62
493.72	20938.43
493.90	21113.97
494.08	21238.02
494.25	21359.73
494.43	21259.09
494.61	21523.57
494.79	21610.17
494.96	21385.47
495.14	21886.35
495.32	21984.65
495.49	22239.77
495.67	22108.70
495.85	22136.79
496.02	22544.04
496.20	22501.91
496.38	22752.35
496.55	22738.30
496.73	22984.06
496.91	22951.29
497.09	23000.44
497.26	23204.07
497.44	23138.54
497.62	23452.17
497.79	23578.56
497.97	23613.66
498.14	23763.46
498.32	23681.54
498.50	23812.61
498.67	24011.56
498.85	24259.65
499.03	24067.73
499.20	24187.10
499.38	24266.67
499.56	24491.37
499.73	24753.51
499.91	24582.65
500.08	25041.39
500.26	24409.45
500.44	24910.32
500.61	24783.93
500.79	24907.98
500.97	25184.16
501.14	25621.84
501.32	25298.85
501.49	25270.76
501.67	25465.03
501.84	25467.37
502.02	25600.78
502.20	25907.39
502.37	25977.61
502.55	26064.21
502.72	26057.18
502.90	26118.04
503.07	26001.01
503.25	26403.58
503.43	26202.30
503.60	26260.81
503.78	25902.71
503.95	26235.06
504.13	26356.77
504.30	26721.90
504.48	26494.86
504.65	26998.08
504.83	26951.27
505.01	27007.44
505.18	27201.71
505.36	27412.35
505.53	27318.73
505.71	27480.23
505.88	27803.22
506.06	27267.24
506.23	27725.99
506.41	27564.49
506.58	27599.60
506.76	28208.14
506.93	27913.23
507.11	27625.34
507.28	28222.18
507.46	28109.83
507.63	28261.97
507.81	28175.37
507.98	28077.07
508.16	28390.70
508.33	28472.62
508.50	28676.24
508.68	29085.84
508.85	28989.88
509.03	28379.00
509.20	29399.47
509.38	29125.63
509.55	29273.08
509.73	29528.20
509.90	29184.14
510.08	29481.39
510.25	29160.73
510.42	29701.40
510.60	29764.59
510.77	29736.51
510.95	29628.84
511.12	29689.70
511.30	30024.39
511.47	30178.87
511.64	30464.41
511.82	30403.56
511.99	29855.87
512.17	30316.96
512.34	30265.47
512.51	30738.26
512.69	30532.29
512.86	30892.73
513.04	31021.46
513.21	30417.60
513.38	30593.14
513.56	31087.00
513.73	30513.56
513.90	30796.77
514.08	30906.77
514.25	31201.68
514.43	31281.26
514.60	31175.94
514.77	31379.56
514.95	31875.76
515.12	31683.83
515.29	31730.64
515.47	31772.77
515.64	31938.95
515.81	31812.56
515.99	31658.09
516.16	31211.04
516.33	32006.83
516.51	31800.86
516.68	31618.30
516.85	31744.69
517.03	31723.62
517.20	32503.02
517.37	32488.98
517.54	32627.07
517.72	32421.10
517.89	32170.66
518.06	32060.66
518.24	32112.15
518.41	32404.72
518.58	32704.31
518.75	32435.14
518.93	32807.29
519.10	32767.50
519.27	32973.47
519.45	32669.20
519.62	32924.32
519.79	32917.29
519.96	33179.43
520.14	33446.26
520.31	33146.67
520.48	33422.85
520.65	33251.99
520.83	34071.18
521.00	34019.69
521.17	33867.55
521.34	34153.10
521.52	34146.08
521.69	33727.12
521.86	34242.04
522.03	34398.85
522.20	33942.45
522.38	34525.24
522.55	34452.69
522.72	34015.01
522.89	34417.58
523.07	34298.21
523.24	34684.40
523.41	34696.10
523.58	34745.25
523.75	35297.62
523.92	35248.47
524.10	35131.44
524.27	35346.77
524.44	35063.57
524.61	35124.42
524.78	35150.17
524.96	35601.89
525.13	35278.89
525.30	35739.98
525.47	35796.15
525.64	35587.85
525.81	35374.86
525.98	35079.95
526.16	34913.77
526.33	35709.55
526.50	35395.92
526.67	35255.49
526.84	35805.52
527.01	35737.64
527.18	35934.24
527.36	35969.35
527.53	35985.74
527.70	36416.40
527.87	36432.78
528.04	35793.81
528.21	36334.48
528.38	36121.49
528.55	36566.19
528.72	36650.45
528.89	36669.17
529.07	36896.20
529.24	36233.83
529.41	36613.00
529.58	36854.08
529.75	36657.47
529.92	36718.32
530.09	36896.20
530.26	37251.97
530.43	37275.37
530.60	36847.05
530.77	37237.92
530.94	37347.93
531.11	37296.44
531.28	37809.01
531.46	37233.24
531.63	37663.90
531.80	37336.23
531.97	37544.53
532.14	37179.41
532.31	36842.37
532.48	37315.16
532.65	37303.46
532.82	37411.12
532.99	37804.33
533.16	37193.45
533.33	37900.29
533.50	37865.19
533.67	37912.00
533.84	37851.14
534.01	37897.95
534.18	37982.21
534.35	38246.69
534.52	38117.96
534.69	38396.49
534.86	38185.84
535.03	38059.45
535.20	38160.09
535.37	38986.30
535.54	38714.80
535.71	38515.86
535.88	38677.35
536.05	38595.43
536.22	39014.39
536.38	38639.90
536.55	38749.91
536.72	38534.58
536.89	38536.92
537.06	38888.00
537.23	38845.87
537.40	39084.61
537.57	39225.04
537.74	38892.68
537.91	39129.08
538.08	39236.74
538.25	39105.67
538.42	39175.89
538.59	39344.41
538.75	38763.95
538.92	39129.08
539.09	39594.84
539.26	39356.11
539.43	39119.71
539.60	39606.55
539.77	39044.82
539.94	39318.66
540.11	39470.79
540.28	39505.90
540.44	39531.65
540.61	39793.79
540.78	39545.69
540.95	39880.39
541.12	39405.26
541.29	39739.96
541.46	39749.32
541.62	40329.77
541.79	40116.78
541.96	39526.97
542.13	39751.66
542.30	39812.51
542.47	40109.76
542.63	40416.37
542.80	40435.10
542.97	40615.32
543.14	40601.27
543.31	40367.22
543.48	40811.92
543.64	40858.73
543.81	41024.91
543.98	41163.00
544.15	40231.47
544.32	41022.57
544.48	41261.30
544.65	40783.83
544.82	40893.84
544.99	40540.42
545.16	41041.29
545.32	40701.92
545.49	40978.10
545.66	41797.29
545.83	41523.44
546.00	41249.60
546.16	41165.34
546.33	41027.25
546.50	41064.70
546.67	40802.56
546.83	40832.99
547.00	41694.30
547.17	41024.91
547.34	41523.44
547.50	41439.18
547.67	42024.32
547.84	41666.22
548.00	41811.33
548.17	42218.58
548.34	41460.25
548.51	42089.85
548.67	42026.66
548.84	41879.21
549.01	41593.66
549.18	41773.88
549.34	42010.28
549.51	41968.15
549.68	41900.27
549.84	41888.57
550.01	42141.35
550.18	42197.52
550.34	41713.03
550.51	42129.64
550.68	41874.52
550.84	41790.27
551.01	42312.20
551.18	41921.34
551.34	41778.56
551.51	42344.97
551.68	42314.55
551.84	42628.18
552.01	42113.26
552.18	42356.67
552.34	41937.72
552.51	42148.37
552.68	42525.19
552.84	42932.45
553.01	42450.30
553.18	42541.58
553.34	42162.41
553.51	42515.83
553.67	42721.80
553.84	42686.69
554.01	43072.88
554.17	42698.39
554.34	42993.30
554.51	42712.44
554.67	43103.31
554.84	42794.36
555.00	42742.86
555.17	42642.22
555.33	42890.32
555.50	42363.70
555.67	43178.20
555.83	42616.47
556.00	42927.77
556.16	42939.47
556.33	43075.22
556.50	43194.59
556.66	43033.09
556.83	42574.34
556.99	43459.07
557.16	43356.08
557.32	43452.05
557.49	42871.59
557.65	42691.37
557.82	42958.19
557.98	43194.59
558.15	43243.74
558.32	43438.00
558.48	43636.95
558.65	43372.47
558.81	43461.41
558.98	43019.05
559.14	43152.46
559.31	43136.07
559.47	43859.30
559.64	43735.25
559.80	43753.97
559.97	43569.07
560.13	43416.94
560.30	43189.91
560.46	43552.69
560.63	43807.81
560.79	43697.80
560.96	44425.71
561.12	43627.59
561.29	43655.67
561.45	43674.40
561.61	43929.51
561.78	43707.16
561.94	43585.46
562.11	43342.04
562.27	43779.72
562.44	43913.13
562.60	43833.55
562.77	44032.50
562.93	44179.95
563.10	43997.39
563.26	43533.96
563.42	43906.11
563.59	43555.03
563.75	43770.36
563.92	43627.59
564.08	44268.89
564.24	44360.17
564.41	44151.87
564.57	44100.37
564.74	43913.13
564.90	43999.73
565.07	43793.76
565.23	43643.97
565.39	43927.17
565.56	44072.29
565.72	43391.19
565.88	43922.49
566.05	44172.93
566.21	43721.21
566.38	43695.46
566.54	43950.58
566.70	43885.04
566.87	44612.95
567.03	44252.51
567.19	44762.75
567.36	44044.20
567.52	43775.04
567.68	44631.68
567.85	44041.86
568.01	44067.61
568.17	44107.40
568.34	44425.71
568.50	44509.97
568.66	43880.36
568.83	44315.70
568.99	43826.53
569.15	43761.00
569.32	43962.28
569.48	43847.60
569.64	43973.98
569.81	44285.28
569.97	44442.09
570.13	44219.74
570.30	43833.55
570.46	43908.45
570.62	44201.02
570.78	44102.71
570.95	44011.43
571.11	44292.30
571.27	44219.74
571.43	44353.15
571.60	44781.47
571.76	44219.74
571.92	44306.34
572.09	44264.21
572.25	43894.41
572.41	44133.14
572.57	43969.30
572.74	44364.85
572.90	44170.59
573.06	44406.98
573.22	44477.20
573.38	44037.18
573.55	44542.74
573.71	44399.96
573.87	43964.62
574.03	44196.34
574.20	44292.30
574.36	44219.74
574.52	44397.62
574.68	44516.99
574.84	44701.89
575.01	44411.67
575.17	44318.04
575.33	44474.86
575.49	44140.16
575.65	44224.42
575.82	44910.20
575.98	44142.50
576.14	44362.51
576.30	44865.73
576.46	44325.07
576.62	44079.31
576.79	44254.85
576.95	44083.99
577.11	44348.47
577.27	44818.92
577.43	44648.06
577.59	44378.90
577.75	44516.99
577.92	44275.91
578.08	44311.02
578.24	43838.23
578.40	44374.22
578.56	43908.45
578.72	44737.00
578.88	44229.10
579.04	44439.75
579.21	44381.24
579.37	44807.22
579.53	44561.46
579.69	44322.72
579.85	44568.48
580.01	44734.66
580.17	44266.55
580.33	44938.29
580.49	44524.01
580.65	44692.53
580.82	44105.06
580.98	44528.69
581.14	44575.50
581.30	44603.59
581.46	44540.39
581.62	44802.53
581.78	44814.24
581.94	44655.08
582.10	44624.65
582.26	44622.31
582.42	44676.15
582.58	44748.70
582.74	44233.78
582.90	44666.78
583.06	44739.34
583.22	45038.93
583.38	44928.92
583.54	44938.29
583.70	44416.35
583.86	44708.91
584.02	44470.18
584.18	44428.05
584.34	44376.56
584.50	44629.34
584.66	44252.51
584.82	44198.68
584.98	45193.40
585.14	44980.42
585.30	44451.45
585.46	44584.86
585.62	44683.17
585.78	44580.18
585.94	44172.93
586.10	44374.22
586.26	44535.71
586.42	44790.83
586.58	44561.46
586.74	44839.98
586.90	44308.68
587.06	44339.11
587.22	44203.36
587.38	43910.79
587.54	44673.81
587.70	45041.27
587.86	44884.45
588.02	45048.29
588.18	44797.85
588.34	44643.38
588.49	44432.73
588.65	44013.77
588.81	44196.34
588.97	44470.18
589.13	44334.43
589.29	44336.77
589.45	44165.91
589.61	44816.58
589.77	44533.37
589.93	44818.92
590.08	44921.90
590.24	44797.85
590.40	44968.71
590.56	45003.82
590.72	44839.98
590.88	44706.57
591.04	45006.16
591.20	45413.41
591.35	45308.09
591.51	45052.97
591.67	44926.58
591.83	45268.30
591.99	45083.40
592.15	45116.17
592.31	45006.16
592.46	44994.46
592.62	44729.98
592.78	44877.43
592.94	45539.80
593.10	44713.59
593.26	45001.48
593.41	45322.13
593.57	44975.73
593.73	44734.66
593.89	44765.09
594.05	44912.54
594.20	45036.59
594.36	45069.36
594.52	44811.90
594.68	44669.12
594.84	44891.48
594.99	45338.52
595.15	44788.49
595.31	44982.76
595.47	44903.18
595.62	45017.86
595.78	44982.76
595.94	45380.65
596.10	44917.22
596.25	44872.75
596.41	45223.83
596.57	45092.76
596.73	45153.62
596.88	45125.53
597.04	45022.54
597.20	45322.13
597.36	45048.29
597.51	45146.59
597.67	45574.91
597.83	45464.91
597.99	45474.27
598.14	44903.18
598.30	45057.65
598.46	45123.19
598.61	45380.65
598.77	44673.81
598.93	44802.53
599.09	44769.77
599.24	45357.24
599.40	45404.05
599.56	45404.05
599.71	44877.43
599.87	45298.73
600.03	45076.38
600.18	44942.97
600.34	45397.03
600.50	45230.85
600.65	45038.93
600.81	44847.00
600.97	44610.61
601.12	45022.54
601.28	45186.38
601.44	45097.44
601.59	44865.73
601.75	45062.33
601.91	45090.42
602.06	44692.53
602.22	45074.04
602.37	45244.90
602.53	45261.28
602.69	44907.86
602.84	44870.41
603.00	44713.59
603.16	44629.34
603.31	44669.12
603.47	44851.69
603.62	44942.97
603.78	44940.63
603.94	45322.13
604.09	45301.07
604.25	45034.25
604.40	44914.88
604.56	45020.20
604.71	45443.84
604.87	44449.11
605.03	45001.48
605.18	44776.79
605.34	44669.12
605.49	44891.48
605.65	44858.71
605.80	45038.93
605.96	44968.71
606.12	44975.73
606.27	45418.10
606.43	44968.71
606.58	44868.07
606.74	44781.47
606.89	45038.93
607.05	44839.98
607.20	44837.64
607.36	44779.13
607.51	44699.55
607.67	44720.62
607.82	44821.26
607.98	44926.58
608.13	44645.72
608.29	44648.06
608.44	44568.48
608.60	44130.80
608.75	44308.68
608.91	44313.36
609.06	44385.92
609.22	44493.58
609.37	44222.08
609.53	44624.65
609.68	44755.72
609.84	44847.00
609.99	44615.29
610.15	44524.01
610.30	44409.32
610.46	44430.39
610.61	44149.53
610.76	44608.27
610.92	44622.31
611.07	44664.44
611.23	44430.39
611.38	44968.71
611.54	44671.46
611.69	44055.90
611.84	44442.09
612.00	44554.44
612.15	44163.57
612.31	44598.91
612.46	44170.59
612.62	44392.94
612.77	43840.57
612.92	44470.18
613.08	44076.97
613.23	43880.36
613.39	44327.41
613.54	44062.93
613.69	43985.69
613.85	44219.74
614.00	44229.10
614.15	44371.88
614.31	44626.99
614.46	44294.64
614.62	44105.06
614.77	44119.10
614.92	44205.70
615.08	43995.05
615.23	44025.48
615.38	44037.18
615.54	43583.12
615.69	43746.95
615.84	43742.27
616.00	43903.77
616.15	43669.72
616.30	43360.76
616.46	43260.12
616.61	43606.52
616.76	43454.39
616.92	43075.22
617.07	43260.12
617.22	43690.78
617.37	43243.74
617.53	43655.67
617.68	43529.28
617.83	43487.15
617.99	44037.18
618.14	43501.20
618.29	44060.58
618.45	43037.77
618.60	43264.80
618.75	43660.35
618.90	43517.58
619.06	43606.52
619.21	43583.12
619.36	43786.74
619.51	43761.00
619.67	43229.69
619.82	43093.94
619.97	43337.36
620.12	43650.99
620.28	43381.83
620.43	42777.97
620.58	43058.84
620.73	42707.76
620.89	43241.40
621.04	43028.41
621.19	43210.97
621.34	43330.34
621.49	43047.13
621.65	42918.40
621.80	43002.66
621.95	42522.85
622.10	42513.49
622.25	42653.92
622.41	42518.17
622.56	42876.27
622.71	42862.23
622.86	42607.11
623.01	42890.32
623.16	42583.71
623.32	42380.08
623.47	42670.31
623.62	42693.71
623.77	42323.91
623.92	42497.11
624.07	42532.22
624.23	42368.38
624.38	42660.94
624.53	42197.52
624.68	42220.92
624.83	42314.55
624.98	42487.74
625.13	41989.21
625.29	42586.05
625.44	42270.08
625.59	42094.53
625.74	41378.33
625.89	41848.78
626.04	41780.90
626.19	42075.81
626.34	42078.15
626.49	42197.52
626.65	42127.30
626.80	42539.24
626.95	41975.17
627.10	41741.11
627.25	41607.70
627.40	41734.09
627.55	41507.06
627.70	41600.68
627.85	41806.65
628.00	41528.13
628.15	41364.29
628.30	41392.37
628.45	41441.53
628.60	41549.19
628.76	41453.23
628.91	41792.61
629.06	41507.06
629.21	41790.27
629.36	41467.27
629.51	41331.52
629.66	40975.76
629.81	41408.76
629.96	41326.84
630.11	41294.07
630.26	41387.69
630.41	41949.42
630.56	41380.67
630.71	41270.67
630.86	41326.84
631.01	41287.05
631.16	41322.16
631.31	41301.09
631.46	40641.06
631.61	41467.27
631.76	41141.94
631.91	41626.43
632.06	41102.15
632.21	41364.29
632.36	41296.41
632.51	40594.25
632.66	41027.25
632.81	40645.74
632.96	41043.63
633.10	40669.15
633.25	41053.00
633.40	41130.23
633.55	41235.56
633.70	40552.12
633.85	40531.06
634.00	41184.07
634.15	41008.53
634.30	40559.14
634.45	40690.21
634.60	40744.05
634.75	40669.15
634.90	40966.40
635.05	40758.09
635.19	40727.66
635.34	40533.40
635.49	40627.02
635.64	40201.04
635.79	40287.64
635.94	40402.33
636.09	40505.31
636.24	40175.30
636.39	40105.08
636.53	40287.64
636.68	40060.61
636.83	39978.69
636.98	40381.26
637.13	39950.60
637.28	40495.95
637.43	40418.71
637.57	40409.35
637.72	40119.12
637.87	40098.06
638.02	40201.04
638.17	40339.13
638.32	39854.64
638.46	39927.20
638.61	39955.29
638.76	40109.76
638.91	40011.46
639.06	39847.62
639.20	40053.59
639.35	39950.60
639.50	39636.97
639.65	40367.22
639.80	39803.15
639.94	39538.67
640.09	39723.57
640.24	39571.44
640.39	39412.28
640.54	39285.89
640.68	39634.63
640.83	39831.24
640.98	39342.06
641.13	39283.55
641.27	39915.50
641.42	39023.75
641.57	39641.65
641.72	39264.83
641.86	39526.97
642.01	39051.84
642.16	38981.62
642.31	38927.79
642.45	39182.91
642.60	38897.36
642.75	39210.99
642.90	39079.92
643.04	38967.58
643.19	39194.61
643.34	39021.41
643.48	38967.58
643.63	38724.16
643.78	39100.99
643.93	38756.93
644.07	38752.25
644.22	38770.97
644.37	38675.01
644.51	39098.65
644.66	39222.70
644.81	38632.88
644.95	39159.50
645.10	38792.04
645.25	39173.55
645.39	38862.26
645.54	38637.56
645.69	38562.67
645.83	38918.43
645.98	39108.01
646.13	38747.57
646.27	38906.73
646.42	38780.34
646.57	38857.57
646.71	38583.73
646.86	38651.61
647.00	38630.54
647.15	38436.28
647.30	38665.65
647.44	38923.11
647.59	38824.81
647.74	38010.30
647.88	38609.48
648.03	38803.74
648.17	38316.91
648.32	37734.12
648.47	38169.46
648.61	37869.87
648.76	38396.49
648.90	38073.49
649.05	38019.66
649.20	38607.14
649.34	37619.43
649.49	37649.86
649.63	38384.79
649.78	38260.74
649.92	37890.93
650.07	38277.12
650.21	38019.66
650.36	38092.22
650.51	37830.08
650.65	38286.48
650.80	37876.89
650.94	37928.38
651.09	38497.13
651.23	37879.23
651.38	37886.25
651.52	37776.25
651.67	38052.43
651.81	37813.70
651.96	37605.39
652.10	37511.77
652.25	37446.23
652.39	37471.98
652.54	37706.03
652.68	37738.80
652.83	37755.18
652.97	38038.39
653.12	37415.80
653.26	37219.20
653.41	37212.18
653.55	37046.00
653.70	36914.93
653.84	37741.14
653.99	37542.19
654.13	37553.90
654.27	37118.56
654.42	37364.31
654.56	37202.82
654.71	37462.61
654.85	37539.85
655.00	37317.50
655.14	36959.40
655.29	37202.82
655.43	36957.06
655.57	37137.28
655.72	36685.56
655.86	36680.88
656.01	36107.44
656.15	36992.17
656.30	36615.34
656.44	36755.77
656.58	36526.40
656.73	36685.56
656.87	36575.55
657.01	36655.13
657.16	36952.38
657.30	36718.32
657.45	36545.12
657.59	36725.35
657.73	36552.15
657.88	37034.30
658.02	36877.48
658.16	36786.20
658.31	37003.87
658.45	36715.98
658.60	36210.43
658.74	36741.73
658.88	36856.42
659.03	36292.35
659.17	36084.04
659.31	36404.69
659.46	35852.33
659.60	36151.91
659.74	36329.80
659.89	35990.42
660.03	35803.17
660.17	36414.05
660.32	35880.41
660.46	36114.47
660.60	36039.57
660.74	36086.38
660.89	35992.76
661.03	35651.04
661.17	35510.61
661.32	35531.67
661.46	35812.54
661.60	35056.54
661.74	35695.51
661.89	35576.14
662.03	35688.49
662.17	35227.40
662.31	35040.16
662.46	35442.73
662.60	35248.47
662.74	35072.93
662.88	35019.10
663.03	34817.81
663.17	34810.79
663.31	35014.41
663.45	35311.66
663.60	34857.60
663.74	34918.45
663.88	34628.23
664.02	34665.67
664.17	34871.64
664.31	34689.08
664.45	34799.08
664.59	34803.77
664.73	34602.48
664.88	34415.24
665.02	34375.45
665.16	34445.66
665.30	34497.16
665.44	34141.39
665.59	33862.87
665.73	33998.62
665.87	34408.22
666.01	34174.16
666.15	34146.08
666.29	34242.04
666.44	33944.79
666.58	34047.77
666.72	33921.38
666.86	33872.23
667.00	34047.77
667.14	33378.38
667.28	33441.57
667.43	33322.21
667.57	33668.61
667.71	33523.49
667.85	33296.46
667.99	33593.71
668.13	33497.75
668.27	33186.46
668.41	33411.15
668.56	33226.24
668.70	33572.64
668.84	33259.01
668.98	33036.66
669.12	32973.47
669.26	32643.45
669.40	32884.53
669.54	32582.60
669.68	32863.46
669.82	32606.00
669.96	32460.89
670.10	32390.67
670.25	32788.56
670.39	32648.13
670.53	32212.79
670.67	32484.30
670.81	32336.84
670.95	32596.64
671.09	32514.72
671.23	32205.77
671.37	32030.23
671.51	31936.61
671.65	31817.24
671.79	31611.28
671.93	31885.12
672.07	32196.41
672.21	31828.95
672.35	31908.52
672.49	31552.76
672.63	31580.85
672.77	31618.30
672.91	31489.57
673.05	31440.42
673.19	31353.82
673.33	31122.10
673.47	30972.31
673.61	31323.39
673.75	30572.08
673.89	30796.77
674.03	30609.53
674.17	30925.50
674.31	30618.89
674.45	30576.76
674.59	30852.94
674.73	31248.49
674.87	30630.59
675.01	29998.65
675.15	30644.63
675.29	30724.21
675.43	30419.94
675.56	30347.39
675.70	30113.33
675.84	30560.37
675.98	29024.98
676.12	30171.85
676.26	29729.48
676.40	29806.72
676.54	29919.07
676.68	29898.00
676.82	29132.65
676.96	29596.07
677.10	29355.00
677.23	29331.59
677.37	29228.61
677.51	29139.67
677.65	28844.76
677.79	28470.28
677.93	28865.83
678.07	28652.84
678.21	28292.40
678.34	28158.99
678.48	28290.06
678.62	28198.77
678.76	27833.65
678.90	27882.80
679.04	27946.00
679.18	27728.33
679.31	27725.99
679.45	27541.08
679.59	27513.00
679.73	27534.06
679.87	27292.99
680.00	27101.06
680.14	27126.81
680.28	27555.13
680.42	27248.52
680.56	27321.07
680.70	27119.79
680.83	27178.30
680.97	27454.48
681.11	26845.94
681.25	26616.57
681.39	26885.73
681.52	26892.76
681.66	26394.22
681.80	26712.53
681.94	26513.59
682.07	26202.30
682.21	26293.58
682.35	26136.76
682.49	26167.19
682.62	25982.29
682.76	25912.07
682.90	25851.22
683.04	25666.31
683.17	25469.71
683.31	25331.62
683.45	25619.50
683.59	25179.48
683.72	25195.87
683.86	25415.88
684.00	24812.02
684.13	24870.53
684.27	24643.50
684.41	24673.93
684.55	25003.94
684.68	24566.26
684.82	24685.63
684.96	24397.74
685.09	24746.48
685.23	24666.91
685.37	24519.45
685.50	24404.77
685.64	24009.22
685.78	24400.08
685.91	23929.64
686.05	23756.44
686.19	23360.89
686.32	23271.95
686.46	23117.47
686.60	23211.09
686.73	23131.51
686.87	23138.54
687.01	22988.74
687.14	22874.06
687.28	22785.12
687.42	22855.33
687.55	22623.62
687.69	23140.88
687.82	22738.30
687.96	22944.27
688.10	22815.54
688.23	22696.17
688.37	21984.65
688.50	21986.99
688.64	22239.77
688.78	22050.19
688.91	22082.95
689.05	22235.09
689.18	21944.86
689.32	21785.71
689.46	21771.66
689.59	21949.54
689.73	22057.21
689.86	21532.93
690.00	21549.31
690.13	21862.94
690.27	21436.97
690.41	21123.33
690.54	21060.14
690.68	21132.70
690.81	21104.61
690.95	20713.74
691.08	20837.79
691.22	20762.89
691.35	20531.18
691.49	21249.72
691.62	20798.00
691.76	20306.49
691.89	20130.95
692.03	20477.35
692.16	20489.05
692.30	20196.48
692.43	19962.43
692.57	19873.49
692.70	19824.34
692.84	19536.45
692.97	19733.06
693.11	19786.89
693.24	19321.12
693.38	19616.03
693.51	19201.76
693.65	19321.12
693.78	19393.68
693.92	19555.18
694.05	19115.16
694.19	19136.22
694.32	18930.25
694.45	18988.77
694.59	18675.13
694.72	18677.48
694.86	18703.22
694.99	18633.00
695.13	18567.47
695.26	18370.86
695.39	18127.45
695.53	18317.03
695.66	18132.13
695.80	18431.72
695.93	18022.12
696.07	17776.37
696.20	17984.68
696.33	18040.85
696.47	17638.28
696.60	18029.15
696.73	17795.09
696.87	17591.47
697.00	17561.04
697.14	17750.62
697.27	17350.39
697.40	17577.42
697.54	17240.39
697.67	16959.52
697.80	17242.73
697.94	16877.60
698.07	16879.94
698.21	16561.63
698.34	16744.19
698.47	16622.48
698.61	16215.23
698.74	16404.81
698.87	16484.39
699.01	16208.21
699.14	15955.43
699.27	16072.46
699.40	16334.60
699.54	15735.42
699.67	15925.00
699.80	15999.90
699.94	15971.82
700.07	16203.53
700.20	15779.89
700.34	15819.68
700.47	15744.78
700.60	15791.59
700.73	15763.51
700.87	15412.43
701.00	15557.54
701.13	15274.34
701.26	15365.62
701.40	15466.26
701.53	14913.89
701.66	15159.65
701.79	14839.00
701.93	15089.43
702.06	14801.55
702.19	14548.77
702.32	14883.47
702.46	14640.05
702.59	14539.41
702.72	14593.24
702.85	14745.38
702.99	14300.67
703.12	14562.81
703.25	14073.64
703.38	14022.15
703.51	14125.13
703.65	14113.43
703.78	14071.30
703.91	13937.89
704.04	14104.07
704.17	14015.13
704.31	13961.30
704.44	13687.45
704.57	13745.97
704.70	13619.58
704.83	13570.43
704.96	13518.93
705.10	13338.71
705.23	13474.46
>>>>>End Processed Spectral Data<<<<<
