SpectraSuite Data File
++++++++++++++++++++++++++++++++++++
Date: Fri Oct 25 10:44:17 EDT 2013
User: price-jones
Dark Spectrum Present: No
Reference Spectrum Present: No
Number of Sampled Component Spectra: 1
Spectrometers: USB2+H05261
Integration Time (usec): 100000 (USB2+H05261)
Spectra Averaged: 1 (USB2+H05261)
Boxcar Smoothing: 0 (USB2+H05261)
Correct for Electrical Dark: No (USB2+H05261)
Strobe/Lamp Enabled: No (USB2+H05261)
Correct for Detector Non-linearity: No (USB2+H05261)
Correct for Stray Light: No (USB2+H05261)
Number of Pixels in Processed Spectrum: 2048
>>>>>Begin Processed Spectral Data<<<<<
365.73	86.60
365.92	86.60
366.12	86.60
366.32	63.19
366.52	63.19
366.72	0.00
366.91	63.19
367.11	21.06
367.31	46.81
367.51	44.47
367.70	60.85
367.90	44.47
368.10	9.36
368.30	30.43
368.49	0.00
368.69	72.56
368.89	63.19
369.09	42.13
369.28	28.09
369.48	65.54
369.68	98.30
369.87	93.62
370.07	35.11
370.27	201.29
370.47	147.45
370.66	318.31
370.86	418.96
371.06	421.30
371.25	458.74
371.45	514.92
371.65	458.74
371.84	449.38
372.04	489.17
372.24	465.77
372.44	493.85
372.63	538.32
372.83	479.81
373.03	496.19
373.22	519.60
373.42	477.47
373.62	533.64
373.81	559.39
374.01	580.45
374.21	578.11
374.40	582.79
374.60	613.22
374.79	571.09
374.99	606.20
375.19	587.47
375.38	662.37
375.58	596.84
375.78	564.07
375.97	657.69
376.17	669.39
376.37	676.41
376.56	585.13
376.76	655.35
376.95	622.58
377.15	547.69
377.35	655.35
377.54	585.13
377.74	554.71
377.93	641.31
378.13	650.67
378.33	653.01
378.52	678.76
378.72	648.33
378.91	582.79
379.11	678.76
379.31	606.20
379.50	566.41
379.70	709.18
379.89	655.35
380.09	678.76
380.28	711.52
380.48	685.78
380.68	723.23
380.87	737.27
381.07	657.69
381.26	723.23
381.46	737.27
381.65	727.91
381.85	683.44
382.04	660.03
382.24	690.46
382.43	744.29
382.63	685.78
382.83	732.59
383.02	770.04
383.22	688.12
383.41	650.67
383.61	716.20
383.80	748.97
384.00	725.57
384.19	809.83
384.39	816.85
384.58	814.51
384.78	809.83
384.97	802.80
385.17	812.17
385.36	849.61
385.56	819.19
385.75	781.74
385.95	823.87
386.14	856.64
386.34	856.64
386.53	819.19
386.72	753.65
386.92	840.25
387.11	891.74
387.31	833.23
387.50	791.10
387.70	875.36
387.89	870.68
388.09	943.24
388.28	774.72
388.48	915.15
388.67	940.90
388.86	894.08
389.06	931.53
389.25	973.66
389.45	959.62
389.64	983.02
389.84	1043.88
390.03	1006.43
390.22	1008.77
390.42	1100.05
390.61	938.55
390.81	1046.22
391.00	938.55
391.19	1074.31
391.39	1041.54
391.58	1132.82
391.78	919.83
391.97	1034.52
392.16	1071.97
392.36	1071.97
392.55	1053.24
392.75	1015.79
392.94	1093.03
393.13	1057.92
393.33	964.30
393.52	1006.43
393.71	1074.31
393.91	1156.22
394.10	1174.95
394.29	1177.29
394.49	1172.61
394.68	1107.07
394.88	1174.95
395.07	1196.01
395.26	1252.19
395.46	1219.42
395.65	1231.12
395.84	1226.44
396.04	1306.02
396.23	1186.65
396.42	1210.06
396.62	1200.69
396.81	1259.21
397.00	1228.78
397.19	1301.34
397.39	1439.43
397.58	1362.19
397.77	1362.19
397.97	1481.56
398.16	1418.36
398.35	1390.28
398.55	1406.66
398.74	1401.98
398.93	1547.09
399.12	1467.52
399.32	1427.73
399.51	1455.81
399.70	1586.88
399.90	1582.20
400.09	1600.93
400.28	1605.61
400.47	1579.86
400.67	1652.42
400.86	1650.08
401.05	1636.03
401.24	1598.59
401.44	1778.81
401.63	1734.34
401.82	1696.89
402.01	1668.80
402.21	1664.12
402.40	1687.53
402.59	1790.51
402.78	1685.19
402.97	1811.57
403.17	1783.49
403.36	1750.72
403.55	1767.10
403.74	1860.73
403.93	1823.28
404.13	1947.33
404.32	1884.13
404.51	1902.86
404.70	2052.65
404.89	1963.71
405.09	1949.67
405.28	2005.84
405.47	1975.41
405.66	1998.82
405.85	1937.96
406.05	2026.90
406.24	2012.86
406.43	2155.63
406.62	2085.42
406.81	2113.50
407.00	2054.99
407.20	2052.65
407.39	2008.18
407.58	2153.29
407.77	2129.89
407.96	2223.51
408.15	2188.40
408.34	2193.08
408.54	2342.88
408.73	2237.55
408.92	2331.17
409.11	2312.45
409.30	2328.83
409.49	2265.64
409.68	2232.87
409.87	2249.25
410.07	2174.36
410.26	2347.56
410.45	2401.39
410.64	2466.92
410.83	2530.12
411.02	2513.74
411.21	2656.51
411.40	2466.92
411.59	2579.27
411.78	2628.42
411.98	2530.12
412.17	2698.64
412.36	2560.55
412.55	2693.96
412.74	2796.94
412.93	2761.83
413.12	2689.28
413.31	2930.35
413.50	2843.75
413.69	2801.62
413.88	2958.44
414.07	2928.01
414.26	3005.25
414.45	2967.80
414.64	2967.80
414.83	3080.14
415.02	2960.78
415.22	3028.65
415.41	3112.91
415.60	3096.53
415.79	3300.16
415.98	3229.94
416.17	3173.77
416.36	3204.19
416.55	3183.13
416.74	3293.13
416.93	3098.87
417.12	3342.28
417.31	3368.03
417.50	3251.00
417.69	3407.82
417.88	3337.60
418.07	3468.67
418.26	3592.72
418.45	3473.36
418.64	3559.95
418.83	3559.95
419.02	3604.42
419.21	3644.21
419.39	3555.27
419.58	3513.14
419.77	3609.11
419.96	3714.43
420.15	3730.81
420.34	3662.94
420.53	3618.47
420.72	3864.22
420.91	3772.94
421.10	3758.90
421.29	3875.93
421.48	3770.60
421.67	3934.44
421.86	3751.88
422.05	3665.28
422.24	3693.37
422.43	3730.81
422.61	3845.50
422.80	3939.12
422.99	3913.38
423.18	3908.69
423.37	3889.97
423.56	3974.23
423.75	4056.15
423.94	3801.03
424.13	3662.94
424.32	3833.80
424.50	3885.29
424.69	4009.34
424.88	3971.89
425.07	3932.10
425.26	3854.86
425.45	3913.38
425.64	3960.19
425.83	3896.99
426.01	4114.66
426.20	4067.85
426.39	4077.21
426.58	4072.53
426.77	3873.59
426.96	3976.57
427.15	3906.35
427.33	4145.09
427.52	4100.62
427.71	4152.11
427.90	4219.99
428.09	4182.54
428.28	4189.56
428.46	4219.99
428.65	4168.49
428.84	4154.45
429.03	4287.86
429.22	4170.83
429.40	4175.52
429.59	4114.66
429.78	4014.02
429.97	3971.89
430.16	4084.23
430.34	4175.52
430.53	4166.15
430.72	4098.28
430.91	4109.98
431.10	4402.55
431.28	4425.95
431.47	4589.79
431.66	4734.90
431.85	4751.29
432.03	4620.22
432.22	4802.78
432.41	4727.88
432.60	4664.69
432.79	4739.58
432.97	4912.78
433.16	4816.82
433.35	4636.60
433.54	4610.86
433.72	4503.19
433.91	4540.64
434.10	4550.00
434.28	4784.06
434.47	4896.40
434.66	4952.57
434.85	4999.38
435.03	4889.38
435.22	4954.91
435.41	5104.71
435.59	4840.23
435.78	5011.09
435.97	5156.20
436.16	5116.41
436.34	5298.97
436.53	5050.88
436.72	5245.14
436.90	5247.48
437.09	5193.65
437.28	5078.96
437.46	5254.50
437.65	5137.48
437.84	5160.88
438.02	5076.62
438.21	5212.37
438.40	4975.98
438.58	5294.29
438.77	5418.34
438.96	5336.42
439.14	5472.17
439.33	5495.58
439.52	5628.99
439.70	5575.16
439.89	5657.07
440.08	5673.46
440.26	5673.46
440.45	5881.77
440.63	5877.09
440.82	5937.94
441.01	5858.36
441.19	6010.50
441.38	5926.24
441.57	6085.39
441.75	6026.88
441.94	6242.21
442.12	6260.93
442.31	6373.28
442.50	6190.72
442.68	6387.32
442.87	6408.39
443.05	6431.79
443.24	6464.56
443.43	6239.87
443.61	6448.18
443.80	6722.02
443.98	6293.70
444.17	6270.30
444.35	6403.71
444.54	6516.05
444.73	6698.61
444.91	6354.55
445.10	6422.43
445.28	6511.37
445.47	6286.68
445.65	6197.74
445.84	6502.01
446.02	6562.86
446.21	6499.67
446.39	6637.76
446.58	6595.63
446.77	6476.26
446.95	6452.86
447.14	6541.80
447.32	6743.08
447.51	6766.49
447.69	6572.22
447.88	6773.51
448.06	6644.78
448.25	6738.40
448.43	6881.18
448.62	6733.72
448.80	6670.53
448.99	6965.43
449.17	6644.78
449.36	6656.48
449.54	6958.41
449.73	6970.12
449.91	7045.01
450.10	7035.65
450.28	7295.45
450.46	7328.22
450.65	7119.91
450.83	7105.87
451.02	7148.00
451.20	7208.85
451.39	7276.73
451.57	7199.49
451.76	7009.90
451.94	7199.49
452.13	7332.90
452.31	7042.67
452.49	7077.78
452.68	7470.99
452.86	7169.06
453.05	7300.13
453.23	7431.20
453.42	7201.83
453.60	7297.79
453.78	7449.93
453.97	7370.35
454.15	7379.71
454.34	7396.09
454.52	7463.97
454.70	7485.03
454.89	7513.12
455.07	7557.59
455.26	7557.59
455.44	7791.64
455.62	7922.71
455.81	7840.79
455.99	7822.07
456.17	7873.56
456.36	7765.90
456.54	7756.54
456.73	7943.78
456.91	8283.16
457.09	8187.19
457.28	8219.96
457.46	8030.38
457.64	8072.51
457.83	8203.58
458.01	7908.67
458.19	8255.07
458.38	8159.11
458.56	8271.45
458.74	8353.37
458.93	8131.02
459.11	8290.18
459.29	8100.59
459.48	8379.12
459.66	8255.07
459.84	8355.71
460.03	8568.70
460.21	8390.82
460.39	8322.94
460.57	8566.36
460.76	8629.56
460.94	8538.27
461.12	8645.94
461.31	8706.79
461.49	8561.68
461.67	8554.66
461.85	8727.86
462.04	8645.94
462.22	9025.11
462.40	8950.21
462.59	9025.11
462.77	9020.42
462.95	9071.92
463.13	8674.03
463.32	9013.40
463.50	9006.38
463.68	9071.92
463.86	9111.71
464.05	8795.73
464.23	9001.70
464.41	8924.46
464.59	8964.25
464.78	9261.50
464.96	8957.23
465.14	8999.36
465.32	9291.93
465.50	9254.48
465.69	9289.59
465.87	9149.15
466.05	9212.35
466.23	9013.40
466.41	9043.83
466.60	9329.38
466.78	9139.79
466.96	9081.28
467.14	9327.03
467.32	9453.42
467.51	9528.32
467.69	9420.66
467.87	9521.30
468.05	9603.22
468.23	9490.87
468.41	9535.34
468.60	9504.92
468.78	9673.43
468.96	9621.94
469.14	9507.26
469.32	9863.02
469.50	9657.05
469.69	9635.99
469.87	9778.76
470.05	9893.44
470.23	9907.49
470.41	9757.69
470.59	10026.86
470.77	9916.85
470.95	9975.36
471.14	10066.64
471.32	9905.15
471.50	10523.05
471.68	10305.38
471.86	10462.19
472.04	10321.76
472.22	10644.76
472.40	10256.23
472.58	10490.28
472.77	10520.71
472.95	10693.91
473.13	10775.83
473.31	10558.16
473.49	10469.22
473.67	10520.71
473.85	10703.27
474.03	10909.24
474.21	11014.56
474.39	11084.78
474.57	10960.73
474.75	11183.08
474.93	11257.98
475.12	11375.00
475.30	11407.77
475.48	11192.44
475.66	11283.72
475.84	11330.53
476.02	11243.93
476.20	11641.82
476.38	11681.61
476.56	11873.54
476.74	11779.92
476.92	11730.76
477.10	11964.82
477.28	11920.35
477.46	12133.34
477.64	12332.28
477.82	12374.41
478.00	12517.18
478.18	12599.10
478.36	12753.58
478.54	12830.82
478.72	12732.51
478.90	12992.31
479.08	13121.04
479.26	13233.39
479.44	13144.45
479.62	13343.39
479.80	13373.82
479.98	13460.42
480.16	13568.09
480.34	13706.18
480.52	13685.11
480.70	13760.01
480.88	13657.03
481.06	13673.41
481.24	13905.12
481.41	14272.59
481.59	14394.29
481.77	14476.21
481.95	14408.34
482.13	14464.51
482.31	14581.54
482.49	14822.61
482.67	14944.32
482.85	14710.27
483.03	15262.63
483.21	15382.00
483.39	15232.21
483.57	15463.92
483.74	15239.23
483.92	15728.40
484.10	15480.30
484.28	15978.84
484.46	16067.78
484.64	16236.30
484.82	16046.71
485.00	16236.30
485.18	16397.79
485.35	16578.01
485.53	16173.10
485.71	16009.26
485.89	16601.42
486.07	16512.48
486.25	16980.59
486.43	16783.98
486.61	17106.98
486.78	17132.72
486.96	17441.67
487.14	17783.39
487.32	17830.20
487.50	17930.84
487.68	18071.28
487.85	18417.68
488.03	18157.88
488.21	18202.35
488.39	18586.19
488.57	18415.34
488.75	18682.16
488.92	19300.06
489.10	19667.52
489.28	19363.25
489.46	19648.80
489.64	19587.94
489.81	20166.06
489.99	20430.54
490.17	20226.91
490.35	20451.60
490.53	20327.55
490.70	20336.91
490.88	20772.25
491.06	21088.23
491.24	20744.17
491.41	20776.94
491.59	20896.30
491.77	20664.59
491.95	21296.53
492.13	21214.62
492.30	21357.39
492.48	21652.30
492.66	21926.14
492.84	21989.33
493.01	22218.71
493.19	21752.94
493.37	22064.23
493.54	22244.45
493.72	22548.72
493.90	22487.87
494.08	23007.47
494.25	23012.15
494.43	23204.07
494.61	23332.80
494.79	23716.65
494.96	23330.46
495.14	23473.23
495.32	23463.87
495.49	23433.44
495.67	24084.11
495.85	23955.38
496.02	23786.86
496.20	24339.23
496.38	24472.64
496.55	24786.27
496.73	25188.85
496.91	24954.79
497.09	25235.66
497.26	24989.90
497.44	25149.06
497.62	25542.27
497.79	25420.56
497.97	25142.03
498.14	25575.03
498.32	25687.38
498.50	25802.07
498.67	26064.21
498.85	25935.48
499.03	26164.85
499.20	26485.50
499.38	25968.24
499.56	26356.77
499.73	26267.83
499.91	26616.57
500.08	26813.18
500.26	26728.92
500.44	26583.80
500.61	26752.32
500.79	27103.40
500.97	27147.87
501.14	27351.50
501.32	27049.57
501.49	27370.22
501.67	26967.65
501.84	27576.19
502.02	27754.07
502.20	27756.41
502.37	27835.99
502.55	27807.90
502.72	27924.93
502.90	28563.90
503.07	28063.02
503.25	27988.13
503.43	28229.20
503.60	28175.37
503.78	28203.46
503.95	28201.11
504.13	28662.20
504.30	28580.28
504.48	28641.14
504.65	29242.65
504.83	28840.08
505.01	29359.68
505.18	29006.26
505.36	29518.84
505.53	29537.56
505.71	29909.71
505.88	30146.10
506.06	29446.28
506.23	29862.90
506.41	29413.51
506.58	30080.56
506.76	30047.80
506.93	30249.08
507.11	30050.14
507.28	30251.42
507.46	29783.32
507.63	29935.45
507.81	30242.06
507.98	30345.05
508.16	30026.73
508.33	30478.46
508.50	30539.31
508.68	30771.02
508.85	30726.55
509.03	31468.50
509.20	31016.78
509.38	31335.09
509.55	31536.38
509.73	31197.00
509.90	31330.41
510.08	31274.24
510.25	31384.24
510.42	31714.26
510.60	32032.57
510.77	31901.50
510.95	32212.79
511.12	32081.72
511.30	31934.27
511.47	32720.69
511.64	32505.36
511.82	32650.47
511.99	31892.14
512.17	32624.73
512.34	32460.89
512.51	32634.09
512.69	33003.89
512.86	32947.72
513.04	32598.98
513.21	32870.48
513.38	32837.72
513.56	33069.43
513.73	32847.08
513.90	33020.28
514.08	33137.30
514.25	32989.85
514.43	33443.91
514.60	33797.34
514.77	33401.79
514.95	33926.07
515.12	33626.48
515.29	33762.23
515.47	33972.88
515.64	34075.86
515.81	33752.87
515.99	33584.35
516.16	34045.43
516.33	33387.74
516.51	33677.97
516.68	33160.71
516.85	32973.47
517.03	33614.77
517.20	34132.03
517.37	34174.16
517.54	34473.75
517.72	34209.27
517.89	34066.50
518.06	33802.02
518.24	34171.82
518.41	34588.44
518.58	34721.85
518.75	34490.13
518.93	34995.69
519.10	34841.21
519.27	34927.81
519.45	35295.28
519.62	35615.93
519.79	35421.67
519.96	35709.55
520.14	35416.99
520.31	35402.94
520.48	35838.28
520.65	35524.65
520.83	35852.33
521.00	36077.02
521.17	35786.79
521.34	36119.15
521.52	36165.96
521.69	36449.16
521.86	36325.11
522.03	35974.03
522.20	36540.44
522.38	36151.91
522.55	36407.03
522.72	36353.20
522.89	36840.03
523.07	37036.64
523.24	36711.30
523.41	37048.34
523.58	36811.95
523.75	37230.90
523.92	36982.80
524.10	37200.47
524.27	37170.05
524.44	37312.82
524.61	37851.14
524.78	37567.94
524.96	37586.66
525.13	37507.08
525.30	38206.90
525.47	38134.35
525.64	37954.13
525.81	37577.30
525.98	37577.30
526.16	37357.29
526.33	37090.47
526.50	37368.99
526.67	37357.29
526.84	37607.73
527.01	37270.69
527.18	37858.17
527.36	38132.01
527.53	38192.86
527.70	38359.04
527.87	38244.35
528.04	38438.62
528.21	38483.09
528.38	38731.18
528.55	39138.44
528.72	38817.78
528.89	39248.44
529.07	38632.88
529.24	38134.35
529.41	38789.70
529.58	38794.38
529.75	38885.66
529.92	39096.31
530.09	39124.40
530.26	39335.04
530.43	39346.75
530.60	39730.59
530.77	39201.63
530.94	39838.26
531.11	39342.06
531.28	39566.76
531.46	39580.80
531.63	39484.84
531.80	39777.40
531.97	39138.44
532.14	39187.59
532.31	39318.66
532.48	39225.04
532.65	39739.96
532.82	39482.50
532.99	39887.41
533.16	39651.02
533.33	40524.04
533.50	40453.82
533.67	40514.67
533.84	39658.04
534.01	40226.79
534.18	40016.14
534.35	40257.21
534.52	40201.04
534.69	40573.19
534.86	40884.48
535.03	40425.73
535.20	40910.22
535.37	41106.83
535.54	41244.92
535.71	40928.95
535.88	41038.95
536.05	40622.34
536.22	40781.49
536.38	40664.47
536.55	40491.27
536.72	40891.50
536.89	40575.53
537.06	40737.02
537.23	41333.86
537.40	40978.10
537.57	41418.12
537.74	41315.14
537.91	41296.41
538.08	41179.39
538.25	41186.41
538.42	41298.75
538.59	41663.88
538.75	41258.96
538.92	41308.11
539.09	41565.57
539.26	41748.14
539.43	41717.71
539.60	41621.75
539.77	41226.20
539.94	41706.01
540.11	41338.54
540.28	41326.84
540.44	41350.24
540.61	41495.36
540.78	41198.11
540.95	41565.57
541.12	41530.47
541.29	41483.66
541.46	41888.57
541.62	41804.31
541.79	42040.70
541.96	42033.68
542.13	41813.67
542.30	42071.13
542.47	42469.02
542.63	41909.63
542.80	42225.60
542.97	42499.45
543.14	42829.46
543.31	42595.41
543.48	43044.79
543.64	42766.27
543.81	43138.41
543.98	42759.25
544.15	42607.11
544.32	43185.22
544.48	43079.90
544.65	43206.29
544.82	43503.54
544.99	42857.55
545.16	42983.94
545.32	43026.07
545.49	43058.84
545.66	43714.19
545.83	43459.07
546.00	43569.07
546.16	43419.28
546.33	43227.35
546.50	42909.04
546.67	43339.70
546.83	43253.10
547.00	43484.81
547.17	43295.23
547.34	43049.47
547.50	43522.26
547.67	43299.91
547.84	43655.67
548.00	43756.32
548.17	43941.22
548.34	43782.06
548.51	43957.60
548.67	43700.14
548.84	43721.21
549.01	43672.06
549.18	43697.80
549.34	43847.60
549.51	44296.98
549.68	44147.18
549.84	44137.82
550.01	44172.93
550.18	43908.45
550.34	44051.22
550.51	44425.71
550.68	44095.69
550.84	44189.31
551.01	44208.04
551.18	44002.07
551.34	44268.89
551.51	44694.87
551.68	44229.10
551.84	44556.78
552.01	44233.78
552.18	44355.49
552.34	44165.91
552.51	44334.43
552.68	44385.92
552.84	44390.60
553.01	44935.95
553.18	44594.23
553.34	44886.79
553.51	44559.12
553.67	44893.82
553.84	45191.06
554.01	44577.84
554.17	45078.72
554.34	44781.47
554.51	45057.65
554.67	45041.27
554.84	45064.67
555.00	44533.37
555.17	44973.39
555.33	44903.18
555.50	44568.48
555.67	44844.66
555.83	44863.39
556.00	44973.39
556.16	45263.62
556.33	45067.02
556.50	44865.73
556.66	45254.26
556.83	44711.25
556.99	45446.18
557.16	45333.84
557.32	45324.47
557.49	45207.45
557.65	44854.03
557.82	44907.86
557.98	45261.28
558.15	44814.24
558.32	44898.50
558.48	45141.91
558.65	45235.53
558.81	45443.84
558.98	44861.05
559.14	45226.17
559.31	45532.78
559.47	45764.49
559.64	45642.79
559.80	45776.20
559.97	45605.34
560.13	45390.01
560.30	45705.98
560.46	45485.97
560.63	45930.67
560.79	45979.82
560.96	45673.21
561.12	45635.77
561.29	45607.68
561.45	45687.26
561.61	45773.86
561.78	45214.47
561.94	45591.30
562.11	45565.55
562.27	45610.02
562.44	45595.98
562.60	46087.49
562.77	45743.43
562.93	45925.99
563.10	45977.48
563.26	45427.46
563.42	46124.94
563.59	45366.60
563.75	45867.48
563.92	45605.34
564.08	45427.46
564.24	45771.52
564.41	45961.10
564.57	45642.79
564.74	45652.15
564.90	45937.69
565.07	46279.41
565.23	45820.67
565.39	45647.47
565.56	45785.56
565.72	45724.71
565.88	46176.43
566.05	45705.98
566.21	45893.22
566.38	45588.95
566.54	46010.25
566.70	45993.87
566.87	46064.08
567.03	45773.86
567.19	46644.54
567.36	45921.31
567.52	45759.81
567.68	46454.95
567.85	46000.89
568.01	46326.22
568.17	46146.00
568.34	46162.39
568.50	45940.04
568.66	45911.95
568.83	46113.23
568.99	45464.91
569.15	45804.28
569.32	45993.87
569.48	45907.27
569.64	46363.67
569.81	46192.81
569.97	46082.81
570.13	46040.68
570.30	46246.65
570.46	46028.98
570.62	45638.11
570.78	45502.35
570.95	46122.60
571.11	46340.27
571.27	46178.77
571.43	45921.31
571.60	45729.39
571.76	46206.86
571.92	46218.56
572.09	45984.51
572.25	45734.07
572.41	46178.77
572.57	45965.78
572.74	46820.08
572.90	46595.38
573.06	46600.07
573.22	46253.67
573.38	45792.58
573.55	45991.53
573.71	46148.34
573.87	46085.15
574.03	46085.15
574.20	46483.04
574.36	46026.63
574.52	46103.87
574.68	45645.13
574.84	45825.35
575.01	46129.62
575.17	45581.93
575.33	46052.38
575.49	45558.53
575.65	46213.88
575.82	46787.31
575.98	46160.05
576.14	46300.48
576.30	46312.18
576.46	46089.83
576.62	46277.07
576.79	46267.71
576.95	45689.60
577.11	46258.35
577.27	45996.21
577.43	46429.21
577.59	46260.69
577.75	46181.11
577.92	46045.36
578.08	45595.98
578.24	45832.37
578.40	46024.29
578.56	46251.33
578.72	46017.27
578.88	46405.80
579.04	46138.98
579.21	45876.84
579.37	46178.77
579.53	46370.69
579.69	46274.73
579.85	46003.23
580.01	46483.04
580.17	45989.19
580.33	46253.67
580.49	46520.49
580.65	46541.55
580.82	46630.49
580.98	46108.55
581.14	46017.27
581.30	46614.11
581.46	46494.74
581.62	46436.23
581.78	46213.88
581.94	46213.88
582.10	46291.12
582.26	46403.46
582.42	46878.59
582.58	46670.28
582.74	46059.40
582.90	46272.39
583.06	46204.52
583.22	46869.23
583.38	46775.61
583.54	46377.72
583.70	46305.16
583.86	46218.56
584.02	46415.16
584.18	46431.55
584.34	46707.73
584.50	46293.46
584.66	46314.52
584.82	45668.53
584.98	46520.49
585.14	46431.55
585.30	46071.10
585.46	46499.42
585.62	46380.06
585.78	46525.17
585.94	46043.02
586.10	46302.82
586.26	46412.82
586.42	46611.77
586.58	46600.07
586.74	46939.44
586.90	46546.23
587.06	46440.91
587.22	46806.03
587.38	46330.90
587.54	46515.81
587.70	46288.77
587.86	46410.48
588.02	46078.13
588.18	46878.59
588.34	46340.27
588.49	45909.61
588.65	45551.51
588.81	46036.00
588.97	46169.41
589.13	45783.22
589.29	46417.50
589.45	46061.74
589.61	46171.75
589.77	46728.80
589.93	46464.32
590.08	46398.78
590.24	46522.83
590.40	46557.94
590.56	46543.89
590.72	46464.32
590.88	46195.15
591.04	45975.14
591.20	46749.86
591.35	46363.67
591.51	46731.14
591.67	46550.91
591.83	46218.56
591.99	46260.69
592.15	46494.74
592.31	46803.69
592.46	46209.20
592.62	46564.96
592.78	46586.02
592.94	47086.90
593.10	46766.24
593.26	47187.54
593.41	46447.93
593.57	46384.74
593.73	46356.65
593.89	46763.90
594.05	46609.43
594.20	46293.46
594.36	46511.13
594.52	46298.14
594.68	45933.01
594.84	46333.24
594.99	46852.84
595.15	46412.82
595.31	46974.55
595.47	46417.50
595.62	46349.63
595.78	46553.26
595.94	46485.38
596.10	46904.34
596.25	46930.08
596.41	47028.38
596.57	46862.21
596.73	46707.73
596.88	46239.62
597.04	46124.94
597.20	46005.57
597.36	46581.34
597.51	47126.69
597.67	46801.35
597.83	46426.87
597.99	46595.38
598.14	46602.41
598.30	46784.97
598.46	46302.82
598.61	46354.31
598.77	46506.44
598.93	46277.07
599.09	46773.27
599.24	47466.06
599.40	46939.44
599.56	46761.56
599.71	46391.76
599.87	46714.75
600.03	46445.59
600.18	46576.66
600.34	46642.20
600.50	46759.22
600.65	46548.57
600.81	46382.40
600.97	46728.80
601.12	46588.36
601.28	46923.06
601.44	46361.33
601.59	46412.82
601.75	46431.55
601.91	46681.98
602.06	46017.27
602.22	46628.15
602.37	46347.29
602.53	46693.69
602.69	46632.83
602.84	46014.93
603.00	46457.29
603.16	46658.58
603.31	46457.29
603.47	46052.38
603.62	46607.09
603.78	46773.27
603.94	46466.66
604.09	47051.79
604.25	46522.83
604.40	46464.32
604.56	46256.01
604.71	46644.54
604.87	46265.37
605.03	46241.96
605.18	46117.92
605.34	46674.96
605.49	46244.30
605.65	45900.25
605.80	46160.05
605.96	46281.75
606.12	46553.26
606.27	46876.25
606.43	46492.40
606.58	46138.98
606.74	46309.84
606.89	46050.04
607.05	46429.21
607.20	46801.35
607.36	46031.32
607.51	46124.94
607.67	46202.18
607.82	46073.45
607.98	46117.92
608.13	45844.07
608.29	46440.91
608.44	45989.19
608.60	45804.28
608.75	46227.92
608.91	45708.32
609.06	46064.08
609.22	46258.35
609.37	45958.76
609.53	46129.62
609.68	45874.50
609.84	45617.04
609.99	45848.75
610.15	45855.78
610.30	45703.64
610.46	45888.54
610.61	46028.98
610.76	45982.16
610.92	45855.78
611.07	46167.07
611.23	45914.29
611.38	45862.80
611.54	45825.35
611.69	45380.65
611.84	45207.45
612.00	45490.65
612.15	45237.87
612.31	45977.48
612.46	45703.64
612.62	45460.23
612.77	45574.91
612.92	46096.85
613.08	45368.94
613.23	45848.75
613.39	45734.07
613.54	45240.21
613.69	45289.37
613.85	45432.14
614.00	45563.21
614.15	46040.68
614.31	45710.66
614.46	45626.40
614.62	45743.43
614.77	45202.77
614.92	45490.65
615.08	44940.63
615.23	45275.32
615.38	45247.24
615.54	44856.37
615.69	45069.36
615.84	44982.76
616.00	45041.27
616.15	44898.50
616.30	44900.84
616.46	44854.03
616.61	44500.61
616.76	45081.06
616.92	44619.97
617.07	44746.36
617.22	44594.23
617.37	44514.65
617.53	44828.28
617.68	45415.76
617.83	45347.88
617.99	45221.49
618.14	44947.65
618.29	45017.86
618.45	44584.86
618.60	44477.20
618.75	44704.23
618.90	44804.88
619.06	45048.29
619.21	44514.65
619.36	44744.02
619.51	44973.39
619.67	44910.20
619.82	45090.42
619.97	44514.65
620.12	44404.64
620.28	44147.18
620.43	44507.63
620.58	44474.86
620.73	44048.88
620.89	44629.34
621.04	44552.10
621.19	44252.51
621.34	44830.62
621.49	44081.65
621.65	44212.72
621.80	44720.62
621.95	44697.21
622.10	44098.03
622.25	44107.40
622.41	43878.02
622.56	43903.77
622.71	44074.63
622.86	43976.33
623.01	44289.96
623.16	43948.24
623.32	43859.30
623.47	44186.97
623.62	43571.41
623.77	43868.66
623.92	44385.92
624.07	44126.12
624.23	43988.03
624.38	43938.88
624.53	43470.77
624.68	43489.49
624.83	43931.86
624.98	43983.35
625.13	43793.76
625.29	43650.99
625.44	43789.08
625.59	43217.99
625.74	42773.29
625.89	43405.23
626.04	43328.00
626.19	43423.96
626.34	43047.13
626.49	43309.27
626.65	43550.35
626.80	43775.04
626.95	43466.09
627.10	43482.47
627.25	43061.18
627.40	42747.54
627.55	42770.95
627.70	42295.82
627.85	42766.27
628.00	42777.97
628.15	43196.93
628.30	42534.56
628.45	42927.77
628.60	42766.27
628.76	42679.67
628.91	43318.64
629.06	42511.15
629.21	42651.58
629.36	42572.00
629.51	42773.29
629.66	42674.99
629.81	42333.27
629.96	42864.57
630.11	42473.70
630.26	43084.58
630.41	42946.49
630.56	42616.47
630.71	42356.67
630.86	42541.58
631.01	42307.52
631.16	42806.06
631.31	42216.24
631.46	41907.29
631.61	42085.17
631.76	42602.43
631.91	41965.81
632.06	42410.51
632.21	42562.64
632.36	42328.59
632.51	42398.80
632.66	42162.41
632.81	41446.21
632.96	41979.85
633.10	42066.45
633.25	42110.92
633.40	41933.04
633.55	42043.04
633.70	41820.69
633.85	42050.06
634.00	41823.03
634.15	42007.94
634.30	42080.49
634.45	41675.58
634.60	41507.06
634.75	41890.91
634.90	41591.32
635.05	42014.96
635.19	41551.53
635.34	41942.40
635.49	41691.96
635.64	41778.56
635.79	41591.32
635.94	41612.38
636.09	41380.67
636.24	41495.36
636.39	41205.13
636.53	41535.15
636.68	41448.55
636.83	41413.44
636.98	41603.02
637.13	41474.29
637.28	41556.21
637.43	41666.22
637.57	41691.96
637.72	41153.64
637.87	41305.77
638.02	41434.50
638.17	41425.14
638.32	41067.04
638.46	41249.60
638.61	40982.78
638.76	41029.59
638.91	41347.90
639.06	41064.70
639.20	40903.20
639.35	41090.44
639.50	40694.89
639.65	41581.96
639.80	40950.01
639.94	41013.21
640.09	41050.66
640.24	40893.84
640.39	40673.83
640.54	40950.01
640.68	40313.39
640.83	40847.03
640.98	40809.58
641.13	40725.32
641.27	41020.23
641.42	40545.10
641.57	40514.67
641.72	40514.67
641.86	40481.91
642.01	39730.59
642.16	40360.20
642.31	40348.50
642.45	40158.91
642.60	40280.62
642.75	40418.71
642.90	40559.14
643.04	40715.96
643.19	39854.64
643.34	40350.84
643.48	40271.26
643.63	40119.12
643.78	40086.36
643.93	40231.47
644.07	40224.45
644.22	40044.23
644.37	40154.23
644.51	40055.93
644.66	40259.55
644.81	40100.40
644.95	40315.73
645.10	40383.60
645.25	39871.03
645.39	40016.14
645.54	39725.91
645.69	40051.25
645.83	39784.43
645.98	39714.21
646.13	40189.34
646.27	40304.02
646.42	39405.26
646.57	39821.87
646.71	39676.76
646.86	39409.94
647.00	39428.66
647.15	39770.38
647.30	39379.51
647.44	39339.72
647.59	39239.08
647.74	39122.05
647.88	39440.37
648.03	39910.82
648.17	39379.51
648.32	39313.98
648.47	39615.91
648.61	39370.15
648.76	39842.94
648.90	39250.78
649.05	39208.65
649.20	38960.56
649.34	39140.78
649.49	39054.18
649.63	38494.79
649.78	38890.34
649.92	39283.55
650.07	39112.69
650.21	38806.08
650.36	39225.04
650.51	38883.32
650.65	39276.53
650.80	39503.56
650.94	39505.90
651.09	38871.62
651.23	38792.04
651.38	38796.72
651.52	38911.41
651.67	38253.72
651.81	38550.96
651.96	38630.54
652.10	38522.88
652.25	38239.67
652.39	38616.50
652.54	39056.52
652.68	38567.35
652.83	39110.35
652.97	38925.45
653.12	38412.87
653.26	38197.54
653.41	38494.79
653.55	38153.07
653.70	38220.95
653.84	38080.52
653.99	38108.60
654.13	38754.59
654.27	37785.61
654.42	38057.11
654.56	37965.83
654.71	38625.86
654.85	38443.30
655.00	38300.53
655.14	38038.39
655.29	37586.66
655.43	37731.78
655.57	37715.39
655.72	37748.16
655.86	37357.29
656.01	37610.07
656.15	37191.11
656.30	37628.79
656.44	37574.96
656.58	37783.27
656.73	38017.32
656.87	37647.52
657.01	37497.72
657.16	37661.56
657.30	37394.74
657.45	37591.34
657.59	37462.61
657.73	37556.24
657.88	37893.27
658.02	37773.91
658.16	37968.17
658.31	37881.57
658.45	37652.20
658.60	37462.61
658.74	37415.80
658.88	37766.88
659.03	37397.08
659.17	37205.16
659.31	37303.46
659.46	37006.21
659.60	37017.91
659.74	37581.98
659.89	36758.11
660.03	36898.55
660.17	36959.40
660.32	36964.08
660.46	37008.55
660.60	36978.12
660.74	37174.73
660.89	36882.16
661.03	36432.78
661.17	36498.31
661.32	36627.04
661.46	36266.60
661.60	36177.66
661.74	36385.97
661.89	36411.71
662.03	36634.06
662.17	36224.47
662.31	36201.07
662.46	36481.93
662.60	36161.28
662.74	36334.48
662.88	35913.18
663.03	35367.84
663.17	35957.65
663.31	35637.00
663.45	36093.40
663.60	35751.68
663.74	36060.63
663.88	35915.52
664.02	35463.80
664.17	35812.54
664.31	35599.55
664.45	35641.68
664.59	35522.31
664.73	35405.28
664.88	35693.17
665.02	35491.88
665.16	35416.99
665.30	35290.60
665.44	34780.36
665.59	35122.08
665.73	35269.53
665.87	34951.22
666.01	34787.38
666.15	35068.25
666.29	34981.65
666.44	35557.42
666.58	34546.31
666.72	34948.88
666.86	34763.98
667.00	34471.41
667.14	34377.79
667.28	34206.93
667.43	34089.90
667.57	34740.57
667.71	34307.57
667.85	34473.75
667.99	34293.53
668.13	34237.36
668.27	34171.82
668.41	34270.12
668.56	33825.42
668.70	34532.26
668.84	33900.32
668.98	33256.67
669.12	33663.93
669.26	33860.53
669.40	33476.68
669.54	33706.05
669.68	33420.51
669.82	33109.22
669.96	33280.08
670.10	33160.71
670.25	33415.83
670.39	33450.94
670.53	33233.27
670.67	32907.93
670.81	33582.01
670.95	33352.63
671.09	33151.35
671.23	32725.37
671.37	33041.34
671.51	32701.96
671.65	32519.40
671.79	32723.03
671.93	32397.70
672.07	32950.06
672.21	32535.79
672.35	32713.67
672.49	32175.34
672.63	32311.10
672.77	32474.93
672.91	32290.03
673.05	32474.93
673.19	31936.61
673.33	31899.16
673.47	31599.57
673.61	31704.90
673.75	31311.69
673.89	31508.29
674.03	31311.69
674.17	31388.92
674.31	31765.75
674.45	31697.88
674.59	31372.54
674.73	31564.46
674.87	30937.20
675.01	31477.86
675.15	31241.47
675.29	31281.26
675.43	31311.69
675.56	31262.54
675.70	30696.13
675.84	30717.19
675.98	29937.79
676.12	30831.88
676.26	30354.41
676.40	30326.32
676.54	30625.91
676.68	30476.12
676.82	29848.85
676.96	30457.39
677.10	30075.88
677.23	30125.04
677.37	29692.04
677.51	29832.47
677.65	29708.42
677.79	29551.60
677.93	29113.92
678.07	29142.01
678.21	29223.93
678.34	28961.79
678.48	28926.68
678.62	28666.88
678.76	28664.54
678.90	28638.80
679.04	28533.47
679.18	28404.74
679.31	28362.61
679.45	28271.33
679.59	28290.06
679.73	28114.52
679.87	27742.37
680.00	27885.14
680.14	28140.26
680.28	28020.89
680.42	28231.54
680.56	28116.86
680.70	27751.73
680.83	27981.10
680.97	27594.92
681.11	27459.16
681.25	27318.73
681.39	27358.52
681.52	27545.76
681.66	27393.63
681.80	27007.44
681.94	26925.52
682.07	26742.96
682.21	27164.26
682.35	26621.25
682.49	26686.79
682.62	27002.76
682.76	26434.01
682.90	26513.59
683.04	26434.01
683.17	26300.60
683.31	26141.44
683.45	26118.04
683.59	25982.29
683.72	25429.92
683.86	25476.73
684.00	25783.34
684.13	25685.04
684.27	25509.50
684.41	25378.43
684.55	25069.48
684.68	25259.06
684.82	25186.50
684.96	25273.10
685.09	25359.70
685.23	24833.08
685.37	24739.46
685.50	24659.88
685.64	24704.35
685.78	24254.97
685.91	24341.57
686.05	24187.10
686.19	24299.44
686.32	23789.20
686.46	23821.97
686.60	23583.24
686.73	23426.42
686.87	23637.07
687.01	23396.00
687.14	23318.76
687.28	23365.57
687.42	23225.14
687.55	23293.01
687.69	23314.08
687.82	23000.44
687.96	23365.57
688.10	23222.80
688.23	23019.17
688.37	22555.74
688.50	22441.06
688.64	22635.32
688.78	22244.45
688.91	22457.44
689.05	22604.89
689.18	22555.74
689.32	22129.77
689.46	22319.35
689.59	21994.01
689.73	22305.31
689.86	22160.19
690.00	21905.07
690.13	22160.19
690.27	21804.43
690.41	21610.17
690.54	21434.63
690.68	21275.47
690.81	21097.59
690.95	21537.61
691.08	21434.63
691.22	21043.76
691.35	21284.83
691.49	21319.94
691.62	21099.93
691.76	20891.62
691.89	20835.45
692.03	20685.65
692.16	21081.21
692.30	20554.58
692.43	20290.10
692.57	20196.48
692.70	20084.14
692.84	20166.06
692.97	19594.96
693.11	20016.26
693.24	19859.45
693.38	19861.79
693.51	19796.25
693.65	20002.22
693.78	19824.34
693.92	19756.46
694.05	19449.85
694.19	19232.18
694.32	19494.32
694.45	19159.63
694.59	18911.53
694.72	19335.17
694.86	19058.98
694.99	18796.84
695.13	19040.26
695.26	18733.65
695.39	18658.75
695.53	18918.55
695.66	18845.99
695.80	18448.10
695.93	18785.14
696.07	18260.86
696.20	18382.57
696.33	18342.78
696.47	18459.81
696.60	17942.55
696.73	18029.15
696.87	17961.27
697.00	18024.47
697.14	18054.89
697.27	17568.06
697.40	17884.03
697.54	17605.51
697.67	17589.13
697.80	17591.47
697.94	17432.31
698.07	17310.60
698.21	17001.65
698.34	16919.73
698.47	16886.97
698.61	16734.83
698.74	16489.07
698.87	16994.63
699.01	16248.00
699.14	16458.65
699.27	16362.69
699.40	16570.99
699.54	16336.94
699.67	16416.52
699.80	16608.44
699.94	16051.39
700.07	16166.08
700.20	15875.85
700.34	16238.64
700.47	16060.76
700.60	16156.72
700.73	15971.82
700.87	15866.49
701.00	15669.89
701.13	15672.23
701.26	15435.83
701.40	15459.24
701.53	15309.44
701.66	15243.91
701.79	15257.95
701.93	15286.04
702.06	15187.74
702.19	15248.59
702.32	15159.65
702.46	14616.65
702.59	14717.29
702.72	15119.86
702.85	14658.78
702.99	14668.14
703.12	14728.99
703.25	14726.65
703.38	14504.30
703.51	14274.93
703.65	14686.86
703.78	14347.48
703.91	14464.51
704.04	14221.10
704.17	14459.83
704.31	14045.55
704.44	14139.18
704.57	14176.62
704.70	13724.90
704.83	13769.37
704.96	13848.95
705.10	13834.91
705.23	13820.86
>>>>>End Processed Spectral Data<<<<<
