SpectraSuite Data File
++++++++++++++++++++++++++++++++++++
Date: Fri Oct 25 11:34:05 EDT 2013
User: price-jones
Dark Spectrum Present: No
Reference Spectrum Present: No
Number of Sampled Component Spectra: 1
Spectrometers: USB2+H05261
Integration Time (usec): 100000 (USB2+H05261)
Spectra Averaged: 1 (USB2+H05261)
Boxcar Smoothing: 0 (USB2+H05261)
Correct for Electrical Dark: No (USB2+H05261)
Strobe/Lamp Enabled: No (USB2+H05261)
Correct for Detector Non-linearity: No (USB2+H05261)
Correct for Stray Light: No (USB2+H05261)
Number of Pixels in Processed Spectrum: 2048
>>>>>Begin Processed Spectral Data<<<<<
365.73	259.80
365.92	259.80
366.12	259.80
366.32	159.16
366.52	147.45
366.72	196.60
366.91	159.16
367.11	180.22
367.31	147.45
367.51	166.18
367.70	180.22
367.90	231.71
368.10	189.58
368.30	222.35
368.49	170.86
368.69	208.31
368.89	175.54
369.09	196.60
369.28	184.90
369.48	220.01
369.68	236.39
369.87	248.10
370.07	245.76
370.27	273.84
370.47	308.95
370.66	496.19
370.86	437.68
371.06	545.34
371.25	620.24
371.45	552.37
371.65	554.71
371.84	547.69
372.04	505.56
372.24	559.39
372.44	608.54
372.63	580.45
372.83	594.50
373.03	627.26
373.22	615.56
373.42	660.03
373.62	613.22
373.81	645.99
374.01	662.37
374.21	667.05
374.40	657.69
374.60	603.86
374.79	624.92
374.99	662.37
375.19	678.76
375.38	662.37
375.58	704.50
375.78	725.57
375.97	650.67
376.17	737.27
376.37	648.33
376.56	674.07
376.76	641.31
376.95	641.31
377.15	664.71
377.35	681.10
377.54	711.52
377.74	641.31
377.93	662.37
378.13	692.80
378.33	648.33
378.52	692.80
378.72	744.29
378.91	788.76
379.11	660.03
379.31	718.54
379.50	744.29
379.70	739.61
379.89	711.52
380.09	723.23
380.28	739.61
380.48	695.14
380.68	692.80
380.87	760.67
381.07	786.42
381.26	805.14
381.46	816.85
381.65	741.95
381.85	732.59
382.04	802.80
382.24	847.27
382.43	748.97
382.63	765.36
382.83	753.65
383.02	833.23
383.22	781.74
383.41	704.50
383.61	866.00
383.80	844.93
384.00	767.70
384.19	844.93
384.39	809.83
384.58	884.72
384.78	760.67
384.97	833.23
385.17	793.44
385.36	823.87
385.56	767.70
385.75	887.06
385.95	842.59
386.14	868.34
386.34	779.40
386.53	739.61
386.72	889.40
386.92	858.98
387.11	873.02
387.31	896.43
387.50	926.85
387.70	823.87
387.89	877.70
388.09	924.51
388.28	903.45
388.48	847.27
388.67	976.00
388.86	844.93
389.06	903.45
389.25	924.51
389.45	973.66
389.64	945.58
389.84	891.74
390.03	931.53
390.22	1039.20
390.42	971.32
390.61	978.34
390.81	954.94
391.00	945.58
391.19	992.39
391.39	868.34
391.58	954.94
391.78	990.05
391.97	947.92
392.16	1029.84
392.36	1004.09
392.55	1027.50
392.75	1032.18
392.94	1086.01
393.13	1071.97
393.33	1020.47
393.52	1078.99
393.71	1102.39
393.91	1102.39
394.10	945.58
394.29	1102.39
394.49	976.00
394.68	1050.90
394.88	1163.25
395.07	1090.69
395.26	1104.73
395.46	1177.29
395.65	1191.33
395.84	1172.61
396.04	1221.76
396.23	1158.57
396.42	1193.67
396.62	1188.99
396.81	1137.50
397.00	1118.78
397.19	1179.63
397.39	1226.44
397.58	1217.08
397.77	1291.98
397.97	1247.51
398.16	1219.42
398.35	1336.45
398.55	1280.27
398.74	1371.55
398.93	1366.87
399.12	1261.55
399.32	1261.55
399.51	1261.55
399.70	1341.13
399.90	1343.47
400.09	1247.51
400.28	1369.21
400.47	1343.47
400.67	1313.04
400.86	1418.36
401.05	1352.83
401.24	1350.49
401.44	1488.58
401.63	1394.96
401.82	1387.94
402.01	1411.34
402.21	1460.49
402.40	1488.58
402.59	1397.30
402.78	1383.26
402.97	1423.05
403.17	1488.58
403.36	1418.36
403.55	1551.78
403.74	1488.58
403.93	1614.97
404.13	1570.50
404.32	1549.43
404.51	1586.88
404.70	1652.42
404.89	1554.12
405.09	1589.22
405.28	1671.14
405.47	1645.40
405.66	1636.03
405.85	1708.59
406.05	1666.46
406.24	1666.46
406.43	1783.49
406.62	1736.68
406.81	1844.34
407.00	1682.85
407.20	1804.55
407.39	1748.38
407.58	1778.81
407.77	1891.15
407.96	1842.00
408.15	1839.66
408.34	1832.64
408.54	1832.64
408.73	1853.70
408.92	1914.56
409.11	1923.92
409.30	1987.11
409.49	1921.58
409.68	1937.96
409.87	1977.75
410.07	1926.26
410.26	1893.49
410.45	1973.07
410.64	1940.30
410.83	2083.08
411.02	2012.86
411.21	2118.18
411.40	2165.00
411.59	2148.61
411.78	2188.40
411.98	2134.57
412.17	2209.47
412.36	2188.40
412.55	2340.54
412.74	2298.41
412.93	2293.72
413.12	2296.07
413.31	2328.83
413.50	2373.30
413.69	2368.62
413.88	2408.41
414.07	2354.58
414.26	2434.16
414.45	2399.05
414.64	2385.01
414.83	2518.42
415.02	2436.50
415.22	2551.18
415.41	2621.40
415.60	2546.50
415.79	2623.74
415.98	2607.36
416.17	2612.04
416.36	2693.96
416.55	2754.81
416.74	2738.43
416.93	2715.02
417.12	2789.92
417.31	2810.98
417.50	2909.29
417.69	2899.92
417.88	2984.18
418.07	2843.75
418.26	2899.92
418.45	2944.39
418.64	3038.02
418.83	2977.16
419.02	2986.52
419.21	3098.87
419.39	3023.97
419.58	2986.52
419.77	2993.55
419.96	3030.99
420.15	3040.36
420.34	3112.91
420.53	3155.04
420.72	3220.58
420.91	3248.66
421.10	3309.52
421.29	3274.41
421.48	3159.72
421.67	3197.17
421.86	3262.71
422.05	3323.56
422.24	3183.13
422.43	3234.62
422.61	3400.80
422.80	3363.35
422.99	3272.07
423.18	3272.07
423.37	3496.76
423.56	3475.70
423.75	3262.71
423.94	3131.64
424.13	3159.72
424.32	3307.18
424.50	3496.76
424.69	3265.05
424.88	3393.78
425.07	3351.65
425.26	3265.05
425.45	3463.99
425.64	3286.11
425.83	3314.20
426.01	3543.57
426.20	3522.51
426.39	3384.41
426.58	3496.76
426.77	3281.43
426.96	3520.17
427.15	3555.27
427.33	3566.98
427.52	3414.84
427.71	3482.72
427.90	3524.85
428.09	3501.44
428.28	3543.57
428.46	3747.20
428.65	3578.68
428.84	3632.51
429.03	3768.26
429.22	3588.04
429.40	3772.94
429.59	3868.91
429.78	3606.77
429.97	3590.38
430.16	3723.79
430.34	3782.31
430.53	3838.48
430.72	3716.77
430.91	3733.15
431.10	3805.71
431.28	3946.14
431.47	3936.78
431.66	3889.97
431.85	3808.05
432.03	4025.72
432.22	4051.47
432.41	3988.27
432.60	4152.11
432.79	4032.74
432.97	4098.28
433.16	4049.13
433.35	4009.34
433.54	4025.72
433.72	4084.23
433.91	4194.24
434.10	4173.18
434.28	4102.96
434.47	4117.00
434.66	4152.11
434.85	4131.05
435.03	4259.78
435.22	4276.16
435.41	4432.97
435.59	4229.35
435.78	4432.97
435.97	4355.74
436.16	4353.40
436.34	4341.69
436.53	4435.32
436.72	4479.79
436.90	4388.50
437.09	4425.95
437.28	4222.33
437.46	4484.47
437.65	4678.73
437.84	4517.23
438.02	4519.57
438.21	4505.53
438.40	4425.95
438.58	4664.69
438.77	4781.71
438.96	4688.09
439.14	4772.35
439.33	4814.48
439.52	4863.63
439.70	4947.89
439.89	4877.68
440.08	4961.94
440.26	4933.85
440.45	4800.44
440.63	5060.24
440.82	5111.73
441.01	4992.36
441.19	5055.56
441.38	5167.90
441.57	5177.26
441.75	5200.67
441.94	5352.81
442.12	5345.78
442.31	5472.17
442.50	5256.84
442.68	5348.12
442.87	5441.75
443.05	5352.81
443.24	5413.66
443.43	5434.72
443.61	5476.85
443.80	5427.70
443.98	5394.93
444.17	5235.78
444.35	5439.40
444.54	5565.79
444.73	5528.35
444.91	5554.09
445.10	5554.09
445.28	5659.42
445.47	5516.64
445.65	5434.72
445.84	5446.43
446.02	5699.20
446.21	5577.50
446.39	5675.80
446.58	5586.86
446.77	5535.37
446.95	5369.19
447.14	5444.09
447.32	5764.74
447.51	5657.07
447.69	5493.24
447.88	5668.78
448.06	5490.90
448.25	5694.52
448.43	5659.42
448.62	5771.76
448.80	5731.97
448.99	5767.08
449.17	5722.61
449.36	5900.49
449.54	5788.14
449.73	5888.79
449.91	6118.16
450.10	5825.59
450.28	6174.33
450.46	6099.44
450.65	5994.11
450.83	6029.22
451.02	6031.56
451.20	6207.10
451.39	6008.16
451.57	6169.65
451.76	5970.71
451.94	5991.77
452.13	6202.42
452.31	6176.67
452.49	6038.58
452.68	6251.57
452.86	6183.70
453.05	6256.25
453.23	6420.09
453.42	6244.55
453.60	6090.07
453.78	6427.11
453.97	6132.20
454.15	6183.70
454.34	6216.46
454.52	6284.34
454.70	6396.68
454.89	6396.68
455.07	6551.16
455.26	6537.12
455.44	6628.40
455.62	6614.35
455.81	6534.78
455.99	6696.27
456.17	6516.05
456.36	6572.22
456.54	6565.20
456.73	6691.59
456.91	6857.77
457.09	6888.20
457.28	6979.48
457.46	6843.73
457.64	6949.05
457.83	6967.77
458.01	6820.32
458.19	6904.58
458.38	7040.33
458.56	7040.33
458.74	7016.93
458.93	6953.73
459.11	7016.93
459.29	7115.23
459.48	7035.65
459.66	7234.60
459.84	7021.61
460.03	7328.22
460.21	7243.96
460.39	7253.32
460.57	7461.63
460.76	7438.22
460.94	7550.57
461.12	7433.54
461.31	7297.79
461.49	7328.22
461.67	7360.98
461.85	7470.99
462.04	7405.46
462.22	7705.04
462.40	7632.49
462.59	7428.86
462.77	7805.69
462.95	7597.38
463.13	7765.90
463.32	7681.64
463.50	7777.60
463.68	7749.51
463.86	7763.56
464.05	7772.92
464.23	7637.17
464.41	7873.56
464.59	7651.21
464.78	7950.80
464.96	7829.09
465.14	7761.22
465.32	7878.24
465.50	8067.83
465.69	8049.10
465.87	7899.31
466.05	7981.23
466.23	8070.17
466.41	7920.37
466.60	7969.52
466.78	7950.80
466.96	8091.23
467.14	8042.08
467.32	8049.10
467.51	8266.77
467.69	8070.17
467.87	8154.43
468.05	8304.22
468.23	8250.39
468.41	8194.22
468.60	8297.20
468.78	8351.03
468.96	8234.00
469.14	8376.78
469.32	8451.67
469.50	8283.16
469.69	8414.23
469.87	8697.43
470.05	8671.68
470.23	8870.63
470.41	8589.77
470.59	8505.51
470.77	8617.85
470.95	8601.47
471.14	8732.54
471.32	8681.05
471.50	8872.97
471.68	8868.29
471.86	9060.21
472.04	8926.80
472.22	9036.81
472.40	9041.49
472.58	9041.49
472.77	8987.66
472.95	9221.71
473.13	9401.93
473.31	9165.54
473.49	9233.41
473.67	9359.80
473.85	9322.35
474.03	9565.77
474.21	9558.75
474.39	9504.92
474.57	9664.07
474.75	9741.31
474.93	9914.51
475.12	9731.95
475.30	9846.63
475.48	9680.46
475.66	9895.78
475.84	9762.37
476.02	9968.34
476.20	10045.58
476.38	10251.55
476.56	10450.49
476.74	10195.37
476.92	10373.25
477.10	10279.63
477.28	10485.60
477.46	10363.89
477.64	10635.39
477.82	10721.99
478.00	11028.60
478.18	10768.80
478.36	11002.86
478.54	10864.77
478.72	10934.98
478.90	11236.91
479.08	11318.83
479.26	11489.69
479.44	11419.47
479.62	11351.60
479.80	11536.50
479.98	11873.54
480.16	11997.59
480.34	11595.01
480.52	12226.96
480.70	11908.65
480.88	11798.64
481.06	12175.47
481.24	12187.17
481.41	12564.00
481.59	12622.51
481.77	12463.35
481.95	12435.27
482.13	12692.73
482.31	12702.09
482.49	13064.87
482.67	13034.44
482.85	13179.56
483.03	13198.28
483.21	13678.09
483.39	13816.18
483.57	13371.48
483.74	13745.97
483.92	13795.12
484.10	13462.76
484.28	13916.83
484.46	13947.25
484.64	14499.62
484.82	14132.15
485.00	14092.37
485.18	14609.62
485.35	14747.72
485.53	14841.34
485.71	14927.94
485.89	15279.02
486.07	14885.81
486.25	15426.47
486.43	15232.21
486.61	15349.23
486.78	15484.98
486.96	15468.60
487.14	15751.81
487.32	15744.78
487.50	16198.85
487.68	16084.16
487.85	16060.76
488.03	16636.53
488.21	16613.12
488.39	16589.72
488.57	16800.37
488.75	16709.08
488.92	16812.07
489.10	17319.96
489.28	17170.17
489.46	17291.88
489.64	17303.58
489.81	17762.33
489.99	17792.75
490.17	17783.39
490.35	18225.75
490.53	18160.22
490.70	18164.90
490.88	18375.55
491.06	18546.40
491.24	18757.05
491.41	18574.49
491.59	18853.02
491.77	18883.44
491.95	18988.77
492.13	19054.30
492.30	19197.07
492.48	19428.79
492.66	19183.03
492.84	19248.57
493.01	19782.21
493.19	19791.57
493.37	19564.54
493.54	19999.88
493.72	20285.42
493.90	20154.35
494.08	20154.35
494.25	20634.16
494.43	20519.48
494.61	21088.23
494.79	20802.68
494.96	20776.94
495.14	21298.88
495.32	21142.06
495.49	21132.70
495.67	21223.98
495.85	21572.72
496.02	21535.27
496.20	22008.06
496.38	22008.06
496.55	21996.35
496.73	22267.86
496.91	22008.06
497.09	22204.66
497.26	22508.93
497.44	22242.11
497.62	22614.26
497.79	22892.78
497.97	22761.71
498.14	23213.43
498.32	23271.95
498.50	23222.80
498.67	23571.54
498.85	23318.76
499.03	23534.09
499.20	23630.05
499.38	23838.36
499.56	23833.68
499.73	24081.77
499.91	23885.17
500.08	24297.10
500.26	24439.87
500.44	24386.04
500.61	24212.84
500.79	24166.03
500.97	24570.94
501.14	24938.41
501.32	24781.59
501.49	24411.79
501.67	24746.48
501.84	25067.14
502.02	25214.59
502.20	25308.21
502.37	25228.63
502.55	25256.72
502.72	25401.83
502.90	25256.72
503.07	25378.43
503.25	25853.56
503.43	25563.33
503.60	25874.62
503.78	26206.98
503.95	26099.31
504.13	25736.53
504.30	26106.34
504.48	25979.95
504.65	26377.84
504.83	26286.56
505.01	26333.37
505.18	26780.41
505.36	26768.71
505.53	26686.79
505.71	26876.37
505.88	27124.47
506.06	26705.51
506.23	27072.98
506.41	27190.00
506.58	27091.70
506.76	27253.20
506.93	27468.53
507.11	27110.43
507.28	27445.12
507.46	27395.97
507.63	27686.20
507.81	27922.59
507.98	27903.87
508.16	27906.21
508.33	28507.72
508.50	28151.96
508.68	27983.44
508.85	28435.17
509.03	28058.34
509.20	28346.23
509.38	28797.95
509.55	28739.44
509.73	28636.45
509.90	28666.88
510.08	28748.80
510.25	29055.41
510.42	29127.97
510.60	29406.49
510.77	29158.39
510.95	29521.18
511.12	29186.48
511.30	29493.09
511.47	29406.49
511.64	29376.06
511.82	29860.55
511.99	29598.41
512.17	29792.68
512.34	29773.95
512.51	30235.04
512.69	30246.74
512.86	30272.49
513.04	30335.68
513.21	30576.76
513.38	30010.35
513.56	30689.10
513.73	30288.87
513.90	30639.95
514.08	30272.49
514.25	31070.61
514.43	31005.08
514.60	30857.62
514.77	30906.77
514.95	31171.25
515.12	31112.74
515.29	31023.80
515.47	31173.60
515.64	31676.81
515.81	31157.21
515.99	31143.17
516.16	31281.26
516.33	31555.10
516.51	31955.33
516.68	31782.13
516.85	32093.43
517.03	32257.26
517.20	32018.53
517.37	32180.03
517.54	32004.49
517.72	32149.60
517.89	32116.83
518.06	32119.17
518.24	32861.12
518.41	32109.81
518.58	32322.80
518.75	32496.00
518.93	32732.39
519.10	32615.37
519.27	32781.54
519.45	32678.56
519.62	33109.22
519.79	33200.50
519.96	32973.47
520.14	33289.44
520.31	33198.16
520.48	33394.76
520.65	33589.03
520.83	33802.02
521.00	33668.61
521.17	33497.75
521.34	33666.27
521.52	33823.08
521.69	33888.62
521.86	34401.19
522.03	34256.08
522.20	34363.75
522.38	34490.13
522.55	34394.17
522.72	34518.22
522.89	34148.42
523.07	34693.76
523.24	34611.84
523.41	34682.06
523.58	34618.86
523.75	34836.53
523.92	34820.15
524.10	34925.47
524.27	34831.85
524.44	34981.65
524.61	34923.13
524.78	34974.63
524.96	35381.88
525.13	35222.72
525.30	35152.51
525.47	35416.99
525.64	35608.91
525.81	35590.19
525.98	35901.48
526.16	35730.62
526.33	35814.88
526.50	35924.88
526.67	35707.21
526.84	36149.57
527.01	36208.09
527.18	36107.44
527.36	36070.00
527.53	35871.05
527.70	36507.68
527.87	36641.09
528.04	36507.68
528.21	36175.32
528.38	36292.35
528.55	36465.55
528.72	36177.66
528.89	36259.58
529.07	36280.64
529.24	36442.14
529.41	36797.90
529.58	36788.54
529.75	36505.34
529.92	37041.32
530.09	36708.96
530.26	36762.79
530.43	37427.51
530.60	36584.91
530.77	36959.40
530.94	37008.55
531.11	37202.82
531.28	37181.75
531.46	37322.18
531.63	37855.82
531.80	37397.08
531.97	37780.93
532.14	37085.79
532.31	37649.86
532.48	37897.95
532.65	37879.23
532.82	37848.80
532.99	38183.50
533.16	37593.68
533.33	38270.10
533.50	38139.03
533.67	37752.84
533.84	37677.94
534.01	38267.76
534.18	38408.19
534.35	38438.62
534.52	38494.79
534.69	38902.04
534.86	38359.04
535.03	37834.76
535.20	38864.60
535.37	38969.92
535.54	39108.01
535.71	38611.82
535.88	38733.53
536.05	38763.95
536.22	38810.76
536.38	39007.37
536.55	39035.45
536.72	39250.78
536.89	38843.53
537.06	38813.10
537.23	39473.13
537.40	39089.29
537.57	39098.65
537.74	38927.79
537.91	39505.90
538.08	39220.36
538.25	39260.15
538.42	39346.75
538.59	39683.78
538.75	39332.70
538.92	39519.95
539.09	39725.91
539.26	39299.94
539.43	39548.03
539.60	39871.03
539.77	39505.90
539.94	39920.18
540.11	39566.76
540.28	39627.61
540.44	39739.96
540.61	40289.98
540.78	40198.70
540.95	40102.74
541.12	39793.79
541.29	39784.43
541.46	40196.36
541.62	39901.45
541.79	40666.81
541.96	40266.58
542.13	40084.01
542.30	40676.17
542.47	40781.49
542.63	40818.94
542.80	40634.04
542.97	41010.87
543.14	41118.53
543.31	41120.87
543.48	40744.05
543.64	41069.38
543.81	41684.94
543.98	40776.81
544.15	41144.28
544.32	41242.58
544.48	41436.84
544.65	41553.87
544.82	41567.91
544.99	41380.67
545.16	41563.23
545.32	41516.42
545.49	41490.68
545.66	41783.24
545.83	41645.15
546.00	41514.08
546.16	41694.30
546.33	41434.50
546.50	41841.76
546.67	42204.54
546.83	41387.69
547.00	41507.06
547.17	41787.92
547.34	42033.68
547.50	42380.08
547.67	42454.98
547.84	42153.05
548.00	42370.72
548.17	42469.02
548.34	42321.57
548.51	42106.24
548.67	42993.30
548.84	42787.33
549.01	41968.15
549.18	42824.78
549.34	42557.96
549.51	42897.34
549.68	42471.36
549.84	42679.67
550.01	42902.02
550.18	42190.50
550.34	42534.56
550.51	42726.48
550.68	43147.78
550.84	42574.34
551.01	42389.44
551.18	42761.59
551.34	42698.39
551.51	42789.67
551.68	42906.70
551.84	42630.52
552.01	42588.39
552.18	43365.45
552.34	43248.42
552.51	43122.03
552.68	43166.50
552.84	43590.14
553.01	43290.55
553.18	43103.31
553.34	43192.25
553.51	43381.83
553.67	43178.20
553.84	43842.92
554.01	43257.78
554.17	43416.94
554.34	43730.57
554.51	43339.70
554.67	43875.68
554.84	43913.13
555.00	43606.52
555.17	43590.14
555.33	44144.84
555.50	43756.32
555.67	43718.87
555.83	43906.11
556.00	43842.92
556.16	44545.08
556.33	44009.09
556.50	44002.07
556.66	44318.04
556.83	43934.20
556.99	44348.47
557.16	44013.77
557.32	44339.11
557.49	44509.97
557.65	44058.24
557.82	43487.15
557.98	44072.29
558.15	44357.83
558.32	43812.49
558.48	44186.97
558.65	44577.84
558.81	44832.96
558.98	44444.43
559.14	44470.18
559.31	44189.31
559.47	44208.04
559.64	44580.18
559.80	44212.72
559.97	45071.70
560.13	44397.62
560.30	44545.08
560.46	44821.26
560.63	44741.68
560.79	44828.28
560.96	44837.64
561.12	45083.40
561.29	44949.99
561.45	45443.84
561.61	45340.86
561.78	44851.69
561.94	44830.62
562.11	44980.42
562.27	44814.24
562.44	44959.35
562.60	45146.59
562.77	45109.14
562.93	44769.77
563.10	45146.59
563.26	45184.04
563.42	45340.86
563.59	44753.38
563.75	44762.75
563.92	44989.78
564.08	45071.70
564.24	45209.79
564.41	45308.09
564.57	45446.18
564.74	45170.00
564.90	45263.62
565.07	44767.43
565.23	44858.71
565.39	45233.19
565.56	45305.75
565.72	44783.81
565.88	44898.50
566.05	45256.60
566.21	45207.45
566.38	45177.02
566.54	45347.88
566.70	45806.62
566.87	45106.80
567.03	45247.24
567.19	45549.17
567.36	45097.44
567.52	45067.02
567.68	46010.25
567.85	45591.30
568.01	45673.21
568.17	45404.05
568.34	45595.98
568.50	45492.99
568.66	45298.73
568.83	45649.81
568.99	45710.66
569.15	45865.14
569.32	45572.57
569.48	45495.33
569.64	46014.93
569.81	45949.40
569.97	45649.81
570.13	45649.81
570.30	45481.29
570.46	46387.08
570.62	46075.79
570.78	45708.32
570.95	45455.54
571.11	46230.26
571.27	45813.65
571.43	45598.32
571.60	45801.94
571.76	45680.24
571.92	45752.79
572.09	45553.85
572.25	45785.56
572.41	45638.11
572.57	45848.75
572.74	46560.28
572.90	45961.10
573.06	45895.56
573.22	46195.15
573.38	46075.79
573.55	46080.47
573.71	46176.43
573.87	46248.99
574.03	46316.86
574.20	46045.36
574.36	46178.77
574.52	46148.34
574.68	46122.60
574.84	46546.23
575.01	46197.49
575.17	46033.66
575.33	46010.25
575.49	46256.01
575.65	46340.27
575.82	46211.54
575.98	45823.01
576.14	46412.82
576.30	46775.61
576.46	46370.69
576.62	45914.29
576.79	46328.56
576.95	45727.05
577.11	45645.13
577.27	46054.72
577.43	46038.34
577.59	46078.13
577.75	45586.61
577.92	45689.60
578.08	46267.71
578.24	46241.96
578.40	46337.93
578.56	46150.68
578.72	46277.07
578.88	46483.04
579.04	46171.75
579.21	46195.15
579.37	46513.47
579.53	46454.95
579.69	46321.54
579.85	46405.80
580.01	46237.28
580.17	46464.32
580.33	46543.89
580.49	46438.57
580.65	46302.82
580.82	46476.02
580.98	46429.21
581.14	45930.67
581.30	46403.46
581.46	46305.16
581.62	46068.76
581.78	45762.15
581.94	46188.13
582.10	46024.29
582.26	46576.66
582.42	45904.93
582.58	46770.93
582.74	46873.91
582.90	45862.80
583.06	46469.00
583.22	46028.98
583.38	46768.58
583.54	46553.26
583.70	46506.44
583.86	46609.43
584.02	46672.62
584.18	46848.16
584.34	46473.68
584.50	46548.57
584.66	46953.49
584.82	46586.02
584.98	46902.00
585.14	46635.17
585.30	46681.98
585.46	46429.21
585.62	46490.06
585.78	46677.30
585.94	46300.48
586.10	46827.10
586.26	46017.27
586.42	46307.50
586.58	46646.88
586.74	46679.64
586.90	46351.97
587.06	46160.05
587.22	46749.86
587.38	46267.71
587.54	46625.81
587.70	47014.34
587.86	46754.54
588.02	46763.90
588.18	46344.95
588.34	46454.95
588.49	46906.68
588.65	46536.87
588.81	46630.49
588.97	46590.70
589.13	46452.61
589.29	46822.42
589.45	46953.49
589.61	47105.62
589.77	46857.52
589.93	46948.81
590.08	46838.80
590.24	47306.91
590.40	47370.10
590.56	47311.59
590.72	46735.82
590.88	46759.22
591.04	47189.88
591.20	47236.69
591.35	47185.20
591.51	47105.62
591.67	46857.52
591.83	47079.88
591.99	46703.05
592.15	46857.52
592.31	46983.91
592.46	47061.15
592.62	47082.22
592.78	47386.49
592.94	47662.67
593.10	47526.92
593.26	47512.88
593.41	47058.81
593.57	47089.24
593.73	47189.88
593.89	47522.24
594.05	47505.85
594.20	47180.52
594.36	47756.29
594.52	47344.36
594.68	47288.18
594.84	46962.85
594.99	47772.67
595.15	47615.86
595.31	47089.24
595.47	47194.56
595.62	47461.38
595.78	47063.49
595.94	47175.84
596.10	47491.81
596.25	47512.88
596.41	47313.93
596.57	47161.79
596.73	47531.60
596.88	47349.04
597.04	47119.66
597.20	47072.85
597.36	47334.99
597.51	47339.68
597.67	47047.11
597.83	47416.91
597.99	47393.51
598.14	47440.32
598.30	47325.63
598.46	47285.84
598.61	47674.37
598.77	47358.40
598.93	47840.55
599.09	47131.37
599.24	47552.66
599.40	47269.46
599.56	47402.87
599.71	47543.30
599.87	48215.04
600.03	47840.55
600.18	47775.02
600.34	47400.53
600.50	47421.59
600.65	47629.90
600.81	47896.72
600.97	47791.40
601.12	47526.92
601.28	47562.03
601.44	47042.43
601.59	47388.83
601.75	47110.30
601.91	47512.88
602.06	47206.26
602.22	47665.01
602.37	47175.84
602.53	47662.67
602.69	47508.19
602.84	47325.63
603.00	47566.71
603.16	47281.16
603.31	47601.82
603.47	47604.16
603.62	47835.87
603.78	47545.64
603.94	47297.55
604.09	47571.39
604.25	47660.33
604.40	47316.27
604.56	47339.68
604.71	47566.71
604.87	47297.55
605.03	47234.35
605.18	47503.51
605.34	47604.16
605.49	46990.94
605.65	47421.59
605.80	47110.30
605.96	47688.42
606.12	47154.77
606.27	47650.97
606.43	47419.25
606.58	47597.13
606.74	47452.02
606.89	47033.07
607.05	47913.11
607.20	47456.70
607.36	47435.64
607.51	47346.70
607.67	47255.42
607.82	47342.02
607.98	47175.84
608.13	46686.67
608.29	47110.30
608.44	47311.59
608.60	46822.42
608.75	47224.99
608.91	47150.09
609.06	46759.22
609.22	47402.87
609.37	47311.59
609.53	47180.52
609.68	47203.92
609.84	47124.35
609.99	46995.62
610.15	47138.39
610.30	47250.74
610.46	47019.02
610.61	47365.42
610.76	47145.41
610.92	47103.28
611.07	46803.69
611.23	46932.42
611.38	47065.83
611.54	47206.26
611.69	47267.12
611.84	47058.81
612.00	47323.29
612.15	46742.84
612.31	47098.60
612.46	46829.44
612.62	46990.94
612.77	47145.41
612.92	47236.69
613.08	47271.80
613.23	47276.48
613.39	46843.48
613.54	46967.53
613.69	46927.74
613.85	46946.47
614.00	46536.87
614.15	47114.98
614.31	46501.76
614.46	46569.64
614.62	46852.84
614.77	46780.29
614.92	46983.91
615.08	46810.71
615.23	46260.69
615.38	47012.00
615.54	46417.50
615.69	46852.84
615.84	46340.27
616.00	46920.72
616.15	46518.15
616.30	46866.89
616.46	46581.34
616.61	46192.81
616.76	46712.41
616.92	46796.67
617.07	46583.68
617.22	46515.81
617.37	46089.83
617.53	46263.03
617.68	46256.01
617.83	46370.69
617.99	46408.14
618.14	46733.48
618.29	46204.52
618.45	46497.08
618.60	46195.15
618.75	46082.81
618.90	46370.69
619.06	46005.57
619.21	46101.53
619.36	46817.74
619.51	45741.09
619.67	46401.12
619.82	46141.32
619.97	46021.95
620.12	46272.39
620.28	46075.79
620.43	46291.12
620.58	46382.40
620.73	46384.74
620.89	46040.68
621.04	46447.93
621.19	45940.04
621.34	45921.31
621.49	46014.93
621.65	45675.55
621.80	45991.53
621.95	45780.88
622.10	46113.23
622.25	46080.47
622.41	45612.36
622.56	45776.20
622.71	45815.99
622.86	45998.55
623.01	45436.82
623.16	45958.76
623.32	45425.12
623.47	45886.20
623.62	45902.59
623.77	45495.33
623.92	45804.28
624.07	45921.31
624.23	45748.11
624.38	45989.19
624.53	45333.84
624.68	45605.34
624.83	45184.04
624.98	45446.18
625.13	44975.73
625.29	45436.82
625.44	45441.50
625.59	45263.62
625.74	45469.59
625.89	45076.38
626.04	45031.91
626.19	45029.57
626.34	44619.97
626.49	45029.57
626.65	44795.51
626.80	44985.10
626.95	45127.87
627.10	45010.84
627.25	45415.76
627.40	45265.96
627.55	44847.00
627.70	45083.40
627.85	44931.26
628.00	44952.33
628.15	45249.58
628.30	44601.25
628.45	44732.32
628.60	44343.79
628.76	44694.87
628.91	44463.16
629.06	44453.79
629.21	44339.11
629.36	44584.86
629.51	44652.74
629.66	44980.42
629.81	44479.54
629.96	44739.34
630.11	44596.57
630.26	44605.93
630.41	44760.40
630.56	44364.85
630.71	44559.12
630.86	44456.14
631.01	44378.90
631.16	44406.98
631.31	44311.02
631.46	44432.73
631.61	44406.98
631.76	44411.67
631.91	44575.50
632.06	44659.76
632.21	44460.82
632.36	44479.54
632.51	43880.36
632.66	44549.76
632.81	44301.66
632.96	43945.90
633.10	43910.79
633.25	43962.28
633.40	44311.02
633.55	44414.01
633.70	44095.69
633.85	44002.07
634.00	43966.96
634.15	44322.72
634.30	43934.20
634.45	44009.09
634.60	43952.92
634.75	43653.33
634.90	44025.48
635.05	44240.81
635.19	43498.86
635.34	44278.25
635.49	43826.53
635.64	44065.27
635.79	43988.03
635.94	43999.73
636.09	43964.62
636.24	43777.38
636.39	44016.11
636.53	43704.82
636.68	43358.42
636.83	43086.92
636.98	43388.85
637.13	42616.47
637.28	43210.97
637.43	43012.02
637.57	43405.23
637.72	43140.75
637.87	43044.79
638.02	43629.93
638.17	43346.72
638.32	43012.02
638.46	43320.98
638.61	42995.64
638.76	42857.55
638.91	43459.07
639.06	43381.83
639.20	42909.04
639.35	43166.50
639.50	42745.20
639.65	43196.93
639.80	42827.12
639.94	42974.58
640.09	43423.96
640.24	43423.96
640.39	42824.78
640.54	42689.03
640.68	42876.27
640.83	43283.53
640.98	42323.91
641.13	42754.57
641.27	42986.28
641.42	42927.77
641.57	42726.48
641.72	42871.59
641.86	42581.37
642.01	42183.48
642.16	42405.83
642.31	41881.55
642.45	42916.06
642.60	42429.23
642.75	42567.32
642.90	42347.31
643.04	42684.35
643.19	42380.08
643.34	42239.65
643.48	42050.06
643.63	42078.15
643.78	42518.17
643.93	42623.50
644.07	42349.65
644.22	42384.76
644.37	42202.20
644.51	42557.96
644.66	42298.16
644.81	42120.28
644.95	42333.27
645.10	42021.98
645.25	41785.58
645.39	41734.09
645.54	42038.36
645.69	41605.36
645.83	42061.77
645.98	41738.77
646.13	41851.12
646.27	41596.00
646.42	41670.90
646.57	42029.00
646.71	41778.56
646.86	42263.05
647.00	41890.91
647.15	41759.84
647.30	41879.21
647.44	41977.51
647.59	41741.11
647.74	41621.75
647.88	42089.85
648.03	41813.67
648.17	42270.08
648.32	41528.13
648.47	42110.92
648.61	41495.36
648.76	41380.67
648.90	41727.07
649.05	41034.27
649.20	41745.80
649.34	41528.13
649.49	41240.24
649.63	41670.90
649.78	41518.76
649.92	42050.06
650.07	41645.15
650.21	42326.25
650.36	41738.77
650.51	41090.44
650.65	41420.46
650.80	41261.30
650.94	41495.36
651.09	41530.47
651.23	41081.08
651.38	41090.44
651.52	40215.08
651.67	40762.77
651.81	40917.25
651.96	41237.90
652.10	41338.54
652.25	40971.08
652.39	40692.55
652.54	41284.71
652.68	40858.73
652.83	40514.67
652.97	41170.02
653.12	40931.29
653.26	40484.25
653.41	40292.32
653.55	40692.55
653.70	40760.43
653.84	41493.02
653.99	40816.60
654.13	40561.48
654.27	40996.82
654.42	40849.37
654.56	40428.07
654.71	40320.41
654.85	40519.35
655.00	40809.58
655.14	40928.95
655.29	40825.96
655.43	40598.93
655.57	40149.55
655.72	39807.83
655.86	40484.25
656.01	40172.96
656.15	40147.21
656.30	40402.33
656.44	40409.35
656.58	40610.64
656.73	40524.04
656.87	39901.45
657.01	40301.68
657.16	40041.88
657.30	39988.05
657.45	40477.22
657.59	39824.22
657.73	40060.61
657.88	40362.54
658.02	40011.46
658.16	40210.40
658.31	39931.88
658.45	40126.14
658.60	39777.40
658.74	40027.84
658.88	39236.74
659.03	39889.75
659.17	39374.83
659.31	39454.41
659.46	39344.41
659.60	39632.29
659.74	39098.65
659.89	38946.51
660.03	38941.83
660.17	39236.74
660.32	39290.57
660.46	39243.76
660.60	39185.25
660.74	38712.46
660.89	39140.78
661.03	38909.07
661.17	38742.89
661.32	38789.70
661.46	39470.79
661.60	38815.44
661.74	38892.68
661.89	38682.03
662.03	39201.63
662.17	38831.83
662.31	38719.48
662.46	38569.69
662.60	38302.87
662.74	37860.51
662.88	37764.54
663.03	38377.76
663.17	38183.50
663.31	38279.46
663.45	38574.37
663.60	38450.32
663.74	38106.26
663.88	38396.49
664.02	38312.23
664.17	38155.41
664.31	37904.98
664.45	37881.57
664.59	37586.66
664.73	37560.92
664.88	37792.63
665.02	37420.48
665.16	37453.25
665.30	38003.28
665.44	37631.13
665.59	37291.76
665.73	37624.11
665.87	36804.92
666.01	37338.57
666.15	37106.85
666.29	37184.09
666.44	37598.37
666.58	37132.60
666.72	36797.90
666.86	36919.61
667.00	36847.05
667.14	37102.17
667.28	36804.92
667.43	36631.72
667.57	37090.47
667.71	36875.14
667.85	36807.26
667.99	36734.71
668.13	36371.92
668.27	35992.76
668.41	35777.43
668.56	35938.93
668.70	35608.91
668.84	35824.24
668.98	35660.40
669.12	36004.46
669.26	35887.43
669.40	36266.60
669.54	35924.88
669.68	35833.60
669.82	35838.28
669.96	35550.40
670.10	35501.25
670.25	35665.08
670.39	35103.35
670.53	35686.15
670.67	35566.78
670.81	35709.55
670.95	35276.55
671.09	35079.95
671.23	35145.48
671.37	35328.05
671.51	34719.51
671.65	35129.10
671.79	35037.82
671.93	35225.06
672.07	35236.77
672.21	34824.83
672.35	34204.59
672.49	34567.37
672.63	34499.50
672.77	34263.10
672.91	34309.91
673.05	34361.40
673.19	34216.29
673.33	34000.96
673.47	34087.56
673.61	33958.83
673.75	33727.12
673.89	33663.93
674.03	33682.65
674.17	33340.93
674.31	33294.12
674.45	32921.98
674.59	33549.24
674.73	33298.80
674.87	32999.21
675.01	32800.27
675.15	32353.23
675.29	32690.26
675.43	32617.71
675.56	33305.82
675.70	32793.25
675.84	32678.56
675.98	31700.22
676.12	32126.19
676.26	32685.58
676.40	32308.76
676.54	32196.41
676.68	32032.57
676.82	31651.06
676.96	31751.71
677.10	31906.18
677.23	32046.62
677.37	31847.67
677.51	31681.49
677.65	31571.49
677.79	31325.73
677.93	31316.37
678.07	31372.54
678.21	30712.51
678.34	30897.41
678.48	30789.75
678.62	30759.32
678.76	30621.23
678.90	30469.09
679.04	30759.32
679.18	30932.52
679.31	30398.88
679.45	30684.42
679.59	30293.55
679.73	29928.43
679.87	29928.43
680.00	29575.01
680.14	29757.57
680.28	29900.34
680.42	29687.36
680.56	29371.38
680.70	29509.47
680.83	29153.71
680.97	28971.15
681.11	29497.77
681.25	28950.09
681.39	28554.54
681.52	28868.17
681.66	28606.03
681.80	28393.04
681.94	28128.56
682.07	28034.94
682.21	28470.28
682.35	28240.90
682.49	28119.20
682.62	28191.75
682.76	27934.29
682.90	27927.27
683.04	27538.74
683.17	27615.98
683.31	27536.40
683.45	27414.69
683.59	27201.71
683.72	27634.71
683.86	27129.15
684.00	26958.29
684.13	26888.07
684.27	26607.21
684.41	26780.41
684.55	26794.45
684.68	26544.02
684.82	26574.44
684.96	26471.46
685.09	26471.46
685.23	26480.82
685.37	26923.18
685.50	26340.39
685.64	26408.26
685.78	26293.58
685.91	25668.66
686.05	25521.20
686.19	25216.93
686.32	25549.29
686.46	24842.45
686.60	25142.03
686.73	25055.43
686.87	24957.13
687.01	25249.70
687.14	25317.57
687.28	25125.65
687.42	24669.25
687.55	24753.51
687.69	24547.54
687.82	24278.38
687.96	24482.00
688.10	24009.22
688.23	24308.80
688.37	24545.20
688.50	24505.41
688.64	24116.88
688.78	23803.25
688.91	23948.36
689.05	23662.82
689.18	23470.89
689.32	23302.37
689.46	23187.69
689.59	23431.10
689.73	23377.27
689.86	23536.43
690.00	23278.97
690.13	23122.15
690.27	22885.76
690.41	22892.78
690.54	22389.56
690.68	22375.52
690.81	22581.49
690.95	22267.86
691.08	22434.03
691.22	21867.63
691.35	22139.13
691.49	22136.79
691.62	21713.15
691.76	21919.12
691.89	21539.95
692.03	21605.49
692.16	21476.76
692.30	21474.42
692.43	21418.24
692.57	21252.06
692.70	21289.51
692.84	21006.31
692.97	20531.18
693.11	21034.39
693.24	20503.09
693.38	20720.76
693.51	20362.66
693.65	20379.04
693.78	20250.32
693.92	20325.21
694.05	20119.24
694.19	19875.83
694.32	20257.34
694.45	20304.15
694.59	20313.51
694.72	20266.70
694.86	20023.28
694.99	19824.34
695.13	19770.51
695.26	19374.95
695.39	19229.84
695.53	19129.20
695.66	19311.76
695.80	19211.12
695.93	19260.27
696.07	18941.96
696.20	18792.16
696.33	18686.84
696.47	18530.02
696.60	18576.83
696.73	18504.28
696.87	18801.52
697.00	18553.43
697.14	18256.18
697.27	18183.62
697.40	17991.70
697.54	18146.17
697.67	18101.70
697.80	17972.97
697.94	17937.87
698.07	17624.23
698.21	17713.17
698.34	17701.47
698.47	17607.85
698.61	17146.76
698.74	17329.33
698.87	17088.25
699.01	16978.25
699.14	17172.51
699.27	16978.25
699.40	16971.22
699.54	16786.32
699.67	16823.77
699.80	16805.05
699.94	16666.95
700.07	16475.03
700.20	16603.76
700.34	16248.00
700.47	16379.07
700.60	16442.26
700.73	16329.92
700.87	16229.27
701.00	15941.39
701.13	15960.11
701.26	15810.32
701.40	15934.37
701.53	15583.29
701.66	15826.70
701.79	15625.42
701.93	15377.32
702.06	15342.21
702.19	15241.57
702.32	15283.70
702.46	15206.46
702.59	15293.06
702.72	15295.40
702.85	15037.94
702.99	14981.77
703.12	14499.62
703.25	14721.97
703.38	14590.90
703.51	14721.97
703.65	14424.72
703.78	14326.42
703.91	14101.73
704.04	14424.72
704.17	14480.89
704.31	14310.04
704.44	14120.45
704.57	14118.11
704.70	14146.20
704.83	13874.70
704.96	13572.77
705.10	13722.56
705.23	13626.60
>>>>>End Processed Spectral Data<<<<<
