SpectraSuite Data File
++++++++++++++++++++++++++++++++++++
Date: Fri Oct 25 10:44:04 EDT 2013
User: price-jones
Dark Spectrum Present: No
Reference Spectrum Present: No
Number of Sampled Component Spectra: 1
Spectrometers: USB2+H05261
Integration Time (usec): 100000 (USB2+H05261)
Spectra Averaged: 1 (USB2+H05261)
Boxcar Smoothing: 0 (USB2+H05261)
Correct for Electrical Dark: No (USB2+H05261)
Strobe/Lamp Enabled: No (USB2+H05261)
Correct for Detector Non-linearity: No (USB2+H05261)
Correct for Stray Light: No (USB2+H05261)
Number of Pixels in Processed Spectrum: 2048
>>>>>Begin Processed Spectral Data<<<<<
365.73	93.62
365.92	93.62
366.12	93.62
366.32	9.36
366.52	0.00
366.72	32.77
366.91	65.54
367.11	2.34
367.31	28.09
367.51	0.00
367.70	7.02
367.90	39.79
368.10	0.00
368.30	11.70
368.49	0.00
368.69	65.54
368.89	28.09
369.09	4.68
369.28	30.43
369.48	30.43
369.68	102.98
369.87	70.22
370.07	105.32
370.27	135.75
370.47	234.05
370.66	440.02
370.86	435.34
371.06	433.00
371.25	440.02
371.45	390.87
371.65	475.13
371.84	423.64
372.04	486.83
372.24	519.60
372.44	503.22
372.63	489.17
372.83	503.22
373.03	648.33
373.22	524.28
373.42	580.45
373.62	521.94
373.81	507.90
374.01	566.41
374.21	554.71
374.40	540.66
374.60	629.60
374.79	606.20
374.99	599.18
375.19	580.45
375.38	568.75
375.58	610.88
375.78	610.88
375.97	571.09
376.17	685.78
376.37	650.67
376.56	690.46
376.76	554.71
376.95	601.52
377.15	631.94
377.35	573.43
377.54	638.97
377.74	727.91
377.93	685.78
378.13	641.31
378.33	664.71
378.52	645.99
378.72	734.93
378.91	653.01
379.11	617.90
379.31	713.86
379.50	592.16
379.70	758.33
379.89	720.88
380.09	683.44
380.28	730.25
380.48	751.31
380.68	779.40
380.87	739.61
381.07	706.84
381.26	688.12
381.46	753.65
381.65	695.14
381.85	706.84
382.04	655.35
382.24	727.91
382.43	688.12
382.63	688.12
382.83	676.41
383.02	699.82
383.22	709.18
383.41	706.84
383.61	753.65
383.80	812.17
384.00	840.25
384.19	835.57
384.39	814.51
384.58	842.59
384.78	805.14
384.97	828.55
385.17	753.65
385.36	727.91
385.56	798.12
385.75	915.15
385.95	849.61
386.14	889.40
386.34	884.72
386.53	887.06
386.72	870.68
386.92	915.15
387.11	910.47
387.31	924.51
387.50	793.44
387.70	868.34
387.89	884.72
388.09	887.06
388.28	880.04
388.48	959.62
388.67	1006.43
388.86	961.96
389.06	987.71
389.25	1053.24
389.45	999.41
389.64	915.15
389.84	990.05
390.03	1104.73
390.22	1078.99
390.42	964.30
390.61	1036.86
390.81	1135.16
391.00	1064.94
391.19	1118.78
391.39	1006.43
391.58	1062.60
391.78	1132.82
391.97	1036.86
392.16	1086.01
392.36	1057.92
392.55	1104.73
392.75	1022.81
392.94	994.73
393.13	1128.14
393.33	999.41
393.52	1053.24
393.71	1041.54
393.91	1074.31
394.10	1167.93
394.29	1184.31
394.49	1263.89
394.68	1256.87
394.88	1181.97
395.07	1301.34
395.26	1327.08
395.46	1266.23
395.65	1425.39
395.84	1235.80
396.04	1277.93
396.23	1156.22
396.42	1149.20
396.62	1158.57
396.81	1336.45
397.00	1348.15
397.19	1352.83
397.39	1399.64
397.58	1490.92
397.77	1385.60
397.97	1472.20
398.16	1537.73
398.35	1455.81
398.55	1575.18
398.74	1579.86
398.93	1621.99
399.12	1575.18
399.32	1589.22
399.51	1619.65
399.70	1671.14
399.90	1558.80
400.09	1647.74
400.28	1680.50
400.47	1753.06
400.67	1748.38
400.86	1668.80
401.05	1741.36
401.24	1720.29
401.44	1706.25
401.63	1830.30
401.82	1790.51
402.01	1856.04
402.21	1816.26
402.40	1858.39
402.59	1844.34
402.78	1820.94
402.97	1823.28
403.17	1825.62
403.36	1891.15
403.55	1916.90
403.74	1994.14
403.93	1996.48
404.13	1942.64
404.32	1961.37
404.51	2022.22
404.70	2015.20
404.89	2090.10
405.09	2040.95
405.28	2038.61
405.47	1989.46
405.66	2047.97
405.85	2073.71
406.05	2033.93
406.24	2155.63
406.43	2108.82
406.62	2279.68
406.81	2256.28
407.00	2176.70
407.20	2092.44
407.39	2120.53
407.58	2319.47
407.77	2181.38
407.96	2305.43
408.15	2394.37
408.34	2338.20
408.54	2459.90
408.73	2485.65
408.92	2471.61
409.11	2504.37
409.30	2485.65
409.49	2410.75
409.68	2389.69
409.87	2448.20
410.07	2483.31
410.26	2476.29
410.45	2480.97
410.64	2469.27
410.83	2593.31
411.02	2661.19
411.21	2724.38
411.40	2689.28
411.59	2668.21
411.78	2654.17
411.98	2672.89
412.17	2951.42
412.36	2771.19
412.55	2785.24
412.74	2808.64
412.93	2977.16
413.12	2834.39
413.31	3094.19
413.50	3012.27
413.69	2913.97
413.88	3068.44
414.07	2963.12
414.26	3007.59
414.45	3115.25
414.64	3143.34
414.83	3204.19
415.02	3136.32
415.22	3124.62
415.41	3265.05
415.60	3318.88
415.79	3211.22
415.98	3475.70
416.17	3403.14
416.36	3475.70
416.55	3281.43
416.74	3300.16
416.93	3466.33
417.12	3499.10
417.31	3431.23
417.50	3468.67
417.69	3693.37
417.88	3623.15
418.07	3522.51
418.26	3693.37
418.45	3562.30
418.64	3700.39
418.83	3791.67
419.02	3691.02
419.21	3719.11
419.39	3737.84
419.58	3719.11
419.77	3630.17
419.96	3929.76
420.15	3843.16
420.34	3822.09
420.53	3983.59
420.72	4095.94
420.91	3857.20
421.10	3932.10
421.29	4058.49
421.48	4112.32
421.67	4035.08
421.86	3981.25
422.05	3927.42
422.24	4081.89
422.43	3971.89
422.61	4007.00
422.80	4072.53
422.99	4140.41
423.18	4072.53
423.37	4121.68
423.56	4191.90
423.75	3960.19
423.94	4032.74
424.13	3964.87
424.32	3995.29
424.50	4112.32
424.69	4121.68
424.88	4154.45
425.07	4140.41
425.26	4091.26
425.45	4086.58
425.64	4194.24
425.83	4114.66
426.01	4224.67
426.20	4252.75
426.39	4208.28
426.58	4081.89
426.77	4173.18
426.96	4084.23
427.15	4212.96
427.33	4266.80
427.52	4114.66
427.71	4250.41
427.90	4372.12
428.09	4351.06
428.28	4379.14
428.46	4351.06
428.65	4400.21
428.84	4435.32
429.03	4456.38
429.22	4280.84
429.40	4301.90
429.59	4374.46
429.78	4058.49
429.97	4084.23
430.16	4112.32
430.34	4276.16
430.53	4262.12
430.72	4365.10
430.91	4353.40
431.10	4374.46
431.28	4781.71
431.47	4826.18
431.66	4980.66
431.85	4662.35
432.03	4889.38
432.22	4873.00
432.41	4788.74
432.60	4809.80
432.79	4905.76
432.97	4954.91
433.16	4905.76
433.35	4863.63
433.54	4903.42
433.72	4828.53
433.91	4954.91
434.10	5027.47
434.28	4990.02
434.47	5018.11
434.66	5043.85
434.85	5149.18
435.03	5235.78
435.22	5210.03
435.41	5313.02
435.59	5317.70
435.78	5210.03
435.97	5451.11
436.16	5411.32
436.34	5394.93
436.53	5427.70
436.72	5350.46
436.90	5259.18
437.09	5357.49
437.28	5341.10
437.46	5411.32
437.65	5397.28
437.84	5383.23
438.02	5341.10
438.21	5593.88
438.40	5434.72
438.58	5474.51
438.77	5844.32
438.96	5734.31
439.14	5727.29
439.33	5856.02
439.52	5877.09
439.70	5926.24
439.89	5884.11
440.08	5802.19
440.26	5921.56
440.45	5930.92
440.63	6083.05
440.82	6104.12
441.01	6221.14
441.19	6293.70
441.38	6427.11
441.57	6382.64
441.75	6497.33
441.94	6656.48
442.12	6640.10
442.31	6630.74
442.50	6677.55
442.68	6715.00
442.87	6616.69
443.05	6628.40
443.24	6682.23
443.43	6626.06
443.61	6537.12
443.80	6719.68
443.98	6656.48
444.17	6525.41
444.35	6939.69
444.54	6853.09
444.73	6909.26
444.91	6792.23
445.10	6724.36
445.28	6654.14
445.47	6583.93
445.65	6750.10
445.84	6878.83
446.02	6892.88
446.21	6839.05
446.39	6897.56
446.58	6988.84
446.77	6853.09
446.95	6822.66
447.14	7009.90
447.32	7042.67
447.51	7096.50
447.69	6920.96
447.88	7030.97
448.06	6832.02
448.25	6958.41
448.43	7063.74
448.62	6972.46
448.80	6993.52
448.99	7169.06
449.17	7229.91
449.36	6984.16
449.54	7215.87
449.73	7419.50
449.91	7246.30
450.10	7571.63
450.28	7529.50
450.46	7541.21
450.65	7520.14
450.83	7538.87
451.02	7328.22
451.20	7822.07
451.39	7604.40
451.57	7541.21
451.76	7513.12
451.94	7534.18
452.13	7627.81
452.31	7337.58
452.49	7328.22
452.68	7658.23
452.86	7517.80
453.05	7592.70
453.23	7712.07
453.42	7499.08
453.60	7459.29
453.78	7772.92
453.97	7719.09
454.15	7606.74
454.34	7667.60
454.52	7985.91
454.70	7978.89
454.89	8006.97
455.07	7726.11
455.26	8081.87
455.44	8018.68
455.62	8189.53
455.81	8070.17
455.99	8304.22
456.17	8329.97
456.36	8077.19
456.54	8264.43
456.73	8322.94
456.91	8390.82
457.09	8512.53
457.28	8706.79
457.46	8355.71
457.64	8571.04
457.83	8292.52
458.01	8414.23
458.19	8493.80
458.38	8592.11
458.56	8659.98
458.74	8631.90
458.93	8603.81
459.11	8734.88
459.29	8751.26
459.48	8730.20
459.66	8648.28
459.84	8830.84
460.03	8901.06
460.21	8875.31
460.39	8922.12
460.57	8828.50
460.76	9034.47
460.94	9142.13
461.12	9060.21
461.31	9067.24
461.49	9046.17
461.67	9055.53
461.85	9432.36
462.04	9219.37
462.22	9708.54
462.40	9284.91
462.59	9472.15
462.77	9322.35
462.95	9423.00
463.13	9200.65
463.32	9273.20
463.50	9315.33
463.68	9626.62
463.86	9411.29
464.05	9263.84
464.23	9336.40
464.41	9355.12
464.59	9373.85
464.78	9617.26
464.96	9415.98
465.14	9537.68
465.32	9589.17
465.50	9624.28
465.69	9685.14
465.87	9799.82
466.05	9654.71
466.23	9717.90
466.41	9469.81
466.60	9696.84
466.78	9535.34
466.96	9584.49
467.14	9621.94
467.32	9741.31
467.51	9856.00
467.69	9626.62
467.87	9937.91
468.05	9895.78
468.23	9942.60
468.41	9989.41
468.60	10026.86
468.78	10167.29
468.96	9914.51
469.14	9851.31
469.32	10162.61
469.50	9872.38
469.69	10242.18
469.87	10078.35
470.05	10097.07
470.23	10155.58
470.41	9966.00
470.59	10443.47
470.77	10305.38
470.95	10506.66
471.14	10530.07
471.32	10647.10
471.50	10661.14
471.68	10778.17
471.86	10888.17
472.04	10995.84
472.22	10986.47
472.40	10815.62
472.58	10813.28
472.77	10824.98
472.95	10974.77
473.13	11400.75
473.31	10974.77
473.49	10871.79
473.67	11328.19
473.85	11112.86
474.03	11391.39
474.21	11655.87
474.39	11590.33
474.57	11562.25
474.75	11658.21
474.93	11719.06
475.12	11971.84
475.30	11730.76
475.48	11798.64
475.66	11880.56
475.84	11880.56
476.02	11721.40
476.20	11758.85
476.38	12049.08
476.56	12287.81
476.74	12365.05
476.92	12257.39
477.10	12318.24
477.28	12631.87
477.46	12594.42
477.64	12830.82
477.82	12992.31
478.00	13013.38
478.18	13128.06
478.36	13027.42
478.54	13153.81
478.72	13198.28
478.90	13598.51
479.08	13661.71
479.26	13919.17
479.44	13689.79
479.62	13874.70
479.80	13968.32
479.98	13998.74
480.16	14171.94
480.34	14061.94
480.52	14448.13
480.70	14391.95
480.88	14019.81
481.06	14686.86
481.24	14747.72
481.41	14850.70
481.59	15124.54
481.77	15391.36
481.95	15225.18
482.13	15126.88
482.31	15126.88
482.49	15587.97
482.67	15632.44
482.85	15609.03
483.03	15602.01
483.21	15782.23
483.39	16109.91
483.57	15946.07
483.74	15997.56
483.92	16257.36
484.10	16196.51
484.28	16627.17
484.46	16875.26
484.64	16992.29
484.82	16849.52
485.00	16854.20
485.18	17186.55
485.35	17128.04
485.53	16521.84
485.71	16538.23
485.89	16915.05
486.07	17137.40
486.25	17273.15
486.43	17441.67
486.61	17755.30
486.78	17738.92
486.96	18036.17
487.14	18452.78
487.32	18501.93
487.50	18618.96
487.68	18981.74
487.85	18927.91
488.03	19012.17
488.21	19403.04
488.39	19271.97
488.57	19363.25
488.75	19302.40
488.92	19690.93
489.10	19882.85
489.28	20325.21
489.46	20538.20
489.64	20404.79
489.81	21113.97
489.99	20959.50
490.17	20877.58
490.35	21120.99
490.53	21120.99
490.70	20999.29
490.88	21254.40
491.06	21406.54
491.24	21439.31
491.41	21886.35
491.59	21355.05
491.77	21366.75
491.95	21991.67
492.13	22251.47
492.30	22417.65
492.48	22408.29
492.66	22927.89
492.84	22618.94
493.01	23241.52
493.19	22721.92
493.37	23250.88
493.54	23206.41
493.72	23297.69
493.90	23599.62
494.08	23754.10
494.25	24044.32
494.43	23971.77
494.61	24360.30
494.79	24254.97
494.96	24261.99
495.14	24339.23
495.32	24994.58
495.49	24772.23
495.67	24491.37
495.85	25216.93
496.02	25184.16
496.20	25207.57
496.38	25413.54
496.55	25481.41
496.73	26111.02
496.91	26099.31
497.09	26001.01
497.26	26298.26
497.44	26169.53
497.62	25876.96
497.79	26408.26
497.97	25930.80
498.14	26190.59
498.32	26607.21
498.50	26597.85
498.67	26850.63
498.85	26869.35
499.03	27061.27
499.20	27058.93
499.38	27271.92
499.56	26937.23
499.73	27723.65
499.91	27484.91
500.08	27541.08
500.26	27386.61
500.44	27651.09
500.61	27924.93
500.79	27491.93
500.97	27946.00
501.14	28095.79
501.32	27796.20
501.49	28154.30
501.67	28009.19
501.84	28287.71
502.02	28568.58
502.20	28704.33
502.37	29041.37
502.55	28929.02
502.72	28950.09
502.90	29202.86
503.07	29032.00
503.25	29350.32
503.43	29017.96
503.60	29280.10
503.78	29240.31
503.95	29326.91
504.13	29230.95
504.30	29567.99
504.48	29523.52
504.65	30103.97
504.83	29848.85
505.01	30139.08
505.18	30288.87
505.36	30663.36
505.53	30436.33
505.71	30466.75
505.88	30398.88
506.06	30529.95
506.23	30979.33
506.41	30518.25
506.58	30857.62
506.76	30803.79
506.93	31138.49
507.11	31314.03
507.28	31124.44
507.46	31414.67
507.63	31030.82
507.81	31316.37
507.98	31241.47
508.16	31402.97
508.33	31524.68
508.50	31751.71
508.68	31920.23
508.85	32357.91
509.03	32048.96
509.20	32423.44
509.38	32503.02
509.55	32266.63
509.73	32128.53
509.90	32151.94
510.08	32451.53
510.25	32521.74
510.42	32334.50
510.60	32687.92
510.77	32797.93
510.95	33090.49
511.12	32751.12
511.30	32882.19
511.47	33481.36
511.64	33319.87
511.82	33837.12
511.99	33242.63
512.17	33291.78
512.34	33427.53
512.51	33656.90
512.69	33816.06
512.86	33649.88
513.04	33905.00
513.21	33495.41
513.38	34052.45
513.56	34286.51
513.73	34043.09
513.90	34061.82
514.08	34185.86
514.25	34293.53
514.43	34401.19
514.60	34251.40
514.77	34455.03
514.95	34646.95
515.12	34939.52
515.29	35028.46
515.47	35452.09
515.64	35744.66
515.81	34625.89
515.99	35063.57
516.16	34660.99
516.33	34693.76
516.51	34518.22
516.68	33879.25
516.85	34529.92
517.03	34497.16
517.20	34714.83
517.37	35316.34
517.54	35201.66
517.72	35777.43
517.89	35379.54
518.06	35171.23
518.24	35332.73
518.41	35344.43
518.58	36018.50
518.75	35571.46
518.93	35920.20
519.10	35927.22
519.27	36116.81
519.45	35859.35
519.62	36357.88
519.79	36470.23
519.96	36896.20
520.14	36542.78
520.31	36247.88
520.48	36849.39
520.65	37062.38
520.83	36648.11
521.00	37029.62
521.17	37071.75
521.34	37294.10
521.52	37301.12
521.69	37198.13
521.86	37577.30
522.03	37642.84
522.20	36985.15
522.38	37343.25
522.55	37621.77
522.72	37684.97
522.89	37865.19
523.07	38249.03
523.24	37633.47
523.41	38515.86
523.58	37837.10
523.75	38649.27
523.92	38272.44
524.10	38436.28
524.27	38347.34
524.44	38408.19
524.61	38888.00
524.78	38719.48
524.96	38843.53
525.13	38611.82
525.30	39037.80
525.47	39407.60
525.64	39058.86
525.81	38920.77
525.98	38476.07
526.16	38401.17
526.33	38387.13
526.50	38431.60
526.67	38412.87
526.84	38302.87
527.01	38377.76
527.18	39255.46
527.36	38946.51
527.53	39751.66
527.70	39686.12
527.87	39388.88
528.04	39552.71
528.21	39608.89
528.38	40081.67
528.55	40128.48
528.72	39880.39
528.89	40198.70
529.07	39707.19
529.24	39765.70
529.41	39962.31
529.58	40088.70
529.75	39791.45
529.92	40299.34
530.09	40442.12
530.26	40620.00
530.43	40325.09
530.60	40011.46
530.77	40474.88
530.94	40708.94
531.11	40542.76
531.28	40711.28
531.46	40942.99
531.63	40886.82
531.80	40102.74
531.97	40306.37
532.14	40451.48
532.31	40280.62
532.48	40374.24
532.65	41041.29
532.82	40708.94
532.99	41048.32
533.16	40994.48
533.33	41401.74
533.50	41017.89
533.67	40996.82
533.84	41322.16
534.01	41584.30
534.18	41099.81
534.35	41663.88
534.52	41715.37
534.69	41507.06
534.86	41640.47
535.03	41315.14
535.20	42026.66
535.37	42073.47
535.54	42429.23
535.71	41862.82
535.88	41708.35
536.05	41820.69
536.22	42033.68
536.38	42124.96
536.55	42150.71
536.72	41413.44
536.89	42141.35
537.06	41818.35
537.23	42204.54
537.40	41996.23
537.57	42249.01
537.74	42314.55
537.91	43030.75
538.08	42312.20
538.25	42227.95
538.42	42513.49
538.59	42164.75
538.75	42080.49
538.92	42740.52
539.09	42382.42
539.26	42511.15
539.43	42529.87
539.60	42241.99
539.77	42288.80
539.94	42375.40
540.11	42635.20
540.28	42447.96
540.44	42452.64
540.61	42272.42
540.78	42321.57
540.95	42588.39
541.12	42913.72
541.29	42649.24
541.46	42777.97
541.62	43622.90
541.79	43515.24
541.96	42445.62
542.13	42962.87
542.30	43234.38
542.47	43536.30
542.63	43442.68
542.80	43702.48
542.97	43756.32
543.14	43938.88
543.31	43761.00
543.48	43971.64
543.64	44545.08
543.81	44095.69
543.98	44114.42
544.15	43931.86
544.32	44334.43
544.48	44708.91
544.65	44254.85
544.82	44074.63
544.99	44004.41
545.16	43943.56
545.32	44271.23
545.49	44385.92
545.66	44285.28
545.83	44219.74
546.00	44809.56
546.16	44140.16
546.33	44271.23
546.50	44023.14
546.67	44126.12
546.83	43969.30
547.00	44348.47
547.17	44051.22
547.34	44385.92
547.50	44374.22
547.67	44430.39
547.84	44507.63
548.00	44704.23
548.17	45078.72
548.34	44746.36
548.51	45359.58
548.67	45170.00
548.84	44968.71
549.01	45144.25
549.18	45095.10
549.34	44800.19
549.51	45195.74
549.68	45024.89
549.84	44893.82
550.01	45172.34
550.18	45207.45
550.34	45336.18
550.51	45202.77
550.68	44765.09
550.84	44648.06
551.01	45366.60
551.18	45006.16
551.34	45310.43
551.51	45385.33
551.68	45315.11
551.84	45776.20
552.01	45343.20
552.18	45684.92
552.34	45050.63
552.51	45504.70
552.68	45581.93
552.84	45771.52
553.01	45378.31
553.18	45071.70
553.34	45720.02
553.51	45525.76
553.67	45619.38
553.84	46047.70
554.01	45818.33
554.17	45673.21
554.34	45961.10
554.51	45717.68
554.67	45841.73
554.84	46099.19
555.00	45914.29
555.17	45500.01
555.33	45876.84
555.50	45867.48
555.67	45614.70
555.83	45797.26
556.00	45727.05
556.16	46092.17
556.33	45888.54
556.50	45663.85
556.66	45921.31
556.83	45350.22
556.99	45993.87
557.16	46087.49
557.32	45827.69
557.49	46103.87
557.65	45914.29
557.82	46036.00
557.98	46326.22
558.15	46038.34
558.32	46363.67
558.48	46108.55
558.65	45846.41
558.81	46050.04
558.98	45827.69
559.14	46579.00
559.31	46197.49
559.47	46019.61
559.64	46962.85
559.80	46445.59
559.97	46377.72
560.13	46422.19
560.30	45663.85
560.46	46258.35
560.63	46354.31
560.79	46653.90
560.96	46944.12
561.12	46766.24
561.29	46347.29
561.45	46426.87
561.61	46452.61
561.78	46663.26
561.94	46178.77
562.11	46258.35
562.27	46492.40
562.44	46637.51
562.60	46775.61
562.77	46712.41
562.93	46375.37
563.10	46871.57
563.26	46373.03
563.42	46700.71
563.59	46595.38
563.75	46096.85
563.92	46316.86
564.08	46951.15
564.24	46637.51
564.41	46983.91
564.57	46740.50
564.74	46656.24
564.90	46429.21
565.07	46433.89
565.23	46679.64
565.39	46707.73
565.56	46948.81
565.72	46705.39
565.88	46576.66
566.05	46103.87
566.21	46529.85
566.38	46415.16
566.54	46574.32
566.70	46920.72
566.87	46953.49
567.03	46686.67
567.19	47501.17
567.36	46960.51
567.52	46384.74
567.68	47215.63
567.85	46890.29
568.01	46733.48
568.17	46693.69
568.34	46686.67
568.50	46822.42
568.66	46363.67
568.83	46672.62
568.99	46787.31
569.15	46827.10
569.32	46719.43
569.48	46642.20
569.64	46981.57
569.81	46747.52
569.97	47016.68
570.13	46841.14
570.30	46541.55
570.46	46698.37
570.62	46747.52
570.78	46344.95
570.95	46810.71
571.11	47194.56
571.27	46532.19
571.43	46831.78
571.60	47292.86
571.76	46913.70
571.92	47007.32
572.09	47318.61
572.25	46923.06
572.41	47302.23
572.57	47187.54
572.74	47264.78
572.90	47000.30
573.06	47056.47
573.22	46930.08
573.38	46679.64
573.55	46871.57
573.71	47447.34
573.87	46969.87
574.03	46873.91
574.20	46934.76
574.36	47110.30
574.52	46916.04
574.68	46972.21
574.84	47133.71
575.01	47182.86
575.17	46511.13
575.33	46646.88
575.49	46712.41
575.65	47271.80
575.82	47255.42
575.98	47082.22
576.14	46829.44
576.30	46969.87
576.46	46693.69
576.62	47049.45
576.79	46897.31
576.95	46693.69
577.11	47159.45
577.27	47295.21
577.43	47075.19
577.59	46951.15
577.75	46909.02
577.92	46176.43
578.08	47122.01
578.24	46749.86
578.40	46408.14
578.56	46822.42
578.72	47124.35
578.88	47386.49
579.04	46784.97
579.21	47100.94
579.37	46967.53
579.53	47065.83
579.69	46698.37
579.85	47222.65
580.01	47407.55
580.17	46997.96
580.33	47012.00
580.49	47386.49
580.65	47086.90
580.82	47079.88
580.98	46761.56
581.14	47098.60
581.30	47400.53
581.46	46951.15
581.62	47093.92
581.78	46801.35
581.94	47503.51
582.10	47063.49
582.26	47075.19
582.42	47105.62
582.58	47466.06
582.74	47002.64
582.90	47051.79
583.06	47220.31
583.22	46801.35
583.38	47632.24
583.54	47353.72
583.70	47234.35
583.86	47327.97
584.02	47290.52
584.18	47423.93
584.34	46894.97
584.50	46932.42
584.66	47065.83
584.82	46742.84
584.98	47379.46
585.14	47473.09
585.30	47103.28
585.46	46724.11
585.62	47037.75
585.78	46799.01
585.94	47215.63
586.10	47100.94
586.26	46887.95
586.42	47000.30
586.58	47742.25
586.74	47360.74
586.90	47054.13
587.06	47306.91
587.22	47646.29
587.38	47257.76
587.54	47421.59
587.70	47150.09
587.86	47164.14
588.02	46773.27
588.18	47105.62
588.34	47164.14
588.49	46050.04
588.65	46333.24
588.81	46096.85
588.97	46672.62
589.13	46955.83
589.29	46693.69
589.45	47224.99
589.61	47201.58
589.77	47332.65
589.93	47208.61
590.08	47377.12
590.24	47159.45
590.40	47459.04
590.56	47227.33
590.72	47601.82
590.88	47203.92
591.04	47122.01
591.20	47683.73
591.35	47311.59
591.51	47721.18
591.67	47159.45
591.83	47508.19
591.99	47131.37
592.15	47353.72
592.31	47459.04
592.46	46988.60
592.62	46836.46
592.78	47323.29
592.94	47229.67
593.10	47208.61
593.26	47061.15
593.41	47267.12
593.57	46735.82
593.73	47185.20
593.89	46948.81
594.05	47325.63
594.20	47026.04
594.36	47028.38
594.52	47313.93
594.68	47164.14
594.84	46990.94
594.99	47456.70
595.15	47061.15
595.31	47309.25
595.47	47124.35
595.62	47552.66
595.78	47330.31
595.94	47870.98
596.10	47730.54
596.25	47540.96
596.41	47320.95
596.57	47267.12
596.73	47224.99
596.88	46871.57
597.04	47224.99
597.20	47056.47
597.36	47285.84
597.51	47384.15
597.67	47686.07
597.83	47512.88
597.99	47742.25
598.14	47309.25
598.30	47012.00
598.46	47402.87
598.61	47154.77
598.77	47182.86
598.93	47192.22
599.09	47194.56
599.24	47416.91
599.40	47414.57
599.56	47290.52
599.71	47377.12
599.87	47798.42
600.03	47325.63
600.18	47089.24
600.34	47239.03
600.50	47253.08
600.65	46829.44
600.81	47566.71
600.97	47704.80
601.12	47711.82
601.28	47171.16
601.44	46981.57
601.59	47007.32
601.75	46876.25
601.91	47232.01
602.06	47044.77
602.22	47019.02
602.37	46831.78
602.53	46993.28
602.69	47482.45
602.84	47194.56
603.00	47180.52
603.16	47377.12
603.31	47222.65
603.47	46990.94
603.62	47105.62
603.78	47189.88
603.94	47016.68
604.09	47533.94
604.25	47416.91
604.40	47309.25
604.56	46836.46
604.71	47316.27
604.87	47222.65
605.03	46887.95
605.18	46827.10
605.34	47232.01
605.49	46934.76
605.65	47110.30
605.80	47147.75
605.96	47166.48
606.12	47246.05
606.27	47257.76
606.43	46838.80
606.58	46810.71
606.74	46920.72
606.89	47136.05
607.05	46646.88
607.20	46791.99
607.36	46817.74
607.51	46932.42
607.67	46848.16
607.82	47004.98
607.98	46630.49
608.13	46759.22
608.29	46885.61
608.44	46225.58
608.60	46459.63
608.75	46651.56
608.91	46784.97
609.06	47091.58
609.22	47026.04
609.37	46403.46
609.53	46789.65
609.68	46848.16
609.84	46366.01
609.99	46490.06
610.15	46373.03
610.30	46108.55
610.46	46651.56
610.61	46251.33
610.76	46227.92
610.92	46429.21
611.07	46689.01
611.23	46485.38
611.38	46223.24
611.54	46131.96
611.69	46490.06
611.84	45933.01
612.00	46131.96
612.15	46288.77
612.31	46494.74
612.46	46426.87
612.62	46412.82
612.77	46335.59
612.92	46480.70
613.08	46146.00
613.23	46220.90
613.39	46071.10
613.54	45645.13
613.69	45991.53
613.85	45808.96
614.00	45998.55
614.15	46499.42
614.31	46150.68
614.46	46436.23
614.62	45766.84
614.77	46085.15
614.92	46349.63
615.08	46164.73
615.23	45591.30
615.38	46101.53
615.54	45904.93
615.69	45935.35
615.84	45647.47
616.00	45818.33
616.15	45617.04
616.30	45586.61
616.46	45497.67
616.61	45837.05
616.76	45785.56
616.92	45371.28
617.07	45151.27
617.22	45193.40
617.37	45722.37
617.53	45549.17
617.68	45853.44
617.83	45783.22
617.99	45574.91
618.14	45270.64
618.29	45598.32
618.45	45202.77
618.60	45041.27
618.75	45160.64
618.90	45022.54
619.06	45408.73
619.21	45177.02
619.36	45603.00
619.51	45361.92
619.67	45382.99
619.82	45130.21
619.97	45610.02
620.12	45022.54
620.28	44409.32
620.43	45485.97
620.58	45034.25
620.73	45411.07
620.89	44982.76
621.04	44739.34
621.19	45228.51
621.34	45542.14
621.49	44985.10
621.65	44893.82
621.80	44851.69
621.95	44870.41
622.10	44935.95
622.25	44477.20
622.41	44566.14
622.56	44554.44
622.71	44858.71
622.86	44849.35
623.01	44947.65
623.16	45045.95
623.32	44243.15
623.47	44865.73
623.62	44201.02
623.77	44467.84
623.92	44495.92
624.07	44240.81
624.23	44259.53
624.38	44130.80
624.53	44062.93
624.68	44315.70
624.83	44341.45
624.98	44390.60
625.13	43863.98
625.29	44367.20
625.44	44217.40
625.59	43966.96
625.74	43571.41
625.89	43695.46
626.04	43763.34
626.19	43885.04
626.34	44072.29
626.49	44142.50
626.65	43929.51
626.80	44329.75
626.95	43892.07
627.10	43634.61
627.25	43704.82
627.40	43604.18
627.55	43126.71
627.70	42988.62
627.85	43168.84
628.00	43459.07
628.15	43650.99
628.30	43374.81
628.45	43512.90
628.60	43531.62
628.76	43243.74
628.91	43910.79
629.06	43225.01
629.21	43559.71
629.36	43009.68
629.51	43346.72
629.66	43241.40
629.81	43047.13
629.96	43117.35
630.11	42948.83
630.26	43185.22
630.41	43653.33
630.56	42988.62
630.71	42960.53
630.86	42876.27
631.01	43037.77
631.16	43014.37
631.31	42852.87
631.46	42480.72
631.61	42897.34
631.76	42576.69
631.91	43056.50
632.06	43152.46
632.21	42857.55
632.36	43051.81
632.51	42398.80
632.66	42754.57
632.81	42604.77
632.96	42464.34
633.10	42703.07
633.25	42761.59
633.40	42745.20
633.55	42962.87
633.70	42553.28
633.85	42412.85
634.00	42410.51
634.15	42775.63
634.30	42541.58
634.45	42272.42
634.60	42593.07
634.75	42616.47
634.90	42443.27
635.05	42401.14
635.19	42499.45
635.34	42508.81
635.49	42412.85
635.64	42136.66
635.79	41572.60
635.94	41937.72
636.09	42756.91
636.24	42286.46
636.39	41642.81
636.53	41989.21
636.68	42218.58
636.83	42260.71
636.98	41801.97
637.13	41605.36
637.28	42330.93
637.43	42064.11
637.57	42171.77
637.72	42195.18
637.87	42043.04
638.02	41827.71
638.17	41907.29
638.32	41771.54
638.46	41624.09
638.61	41741.11
638.76	41883.89
638.91	41661.54
639.06	41460.25
639.20	41794.95
639.35	41743.45
639.50	41532.81
639.65	41895.59
639.80	41645.15
639.94	41263.64
640.09	41378.33
640.24	41076.40
640.39	41088.10
640.54	41144.28
640.68	41305.77
640.83	41394.71
640.98	41069.38
641.13	41055.34
641.27	41455.57
641.42	41083.42
641.57	40615.32
641.72	40809.58
641.86	40629.36
642.01	40397.65
642.16	40327.43
642.31	40673.83
642.45	40870.43
642.60	40538.08
642.75	40659.79
642.90	40935.97
643.04	41055.34
643.19	40957.03
643.34	41134.92
643.48	40297.00
643.63	40627.02
643.78	40535.74
643.93	40996.82
644.07	40692.55
644.22	40240.83
644.37	40397.65
644.51	40877.46
644.66	40470.20
644.81	40886.82
644.95	40641.06
645.10	40556.80
645.25	40411.69
645.39	40524.04
645.54	40896.18
645.69	40842.35
645.83	40594.25
645.98	40776.81
646.13	40442.12
646.27	40055.93
646.42	40023.16
646.57	40224.45
646.71	40018.48
646.86	39964.65
647.00	40184.66
647.15	40493.61
647.30	40109.76
647.44	40034.86
647.59	40116.78
647.74	39885.07
647.88	39892.09
648.03	40060.61
648.17	40058.27
648.32	39992.73
648.47	39817.19
648.61	39604.20
648.76	40051.25
648.90	39800.81
649.05	39470.79
649.20	40095.72
649.34	40039.54
649.49	39367.81
649.63	39199.29
649.78	39683.78
649.92	39409.94
650.07	39931.88
650.21	39435.69
650.36	39606.55
650.51	39379.51
650.65	39840.60
650.80	39931.88
650.94	39728.25
651.09	39739.96
651.23	39393.56
651.38	39168.87
651.52	38843.53
651.67	39505.90
651.81	38726.50
651.96	39110.35
652.10	39356.11
652.25	39440.37
652.39	39044.82
652.54	39423.98
652.68	39206.31
652.83	39260.15
652.97	39608.89
653.12	39255.46
653.26	39007.37
653.41	38782.68
653.55	39138.44
653.70	38927.79
653.84	38609.48
653.99	38511.17
654.13	38658.63
654.27	38829.49
654.42	38333.29
654.56	38574.37
654.71	38810.76
654.85	38698.42
655.00	38916.09
655.14	38288.82
655.29	38040.73
655.43	38195.20
655.57	37806.67
655.72	37858.17
655.86	37699.01
656.01	37406.44
656.15	37890.93
656.30	38345.00
656.44	37865.19
656.58	37902.64
656.73	38017.32
656.87	38185.84
657.01	37879.23
657.16	37935.40
657.30	37551.56
657.45	37617.09
657.59	37907.32
657.73	37991.58
657.88	37902.64
658.02	38581.39
658.16	38349.68
658.31	38036.05
658.45	37956.47
658.60	37853.48
658.74	37668.58
658.88	37612.41
659.03	37633.47
659.17	37731.78
659.31	37221.54
659.46	37221.54
659.60	37675.60
659.74	37467.30
659.89	37455.59
660.03	37275.37
660.17	37457.93
660.32	37507.08
660.46	37631.13
660.60	37017.91
660.74	37139.62
660.89	37006.21
661.03	36985.15
661.17	36825.99
661.32	36627.04
661.46	36938.33
661.60	36933.65
661.74	37010.89
661.89	37174.73
662.03	36641.09
662.17	36790.88
662.31	36547.47
662.46	37284.73
662.60	36800.24
662.74	36926.63
662.88	36816.63
663.03	36397.67
663.17	36620.02
663.31	36123.83
663.45	36304.05
663.60	36376.61
663.74	36378.95
663.88	36208.09
664.02	36067.66
664.17	35941.27
664.31	35847.64
664.45	35983.40
664.59	35550.40
664.73	36060.63
664.88	35950.63
665.02	35452.09
665.16	35562.10
665.30	35660.40
665.44	35278.89
665.59	35154.85
665.73	35098.67
665.87	35147.82
666.01	35393.58
666.15	35608.91
666.29	35714.23
666.44	35669.76
666.58	34838.87
666.72	35117.40
666.86	34710.14
667.00	34902.07
667.14	34703.12
667.28	34630.57
667.43	34597.80
667.57	34848.24
667.71	34660.99
667.85	35232.08
667.99	34803.77
668.13	34801.43
668.27	34693.76
668.41	34345.02
668.56	34525.24
668.70	34433.96
668.84	34356.72
668.98	33902.66
669.12	33907.34
669.26	34305.23
669.40	34305.23
669.54	34167.14
669.68	33785.63
669.82	33759.89
669.96	33926.07
670.10	33694.35
670.25	33935.43
670.39	33453.28
670.53	33425.19
670.67	33273.06
670.81	33907.34
670.95	33502.43
671.09	33708.40
671.23	33149.01
671.37	33125.60
671.51	32828.35
671.65	33130.28
671.79	32718.35
671.93	33186.46
672.07	32975.81
672.21	32900.91
672.35	32779.20
672.49	32975.81
672.63	33003.89
672.77	32645.79
672.91	32767.50
673.05	32685.58
673.19	32322.80
673.33	32175.34
673.47	32264.28
673.61	31842.99
673.75	31915.54
673.89	31779.79
674.03	31765.75
674.17	31995.12
674.31	31969.38
674.45	32002.14
674.59	31880.44
674.73	32126.19
674.87	31695.53
675.01	31847.67
675.15	31632.34
675.29	31358.50
675.43	31124.44
675.56	31527.02
675.70	31208.70
675.84	31264.88
675.98	30429.30
676.12	30611.87
676.26	31395.95
676.40	30984.01
676.54	31222.75
676.68	31129.12
676.82	30281.85
676.96	30754.64
677.10	30260.79
677.23	30298.23
677.37	30008.01
677.51	30125.04
677.65	29788.00
677.79	29525.86
677.93	29811.40
678.07	29832.47
678.21	29378.40
678.34	29280.10
678.48	29118.60
678.62	28943.06
678.76	29259.04
678.90	28730.08
679.04	28849.44
679.18	28776.89
679.31	28797.95
679.45	28622.41
679.59	28603.69
679.73	28620.07
679.87	28348.57
680.00	28280.69
680.14	28510.07
680.28	27964.72
680.42	27985.79
680.56	28114.52
680.70	28315.80
680.83	28353.25
680.97	27608.96
681.11	27632.36
681.25	27725.99
681.39	27957.70
681.52	27672.15
681.66	27473.21
681.80	27529.38
681.94	27246.18
682.07	27505.98
682.21	27360.86
682.35	26864.67
682.49	27360.86
682.62	26857.65
682.76	26714.87
682.90	26696.15
683.04	26724.24
683.17	26485.50
683.31	26230.38
683.45	26555.72
683.59	26211.66
683.72	26216.34
683.86	26141.44
684.00	26244.43
684.13	26059.52
684.27	25881.64
684.41	25781.00
684.55	25605.46
684.68	25443.96
684.82	25472.05
684.96	25579.71
685.09	25216.93
685.23	25050.75
685.37	24833.08
685.50	25235.66
685.64	25219.27
685.78	25053.09
685.91	24922.02
686.05	24620.10
686.19	24287.74
686.32	24496.05
686.46	23819.63
686.60	23517.70
686.73	23517.70
686.87	23325.78
687.01	23536.43
687.14	23332.80
687.28	23314.08
687.42	23309.40
687.55	23887.51
687.69	23470.89
687.82	23440.47
687.96	23417.06
688.10	23159.60
688.23	22937.25
688.37	22754.69
688.50	23147.90
688.64	23073.00
688.78	22773.41
688.91	22457.44
689.05	22635.32
689.18	22298.28
689.32	22377.86
689.46	22279.56
689.59	22707.88
689.73	22562.76
689.86	22078.27
690.00	22291.26
690.13	21986.99
690.27	21755.28
690.41	21584.42
690.54	21341.00
690.68	21549.31
690.81	21617.19
690.95	21722.51
691.08	21642.93
691.22	21254.40
691.35	21488.46
691.49	21493.14
691.62	21198.23
691.76	21158.44
691.89	21158.44
692.03	21008.65
692.16	20922.05
692.30	20802.68
692.43	20603.74
692.57	20369.68
692.70	20346.28
692.84	20154.35
692.97	20238.61
693.11	20072.43
693.24	19920.30
693.38	20276.06
693.51	20060.73
693.65	20011.58
693.78	19978.81
693.92	19995.20
694.05	20023.28
694.19	19637.09
694.32	19543.47
694.45	19459.21
694.59	19183.03
694.72	19419.42
694.86	19393.68
694.99	19040.26
695.13	19248.57
695.26	18925.57
695.39	18986.43
695.53	18993.45
695.66	18951.32
695.80	19112.81
695.93	18888.12
696.07	18590.88
696.20	18541.72
696.33	18352.14
696.47	18380.23
696.60	18185.96
696.73	18314.69
696.87	18134.47
697.00	18295.97
697.14	17982.34
697.27	17757.64
697.40	17525.93
697.54	17778.71
697.67	17806.80
697.80	17277.83
697.94	17186.55
698.07	17469.76
698.21	17413.59
698.34	17462.74
698.47	17280.18
698.61	17310.60
698.74	16919.73
698.87	16886.97
699.01	16741.85
699.14	16673.98
699.27	16751.21
699.40	16697.38
699.54	16519.50
699.67	16224.59
699.80	16573.33
699.94	16283.11
700.07	16496.10
700.20	16578.01
700.34	16140.33
700.47	16273.74
700.60	16290.13
700.73	15992.88
700.87	16194.17
701.00	15714.36
701.13	15850.11
701.26	15447.54
701.40	15597.33
701.53	15421.79
701.66	15513.07
701.79	15403.07
701.93	15159.65
702.06	15201.78
702.19	15119.86
702.32	14986.45
702.46	15227.53
702.59	15274.34
702.72	15070.71
702.85	14986.45
702.99	14937.30
703.12	14934.96
703.25	14342.80
703.38	14696.22
703.51	14604.94
703.65	14707.93
703.78	14373.23
703.91	14270.25
704.04	14167.26
704.17	14162.58
704.31	14122.79
704.44	14324.08
704.57	14242.16
704.70	13764.69
704.83	14075.98
704.96	13994.06
705.10	14185.99
705.23	14005.77
>>>>>End Processed Spectral Data<<<<<
