SpectraSuite Data File
++++++++++++++++++++++++++++++++++++
Date: Fri Oct 25 10:43:52 EDT 2013
User: price-jones
Dark Spectrum Present: No
Reference Spectrum Present: No
Number of Sampled Component Spectra: 1
Spectrometers: USB2+H05261
Integration Time (usec): 100000 (USB2+H05261)
Spectra Averaged: 1 (USB2+H05261)
Boxcar Smoothing: 0 (USB2+H05261)
Correct for Electrical Dark: No (USB2+H05261)
Strobe/Lamp Enabled: No (USB2+H05261)
Correct for Detector Non-linearity: No (USB2+H05261)
Correct for Stray Light: No (USB2+H05261)
Number of Pixels in Processed Spectrum: 2048
>>>>>Begin Processed Spectral Data<<<<<
365.73	126.39
365.92	126.39
366.12	126.39
366.32	35.11
366.52	25.75
366.72	63.19
366.91	16.38
367.11	70.22
367.31	18.72
367.51	93.62
367.70	0.00
367.90	44.47
368.10	11.70
368.30	16.38
368.49	0.00
368.69	95.96
368.89	110.01
369.09	0.00
369.28	0.00
369.48	58.51
369.68	39.79
369.87	149.79
370.07	72.56
370.27	173.20
370.47	147.45
370.66	330.02
370.86	503.22
371.06	463.43
371.25	507.90
371.45	482.15
371.65	512.58
371.84	479.81
372.04	472.79
372.24	479.81
372.44	521.94
372.63	500.87
372.83	538.32
373.03	521.94
373.22	475.13
373.42	477.47
373.62	477.47
373.81	517.26
374.01	580.45
374.21	580.45
374.40	543.00
374.60	535.98
374.79	543.00
374.99	615.56
375.19	674.07
375.38	564.07
375.58	510.24
375.78	580.45
375.97	554.71
376.17	674.07
376.37	578.11
376.56	610.88
376.76	573.43
376.95	512.58
377.15	669.39
377.35	601.52
377.54	636.63
377.74	655.35
377.93	718.54
378.13	683.44
378.33	702.16
378.52	624.92
378.72	692.80
378.91	695.14
379.11	734.93
379.31	690.46
379.50	653.01
379.70	739.61
379.89	688.12
380.09	608.54
380.28	667.05
380.48	650.67
380.68	653.01
380.87	678.76
381.07	709.18
381.26	695.14
381.46	746.63
381.65	737.27
381.85	795.78
382.04	692.80
382.24	648.33
382.43	830.89
382.63	676.41
382.83	676.41
383.02	779.40
383.22	702.16
383.41	709.18
383.61	723.23
383.80	725.57
384.00	777.06
384.19	798.12
384.39	854.30
384.58	748.97
384.78	779.40
384.97	854.30
385.17	758.33
385.36	800.46
385.56	826.21
385.75	851.96
385.95	800.46
386.14	875.36
386.34	800.46
386.53	875.36
386.72	816.85
386.92	912.81
387.11	823.87
387.31	873.02
387.50	882.38
387.70	959.62
387.89	854.30
388.09	908.13
388.28	800.46
388.48	880.04
388.67	973.66
388.86	940.90
389.06	964.30
389.25	997.07
389.45	1001.75
389.64	929.19
389.84	1027.50
390.03	1062.60
390.22	994.73
390.42	1006.43
390.61	1111.75
390.81	1062.60
391.00	1118.78
391.19	1078.99
391.39	1053.24
391.58	1198.35
391.78	1057.92
391.97	1081.33
392.16	1071.97
392.36	1104.73
392.55	1064.94
392.75	1109.41
392.94	1018.13
393.13	990.05
393.33	1062.60
393.52	1137.50
393.71	1153.88
393.91	1193.67
394.10	1130.48
394.29	1144.52
394.49	1144.52
394.68	1240.48
394.88	1158.57
395.07	1245.16
395.26	1268.57
395.46	1231.12
395.65	1284.95
395.84	1308.36
396.04	1334.11
396.23	1207.72
396.42	1238.14
396.62	1242.82
396.81	1165.59
397.00	1331.76
397.19	1345.81
397.39	1425.39
397.58	1394.96
397.77	1406.66
397.97	1504.96
398.16	1437.09
398.35	1530.71
398.55	1549.43
398.74	1486.24
398.93	1593.90
399.12	1617.31
399.32	1533.05
399.51	1568.16
399.70	1617.31
399.90	1682.85
400.09	1638.38
400.28	1699.23
400.47	1556.46
400.67	1668.80
400.86	1788.17
401.05	1727.32
401.24	1687.53
401.44	1696.89
401.63	1760.08
401.82	1767.10
402.01	1797.53
402.21	1823.28
402.40	1834.98
402.59	1790.51
402.78	1813.92
402.97	1746.04
403.17	1905.20
403.36	1832.64
403.55	1898.17
403.74	1874.77
403.93	1933.28
404.13	1947.33
404.32	1874.77
404.51	1842.00
404.70	1980.09
404.89	1956.69
405.09	1935.62
405.28	2113.50
405.47	2080.74
405.66	2036.27
405.85	1989.46
406.05	2087.76
406.24	2090.10
406.43	2038.61
406.62	2134.57
406.81	2195.42
407.00	2087.76
407.20	2146.27
407.39	2153.29
407.58	2188.40
407.77	2298.41
407.96	2251.60
408.15	2314.79
408.34	2251.60
408.54	2349.90
408.73	2235.21
408.92	2342.88
409.11	2408.41
409.30	2333.51
409.49	2359.26
409.68	2265.64
409.87	2321.81
410.07	2392.03
410.26	2363.94
410.45	2420.11
410.64	2534.80
410.83	2565.23
411.02	2626.08
411.21	2801.62
411.40	2710.34
411.59	2691.62
411.78	2679.91
411.98	2757.15
412.17	2698.64
412.36	2815.66
412.55	2813.32
412.74	2867.16
412.93	2757.15
413.12	2836.73
413.31	2925.67
413.50	2993.55
413.69	2876.52
413.88	2906.95
414.07	3047.38
414.26	2977.16
414.45	3077.80
414.64	3159.72
414.83	3096.53
415.02	3000.57
415.22	3222.92
415.41	3152.70
415.60	3176.11
415.79	3325.90
415.98	3286.11
416.17	3344.63
416.36	3323.56
416.55	3365.69
416.74	3351.65
416.93	3358.67
417.12	3438.25
417.31	3410.16
417.50	3398.46
417.69	3403.14
417.88	3555.27
418.07	3496.76
418.26	3559.95
418.45	3602.08
418.64	3639.53
418.83	3735.50
419.02	3728.47
419.21	3684.00
419.39	3770.60
419.58	3590.38
419.77	3639.53
419.96	3854.86
420.15	3716.77
420.34	3681.66
420.53	3885.29
420.72	3932.10
420.91	3754.22
421.10	3911.04
421.29	4119.34
421.48	3833.80
421.67	3976.57
421.86	3857.20
422.05	3751.88
422.24	3969.55
422.43	4074.87
422.61	3969.55
422.80	3995.29
422.99	4023.38
423.18	4063.17
423.37	4128.70
423.56	4023.38
423.75	4016.36
423.94	3990.61
424.13	3838.48
424.32	3864.22
424.50	4065.51
424.69	4219.99
424.88	4212.96
425.07	3962.53
425.26	3789.33
425.45	4035.08
425.64	3985.93
425.83	3978.91
426.01	4257.43
426.20	4177.86
426.39	4152.11
426.58	4191.90
426.77	4135.73
426.96	3981.25
427.15	4058.49
427.33	4264.46
427.52	4166.15
427.71	4266.80
427.90	4332.33
428.09	4119.34
428.28	4231.69
428.46	4224.67
428.65	4346.37
428.84	4311.27
429.03	4397.87
429.22	4184.88
429.40	4339.35
429.59	4227.01
429.78	4081.89
429.97	4039.76
430.16	4198.92
430.34	4095.94
430.53	4290.20
430.72	4180.20
430.91	4306.59
431.10	4486.81
431.28	4676.39
431.47	4870.65
431.66	4868.31
431.85	4681.07
432.03	4688.09
432.22	4793.42
432.41	4690.43
432.60	4676.39
432.79	4877.68
432.97	4840.23
433.16	4933.85
433.35	4788.74
433.54	4732.56
433.72	4800.44
433.91	4837.89
434.10	4739.58
434.28	4840.23
434.47	5015.77
434.66	4905.76
434.85	5022.79
435.03	5123.43
435.22	4952.57
435.41	5181.95
435.59	5362.17
435.78	5200.67
435.97	5207.69
436.16	5228.76
436.34	5317.70
436.53	5338.76
436.72	5514.30
436.90	5226.42
437.09	5305.99
437.28	5268.55
437.46	5355.15
437.65	5303.65
437.84	5043.85
438.02	5266.21
438.21	5135.14
438.40	5200.67
438.58	5467.49
438.77	5614.95
438.96	5500.26
439.14	5610.26
439.33	5701.54
439.52	5486.22
439.70	5755.38
439.89	5790.49
440.08	5727.29
440.26	5820.91
440.45	5839.64
440.63	5933.26
440.82	6181.35
441.01	5956.66
441.19	6047.94
441.38	6176.67
441.57	6195.40
441.75	6396.68
441.94	6448.18
442.12	6394.34
442.31	6532.44
442.50	6487.96
442.68	6487.96
442.87	6661.16
443.05	6516.05
443.24	6525.41
443.43	6590.95
443.61	6640.10
443.80	6876.49
443.98	6548.82
444.17	6436.47
444.35	6789.89
444.54	6782.87
444.73	6745.42
444.91	6579.25
445.10	6626.06
445.28	6619.04
445.47	6616.69
445.65	6462.22
445.84	6626.06
446.02	6705.63
446.21	6539.46
446.39	6726.70
446.58	6944.37
446.77	6909.26
446.95	6745.42
447.14	6843.73
447.32	6988.84
447.51	6822.66
447.69	6808.62
447.88	6988.84
448.06	6897.56
448.25	6984.16
448.43	7005.22
448.62	6619.04
448.80	6949.05
448.99	6888.20
449.17	6974.80
449.36	7054.37
449.54	7258.00
449.73	7236.94
449.91	7281.41
450.10	7384.39
450.28	7454.61
450.46	7344.60
450.65	7363.33
450.83	7494.40
451.02	7396.09
451.20	7276.73
451.39	7459.29
451.57	7330.56
451.76	7452.27
451.94	7428.86
452.13	7449.93
452.31	7234.60
452.49	7302.47
452.68	7375.03
452.86	7274.38
453.05	7351.62
453.23	7496.74
453.42	7438.22
453.60	7571.63
453.78	7805.69
453.97	7463.97
454.15	7625.47
454.34	7571.63
454.52	7585.68
454.70	7730.79
454.89	7730.79
455.07	7932.08
455.26	7740.15
455.44	8006.97
455.62	7988.25
455.81	7950.80
455.99	7918.03
456.17	8060.80
456.36	8049.10
456.54	7976.55
456.73	8039.74
456.91	8283.16
457.09	8259.75
457.28	8461.04
457.46	8313.58
457.64	8212.94
457.83	8308.90
458.01	8248.05
458.19	8524.23
458.38	8332.31
458.56	8692.75
458.74	8472.74
458.93	8386.14
459.11	8524.23
459.29	8334.65
459.48	8252.73
459.66	8294.86
459.84	8601.47
460.03	8704.45
460.21	8774.67
460.39	8713.81
460.57	8636.58
460.76	8748.92
460.94	9053.19
461.12	8879.99
461.31	8870.63
461.49	8833.18
461.67	9114.05
461.85	8851.91
462.04	8997.02
462.22	9296.61
462.40	9217.03
462.59	9233.41
462.77	9128.09
462.95	9174.90
463.13	9160.86
463.32	9195.96
463.50	9390.23
463.68	9092.98
463.86	9348.10
464.05	9085.96
464.23	9207.67
464.41	9247.46
464.59	9107.02
464.78	9371.50
464.96	9151.49
465.14	9305.97
465.32	9481.51
465.50	9476.83
465.69	9371.50
465.87	9591.52
466.05	9357.46
466.23	9310.65
466.41	9521.30
466.60	9542.36
466.78	9287.25
466.96	9453.42
467.14	9511.94
467.32	9633.64
467.51	9614.92
467.69	9540.02
467.87	9605.56
468.05	9703.86
468.23	9678.12
468.41	9703.86
468.60	9783.44
468.78	9851.31
468.96	9774.08
469.14	9809.19
469.32	10033.88
469.50	9717.90
469.69	9757.69
469.87	10015.15
470.05	9881.74
470.23	10026.86
470.41	10078.35
470.59	10132.18
470.77	10087.71
470.95	10216.44
471.14	10359.21
471.32	10235.16
471.50	10464.54
471.68	10209.42
471.86	10548.79
472.04	10691.57
472.22	10764.12
472.40	10209.42
472.58	10817.96
472.77	10754.76
472.95	10771.15
473.13	11208.83
473.31	10726.68
473.49	10799.23
473.67	10909.24
473.85	10967.75
474.03	11407.77
474.21	11197.12
474.39	11403.09
474.57	11351.60
474.75	11201.80
474.93	11517.78
475.12	11302.45
475.30	11538.84
475.48	11466.28
475.66	11679.27
475.84	11595.01
476.02	11946.09
476.20	11585.65
476.38	11770.55
476.56	12210.57
476.74	12070.14
476.92	12028.01
477.10	11882.90
477.28	12493.78
477.46	12243.34
477.64	12362.71
477.82	12585.06
478.00	12929.12
478.18	12643.57
478.36	12903.37
478.54	13027.42
478.72	13224.03
478.90	13254.45
479.08	13437.02
479.26	13596.17
479.44	13591.49
479.62	13422.97
479.80	13579.79
479.98	13570.43
480.16	13755.33
480.34	14174.28
480.52	14174.28
480.70	14361.53
480.88	13907.46
481.06	14569.83
481.24	14340.46
481.41	14834.32
481.59	14860.06
481.77	14757.08
481.95	14920.92
482.13	14621.33
482.31	14661.12
482.49	15164.33
482.67	15033.26
482.85	15286.04
483.03	15496.69
483.21	15566.90
483.39	15960.11
483.57	15566.90
483.74	16039.69
483.92	15997.56
484.10	15646.48
484.28	16442.26
484.46	16376.73
484.64	16547.59
484.82	16304.17
485.00	16655.25
485.18	16599.08
485.35	16978.25
485.53	16570.99
485.71	16791.00
485.89	16828.45
486.07	16940.80
486.25	16865.90
486.43	17575.08
486.61	17312.94
486.78	17575.08
486.96	17577.42
487.14	17710.83
487.32	18321.71
487.50	18132.13
487.68	18286.61
487.85	18698.54
488.03	18768.76
488.21	18918.55
488.39	19339.85
488.57	19213.46
488.75	19367.93
488.92	19557.52
489.10	19800.93
489.28	19756.46
489.46	20170.74
489.64	19988.18
489.81	20540.54
489.99	20577.99
490.17	20723.10
490.35	20741.83
490.53	20662.25
490.70	20980.56
490.88	20943.11
491.06	21139.72
491.24	21338.66
491.41	21221.64
491.59	21032.05
491.77	21259.09
491.95	21486.12
492.13	21579.74
492.30	22122.74
492.48	22143.81
492.66	22239.77
492.84	22478.50
493.01	22443.40
493.19	22462.12
493.37	22569.79
493.54	22813.20
493.72	22710.22
493.90	23080.02
494.08	23363.23
494.25	23606.64
494.43	23894.53
494.61	23793.89
494.79	23807.93
494.96	23616.01
495.14	23709.63
495.32	24215.18
495.49	24107.52
495.67	24102.84
495.85	24463.28
496.02	24776.91
496.20	24643.50
496.38	24966.49
496.55	25069.48
496.73	25645.25
496.91	25078.84
497.09	25935.48
497.26	25528.22
497.44	25558.65
497.62	25745.89
497.79	25972.92
497.97	25607.80
498.14	25919.09
498.32	26286.56
498.50	25797.38
498.67	26771.05
498.85	26478.48
499.03	26733.60
499.20	26565.08
499.38	27072.98
499.56	26890.41
499.73	27199.37
499.91	26869.35
500.08	26977.01
500.26	26731.26
500.44	27229.79
500.61	27021.48
500.79	27051.91
500.97	27784.50
501.14	27803.22
501.32	27658.11
501.49	27768.12
501.67	27669.81
501.84	28006.85
502.02	28004.51
502.20	28114.52
502.37	28524.11
502.55	28217.50
502.72	28428.15
502.90	28498.36
503.07	28458.57
503.25	28795.61
503.43	28643.48
503.60	28599.01
503.78	28816.68
503.95	28739.44
504.13	29099.88
504.30	29303.51
504.48	28989.88
504.65	29378.40
504.83	29670.97
505.01	29575.01
505.18	29502.45
505.36	30197.59
505.53	30246.74
505.71	30305.26
505.88	30338.02
506.06	30125.04
506.23	30398.88
506.41	30607.19
506.58	30490.16
506.76	30583.78
506.93	30672.72
507.11	30483.14
507.28	30658.68
507.46	30618.89
507.63	30288.87
507.81	30735.92
507.98	30869.33
508.16	31145.51
508.33	31087.00
508.50	31253.17
508.68	31765.75
508.85	31351.48
509.03	31426.37
509.20	31271.90
509.38	32041.93
509.55	31896.82
509.73	31866.39
509.90	31992.78
510.08	31758.73
510.25	31735.32
510.42	32128.53
510.60	32273.65
510.77	32449.19
510.95	32535.79
511.12	32187.05
511.30	33008.58
511.47	32936.02
511.64	32910.27
511.82	33017.94
511.99	32856.44
512.17	32907.93
512.34	32629.41
512.51	32755.80
512.69	33469.66
512.86	33144.33
513.04	33589.03
513.21	33846.49
513.38	33347.95
513.56	33460.30
513.73	33631.16
513.90	33654.56
514.08	33654.56
514.25	33521.15
514.43	34059.48
514.60	33710.74
514.77	33682.65
514.95	34185.86
515.12	34202.25
515.29	34314.59
515.47	34532.26
515.64	34555.67
515.81	34253.74
515.99	34476.09
516.16	34181.18
516.33	33919.04
516.51	34249.06
516.68	33703.71
516.85	33860.53
517.03	33940.11
517.20	34183.52
517.37	34974.63
517.54	35084.63
517.72	34288.85
517.89	34445.66
518.06	34567.37
518.24	34850.58
518.41	34855.26
518.58	35257.83
518.75	35391.24
518.93	35814.88
519.10	35426.35
519.27	35763.39
519.45	35704.87
519.62	35971.69
519.79	35861.69
519.96	36177.66
520.14	36231.49
520.31	35943.61
520.48	36182.34
520.65	35903.82
520.83	36503.00
521.00	36332.14
521.17	36673.85
521.34	36112.13
521.52	37043.66
521.69	36746.41
521.86	37027.28
522.03	36631.72
522.20	36943.02
522.38	36825.99
522.55	37092.81
522.72	37230.90
522.89	36919.61
523.07	37258.99
523.24	37642.84
523.41	37301.12
523.58	37280.05
523.75	37834.76
523.92	37577.30
524.10	37773.91
524.27	38024.34
524.44	37961.15
524.61	37965.83
524.78	38036.05
524.96	37986.89
525.13	38326.27
525.30	38616.50
525.47	38490.11
525.64	38181.16
525.81	38288.82
525.98	37797.31
526.16	37748.16
526.33	37551.56
526.50	38309.89
526.67	37769.22
526.84	38101.58
527.01	38052.43
527.18	38543.94
527.36	38593.09
527.53	38859.91
527.70	39213.34
527.87	39395.90
528.04	38988.64
528.21	39100.99
528.38	39049.50
528.55	39529.31
528.72	39409.94
528.89	39578.46
529.07	39337.38
529.24	39758.68
529.41	39519.95
529.58	39206.31
529.75	39068.22
529.92	39463.77
530.09	39512.92
530.26	40161.25
530.43	39983.37
530.60	39585.48
530.77	39927.20
530.94	39887.41
531.11	40112.10
531.28	40137.85
531.46	40238.49
531.63	40175.30
531.80	40025.50
531.97	40016.14
532.14	39990.39
532.31	39959.97
532.48	39683.78
532.65	40521.69
532.82	40084.01
532.99	40395.31
533.16	40313.39
533.33	40676.17
533.50	40601.27
533.67	40364.88
533.84	40299.34
534.01	40378.92
534.18	40402.33
534.35	41104.49
534.52	40797.88
534.69	40961.72
534.86	41146.62
535.03	41055.34
535.20	40996.82
535.37	41816.01
535.54	41296.41
535.71	41191.09
535.88	41132.57
536.05	41352.58
536.22	41277.69
536.38	41607.70
536.55	41184.07
536.72	41090.44
536.89	41172.36
537.06	41125.55
537.23	41675.58
537.40	41656.85
537.57	41755.16
537.74	41790.27
537.91	41808.99
538.08	41972.83
538.25	41385.35
538.42	41647.49
538.59	41954.10
538.75	41778.56
538.92	41986.87
539.09	42092.19
539.26	42038.36
539.43	42127.30
539.60	41879.21
539.77	42162.41
539.94	42157.73
540.11	41900.27
540.28	42223.26
540.44	41844.10
540.61	42249.01
540.78	42270.08
540.95	41715.37
541.12	41979.85
541.29	41879.21
541.46	42415.19
541.62	42705.41
541.79	42775.63
541.96	42185.82
542.13	42770.95
542.30	42504.13
542.47	42277.10
542.63	42583.71
542.80	42906.70
542.97	43323.32
543.14	43365.45
543.31	43103.31
543.48	42834.14
543.64	43295.23
543.81	43267.14
543.98	43100.97
544.15	43000.32
544.32	43459.07
544.48	43384.17
544.65	43761.00
544.82	44034.84
544.99	43405.23
545.16	43732.91
545.32	43138.41
545.49	44086.33
545.66	43995.05
545.83	43817.17
546.00	43929.51
546.16	43894.41
546.33	43812.49
546.50	43405.23
546.67	44009.09
546.83	43585.46
547.00	44055.90
547.17	44009.09
547.34	43449.70
547.50	43938.88
547.67	44395.28
547.84	43959.94
548.00	44257.19
548.17	44304.00
548.34	44325.07
548.51	44264.21
548.67	44570.82
548.84	44617.63
549.01	44414.01
549.18	44194.00
549.34	44360.17
549.51	44282.94
549.68	44781.47
549.84	44533.37
550.01	44390.60
550.18	44437.41
550.34	44643.38
550.51	44423.37
550.68	44591.89
550.84	44329.75
551.01	44828.28
551.18	44481.88
551.34	44549.76
551.51	45015.52
551.68	44978.07
551.84	44638.70
552.01	44641.04
552.18	45041.27
552.34	44615.29
552.51	45057.65
552.68	44524.01
552.84	44872.75
553.01	44748.70
553.18	45031.91
553.34	45162.98
553.51	44959.35
553.67	44900.84
553.84	45333.84
554.01	45148.93
554.17	45331.50
554.34	45216.81
554.51	45247.24
554.67	45013.18
554.84	45263.62
555.00	45174.68
555.17	45076.38
555.33	45312.77
555.50	45160.64
555.67	45326.81
555.83	45558.53
556.00	45380.65
556.16	45551.51
556.33	45457.88
556.50	45469.59
556.66	45626.40
556.83	45258.94
556.99	45523.42
557.16	45755.13
557.32	45535.12
557.49	46031.32
557.65	45745.77
557.82	45832.37
557.98	45708.32
558.15	45413.41
558.32	45935.35
558.48	45158.30
558.65	45858.12
558.81	45420.44
558.98	45790.24
559.14	45638.11
559.31	45556.19
559.47	45771.52
559.64	45921.31
559.80	45806.62
559.97	45818.33
560.13	45392.35
560.30	45558.53
560.46	46185.79
560.63	46202.18
560.79	45949.40
560.96	46424.53
561.12	46127.28
561.29	45757.47
561.45	46141.32
561.61	45914.29
561.78	45727.05
561.94	45675.55
562.11	45621.72
562.27	46019.61
562.44	45785.56
562.60	46143.66
562.77	46050.04
562.93	45823.01
563.10	46480.70
563.26	46026.63
563.42	46202.18
563.59	46021.95
563.75	46127.28
563.92	46579.00
564.08	46300.48
564.24	45867.48
564.41	45776.20
564.57	45998.55
564.74	45993.87
564.90	45975.14
565.07	46316.86
565.23	45762.15
565.39	45918.97
565.56	46335.59
565.72	45993.87
565.88	46000.89
566.05	46466.66
566.21	46256.01
566.38	45869.82
566.54	46499.42
566.70	46637.51
566.87	46473.68
567.03	46506.44
567.19	46838.80
567.36	46707.73
567.52	46590.70
567.68	46354.31
567.85	46031.32
568.01	46316.86
568.17	46476.02
568.34	46248.99
568.50	46583.68
568.66	46274.73
568.83	46539.21
568.99	46024.29
569.15	46550.91
569.32	46061.74
569.48	46354.31
569.64	46700.71
569.81	46422.19
569.97	46504.10
570.13	46148.34
570.30	46073.45
570.46	46068.76
570.62	45862.80
570.78	46246.65
570.95	46316.86
571.11	46429.21
571.27	46050.04
571.43	46321.54
571.60	46307.50
571.76	46375.37
571.92	46485.38
572.09	46639.86
572.25	46452.61
572.41	46450.27
572.57	46253.67
572.74	46738.16
572.90	46401.12
573.06	46597.73
573.22	46457.29
573.38	46679.64
573.55	46274.73
573.71	46981.57
573.87	46684.33
574.03	46286.43
574.20	46199.83
574.36	46560.28
574.52	46574.32
574.68	46394.10
574.84	46604.75
575.01	46916.04
575.17	46614.11
575.33	46274.73
575.49	46527.51
575.65	46593.04
575.82	46295.80
575.98	46164.73
576.14	46808.37
576.30	46597.73
576.46	46628.15
576.62	46185.79
576.79	46719.43
576.95	46333.24
577.11	46990.94
577.27	46588.36
577.43	46305.16
577.59	46216.22
577.75	46438.57
577.92	46394.10
578.08	46429.21
578.24	46408.14
578.40	46370.69
578.56	46759.22
578.72	46461.97
578.88	46796.67
579.04	46616.45
579.21	46089.83
579.37	46064.08
579.53	46443.25
579.69	46887.95
579.85	46553.26
580.01	46791.99
580.17	46951.15
580.33	46473.68
580.49	46639.86
580.65	46485.38
580.82	46791.99
580.98	46340.27
581.14	46211.54
581.30	46850.50
581.46	46674.96
581.62	46628.15
581.78	47234.35
581.94	46831.78
582.10	46693.69
582.26	47030.72
582.42	46562.62
582.58	46766.24
582.74	46852.84
582.90	46583.68
583.06	46894.97
583.22	46710.07
583.38	46773.27
583.54	46988.60
583.70	46838.80
583.86	47042.43
584.02	46438.57
584.18	46829.44
584.34	46817.74
584.50	46459.63
584.66	46628.15
584.82	46440.91
584.98	46820.08
585.14	46859.87
585.30	46857.52
585.46	46754.54
585.62	46440.91
585.78	46834.12
585.94	46361.33
586.10	46691.35
586.26	46543.89
586.42	46674.96
586.58	46726.46
586.74	46777.95
586.90	46597.73
587.06	46784.97
587.22	47260.10
587.38	46162.39
587.54	46417.50
587.70	46965.19
587.86	46887.95
588.02	46595.38
588.18	46391.76
588.34	46328.56
588.49	46146.00
588.65	45778.54
588.81	46295.80
588.97	46511.13
589.13	46316.86
589.29	45869.82
589.45	46110.89
589.61	46801.35
589.77	46855.18
589.93	46541.55
590.08	46916.04
590.24	47103.28
590.40	47143.07
590.56	46986.25
590.72	46576.66
590.88	46487.72
591.04	46834.12
591.20	47339.68
591.35	47114.98
591.51	47030.72
591.67	46611.77
591.83	46941.78
591.99	46756.88
592.15	46923.06
592.31	46773.27
592.46	47007.32
592.62	46459.63
592.78	46693.69
592.94	46885.61
593.10	46609.43
593.26	46831.78
593.41	46962.85
593.57	46969.87
593.73	46550.91
593.89	46827.10
594.05	46913.70
594.20	46934.76
594.36	46876.25
594.52	46944.12
594.68	46820.08
594.84	46494.74
594.99	46490.06
595.15	46602.41
595.31	46981.57
595.47	46841.14
595.62	46955.83
595.78	46700.71
595.94	47416.91
596.10	46855.18
596.25	46691.35
596.41	46770.93
596.57	46588.36
596.73	46789.65
596.88	46321.54
597.04	46979.23
597.20	46454.95
597.36	46686.67
597.51	47171.16
597.67	47262.44
597.83	47047.11
597.99	47143.07
598.14	46602.41
598.30	47042.43
598.46	46939.44
598.61	46927.74
598.77	46590.70
598.93	46646.88
599.09	46571.98
599.24	47201.58
599.40	47014.34
599.56	47021.36
599.71	46780.29
599.87	46953.49
600.03	46635.17
600.18	46965.19
600.34	46412.82
600.50	46850.50
600.65	46761.56
600.81	46724.11
600.97	47084.56
601.12	47044.77
601.28	47117.32
601.44	46773.27
601.59	46836.46
601.75	46794.33
601.91	46504.10
602.06	46382.40
602.22	47353.72
602.37	47168.82
602.53	47246.05
602.69	47292.86
602.84	46944.12
603.00	46752.20
603.16	47047.11
603.31	47068.17
603.47	46684.33
603.62	46581.34
603.78	46663.26
603.94	46892.63
604.09	46925.40
604.25	46728.80
604.40	46937.10
604.56	46600.07
604.71	46782.63
604.87	46602.41
605.03	46726.46
605.18	46672.62
605.34	46429.21
605.49	46782.63
605.65	46649.22
605.80	46770.93
605.96	46887.95
606.12	46593.04
606.27	47070.51
606.43	46459.63
606.58	46616.45
606.74	46862.21
606.89	46581.34
607.05	46902.00
607.20	46836.46
607.36	46679.64
607.51	46473.68
607.67	46628.15
607.82	46850.50
607.98	46298.14
608.13	46157.70
608.29	46328.56
608.44	46501.76
608.60	46368.35
608.75	46387.08
608.91	46494.74
609.06	46464.32
609.22	46703.05
609.37	46398.78
609.53	46408.14
609.68	45984.51
609.84	46377.72
609.99	45918.97
610.15	46124.94
610.30	46213.88
610.46	45509.38
610.61	46213.88
610.76	46061.74
610.92	46246.65
611.07	46239.62
611.23	45855.78
611.38	46307.50
611.54	45928.33
611.69	45972.80
611.84	45897.91
612.00	45757.47
612.15	45511.72
612.31	46211.54
612.46	46218.56
612.62	46120.26
612.77	45851.09
612.92	45951.74
613.08	45626.40
613.23	46183.45
613.39	45586.61
613.54	45289.37
613.69	45649.81
613.85	45485.97
614.00	45560.87
614.15	45916.63
614.31	45619.38
614.46	45677.90
614.62	45425.12
614.77	45818.33
614.92	45352.56
615.08	45375.97
615.23	45411.07
615.38	45514.06
615.54	45155.96
615.69	45336.18
615.84	45558.53
616.00	45551.51
616.15	45450.86
616.30	45713.00
616.46	45181.70
616.61	45198.09
616.76	45223.83
616.92	45067.02
617.07	44858.71
617.22	45226.17
617.37	45226.17
617.53	45722.37
617.68	45078.72
617.83	45532.78
617.99	45254.26
618.14	44722.96
618.29	45031.91
618.45	44603.59
618.60	44980.42
618.75	44622.31
618.90	44744.02
619.06	45043.61
619.21	44825.94
619.36	44648.06
619.51	45221.49
619.67	44835.30
619.82	45212.13
619.97	44903.18
620.12	44568.48
620.28	44699.55
620.43	44802.53
620.58	44917.22
620.73	44746.36
620.89	44734.66
621.04	44477.20
621.19	44495.92
621.34	44690.19
621.49	44121.44
621.65	44406.98
621.80	44594.23
621.95	44018.46
622.10	44617.63
622.25	44065.27
622.41	44353.15
622.56	44458.48
622.71	44680.83
622.86	44177.61
623.01	44423.37
623.16	44350.81
623.32	44177.61
623.47	44172.93
623.62	44154.21
623.77	44339.11
623.92	44493.58
624.07	44432.73
624.23	44261.87
624.38	44098.03
624.53	44147.18
624.68	43882.70
624.83	44074.63
624.98	44409.32
625.13	43257.78
625.29	43842.92
625.44	43374.81
625.59	43185.22
625.74	43278.85
625.89	43566.73
626.04	43225.01
626.19	43805.47
626.34	43606.52
626.49	43887.39
626.65	43529.28
626.80	43536.30
626.95	43152.46
627.10	43625.25
627.25	43393.53
627.40	43400.55
627.55	43166.50
627.70	42705.41
627.85	43028.41
628.00	42946.49
628.15	43129.05
628.30	43187.56
628.45	43379.49
628.60	43068.20
628.76	43152.46
628.91	43304.59
629.06	42852.87
629.21	42639.88
629.36	42838.83
629.51	42396.46
629.66	43070.54
629.81	42993.30
629.96	43281.19
630.11	43239.06
630.26	43234.38
630.41	43459.07
630.56	42674.99
630.71	42447.96
630.86	42490.09
631.01	42590.73
631.16	42871.59
631.31	42206.88
631.46	42017.30
631.61	42745.20
631.76	42892.66
631.91	42487.74
632.06	42550.94
632.21	42534.56
632.36	42452.64
632.51	42543.92
632.66	42202.20
632.81	42230.29
632.96	42532.22
633.10	42061.77
633.25	42426.89
633.40	42497.11
633.55	42546.26
633.70	41965.81
633.85	42073.47
634.00	42384.76
634.15	42632.86
634.30	41801.97
634.45	42089.85
634.60	42071.13
634.75	41984.53
634.90	41926.02
635.05	42078.15
635.19	41872.18
635.34	41853.46
635.49	41745.80
635.64	41928.36
635.79	41736.43
635.94	41928.36
636.09	41720.05
636.24	41797.29
636.39	41483.66
636.53	41343.22
636.68	41591.32
636.83	41684.94
636.98	41511.74
637.13	41780.90
637.28	41797.29
637.43	42150.71
637.57	41895.59
637.72	41268.33
637.87	41495.36
638.02	41127.89
638.17	41771.54
638.32	41462.59
638.46	41757.50
638.61	41106.83
638.76	41214.49
638.91	41764.52
639.06	41268.33
639.20	41493.02
639.35	41443.87
639.50	41471.95
639.65	40954.69
639.80	41170.02
639.94	41127.89
640.09	41256.62
640.24	40636.38
640.39	40509.99
640.54	41036.61
640.68	41137.26
640.83	41177.04
640.98	40713.62
641.13	40463.18
641.27	40638.72
641.42	40627.02
641.57	41155.98
641.72	41034.27
641.86	40383.60
642.01	40442.12
642.16	40472.54
642.31	40222.11
642.45	40907.88
642.60	39948.26
642.75	40339.13
642.90	40924.27
643.04	40610.64
643.19	40715.96
643.34	40446.80
643.48	40481.91
643.63	40243.17
643.78	40287.64
643.93	40268.92
644.07	40229.13
644.22	40219.77
644.37	40371.90
644.51	40430.41
644.66	40191.68
644.81	39992.73
644.95	40264.24
645.10	40240.83
645.25	40472.54
645.39	39931.88
645.54	40282.96
645.69	40165.93
645.83	40084.01
645.98	39707.19
646.13	39901.45
646.27	40360.20
646.42	39597.18
646.57	39646.33
646.71	39793.79
646.86	39852.30
647.00	39690.80
647.15	39943.58
647.30	39772.72
647.44	39482.50
647.59	39438.03
647.74	39292.91
647.88	39658.04
648.03	39725.91
648.17	39606.55
648.32	39187.59
648.47	39611.23
648.61	39192.27
648.76	39309.30
648.90	39405.26
649.05	39597.18
649.20	39445.05
649.34	39756.34
649.49	39187.59
649.63	39407.60
649.78	39669.74
649.92	39225.04
650.07	39690.80
650.21	39187.59
650.36	39391.22
650.51	39414.62
650.65	39426.32
650.80	39868.69
650.94	39686.12
651.09	39578.46
651.23	39299.94
651.38	38864.60
651.52	38464.36
651.67	38639.90
651.81	39065.88
651.96	39138.44
652.10	38993.32
652.25	38871.62
652.39	38909.07
652.54	39166.52
652.68	39028.43
652.83	38625.86
652.97	39608.89
653.12	38934.81
653.26	38581.39
653.41	38368.40
653.55	38457.34
653.70	38742.89
653.84	38485.43
653.99	38401.17
654.13	38710.12
654.27	38277.12
654.42	37916.68
654.56	38183.50
654.71	38616.50
654.85	38880.98
655.00	38188.18
655.14	38176.48
655.29	37853.48
655.43	38061.79
655.57	37696.67
655.72	38206.90
655.86	37457.93
656.01	37371.33
656.15	37589.00
656.30	37834.76
656.44	37865.19
656.58	37326.86
656.73	37944.76
656.87	37663.90
657.01	37687.31
657.16	37649.86
657.30	37694.33
657.45	37226.22
657.59	37619.43
657.73	37479.00
657.88	37874.55
658.02	37965.83
658.16	37631.13
658.31	37689.65
658.45	37778.59
658.60	37727.10
658.74	37752.84
658.88	37326.86
659.03	37186.43
659.17	37116.22
659.31	37326.86
659.46	36966.42
659.60	37193.45
659.74	37256.65
659.89	37118.56
660.03	37352.61
660.17	37296.44
660.32	37385.38
660.46	37376.01
660.60	36781.52
660.74	36545.12
660.89	36526.40
661.03	36488.95
661.17	36339.16
661.32	36715.98
661.46	36870.46
661.60	36257.24
661.74	36423.42
661.89	36322.77
662.03	36879.82
662.17	36397.67
662.31	36589.59
662.46	36938.33
662.60	36833.01
662.74	36423.42
662.88	36343.84
663.03	36481.93
663.17	36268.94
663.31	36210.43
663.45	36231.49
663.60	36285.33
663.74	35538.69
663.88	35314.00
664.02	35601.89
664.17	36055.95
664.31	35484.86
664.45	35718.92
664.59	35562.10
664.73	35674.45
664.88	35704.87
665.02	34918.45
665.16	35456.78
665.30	34848.24
665.44	35402.94
665.59	34866.96
665.73	35262.51
665.87	35026.12
666.01	35070.59
666.15	35016.75
666.29	35159.53
666.44	34925.47
666.58	34693.76
666.72	34934.84
666.86	34845.90
667.00	34799.08
667.14	34431.62
667.28	34455.03
667.43	34543.97
667.57	35019.10
667.71	34560.35
667.85	34501.84
667.99	34412.90
668.13	34506.52
668.27	34242.04
668.41	34478.43
668.56	34347.36
668.70	34471.41
668.84	33858.19
668.98	33605.41
669.12	33750.52
669.26	33867.55
669.40	33996.28
669.54	33443.91
669.68	33926.07
669.82	33542.22
669.96	33390.08
670.10	33088.15
670.25	33584.35
670.39	33401.79
670.53	33029.64
670.67	33057.73
670.81	33132.62
670.95	33024.96
671.09	32723.03
671.23	32950.06
671.37	32765.16
671.51	32711.33
671.65	32755.80
671.79	32531.11
671.93	32460.89
672.07	32734.73
672.21	32563.87
672.35	32484.30
672.49	32315.78
672.63	32826.01
672.77	32189.39
672.91	32470.25
673.05	32360.25
673.19	32367.27
673.33	31899.16
673.47	32425.78
673.61	31744.69
673.75	31707.24
673.89	31309.35
674.03	31597.23
674.17	31505.95
674.31	31817.24
674.45	31222.75
674.59	31981.08
674.73	31665.11
674.87	31482.55
675.01	31400.63
675.15	30981.67
675.29	30780.39
675.43	30859.96
675.56	31152.53
675.70	30902.09
675.84	30696.13
675.98	29802.04
676.12	30309.94
676.26	30719.53
676.40	30679.74
676.54	30803.79
676.68	30611.87
676.82	29750.55
676.96	29956.52
677.10	30143.76
677.23	30300.58
677.37	29979.92
677.51	29951.84
677.65	29736.51
677.79	29017.96
677.93	29621.82
678.07	29343.30
678.21	29172.44
678.34	29144.35
678.48	28954.77
678.62	29149.03
678.76	28669.22
678.90	28662.20
679.04	28498.36
679.18	28531.13
679.31	28147.28
679.45	28547.51
679.59	28081.75
679.73	27985.79
679.87	28046.64
680.00	27843.01
680.14	28100.47
680.28	28198.77
680.42	27871.10
680.56	27786.84
680.70	27969.40
680.83	27538.74
680.97	27637.05
681.11	27688.54
681.25	27667.47
681.39	27372.57
681.52	27466.19
681.66	27267.24
681.80	27126.81
681.94	27241.50
682.07	27161.92
682.21	26581.46
682.35	26679.77
682.49	27028.51
682.62	26169.53
682.76	26422.31
682.90	26569.76
683.04	26157.83
683.17	26089.95
683.31	26441.03
683.45	26113.36
683.59	25900.37
683.72	26022.08
683.86	26230.38
684.00	25708.44
684.13	25865.26
684.27	25603.12
684.41	25605.46
684.55	25710.78
684.68	25324.60
684.82	25703.76
684.96	24900.96
685.09	25085.86
685.23	24795.64
685.37	25172.46
685.50	25198.21
685.64	24812.02
685.78	24589.67
685.91	24482.00
686.05	24329.87
686.19	24053.69
686.32	24175.39
686.46	23981.13
686.60	23424.08
686.73	23634.73
686.87	23276.63
687.01	23349.18
687.14	23384.29
687.28	23030.87
687.42	23346.84
687.55	23440.47
687.69	23503.66
687.82	22953.63
687.96	23185.35
688.10	22621.28
688.23	22710.22
688.37	22916.19
688.50	22583.83
688.64	22869.37
688.78	22647.02
688.91	22368.50
689.05	22693.83
689.18	22361.48
689.32	22150.83
689.46	22745.33
689.59	22373.18
689.73	22319.35
689.86	22174.24
690.00	22040.82
690.13	21752.94
690.27	22026.78
690.41	21500.16
690.54	21486.12
690.68	21380.79
690.81	21600.80
690.95	21366.75
691.08	21219.30
691.22	21490.80
691.35	21766.98
691.49	21137.38
691.62	20940.77
691.76	20847.15
691.89	21043.76
692.03	20678.63
692.16	20671.61
692.30	21083.55
692.43	20706.72
692.57	20194.14
692.70	20187.12
692.84	19997.54
692.97	20011.58
693.11	19840.72
693.24	19847.74
693.38	19793.91
693.51	19831.36
693.65	20142.65
693.78	20039.67
693.92	19864.13
694.05	19557.52
694.19	19454.53
694.32	19552.84
694.45	19328.14
694.59	19213.46
694.72	19014.51
694.86	19314.10
694.99	18766.42
695.13	18916.21
695.26	18677.48
695.39	18794.50
695.53	19033.24
695.66	18881.10
695.80	18841.31
695.93	18111.07
696.07	18375.55
696.20	18640.03
696.33	18167.24
696.47	18314.69
696.60	17928.50
696.73	18040.85
696.87	17816.16
697.00	17741.26
697.14	17427.63
697.27	17624.23
697.40	17392.52
697.54	17556.36
697.67	17287.20
697.80	17289.54
697.94	17060.16
698.07	16915.05
698.21	17263.79
698.34	17088.25
698.47	17291.88
698.61	16842.50
698.74	16856.54
698.87	16884.62
699.01	16793.34
699.14	16432.90
699.27	16301.83
699.40	16510.14
699.54	16540.57
699.67	16346.30
699.80	16353.32
699.94	15946.07
700.07	16142.67
700.20	16358.00
700.34	16184.80
700.47	16060.76
700.60	16142.67
700.73	15793.94
700.87	15922.66
701.00	15829.04
701.13	15634.78
701.26	15543.50
701.40	15555.20
701.53	15627.76
701.66	15548.18
701.79	14977.09
701.93	15122.20
702.06	14883.47
702.19	14677.50
702.32	14939.64
702.46	14829.63
702.59	14941.98
702.72	14949.00
702.85	14932.62
702.99	14771.12
703.12	14661.12
703.25	14551.11
703.38	14546.43
703.51	14668.14
703.65	14300.67
703.78	14083.00
703.91	14352.16
704.04	13951.93
704.17	13827.88
704.31	14001.08
704.44	14122.79
704.57	13685.11
704.70	13853.63
704.83	13839.59
704.96	13778.73
705.10	13898.10
705.23	13806.82
>>>>>End Processed Spectral Data<<<<<
