SpectraSuite Data File
++++++++++++++++++++++++++++++++++++
Date: Fri Oct 25 11:34:09 EDT 2013
User: price-jones
Dark Spectrum Present: No
Reference Spectrum Present: No
Number of Sampled Component Spectra: 1
Spectrometers: USB2+H05261
Integration Time (usec): 100000 (USB2+H05261)
Spectra Averaged: 1 (USB2+H05261)
Boxcar Smoothing: 0 (USB2+H05261)
Correct for Electrical Dark: No (USB2+H05261)
Strobe/Lamp Enabled: No (USB2+H05261)
Correct for Detector Non-linearity: No (USB2+H05261)
Correct for Stray Light: No (USB2+H05261)
Number of Pixels in Processed Spectrum: 2048
>>>>>Begin Processed Spectral Data<<<<<
365.73	276.18
365.92	276.18
366.12	276.18
366.32	145.11
366.52	58.51
366.72	105.32
366.91	149.79
367.11	203.63
367.31	201.29
367.51	168.52
367.70	177.88
367.90	245.76
368.10	124.05
368.30	196.60
368.49	238.73
368.69	229.37
368.89	175.54
369.09	93.62
369.28	133.41
369.48	210.65
369.68	224.69
369.87	245.76
370.07	201.29
370.27	285.55
370.47	294.91
370.66	468.11
370.86	514.92
371.06	545.34
371.25	535.98
371.45	573.43
371.65	521.94
371.84	512.58
372.04	533.64
372.24	585.13
372.44	613.22
372.63	587.47
372.83	631.94
373.03	627.26
373.22	606.20
373.42	589.82
373.62	727.91
373.81	622.58
374.01	613.22
374.21	580.45
374.40	610.88
374.60	615.56
374.79	557.05
374.99	683.44
375.19	643.65
375.38	716.20
375.58	606.20
375.78	685.78
375.97	706.84
376.17	765.36
376.37	650.67
376.56	645.99
376.76	648.33
376.95	676.41
377.15	692.80
377.35	674.07
377.54	753.65
377.74	648.33
377.93	580.45
378.13	685.78
378.33	713.86
378.52	582.79
378.72	753.65
378.91	699.82
379.11	725.57
379.31	709.18
379.50	746.63
379.70	774.72
379.89	770.04
380.09	758.33
380.28	688.12
380.48	713.86
380.68	706.84
380.87	737.27
381.07	699.82
381.26	772.38
381.46	819.19
381.65	774.72
381.85	802.80
382.04	730.25
382.24	798.12
382.43	744.29
382.63	760.67
382.83	746.63
383.02	812.17
383.22	798.12
383.41	772.38
383.61	802.80
383.80	826.21
384.00	840.25
384.19	805.14
384.39	788.76
384.58	755.99
384.78	795.78
384.97	786.42
385.17	830.89
385.36	875.36
385.56	784.08
385.75	842.59
385.95	770.04
386.14	842.59
386.34	889.40
386.53	870.68
386.72	840.25
386.92	861.32
387.11	889.40
387.31	964.30
387.50	912.81
387.70	847.27
387.89	870.68
388.09	910.47
388.28	807.48
388.48	821.53
388.67	880.04
388.86	894.08
389.06	933.87
389.25	945.58
389.45	917.49
389.64	950.26
389.84	936.21
390.03	997.07
390.22	933.87
390.42	964.30
390.61	830.89
390.81	1011.11
391.00	976.00
391.19	1006.43
391.39	950.26
391.58	980.68
391.78	964.30
391.97	1060.26
392.16	1011.11
392.36	1011.11
392.55	1025.15
392.75	1029.84
392.94	1006.43
393.13	1006.43
393.33	1041.54
393.52	976.00
393.71	1074.31
393.91	1071.97
394.10	1041.54
394.29	1083.67
394.49	1062.60
394.68	1139.84
394.88	1116.44
395.07	1109.41
395.26	1128.14
395.46	1022.81
395.65	1233.46
395.84	1156.22
396.04	1179.63
396.23	1135.16
396.42	1191.33
396.62	1174.95
396.81	1224.10
397.00	1114.10
397.19	1219.42
397.39	1184.31
397.58	1217.08
397.77	1233.46
397.97	1249.85
398.16	1261.55
398.35	1188.99
398.55	1186.65
398.74	1226.44
398.93	1198.35
399.12	1247.51
399.32	1277.93
399.51	1261.55
399.70	1383.26
399.90	1322.40
400.09	1383.26
400.28	1313.04
400.47	1390.28
400.67	1338.79
400.86	1359.85
401.05	1387.94
401.24	1416.02
401.44	1462.83
401.63	1406.66
401.82	1418.36
402.01	1411.34
402.21	1439.43
402.40	1523.69
402.59	1411.34
402.78	1528.37
402.97	1390.28
403.17	1486.24
403.36	1584.54
403.55	1514.33
403.74	1549.43
403.93	1537.73
404.13	1600.93
404.32	1561.14
404.51	1612.63
404.70	1582.20
404.89	1614.97
405.09	1657.10
405.28	1680.50
405.47	1507.30
405.66	1643.06
405.85	1612.63
406.05	1607.95
406.24	1572.84
406.43	1732.00
406.62	1720.29
406.81	1708.59
407.00	1682.85
407.20	1710.93
407.39	1792.85
407.58	1788.17
407.77	1795.19
407.96	1830.30
408.15	1912.22
408.34	1771.79
408.54	1813.92
408.73	1881.79
408.92	1905.20
409.11	1818.60
409.30	2031.58
409.49	1963.71
409.68	2015.20
409.87	1933.28
410.07	2003.50
410.26	1919.24
410.45	1996.48
410.64	1980.09
410.83	2073.71
411.02	2087.76
411.21	2188.40
411.40	2134.57
411.59	2132.23
411.78	2207.13
411.98	2291.38
412.17	2181.38
412.36	2197.76
412.55	2218.83
412.74	2296.07
412.93	2307.77
413.12	2223.51
413.31	2291.38
413.50	2377.98
413.69	2275.00
413.88	2394.37
414.07	2431.82
414.26	2506.71
414.45	2497.35
414.64	2523.10
414.83	2511.39
415.02	2583.95
415.22	2602.68
415.41	2511.39
415.60	2497.35
415.79	2597.99
415.98	2686.94
416.17	2696.30
416.36	2731.41
416.55	2691.62
416.74	2600.34
416.93	2754.81
417.12	2778.22
417.31	2672.89
417.50	2703.32
417.69	2932.69
417.88	2850.77
418.07	2860.13
418.26	2937.37
418.45	3016.95
418.64	2967.80
418.83	2925.67
419.02	3023.97
419.21	3030.99
419.39	3162.06
419.58	3012.27
419.77	2874.18
419.96	3089.51
420.15	3143.34
420.34	3021.63
420.53	3047.38
420.72	3129.30
420.91	3054.40
421.10	3218.24
421.29	3197.17
421.48	3054.40
421.67	3267.39
421.86	3166.74
422.05	3400.80
422.24	3269.73
422.43	3208.87
422.61	3211.22
422.80	3421.86
422.99	3349.31
423.18	3276.75
423.37	3449.95
423.56	3368.03
423.75	3255.69
423.94	3227.60
424.13	3145.68
424.32	3215.90
424.50	3400.80
424.69	3316.54
424.88	3459.31
425.07	3295.47
425.26	3316.54
425.45	3304.84
425.64	3295.47
425.83	3346.97
426.01	3405.48
426.20	3407.82
426.39	3410.16
426.58	3272.07
426.77	3445.27
426.96	3576.34
427.15	3356.33
427.33	3398.46
427.52	3475.70
427.71	3583.36
427.90	3440.59
428.09	3609.11
428.28	3527.19
428.46	3705.07
428.65	3562.30
428.84	3684.00
429.03	3595.06
429.22	3630.17
429.40	3667.62
429.59	3672.30
429.78	3569.32
429.97	3557.61
430.16	3695.71
430.34	3665.28
430.53	3861.88
430.72	3831.46
430.91	3801.03
431.10	3789.33
431.28	3941.46
431.47	3896.99
431.66	3889.97
431.85	3779.97
432.03	3836.14
432.22	3950.82
432.41	3948.48
432.60	4009.34
432.79	4025.72
432.97	3964.87
433.16	3995.29
433.35	4018.70
433.54	4079.55
433.72	4084.23
433.91	4124.02
434.10	4039.76
434.28	4168.49
434.47	4072.53
434.66	4154.45
434.85	4290.20
435.03	4128.70
435.22	4264.46
435.41	4393.19
435.59	4145.09
435.78	4287.86
435.97	4269.14
436.16	4269.14
436.34	4133.39
436.53	4318.29
436.72	4381.48
436.90	4428.29
437.09	4428.29
437.28	4294.88
437.46	4468.08
437.65	4407.23
437.84	4447.02
438.02	4496.17
438.21	4608.51
438.40	4517.23
438.58	4655.33
438.77	4641.28
438.96	4631.92
439.14	4674.05
439.33	4723.20
439.52	4662.35
439.70	4751.29
439.89	4889.38
440.08	4849.59
440.26	4753.63
440.45	4880.02
440.63	5048.54
440.82	5067.26
441.01	5093.01
441.19	5004.07
441.38	5062.58
441.57	5039.17
441.75	5118.75
441.94	5247.48
442.12	5254.50
442.31	5303.65
442.50	5266.21
442.68	5308.34
442.87	5362.17
443.05	5392.59
443.24	5256.84
443.43	5282.59
443.61	5392.59
443.80	5554.09
443.98	5423.02
444.17	5177.26
444.35	5465.15
444.54	5605.58
444.73	5331.74
444.91	5558.77
445.10	5495.58
445.28	5533.03
445.47	5345.78
445.65	5589.20
445.84	5544.73
446.02	5511.96
446.21	5556.43
446.39	5624.31
446.58	5811.55
446.77	5493.24
446.95	5509.62
447.14	5603.24
447.32	5795.17
447.51	5490.90
447.69	5638.35
447.88	5551.75
448.06	5434.72
448.25	5575.16
448.43	5682.82
448.62	5526.00
448.80	5542.39
448.99	5671.12
449.17	5666.44
449.36	5685.16
449.54	5753.04
449.73	5898.15
449.91	5895.81
450.10	5874.74
450.28	5928.58
450.46	5991.77
450.65	6015.18
450.83	6005.81
451.02	5982.41
451.20	6118.16
451.39	6071.35
451.57	6022.20
451.76	5980.07
451.94	6008.16
452.13	6256.25
452.31	6141.57
452.49	6026.88
452.68	6146.25
452.86	6204.76
453.05	6139.23
453.23	6305.40
453.42	6164.97
453.60	6293.70
453.78	6340.51
453.97	6202.42
454.15	6340.51
454.34	6106.46
454.52	6375.62
454.70	6354.55
454.89	6363.92
455.07	6494.99
455.26	6413.07
455.44	6534.78
455.62	6628.40
455.81	6642.44
455.99	6801.60
456.17	6560.52
456.36	6698.61
456.54	6476.26
456.73	6583.93
456.91	6745.42
457.09	6876.49
457.28	6927.99
457.46	6822.66
457.64	6848.41
457.83	6932.67
458.01	6932.67
458.19	6850.75
458.38	6986.50
458.56	6932.67
458.74	6913.94
458.93	6876.49
459.11	6956.07
459.29	7047.35
459.48	7136.29
459.66	6946.71
459.84	7173.74
460.03	7342.26
460.21	7243.96
460.39	7103.53
460.57	7232.26
460.76	7199.49
460.94	7164.38
461.12	7286.09
461.31	7323.54
461.49	7438.22
461.67	7159.70
461.85	7588.02
462.04	7311.83
462.22	7882.92
462.40	7536.52
462.59	7618.44
462.77	7480.35
462.95	7496.74
463.13	7400.77
463.32	7480.35
463.50	7679.30
463.68	7688.66
463.86	7655.89
464.05	7569.29
464.23	7660.57
464.41	7730.79
464.59	7623.12
464.78	7918.03
464.96	7943.78
465.14	7667.60
465.32	7976.55
465.50	8011.65
465.69	7826.75
465.87	7911.01
466.05	7838.45
466.23	7920.37
466.41	8039.74
466.60	8182.51
466.78	7857.18
466.96	7878.24
467.14	8016.33
467.32	8077.19
467.51	8058.46
467.69	7822.07
467.87	8243.37
468.05	8152.09
468.23	8002.29
468.41	8252.73
468.60	8105.28
468.78	8285.50
468.96	8292.52
469.14	8346.35
469.32	8439.97
469.50	8140.38
469.69	8444.65
469.87	8549.98
470.05	8439.97
470.23	8631.90
470.41	8582.74
470.59	8741.90
470.77	8580.40
470.95	8709.13
471.14	8716.16
471.32	8437.63
471.50	8807.44
471.68	8889.35
471.86	8826.16
472.04	8699.77
472.22	9259.16
472.40	8828.50
472.58	8894.04
472.77	8908.08
472.95	9231.07
473.13	9413.63
473.31	9109.36
473.49	9441.72
473.67	9329.38
473.85	9118.73
474.03	9357.46
474.21	9369.16
474.39	9689.82
474.57	9441.72
474.75	9586.83
474.93	9645.35
475.12	9605.56
475.30	9860.68
475.48	9626.62
475.66	9991.75
475.84	9851.31
476.02	9912.17
476.20	9902.81
476.38	10251.55
476.56	10544.11
476.74	10387.30
476.92	10286.65
477.10	10139.20
477.28	10129.84
477.46	10455.17
477.64	10490.28
477.82	10597.95
478.00	10916.26
478.18	10923.28
478.36	10850.72
478.54	11101.16
478.72	11012.22
478.90	11265.00
479.08	11379.68
479.26	11337.56
479.44	11365.64
479.62	11445.22
479.80	11475.65
479.98	11627.78
480.16	11805.66
480.34	11866.52
480.52	11920.35
480.70	11932.05
480.88	11700.34
481.06	12088.87
481.24	12283.13
481.41	12182.49
481.59	12203.55
481.77	12444.63
481.95	12624.85
482.13	12409.52
482.31	12561.66
482.49	12849.54
482.67	12938.48
482.85	12875.29
483.03	12985.29
483.21	13486.17
483.39	13575.11
483.57	13448.72
483.74	13532.98
483.92	13469.78
484.10	13334.03
484.28	14010.45
484.46	14038.53
484.64	14504.30
484.82	14066.62
485.00	14326.42
485.18	14494.94
485.35	14661.12
485.53	14560.47
485.71	14576.86
485.89	15002.83
486.07	14848.36
486.25	14927.94
486.43	14986.45
486.61	15522.43
486.78	15424.13
486.96	15496.69
487.14	15662.86
487.32	15789.25
487.50	15637.12
487.68	16137.99
487.85	16269.06
488.03	16037.35
488.21	16592.06
488.39	16264.38
488.57	16559.29
488.75	16374.39
488.92	17205.28
489.10	17184.21
489.28	16987.61
489.46	17121.02
489.64	17212.30
489.81	17694.45
489.99	17795.09
490.17	17830.20
490.35	17874.67
490.53	17970.63
490.70	17982.34
490.88	18246.82
491.06	17991.70
491.24	18270.22
491.41	18551.09
491.59	18380.23
491.77	18845.99
491.95	18799.18
492.13	19019.19
492.30	19047.28
492.48	19054.30
492.66	19180.69
492.84	19377.30
493.01	19545.81
493.19	19597.31
493.37	19960.09
493.54	19641.78
493.72	19981.15
493.90	19922.64
494.08	20285.42
494.25	20542.88
494.43	20498.41
494.61	20659.91
494.79	20449.26
494.96	20678.63
495.14	20683.31
495.32	20908.01
495.49	21055.46
495.67	21165.46
495.85	21341.00
496.02	21240.36
496.20	21710.81
496.38	21816.13
496.55	21659.32
496.73	22520.63
496.91	21841.88
497.09	22235.09
497.26	22314.67
497.44	22197.64
497.62	22630.64
497.79	22567.45
497.97	22520.63
498.14	23112.79
498.32	23157.26
498.50	22995.76
498.67	23424.08
498.85	22998.10
499.03	23339.82
499.20	23316.42
499.38	23634.73
499.56	24102.84
499.73	24091.13
499.91	23840.70
500.08	23887.51
500.26	23737.71
500.44	24170.71
500.61	24231.57
500.79	23878.15
500.97	24252.63
501.14	24692.65
501.32	24636.48
501.49	24690.31
501.67	24755.85
501.84	24814.36
502.02	24706.70
502.20	25153.74
502.37	25160.76
502.55	25240.34
502.72	25116.29
502.90	25390.13
503.07	25221.61
503.25	25666.31
503.43	25280.13
503.60	25551.63
503.78	25661.63
503.95	25593.76
504.13	25809.09
504.30	25823.13
504.48	25736.53
504.65	25898.03
504.83	26246.77
505.01	26136.76
505.18	26209.32
505.36	26497.20
505.53	26434.01
505.71	26553.38
505.88	27089.36
506.06	26934.88
506.23	27108.08
506.41	26602.53
506.58	26934.88
506.76	26953.61
506.93	27204.05
507.11	26951.27
507.28	27461.51
507.46	27627.68
507.63	27307.03
507.81	27681.52
507.98	27229.79
508.16	27637.05
508.33	27632.36
508.50	27786.84
508.68	27992.81
508.85	28379.00
509.03	28191.75
509.20	28180.05
509.38	28428.15
509.55	28016.21
509.73	28437.51
509.90	28774.55
510.08	28397.72
510.25	28760.50
510.42	28477.30
510.60	29149.03
510.77	28856.46
510.95	29039.03
511.12	29008.60
511.30	29029.66
511.47	29254.36
511.64	28940.72
511.82	30073.54
511.99	29165.42
512.17	29750.55
512.34	29277.76
512.51	29956.52
512.69	29577.35
512.86	29879.28
513.04	29865.24
513.21	29783.32
513.38	30185.89
513.56	30483.14
513.73	30419.94
513.90	30780.39
514.08	30148.44
514.25	30874.01
514.43	30838.90
514.60	30642.29
514.77	30543.99
514.95	31145.51
515.12	30866.98
515.29	30768.68
515.47	30920.82
515.64	31204.02
515.81	30955.93
515.99	31105.72
516.16	31587.87
516.33	31274.24
516.51	31400.63
516.68	31370.20
516.85	31828.95
517.03	31452.12
517.20	31569.15
517.37	31672.13
517.54	31700.22
517.72	31999.80
517.89	32126.19
518.06	32151.94
518.24	32027.89
518.41	32196.41
518.58	31842.99
518.75	31770.43
518.93	32458.55
519.10	32084.06
519.27	32348.54
519.45	32533.45
519.62	32804.95
519.79	32716.01
519.96	32582.60
520.14	32790.91
520.31	32847.08
520.48	33383.06
520.65	33394.76
520.83	33535.20
521.00	33425.19
521.17	33537.54
521.34	33708.40
521.52	33518.81
521.69	33582.01
521.86	33537.54
522.03	33689.67
522.20	33996.28
522.38	33944.79
522.55	34183.52
522.72	33970.54
522.89	34132.03
523.07	34036.07
523.24	34099.26
523.41	34050.11
523.58	33982.24
523.75	34335.66
523.92	34588.44
524.10	34497.16
524.27	35061.22
524.44	34934.84
524.61	35136.12
524.78	35007.39
524.96	34665.67
525.13	35084.63
525.30	35105.70
525.47	34773.34
525.64	35292.94
525.81	35192.30
525.98	35351.45
526.16	35314.00
526.33	35253.15
526.50	35321.02
526.67	35646.36
526.84	35695.51
527.01	35255.49
527.18	35468.48
527.36	35475.50
527.53	35770.41
527.70	35910.84
527.87	35842.96
528.04	36137.87
528.21	35735.30
528.38	36006.80
528.55	36493.63
528.72	35948.29
528.89	36098.08
529.07	35859.35
529.24	36264.26
529.41	36474.91
529.58	36388.31
529.75	36318.09
529.92	36685.56
530.09	36348.52
530.26	36275.96
530.43	36587.25
530.60	36397.67
530.77	36914.93
530.94	36528.74
531.11	36823.65
531.28	37069.40
531.46	36800.24
531.63	36730.03
531.80	37081.11
531.97	37336.23
532.14	37373.67
532.31	37160.69
532.48	37572.62
532.65	37839.44
532.82	37195.79
532.99	37132.60
533.16	37560.92
533.33	38249.03
533.50	37649.86
533.67	37556.24
533.84	37577.30
534.01	37675.60
534.18	37502.40
534.35	38108.60
534.52	37830.08
534.69	38649.27
534.86	38064.13
535.03	38082.86
535.20	38199.88
535.37	38541.60
535.54	38440.96
535.71	38352.02
535.88	38436.28
536.05	38260.74
536.22	38789.70
536.38	38616.50
536.55	38464.36
536.72	38710.12
536.89	38438.62
537.06	38820.13
537.23	38871.62
537.40	38403.51
537.57	38550.96
537.74	38527.56
537.91	38691.40
538.08	39070.56
538.25	38742.89
538.42	39035.45
538.59	39585.48
538.75	39243.76
538.92	39196.95
539.09	39122.05
539.26	39440.37
539.43	39374.83
539.60	39473.13
539.77	39161.84
539.94	39728.25
540.11	39819.53
540.28	39573.78
540.44	39477.82
540.61	39707.19
540.78	39580.80
540.95	39491.86
541.12	40055.93
541.29	39927.20
541.46	39681.44
541.62	39934.22
541.79	39861.66
541.96	39758.68
542.13	39730.59
542.30	40308.71
542.47	40236.15
542.63	40154.23
542.80	41064.70
542.97	40748.73
543.14	40840.01
543.31	40161.25
543.48	40587.23
543.64	41258.96
543.81	40900.86
543.98	40940.65
544.15	40802.56
544.32	41200.45
544.48	41586.64
544.65	40861.07
544.82	40914.90
544.99	40629.36
545.16	41371.31
545.32	41141.94
545.49	41408.76
545.66	41687.28
545.83	41361.95
546.00	41170.02
546.16	41591.32
546.33	41563.23
546.50	40861.07
546.67	41684.94
546.83	40940.65
547.00	40861.07
547.17	41600.68
547.34	41642.81
547.50	41741.11
547.67	41790.27
547.84	42131.98
548.00	42099.22
548.17	42134.32
548.34	41879.21
548.51	42438.59
548.67	42087.51
548.84	42291.14
549.01	42059.43
549.18	42057.09
549.34	42384.76
549.51	42438.59
549.68	41881.55
549.84	42230.29
550.01	42188.16
550.18	42223.26
550.34	41773.88
550.51	42590.73
550.68	42703.07
550.84	42504.13
551.01	42948.83
551.18	42483.06
551.34	42602.43
551.51	42883.30
551.68	42792.01
551.84	42555.62
552.01	42806.06
552.18	42740.52
552.34	42625.84
552.51	42836.48
552.68	42691.37
552.84	43208.63
553.01	43278.85
553.18	42770.95
553.34	43229.69
553.51	42579.03
553.67	43019.05
553.84	43257.78
554.01	43484.81
554.17	42939.47
554.34	43164.16
554.51	43234.38
554.67	43379.49
554.84	43859.30
555.00	43054.15
555.17	42831.80
555.33	43342.04
555.50	43236.72
555.67	43477.79
555.83	43550.35
556.00	43585.46
556.16	43552.69
556.33	44086.33
556.50	43622.90
556.66	43571.41
556.83	43131.39
556.99	43835.89
557.16	44158.89
557.32	44109.74
557.49	44044.20
557.65	43636.95
557.82	43903.77
557.98	43969.30
558.15	43882.70
558.32	44053.56
558.48	43859.30
558.65	44147.18
558.81	43791.42
558.98	43798.44
559.14	44004.41
559.31	43817.17
559.47	44060.58
559.64	44205.70
559.80	44318.04
559.97	44069.95
560.13	43838.23
560.30	44568.48
560.46	44514.65
560.63	44355.49
560.79	44390.60
560.96	44566.14
561.12	44399.96
561.29	44495.92
561.45	44449.11
561.61	44325.07
561.78	44266.55
561.94	44542.74
562.11	44292.30
562.27	44470.18
562.44	44516.99
562.60	44662.10
562.77	44594.23
562.93	44706.57
563.10	44975.73
563.26	44685.51
563.42	44985.10
563.59	44842.32
563.75	44493.58
563.92	44762.75
564.08	44835.30
564.24	44694.87
564.41	44868.07
564.57	44804.88
564.74	44685.51
564.90	44795.51
565.07	44865.73
565.23	44847.00
565.39	44685.51
565.56	45074.04
565.72	44910.20
565.88	44828.28
566.05	45195.74
566.21	44720.62
566.38	44947.65
566.54	44713.59
566.70	45198.09
566.87	44907.86
567.03	44935.95
567.19	45258.94
567.36	44933.60
567.52	45296.39
567.68	45418.10
567.85	45305.75
568.01	45450.86
568.17	45352.56
568.34	45282.34
568.50	44847.00
568.66	45059.99
568.83	45574.91
568.99	45104.46
569.15	45689.60
569.32	45382.99
569.48	45219.15
569.64	45502.35
569.81	45172.34
569.97	45647.47
570.13	45635.77
570.30	44912.54
570.46	45357.24
570.62	45928.33
570.78	45453.20
570.95	45738.75
571.11	45757.47
571.27	45579.59
571.43	45338.52
571.60	45439.16
571.76	45354.90
571.92	45785.56
572.09	45177.02
572.25	45287.03
572.41	45242.56
572.57	45542.14
572.74	45963.44
572.90	45390.01
573.06	45792.58
573.22	45312.77
573.38	45867.48
573.55	45720.02
573.71	45792.58
573.87	45734.07
574.03	45743.43
574.20	45975.14
574.36	45968.12
574.52	45523.42
574.68	45574.91
574.84	45691.94
575.01	45888.54
575.17	45844.07
575.33	45750.45
575.49	45268.30
575.65	45858.12
575.82	46103.87
575.98	45638.11
576.14	45436.82
576.30	45869.82
576.46	45823.01
576.62	45797.26
576.79	45900.25
576.95	45537.46
577.11	45918.97
577.27	45862.80
577.43	45750.45
577.59	45830.03
577.75	45837.05
577.92	45361.92
578.08	45727.05
578.24	45923.65
578.40	46094.51
578.56	46117.92
578.72	46312.18
578.88	46052.38
579.04	46045.36
579.21	46185.79
579.37	45759.81
579.53	45752.79
579.69	45923.65
579.85	45933.01
580.01	46256.01
580.17	45801.94
580.33	46450.27
580.49	46169.41
580.65	45900.25
580.82	45881.52
580.98	45925.99
581.14	45450.86
581.30	46340.27
581.46	45785.56
581.62	46146.00
581.78	45790.24
581.94	46351.97
582.10	46028.98
582.26	45918.97
582.42	45574.91
582.58	45904.93
582.74	46103.87
582.90	45844.07
583.06	46021.95
583.22	45839.39
583.38	46043.02
583.54	46293.46
583.70	46253.67
583.86	46089.83
584.02	45951.74
584.18	46272.39
584.34	46122.60
584.50	46794.33
584.66	46288.77
584.82	46319.20
584.98	46782.63
585.14	46403.46
585.30	46129.62
585.46	46038.34
585.62	45975.14
585.78	46347.29
585.94	45485.97
586.10	46206.86
586.26	46099.19
586.42	46373.03
586.58	46447.93
586.74	45635.77
586.90	45914.29
587.06	45748.11
587.22	46033.66
587.38	46160.05
587.54	45970.46
587.70	46412.82
587.86	46291.12
588.02	46534.53
588.18	46256.01
588.34	46101.53
588.49	46370.69
588.65	45649.81
588.81	45869.82
588.97	46253.67
589.13	45872.16
589.29	45911.95
589.45	46906.68
589.61	46394.10
589.77	46799.01
589.93	46337.93
590.08	46600.07
590.24	46698.37
590.40	46717.09
590.56	46820.08
590.72	47161.79
590.88	46768.58
591.04	46422.19
591.20	46902.00
591.35	46864.55
591.51	46927.74
591.67	46667.94
591.83	46658.58
591.99	46717.09
592.15	46628.15
592.31	46871.57
592.46	46974.55
592.62	46637.51
592.78	46836.46
592.94	46726.46
593.10	46742.84
593.26	46948.81
593.41	47054.13
593.57	46939.44
593.73	46799.01
593.89	47334.99
594.05	46738.16
594.20	46806.03
594.36	47255.42
594.52	46824.76
594.68	47065.83
594.84	46710.07
594.99	47323.29
595.15	47033.07
595.31	47002.64
595.47	46965.19
595.62	46843.48
595.78	46391.76
595.94	46944.12
596.10	47107.96
596.25	46883.27
596.41	47264.78
596.57	46850.50
596.73	47103.28
596.88	46791.99
597.04	47061.15
597.20	46930.08
597.36	46873.91
597.51	47021.36
597.67	46342.61
597.83	46644.54
597.99	46873.91
598.14	46876.25
598.30	46590.70
598.46	46731.14
598.61	46848.16
598.77	47250.74
598.93	46953.49
599.09	47409.89
599.24	47613.52
599.40	47040.09
599.56	46862.21
599.71	47440.32
599.87	47760.97
600.03	47430.96
600.18	46726.46
600.34	47030.72
600.50	47253.08
600.65	46986.25
600.81	47669.69
600.97	47295.21
601.12	47161.79
601.28	47290.52
601.44	47091.58
601.59	46932.42
601.75	47257.76
601.91	47264.78
602.06	47428.62
602.22	47475.43
602.37	47105.62
602.53	47325.63
602.69	47372.44
602.84	47351.38
603.00	47100.94
603.16	46962.85
603.31	46803.69
603.47	47171.16
603.62	47281.16
603.78	47398.19
603.94	47178.18
604.09	46869.23
604.25	47000.30
604.40	47047.11
604.56	47012.00
604.71	47246.05
604.87	46997.96
605.03	47035.41
605.18	46831.78
605.34	47035.41
605.49	46698.37
605.65	47164.14
605.80	46796.67
605.96	46909.02
606.12	46546.23
606.27	46728.80
606.43	46560.28
606.58	46979.23
606.74	46997.96
606.89	46946.47
607.05	46986.25
607.20	47203.92
607.36	47037.75
607.51	46925.40
607.67	46403.46
607.82	46602.41
607.98	46897.31
608.13	46906.68
608.29	46913.70
608.44	46990.94
608.60	46644.54
608.75	46974.55
608.91	46733.48
609.06	46571.98
609.22	47000.30
609.37	46389.42
609.53	46827.10
609.68	46923.06
609.84	46632.83
609.99	46614.11
610.15	47182.86
610.30	46567.30
610.46	46494.74
610.61	46576.66
610.76	46887.95
610.92	46354.31
611.07	46314.52
611.23	46576.66
611.38	46593.04
611.54	46887.95
611.69	46630.49
611.84	46719.43
612.00	46621.13
612.15	46639.86
612.31	47070.51
612.46	46300.48
612.62	46635.17
612.77	46106.21
612.92	46927.74
613.08	46813.05
613.23	46560.28
613.39	46478.36
613.54	46497.08
613.69	46384.74
613.85	46674.96
614.00	46422.19
614.15	46756.88
614.31	46190.47
614.46	46082.81
614.62	45991.53
614.77	46583.68
614.92	46487.72
615.08	46340.27
615.23	46497.08
615.38	46686.67
615.54	46319.20
615.69	46007.91
615.84	46630.49
616.00	46925.40
616.15	46415.16
616.30	46328.56
616.46	46478.36
616.61	46335.59
616.76	46223.24
616.92	46073.45
617.07	46342.61
617.22	46279.41
617.37	45591.30
617.53	46136.64
617.68	46223.24
617.83	46113.23
617.99	46227.92
618.14	46146.00
618.29	46068.76
618.45	45738.75
618.60	45483.63
618.75	45794.92
618.90	45783.22
619.06	45867.48
619.21	46066.42
619.36	46593.04
619.51	45792.58
619.67	45446.18
619.82	45708.32
619.97	45935.35
620.12	45401.71
620.28	45617.04
620.43	45759.81
620.58	45839.39
620.73	46117.92
620.89	45808.96
621.04	45584.27
621.19	45748.11
621.34	45207.45
621.49	45549.17
621.65	45186.38
621.80	45773.86
621.95	45525.76
622.10	45853.44
622.25	45242.56
622.41	45453.20
622.56	45436.82
622.71	45392.35
622.86	45588.95
623.01	45869.82
623.16	45282.34
623.32	45502.35
623.47	45422.78
623.62	45268.30
623.77	45350.22
623.92	45118.51
624.07	45244.90
624.23	45184.04
624.38	45387.67
624.53	45186.38
624.68	45125.53
624.83	44793.17
624.98	44919.56
625.13	45052.97
625.29	45209.79
625.44	44886.79
625.59	44706.57
625.74	44877.43
625.89	44465.50
626.04	44900.84
626.19	45059.99
626.34	44552.10
626.49	44491.24
626.65	44257.19
626.80	44821.26
626.95	44608.27
627.10	44421.03
627.25	44795.51
627.40	44992.12
627.55	44861.05
627.70	44250.17
627.85	44947.65
628.00	44744.02
628.15	44774.45
628.30	44116.76
628.45	44514.65
628.60	44107.40
628.76	44245.49
628.91	44257.19
629.06	44208.04
629.21	43969.30
629.36	43786.74
629.51	43863.98
629.66	44814.24
629.81	44163.57
629.96	44371.88
630.11	44287.62
630.26	44161.23
630.41	44163.57
630.56	44315.70
630.71	44147.18
630.86	44257.19
631.01	43866.32
631.16	44336.77
631.31	44364.85
631.46	43718.87
631.61	44093.35
631.76	44596.57
631.91	43976.33
632.06	44009.09
632.21	44053.56
632.36	44121.44
632.51	43805.47
632.66	44013.77
632.81	43466.09
632.96	44095.69
633.10	43824.19
633.25	43700.14
633.40	44114.42
633.55	43943.56
633.70	43674.40
633.85	43641.63
634.00	43831.21
634.15	43318.64
634.30	43604.18
634.45	43461.41
634.60	43585.46
634.75	43796.10
634.90	43407.58
635.05	43697.80
635.19	43683.76
635.34	43784.40
635.49	43168.84
635.64	43782.06
635.79	43665.03
635.94	43374.81
636.09	43683.76
636.24	43044.79
636.39	43199.27
636.53	43253.10
636.68	42951.17
636.83	42749.88
636.98	43412.26
637.13	42665.63
637.28	42923.08
637.43	42988.62
637.57	42869.25
637.72	42857.55
637.87	43119.69
638.02	42955.85
638.17	42937.13
638.32	42845.85
638.46	42490.09
638.61	43056.50
638.76	42775.63
638.91	42770.95
639.06	42478.38
639.20	42553.28
639.35	42604.77
639.50	42588.39
639.65	43100.97
639.80	42930.11
639.94	42656.26
640.09	43126.71
640.24	42527.53
640.39	42141.35
640.54	42344.97
640.68	42789.67
640.83	42792.01
640.98	42211.56
641.13	41993.89
641.27	42693.71
641.42	42574.34
641.57	42457.32
641.72	42260.71
641.86	42202.20
642.01	42040.70
642.16	42314.55
642.31	41525.78
642.45	42218.58
642.60	41993.89
642.75	42560.30
642.90	42522.85
643.04	42218.58
643.19	42412.85
643.34	42019.64
643.48	41951.76
643.63	41853.46
643.78	42167.09
643.93	42253.69
644.07	42045.38
644.22	42010.28
644.37	42007.94
644.51	42000.91
644.66	41907.29
644.81	41965.81
644.95	41972.83
645.10	41862.82
645.25	41408.76
645.39	41694.30
645.54	41486.00
645.69	41766.86
645.83	41137.26
645.98	41343.22
646.13	41486.00
646.27	41682.60
646.42	40903.20
646.57	41490.68
646.71	41373.65
646.86	41743.45
647.00	41556.21
647.15	41502.38
647.30	41600.68
647.44	41570.25
647.59	41579.62
647.74	41195.77
647.88	41296.41
648.03	41918.99
648.17	41965.81
648.32	41336.20
648.47	41635.79
648.61	41090.44
648.76	41167.68
648.90	40952.35
649.05	41212.15
649.20	41371.31
649.34	41439.18
649.49	41383.01
649.63	41031.93
649.78	41493.02
649.92	41258.96
650.07	41350.24
650.21	41221.52
650.36	41488.34
650.51	41132.57
650.65	41165.34
650.80	41247.26
650.94	41305.77
651.09	40638.72
651.23	40383.60
651.38	40601.27
651.52	40346.15
651.67	40463.18
651.81	40350.84
651.96	40758.09
652.10	40320.41
652.25	40463.18
652.39	40657.45
652.54	40898.52
652.68	40460.84
652.83	40245.51
652.97	40437.44
653.12	40458.50
653.26	40053.59
653.41	40376.58
653.55	40493.61
653.70	40711.28
653.84	40643.40
653.99	40734.68
654.13	39990.39
654.27	40446.80
654.42	40617.66
654.56	40357.86
654.71	40488.93
654.85	40271.26
655.00	40542.76
655.14	40341.47
655.29	40383.60
655.43	40769.79
655.57	40294.66
655.72	40378.92
655.86	39761.02
656.01	39782.09
656.15	39765.70
656.30	39819.53
656.44	39988.05
656.58	40292.32
656.73	39856.98
656.87	39646.33
657.01	39636.97
657.16	40037.20
657.30	39779.74
657.45	39651.02
657.59	39597.18
657.73	39435.69
657.88	39864.00
658.02	40187.00
658.16	40081.67
658.31	39522.29
658.45	39576.12
658.60	39533.99
658.74	39388.88
658.88	39388.88
659.03	39309.30
659.17	38979.28
659.31	39150.14
659.46	39304.62
659.60	39178.23
659.74	38972.26
659.89	38899.70
660.03	38948.85
660.17	38770.97
660.32	38960.56
660.46	38834.17
660.60	38455.00
660.74	38787.36
660.89	38824.81
661.03	38424.57
661.17	38590.75
661.32	38342.66
661.46	38508.83
661.60	38768.63
661.74	38637.56
661.89	38396.49
662.03	38373.08
662.17	38000.94
662.31	38408.19
662.46	37984.55
662.60	37902.64
662.74	37909.66
662.88	38024.34
663.03	37628.79
663.17	38061.79
663.31	37949.45
663.45	38078.18
663.60	38031.36
663.74	37944.76
663.88	37811.35
664.02	37439.21
664.17	38127.33
664.31	37392.40
664.45	37748.16
664.59	37809.01
664.73	37603.05
664.88	37507.08
665.02	36851.73
665.16	37504.74
665.30	37385.38
665.44	37500.06
665.59	37223.88
665.73	36811.95
665.87	36765.14
666.01	37153.66
666.15	36542.78
666.29	36765.14
666.44	36765.14
666.58	37186.43
666.72	36718.32
666.86	36589.59
667.00	36486.61
667.14	36481.93
667.28	36458.52
667.43	36666.83
667.57	36292.35
667.71	36552.15
667.85	36748.75
667.99	36381.29
668.13	35964.67
668.27	35997.44
668.41	36212.77
668.56	35948.29
668.70	35693.17
668.84	35166.55
668.98	35557.42
669.12	36184.68
669.26	35381.88
669.40	35381.88
669.54	35644.02
669.68	35260.17
669.82	35431.03
669.96	35218.04
670.10	34883.34
670.25	34838.87
670.39	35255.49
670.53	35400.60
670.67	34948.88
670.81	35058.88
670.95	35164.21
671.09	34976.97
671.23	34923.13
671.37	35058.88
671.51	34550.99
671.65	34574.39
671.79	34724.19
671.93	34904.41
672.07	34670.36
672.21	34272.46
672.35	34167.14
672.49	34022.03
672.63	33935.43
672.77	33741.16
672.91	34068.84
673.05	33933.09
673.19	33553.92
673.33	33720.10
673.47	33895.64
673.61	33457.96
673.75	33244.97
673.89	33263.69
674.03	33205.18
674.17	33024.96
674.31	32910.27
674.45	33486.04
674.59	33331.57
674.73	32851.76
674.87	32566.21
675.01	32381.31
675.15	32631.75
675.29	32589.62
675.43	32196.41
675.56	32479.61
675.70	32493.66
675.84	32353.23
675.98	31601.91
676.12	31611.28
676.26	32430.46
676.40	31585.53
676.54	31534.04
676.68	31620.64
676.82	31180.62
676.96	31679.15
677.10	31599.57
677.23	31826.60
677.37	31367.86
677.51	31512.97
677.65	31405.31
677.79	30976.99
677.93	30960.61
678.07	30995.71
678.21	30813.15
678.34	30443.35
678.48	30359.09
678.62	30228.02
678.76	30293.55
678.90	30422.28
679.04	30050.14
679.18	30433.99
679.31	30122.69
679.45	29993.97
679.59	29797.36
679.73	30005.67
679.87	29589.05
680.00	29338.62
680.14	29380.74
680.28	29553.94
680.42	29652.25
680.56	29263.72
680.70	29387.77
680.83	29521.18
680.97	28854.12
681.11	28959.45
681.25	28617.73
681.39	28142.60
681.52	28236.22
681.66	28304.10
681.80	28154.30
681.94	27814.93
682.07	28158.99
682.21	27850.03
682.35	27894.50
682.49	28020.89
682.62	27756.41
682.76	27985.79
682.90	27566.83
683.04	27501.29
683.17	27051.91
683.31	27016.80
683.45	27063.61
683.59	26874.03
683.72	26483.16
683.86	26710.19
684.00	26595.51
684.13	26579.12
684.27	26464.44
684.41	26614.23
684.55	26759.34
684.68	26316.98
684.82	26167.19
684.96	26167.19
685.09	26005.69
685.23	26408.26
685.37	26024.42
685.50	26668.06
685.64	26345.07
685.78	25497.80
685.91	25589.08
686.05	25036.71
686.19	24868.19
686.32	25036.71
686.46	24694.99
686.60	25003.94
686.73	24875.21
686.87	24655.20
687.01	25120.97
687.14	25069.48
687.28	24709.04
687.42	24313.48
687.55	24547.54
687.69	24428.17
687.82	24226.89
687.96	24269.01
688.10	24299.44
688.23	24126.24
688.37	24327.53
688.50	24339.23
688.64	23688.56
688.78	23632.39
688.91	23768.14
689.05	23665.16
689.18	23234.50
689.32	22918.53
689.46	23110.45
689.59	22803.84
689.73	23264.92
689.86	23342.16
690.00	22986.40
690.13	23056.62
690.27	22616.60
690.41	22705.54
690.54	22225.73
690.68	22445.74
690.81	22394.25
690.95	22195.30
691.08	22031.46
691.22	22031.46
691.35	21678.04
691.49	21827.84
691.62	21867.63
691.76	21626.55
691.89	21486.12
692.03	21338.66
692.16	21116.31
692.30	21085.89
692.43	21092.91
692.57	21015.67
692.70	21006.31
692.84	20723.10
692.97	20706.72
693.11	20861.19
693.24	20498.41
693.38	20559.27
693.51	20144.99
693.65	20533.52
693.78	20306.49
693.92	20243.29
694.05	20091.16
694.19	20095.84
694.32	20018.60
694.45	20297.13
694.59	19873.49
694.72	20102.86
694.86	19529.43
694.99	19470.92
695.13	19234.52
695.26	19419.42
695.39	19183.03
695.53	19264.95
695.66	19023.87
695.80	19133.88
695.93	19286.01
696.07	18785.14
696.20	18740.67
696.33	18291.29
696.47	18525.34
696.60	18366.18
696.73	18480.87
696.87	18635.35
697.00	18569.81
697.14	17933.18
697.27	18026.81
697.40	18291.29
697.54	17851.27
697.67	17799.77
697.80	17965.95
697.94	17713.17
698.07	17357.41
698.21	17542.32
698.34	17336.35
698.47	17392.52
698.61	16959.52
698.74	17149.11
698.87	17209.96
699.01	16966.54
699.14	16985.27
699.27	17062.51
699.40	16500.78
699.54	16795.68
699.67	16704.40
699.80	16781.64
699.94	16381.41
700.07	16259.70
700.20	16386.09
700.34	16332.26
700.47	16140.33
700.60	16355.66
700.73	16126.29
700.87	15866.49
701.00	15878.19
701.13	15651.16
701.26	15609.03
701.40	15653.50
701.53	15564.56
701.66	15318.81
701.79	15337.53
701.93	15367.96
702.06	15393.70
702.19	15204.12
702.32	15157.31
702.46	15253.27
702.59	14956.02
702.72	15264.97
702.85	15059.01
702.99	14787.50
703.12	14626.01
703.25	14504.30
703.38	14567.49
703.51	14464.51
703.65	14272.59
703.78	14263.22
703.91	14178.97
704.04	14104.07
704.17	14197.69
704.31	14277.27
704.44	14134.50
704.57	14043.21
704.70	13767.03
704.83	13804.48
704.96	13565.74
705.10	13659.37
705.23	13444.04
>>>>>End Processed Spectral Data<<<<<
