SpectraSuite Data File
++++++++++++++++++++++++++++++++++++
Date: Fri Oct 25 11:34:09 EDT 2013
User: price-jones
Dark Spectrum Present: No
Reference Spectrum Present: No
Number of Sampled Component Spectra: 1
Spectrometers: USB2+H05261
Integration Time (usec): 100000 (USB2+H05261)
Spectra Averaged: 1 (USB2+H05261)
Boxcar Smoothing: 0 (USB2+H05261)
Correct for Electrical Dark: No (USB2+H05261)
Strobe/Lamp Enabled: No (USB2+H05261)
Correct for Detector Non-linearity: No (USB2+H05261)
Correct for Stray Light: No (USB2+H05261)
Number of Pixels in Processed Spectrum: 2048
>>>>>Begin Processed Spectral Data<<<<<
365.73	290.23
365.92	290.23
366.12	290.23
366.32	198.95
366.52	191.92
366.72	248.10
366.91	147.45
367.11	238.73
367.31	220.01
367.51	131.07
367.70	180.22
367.90	124.05
368.10	187.24
368.30	117.03
368.49	145.11
368.69	245.76
368.89	220.01
369.09	227.03
369.28	180.22
369.48	231.71
369.68	266.82
369.87	306.61
370.07	208.31
370.27	262.14
370.47	332.36
370.66	535.98
370.86	472.79
371.06	484.49
371.25	538.32
371.45	503.22
371.65	540.66
371.84	564.07
372.04	568.75
372.24	599.18
372.44	545.34
372.63	578.11
372.83	594.50
373.03	596.84
373.22	545.34
373.42	662.37
373.62	678.76
373.81	620.24
374.01	695.14
374.21	683.44
374.40	641.31
374.60	615.56
374.79	594.50
374.99	629.60
375.19	681.10
375.38	648.33
375.58	613.22
375.78	681.10
375.97	676.41
376.17	760.67
376.37	561.73
376.56	667.05
376.76	641.31
376.95	641.31
377.15	678.76
377.35	634.29
377.54	746.63
377.74	737.27
377.93	653.01
378.13	723.23
378.33	737.27
378.52	671.73
378.72	674.07
378.91	699.82
379.11	674.07
379.31	709.18
379.50	655.35
379.70	669.39
379.89	697.48
380.09	788.76
380.28	781.74
380.48	798.12
380.68	720.88
380.87	681.10
381.07	760.67
381.26	784.08
381.46	657.69
381.65	777.06
381.85	828.55
382.04	856.64
382.24	767.70
382.43	727.91
382.63	765.36
382.83	805.14
383.02	802.80
383.22	763.01
383.41	767.70
383.61	791.10
383.80	774.72
384.00	704.50
384.19	851.96
384.39	781.74
384.58	880.04
384.78	793.44
384.97	816.85
385.17	819.19
385.36	706.84
385.56	828.55
385.75	847.27
385.95	823.87
386.14	863.66
386.34	727.91
386.53	917.49
386.72	795.78
386.92	933.87
387.11	884.72
387.31	866.00
387.50	835.57
387.70	802.80
387.89	891.74
388.09	849.61
388.28	835.57
388.48	849.61
388.67	903.45
388.86	922.17
389.06	868.34
389.25	964.30
389.45	947.92
389.64	905.79
389.84	945.58
390.03	931.53
390.22	947.92
390.42	997.07
390.61	922.17
390.81	968.98
391.00	1050.90
391.19	978.34
391.39	866.00
391.58	1018.13
391.78	999.41
391.97	1020.47
392.16	868.34
392.36	1001.75
392.55	1041.54
392.75	1093.03
392.94	952.60
393.13	1020.47
393.33	1032.18
393.52	1057.92
393.71	1034.52
393.91	1116.44
394.10	1053.24
394.29	1048.56
394.49	1015.79
394.68	1076.65
394.88	1149.20
395.07	1095.37
395.26	1135.16
395.46	1078.99
395.65	1130.48
395.84	1252.19
396.04	1142.18
396.23	1249.85
396.42	1158.57
396.62	1188.99
396.81	1217.08
397.00	1116.44
397.19	1198.35
397.39	1137.50
397.58	1214.74
397.77	1240.48
397.97	1200.69
398.16	1198.35
398.35	1266.23
398.55	1224.10
398.74	1170.27
398.93	1188.99
399.12	1273.25
399.32	1233.46
399.51	1221.76
399.70	1322.40
399.90	1308.36
400.09	1270.91
400.28	1397.30
400.47	1411.34
400.67	1350.49
400.86	1406.66
401.05	1460.49
401.24	1380.92
401.44	1317.72
401.63	1401.98
401.82	1383.26
402.01	1369.21
402.21	1418.36
402.40	1486.24
402.59	1411.34
402.78	1469.86
402.97	1423.05
403.17	1474.54
403.36	1579.86
403.55	1554.12
403.74	1598.59
403.93	1584.54
404.13	1570.50
404.32	1528.37
404.51	1577.52
404.70	1577.52
404.89	1610.29
405.09	1715.61
405.28	1682.85
405.47	1666.46
405.66	1706.25
405.85	1671.14
406.05	1703.91
406.24	1666.46
406.43	1652.42
406.62	1832.64
406.81	1804.55
407.00	1774.13
407.20	1795.19
407.39	1692.21
407.58	1832.64
407.77	1860.73
407.96	1823.28
408.15	1727.32
408.34	1818.60
408.54	1870.09
408.73	1792.85
408.92	1877.11
409.11	1982.43
409.30	1935.62
409.49	1930.94
409.68	1919.24
409.87	1961.37
410.07	1980.09
410.26	2073.71
410.45	1994.14
410.64	2090.10
410.83	2069.03
411.02	2115.84
411.21	2106.48
411.40	2031.58
411.59	2172.02
411.78	2073.71
411.98	2104.14
412.17	2134.57
412.36	2267.98
412.55	2275.00
412.74	2244.57
412.93	2218.83
413.12	2207.13
413.31	2413.09
413.50	2286.70
413.69	2286.70
413.88	2495.01
414.07	2438.84
414.26	2476.29
414.45	2380.32
414.64	2352.24
414.83	2551.18
415.02	2452.88
415.22	2551.18
415.41	2616.72
415.60	2642.46
415.79	2626.08
415.98	2684.59
416.17	2675.23
416.36	2708.00
416.55	2628.42
416.74	2736.09
416.93	2757.15
417.12	2796.94
417.31	2789.92
417.50	2789.92
417.69	2967.80
417.88	2834.39
418.07	2834.39
418.26	2895.24
418.45	2951.42
418.64	2916.31
418.83	2967.80
419.02	3002.91
419.21	3059.08
419.39	3049.72
419.58	2928.01
419.77	2988.86
419.96	3073.12
420.15	3141.00
420.34	3026.31
420.53	3126.96
420.72	3183.13
420.91	3183.13
421.10	3192.49
421.29	3229.94
421.48	3281.43
421.67	3136.32
421.86	3251.00
422.05	3122.27
422.24	3117.59
422.43	3073.12
422.61	3222.92
422.80	3386.76
422.99	3344.63
423.18	3356.33
423.37	3419.52
423.56	3293.13
423.75	3384.41
423.94	3272.07
424.13	3190.15
424.32	3094.19
424.50	3279.09
424.69	3375.05
424.88	3342.28
425.07	3480.38
425.26	3342.28
425.45	3251.00
425.64	3342.28
425.83	3485.06
426.01	3447.61
426.20	3412.50
426.39	3454.63
426.58	3304.84
426.77	3461.65
426.96	3375.05
427.15	3389.10
427.33	3555.27
427.52	3522.51
427.71	3527.19
427.90	3545.91
428.09	3609.11
428.28	3555.27
428.46	3618.47
428.65	3616.13
428.84	3721.45
429.03	3794.01
429.22	3723.79
429.40	3672.30
429.59	3695.71
429.78	3485.06
429.97	3641.87
430.16	3684.00
430.34	3794.01
430.53	3889.97
430.72	3777.62
430.91	3758.90
431.10	3714.43
431.28	3794.01
431.47	3941.46
431.66	3934.44
431.85	3866.56
432.03	4030.40
432.22	4018.70
432.41	3983.59
432.60	3927.42
432.79	3976.57
432.97	4049.13
433.16	4028.06
433.35	3953.16
433.54	4025.72
433.72	4140.41
433.91	4086.58
434.10	4140.41
434.28	4042.11
434.47	4152.11
434.66	4138.07
434.85	4219.99
435.03	4313.61
435.22	4088.92
435.41	4351.06
435.59	4236.37
435.78	4248.07
435.97	4320.63
436.16	4423.61
436.34	4325.31
436.53	4322.97
436.72	4503.19
436.90	4203.60
437.09	4613.20
437.28	4346.37
437.46	4400.21
437.65	4503.19
437.84	4603.83
438.02	4613.20
438.21	4456.38
438.40	4440.00
438.58	4678.73
438.77	4692.77
438.96	4660.01
439.14	4727.88
439.33	4788.74
439.52	4692.77
439.70	4655.33
439.89	4961.94
440.08	4863.63
440.26	4819.16
440.45	4861.29
440.63	5046.20
440.82	5046.20
441.01	5008.75
441.19	5069.60
441.38	5090.67
441.57	5156.20
441.75	5167.90
441.94	5247.48
442.12	5310.68
442.31	5261.52
442.50	5355.15
442.68	5067.26
442.87	5448.77
443.05	5416.00
443.24	5434.72
443.43	5423.02
443.61	5521.32
443.80	5504.94
443.98	5507.28
444.17	5219.39
444.35	5427.70
444.54	5584.52
444.73	5584.52
444.91	5474.51
445.10	5500.26
445.28	5514.30
445.47	5600.90
445.65	5521.32
445.84	5598.56
446.02	5624.31
446.21	5453.45
446.39	5619.63
446.58	5650.05
446.77	5628.99
446.95	5551.75
447.14	5551.75
447.32	5729.63
447.51	5603.24
447.69	5624.31
447.88	5607.92
448.06	5617.29
448.25	5612.60
448.43	5652.39
448.62	5701.54
448.80	5624.31
448.99	5724.95
449.17	5654.73
449.36	5785.80
449.54	5987.09
449.73	5930.92
449.91	5891.13
450.10	5928.58
450.28	5825.59
450.46	5959.00
450.65	6139.23
450.83	5954.32
451.02	5886.45
451.20	6052.63
451.39	6146.25
451.57	5877.09
451.76	5860.70
451.94	5991.77
452.13	6090.07
452.31	6127.52
452.49	5963.68
452.68	6108.80
452.86	6087.73
453.05	6284.34
453.23	6164.97
453.42	6181.35
453.60	6150.93
453.78	6335.83
453.97	6171.99
454.15	6232.85
454.34	6132.20
454.52	6333.49
454.70	6331.15
454.89	6354.55
455.07	6300.72
455.26	6707.98
455.44	6492.65
455.62	6525.41
455.81	6487.96
455.99	6590.95
456.17	6532.44
456.36	6621.38
456.54	6661.16
456.73	6661.16
456.91	6677.55
457.09	6848.41
457.28	6951.39
457.46	6686.91
457.64	6904.58
457.83	7047.35
458.01	6904.58
458.19	7087.14
458.38	6703.29
458.56	6946.71
458.74	6995.86
458.93	6857.77
459.11	7084.80
459.29	7042.67
459.48	6991.18
459.66	7126.93
459.84	7220.55
460.03	7119.91
460.21	7183.10
460.39	7150.34
460.57	7360.98
460.76	7155.02
460.94	7365.67
461.12	7318.86
461.31	7232.26
461.49	7391.41
461.67	7258.00
461.85	7372.69
462.04	7356.30
462.22	7669.94
462.40	7323.54
462.59	7375.03
462.77	7487.37
462.95	7468.65
463.13	7492.05
463.32	7492.05
463.50	7915.69
463.68	7693.34
463.86	7758.88
464.05	7831.43
464.23	7646.53
464.41	7805.69
464.59	7630.15
464.78	7709.72
464.96	7775.26
465.14	7864.20
465.32	7850.16
465.50	7918.03
465.69	7925.05
465.87	7843.14
466.05	7840.79
466.23	7840.79
466.41	8147.40
466.60	8126.34
466.78	7967.18
466.96	7866.54
467.14	8070.17
467.32	8152.09
467.51	8119.32
467.69	7960.16
467.87	8023.36
468.05	8196.56
468.23	8189.53
468.41	8262.09
468.60	8236.35
468.78	8238.69
468.96	8229.32
469.14	8489.12
469.32	8381.46
469.50	8311.24
469.69	8355.71
469.87	8404.86
470.05	8430.61
470.23	8449.33
470.41	8739.56
470.59	8512.53
470.77	8514.87
470.95	8592.11
471.14	8819.14
471.32	8571.04
471.50	8709.13
471.68	8901.06
471.86	8901.06
472.04	8828.50
472.22	8990.00
472.40	8826.16
472.58	8966.59
472.77	9050.85
472.95	9301.29
473.13	9518.96
473.31	8980.64
473.49	9102.34
473.67	9343.42
473.85	9317.67
474.03	9392.57
474.21	9476.83
474.39	9458.10
474.57	9605.56
474.75	9687.48
474.93	9621.94
475.12	9827.91
475.30	9694.50
475.48	9724.93
475.66	9713.22
475.84	9951.96
476.02	10066.64
476.20	9982.38
476.38	10073.67
476.56	10204.74
476.74	10200.05
476.92	10190.69
477.10	10221.12
477.28	10307.72
477.46	10452.83
477.64	10441.13
477.82	10516.03
478.00	10841.36
478.18	10736.04
478.36	11042.65
478.54	11131.59
478.72	11070.73
478.90	11119.89
479.08	11309.47
479.26	11569.27
479.44	11386.71
479.62	11487.35
479.80	11609.06
479.98	11662.89
480.16	12109.93
480.34	11566.93
480.52	11929.71
480.70	11943.75
480.88	11557.57
481.06	12081.85
481.24	12119.29
481.41	12236.32
481.59	12533.57
481.77	12442.29
481.95	12475.06
482.13	12753.58
482.31	12531.23
482.49	13008.70
482.67	12725.49
482.85	13167.85
483.03	13289.56
483.21	13481.49
483.39	13451.06
483.57	13415.95
483.74	13343.39
483.92	13511.91
484.10	13635.96
484.28	13886.40
484.46	14169.60
484.64	14464.51
484.82	13944.91
485.00	13930.87
485.18	14534.73
485.35	14663.46
485.53	14956.02
485.71	14616.65
485.89	15005.17
486.07	14813.25
486.25	15255.61
486.43	15075.39
486.61	15140.93
486.78	15473.28
486.96	15545.84
487.14	15564.56
487.32	15702.65
487.50	15852.45
487.68	15515.41
487.85	16166.08
488.03	16121.61
488.21	16432.90
488.39	16563.97
488.57	16788.66
488.75	16755.90
488.92	17060.16
489.10	17334.01
489.28	17195.92
489.46	17228.68
489.64	17310.60
489.81	17542.32
489.99	17879.35
490.17	17570.40
490.35	17607.85
490.53	17617.21
490.70	18377.89
490.88	18178.94
491.06	18286.61
491.24	18518.32
491.41	18597.90
491.59	18675.13
491.77	18445.76
491.95	18927.91
492.13	19323.46
492.30	19000.47
492.48	19019.19
492.66	19410.06
492.84	19129.20
493.01	19545.81
493.19	19569.22
493.37	19721.35
493.54	19920.30
493.72	20346.28
493.90	20002.22
494.08	20201.16
494.25	20236.27
494.43	20692.68
494.61	20624.80
494.79	20568.63
494.96	20650.55
495.14	21116.31
495.32	21116.31
495.49	20868.22
495.67	21181.85
495.85	21474.42
496.02	21329.30
496.20	21586.76
496.38	21720.17
496.55	21982.31
496.73	22108.70
496.91	21776.34
497.09	22040.82
497.26	22244.45
497.44	22476.16
497.62	22485.53
497.79	22939.59
497.97	22347.44
498.14	22916.19
498.32	22988.74
498.50	23243.86
498.67	23154.92
498.85	23042.57
499.03	23297.69
499.20	23501.32
499.38	23688.56
499.56	23681.54
499.73	23728.35
499.91	24058.37
500.08	24332.21
500.26	23648.77
500.44	23967.09
500.61	24065.39
500.79	24159.01
500.97	24409.45
501.14	24528.81
501.32	24727.76
501.49	24507.75
501.67	24765.21
501.84	24891.60
502.02	24388.38
502.20	24973.52
502.37	25404.17
502.55	25029.69
502.72	25127.99
502.90	25514.18
503.07	25228.63
503.25	25280.13
503.43	25032.03
503.60	25834.83
503.78	25893.35
503.95	25326.94
504.13	25781.00
504.30	25956.54
504.48	25766.96
504.65	26101.65
504.83	26099.31
505.01	26691.47
505.18	26361.45
505.36	26747.64
505.53	26249.11
505.71	26651.68
505.88	26780.41
506.06	26380.18
506.23	26785.09
506.41	27124.47
506.58	26974.67
506.76	26789.77
506.93	27122.13
507.11	27292.99
507.28	27515.34
507.46	27307.03
507.63	27754.07
507.81	27564.49
507.98	27466.19
508.16	27388.95
508.33	28004.51
508.50	28163.67
508.68	27854.72
508.85	27962.38
509.03	28247.93
509.20	28402.40
509.38	28453.89
509.55	28416.44
509.73	28580.28
509.90	28526.45
510.08	28800.29
510.25	28826.04
510.42	28704.33
510.60	29369.04
510.77	29151.37
510.95	29326.91
511.12	28903.28
511.30	29418.19
511.47	29298.83
511.64	29125.63
511.82	29549.26
511.99	29284.78
512.17	29427.56
512.34	29855.87
512.51	29993.97
512.69	30225.68
512.86	29982.26
513.04	29916.73
513.21	30167.16
513.38	30190.57
513.56	30230.36
513.73	30045.46
513.90	30143.76
514.08	30043.12
514.25	30859.96
514.43	30932.52
514.60	30813.15
514.77	30637.61
514.95	30888.05
515.12	30883.37
515.29	30995.71
515.47	31330.41
515.64	31395.95
515.81	30888.05
515.99	31042.53
516.16	31817.24
516.33	31204.02
516.51	31805.54
516.68	31356.16
516.85	31288.28
517.03	31763.41
517.20	31913.20
517.37	31737.66
517.54	32224.50
517.72	31955.33
517.89	31524.68
518.06	32100.45
518.24	32233.86
518.41	31983.42
518.58	32165.98
518.75	31922.57
518.93	32701.96
519.10	32620.05
519.27	32680.90
519.45	32694.94
519.62	32563.87
519.79	32732.39
519.96	33043.68
520.14	33151.35
520.31	32627.07
520.48	33301.14
520.65	32996.87
520.83	33811.38
521.00	33546.90
521.17	33535.20
521.34	33315.19
521.52	33715.42
521.69	33729.46
521.86	33675.63
522.03	33759.89
522.20	33757.55
522.38	34305.23
522.55	33867.55
522.72	33993.94
522.89	33961.17
523.07	34078.20
523.24	34190.55
523.41	34384.81
523.58	34108.63
523.75	34658.65
523.92	34244.38
524.10	34562.69
524.27	34841.21
524.44	34815.47
524.61	34768.66
524.78	34888.03
524.96	34904.41
525.13	35021.44
525.30	35047.18
525.47	35218.04
525.64	34834.19
525.81	35646.36
525.98	35356.13
526.16	34995.69
526.33	35164.21
526.50	35765.73
526.67	35601.89
526.84	35620.61
527.01	35545.72
527.18	35580.82
527.36	35910.84
527.53	35995.10
527.70	36442.14
527.87	35674.45
528.04	36004.46
528.21	35901.48
528.38	36034.89
528.55	36170.64
528.72	36123.83
528.89	36500.65
529.07	36238.51
529.24	35878.07
529.41	36421.08
529.58	36400.01
529.75	36304.05
529.92	36734.71
530.09	36264.26
530.26	36781.52
530.43	36966.42
530.60	36512.36
530.77	36531.08
530.94	37127.92
531.11	36891.52
531.28	36671.51
531.46	37106.85
531.63	37001.53
531.80	36840.03
531.97	37277.71
532.14	37137.28
532.31	36975.78
532.48	37347.93
532.65	37876.89
532.82	37301.12
532.99	37406.44
533.16	37469.64
533.33	37769.22
533.50	37792.63
533.67	37034.30
533.84	37490.70
534.01	37799.65
534.18	37549.21
534.35	37912.00
534.52	38160.09
534.69	38370.74
534.86	38557.99
535.03	37907.32
535.20	38120.31
535.37	38377.76
535.54	38274.78
535.71	38302.87
535.88	38623.52
536.05	38323.93
536.22	38808.42
536.38	38424.57
536.55	38663.31
536.72	38553.30
536.89	38920.77
537.06	38962.90
537.23	39077.58
537.40	39019.07
537.57	38487.77
537.74	38532.24
537.91	38742.89
538.08	38792.04
538.25	38464.36
538.42	39328.02
538.59	39660.38
538.75	38749.91
538.92	39398.24
539.09	39093.97
539.26	39360.79
539.43	39557.39
539.60	39075.24
539.77	39482.50
539.94	39716.55
540.11	39793.79
540.28	39838.26
540.44	39732.93
540.61	39641.65
540.78	39550.37
540.95	39416.96
541.12	39793.79
541.29	39154.82
541.46	39751.66
541.62	39695.49
541.79	40217.43
541.96	40006.78
542.13	39613.57
542.30	40395.31
542.47	39847.62
542.63	40556.80
542.80	40495.95
542.97	40538.08
543.14	40676.17
543.31	40680.85
543.48	40418.71
543.64	41097.47
543.81	41282.37
543.98	40910.22
544.15	40942.99
544.32	40940.65
544.48	41167.68
544.65	41181.73
544.82	41488.34
544.99	40884.48
545.16	40596.59
545.32	41486.00
545.49	41605.36
545.66	41378.33
545.83	41343.22
546.00	41811.33
546.16	41394.71
546.33	41474.29
546.50	41172.36
546.67	41532.81
546.83	41294.07
547.00	41371.31
547.17	40905.54
547.34	41944.74
547.50	42045.38
547.67	41918.99
547.84	42038.36
548.00	41862.82
548.17	42234.97
548.34	42220.92
548.51	42232.63
548.67	42293.48
548.84	42202.20
549.01	42218.58
549.18	42326.25
549.34	42101.56
549.51	42518.17
549.68	42209.22
549.84	42646.90
550.01	42564.98
550.18	42110.92
550.34	42405.83
550.51	42473.70
550.68	42677.33
550.84	42253.69
551.01	42752.23
551.18	42424.55
551.34	42471.36
551.51	42897.34
551.68	42972.24
551.84	42270.08
552.01	42593.07
552.18	42803.72
552.34	43058.84
552.51	43037.77
552.68	42660.94
552.84	42995.64
553.01	42897.34
553.18	43157.14
553.34	43044.79
553.51	42651.58
553.67	43056.50
553.84	43594.82
554.01	43196.93
554.17	43232.04
554.34	43243.74
554.51	43264.80
554.67	43590.14
554.84	43365.45
555.00	43409.92
555.17	43241.40
555.33	43477.79
555.50	43746.95
555.67	43569.07
555.83	43550.35
556.00	43587.80
556.16	43688.44
556.33	43646.31
556.50	43658.01
556.66	44009.09
556.83	43503.54
556.99	43852.28
557.16	44332.09
557.32	44301.66
557.49	44030.16
557.65	43587.80
557.82	43777.38
557.98	43913.13
558.15	43880.36
558.32	44222.08
558.48	44100.37
558.65	43936.54
558.81	44102.71
558.98	44032.50
559.14	43985.69
559.31	44020.80
559.47	44196.34
559.64	43856.96
559.80	44289.96
559.97	44650.40
560.13	44231.44
560.30	44126.12
560.46	44732.32
560.63	44474.86
560.79	44818.92
560.96	45013.18
561.12	45099.78
561.29	44582.52
561.45	44339.11
561.61	44659.76
561.78	44430.39
561.94	44589.55
562.11	44444.43
562.27	44245.49
562.44	44699.55
562.60	44458.48
562.77	44924.24
562.93	44975.73
563.10	44835.30
563.26	44652.74
563.42	45134.89
563.59	44879.77
563.75	44392.94
563.92	45013.18
564.08	44917.22
564.24	44760.40
564.41	44516.99
564.57	44748.70
564.74	45036.59
564.90	44863.39
565.07	44776.79
565.23	44961.69
565.39	45015.52
565.56	44978.07
565.72	44973.39
565.88	45247.24
566.05	44935.95
566.21	44793.17
566.38	45071.70
566.54	45483.63
566.70	45385.33
566.87	45034.25
567.03	44879.77
567.19	45148.93
567.36	44973.39
567.52	45146.59
567.68	45305.75
567.85	45446.18
568.01	45294.05
568.17	44886.79
568.34	45478.95
568.50	45549.17
568.66	44828.28
568.83	45528.10
568.99	45237.87
569.15	45202.77
569.32	45179.36
569.48	45422.78
569.64	45670.87
569.81	45485.97
569.97	45453.20
570.13	45099.78
570.30	45375.97
570.46	45340.86
570.62	45595.98
570.78	45453.20
570.95	45177.02
571.11	45975.14
571.27	45717.68
571.43	45696.62
571.60	45312.77
571.76	45841.73
571.92	45947.06
572.09	45626.40
572.25	45464.91
572.41	45324.47
572.57	45844.07
572.74	46293.46
572.90	45757.47
573.06	45986.85
573.22	46064.08
573.38	46028.98
573.55	45776.20
573.71	46026.63
573.87	46167.07
574.03	46047.70
574.20	45687.26
574.36	45687.26
574.52	45691.94
574.68	45858.12
574.84	46117.92
575.01	45860.46
575.17	45787.90
575.33	46036.00
575.49	45640.45
575.65	46082.81
575.82	45846.41
575.98	45539.80
576.14	45879.18
576.30	45886.20
576.46	46007.91
576.62	46131.96
576.79	46057.06
576.95	45825.35
577.11	45553.85
577.27	45724.71
577.43	45972.80
577.59	46101.53
577.75	45797.26
577.92	45715.34
578.08	45890.88
578.24	45998.55
578.40	46192.81
578.56	45916.63
578.72	46181.11
578.88	45823.01
579.04	46199.83
579.21	45832.37
579.37	45984.51
579.53	45996.21
579.69	45633.42
579.85	45808.96
580.01	45771.52
580.17	46330.90
580.33	46274.73
580.49	46143.66
580.65	46342.61
580.82	45940.04
580.98	46080.47
581.14	45783.22
581.30	46110.89
581.46	46354.31
581.62	45998.55
581.78	45750.45
581.94	45937.69
582.10	46248.99
582.26	46134.30
582.42	45815.99
582.58	46124.94
582.74	46117.92
582.90	45867.48
583.06	46003.23
583.22	45752.79
583.38	46199.83
583.54	45933.01
583.70	46616.45
583.86	46036.00
584.02	45851.09
584.18	46616.45
584.34	46457.29
584.50	46061.74
584.66	46286.43
584.82	46419.84
584.98	46553.26
585.14	46284.09
585.30	45881.52
585.46	46040.68
585.62	46197.49
585.78	46431.55
585.94	45961.10
586.10	46274.73
586.26	45729.39
586.42	45942.38
586.58	46433.89
586.74	46153.02
586.90	46232.60
587.06	45830.03
587.22	46557.94
587.38	46000.89
587.54	46099.19
587.70	46560.28
587.86	46473.68
588.02	45942.38
588.18	46518.15
588.34	46356.65
588.49	46508.79
588.65	46138.98
588.81	46293.46
588.97	46094.51
589.13	46733.48
589.29	46246.65
589.45	46534.53
589.61	46038.34
589.77	46740.50
589.93	46452.61
590.08	46777.95
590.24	46714.75
590.40	47004.98
590.56	46770.93
590.72	46890.29
590.88	46314.52
591.04	46658.58
591.20	46660.92
591.35	46642.20
591.51	46735.82
591.67	46813.05
591.83	47047.11
591.99	46841.14
592.15	46527.51
592.31	46461.97
592.46	46665.60
592.62	46597.73
592.78	47157.11
592.94	46820.08
593.10	46920.72
593.26	47288.18
593.41	46443.25
593.57	46632.83
593.73	46885.61
593.89	47049.45
594.05	46902.00
594.20	47042.43
594.36	47210.95
594.52	46787.31
594.68	46616.45
594.84	47203.92
594.99	46562.62
595.15	46752.20
595.31	47063.49
595.47	46494.74
595.62	46906.68
595.78	46941.78
595.94	46801.35
596.10	47077.54
596.25	47168.82
596.41	46939.44
596.57	46478.36
596.73	47122.01
596.88	47154.77
597.04	46686.67
597.20	47049.45
597.36	46983.91
597.51	47091.58
597.67	46674.96
597.83	46808.37
597.99	46841.14
598.14	47117.32
598.30	46660.92
598.46	46857.52
598.61	47608.84
598.77	47100.94
598.93	47262.44
599.09	46873.91
599.24	47763.31
599.40	47217.97
599.56	47175.84
599.71	47381.80
599.87	47313.93
600.03	47515.22
600.18	47260.10
600.34	47337.33
600.50	47124.35
600.65	47604.16
600.81	47370.10
600.97	47119.66
601.12	46986.25
601.28	47278.82
601.44	47374.78
601.59	47342.02
601.75	46829.44
601.91	47253.08
602.06	46904.34
602.22	47393.51
602.37	46674.96
602.53	47313.93
602.69	47468.40
602.84	46906.68
603.00	47075.19
603.16	47178.18
603.31	46916.04
603.47	47096.26
603.62	47100.94
603.78	47466.06
603.94	47234.35
604.09	47061.15
604.25	47117.32
604.40	47107.96
604.56	47040.09
604.71	47330.31
604.87	47327.97
605.03	46658.58
605.18	46850.50
605.34	47166.48
605.49	46953.49
605.65	47248.39
605.80	47147.75
605.96	46845.82
606.12	46981.57
606.27	47384.15
606.43	47047.11
606.58	47079.88
606.74	46944.12
606.89	47182.86
607.05	47154.77
607.20	47206.26
607.36	47199.24
607.51	46803.69
607.67	46880.93
607.82	46637.51
607.98	46731.14
608.13	46684.33
608.29	46951.15
608.44	47033.07
608.60	46515.81
608.75	46735.82
608.91	46885.61
609.06	46717.09
609.22	47042.43
609.37	46611.77
609.53	46749.86
609.68	47107.96
609.84	46700.71
609.99	46796.67
610.15	46930.08
610.30	46703.05
610.46	46644.54
610.61	46754.54
610.76	46686.67
610.92	46351.97
611.07	46663.26
611.23	46298.14
611.38	46368.35
611.54	46829.44
611.69	46967.53
611.84	46845.82
612.00	46890.29
612.15	46602.41
612.31	46712.41
612.46	46473.68
612.62	46541.55
612.77	46483.04
612.92	46899.65
613.08	46471.34
613.23	46335.59
613.39	46700.71
613.54	46183.45
613.69	46827.10
613.85	46337.93
614.00	46380.06
614.15	46513.47
614.31	46134.30
614.46	46405.80
614.62	46293.46
614.77	46377.72
614.92	46775.61
615.08	46457.29
615.23	46443.25
615.38	46520.49
615.54	46260.69
615.69	46300.48
615.84	46096.85
616.00	46543.89
616.15	46333.24
616.30	46656.24
616.46	46036.00
616.61	45799.60
616.76	46237.28
616.92	45998.55
617.07	46604.75
617.22	46476.02
617.37	45642.79
617.53	45799.60
617.68	45993.87
617.83	46176.43
617.99	46424.53
618.14	46028.98
618.29	45682.58
618.45	46024.29
618.60	45448.52
618.75	45790.24
618.90	46066.42
619.06	45773.86
619.21	46024.29
619.36	46281.75
619.51	45624.06
619.67	45574.91
619.82	45860.46
619.97	46155.36
620.12	45429.80
620.28	45738.75
620.43	46239.62
620.58	46019.61
620.73	46064.08
620.89	45841.73
621.04	46075.79
621.19	45720.02
621.34	45893.22
621.49	45689.60
621.65	45841.73
621.80	45951.74
621.95	46043.02
622.10	45722.37
622.25	45656.83
622.41	45450.86
622.56	45200.43
622.71	45518.74
622.86	45504.70
623.01	45432.14
623.16	45357.24
623.32	45514.06
623.47	45074.04
623.62	45546.82
623.77	45144.25
623.92	45560.87
624.07	45361.92
624.23	45815.99
624.38	45460.23
624.53	45008.50
624.68	45235.53
624.83	44662.10
624.98	45415.76
625.13	45024.89
625.29	44994.46
625.44	45289.37
625.59	45102.12
625.74	45186.38
625.89	44760.40
626.04	44680.83
626.19	44875.09
626.34	45069.36
626.49	44638.70
626.65	44465.50
626.80	44814.24
626.95	44425.71
627.10	44369.54
627.25	44533.37
627.40	44727.64
627.55	44769.77
627.70	44947.65
627.85	44907.86
628.00	44818.92
628.15	44404.64
628.30	44259.53
628.45	44418.69
628.60	43997.39
628.76	44659.76
628.91	44486.56
629.06	44198.68
629.21	44212.72
629.36	44414.01
629.51	44109.74
629.66	44790.83
629.81	44559.12
629.96	44715.93
630.11	44390.60
630.26	43887.39
630.41	44474.86
630.56	43955.26
630.71	44390.60
630.86	44196.34
631.01	43842.92
631.16	43922.49
631.31	44044.20
631.46	44142.50
631.61	44348.47
631.76	43917.81
631.91	44528.69
632.06	44006.75
632.21	44135.48
632.36	44435.07
632.51	43861.64
632.66	44446.77
632.81	44067.61
632.96	43782.06
633.10	43578.43
633.25	43847.60
633.40	43948.24
633.55	44285.28
633.70	43796.10
633.85	43718.87
634.00	43335.02
634.15	44044.20
634.30	43662.69
634.45	43772.70
634.60	43742.27
634.75	43966.96
634.90	43690.78
635.05	43454.39
635.19	43601.84
635.34	43824.19
635.49	43370.13
635.64	43512.90
635.79	43196.93
635.94	43421.62
636.09	43358.42
636.24	43445.02
636.39	43784.40
636.53	43220.33
636.68	42803.72
636.83	43365.45
636.98	43023.73
637.13	43374.81
637.28	43463.75
637.43	43000.32
637.57	43112.67
637.72	42710.10
637.87	43416.94
638.02	43578.43
638.17	42981.60
638.32	42918.40
638.46	42838.83
638.61	42490.09
638.76	43470.77
638.91	42895.00
639.06	42967.55
639.20	42880.95
639.35	42391.78
639.50	42595.41
639.65	42974.58
639.80	42787.33
639.94	43096.28
640.09	42986.28
640.24	42810.74
640.39	42344.97
640.54	42286.46
640.68	42478.38
640.83	42679.67
640.98	42075.81
641.13	42220.92
641.27	42660.94
641.42	42190.50
641.57	42518.17
641.72	42438.59
641.86	42082.83
642.01	41968.15
642.16	42314.55
642.31	41546.85
642.45	42674.99
642.60	42302.84
642.75	42036.02
642.90	42394.12
643.04	42382.42
643.19	42110.92
643.34	41846.44
643.48	41720.05
643.63	41886.23
643.78	41968.15
643.93	42417.53
644.07	42412.85
644.22	42244.33
644.37	41071.72
644.51	42227.95
644.66	41755.16
644.81	41785.58
644.95	41923.68
645.10	41944.74
645.25	41567.91
645.39	42038.36
645.54	41523.44
645.69	41345.56
645.83	41848.78
645.98	41347.90
646.13	41486.00
646.27	41453.23
646.42	41411.10
646.57	41425.14
646.71	41933.04
646.86	41612.38
647.00	41481.31
647.15	41846.44
647.30	41387.69
647.44	41275.35
647.59	41289.39
647.74	41605.36
647.88	41652.17
648.03	41708.35
648.17	41958.78
648.32	41401.74
648.47	41698.98
648.61	41104.49
648.76	41174.70
648.90	41088.10
649.05	41254.28
649.20	41081.08
649.34	41476.63
649.49	41457.91
649.63	41443.87
649.78	41193.43
649.92	41502.38
650.07	41429.82
650.21	41385.35
650.36	41160.66
650.51	41350.24
650.65	41397.06
650.80	41137.26
650.94	40917.25
651.09	40435.10
651.23	40694.89
651.38	41064.70
651.52	40645.74
651.67	40500.63
651.81	40800.22
651.96	40994.48
652.10	40500.63
652.25	40636.38
652.39	40224.45
652.54	40816.60
652.68	40554.46
652.83	40158.91
652.97	40636.38
653.12	40893.84
653.26	40346.15
653.41	40556.80
653.55	40343.81
653.70	40627.02
653.84	40889.16
653.99	41029.59
654.13	40577.87
654.27	40271.26
654.42	40601.27
654.56	40039.54
654.71	40570.85
654.85	40694.89
655.00	40589.57
655.14	40591.91
655.29	40687.87
655.43	40360.20
655.57	39936.56
655.72	40376.58
655.86	40156.57
656.01	39782.09
656.15	39639.31
656.30	40231.47
656.44	40034.86
656.58	40086.36
656.73	39796.13
656.87	39833.58
657.01	39662.72
657.16	39999.76
657.30	39721.23
657.45	39826.56
657.59	39480.16
657.73	39615.91
657.88	39826.56
658.02	40280.62
658.16	40210.40
658.31	40009.12
658.45	39936.56
658.60	39447.39
658.74	39342.06
658.88	39290.57
659.03	39550.37
659.17	39304.62
659.31	39232.06
659.46	38923.11
659.60	39445.05
659.74	39412.28
659.89	38593.09
660.03	38815.44
660.17	38998.01
660.32	38754.59
660.46	39051.84
660.60	38735.87
660.74	38637.56
660.89	39131.42
661.03	38431.60
661.17	38520.54
661.32	38630.54
661.46	38698.42
661.60	38267.76
661.74	38085.20
661.89	39005.03
662.03	38515.86
662.17	38089.88
662.31	37830.08
662.46	38209.25
662.60	38387.13
662.74	38047.75
662.88	37930.72
663.03	38003.28
663.17	37837.10
663.31	37729.44
663.45	37691.99
663.60	38307.55
663.74	37989.24
663.88	37523.47
664.02	37633.47
664.17	38174.14
664.31	37867.53
664.45	37701.35
664.59	37427.51
664.73	37336.23
664.88	37535.17
665.02	36940.68
665.16	37310.48
665.30	37064.72
665.44	37226.22
665.59	37055.36
665.73	37326.86
665.87	36657.47
666.01	37310.48
666.15	36959.40
666.29	36811.95
666.44	36666.83
666.58	36914.93
666.72	36474.91
666.86	36594.28
667.00	36706.62
667.14	36559.17
667.28	36823.65
667.43	36095.74
667.57	36641.09
667.71	36346.18
667.85	36760.45
667.99	36287.67
668.13	35882.75
668.27	35819.56
668.41	35763.39
668.56	35702.53
668.70	35620.61
668.84	35859.35
668.98	35880.41
669.12	35728.28
669.26	35667.42
669.40	35831.26
669.54	35562.10
669.68	35669.76
669.82	35562.10
669.96	34993.35
670.10	35225.06
670.25	35112.72
670.39	35285.92
670.53	35185.27
670.67	35178.25
670.81	35594.87
670.95	34944.20
671.09	34597.80
671.23	34607.16
671.37	34628.23
671.51	34398.85
671.65	34438.64
671.79	34270.12
671.93	34876.32
672.07	34492.47
672.21	34391.83
672.35	34424.60
672.49	34642.27
672.63	34735.89
672.77	34024.37
672.91	34347.36
673.05	33841.81
673.19	33900.32
673.33	33780.95
673.47	33621.80
673.61	33490.73
673.75	33624.14
673.89	33179.43
674.03	33181.77
674.17	33092.83
674.31	33015.60
674.45	33359.66
674.59	33200.50
674.73	33331.57
674.87	33331.57
675.01	32428.12
675.15	32503.02
675.29	32479.61
675.43	32526.42
675.56	32552.17
675.70	32121.51
675.84	32238.54
675.98	31473.18
676.12	32165.98
676.26	32304.07
676.40	31632.34
676.54	31728.30
676.68	31550.42
676.82	31487.23
676.96	31852.35
677.10	31850.01
677.23	31505.95
677.37	31515.31
677.51	31445.10
677.65	31342.11
677.79	31021.46
677.93	30785.07
678.07	30876.35
678.21	30946.56
678.34	30782.73
678.48	30824.86
678.62	30361.43
678.76	30375.47
678.90	30415.26
679.04	29788.00
679.18	30345.05
679.31	30188.23
679.45	30012.69
679.59	29816.08
679.73	29956.52
679.87	30047.80
680.00	29593.73
680.14	29614.80
680.28	29511.81
680.42	29289.46
680.56	29139.67
680.70	29041.37
680.83	28795.61
680.97	28694.97
681.11	28739.44
681.25	28650.50
681.39	28393.04
681.52	28748.80
681.66	28521.77
681.80	28259.63
681.94	28158.99
682.07	27613.64
682.21	27931.95
682.35	27938.97
682.49	28051.32
682.62	28109.83
682.76	28060.68
682.90	27714.28
683.04	27489.59
683.17	27351.50
683.31	27316.39
683.45	27449.80
683.59	26902.12
683.72	26731.26
683.86	26529.97
684.00	26696.15
684.13	26740.62
684.27	26656.36
684.41	26321.66
684.55	26745.30
684.68	26204.64
684.82	26197.62
684.96	26132.08
685.09	26214.00
685.23	25986.97
685.37	26384.86
685.50	26443.37
685.64	26001.01
685.78	25525.88
685.91	25589.08
686.05	25170.12
686.19	24950.11
686.32	25240.34
686.46	24987.56
686.60	24812.02
686.73	24917.34
686.87	24915.00
687.01	25404.17
687.14	24718.40
687.28	24835.42
687.42	24577.97
687.55	24430.51
687.69	24247.95
687.82	24273.70
687.96	24016.24
688.10	23981.13
688.23	24280.72
688.37	23913.25
688.50	23950.70
688.64	23995.17
688.78	23653.45
688.91	23803.25
689.05	23545.79
689.18	23370.25
689.32	23023.85
689.46	23374.93
689.59	22934.91
689.73	22927.89
689.86	23236.84
690.00	22941.93
690.13	23285.99
690.27	22705.54
690.41	22855.33
690.54	22530.00
690.68	22427.01
690.81	22677.45
690.95	22300.62
691.08	22125.08
691.22	22207.00
691.35	21649.96
691.49	21991.67
691.62	21986.99
691.76	21514.20
691.89	21722.51
692.03	21228.66
692.16	21200.57
692.30	21146.74
692.43	21184.19
692.57	21238.02
692.70	21027.37
692.84	20929.07
692.97	20737.15
693.11	20432.88
693.24	20411.81
693.38	20685.65
693.51	20367.34
693.65	20369.68
693.78	19822.00
693.92	20034.99
694.05	19754.12
694.19	19934.34
694.32	19765.82
694.45	20144.99
694.59	20397.77
694.72	20081.80
694.86	19761.14
694.99	19543.47
695.13	19426.45
695.26	19164.31
695.39	19208.78
695.53	19087.07
695.66	19398.36
695.80	18853.02
695.93	19192.39
696.07	18981.74
696.20	18743.01
696.33	18335.76
696.47	18415.34
696.60	18492.57
696.73	18431.72
696.87	18256.18
697.00	18246.82
697.14	17834.88
697.27	18029.15
697.40	18012.76
697.54	17888.71
697.67	17923.82
697.80	17767.01
697.94	17919.14
698.07	17390.18
698.21	17701.47
698.34	17673.39
698.47	17188.89
698.61	17188.89
698.74	17102.29
698.87	17041.44
699.01	17102.29
699.14	16884.62
699.27	16985.27
699.40	16868.24
699.54	16739.51
699.67	16737.17
699.80	16500.78
699.94	16348.64
700.07	16706.74
700.20	16367.37
700.34	16395.45
700.47	16276.09
700.60	16149.70
700.73	16339.28
700.87	15850.11
701.00	15866.49
701.13	15957.77
701.26	15487.32
701.40	15822.02
701.53	15468.60
701.66	15597.33
701.79	15604.35
701.93	15342.21
702.06	14993.47
702.19	15049.64
702.32	15192.42
702.46	15147.95
702.59	15283.70
702.72	15262.63
702.85	14956.02
702.99	14754.74
703.12	14930.28
703.25	14583.88
703.38	14462.17
703.51	14609.62
703.65	14539.41
703.78	14207.05
703.91	14260.88
704.04	14129.81
704.17	13963.64
704.31	13919.17
704.44	14202.37
704.57	14083.00
704.70	13951.93
704.83	13556.38
704.96	13816.18
705.10	13551.70
705.23	13584.47
>>>>>End Processed Spectral Data<<<<<
