SpectraSuite Data File
++++++++++++++++++++++++++++++++++++
Date: Fri Oct 25 11:34:43 EDT 2013
User: price-jones
Dark Spectrum Present: No
Reference Spectrum Present: No
Number of Sampled Component Spectra: 1
Spectrometers: USB2+H05261
Integration Time (usec): 100000 (USB2+H05261)
Spectra Averaged: 1 (USB2+H05261)
Boxcar Smoothing: 0 (USB2+H05261)
Correct for Electrical Dark: No (USB2+H05261)
Strobe/Lamp Enabled: No (USB2+H05261)
Correct for Detector Non-linearity: No (USB2+H05261)
Correct for Stray Light: No (USB2+H05261)
Number of Pixels in Processed Spectrum: 2048
>>>>>Begin Processed Spectral Data<<<<<
365.73	278.52
365.92	278.52
366.12	278.52
366.32	177.88
366.52	231.71
366.72	166.18
366.91	170.86
367.11	161.50
367.31	145.11
367.51	163.84
367.70	191.92
367.90	196.60
368.10	175.54
368.30	156.82
368.49	198.95
368.69	201.29
368.89	187.24
369.09	149.79
369.28	276.18
369.48	290.23
369.68	243.42
369.87	177.88
370.07	210.65
370.27	287.89
370.47	327.68
370.66	475.13
370.86	468.11
371.06	582.79
371.25	603.86
371.45	505.56
371.65	580.45
371.84	594.50
372.04	498.53
372.24	528.96
372.44	561.73
372.63	587.47
372.83	608.54
373.03	554.71
373.22	580.45
373.42	641.31
373.62	692.80
373.81	636.63
374.01	683.44
374.21	704.50
374.40	636.63
374.60	608.54
374.79	587.47
374.99	589.82
375.19	732.59
375.38	657.69
375.58	631.94
375.78	697.48
375.97	648.33
376.17	711.52
376.37	627.26
376.56	620.24
376.76	624.92
376.95	594.50
377.15	648.33
377.35	697.48
377.54	734.93
377.74	669.39
377.93	645.99
378.13	683.44
378.33	734.93
378.52	645.99
378.72	720.88
378.91	608.54
379.11	683.44
379.31	737.27
379.50	634.29
379.70	777.06
379.89	709.18
380.09	678.76
380.28	655.35
380.48	741.95
380.68	772.38
380.87	734.93
381.07	753.65
381.26	690.46
381.46	800.46
381.65	751.31
381.85	734.93
382.04	718.54
382.24	807.48
382.43	791.10
382.63	765.36
382.83	835.57
383.02	702.16
383.22	805.14
383.41	777.06
383.61	730.25
383.80	746.63
384.00	767.70
384.19	788.76
384.39	755.99
384.58	884.72
384.78	800.46
384.97	748.97
385.17	840.25
385.36	830.89
385.56	856.64
385.75	795.78
385.95	767.70
386.14	950.26
386.34	779.40
386.53	870.68
386.72	842.59
386.92	786.42
387.11	840.25
387.31	884.72
387.50	814.51
387.70	943.24
387.89	851.96
388.09	763.01
388.28	924.51
388.48	894.08
388.67	940.90
388.86	821.53
389.06	873.02
389.25	933.87
389.45	929.19
389.64	896.43
389.84	950.26
390.03	954.94
390.22	959.62
390.42	919.83
390.61	971.32
390.81	896.43
391.00	1011.11
391.19	952.60
391.39	931.53
391.58	1001.75
391.78	994.73
391.97	973.66
392.16	980.68
392.36	1029.84
392.55	964.30
392.75	971.32
392.94	987.71
393.13	987.71
393.33	987.71
393.52	1048.56
393.71	1102.39
393.91	1053.24
394.10	1055.58
394.29	1111.75
394.49	1095.37
394.68	1053.24
394.88	1149.20
395.07	1109.41
395.26	1123.46
395.46	1078.99
395.65	1095.37
395.84	1097.71
396.04	1125.80
396.23	1121.12
396.42	1142.18
396.62	1130.48
396.81	1172.61
397.00	1184.31
397.19	1207.72
397.39	1266.23
397.58	1170.27
397.77	1130.48
397.97	1266.23
398.16	1102.39
398.35	1294.32
398.55	1235.80
398.74	1191.33
398.93	1310.70
399.12	1303.68
399.32	1226.44
399.51	1327.08
399.70	1310.70
399.90	1289.64
400.09	1261.55
400.28	1266.23
400.47	1359.85
400.67	1376.24
400.86	1357.51
401.05	1373.89
401.24	1409.00
401.44	1348.15
401.63	1390.28
401.82	1441.77
402.01	1427.73
402.21	1387.94
402.40	1404.32
402.59	1511.99
402.78	1462.83
402.97	1530.71
403.17	1535.39
403.36	1430.07
403.55	1460.49
403.74	1521.35
403.93	1523.69
404.13	1549.43
404.32	1537.73
404.51	1537.73
404.70	1561.14
404.89	1572.84
405.09	1692.21
405.28	1598.59
405.47	1636.03
405.66	1647.74
405.85	1678.16
406.05	1603.27
406.24	1629.01
406.43	1629.01
406.62	1788.17
406.81	1776.47
407.00	1727.32
407.20	1605.61
407.39	1689.87
407.58	1771.79
407.77	1858.39
407.96	1771.79
408.15	1820.94
408.34	1788.17
408.54	1785.83
408.73	1748.38
408.92	1916.90
409.11	1921.58
409.30	1858.39
409.49	1907.54
409.68	1881.79
409.87	1872.43
410.07	1935.62
410.26	1944.99
410.45	1942.64
410.64	1980.09
410.83	1998.82
411.02	2064.35
411.21	2064.35
411.40	2076.06
411.59	2129.89
411.78	2225.85
411.98	2136.91
412.17	2232.87
412.36	2040.95
412.55	2235.21
412.74	2270.32
412.93	2195.42
413.12	2174.36
413.31	2380.32
413.50	2342.88
413.69	2069.03
413.88	2375.64
414.07	2307.77
414.26	2438.84
414.45	2427.14
414.64	2450.54
414.83	2385.01
415.02	2319.47
415.22	2537.14
415.41	2693.96
415.60	2607.36
415.79	2562.89
415.98	2551.18
416.17	2560.55
416.36	2600.34
416.55	2616.72
416.74	2668.21
416.93	2668.21
417.12	2670.55
417.31	2722.04
417.50	2780.56
417.69	2719.70
417.88	2808.64
418.07	2874.18
418.26	2815.66
418.45	2815.66
418.64	3042.70
418.83	2815.66
419.02	2906.95
419.21	2944.39
419.39	2984.18
419.58	2841.41
419.77	2902.26
419.96	3049.72
420.15	3005.25
420.34	3007.59
420.53	3038.02
420.72	3141.00
420.91	3082.49
421.10	3220.58
421.29	3082.49
421.48	2984.18
421.67	3077.80
421.86	3119.93
422.05	3033.33
422.24	3155.04
422.43	3323.56
422.61	3176.11
422.80	3288.45
422.99	3246.32
423.18	3208.87
423.37	3286.11
423.56	3229.94
423.75	3220.58
423.94	3030.99
424.13	2958.44
424.32	3300.16
424.50	3358.67
424.69	3335.26
424.88	3346.97
425.07	3330.58
425.26	3255.69
425.45	3295.47
425.64	3328.24
425.83	3332.92
426.01	3344.63
426.20	3461.65
426.39	3323.56
426.58	3309.52
426.77	3365.69
426.96	3391.44
427.15	3302.50
427.33	3545.91
427.52	3283.77
427.71	3370.37
427.90	3440.59
428.09	3541.23
428.28	3590.38
428.46	3454.63
428.65	3435.91
428.84	3639.53
429.03	3611.45
429.22	3637.19
429.40	3499.10
429.59	3564.64
429.78	3574.00
429.97	3442.93
430.16	3562.30
430.34	3658.26
430.53	3674.64
430.72	3684.00
430.91	3765.92
431.10	3726.13
431.28	3620.81
431.47	3719.11
431.66	3801.03
431.85	3761.24
432.03	3901.67
432.22	3904.01
432.41	3939.12
432.60	3857.20
432.79	3873.59
432.97	3859.54
433.16	4079.55
433.35	3791.67
433.54	3857.20
433.72	4063.17
433.91	3962.53
434.10	4081.89
434.28	3957.85
434.47	4060.83
434.66	4093.60
434.85	4058.49
435.03	4070.19
435.22	4203.60
435.41	4189.56
435.59	4205.94
435.78	4210.62
435.97	4283.18
436.16	4208.28
436.34	4198.92
436.53	4175.52
436.72	4269.14
436.90	4388.50
437.09	4341.69
437.28	4271.48
437.46	4248.07
437.65	4332.33
437.84	4400.21
438.02	4510.21
438.21	4510.21
438.40	4311.27
438.58	4421.27
438.77	4484.47
438.96	4482.13
439.14	4674.05
439.33	4660.01
439.52	4727.88
439.70	4660.01
439.89	4662.35
440.08	4629.58
440.26	4905.76
440.45	4835.55
440.63	4924.49
440.82	4952.57
441.01	4917.47
441.19	4947.89
441.38	5062.58
441.57	5076.62
441.75	5015.77
441.94	5055.56
442.12	5139.82
442.31	5163.22
442.50	5259.18
442.68	5064.92
442.87	5146.84
443.05	5270.89
443.24	5305.99
443.43	5231.10
443.61	5298.97
443.80	5514.30
443.98	5076.62
444.17	5057.90
444.35	5210.03
444.54	5289.61
444.73	5376.21
444.91	5479.19
445.10	5221.74
445.28	5345.78
445.47	5411.32
445.65	5247.48
445.84	5474.51
446.02	5392.59
446.21	5378.55
446.39	5385.57
446.58	5476.85
446.77	5455.79
446.95	5303.65
447.14	5259.18
447.32	5362.17
447.51	5572.82
447.69	5493.24
447.88	5617.29
448.06	5551.75
448.25	5418.34
448.43	5488.56
448.62	5661.76
448.80	5465.15
448.99	5610.26
449.17	5722.61
449.36	5561.11
449.54	5678.14
449.73	5820.91
449.91	5743.67
450.10	5774.10
450.28	5879.43
450.46	5797.51
450.65	5879.43
450.83	5895.81
451.02	5900.49
451.20	5687.50
451.39	5865.38
451.57	5879.43
451.76	5825.59
451.94	5956.66
452.13	6122.84
452.31	5902.83
452.49	5797.51
452.68	6047.94
452.86	5849.00
453.05	5970.71
453.23	6111.14
453.42	5994.11
453.60	6045.60
453.78	6099.44
453.97	6036.24
454.15	6066.67
454.34	6083.05
454.52	6263.27
454.70	6277.32
454.89	6249.23
455.07	6242.21
455.26	6188.38
455.44	6464.56
455.62	6230.51
455.81	6326.47
455.99	6401.37
456.17	6471.58
456.36	6434.13
456.54	6469.24
456.73	6525.41
456.91	6707.98
457.09	6677.55
457.28	6619.04
457.46	6609.67
457.64	6787.55
457.83	6539.46
458.01	6523.07
458.19	6874.15
458.38	6693.93
458.56	6829.68
458.74	6715.00
458.93	6719.68
459.11	6895.22
459.29	6686.91
459.48	6834.36
459.66	6829.68
459.84	7021.61
460.03	7054.37
460.21	6958.41
460.39	7112.89
460.57	6974.80
460.76	7075.44
460.94	7218.21
461.12	7227.57
461.31	7091.82
461.49	7187.79
461.67	6981.82
461.85	7447.58
462.04	7173.74
462.22	7419.50
462.40	7314.17
462.59	7290.77
462.77	7307.15
462.95	7499.08
463.13	7328.22
463.32	7393.75
463.50	7466.31
463.68	7454.61
463.86	7716.75
464.05	7410.14
464.23	7396.09
464.41	7562.27
464.59	7330.56
464.78	7646.53
464.96	7658.23
465.14	7478.01
465.32	7581.00
465.50	7824.41
465.69	7581.00
465.87	7777.60
466.05	7808.03
466.23	7833.77
466.41	7854.84
466.60	7829.09
466.78	7756.54
466.96	7826.75
467.14	7801.01
467.32	7836.11
467.51	7927.39
467.69	7854.84
467.87	7899.31
468.05	7927.39
468.23	7808.03
468.41	7929.74
468.60	8032.72
468.78	8163.79
468.96	8201.24
469.14	8105.28
469.32	8086.55
469.50	7981.23
469.69	8374.44
469.87	8287.84
470.05	8463.38
470.23	8285.50
470.41	8348.69
470.59	8353.37
470.77	8432.95
470.95	8346.35
471.14	8432.95
471.32	8194.22
471.50	8636.58
471.68	8496.14
471.86	8629.56
472.04	8762.97
472.22	8931.48
472.40	8496.14
472.58	8772.33
472.77	8856.59
472.95	8968.93
473.13	9177.24
473.31	8819.14
473.49	8945.53
473.67	8872.97
473.85	9071.92
474.03	9025.11
474.21	9343.42
474.39	9275.54
474.57	9373.85
474.75	9366.82
474.93	9312.99
475.12	9446.40
475.30	9497.89
475.48	9467.47
475.66	9509.60
475.84	9614.92
476.02	9687.48
476.20	9659.39
476.38	10115.80
476.56	9841.95
476.74	9898.13
476.92	10017.49
477.10	9912.17
477.28	10052.60
477.46	10043.24
477.64	10101.75
477.82	10509.01
478.00	10427.09
478.18	10406.02
478.36	10633.05
478.54	10895.19
478.72	10597.95
478.90	10672.84
479.08	10909.24
479.26	11094.14
479.44	11122.23
479.62	11012.22
479.80	11272.02
479.98	11133.93
480.16	11559.91
480.34	11356.28
480.52	11309.47
480.70	11658.21
480.88	11566.93
481.06	11683.95
481.24	11805.66
481.41	12035.03
481.59	12025.67
481.77	12046.74
481.95	12351.01
482.13	12383.77
482.31	12264.41
482.49	12620.17
482.67	12603.78
482.85	12711.45
483.03	12809.75
483.21	12992.31
483.39	12943.16
483.57	12919.76
483.74	13158.49
483.92	13310.63
484.10	13275.52
484.28	13366.80
484.46	13612.56
484.64	13846.61
484.82	13579.79
485.00	13802.14
485.18	14024.49
485.35	14162.58
485.53	14218.75
485.71	14228.12
485.89	14492.60
486.07	14324.08
486.25	14586.22
486.43	14518.34
486.61	15037.94
486.78	14661.12
486.96	14930.28
487.14	15377.32
487.32	15332.85
487.50	15697.97
487.68	15536.48
487.85	15843.09
488.03	15836.06
488.21	16067.78
488.39	16079.48
488.57	16112.25
488.75	16320.56
488.92	16245.66
489.10	16458.65
489.28	16673.98
489.46	16879.94
489.64	16582.70
489.81	17057.82
489.99	17289.54
490.17	17240.39
490.35	17397.20
490.53	17366.78
490.70	17855.95
490.88	17621.89
491.06	17832.54
491.24	17755.30
491.41	18090.00
491.59	18246.82
491.77	18108.72
491.95	18394.27
492.13	18291.29
492.30	18759.39
492.48	18492.57
492.66	18581.51
492.84	18478.53
493.01	18831.95
493.19	19070.68
493.37	19269.63
493.54	19115.16
493.72	19410.06
493.90	19370.27
494.08	19435.81
494.25	19807.95
494.43	19665.18
494.61	19885.19
494.79	19936.68
494.96	20339.26
495.14	19974.13
495.32	20446.92
495.49	20683.31
495.67	20765.23
495.85	20479.69
496.02	21095.25
496.20	20940.77
496.38	20889.28
496.55	21364.41
496.73	21659.32
496.91	21476.76
497.09	21516.54
497.26	21479.10
497.44	21631.23
497.62	21572.72
497.79	22459.78
497.97	22052.53
498.14	22202.32
498.32	22256.15
498.50	22291.26
498.67	22541.70
498.85	22686.81
499.03	22820.22
499.20	22733.62
499.38	22829.59
499.56	23019.17
499.73	23166.62
499.91	23185.35
500.08	23381.95
500.26	22995.76
500.44	23351.52
500.61	23459.19
500.79	23482.59
500.97	23997.51
501.14	23850.06
501.32	24114.54
501.49	23662.82
501.67	23826.65
501.84	24290.08
502.02	23793.89
502.20	24238.59
502.37	24540.52
502.55	24102.84
502.72	24315.83
502.90	24435.19
503.07	24245.61
503.25	24697.33
503.43	24439.87
503.60	24807.34
503.78	24907.98
503.95	24929.05
504.13	25146.72
504.30	25167.78
504.48	25235.66
504.65	25380.77
504.83	25572.69
505.01	25455.67
505.18	25635.89
505.36	25708.44
505.53	25647.59
505.71	25806.75
505.88	26099.31
506.06	25584.40
506.23	26082.93
506.41	25956.54
506.58	26066.55
506.76	26078.25
506.93	26614.23
507.11	26281.88
507.28	26817.86
507.46	26635.30
507.63	26728.92
507.81	26593.17
507.98	26717.22
508.16	26714.87
508.33	27077.66
508.50	27482.57
508.68	26955.95
508.85	27536.40
509.03	27037.87
509.20	27601.94
509.38	27817.27
509.55	27693.22
509.73	27679.18
509.90	27548.11
510.08	28243.24
510.25	27728.33
510.42	28074.73
510.60	28006.85
510.77	28460.91
510.95	28638.80
511.12	27962.38
511.30	28156.64
511.47	28292.40
511.64	28463.25
511.82	29160.73
511.99	28573.26
512.17	28931.36
512.34	28634.11
512.51	28931.36
512.69	29312.87
512.86	28893.91
513.04	29113.92
513.21	29294.14
513.38	29331.59
513.56	29755.23
513.73	29352.66
513.90	29247.33
514.08	29778.64
514.25	29708.42
514.43	29928.43
514.60	29914.39
514.77	30305.26
514.95	30026.73
515.12	29977.58
515.29	30017.37
515.47	30197.59
515.64	30307.60
515.81	29928.43
515.99	30307.60
516.16	30635.27
516.33	30178.87
516.51	30419.94
516.68	30485.48
516.85	30672.72
517.03	30686.76
517.20	31056.57
517.37	30890.39
517.54	30771.02
517.72	31044.87
517.89	31211.04
518.06	31337.43
518.24	31065.93
518.41	31056.57
518.58	31402.97
518.75	31005.08
518.93	31601.91
519.10	31473.18
519.27	31697.88
519.45	31707.24
519.62	31475.52
519.79	31880.44
519.96	31803.20
520.14	32219.81
520.31	31992.78
520.48	31660.43
520.65	31786.82
520.83	32606.00
521.00	32484.30
521.17	32219.81
521.34	32617.71
521.52	32512.38
521.69	32542.81
521.86	32556.85
522.03	32952.40
522.20	32879.85
522.38	33008.58
522.55	33097.52
522.72	32905.59
522.89	33010.92
523.07	33240.29
523.24	33067.09
523.41	33034.32
523.58	33369.02
523.75	33624.14
523.92	33331.57
524.10	33563.28
524.27	33701.37
524.44	33876.91
524.61	33727.12
524.78	33951.81
524.96	33827.76
525.13	34089.90
525.30	33954.15
525.47	34103.95
525.64	34349.70
525.81	34265.44
525.98	34164.80
526.16	33867.55
526.33	33998.62
526.50	34464.39
526.67	34103.95
526.84	34473.75
527.01	34431.62
527.18	34213.95
527.36	34780.36
527.53	34679.72
527.70	34991.01
527.87	35372.52
528.04	34768.66
528.21	35009.73
528.38	34974.63
528.55	35028.46
528.72	34979.31
528.89	35164.21
529.07	35122.08
529.24	35136.12
529.41	35171.23
529.58	35306.98
529.75	35480.18
529.92	35644.02
530.09	35498.91
530.26	35459.12
530.43	35833.60
530.60	35770.41
530.77	35648.70
530.94	35924.88
531.11	35885.09
531.28	35421.67
531.46	35929.56
531.63	36058.29
531.80	35873.39
531.97	36512.36
532.14	36519.38
532.31	35929.56
532.48	36378.95
532.65	36783.86
532.82	36334.48
532.99	36603.64
533.16	36388.31
533.33	36519.38
533.50	36582.57
533.67	36678.54
533.84	36212.77
534.01	36432.78
534.18	37216.86
534.35	37626.45
534.52	37062.38
534.69	37036.64
534.86	37249.63
535.03	36863.44
535.20	37083.45
535.37	36961.74
535.54	37340.91
535.71	36945.36
535.88	37331.54
536.05	37443.89
536.22	37677.94
536.38	37287.07
536.55	37486.02
536.72	37666.24
536.89	37631.13
537.06	37469.64
537.23	37893.27
537.40	37518.79
537.57	37717.73
537.74	37532.83
537.91	37661.56
538.08	37677.94
538.25	37717.73
538.42	37827.74
538.59	37879.23
538.75	38110.94
538.92	38274.78
539.09	38415.21
539.26	38450.32
539.43	38251.38
539.60	38728.84
539.77	38361.38
539.94	38265.42
540.11	38604.80
540.28	38593.09
540.44	38831.83
540.61	38085.20
540.78	38611.82
540.95	38405.85
541.12	38515.86
541.29	38522.88
541.46	38576.71
541.62	39023.75
541.79	39028.43
541.96	38731.18
542.13	38778.00
542.30	39278.87
542.47	39501.22
542.63	39313.98
542.80	39253.12
542.97	39632.29
543.14	39545.69
543.31	39152.48
543.48	39321.00
543.64	39957.63
543.81	40086.36
543.98	39735.27
544.15	39941.24
544.32	39632.29
544.48	40079.33
544.65	39756.34
544.82	40105.08
544.99	39363.13
545.16	40226.79
545.32	39974.01
545.49	40098.06
545.66	40437.44
545.83	40257.21
546.00	40369.56
546.16	40140.19
546.33	39969.33
546.50	40076.99
546.67	40282.96
546.83	39784.43
547.00	40343.81
547.17	39828.90
547.34	40315.73
547.50	40439.78
547.67	41078.74
547.84	40268.92
548.00	40999.16
548.17	40905.54
548.34	41130.23
548.51	40825.96
548.67	41106.83
548.84	40919.59
549.01	40945.33
549.18	41212.15
549.34	41291.73
549.51	41375.99
549.68	40847.03
549.84	40872.78
550.01	41551.53
550.18	40758.09
550.34	41205.13
550.51	41495.36
550.68	41254.28
550.84	41120.87
551.01	41617.07
551.18	41284.71
551.34	40910.22
551.51	41455.57
551.68	41265.99
551.84	41251.94
552.01	41338.54
552.18	41223.86
552.34	41289.39
552.51	41764.52
552.68	41729.41
552.84	41418.12
553.01	41745.80
553.18	42040.70
553.34	41687.28
553.51	41890.91
553.67	41855.80
553.84	42117.94
554.01	41998.57
554.17	42181.13
554.34	42190.50
554.51	42256.03
554.67	42092.19
554.84	42305.18
555.00	42087.51
555.17	41834.74
555.33	42211.56
555.50	41904.95
555.67	42225.60
555.83	42099.22
556.00	42244.33
556.16	42988.62
556.33	42424.55
556.50	42497.11
556.66	42504.13
556.83	42337.95
556.99	42878.61
557.16	42869.25
557.32	42300.50
557.49	42745.20
557.65	42286.46
557.82	42782.65
557.98	42548.60
558.15	42515.83
558.32	42731.16
558.48	42567.32
558.65	43103.31
558.81	42249.01
558.98	43021.39
559.14	42925.42
559.31	42724.14
559.47	42553.28
559.64	42796.70
559.80	43033.09
559.97	43367.79
560.13	42836.48
560.30	42731.16
560.46	43281.19
560.63	43543.33
560.79	43423.96
560.96	42895.00
561.12	43126.71
561.29	43426.30
561.45	42850.53
561.61	43178.20
561.78	42981.60
561.94	43225.01
562.11	43178.20
562.27	42775.63
562.44	43566.73
562.60	43374.81
562.77	43393.53
562.93	43681.42
563.10	43903.77
563.26	43316.29
563.42	43910.79
563.59	43405.23
563.75	43199.27
563.92	43147.78
564.08	43328.00
564.24	43620.56
564.41	43475.45
564.57	43379.49
564.74	43770.36
564.90	43409.92
565.07	43618.22
565.23	43395.87
565.39	43515.24
565.56	43604.18
565.72	43856.96
565.88	43468.43
566.05	43367.79
566.21	43812.49
566.38	43622.90
566.54	43744.61
566.70	43880.36
566.87	43707.16
567.03	43887.39
567.19	43751.63
567.36	44179.95
567.52	44261.87
567.68	43969.30
567.85	44292.30
568.01	43964.62
568.17	43555.03
568.34	44009.09
568.50	44109.74
568.66	44009.09
568.83	43917.81
568.99	43969.30
569.15	43955.26
569.32	43924.83
569.48	43770.36
569.64	44790.83
569.81	43966.96
569.97	44105.06
570.13	44219.74
570.30	43803.13
570.46	44388.26
570.62	43859.30
570.78	44037.18
570.95	44083.99
571.11	44259.53
571.27	43700.14
571.43	44032.50
571.60	44130.80
571.76	44011.43
571.92	44130.80
572.09	44446.77
572.25	44261.87
572.41	44229.10
572.57	44254.85
572.74	44664.44
572.90	44069.95
573.06	44191.65
573.22	44479.54
573.38	44804.88
573.55	44076.97
573.71	44776.79
573.87	44388.26
574.03	44369.54
574.20	44797.85
574.36	44547.42
574.52	44830.62
574.68	44428.05
574.84	44509.97
575.01	45064.67
575.17	44678.49
575.33	44566.14
575.49	44294.64
575.65	44664.44
575.82	44580.18
575.98	44264.21
576.14	44903.18
576.30	44680.83
576.46	44292.30
576.62	44823.60
576.79	44673.81
576.95	44418.69
577.11	44285.28
577.27	44741.68
577.43	44725.30
577.59	45048.29
577.75	44783.81
577.92	43934.20
578.08	44781.47
578.24	44414.01
578.40	44746.36
578.56	44680.83
578.72	44580.18
578.88	44957.01
579.04	44615.29
579.21	44519.33
579.37	44734.66
579.53	45078.72
579.69	44505.29
579.85	44907.86
580.01	44538.05
580.17	44346.13
580.33	44835.30
580.49	45130.21
580.65	44795.51
580.82	44788.49
580.98	44664.44
581.14	44765.09
581.30	44821.26
581.46	44481.88
581.62	44563.80
581.78	44437.41
581.94	44968.71
582.10	44636.36
582.26	44968.71
582.42	44842.32
582.58	44875.09
582.74	44886.79
582.90	45347.88
583.06	45076.38
583.22	44788.49
583.38	45347.88
583.54	44886.79
583.70	45397.03
583.86	45528.10
584.02	44821.26
584.18	45471.93
584.34	45085.74
584.50	44975.73
584.66	44910.20
584.82	44800.19
584.98	45401.71
585.14	44971.05
585.30	44994.46
585.46	44921.90
585.62	44889.13
585.78	44643.38
585.94	44683.17
586.10	44673.81
586.26	44460.82
586.42	44729.98
586.58	44914.88
586.74	44933.60
586.90	44947.65
587.06	45226.17
587.22	44959.35
587.38	44582.52
587.54	44753.38
587.70	45186.38
587.86	45184.04
588.02	45104.46
588.18	45013.18
588.34	44765.09
588.49	45404.05
588.65	45347.88
588.81	45378.31
588.97	45071.70
589.13	45226.17
589.29	45244.90
589.45	45067.02
589.61	45109.14
589.77	45551.51
589.93	45170.00
590.08	45205.11
590.24	45287.03
590.40	45525.76
590.56	45186.38
590.72	45546.82
590.88	45076.38
591.04	45361.92
591.20	45368.94
591.35	45352.56
591.51	45940.04
591.67	45787.90
591.83	45502.35
591.99	45198.09
592.15	45055.31
592.31	45469.59
592.46	45315.11
592.62	45048.29
592.78	45375.97
592.94	45776.20
593.10	45588.95
593.26	45572.57
593.41	45944.72
593.57	45563.21
593.73	45436.82
593.89	45626.40
594.05	45581.93
594.20	45766.84
594.36	45771.52
594.52	45453.20
594.68	45265.96
594.84	45188.72
594.99	45921.31
595.15	45464.91
595.31	45635.77
595.47	45991.53
595.62	45631.08
595.78	45123.19
595.94	45811.31
596.10	45668.53
596.25	45492.99
596.41	46075.79
596.57	45495.33
596.73	45600.66
596.88	45806.62
597.04	45956.42
597.20	45436.82
597.36	45694.28
597.51	45591.30
597.67	45837.05
597.83	45785.56
597.99	45998.55
598.14	45729.39
598.30	45701.30
598.46	45619.38
598.61	45797.26
598.77	45998.55
598.93	45930.67
599.09	45537.46
599.24	46216.22
599.40	45380.65
599.56	45453.20
599.71	46054.72
599.87	46295.80
600.03	45904.93
600.18	45902.59
600.34	45764.49
600.50	45907.27
600.65	45918.97
600.81	46085.15
600.97	46120.26
601.12	45715.34
601.28	45752.79
601.44	45663.85
601.59	45518.74
601.75	45408.73
601.91	45876.84
602.06	46024.29
602.22	45656.83
602.37	46038.34
602.53	45689.60
602.69	45654.49
602.84	45923.65
603.00	45595.98
603.16	46113.23
603.31	45823.01
603.47	45825.35
603.62	45963.44
603.78	46190.47
603.94	46096.85
604.09	45837.05
604.25	45649.81
604.40	45801.94
604.56	46134.30
604.71	46330.90
604.87	45818.33
605.03	45502.35
605.18	45862.80
605.34	45542.14
605.49	45500.01
605.65	45483.63
605.80	45371.28
605.96	45830.03
606.12	45291.71
606.27	46000.89
606.43	45659.17
606.58	45907.27
606.74	45333.84
606.89	45357.24
607.05	45556.19
607.20	45645.13
607.36	45455.54
607.51	45514.06
607.67	45600.66
607.82	45638.11
607.98	45584.27
608.13	45773.86
608.29	45729.39
608.44	45521.08
608.60	45373.63
608.75	45790.24
608.91	45249.58
609.06	45050.63
609.22	45614.70
609.37	45055.31
609.53	45935.35
609.68	45577.25
609.84	45603.00
609.99	45663.85
610.15	45743.43
610.30	45893.22
610.46	45003.82
610.61	45490.65
610.76	45446.18
610.92	45083.40
611.07	45137.23
611.23	45233.19
611.38	45422.78
611.54	45483.63
611.69	45610.02
611.84	45579.59
612.00	45287.03
612.15	45373.63
612.31	45357.24
612.46	44863.39
612.62	45214.47
612.77	45221.49
612.92	45441.50
613.08	45090.42
613.23	45294.05
613.39	45275.32
613.54	44954.67
613.69	45219.15
613.85	45209.79
614.00	45013.18
614.15	45467.25
614.31	44973.39
614.46	45015.52
614.62	44999.14
614.77	45144.25
614.92	45113.83
615.08	45361.92
615.23	44861.05
615.38	44935.95
615.54	45254.26
615.69	44935.95
615.84	44945.31
616.00	45270.64
616.15	44957.01
616.30	45024.89
616.46	44788.49
616.61	45022.54
616.76	45212.13
616.92	44830.62
617.07	44992.12
617.22	44732.32
617.37	44687.85
617.53	44854.03
617.68	44800.19
617.83	44512.31
617.99	44509.97
618.14	45036.59
618.29	44374.22
618.45	44437.41
618.60	44280.60
618.75	44629.34
618.90	44332.09
619.06	44655.08
619.21	44289.96
619.36	44662.10
619.51	44488.90
619.67	44502.95
619.82	44411.67
619.97	44865.73
620.12	44027.82
620.28	44278.25
620.43	44435.07
620.58	44364.85
620.73	44362.51
620.89	44816.58
621.04	44285.28
621.19	44542.74
621.34	44156.55
621.49	44945.31
621.65	44596.57
621.80	44664.44
621.95	44172.93
622.10	44566.14
622.25	44346.13
622.41	44048.88
622.56	44067.61
622.71	44245.49
622.86	44130.80
623.01	44168.25
623.16	44067.61
623.32	43557.37
623.47	43910.79
623.62	44027.82
623.77	43915.47
623.92	43842.92
624.07	44062.93
624.23	44072.29
624.38	44346.13
624.53	44399.96
624.68	43704.82
624.83	43826.53
624.98	44266.55
625.13	43402.89
625.29	43709.50
625.44	43775.04
625.59	43562.05
625.74	43725.89
625.89	43332.68
626.04	43388.85
626.19	43721.21
626.34	43126.71
626.49	43498.86
626.65	43545.67
626.80	43578.43
626.95	43342.04
627.10	42831.80
627.25	43260.12
627.40	43636.95
627.55	43489.49
627.70	43196.93
627.85	43452.05
628.00	43430.98
628.15	43693.12
628.30	42918.40
628.45	42719.46
628.60	43056.50
628.76	43187.56
628.91	43063.52
629.06	42932.45
629.21	42834.14
629.36	43117.35
629.51	42944.15
629.66	42733.50
629.81	43061.18
629.96	42696.05
630.11	42969.90
630.26	42761.59
630.41	42871.59
630.56	43168.84
630.71	42981.60
630.86	43079.90
631.01	42698.39
631.16	42735.84
631.31	42934.79
631.46	43058.84
631.61	42857.55
631.76	42541.58
631.91	43049.47
632.06	43058.84
632.21	43005.00
632.36	42658.60
632.51	42089.85
632.66	42843.51
632.81	42462.00
632.96	42401.14
633.10	42368.38
633.25	42274.76
633.40	42258.37
633.55	42667.97
633.70	42307.52
633.85	42300.50
634.00	42038.36
634.15	41947.08
634.30	42487.74
634.45	41993.89
634.60	41858.14
634.75	42469.02
634.90	42382.42
635.05	42382.42
635.19	42370.72
635.34	42192.84
635.49	41827.71
635.64	42281.78
635.79	42223.26
635.94	41626.43
636.09	42003.25
636.24	41933.04
636.39	41956.44
636.53	41918.99
636.68	41588.98
636.83	41954.10
636.98	41336.20
637.13	41469.61
637.28	41521.10
637.43	41144.28
637.57	41581.96
637.72	41350.24
637.87	41745.80
638.02	42082.83
638.17	41675.58
638.32	40823.62
638.46	41581.96
638.61	40975.76
638.76	41078.74
638.91	41195.77
639.06	41532.81
639.20	41350.24
639.35	41027.25
639.50	41352.58
639.65	41053.00
639.80	41242.58
639.94	41378.33
640.09	41645.15
640.24	41698.98
640.39	41053.00
640.54	41118.53
640.68	40942.99
640.83	41663.88
640.98	41064.70
641.13	41125.55
641.27	41577.28
641.42	40669.15
641.57	41177.04
641.72	41319.82
641.86	40921.93
642.01	40919.59
642.16	40917.25
642.31	40875.12
642.45	40924.27
642.60	40584.89
642.75	41055.34
642.90	41024.91
643.04	40568.51
643.19	40612.98
643.34	40612.98
643.48	40371.90
643.63	40502.97
643.78	40882.14
643.93	40598.93
644.07	40856.39
644.22	40877.46
644.37	40512.33
644.51	40718.30
644.66	40781.49
644.81	40648.08
644.95	40617.66
645.10	40334.45
645.25	40582.55
645.39	40428.07
645.54	39948.26
645.69	40271.26
645.83	40538.08
645.98	40374.24
646.13	40306.37
646.27	40112.10
646.42	40109.76
646.57	40329.77
646.71	40666.81
646.86	40444.46
647.00	40224.45
647.15	40065.29
647.30	39679.10
647.44	40095.72
647.59	40442.12
647.74	40062.95
647.88	39871.03
648.03	40229.13
648.17	40334.45
648.32	40114.44
648.47	40212.74
648.61	39746.98
648.76	40018.48
648.90	39782.09
649.05	39756.34
649.20	39889.75
649.34	39920.18
649.49	39454.41
649.63	39768.04
649.78	40231.47
649.92	39786.77
650.07	40189.34
650.21	39683.78
650.36	40208.06
650.51	39702.51
650.65	39854.64
650.80	40615.32
650.94	39386.54
651.09	39117.37
651.23	39227.38
651.38	39164.18
651.52	39079.92
651.67	39292.91
651.81	39442.71
651.96	39363.13
652.10	39218.02
652.25	39276.53
652.39	39608.89
652.54	39175.89
652.68	39400.58
652.83	39126.74
652.97	39229.72
653.12	39304.62
653.26	39236.74
653.41	38934.81
653.55	39047.16
653.70	39260.15
653.84	39800.81
653.99	39463.77
654.13	39285.89
654.27	38934.81
654.42	39463.77
654.56	38857.57
654.71	39037.80
654.85	39075.24
655.00	38869.28
655.14	39093.97
655.29	39480.16
655.43	39100.99
655.57	39072.90
655.72	38567.35
655.86	38763.95
656.01	38817.78
656.15	38677.35
656.30	38567.35
656.44	39026.09
656.58	38939.49
656.73	38775.66
656.87	38005.62
657.01	38265.42
657.16	38883.32
657.30	38719.48
657.45	38384.79
657.59	38391.81
657.73	37982.21
657.88	38426.92
658.02	38611.82
658.16	38944.17
658.31	38183.50
658.45	38642.24
658.60	37975.19
658.74	38389.47
658.88	38349.68
659.03	38033.71
659.17	38260.74
659.31	37762.20
659.46	37500.06
659.60	38361.38
659.74	37429.85
659.89	37572.62
660.03	37366.65
660.17	37797.31
660.32	37855.82
660.46	37727.10
660.60	37567.94
660.74	37476.66
660.89	37879.23
661.03	37312.82
661.17	37385.38
661.32	37284.73
661.46	37057.70
661.60	37406.44
661.74	37322.18
661.89	37076.43
662.03	37399.42
662.17	37156.00
662.31	36947.70
662.46	37001.53
662.60	36811.95
662.74	36421.08
662.88	36699.60
663.03	36528.74
663.17	36421.08
663.31	36648.11
663.45	36847.05
663.60	36435.12
663.74	36481.93
663.88	36568.53
664.02	36034.89
664.17	36416.40
664.31	36463.21
664.45	35941.27
664.59	36346.18
664.73	36273.62
664.88	36100.42
665.02	35587.85
665.16	35796.15
665.30	35835.94
665.44	36205.75
665.59	36240.86
665.73	35625.29
665.87	35732.96
666.01	36149.57
666.15	36109.78
666.29	35557.42
666.44	35632.32
666.58	35192.30
666.72	35115.06
666.86	35646.36
667.00	35459.12
667.14	35271.87
667.28	34789.72
667.43	35475.50
667.57	35793.81
667.71	35161.87
667.85	35618.27
667.99	35222.72
668.13	34726.53
668.27	34918.45
668.41	35056.54
668.56	34539.29
668.70	34714.83
668.84	34338.00
668.98	34515.88
669.12	34525.24
669.26	34672.70
669.40	34370.77
669.54	34412.90
669.68	34352.04
669.82	33998.62
669.96	34328.64
670.10	34015.01
670.25	34113.31
670.39	33790.31
670.53	34073.52
670.67	34015.01
670.81	34022.03
670.95	34120.33
671.09	33940.11
671.23	33537.54
671.37	33706.05
671.51	33413.49
671.65	33647.54
671.79	33670.95
671.93	33621.80
672.07	33472.00
672.21	32933.68
672.35	33270.72
672.49	33244.97
672.63	33186.46
672.77	32809.63
672.91	32828.35
673.05	32790.91
673.19	32683.24
673.33	32807.29
673.47	32547.49
673.61	32374.29
673.75	32196.41
673.89	32180.03
674.03	32016.19
674.17	32617.71
674.31	32158.96
674.45	32055.98
674.59	31660.43
674.73	31941.29
674.87	31758.73
675.01	31297.64
675.15	31321.05
675.29	31246.15
675.43	31344.45
675.56	31470.84
675.70	31187.64
675.84	31285.94
675.98	30618.89
676.12	31227.43
676.26	31325.73
676.40	30920.82
676.54	30476.12
676.68	30871.67
676.82	29855.87
676.96	30520.59
677.10	30373.13
677.23	30419.94
677.37	30352.07
677.51	30286.53
677.65	29958.86
677.79	30218.66
677.93	29890.98
678.07	29766.93
678.21	29680.33
678.34	29514.16
678.48	29614.80
678.62	29022.64
678.76	29378.40
678.90	29392.45
679.04	29350.32
679.18	29273.08
679.31	29139.67
679.45	29317.55
679.59	28910.30
679.73	28811.99
679.87	28643.48
680.00	28800.29
680.14	28561.56
680.28	28439.85
680.42	28432.83
680.56	28388.36
680.70	27955.36
680.83	28240.90
680.97	27885.14
681.11	27885.14
681.25	27768.12
681.39	27311.71
681.52	27821.95
681.66	27468.53
681.80	27281.28
681.94	26995.74
682.07	27037.87
682.21	27201.71
682.35	26518.27
682.49	26864.67
682.62	26906.80
682.76	26974.67
682.90	26881.05
683.04	26232.72
683.17	26331.03
683.31	26099.31
683.45	26064.21
683.59	25757.60
683.72	25818.45
683.86	26111.02
684.00	25820.79
684.13	26078.25
684.27	25736.53
684.41	25729.51
684.55	25771.64
684.68	25406.52
684.82	25266.08
684.96	25324.60
685.09	25158.42
685.23	25151.40
685.37	25603.12
685.50	24926.71
685.64	24814.36
685.78	24512.43
685.91	24723.08
686.05	24601.37
686.19	24112.20
686.32	24102.84
686.46	24271.36
686.60	23920.28
686.73	24184.76
686.87	23913.25
687.01	24088.79
687.14	23995.17
687.28	23681.54
687.42	23728.35
687.55	23784.52
687.69	23428.76
687.82	23232.16
687.96	23309.40
688.10	23356.21
688.23	23321.10
688.37	23323.44
688.50	23283.65
688.64	23278.97
688.78	22909.16
688.91	22932.57
689.05	22602.55
689.18	22483.19
689.32	22209.34
689.46	22169.55
689.59	22295.94
689.73	22328.71
689.86	22157.85
690.00	22223.39
690.13	22087.64
690.27	22008.06
690.41	21788.05
690.54	21738.90
690.68	21722.51
690.81	21509.52
690.95	21207.59
691.08	21252.06
691.22	21392.50
691.35	20908.01
691.49	21427.60
691.62	21076.52
691.76	20627.14
691.89	20655.23
692.03	20582.67
692.16	20589.69
692.30	20334.57
692.43	20432.88
692.57	20060.73
692.70	20463.30
692.84	20500.75
692.97	19894.55
693.11	19857.10
693.24	19819.66
693.38	19798.59
693.51	19789.23
693.65	19770.51
693.78	19454.53
693.92	19250.91
694.05	19328.14
694.19	19183.03
694.32	19370.27
694.45	19393.68
694.59	19269.63
694.72	19183.03
694.86	18923.23
694.99	18853.02
695.13	18876.42
695.26	18775.78
695.39	18412.99
695.53	18438.74
695.66	18443.42
695.80	18361.50
695.93	18403.63
696.07	18279.58
696.20	17886.37
696.33	17759.98
696.47	17806.80
696.60	17832.54
696.73	18066.60
696.87	17734.24
697.00	17720.20
697.14	17596.15
697.27	17369.12
697.40	17432.31
697.54	17444.01
697.67	17263.79
697.80	17205.28
697.94	17245.07
698.07	17083.57
698.21	16872.92
698.34	17069.53
698.47	16702.06
698.61	16042.03
698.74	16482.05
698.87	16563.97
699.01	16336.94
699.14	16393.11
699.27	16374.39
699.40	15983.52
699.54	15988.20
699.67	16035.01
699.80	15957.77
699.94	15857.13
700.07	15960.11
700.20	15887.56
700.34	16070.12
700.47	15770.53
700.60	15637.12
700.73	15625.42
700.87	15180.71
701.00	15199.44
701.13	15339.87
701.26	15152.63
701.40	15190.08
701.53	14600.26
701.66	15302.42
701.79	14958.36
701.93	14658.78
702.06	14621.33
702.19	14796.87
702.32	14738.35
702.46	14796.87
702.59	14637.71
702.72	14604.94
702.85	14597.92
702.99	14410.68
703.12	14270.25
703.25	14120.45
703.38	14019.81
703.51	14029.17
703.65	14066.62
703.78	13823.20
703.91	13596.17
704.04	13689.79
704.17	13624.26
704.31	13481.49
704.44	13799.80
704.57	13348.08
704.70	13355.10
704.83	13200.62
704.96	13357.44
705.10	13305.95
705.23	12973.59
>>>>>End Processed Spectral Data<<<<<
