SpectraSuite Data File
++++++++++++++++++++++++++++++++++++
Date: Fri Oct 25 10:43:34 EDT 2013
User: price-jones
Dark Spectrum Present: No
Reference Spectrum Present: No
Number of Sampled Component Spectra: 1
Spectrometers: USB2+H05261
Integration Time (usec): 100000 (USB2+H05261)
Spectra Averaged: 1 (USB2+H05261)
Boxcar Smoothing: 0 (USB2+H05261)
Correct for Electrical Dark: No (USB2+H05261)
Strobe/Lamp Enabled: No (USB2+H05261)
Correct for Detector Non-linearity: No (USB2+H05261)
Correct for Stray Light: No (USB2+H05261)
Number of Pixels in Processed Spectrum: 2048
>>>>>Begin Processed Spectral Data<<<<<
365.73	180.22
365.92	180.22
366.12	180.22
366.32	74.90
366.52	0.00
366.72	67.88
366.91	74.90
367.11	88.94
367.31	39.79
367.51	0.00
367.70	84.26
367.90	79.58
368.10	0.00
368.30	100.64
368.49	0.00
368.69	7.02
368.89	93.62
369.09	39.79
369.28	121.71
369.48	0.00
369.68	107.66
369.87	117.03
370.07	65.54
370.27	114.69
370.47	215.33
370.66	456.40
370.86	400.23
371.06	397.89
371.25	486.83
371.45	348.74
371.65	489.17
371.84	475.13
372.04	411.93
372.24	465.77
372.44	442.36
372.63	519.60
372.83	479.81
373.03	552.37
373.22	510.24
373.42	561.73
373.62	568.75
373.81	545.34
374.01	617.90
374.21	526.62
374.40	519.60
374.60	543.00
374.79	498.53
374.99	543.00
375.19	608.54
375.38	601.52
375.58	585.13
375.78	596.84
375.97	620.24
376.17	594.50
376.37	683.44
376.56	608.54
376.76	582.79
376.95	613.22
377.15	664.71
377.35	643.65
377.54	699.82
377.74	667.05
377.93	617.90
378.13	674.07
378.33	613.22
378.52	594.50
378.72	704.50
378.91	636.63
379.11	674.07
379.31	641.31
379.50	643.65
379.70	772.38
379.89	767.70
380.09	653.01
380.28	704.50
380.48	704.50
380.68	697.48
380.87	660.03
381.07	779.40
381.26	685.78
381.46	737.27
381.65	723.23
381.85	657.69
382.04	638.97
382.24	688.12
382.43	688.12
382.63	748.97
382.83	753.65
383.02	713.86
383.22	699.82
383.41	730.25
383.61	702.16
383.80	821.53
384.00	786.42
384.19	727.91
384.39	821.53
384.58	814.51
384.78	755.99
384.97	770.04
385.17	856.64
385.36	826.21
385.56	861.32
385.75	840.25
385.95	744.29
386.14	837.91
386.34	898.77
386.53	842.59
386.72	922.17
386.92	858.98
387.11	828.55
387.31	858.98
387.50	889.40
387.70	863.66
387.89	917.49
388.09	924.51
388.28	823.87
388.48	891.74
388.67	1027.50
388.86	959.62
389.06	1034.52
389.25	1036.86
389.45	992.39
389.64	931.53
389.84	971.32
390.03	957.28
390.22	987.71
390.42	985.37
390.61	1041.54
390.81	1036.86
391.00	1076.65
391.19	1163.25
391.39	1067.28
391.58	1078.99
391.78	1067.28
391.97	1196.01
392.16	1090.69
392.36	1081.33
392.55	1086.01
392.75	1025.15
392.94	1022.81
393.13	1020.47
393.33	999.41
393.52	1025.15
393.71	1107.07
393.91	1174.95
394.10	1116.44
394.29	1203.04
394.49	1165.59
394.68	1191.33
394.88	1217.08
395.07	1282.61
395.26	1181.97
395.46	1214.74
395.65	1282.61
395.84	1203.04
396.04	1238.14
396.23	1137.50
396.42	1144.52
396.62	1259.21
396.81	1196.01
397.00	1277.93
397.19	1362.19
397.39	1411.34
397.58	1376.24
397.77	1383.26
397.97	1451.13
398.16	1416.02
398.35	1554.12
398.55	1476.88
398.74	1547.09
398.93	1589.22
399.12	1526.03
399.32	1570.50
399.51	1596.25
399.70	1600.93
399.90	1483.90
400.09	1614.97
400.28	1617.31
400.47	1713.27
400.67	1685.19
400.86	1624.33
401.05	1724.97
401.24	1659.44
401.44	1710.93
401.63	1746.04
401.82	1757.74
402.01	1816.26
402.21	1813.92
402.40	1732.00
402.59	1797.53
402.78	1799.87
402.97	1802.21
403.17	1860.73
403.36	1870.09
403.55	1865.41
403.74	1788.17
403.93	1930.94
404.13	2010.52
404.32	1900.52
404.51	1984.77
404.70	2022.22
404.89	1998.82
405.09	2026.90
405.28	2062.01
405.47	2019.88
405.66	2019.88
405.85	2019.88
406.05	2015.20
406.24	2008.18
406.43	2069.03
406.62	2186.06
406.81	2078.40
407.00	2092.44
407.20	2038.61
407.39	2040.95
407.58	2153.29
407.77	2207.13
407.96	2253.94
408.15	2377.98
408.34	2244.57
408.54	2368.62
408.73	2335.85
408.92	2370.96
409.11	2385.01
409.30	2403.73
409.49	2289.04
409.68	2380.32
409.87	2333.51
410.07	2462.24
410.26	2345.22
410.45	2356.92
410.64	2502.03
410.83	2642.46
411.02	2595.65
411.21	2619.06
411.40	2527.78
411.59	2675.23
411.78	2614.38
411.98	2689.28
412.17	2731.41
412.36	2719.70
412.55	2911.63
412.74	2972.48
412.93	2768.85
413.12	2715.02
413.31	2944.39
413.50	2939.71
413.69	2794.60
413.88	3098.87
414.07	3059.08
414.26	3117.59
414.45	3016.95
414.64	2960.78
414.83	3117.59
415.02	3040.36
415.22	3115.25
415.41	3239.30
415.60	3211.22
415.79	3227.60
415.98	3349.31
416.17	3274.41
416.36	3276.75
416.55	3241.64
416.74	3361.01
416.93	3206.53
417.12	3295.47
417.31	3403.14
417.50	3391.44
417.69	3471.01
417.88	3499.10
418.07	3471.01
418.26	3407.82
418.45	3485.06
418.64	3735.50
418.83	3679.32
419.02	3674.64
419.21	3796.35
419.39	3552.93
419.58	3503.78
419.77	3644.21
419.96	3707.41
420.15	3784.65
420.34	3749.54
420.53	3819.75
420.72	3932.10
420.91	3861.88
421.10	3882.95
421.29	3889.97
421.48	3955.51
421.67	3873.59
421.86	3873.59
422.05	3918.06
422.24	3838.48
422.43	3908.69
422.61	3976.57
422.80	4056.15
422.99	4021.04
423.18	3995.29
423.37	4133.39
423.56	3957.85
423.75	3866.56
423.94	4070.19
424.13	3744.86
424.32	3894.65
424.50	4159.13
424.69	4112.32
424.88	4191.90
425.07	3904.01
425.26	4077.21
425.45	3815.07
425.64	3946.14
425.83	3920.40
426.01	4121.68
426.20	4182.54
426.39	4117.00
426.58	4021.04
426.77	3992.95
426.96	3918.06
427.15	4046.79
427.33	4184.88
427.52	4021.04
427.71	4166.15
427.90	4236.37
428.09	4262.12
428.28	4262.12
428.46	4086.58
428.65	4184.88
428.84	4318.29
429.03	4451.70
429.22	4152.11
429.40	4264.46
429.59	4315.95
429.78	4063.17
429.97	3997.64
430.16	3981.25
430.34	4217.65
430.53	4329.99
430.72	4131.05
430.91	4175.52
431.10	4507.87
431.28	4503.19
431.47	4629.58
431.66	4730.22
431.85	4573.41
432.03	4791.08
432.22	4798.10
432.41	4557.02
432.60	4662.35
432.79	4678.73
432.97	4891.72
433.16	4828.53
433.35	4695.11
433.54	4767.67
433.72	4847.25
433.91	4727.88
434.10	4748.95
434.28	4732.56
434.47	4894.06
434.66	5130.45
434.85	4983.00
435.03	5036.83
435.22	5128.11
435.41	5132.79
435.59	5137.48
435.78	4994.70
435.97	5282.59
436.16	5205.35
436.34	5345.78
436.53	5125.77
436.72	5289.61
436.90	5322.38
437.09	5350.46
437.28	5277.91
437.46	5076.62
437.65	5315.36
437.84	5212.37
438.02	5184.29
438.21	5193.65
438.40	5167.90
438.58	5549.41
438.77	5502.60
438.96	5479.19
439.14	5666.44
439.33	5652.39
439.52	5657.07
439.70	5778.78
439.89	5600.90
440.08	5802.19
440.26	5849.00
440.45	5813.89
440.63	5954.32
440.82	6066.67
441.01	6001.13
441.19	6141.57
441.38	6279.66
441.57	6289.02
441.75	6326.47
441.94	6211.78
442.12	6352.21
442.31	6520.73
442.50	6532.44
442.68	6387.32
442.87	6242.21
443.05	6413.07
443.24	6621.38
443.43	6443.49
443.61	6478.60
443.80	6677.55
443.98	6595.63
444.17	6347.53
444.35	6509.03
444.54	6808.62
444.73	6637.76
444.91	6677.55
445.10	6527.75
445.28	6567.54
445.47	6438.81
445.65	6588.61
445.84	6738.40
446.02	6691.59
446.21	6574.56
446.39	6703.29
446.58	6672.87
446.77	6778.19
446.95	6630.74
447.14	6949.05
447.32	6970.12
447.51	6747.76
447.69	6710.32
447.88	6668.19
448.06	6799.26
448.25	6883.52
448.43	6974.80
448.62	6726.70
448.80	6780.53
448.99	6864.79
449.17	7005.22
449.36	7028.63
449.54	7241.62
449.73	7351.62
449.91	7138.63
450.10	7351.62
450.28	7176.08
450.46	7290.77
450.65	7506.10
450.83	7412.48
451.02	7433.54
451.20	7473.33
451.39	7407.80
451.57	7286.09
451.76	7335.24
451.94	7265.02
452.13	7384.39
452.31	7417.16
452.49	7241.62
452.68	7260.34
452.86	7176.08
453.05	7323.54
453.23	7475.67
453.42	7255.66
453.60	7344.60
453.78	7688.66
453.97	7433.54
454.15	7700.36
454.34	7686.32
454.52	7658.23
454.70	7669.94
454.89	7662.91
455.07	7588.02
455.26	7709.72
455.44	7927.39
455.62	7878.24
455.81	7801.01
455.99	7896.97
456.17	8053.78
456.36	7920.37
456.54	8124.00
456.73	8105.28
456.91	8266.77
457.09	8259.75
457.28	8442.31
457.46	8138.04
457.64	8304.22
457.83	8266.77
458.01	8215.28
458.19	8482.10
458.38	8311.24
458.56	8379.12
458.74	8549.98
458.93	8142.72
459.11	8454.02
459.29	8425.93
459.48	8690.41
459.66	8348.69
459.84	8519.55
460.03	8704.45
460.21	8557.00
460.39	8894.04
460.57	8468.06
460.76	8578.06
460.94	8950.21
461.12	8821.48
461.31	8915.10
461.49	8807.44
461.67	8760.63
461.85	8990.00
462.04	8872.97
462.22	9413.63
462.40	9078.94
462.59	9062.55
462.77	9001.70
462.95	9139.79
463.13	8980.64
463.32	9008.72
463.50	9364.48
463.68	9231.07
463.86	8982.98
464.05	8919.78
464.23	9296.61
464.41	9132.77
464.59	8966.59
464.78	9170.22
464.96	9202.99
465.14	9200.65
465.32	9387.89
465.50	9296.61
465.69	9460.45
465.87	9383.21
466.05	9373.85
466.23	9390.23
466.41	9392.57
466.60	9621.94
466.78	9439.38
466.96	9432.36
467.14	9343.42
467.32	9523.64
467.51	9689.82
467.69	9474.49
467.87	9589.17
468.05	9764.72
468.23	9680.46
468.41	9619.60
468.60	9764.72
468.78	9863.02
468.96	9465.13
469.14	9853.66
469.32	9790.46
469.50	9619.60
469.69	9928.55
469.87	9891.10
470.05	10099.41
470.23	9888.76
470.41	10003.45
470.59	10181.33
470.77	9853.66
470.95	10036.22
471.14	10303.04
471.32	10326.44
471.50	10733.70
471.68	10506.66
471.86	10342.83
472.04	10583.90
472.22	10841.36
472.40	10375.59
472.58	10499.64
472.77	10569.86
472.95	10993.50
473.13	10984.13
473.31	10572.20
473.49	10937.32
473.67	10743.06
473.85	10890.51
474.03	11279.04
474.21	11126.91
474.39	11157.33
474.57	11314.15
474.75	11241.59
474.93	11241.59
475.12	11400.75
475.30	11590.33
475.48	11227.55
475.66	11197.12
475.84	11389.05
476.02	11660.55
476.20	11618.42
476.38	11831.41
476.56	11929.71
476.74	11932.05
476.92	11878.22
477.10	11964.82
477.28	12409.52
477.46	12306.54
477.64	12409.52
477.82	12599.10
478.00	12765.28
478.18	12587.40
478.36	12788.69
478.54	12943.16
478.72	12819.11
478.90	13146.79
479.08	13303.60
479.26	13174.88
479.44	13568.09
479.62	13685.11
479.80	13570.43
479.98	13703.84
480.16	13851.29
480.34	13715.54
480.52	13657.03
480.70	13987.04
480.88	13820.86
481.06	13912.14
481.24	14136.84
481.41	14501.96
481.59	14518.34
481.77	14541.75
481.95	14839.00
482.13	14803.89
482.31	14803.89
482.49	15021.56
482.67	15051.99
482.85	15199.44
483.03	15538.82
483.21	15676.91
483.39	15662.86
483.57	15520.09
483.74	15648.82
483.92	15744.78
484.10	15625.42
484.28	16056.08
484.46	16381.41
484.64	16496.10
484.82	16535.88
485.00	16615.46
485.18	16720.79
485.35	16594.40
485.53	16100.55
485.71	16751.21
485.89	16847.18
486.07	16514.82
486.25	16966.54
486.43	16978.25
486.61	17301.24
486.78	17118.68
486.96	17315.28
487.14	17914.46
487.32	17891.06
487.50	18031.49
487.68	18799.18
487.85	18553.43
488.03	18761.73
488.21	18773.44
488.39	18937.27
488.57	19183.03
488.75	18951.32
488.92	19470.92
489.10	19623.05
489.28	19473.26
489.46	20032.65
489.64	19711.99
489.81	20463.30
489.99	20517.14
490.17	20669.27
490.35	20250.32
490.53	20608.42
490.70	20379.04
490.88	20386.07
491.06	21095.25
491.24	20889.28
491.41	20999.29
491.59	21181.85
491.77	20968.86
491.95	21408.88
492.13	21528.25
492.30	22040.82
492.48	21989.33
492.66	22178.92
492.84	22162.53
493.01	22450.42
493.19	22171.89
493.37	22417.65
493.54	22471.48
493.72	22925.55
493.90	22883.42
494.08	22958.31
494.25	23307.05
494.43	23330.46
494.61	23660.48
494.79	23543.45
494.96	23826.65
495.14	23772.82
495.32	23821.97
495.49	23756.44
495.67	23917.93
495.85	24484.34
496.02	24538.18
496.20	24931.39
496.38	24638.82
496.55	24669.25
496.73	25453.33
496.91	25074.16
497.09	25481.41
497.26	25626.53
497.44	25518.86
497.62	25663.97
497.79	25685.04
497.97	25535.24
498.14	25797.38
498.32	25736.53
498.50	25769.30
498.67	26286.56
498.85	26518.27
499.03	26520.61
499.20	26389.54
499.38	26738.28
499.56	26883.39
499.73	26651.68
499.91	26841.26
500.08	27084.68
500.26	26494.86
500.44	26918.50
500.61	27220.43
500.79	27063.61
500.97	27281.28
501.14	27454.48
501.32	27534.06
501.49	27253.20
501.67	27040.21
501.84	27597.26
502.02	27885.14
502.20	27917.91
502.37	28119.20
502.55	28030.26
502.72	28203.46
502.90	28535.81
503.07	28383.68
503.25	28687.95
503.43	28116.86
503.60	28535.81
503.78	28278.35
503.95	28404.74
504.13	28919.66
504.30	28992.22
504.48	29198.18
504.65	29310.53
504.83	29420.53
505.01	29469.69
505.18	29607.78
505.36	29844.17
505.53	29656.93
505.71	29649.91
505.88	29944.81
506.06	30150.78
506.23	30075.88
506.41	30103.97
506.58	29926.09
506.76	30253.76
506.93	30476.12
507.11	30401.22
507.28	30082.91
507.46	30057.16
507.63	30553.35
507.81	30279.51
507.98	30527.61
508.16	30768.68
508.33	30855.28
508.50	30969.97
508.68	31402.97
508.85	30888.05
509.03	31267.22
509.20	31517.65
509.38	31372.54
509.55	31735.32
509.73	31800.86
509.90	31489.57
510.08	31784.48
510.25	31931.93
510.42	31985.76
510.60	32212.79
510.77	32311.10
510.95	32423.44
511.12	32442.17
511.30	32465.57
511.47	32500.68
511.64	32727.71
511.82	32931.34
511.99	32503.02
512.17	32849.42
512.34	32507.70
512.51	32821.33
512.69	33015.60
512.86	33156.03
513.04	33111.56
513.21	33010.92
513.38	33134.96
513.56	33230.93
513.73	32954.74
513.90	33378.38
514.08	33149.01
514.25	33289.44
514.43	33607.75
514.60	33549.24
514.77	33654.56
514.95	34096.92
515.12	34022.03
515.29	34071.18
515.47	34132.03
515.64	34426.94
515.81	34298.21
515.99	34188.21
516.16	34073.52
516.33	33574.98
516.51	33883.94
516.68	33371.36
516.85	33275.40
517.03	33909.68
517.20	33879.25
517.37	34494.82
517.54	34876.32
517.72	34785.04
517.89	34015.01
518.06	34197.57
518.24	34330.98
518.41	34986.33
518.58	34937.18
518.75	34866.96
518.93	35192.30
519.10	34981.65
519.27	35255.49
519.45	35473.16
519.62	35538.69
519.79	36116.81
519.96	35732.96
520.14	36112.13
520.31	35639.34
520.48	35758.70
520.65	35866.37
520.83	36315.75
521.00	36058.29
521.17	36013.82
521.34	36189.36
521.52	36348.52
521.69	36355.54
521.86	36739.39
522.03	36297.03
522.20	36671.51
522.38	36589.59
522.55	36854.08
522.72	36793.22
522.89	36598.96
523.07	36708.96
523.24	37163.03
523.41	37174.73
523.58	37385.38
523.75	37947.11
523.92	37446.23
524.10	37415.80
524.27	37647.52
524.44	37886.25
524.61	37984.55
524.78	37963.49
524.96	37471.98
525.13	37975.19
525.30	37954.13
525.47	38155.41
525.64	37947.11
525.81	38003.28
525.98	38010.30
526.16	37727.10
526.33	37200.47
526.50	37940.08
526.67	37572.62
526.84	37752.84
527.01	37633.47
527.18	38160.09
527.36	38663.31
527.53	38452.66
527.70	38724.16
527.87	38352.02
528.04	38164.78
528.21	39110.35
528.38	38813.10
528.55	39239.08
528.72	39180.57
528.89	39419.30
529.07	38993.32
529.24	39159.50
529.41	39150.14
529.58	39016.73
529.75	39477.82
529.92	39431.01
530.09	39627.61
530.26	39412.28
530.43	39931.88
530.60	39210.99
530.77	39302.28
530.94	39693.15
531.11	39690.80
531.28	39606.55
531.46	39782.09
531.63	40343.81
531.80	39508.24
531.97	40065.29
532.14	39765.70
532.31	39826.56
532.48	39562.08
532.65	39969.33
532.82	39578.46
532.99	39847.62
533.16	39552.71
533.33	40339.13
533.50	40275.94
533.67	40329.77
533.84	40107.42
534.01	40407.01
534.18	40484.25
534.35	40407.01
534.52	40620.00
534.69	40720.64
534.86	40978.10
535.03	40816.60
535.20	41261.30
535.37	41209.81
535.54	41233.22
535.71	40889.16
535.88	41188.75
536.05	41034.27
536.22	41336.20
536.38	40954.69
536.55	41170.02
536.72	41106.83
536.89	40535.74
537.06	41289.39
537.23	41277.69
537.40	41460.25
537.57	41624.09
537.74	41469.61
537.91	41727.07
538.08	41748.14
538.25	40982.78
538.42	41675.58
538.59	41563.23
538.75	41254.28
538.92	41827.71
539.09	42071.13
539.26	41773.88
539.43	41366.63
539.60	41860.48
539.77	41546.85
539.94	41755.16
540.11	41118.53
540.28	41930.70
540.44	41825.37
540.61	41940.06
540.78	41446.21
540.95	41596.00
541.12	41748.14
541.29	42160.07
541.46	42227.95
541.62	42337.95
541.79	42602.43
541.96	41727.07
542.13	42330.93
542.30	42314.55
542.47	42398.80
542.63	42466.68
542.80	42602.43
542.97	42827.12
543.14	42941.81
543.31	42759.25
543.48	43054.15
543.64	43557.37
543.81	43264.80
543.98	43440.34
544.15	42960.53
544.32	43051.81
544.48	43428.64
544.65	43306.93
544.82	43220.33
544.99	43447.36
545.16	43065.86
545.32	43459.07
545.49	43540.99
545.66	43634.61
545.83	43559.71
546.00	43707.16
546.16	43220.33
546.33	43456.73
546.50	43676.74
546.67	43751.63
546.83	43154.80
547.00	43426.30
547.17	43723.55
547.34	43435.66
547.50	43456.73
547.67	43753.97
547.84	43576.09
548.00	43751.63
548.17	44287.62
548.34	44109.74
548.51	44285.28
548.67	44524.01
548.84	43936.54
549.01	43540.99
549.18	44112.08
549.34	44308.68
549.51	43948.24
549.68	44048.88
549.84	44037.18
550.01	44451.45
550.18	44079.31
550.34	43950.58
550.51	44247.83
550.68	44093.35
550.84	44278.25
551.01	44086.33
551.18	44364.85
551.34	44060.58
551.51	44341.45
551.68	44582.52
551.84	44587.21
552.01	44334.43
552.18	44467.84
552.34	44236.12
552.51	44744.02
552.68	44547.42
552.84	44374.22
553.01	44610.61
553.18	44509.97
553.34	44903.18
553.51	44549.76
553.67	44687.85
553.84	45265.96
554.01	45387.67
554.17	45043.61
554.34	44989.78
554.51	44903.18
554.67	44903.18
554.84	45043.61
555.00	45298.73
555.17	44865.73
555.33	44802.53
555.50	44758.06
555.67	44795.51
555.83	44816.58
556.00	44905.52
556.16	45104.46
556.33	45074.04
556.50	45015.52
556.66	45132.55
556.83	44797.85
556.99	45256.60
557.16	45043.61
557.32	45205.11
557.49	45275.32
557.65	45186.38
557.82	45352.56
557.98	45102.12
558.15	45397.03
558.32	45490.65
558.48	45544.48
558.65	45181.70
558.81	45139.57
558.98	44626.99
559.14	45696.62
559.31	44975.73
559.47	45146.59
559.64	45509.38
559.80	45422.78
559.97	45441.50
560.13	45619.38
560.30	45429.80
560.46	45530.44
560.63	45581.93
560.79	46153.02
560.96	46068.76
561.12	45921.31
561.29	45361.92
561.45	45507.04
561.61	45427.46
561.78	45759.81
561.94	45572.57
562.11	45483.63
562.27	45296.39
562.44	45434.48
562.60	45883.86
562.77	45708.32
562.93	45106.80
563.10	46354.31
563.26	45532.78
563.42	45869.82
563.59	45504.70
563.75	45872.16
563.92	45933.01
564.08	45762.15
564.24	45846.41
564.41	46110.89
564.57	45895.56
564.74	45675.55
564.90	45998.55
565.07	45610.02
565.23	46274.73
565.39	45373.63
565.56	45439.16
565.72	45453.20
565.88	45455.54
566.05	45677.90
566.21	45659.17
566.38	45949.40
566.54	46096.85
566.70	46124.94
566.87	46433.89
567.03	45935.35
567.19	46328.56
567.36	46120.26
567.52	46155.36
567.68	46136.64
567.85	45862.80
568.01	46216.22
568.17	45820.67
568.34	46277.07
568.50	45925.99
568.66	45837.05
568.83	45890.88
568.99	45677.90
569.15	45890.88
569.32	46021.95
569.48	46122.60
569.64	46227.92
569.81	46190.47
569.97	45860.46
570.13	45745.77
570.30	46075.79
570.46	45827.69
570.62	45654.49
570.78	45537.46
570.95	45701.30
571.11	46045.36
571.27	45731.73
571.43	46103.87
571.60	46281.75
571.76	46366.01
571.92	46043.02
572.09	46195.15
572.25	46005.57
572.41	46513.47
572.57	46735.82
572.74	46766.24
572.90	45663.85
573.06	46377.72
573.22	46696.03
573.38	46014.93
573.55	45996.21
573.71	46340.27
573.87	46246.65
574.03	46089.83
574.20	46330.90
574.36	45638.11
574.52	46358.99
574.68	46344.95
574.84	46267.71
575.01	46412.82
575.17	46033.66
575.33	45921.31
575.49	46108.55
575.65	46351.97
575.82	46064.08
575.98	46328.56
576.14	46553.26
576.30	46382.40
576.46	45998.55
576.62	46078.13
576.79	46014.93
576.95	46239.62
577.11	46209.20
577.27	46153.02
577.43	46223.24
577.59	46019.61
577.75	46487.72
577.92	46026.63
578.08	45778.54
578.24	45736.41
578.40	46162.39
578.56	45766.84
578.72	46571.98
578.88	46543.89
579.04	46368.35
579.21	46061.74
579.37	46220.90
579.53	46658.58
579.69	46136.64
579.85	46270.05
580.01	46188.13
580.17	46363.67
580.33	46316.86
580.49	46213.88
580.65	46368.35
580.82	45890.88
580.98	46270.05
581.14	46473.68
581.30	46387.08
581.46	45982.16
581.62	46300.48
581.78	46036.00
581.94	46291.12
582.10	46115.58
582.26	46078.13
582.42	46019.61
582.58	46586.02
582.74	46443.25
582.90	46810.71
583.06	46644.54
583.22	46635.17
583.38	46593.04
583.54	46571.98
583.70	46464.32
583.86	45958.76
584.02	46703.05
584.18	46466.66
584.34	46256.01
584.50	46227.92
584.66	46272.39
584.82	46120.26
584.98	46780.29
585.14	46373.03
585.30	46124.94
585.46	46033.66
585.62	46171.75
585.78	46218.56
585.94	46167.07
586.10	46059.40
586.26	45860.46
586.42	46806.03
586.58	46562.62
586.74	46536.87
586.90	46183.45
587.06	46316.86
587.22	46288.77
587.38	46768.58
587.54	46466.66
587.70	47021.36
587.86	45972.80
588.02	46602.41
588.18	46239.62
588.34	46417.50
588.49	46054.72
588.65	45956.42
588.81	45979.82
588.97	45839.39
589.13	45668.53
589.29	45703.64
589.45	46199.83
589.61	46415.16
589.77	46630.49
589.93	46169.41
590.08	45965.78
590.24	46714.75
590.40	46869.23
590.56	46869.23
590.72	46670.28
590.88	46031.32
591.04	46834.12
591.20	46726.46
591.35	46754.54
591.51	46745.18
591.67	46239.62
591.83	46370.69
591.99	46167.07
592.15	46141.32
592.31	46380.06
592.46	46344.95
592.62	46672.62
592.78	46717.09
592.94	46937.10
593.10	45839.39
593.26	46754.54
593.41	46422.19
593.57	46309.84
593.73	46429.21
593.89	46625.81
594.05	46419.84
594.20	46583.68
594.36	46562.62
594.52	46679.64
594.68	46373.03
594.84	46382.40
594.99	46382.40
595.15	46351.97
595.31	46873.91
595.47	46845.82
595.62	46478.36
595.78	46700.71
595.94	46490.06
596.10	46845.82
596.25	46377.72
596.41	46532.19
596.57	46361.33
596.73	46478.36
596.88	46450.27
597.04	46703.05
597.20	46749.86
597.36	46405.80
597.51	46274.73
597.67	46134.30
597.83	46279.41
597.99	47243.71
598.14	46298.14
598.30	46321.54
598.46	46653.90
598.61	46824.76
598.77	46281.75
598.93	46464.32
599.09	46536.87
599.24	46815.40
599.40	46632.83
599.56	46314.52
599.71	46401.12
599.87	46913.70
600.03	46368.35
600.18	46405.80
600.34	46443.25
600.50	46412.82
600.65	46677.30
600.81	46738.16
600.97	46419.84
601.12	46887.95
601.28	46101.53
601.44	46071.10
601.59	46115.58
601.75	46394.10
601.91	46436.23
602.06	46260.69
602.22	46850.50
602.37	46604.75
602.53	46733.48
602.69	46644.54
602.84	46153.02
603.00	46342.61
603.16	46768.58
603.31	46534.53
603.47	46431.55
603.62	46195.15
603.78	46595.38
603.94	46216.22
604.09	46995.62
604.25	46487.72
604.40	46260.69
604.56	46461.97
604.71	46550.91
604.87	46155.36
605.03	46588.36
605.18	46419.84
605.34	46410.48
605.49	46050.04
605.65	46567.30
605.80	46256.01
605.96	46211.54
606.12	46248.99
606.27	46754.54
606.43	45942.38
606.58	46560.28
606.74	46122.60
606.89	46248.99
607.05	46356.65
607.20	46204.52
607.36	46347.29
607.51	46274.73
607.67	46602.41
607.82	46120.26
607.98	46045.36
608.13	45881.52
608.29	45944.72
608.44	46124.94
608.60	45982.16
608.75	45883.86
608.91	46117.92
609.06	46211.54
609.22	46050.04
609.37	45764.49
609.53	46099.19
609.68	45815.99
609.84	45825.35
609.99	45937.69
610.15	46014.93
610.30	45914.29
610.46	45460.23
610.61	45432.14
610.76	45492.99
610.92	45977.48
611.07	46174.09
611.23	45778.54
611.38	45930.67
611.54	45263.62
611.69	45450.86
611.84	45617.04
612.00	45595.98
612.15	45507.04
612.31	45766.84
612.46	45551.51
612.62	46043.02
612.77	45343.20
612.92	45366.60
613.08	45308.09
613.23	45635.77
613.39	45226.17
613.54	44973.39
613.69	45347.88
613.85	45523.42
614.00	45488.31
614.15	45649.81
614.31	45570.23
614.46	45289.37
614.62	45333.84
614.77	45392.35
614.92	45078.72
615.08	45022.54
615.23	44914.88
615.38	45113.83
615.54	44839.98
615.69	44921.90
615.84	44996.80
616.00	45317.45
616.15	45006.16
616.30	45158.30
616.46	44802.53
616.61	44582.52
616.76	45139.57
616.92	44896.16
617.07	44713.59
617.22	44809.56
617.37	45207.45
617.53	44919.56
617.68	45521.08
617.83	45045.95
617.99	44849.35
618.14	45045.95
618.29	44584.86
618.45	44444.43
618.60	44737.00
618.75	44184.63
618.90	44254.85
619.06	44533.37
619.21	44458.48
619.36	44615.29
619.51	44477.20
619.67	44327.41
619.82	44275.91
619.97	44678.49
620.12	44076.97
620.28	44112.08
620.43	44161.23
620.58	44428.05
620.73	44161.23
620.89	44179.95
621.04	44371.88
621.19	44767.43
621.34	44165.91
621.49	44261.87
621.65	44168.25
621.80	44566.14
621.95	44362.51
622.10	43896.75
622.25	43861.64
622.41	44126.12
622.56	44048.88
622.71	44608.27
622.86	43482.47
623.01	43971.64
623.16	43737.59
623.32	43955.26
623.47	43629.93
623.62	43564.39
623.77	44123.78
623.92	43985.69
624.07	43477.79
624.23	43683.76
624.38	43384.17
624.53	43597.16
624.68	43653.33
624.83	43770.36
624.98	43894.41
625.13	43983.35
625.29	43374.81
625.44	43173.52
625.59	43054.15
625.74	43089.26
625.89	43260.12
626.04	42775.63
626.19	42979.26
626.34	43093.94
626.49	43606.52
626.65	43217.99
626.80	43545.67
626.95	42820.10
627.10	42731.16
627.25	43297.57
627.40	43260.12
627.55	42759.25
627.70	42567.32
627.85	42820.10
628.00	42742.86
628.15	43009.68
628.30	43056.50
628.45	42705.41
628.60	43136.07
628.76	42511.15
628.91	42958.19
629.06	42511.15
629.21	42855.21
629.36	42525.19
629.51	42775.63
629.66	42459.66
629.81	42499.45
629.96	42822.44
630.11	42438.59
630.26	42632.86
630.41	42787.33
630.56	42466.68
630.71	42300.50
630.86	42129.64
631.01	42424.55
631.16	42089.85
631.31	42312.20
631.46	41701.32
631.61	42204.54
631.76	41813.67
631.91	42651.58
632.06	42426.89
632.21	42375.40
632.36	42096.88
632.51	41982.19
632.66	42366.04
632.81	41975.17
632.96	41776.22
633.10	42021.98
633.25	41989.21
633.40	41830.05
633.55	41916.65
633.70	42199.86
633.85	42000.91
634.00	41956.44
634.15	42148.37
634.30	41500.04
634.45	41481.31
634.60	41811.33
634.75	41668.56
634.90	41460.25
635.05	41792.61
635.19	41731.75
635.34	41560.89
635.49	41495.36
635.64	41621.75
635.79	41581.96
635.94	41413.44
636.09	41242.58
636.24	41020.23
636.39	41223.86
636.53	41366.63
636.68	41130.23
636.83	41020.23
636.98	41062.36
637.13	41170.02
637.28	41177.04
637.43	41886.23
637.57	41633.45
637.72	41303.43
637.87	41659.20
638.02	41642.81
638.17	41500.04
638.32	41298.75
638.46	40430.41
638.61	40959.38
638.76	40971.08
638.91	41179.39
639.06	41109.17
639.20	41467.27
639.35	41209.81
639.50	40659.79
639.65	41013.21
639.80	40933.63
639.94	40889.16
640.09	40175.30
640.24	40531.06
640.39	40318.07
640.54	40877.46
640.68	40332.11
640.83	40446.80
640.98	40460.84
641.13	40627.02
641.27	40549.78
641.42	40371.90
641.57	40428.07
641.72	40102.74
641.86	40034.86
642.01	40446.80
642.16	40229.13
642.31	39442.71
642.45	40650.42
642.60	39922.52
642.75	40013.80
642.90	40397.65
643.04	40289.98
643.19	40194.02
643.34	39374.83
643.48	39903.79
643.63	40294.66
643.78	39915.50
643.93	40182.32
644.07	40032.52
644.22	40135.51
644.37	39407.60
644.51	40158.91
644.66	39999.76
644.81	39643.99
644.95	40053.59
645.10	39814.85
645.25	39976.35
645.39	39997.41
645.54	39318.66
645.69	39133.76
645.83	39688.46
645.98	39587.82
646.13	39505.90
646.27	39601.86
646.42	39576.12
646.57	39667.40
646.71	39288.23
646.86	39442.71
647.00	39714.21
647.15	39164.18
647.30	39384.19
647.44	39019.07
647.59	39145.46
647.74	38803.74
647.88	38927.79
648.03	39168.87
648.17	38993.32
648.32	39248.44
648.47	38773.31
648.61	39360.79
648.76	39374.83
648.90	39466.11
649.05	38869.28
649.20	39491.86
649.34	38799.06
649.49	38483.09
649.63	38883.32
649.78	39009.71
649.92	39332.70
650.07	39512.92
650.21	39058.86
650.36	39093.97
650.51	38946.51
650.65	39194.61
650.80	39297.59
650.94	39227.38
651.09	38555.64
651.23	38298.19
651.38	38766.29
651.52	38607.14
651.67	38396.49
651.81	38574.37
651.96	38471.39
652.10	38703.10
652.25	38347.34
652.39	38529.90
652.54	38923.11
652.68	38286.48
652.83	38321.59
652.97	38827.15
653.12	38820.13
653.26	38185.84
653.41	38211.59
653.55	38176.48
653.70	38139.03
653.84	38438.62
653.99	37996.26
654.13	38157.75
654.27	38178.82
654.42	37881.57
654.56	37944.76
654.71	38017.32
654.85	38036.05
655.00	38106.26
655.14	37563.26
655.29	37605.39
655.43	37551.56
655.57	37614.75
655.72	37467.30
655.86	37198.13
656.01	36896.20
656.15	36935.99
656.30	37565.60
656.44	37521.13
656.58	37652.20
656.73	37610.07
656.87	37549.21
657.01	37230.90
657.16	37401.76
657.30	37013.23
657.45	36952.38
657.59	37312.82
657.73	38007.96
657.88	37546.87
658.02	37291.76
658.16	37301.12
658.31	37715.39
658.45	37371.33
658.60	37446.23
658.74	37486.02
658.88	37521.13
659.03	37219.20
659.17	36545.12
659.31	36802.58
659.46	36610.66
659.60	36748.75
659.74	36678.54
659.89	36329.80
660.03	36472.57
660.17	36889.18
660.32	36868.12
660.46	36818.97
660.60	36575.55
660.74	36559.17
660.89	36856.42
661.03	36409.37
661.17	36273.62
661.32	36720.66
661.46	36203.41
661.60	35924.88
661.74	35653.38
661.89	36348.52
662.03	36261.92
662.17	35901.48
662.31	35791.47
662.46	36503.00
662.60	36449.16
662.74	35955.31
662.88	35524.65
663.03	35896.80
663.17	35873.39
663.31	35065.91
663.45	35777.43
663.60	36254.90
663.74	35651.04
663.88	35676.79
664.02	35587.85
664.17	35578.48
664.31	35519.97
664.45	35091.65
664.59	35402.94
664.73	35283.58
664.88	35232.08
665.02	34967.60
665.16	35264.85
665.30	34628.23
665.44	34731.21
665.59	34670.36
665.73	34876.32
665.87	34300.55
666.01	35129.10
666.15	34843.56
666.29	35019.10
666.44	35122.08
666.58	34576.73
666.72	34618.86
666.86	35023.78
667.00	34061.82
667.14	34136.71
667.28	34162.46
667.43	34478.43
667.57	34766.32
667.71	34698.44
667.85	34607.16
667.99	34256.08
668.13	34293.53
668.27	34239.70
668.41	34291.19
668.56	33897.98
668.70	34326.30
668.84	33329.23
668.98	33584.35
669.12	33668.61
669.26	33612.43
669.40	33350.29
669.54	33612.43
669.68	33046.02
669.82	33567.96
669.96	33251.99
670.10	33436.89
670.25	33359.66
670.39	32947.72
670.53	32622.39
670.67	33069.43
670.81	33460.30
670.95	33027.30
671.09	32430.46
671.23	32975.81
671.37	32706.65
671.51	32657.49
671.65	32219.81
671.79	32367.27
671.93	32381.31
672.07	32648.13
672.21	32222.16
672.35	32271.31
672.49	32322.80
672.63	32205.77
672.77	32231.52
672.91	32055.98
673.05	32100.45
673.19	31505.95
673.33	31960.02
673.47	31658.09
673.61	31662.77
673.75	31529.36
673.89	31447.44
674.03	31311.69
674.17	31232.11
674.31	31274.24
674.45	31171.25
674.59	31604.25
674.73	31269.56
674.87	30951.24
675.01	30951.24
675.15	30984.01
675.29	30309.94
675.43	30916.14
675.56	30801.45
675.70	31040.18
675.84	30354.41
675.98	29603.10
676.12	30588.46
676.26	30466.75
676.40	30197.59
676.54	30506.54
676.68	30326.32
676.82	29603.10
676.96	29703.74
677.10	30235.04
677.23	29853.53
677.37	30106.31
677.51	29556.28
677.65	29184.14
677.79	29298.83
677.93	29134.99
678.07	28905.62
678.21	28631.77
678.34	28528.79
678.48	28762.84
678.62	28486.66
678.76	28629.43
678.90	28470.28
679.04	28299.42
679.18	28645.82
679.31	28137.92
679.45	28334.53
679.59	28247.93
679.73	28238.56
679.87	27924.93
680.00	27838.33
680.14	27943.66
680.28	27681.52
680.42	27749.39
680.56	27861.74
680.70	27332.78
680.83	27866.42
680.97	27016.80
681.11	27452.14
681.25	26628.27
681.39	27276.60
681.52	26951.27
681.66	26876.37
681.80	27028.51
681.94	26611.89
682.07	26639.98
682.21	26490.18
682.35	26464.44
682.49	26817.86
682.62	26015.05
682.76	26480.82
682.90	26190.59
683.04	26022.08
683.17	26515.93
683.31	25703.76
683.45	26352.09
683.59	25605.46
683.72	25696.74
683.86	25635.89
684.00	25453.33
684.13	25474.39
684.27	25191.19
684.41	25050.75
684.55	25032.03
684.68	24989.90
684.82	24786.27
684.96	24947.77
685.09	24765.21
685.23	24634.14
685.37	24559.24
685.50	24678.61
685.64	24826.06
685.78	24472.64
685.91	24173.05
686.05	23922.62
686.19	24107.52
686.32	23826.65
686.46	23456.85
686.60	23276.63
686.73	23316.42
686.87	23122.15
687.01	23138.54
687.14	22757.03
687.28	23058.96
687.42	23267.27
687.55	22897.46
687.69	22913.84
687.82	22930.23
687.96	22593.19
688.10	22721.92
688.23	22614.26
688.37	22515.95
688.50	22703.20
688.64	22628.30
688.78	22417.65
688.91	21921.46
689.05	22216.36
689.18	21820.81
689.32	21954.22
689.46	22195.30
689.59	21809.11
689.73	22356.80
689.86	21933.16
690.00	21518.89
690.13	21778.68
690.27	21502.50
690.41	21455.69
690.54	21575.06
690.68	21109.29
690.81	21177.17
690.95	21441.65
691.08	21261.43
691.22	20973.54
691.35	20774.60
691.49	21106.95
691.62	20950.14
691.76	20741.83
691.89	21074.18
692.03	20575.65
692.16	20793.32
692.30	20318.19
692.43	20219.89
692.57	20315.85
692.70	19929.66
692.84	20210.53
692.97	20020.94
693.11	19796.25
693.24	19311.76
693.38	19522.41
693.51	19641.78
693.65	19754.12
693.78	19463.90
693.92	19264.95
694.05	19761.14
694.19	19115.16
694.32	19513.05
694.45	18808.54
694.59	19204.10
694.72	18867.06
694.86	18874.08
694.99	18792.16
695.13	18677.48
695.26	18462.15
695.39	18853.02
695.53	18867.06
695.66	18766.42
695.80	18560.45
695.93	18478.53
696.07	18363.84
696.20	18181.28
696.33	18452.78
696.47	18340.44
696.60	17748.28
696.73	17633.60
696.87	17900.42
697.00	17640.62
697.14	17912.12
697.27	17451.03
697.40	17493.16
697.54	17235.70
697.67	17535.29
697.80	17233.36
697.94	16996.97
698.07	16931.44
698.21	17139.74
698.34	17057.82
698.47	16908.03
698.61	17046.12
698.74	16695.04
698.87	16875.26
699.01	16676.32
699.14	16390.77
699.27	16271.40
699.40	16496.10
699.54	16343.96
699.67	16203.53
699.80	16070.12
699.94	15955.43
700.07	15950.75
700.20	16121.61
700.34	16077.14
700.47	16032.67
700.60	15742.44
700.73	15889.90
700.87	15503.71
701.00	15573.92
701.13	15412.43
701.26	15367.96
701.40	15286.04
701.53	15309.44
701.66	15145.61
701.79	15204.12
701.93	14949.00
702.06	15143.27
702.19	14874.10
702.32	15047.30
702.46	14911.55
702.59	14813.25
702.72	14572.18
702.85	14750.06
702.99	14831.97
703.12	14647.07
703.25	14534.73
703.38	14490.26
703.51	14452.81
703.65	14312.38
703.78	14277.27
703.91	14019.81
704.04	14204.71
704.17	14101.73
704.31	13987.04
704.44	13926.19
704.57	13818.52
704.70	13776.39
704.83	13565.74
704.96	13774.05
705.10	13572.77
705.23	13582.13
>>>>>End Processed Spectral Data<<<<<
