SpectraSuite Data File
++++++++++++++++++++++++++++++++++++
Date: Fri Oct 25 11:33:50 EDT 2013
User: price-jones
Dark Spectrum Present: No
Reference Spectrum Present: No
Number of Sampled Component Spectra: 1
Spectrometers: USB2+H05261
Integration Time (usec): 100000 (USB2+H05261)
Spectra Averaged: 1 (USB2+H05261)
Boxcar Smoothing: 0 (USB2+H05261)
Correct for Electrical Dark: No (USB2+H05261)
Strobe/Lamp Enabled: No (USB2+H05261)
Correct for Detector Non-linearity: No (USB2+H05261)
Correct for Stray Light: No (USB2+H05261)
Number of Pixels in Processed Spectrum: 2048
>>>>>Begin Processed Spectral Data<<<<<
365.73	259.80
365.92	259.80
366.12	259.80
366.32	201.29
366.52	131.07
366.72	217.67
366.91	152.13
367.11	184.90
367.31	166.18
367.51	161.50
367.70	135.75
367.90	105.32
368.10	133.41
368.30	222.35
368.49	114.69
368.69	236.39
368.89	196.60
369.09	177.88
369.28	208.31
369.48	243.42
369.68	290.23
369.87	243.42
370.07	229.37
370.27	266.82
370.47	306.61
370.66	557.05
370.86	528.96
371.06	540.66
371.25	545.34
371.45	512.58
371.65	610.88
371.84	573.43
372.04	552.37
372.24	547.69
372.44	512.58
372.63	521.94
372.83	606.20
373.03	620.24
373.22	641.31
373.42	571.09
373.62	641.31
373.81	622.58
374.01	671.73
374.21	648.33
374.40	624.92
374.60	711.52
374.79	620.24
374.99	667.05
375.19	667.05
375.38	681.10
375.58	681.10
375.78	706.84
375.97	777.06
376.17	676.41
376.37	741.95
376.56	664.71
376.76	657.69
376.95	669.39
377.15	699.82
377.35	753.65
377.54	674.07
377.74	634.29
377.93	660.03
378.13	641.31
378.33	763.01
378.52	709.18
378.72	711.52
378.91	816.85
379.11	678.76
379.31	606.20
379.50	720.88
379.70	737.27
379.89	760.67
380.09	662.37
380.28	713.86
380.48	718.54
380.68	688.12
380.87	781.74
381.07	713.86
381.26	812.17
381.46	704.50
381.65	734.93
381.85	786.42
382.04	784.08
382.24	725.57
382.43	793.44
382.63	734.93
382.83	660.03
383.02	784.08
383.22	741.95
383.41	795.78
383.61	807.48
383.80	901.11
384.00	877.70
384.19	837.91
384.39	830.89
384.58	854.30
384.78	779.40
384.97	781.74
385.17	793.44
385.36	835.57
385.56	870.68
385.75	877.70
385.95	849.61
386.14	896.43
386.34	866.00
386.53	835.57
386.72	877.70
386.92	901.11
387.11	854.30
387.31	809.83
387.50	847.27
387.70	917.49
387.89	926.85
388.09	898.77
388.28	905.79
388.48	980.68
388.67	887.06
388.86	903.45
389.06	912.81
389.25	1020.47
389.45	891.74
389.64	847.27
389.84	980.68
390.03	1011.11
390.22	992.39
390.42	961.96
390.61	863.66
390.81	938.55
391.00	1029.84
391.19	966.64
391.39	1011.11
391.58	917.49
391.78	992.39
391.97	1036.86
392.16	936.21
392.36	1008.77
392.55	1039.20
392.75	1060.26
392.94	1153.88
393.13	1001.75
393.33	1011.11
393.52	1050.90
393.71	1062.60
393.91	1020.47
394.10	1053.24
394.29	1118.78
394.49	1097.71
394.68	1151.54
394.88	1160.91
395.07	1053.24
395.26	1128.14
395.46	1149.20
395.65	1151.54
395.84	1228.78
396.04	1217.08
396.23	1277.93
396.42	1151.54
396.62	1210.06
396.81	1231.12
397.00	1228.78
397.19	1238.14
397.39	1156.22
397.58	1245.16
397.77	1130.48
397.97	1277.93
398.16	1228.78
398.35	1336.45
398.55	1217.08
398.74	1273.25
398.93	1320.06
399.12	1350.49
399.32	1392.62
399.51	1254.53
399.70	1430.07
399.90	1390.28
400.09	1366.87
400.28	1455.81
400.47	1331.76
400.67	1387.94
400.86	1390.28
401.05	1394.96
401.24	1409.00
401.44	1444.11
401.63	1481.56
401.82	1416.02
402.01	1409.00
402.21	1397.30
402.40	1514.33
402.59	1509.65
402.78	1521.35
402.97	1420.71
403.17	1523.69
403.36	1584.54
403.55	1519.01
403.74	1696.89
403.93	1614.97
404.13	1659.44
404.32	1614.97
404.51	1589.22
404.70	1624.33
404.89	1593.90
405.09	1659.44
405.28	1741.36
405.47	1685.19
405.66	1694.55
405.85	1633.69
406.05	1666.46
406.24	1689.87
406.43	1778.81
406.62	1839.66
406.81	1764.76
407.00	1713.27
407.20	1806.89
407.39	1720.29
407.58	1912.22
407.77	1813.92
407.96	1919.24
408.15	1767.10
408.34	1874.77
408.54	1905.20
408.73	1865.41
408.92	1921.58
409.11	1928.60
409.30	2078.40
409.49	1961.37
409.68	2019.88
409.87	2003.50
410.07	2047.97
410.26	2094.78
410.45	2120.53
410.64	2097.12
410.83	2022.22
411.02	2080.74
411.21	2134.57
411.40	2232.87
411.59	2277.34
411.78	2235.21
411.98	2239.89
412.17	2235.21
412.36	2289.04
412.55	2349.90
412.74	2333.51
412.93	2392.03
413.12	2389.69
413.31	2385.01
413.50	2319.47
413.69	2338.20
413.88	2455.22
414.07	2438.84
414.26	2455.22
414.45	2530.12
414.64	2511.39
414.83	2614.38
415.02	2583.95
415.22	2607.36
415.41	2647.15
415.60	2693.96
415.79	2679.91
415.98	2726.72
416.17	2691.62
416.36	2703.32
416.55	2768.85
416.74	2740.77
416.93	2820.35
417.12	2841.41
417.31	2913.97
417.50	2869.50
417.69	2972.48
417.88	2944.39
418.07	2963.12
418.26	2935.03
418.45	2937.37
418.64	3096.53
418.83	3045.04
419.02	3000.57
419.21	3180.79
419.39	3159.72
419.58	3108.23
419.77	3122.27
419.96	3164.40
420.15	3211.22
420.34	3178.45
420.53	3136.32
420.72	3187.81
420.91	3274.41
421.10	3258.03
421.29	3236.96
421.48	3293.13
421.67	3389.10
421.86	3337.60
422.05	3255.69
422.24	3375.05
422.43	3398.46
422.61	3335.26
422.80	3323.56
422.99	3414.84
423.18	3335.26
423.37	3454.63
423.56	3485.06
423.75	3368.03
423.94	3253.34
424.13	3227.60
424.32	3255.69
424.50	3311.86
424.69	3461.65
424.88	3456.97
425.07	3363.35
425.26	3396.12
425.45	3431.23
425.64	3463.99
425.83	3344.63
426.01	3419.52
426.20	3510.80
426.39	3471.01
426.58	3487.40
426.77	3346.97
426.96	3658.26
427.15	3482.72
427.33	3459.31
427.52	3447.61
427.71	3700.39
427.90	3609.11
428.09	3695.71
428.28	3681.66
428.46	3702.73
428.65	3625.49
428.84	3852.52
429.03	3758.90
429.22	3655.92
429.40	3796.35
429.59	3604.42
429.78	3555.27
429.97	3667.62
430.16	3700.39
430.34	3864.22
430.53	3868.91
430.72	3978.91
430.91	3934.44
431.10	3810.39
431.28	3978.91
431.47	3925.08
431.66	4042.11
431.85	3892.31
432.03	4053.81
432.22	4109.98
432.41	4039.76
432.60	3997.64
432.79	4145.09
432.97	4105.30
433.16	4212.96
433.35	4025.72
433.54	4173.18
433.72	4152.11
433.91	4231.69
434.10	4241.05
434.28	4112.32
434.47	4243.39
434.66	4224.67
434.85	4358.08
435.03	4365.10
435.22	4362.76
435.41	4454.04
435.59	4358.08
435.78	4479.79
435.97	4465.74
436.16	4449.36
436.34	4552.34
436.53	4388.50
436.72	4390.84
436.90	4425.95
437.09	4557.02
437.28	4477.44
437.46	4587.45
437.65	4505.53
437.84	4554.68
438.02	4580.43
438.21	4571.07
438.40	4458.72
438.58	4739.58
438.77	4777.03
438.96	4737.24
439.14	4924.49
439.33	4940.87
439.52	4975.98
439.70	5020.45
439.89	5057.90
440.08	4954.91
440.26	5055.56
440.45	4971.30
440.63	5015.77
440.82	5163.22
441.01	5093.01
441.19	5149.18
441.38	5188.97
441.57	5331.74
441.75	5479.19
441.94	5427.70
442.12	5327.06
442.31	5266.21
442.50	5338.76
442.68	5303.65
442.87	5408.98
443.05	5673.46
443.24	5495.58
443.43	5626.65
443.61	5446.43
443.80	5738.99
443.98	5462.81
444.17	5254.50
444.35	5617.29
444.54	5652.39
444.73	5495.58
444.91	5589.20
445.10	5682.82
445.28	5511.96
445.47	5530.69
445.65	5551.75
445.84	5652.39
446.02	5750.70
446.21	5753.04
446.39	5769.42
446.58	5851.34
446.77	5795.17
446.95	5561.11
447.14	5884.11
447.32	5900.49
447.51	5785.80
447.69	5738.99
447.88	5713.25
448.06	5790.49
448.25	5790.49
448.43	5998.79
448.62	5724.95
448.80	5865.38
448.99	5916.87
449.17	5778.78
449.36	6001.13
449.54	6061.99
449.73	5895.81
449.91	6106.46
450.10	5987.09
450.28	6078.37
450.46	6174.33
450.65	6274.98
450.83	6120.50
451.02	6033.90
451.20	6111.14
451.39	6174.33
451.57	6127.52
451.76	6122.84
451.94	6134.54
452.13	6403.71
452.31	6347.53
452.49	6342.85
452.68	6333.49
452.86	6289.02
453.05	6389.66
453.23	6387.32
453.42	6420.09
453.60	6237.53
453.78	6513.71
453.97	6314.77
454.15	6438.81
454.34	6370.94
454.52	6579.25
454.70	6523.07
454.89	6567.54
455.07	6562.86
455.26	6562.86
455.44	6693.93
455.62	6834.36
455.81	6675.21
455.99	6726.70
456.17	6726.70
456.36	6787.55
456.54	6960.75
456.73	6979.48
456.91	6895.22
457.09	7063.74
457.28	7258.00
457.46	6836.70
457.64	7094.16
457.83	6839.05
458.01	6862.45
458.19	7241.62
458.38	7236.94
458.56	7169.06
458.74	7187.79
458.93	7131.61
459.11	7103.53
459.29	7220.55
459.48	7405.46
459.66	7281.41
459.84	7234.60
460.03	7293.11
460.21	7239.28
460.39	7400.77
460.57	7494.40
460.76	7316.51
460.94	7522.48
461.12	7410.14
461.31	7609.08
461.49	7452.27
461.67	7623.12
461.85	7730.79
462.04	7538.87
462.22	8009.31
462.40	7707.38
462.59	7726.11
462.77	7810.37
462.95	7906.33
463.13	7761.22
463.32	7777.60
463.50	7866.54
463.68	7805.69
463.86	7925.05
464.05	7798.66
464.23	7838.45
464.41	7819.73
464.59	7679.30
464.78	8011.65
464.96	8063.15
465.14	8063.15
465.32	8035.06
465.50	8035.06
465.69	7981.23
465.87	8098.25
466.05	8231.66
466.23	8124.00
466.41	8231.66
466.60	8524.23
466.78	8245.71
466.96	8163.79
467.14	8266.77
467.32	8297.20
467.51	8390.82
467.69	8152.09
467.87	8262.09
468.05	8402.52
468.23	8297.20
468.41	8336.99
468.60	8435.29
468.78	8510.19
468.96	8248.05
469.14	8594.45
469.32	8636.58
469.50	8435.29
469.69	8718.50
469.87	8882.33
470.05	8704.45
470.23	8819.14
470.41	8793.39
470.59	8697.43
470.77	8926.80
470.95	8875.31
471.14	9135.11
471.32	8950.21
471.50	9123.41
471.68	9083.62
471.86	9151.49
472.04	9289.59
472.22	9273.20
472.40	9202.99
472.58	9231.07
472.77	9355.12
472.95	9467.47
473.13	9635.99
473.31	9352.78
473.49	9617.26
473.67	9406.61
473.85	9420.66
474.03	9579.81
474.21	9825.57
474.39	9788.12
474.57	9825.57
474.75	10015.15
474.93	10080.69
475.12	9797.48
475.30	9914.51
475.48	9916.85
475.66	10111.11
475.84	10164.95
476.02	10211.76
476.20	10232.82
476.38	10284.31
476.56	10609.65
476.74	10497.30
476.92	10466.88
477.10	10700.93
477.28	10679.86
477.46	10794.55
477.64	10628.37
477.82	10883.49
478.00	11220.53
478.18	11176.06
478.36	11119.89
478.54	11166.70
478.72	11309.47
478.90	11272.02
479.08	11283.72
479.26	11412.45
479.44	11634.80
479.62	11756.51
479.80	11789.28
479.98	11910.99
480.16	12442.29
480.34	12266.75
480.52	12313.56
480.70	12212.92
480.88	12299.52
481.06	12367.39
481.24	12599.10
481.41	12411.86
481.59	12849.54
481.77	12638.89
481.95	12905.71
482.13	13144.45
482.31	12882.31
482.49	13270.84
482.67	13156.15
482.85	13252.11
483.03	13708.52
483.21	13404.25
483.39	13860.65
483.57	13624.26
483.74	14012.79
483.92	14050.24
484.10	13781.07
484.28	14398.98
484.46	14572.18
484.64	14684.52
484.82	14586.22
485.00	14656.43
485.18	15002.83
485.35	15012.20
485.53	15047.30
485.71	14869.42
485.89	15304.76
486.07	15578.61
486.25	15630.10
486.43	15492.01
486.61	15749.46
486.78	15749.46
486.96	15983.52
487.14	15843.09
487.32	16400.13
487.50	16386.09
487.68	16423.54
487.85	16503.12
488.03	16517.16
488.21	17020.38
488.39	16971.22
488.57	16826.11
488.75	17078.89
488.92	17273.15
489.10	17696.79
489.28	17404.22
489.46	17811.48
489.64	17572.74
489.81	18092.34
489.99	18012.76
490.17	18059.57
490.35	18412.99
490.53	18441.08
490.70	18768.76
490.88	18558.11
491.06	18890.46
491.24	18658.75
491.41	19131.54
491.59	19304.74
491.77	19358.57
491.95	19161.97
492.13	19854.76
492.30	19452.19
492.48	19782.21
492.66	19836.04
492.84	19829.02
493.01	20081.80
493.19	20388.41
493.37	20119.24
493.54	20315.85
493.72	20788.64
493.90	20510.11
494.08	21062.48
494.25	20973.54
494.43	21048.44
494.61	21027.37
494.79	21149.08
494.96	21202.91
495.14	21453.35
495.32	21642.93
495.49	21813.79
495.67	21774.00
495.85	22068.91
496.02	21659.32
496.20	22071.25
496.38	22057.21
496.55	22225.73
496.73	22658.73
496.91	22471.48
497.09	22600.21
497.26	23117.47
497.44	22501.91
497.62	23016.83
497.79	23613.66
497.97	23358.55
498.14	23447.49
498.32	23520.04
498.50	23946.02
498.67	23721.33
498.85	23606.64
499.03	24184.76
499.20	24063.05
499.38	24409.45
499.56	24463.28
499.73	24121.56
499.91	24451.58
500.08	24650.52
500.26	24816.70
500.44	24517.11
500.61	25015.65
500.79	24837.76
500.97	24996.92
501.14	25076.50
501.32	25348.00
501.49	25404.17
501.67	25638.23
501.84	25284.81
502.02	25638.23
502.20	25743.55
502.37	25708.44
502.55	25570.35
502.72	25872.28
502.90	25881.64
503.07	25905.05
503.25	26225.70
503.43	25858.24
503.60	26225.70
503.78	26291.24
503.95	26120.38
504.13	26548.70
504.30	26644.66
504.48	26724.24
504.65	26923.18
504.83	26822.54
505.01	27300.01
505.18	27080.00
505.36	27239.15
505.53	27166.60
505.71	27564.49
505.88	27653.43
506.06	27033.19
506.23	27391.29
506.41	27412.35
506.58	27611.30
506.76	27950.68
506.93	28369.63
507.11	28273.67
507.28	28386.02
507.46	28051.32
507.63	28105.15
507.81	28250.27
507.98	28233.88
508.16	28524.11
508.33	28533.47
508.50	28596.67
508.68	28765.18
508.85	28840.08
509.03	28797.95
509.20	29273.08
509.38	29259.04
509.55	29376.06
509.73	29006.26
509.90	29385.43
510.08	29640.54
510.25	29355.00
510.42	29448.62
510.60	29722.46
510.77	29785.66
510.95	29890.98
511.12	29766.93
511.30	29949.50
511.47	29832.47
511.64	30368.45
511.82	30370.79
511.99	30359.09
512.17	30490.16
512.34	30562.72
512.51	30333.34
512.69	30766.34
512.86	30689.10
513.04	31098.70
513.21	30759.32
513.38	30742.94
513.56	31101.04
513.73	30658.68
513.90	31372.54
514.08	31246.15
514.25	31271.90
514.43	31550.42
514.60	31316.37
514.77	31793.84
514.95	32018.53
515.12	31688.51
515.29	31496.59
515.47	31768.09
515.64	31964.70
515.81	31899.16
515.99	32320.46
516.16	32264.28
516.33	32397.70
516.51	32402.38
516.68	32205.77
516.85	32332.16
517.03	32519.40
517.20	32453.87
517.37	32755.80
517.54	32926.66
517.72	32697.28
517.89	32671.54
518.06	32907.93
518.24	32914.95
518.41	32781.54
518.58	32957.08
518.75	32938.36
518.93	33043.68
519.10	33425.19
519.27	33223.90
519.45	33755.21
519.62	33919.04
519.79	33469.66
519.96	33635.84
520.14	33521.15
520.31	33708.40
520.48	33844.15
520.65	34321.62
520.83	34328.64
521.00	34125.01
521.17	34382.47
521.34	34192.89
521.52	34373.11
521.69	34333.32
521.86	34506.52
522.03	34494.82
522.20	35019.10
522.38	35213.36
522.55	35470.82
522.72	35264.85
522.89	34930.16
523.07	35105.70
523.24	35229.74
523.41	34972.28
523.58	34951.22
523.75	35129.10
523.92	35482.52
524.10	35735.30
524.27	35894.46
524.44	35690.83
524.61	35496.56
524.78	35744.66
524.96	36016.16
525.13	35648.70
525.30	35620.61
525.47	35962.33
525.64	35838.28
525.81	36339.16
525.98	36367.24
526.16	36053.61
526.33	35573.80
526.50	36608.32
526.67	36175.32
526.84	36212.77
527.01	36397.67
527.18	36327.45
527.36	36510.02
527.53	36657.47
527.70	36926.63
527.87	37134.94
528.04	36786.20
528.21	36982.80
528.38	37118.56
528.55	37479.00
528.72	36921.95
528.89	37221.54
529.07	36818.97
529.24	37046.00
529.41	37258.99
529.58	37696.67
529.75	37591.34
529.92	37762.20
530.09	37460.27
530.26	37666.24
530.43	37612.41
530.60	37780.93
530.77	37507.08
530.94	37787.95
531.11	37759.86
531.28	37771.57
531.46	38092.22
531.63	38216.27
531.80	37787.95
531.97	38403.51
532.14	38373.08
532.31	38043.07
532.48	38199.88
532.65	38660.97
532.82	38272.44
532.99	38574.37
533.16	38087.54
533.33	38721.82
533.50	38834.17
533.67	38415.21
533.84	38742.89
534.01	38689.06
534.18	38705.44
534.35	39208.65
534.52	39351.43
534.69	39316.32
534.86	39360.79
535.03	39297.59
535.20	39522.29
535.37	39608.89
535.54	39620.59
535.71	39372.49
535.88	39693.15
536.05	39346.75
536.22	39487.18
536.38	39608.89
536.55	39360.79
536.72	39700.17
536.89	39466.11
537.06	39505.90
537.23	40069.97
537.40	39770.38
537.57	39482.50
537.74	39798.47
537.91	40435.10
538.08	39779.74
538.25	40037.20
538.42	39866.34
538.59	40423.39
538.75	40091.04
538.92	40488.93
539.09	40222.11
539.26	39871.03
539.43	40299.34
539.60	40694.89
539.77	40554.46
539.94	40837.67
540.11	40898.52
540.28	40460.84
540.44	40643.40
540.61	40659.79
540.78	40631.70
540.95	40678.51
541.12	40825.96
541.29	40821.28
541.46	40870.43
541.62	41296.41
541.79	40921.93
541.96	40491.27
542.13	41069.38
542.30	41109.17
542.47	41205.13
542.63	41432.16
542.80	41963.46
542.97	42085.17
543.14	42366.04
543.31	41865.16
543.48	41432.16
543.64	42139.00
543.81	41565.57
543.98	42087.51
544.15	41996.23
544.32	42178.79
544.48	42197.52
544.65	42314.55
544.82	42328.59
544.99	42139.00
545.16	42312.20
545.32	41827.71
545.49	42567.32
545.66	42492.43
545.83	42251.35
546.00	42436.25
546.16	42422.21
546.33	42937.13
546.50	42017.30
546.67	42834.14
546.83	42012.62
547.00	42478.38
547.17	42635.20
547.34	42197.52
547.50	42782.65
547.67	43115.01
547.84	42520.51
548.00	42745.20
548.17	43665.03
548.34	43222.67
548.51	43112.67
548.67	43222.67
548.84	43138.41
549.01	42756.91
549.18	43323.32
549.34	43360.76
549.51	43480.13
549.68	43370.13
549.84	43248.42
550.01	43585.46
550.18	43206.29
550.34	43601.84
550.51	43892.07
550.68	43721.21
550.84	43164.16
551.01	44018.46
551.18	43405.23
551.34	43615.88
551.51	43856.96
551.68	43363.11
551.84	43700.14
552.01	43241.40
552.18	44156.55
552.34	43594.82
552.51	43978.67
552.68	43281.19
552.84	43999.73
553.01	44320.38
553.18	43990.37
553.34	44109.74
553.51	43880.36
553.67	44273.57
553.84	44102.71
554.01	44435.07
554.17	44360.17
554.34	44046.54
554.51	44245.49
554.67	44549.76
554.84	44598.91
555.00	44849.35
555.17	44758.06
555.33	44442.09
555.50	44332.09
555.67	43901.43
555.83	44575.50
556.00	44758.06
556.16	45130.21
556.33	44891.48
556.50	45029.57
556.66	44989.78
556.83	44371.88
556.99	44814.24
557.16	45017.86
557.32	44879.77
557.49	45076.38
557.65	44748.70
557.82	44839.98
557.98	44844.66
558.15	44835.30
558.32	45062.33
558.48	44772.11
558.65	45202.77
558.81	44980.42
558.98	45130.21
559.14	44900.84
559.31	45162.98
559.47	44814.24
559.64	44982.76
559.80	45256.60
559.97	45661.51
560.13	45130.21
560.30	45216.81
560.46	45382.99
560.63	45567.89
560.79	45350.22
560.96	45591.30
561.12	45705.98
561.29	45663.85
561.45	45659.17
561.61	45340.86
561.78	45588.95
561.94	45500.01
562.11	45642.79
562.27	45577.25
562.44	45453.20
562.60	45888.54
562.77	45584.27
562.93	45270.64
563.10	45930.67
563.26	45607.68
563.42	46178.77
563.59	45790.24
563.75	45755.13
563.92	45846.41
564.08	46192.81
564.24	45956.42
564.41	45710.66
564.57	45455.54
564.74	46068.76
564.90	45888.54
565.07	46244.30
565.23	45628.74
565.39	45698.96
565.56	46108.55
565.72	45645.13
565.88	46366.01
566.05	45993.87
566.21	46370.69
566.38	45930.67
566.54	46071.10
566.70	46183.45
566.87	46113.23
567.03	46092.17
567.19	46457.29
567.36	46028.98
567.52	46136.64
567.68	46450.27
567.85	46560.28
568.01	46513.47
568.17	46148.34
568.34	45907.27
568.50	46452.61
568.66	46349.63
568.83	46146.00
568.99	46340.27
569.15	46087.49
569.32	46534.53
569.48	46293.46
569.64	46906.68
569.81	46546.23
569.97	46782.63
570.13	46279.41
570.30	46272.39
570.46	46806.03
570.62	46571.98
570.78	46754.54
570.95	46625.81
571.11	46522.83
571.27	46534.53
571.43	46085.15
571.60	46546.23
571.76	46588.36
571.92	46471.34
572.09	46258.35
572.25	46267.71
572.41	46513.47
572.57	46604.75
572.74	47068.17
572.90	46618.79
573.06	46665.60
573.22	46850.50
573.38	46564.96
573.55	46637.51
573.71	47269.46
573.87	46803.69
574.03	46382.40
574.20	47311.59
574.36	46691.35
574.52	46990.94
574.68	47019.02
574.84	47089.24
575.01	47028.38
575.17	47213.29
575.33	46611.77
575.49	46829.44
575.65	47035.41
575.82	47110.30
575.98	46389.42
576.14	47391.17
576.30	46791.99
576.46	46916.04
576.62	46794.33
576.79	47019.02
576.95	46714.75
577.11	46513.47
577.27	46892.63
577.43	46890.29
577.59	47592.45
577.75	46635.17
577.92	46396.44
578.08	46960.51
578.24	46632.83
578.40	47262.44
578.56	47353.72
578.72	47096.26
578.88	47192.22
579.04	47000.30
579.21	46876.25
579.37	47255.42
579.53	47304.57
579.69	46747.52
579.85	46761.56
580.01	46841.14
580.17	47054.13
580.33	46873.91
580.49	46890.29
580.65	47292.86
580.82	46894.97
580.98	47124.35
581.14	46857.52
581.30	47360.74
581.46	47173.50
581.62	46904.34
581.78	47030.72
581.94	46691.35
582.10	46801.35
582.26	47014.34
582.42	47304.57
582.58	47175.84
582.74	47601.82
582.90	47313.93
583.06	47229.67
583.22	47381.80
583.38	47449.68
583.54	47606.50
583.70	47437.98
583.86	47033.07
584.02	46988.60
584.18	47510.53
584.34	47360.74
584.50	47564.37
584.66	47435.64
584.82	47271.80
584.98	47714.16
585.14	47311.59
585.30	46983.91
585.46	47129.03
585.62	46955.83
585.78	46946.47
585.94	47070.51
586.10	47337.33
586.26	46728.80
586.42	47334.99
586.58	47503.51
586.74	47365.42
586.90	46904.34
587.06	46990.94
587.22	47653.31
587.38	47363.08
587.54	47536.28
587.70	47526.92
587.86	47295.21
588.02	47124.35
588.18	47433.30
588.34	47114.98
588.49	47473.09
588.65	46993.28
588.81	47599.47
588.97	47428.62
589.13	47440.32
589.29	47480.11
589.45	47503.51
589.61	47278.82
589.77	47714.16
589.93	47564.37
590.08	47585.43
590.24	47835.87
590.40	47686.07
590.56	48341.42
590.72	47559.69
590.88	47426.28
591.04	47721.18
591.20	47863.96
591.35	47950.56
591.51	48065.24
591.67	47679.05
591.83	48376.53
591.99	47562.03
592.15	47597.13
592.31	47547.98
592.46	47657.99
592.62	47290.52
592.78	47938.85
592.94	47957.58
593.10	47913.11
593.26	48027.79
593.41	48357.81
593.57	48013.75
593.73	47735.23
593.89	48135.46
594.05	48074.60
594.20	47653.31
594.36	48435.05
594.52	48334.40
594.68	48088.65
594.84	47800.76
594.99	48023.11
595.15	47908.43
595.31	48069.92
595.47	47540.96
595.62	48144.82
595.78	48229.08
595.94	47920.13
596.10	47758.63
596.25	47999.71
596.41	48053.54
596.57	47854.59
596.73	48619.95
596.88	47929.49
597.04	48179.93
597.20	47796.08
597.36	48102.69
597.51	48140.14
597.67	47880.34
597.83	47833.53
597.99	48189.29
598.14	47845.23
598.30	48343.77
598.46	47913.11
598.61	48538.03
598.77	47906.08
598.93	48133.12
599.09	48306.32
599.24	48652.72
599.40	48102.69
599.56	48264.19
599.71	48584.84
599.87	48556.75
600.03	48308.66
600.18	48233.76
600.34	48205.67
600.50	48512.28
600.65	48114.39
600.81	48615.27
600.97	48453.77
601.12	48357.81
601.28	48505.26
601.44	48037.16
601.59	48161.20
601.75	47978.64
601.91	48266.53
602.06	48301.64
602.22	48142.48
602.37	48189.29
602.53	48495.90
602.69	48306.32
602.84	47763.31
603.00	47913.11
603.16	47976.30
603.31	48432.71
603.47	48488.88
603.62	48273.55
603.78	48360.15
603.94	48109.71
604.09	48112.05
604.25	47995.03
604.40	48210.35
604.56	48360.15
604.71	48252.48
604.87	48170.57
605.03	48093.33
605.18	48203.33
605.34	48509.94
605.49	47995.03
605.65	48069.92
605.80	47992.68
605.96	48531.01
606.12	48067.58
606.27	48308.66
606.43	47978.64
606.58	48315.68
606.74	47805.44
606.89	47985.66
607.05	48383.55
607.20	48353.13
607.36	47957.58
607.51	48481.86
607.67	47899.06
607.82	48090.99
607.98	47590.11
608.13	48088.65
608.29	47688.42
608.44	48126.10
608.60	47697.78
608.75	48030.13
608.91	47665.01
609.06	47697.78
609.22	48275.89
609.37	47770.33
609.53	48191.63
609.68	47796.08
609.84	47814.80
609.99	47980.98
610.15	47866.30
610.30	48149.50
610.46	47868.64
610.61	47997.37
610.76	48123.75
610.92	47423.93
611.07	47552.66
611.23	47203.92
611.38	47693.10
611.54	47988.00
611.69	48128.44
611.84	47723.52
612.00	47491.81
612.15	47873.32
612.31	47796.08
612.46	47803.10
612.62	47852.25
612.77	47452.02
612.92	47878.00
613.08	47686.07
613.23	47606.50
613.39	47681.39
613.54	47531.60
613.69	47550.32
613.85	47384.15
614.00	47522.24
614.15	47828.85
614.31	47672.03
614.46	47374.78
614.62	47601.82
614.77	47533.94
614.92	47466.06
615.08	47208.61
615.23	47407.55
615.38	47662.67
615.54	47473.09
615.69	47344.36
615.84	46969.87
616.00	47435.64
616.15	47557.35
616.30	47564.37
616.46	47524.58
616.61	47047.11
616.76	47555.00
616.92	47358.40
617.07	47412.23
617.22	47164.14
617.37	46752.20
617.53	47657.99
617.68	47089.24
617.83	47068.17
617.99	47133.71
618.14	47491.81
618.29	46520.49
618.45	47386.49
618.60	47093.92
618.75	46728.80
618.90	46993.28
619.06	47117.32
619.21	46681.98
619.36	47344.36
619.51	46719.43
619.67	46703.05
619.82	47227.33
619.97	47054.13
620.12	46960.51
620.28	46791.99
620.43	47185.20
620.58	46916.04
620.73	47028.38
620.89	47063.49
621.04	46602.41
621.19	46763.90
621.34	46543.89
621.49	46527.51
621.65	46658.58
621.80	46721.77
621.95	46827.10
622.10	47070.51
622.25	46681.98
622.41	46707.73
622.56	46363.67
622.71	46862.21
622.86	47012.00
623.01	46630.49
623.16	46415.16
623.32	46445.59
623.47	46452.61
623.62	46616.45
623.77	46382.40
623.92	46752.20
624.07	46855.18
624.23	46546.23
624.38	46550.91
624.53	46106.21
624.68	45970.46
624.83	46424.53
624.98	46267.71
625.13	45811.31
625.29	45972.80
625.44	46014.93
625.59	45729.39
625.74	46101.53
625.89	46040.68
626.04	45848.75
626.19	46040.68
626.34	45925.99
626.49	45581.93
626.65	45504.70
626.80	46351.97
626.95	45577.25
627.10	45921.31
627.25	45862.80
627.40	45893.22
627.55	45986.85
627.70	45642.79
627.85	46223.24
628.00	45757.47
628.15	45907.27
628.30	45275.32
628.45	45050.63
628.60	45151.27
628.76	45453.20
628.91	45696.62
629.06	44739.34
629.21	45275.32
629.36	45797.26
629.51	45397.03
629.66	45783.22
629.81	45312.77
629.96	45181.70
630.11	45280.00
630.26	45029.57
630.41	45010.84
630.56	45315.11
630.71	45359.58
630.86	45331.50
631.01	45010.84
631.16	45177.02
631.31	45146.59
631.46	45148.93
631.61	45457.88
631.76	45317.45
631.91	45404.05
632.06	45308.09
632.21	45371.28
632.36	45146.59
632.51	44591.89
632.66	45322.13
632.81	45265.96
632.96	45368.94
633.10	44992.12
633.25	44844.66
633.40	45036.59
633.55	45146.59
633.70	44830.62
633.85	44563.80
634.00	44282.94
634.15	44781.47
634.30	44322.72
634.45	44332.09
634.60	44545.08
634.75	44617.63
634.90	44491.24
635.05	44722.96
635.19	44549.76
635.34	44683.17
635.49	44662.10
635.64	44683.17
635.79	44910.20
635.94	44196.34
636.09	44758.06
636.24	44643.38
636.39	44273.57
636.53	44701.89
636.68	44083.99
636.83	44163.57
636.98	44212.72
637.13	44051.22
637.28	43847.60
637.43	44044.20
637.57	44409.32
637.72	43962.28
637.87	44381.24
638.02	44013.77
638.17	44067.61
638.32	43374.81
638.46	43833.55
638.61	43798.44
638.76	43627.59
638.91	44278.25
639.06	43821.85
639.20	43407.58
639.35	43690.78
639.50	43323.32
639.65	43484.81
639.80	43959.94
639.94	43981.01
640.09	43955.26
640.24	43814.83
640.39	43482.47
640.54	42955.85
640.68	43786.74
640.83	43753.97
640.98	43435.66
641.13	42726.48
641.27	43587.80
641.42	44072.29
641.57	43379.49
641.72	43608.86
641.86	43562.05
642.01	43150.12
642.16	43349.06
642.31	42890.32
642.45	43454.39
642.60	43063.52
642.75	42974.58
642.90	42988.62
643.04	43072.88
643.19	43208.63
643.34	43178.20
643.48	42717.12
643.63	43115.01
643.78	43138.41
643.93	43360.76
644.07	42824.78
644.22	43232.04
644.37	43138.41
644.51	42948.83
644.66	42836.48
644.81	42869.25
644.95	43313.95
645.10	43138.41
645.25	42738.18
645.39	42344.97
645.54	42742.86
645.69	42513.49
645.83	42738.18
645.98	42623.50
646.13	42827.12
646.27	43246.08
646.42	42286.46
646.57	42602.43
646.71	42871.59
646.86	42962.87
647.00	43112.67
647.15	42834.14
647.30	42782.65
647.44	42602.43
647.59	42667.97
647.74	42564.98
647.88	42632.86
648.03	42763.93
648.17	43028.41
648.32	42462.00
648.47	42557.96
648.61	42328.59
648.76	41816.01
648.90	42408.17
649.05	41909.63
649.20	42190.50
649.34	42557.96
649.49	42398.80
649.63	42029.00
649.78	42309.86
649.92	42284.12
650.07	42347.31
650.21	42204.54
650.36	42017.30
650.51	42153.05
650.65	42377.74
650.80	41642.81
650.94	42127.30
651.09	42153.05
651.23	41478.97
651.38	41729.41
651.52	41586.64
651.67	41588.98
651.81	41591.32
651.96	41736.43
652.10	41226.20
652.25	41832.39
652.39	41811.33
652.54	41514.08
652.68	41574.94
652.83	41801.97
652.97	41958.78
653.12	41935.38
653.26	41713.03
653.41	41504.72
653.55	40978.10
653.70	41343.22
653.84	41820.69
653.99	41614.72
654.13	41607.70
654.27	41343.22
654.42	41535.15
654.56	41226.20
654.71	41514.08
654.85	41120.87
655.00	41394.71
655.14	41069.38
655.29	41724.73
655.43	41357.27
655.57	41254.28
655.72	40921.93
655.86	41390.03
656.01	41076.40
656.15	41015.55
656.30	40807.24
656.44	41263.64
656.58	41240.24
656.73	41179.39
656.87	40816.60
657.01	40594.25
657.16	41237.90
657.30	40954.69
657.45	40823.62
657.59	40687.87
657.73	40208.06
657.88	40917.25
658.02	40987.46
658.16	41055.34
658.31	40598.93
658.45	40631.70
658.60	40676.17
658.74	41027.25
658.88	40987.46
659.03	40545.10
659.17	40369.56
659.31	40060.61
659.46	40076.99
659.60	39938.90
659.74	40264.24
659.89	39826.56
660.03	39571.44
660.17	40121.46
660.32	40030.18
660.46	39985.71
660.60	39531.65
660.74	39660.38
660.89	39875.71
661.03	39559.73
661.17	39477.82
661.32	39526.97
661.46	39892.09
661.60	39508.24
661.74	39388.88
661.89	39386.54
662.03	39526.97
662.17	39243.76
662.31	39234.40
662.46	39239.08
662.60	38958.22
662.74	39325.68
662.88	38572.03
663.03	38794.38
663.17	38492.45
663.31	38801.40
663.45	38820.13
663.60	39306.96
663.74	39267.17
663.88	38490.11
664.02	38515.86
664.17	38724.16
664.31	38576.71
664.45	38583.73
664.59	38506.49
664.73	38597.77
664.88	38438.62
665.02	38232.65
665.16	37986.89
665.30	38251.38
665.44	38206.90
665.59	38029.02
665.73	37855.82
665.87	37771.57
666.01	37780.93
666.15	37736.46
666.29	37694.33
666.44	37673.26
666.58	38094.56
666.72	37584.32
666.86	37352.61
667.00	37628.79
667.14	37551.56
667.28	37310.48
667.43	37284.73
667.57	37771.57
667.71	37446.23
667.85	37483.68
667.99	37530.49
668.13	37242.60
668.27	36870.46
668.41	36666.83
668.56	36510.02
668.70	36517.04
668.84	36769.82
668.98	36589.59
669.12	36526.40
669.26	36666.83
669.40	36601.30
669.54	36711.30
669.68	36608.32
669.82	36142.55
669.96	36327.45
670.10	35803.17
670.25	36226.81
670.39	36093.40
670.53	35948.29
670.67	35566.78
670.81	36119.15
670.95	35936.59
671.09	35545.72
671.23	35545.72
671.37	35777.43
671.51	35232.08
671.65	35569.12
671.79	35440.39
671.93	35129.10
672.07	35498.91
672.21	35105.70
672.35	35068.25
672.49	35246.13
672.63	35370.18
672.77	35082.29
672.91	35196.98
673.05	35402.94
673.19	34866.96
673.33	34780.36
673.47	34401.19
673.61	34328.64
673.75	34080.54
673.89	34164.80
674.03	34134.37
674.17	33830.10
674.31	34089.90
674.45	34050.11
674.59	34096.92
674.73	34101.61
674.87	33783.29
675.01	33579.67
675.15	33209.86
675.29	33734.14
675.43	33333.91
675.56	33387.74
675.70	33331.57
675.84	32989.85
675.98	32292.37
676.12	33790.31
676.26	33326.89
676.40	32840.06
676.54	32374.29
676.68	32505.36
676.82	32360.25
676.96	32704.31
677.10	32631.75
677.23	32362.59
677.37	32407.06
677.51	32187.05
677.65	31934.27
677.79	32484.30
677.93	31583.19
678.07	31580.85
678.21	31545.74
678.34	31424.03
678.48	31232.11
678.62	31166.57
678.76	30888.05
678.90	31101.04
679.04	30948.90
679.18	31405.31
679.31	30916.14
679.45	30862.30
679.59	30522.93
679.73	31042.53
679.87	30221.00
680.00	30366.11
680.14	30459.73
680.28	30314.62
680.42	30199.93
680.56	30045.46
680.70	30143.76
680.83	29584.37
680.97	30085.25
681.11	29628.84
681.25	29493.09
681.39	29575.01
681.52	29865.24
681.66	29237.97
681.80	28657.52
681.94	28594.32
682.07	28797.95
682.21	28421.13
682.35	28472.62
682.49	28180.05
682.62	28765.18
682.76	28648.16
682.90	28514.75
683.04	28166.01
683.17	28060.68
683.31	27946.00
683.45	27924.93
683.59	27747.05
683.72	27599.60
683.86	27929.61
684.00	27419.38
684.13	27491.93
684.27	27435.76
684.41	27129.15
684.55	27314.05
684.68	27152.55
684.82	26878.71
684.96	27070.64
685.09	26735.94
685.23	26696.15
685.37	27080.00
685.50	27281.28
685.64	26988.72
685.78	26724.24
685.91	26518.27
686.05	26239.75
686.19	25553.97
686.32	26132.08
686.46	25738.87
686.60	25488.43
686.73	25816.11
686.87	25738.87
687.01	25626.53
687.14	25610.14
687.28	25263.74
687.42	25535.24
687.55	24973.52
687.69	25010.96
687.82	24924.36
687.96	24762.87
688.10	24741.80
688.23	24753.51
688.37	24966.49
688.50	24994.58
688.64	24542.86
688.78	24521.79
688.91	24360.30
689.05	24362.64
689.18	23740.05
689.32	23562.17
689.46	23756.44
689.59	23510.68
689.73	24037.30
689.86	23735.37
690.00	23896.87
690.13	23620.69
690.27	23342.16
690.41	23765.80
690.54	22834.27
690.68	22909.16
690.81	22574.47
690.95	23044.91
691.08	22541.70
691.22	22347.44
691.35	22841.29
691.49	22930.23
691.62	22434.03
691.76	22522.98
691.89	22183.60
692.03	21743.58
692.16	21685.06
692.30	21832.52
692.43	21802.09
692.57	21715.49
692.70	21469.73
692.84	21724.85
692.97	20989.92
693.11	21357.39
693.24	21001.63
693.38	21097.59
693.51	20697.36
693.65	21074.18
693.78	20828.43
693.92	20900.98
694.05	20664.59
694.19	20512.46
694.32	20535.86
694.45	20669.27
694.59	20999.29
694.72	20561.61
694.86	20416.49
694.99	20201.16
695.13	19882.85
695.26	19585.60
695.39	19510.71
695.53	19630.07
695.66	19786.89
695.80	19592.62
695.93	19641.78
696.07	19618.37
696.20	19328.14
696.33	18768.76
696.47	18691.52
696.60	18904.51
696.73	19058.98
696.87	19000.47
697.00	18984.09
697.14	18499.59
697.27	18689.18
697.40	18375.55
697.54	18581.51
697.67	18604.92
697.80	18553.43
697.94	18230.43
698.07	18277.24
698.21	18036.17
698.34	17919.14
698.47	17514.23
698.61	17369.12
698.74	17488.48
698.87	17371.46
699.01	17355.07
699.14	17429.97
699.27	17509.55
699.40	17099.95
699.54	17486.14
699.67	17399.54
699.80	16931.44
699.94	16919.73
700.07	16985.27
700.20	16868.24
700.34	16823.77
700.47	16760.58
700.60	16872.92
700.73	16739.51
700.87	16390.77
701.00	16224.59
701.13	15974.16
701.26	16030.33
701.40	16142.67
701.53	15953.09
701.66	15826.70
701.79	15840.75
701.93	15786.91
702.06	15489.67
702.19	15630.10
702.32	15683.93
702.46	15660.52
702.59	15517.75
702.72	15571.58
702.85	15484.98
702.99	15468.60
703.12	15082.41
703.25	15363.28
703.38	15211.14
703.51	14757.08
703.65	14956.02
703.78	14707.93
703.91	14665.80
704.04	14471.53
704.17	14375.57
704.31	14459.83
704.44	14429.40
704.57	14434.08
704.70	14183.65
704.83	14113.43
704.96	13977.68
705.10	13980.02
705.23	13715.54
>>>>>End Processed Spectral Data<<<<<
