SpectraSuite Data File
++++++++++++++++++++++++++++++++++++
Date: Fri Oct 25 10:47:42 EDT 2013
User: price-jones
Dark Spectrum Present: No
Reference Spectrum Present: No
Number of Sampled Component Spectra: 1
Spectrometers: USB2+H05261
Integration Time (usec): 100000 (USB2+H05261)
Spectra Averaged: 1 (USB2+H05261)
Boxcar Smoothing: 0 (USB2+H05261)
Correct for Electrical Dark: No (USB2+H05261)
Strobe/Lamp Enabled: No (USB2+H05261)
Correct for Detector Non-linearity: No (USB2+H05261)
Correct for Stray Light: No (USB2+H05261)
Number of Pixels in Processed Spectrum: 2048
>>>>>Begin Processed Spectral Data<<<<<
365.73	142.77
365.92	142.77
366.12	142.77
366.32	70.22
366.52	2.34
366.72	91.28
366.91	84.26
367.11	14.04
367.31	4.68
367.51	0.00
367.70	42.13
367.90	23.41
368.10	56.17
368.30	93.62
368.49	0.00
368.69	44.47
368.89	58.51
369.09	35.11
369.28	56.17
369.48	44.47
369.68	30.43
369.87	56.17
370.07	100.64
370.27	133.41
370.47	105.32
370.66	346.40
370.86	374.49
371.06	458.74
371.25	390.87
371.45	447.04
371.65	397.89
371.84	400.23
372.04	421.30
372.24	507.90
372.44	404.91
372.63	470.45
372.83	477.47
373.03	535.98
373.22	477.47
373.42	557.05
373.62	517.26
373.81	538.32
374.01	454.06
374.21	594.50
374.40	552.37
374.60	503.22
374.79	601.52
374.99	596.84
375.19	557.05
375.38	580.45
375.58	575.77
375.78	519.60
375.97	571.09
376.17	608.54
376.37	503.22
376.56	543.00
376.76	617.90
376.95	524.28
377.15	596.84
377.35	617.90
377.54	585.13
377.74	631.94
377.93	624.92
378.13	629.60
378.33	631.94
378.52	592.16
378.72	620.24
378.91	585.13
379.11	617.90
379.31	641.31
379.50	580.45
379.70	660.03
379.89	739.61
380.09	648.33
380.28	606.20
380.48	702.16
380.68	638.97
380.87	575.77
381.07	699.82
381.26	711.52
381.46	667.05
381.65	631.94
381.85	690.46
382.04	631.94
382.24	631.94
382.43	732.59
382.63	709.18
382.83	755.99
383.02	739.61
383.22	723.23
383.41	758.33
383.61	669.39
383.80	774.72
384.00	781.74
384.19	720.88
384.39	695.14
384.58	746.63
384.78	746.63
384.97	723.23
385.17	699.82
385.36	716.20
385.56	734.93
385.75	786.42
385.95	723.23
386.14	812.17
386.34	767.70
386.53	772.38
386.72	777.06
386.92	798.12
387.11	861.32
387.31	807.48
387.50	793.44
387.70	767.70
387.89	835.57
388.09	753.65
388.28	795.78
388.48	840.25
388.67	901.11
388.86	861.32
389.06	894.08
389.25	844.93
389.45	924.51
389.64	891.74
389.84	938.55
390.03	884.72
390.22	873.02
390.42	866.00
390.61	917.49
390.81	957.28
391.00	884.72
391.19	950.26
391.39	912.81
391.58	938.55
391.78	896.43
391.97	947.92
392.16	961.96
392.36	903.45
392.55	922.17
392.75	959.62
392.94	945.58
393.13	1013.45
393.33	1032.18
393.52	910.47
393.71	1057.92
393.91	1008.77
394.10	1064.94
394.29	1132.82
394.49	1064.94
394.68	1118.78
394.88	1116.44
395.07	1071.97
395.26	1088.35
395.46	1128.14
395.65	1116.44
395.84	1053.24
396.04	1179.63
396.23	1158.57
396.42	1172.61
396.62	1104.73
396.81	1137.50
397.00	1086.01
397.19	1149.20
397.39	1146.86
397.58	1109.41
397.77	1245.16
397.97	1217.08
398.16	1336.45
398.35	1324.74
398.55	1287.29
398.74	1282.61
398.93	1341.13
399.12	1320.06
399.32	1280.27
399.51	1287.29
399.70	1369.21
399.90	1359.85
400.09	1306.02
400.28	1434.75
400.47	1427.73
400.67	1493.26
400.86	1373.89
401.05	1432.41
401.24	1483.90
401.44	1434.75
401.63	1476.88
401.82	1493.26
402.01	1441.77
402.21	1469.86
402.40	1504.96
402.59	1486.24
402.78	1528.37
402.97	1568.16
403.17	1673.48
403.36	1558.80
403.55	1568.16
403.74	1689.87
403.93	1671.14
404.13	1680.50
404.32	1659.44
404.51	1629.01
404.70	1659.44
404.89	1650.08
405.09	1666.46
405.28	1774.13
405.47	1624.33
405.66	1743.70
405.85	1715.61
406.05	1739.02
406.24	1790.51
406.43	1710.93
406.62	1879.45
406.81	1921.58
407.00	1795.19
407.20	1694.55
407.39	1750.72
407.58	1987.11
407.77	1879.45
407.96	1863.07
408.15	1994.14
408.34	2012.86
408.54	2022.22
408.73	1947.33
408.92	2001.16
409.11	1980.09
409.30	2052.65
409.49	2078.40
409.68	1996.48
409.87	2115.84
410.07	2012.86
410.26	1977.75
410.45	2078.40
410.64	2146.27
410.83	2150.95
411.02	2125.21
411.21	2172.02
411.40	2275.00
411.59	2342.88
411.78	2342.88
411.98	2293.72
412.17	2312.45
412.36	2314.79
412.55	2282.02
412.74	2420.11
412.93	2476.29
413.12	2389.69
413.31	2569.91
413.50	2375.64
413.69	2473.95
413.88	2565.23
414.07	2495.01
414.26	2635.44
414.45	2609.70
414.64	2651.83
414.83	2612.04
415.02	2663.53
415.22	2684.59
415.41	2780.56
415.60	2691.62
415.79	2768.85
415.98	2787.58
416.17	2810.98
416.36	2897.58
416.55	3000.57
416.74	2860.13
416.93	2986.52
417.12	2920.99
417.31	2951.42
417.50	2935.03
417.69	3091.85
417.88	3101.21
418.07	3042.70
418.26	2981.84
418.45	2965.46
418.64	3129.30
418.83	3197.17
419.02	3150.36
419.21	3131.64
419.39	3138.66
419.58	3096.53
419.77	3192.49
419.96	3304.84
420.15	3246.32
420.34	3213.56
420.53	3288.45
420.72	3421.86
420.91	3379.73
421.10	3431.23
421.29	3419.52
421.48	3405.48
421.67	3492.08
421.86	3375.05
422.05	3335.26
422.24	3412.50
422.43	3391.44
422.61	3515.48
422.80	3515.48
422.99	3510.80
423.18	3471.01
423.37	3485.06
423.56	3393.78
423.75	3569.32
423.94	3454.63
424.13	3236.96
424.32	3344.63
424.50	3468.67
424.69	3527.19
424.88	3550.59
425.07	3368.03
425.26	3403.14
425.45	3463.99
425.64	3597.40
425.83	3482.72
426.01	3606.77
426.20	3641.87
426.39	3515.48
426.58	3517.83
426.77	3510.80
426.96	3662.94
427.15	3543.57
427.33	3667.62
427.52	3571.66
427.71	3571.66
427.90	3672.30
428.09	3616.13
428.28	3740.18
428.46	3768.26
428.65	3880.61
428.84	3824.44
429.03	3815.07
429.22	3749.54
429.40	3782.31
429.59	3789.33
429.78	3578.68
429.97	3503.78
430.16	3740.18
430.34	3742.52
430.53	3789.33
430.72	3899.33
430.91	3915.72
431.10	3934.44
431.28	4018.70
431.47	4035.08
431.66	4119.34
431.85	3969.55
432.03	4201.26
432.22	4187.22
432.41	4063.17
432.60	4037.42
432.79	4135.73
432.97	4278.50
433.16	4402.55
433.35	4189.56
433.54	4269.14
433.72	4222.33
433.91	4325.31
434.10	4280.84
434.28	4259.78
434.47	4248.07
434.66	4327.65
434.85	4348.72
435.03	4367.44
435.22	4496.17
435.41	4468.08
435.59	4535.96
435.78	4421.27
435.97	4727.88
436.16	4477.44
436.34	4421.27
436.53	4571.07
436.72	4601.49
436.90	4575.75
437.09	4657.67
437.28	4491.49
437.46	4671.71
437.65	4697.46
437.84	4629.58
438.02	4667.03
438.21	4692.77
438.40	4550.00
438.58	4795.76
438.77	4777.03
438.96	4805.12
439.14	4945.55
439.33	4910.44
439.52	5032.15
439.70	5076.62
439.89	4978.32
440.08	5071.94
440.26	5043.85
440.45	5067.26
440.63	5097.69
440.82	5242.80
441.01	5315.36
441.19	5364.51
441.38	5516.64
441.57	5542.39
441.75	5446.43
441.94	5626.65
442.12	5467.49
442.31	5617.29
442.50	5659.42
442.68	5654.73
442.87	5619.63
443.05	5586.86
443.24	5666.44
443.43	5750.70
443.61	5605.58
443.80	5762.40
443.98	5650.05
444.17	5437.06
444.35	5937.94
444.54	5753.04
444.73	5764.74
444.91	5851.34
445.10	5977.73
445.28	5586.86
445.47	5605.58
445.65	5738.99
445.84	5771.76
446.02	5731.97
446.21	5895.81
446.39	5982.41
446.58	5944.96
446.77	5844.32
446.95	5846.66
447.14	5944.96
447.32	5982.41
447.51	5947.30
447.69	5888.79
447.88	6122.84
448.06	6066.67
448.25	5926.24
448.43	5909.85
448.62	5909.85
448.80	5977.73
448.99	5970.71
449.17	6015.18
449.36	6059.65
449.54	6090.07
449.73	6331.15
449.91	6061.99
450.10	6335.83
450.28	6249.23
450.46	6244.55
450.65	6314.77
450.83	6450.52
451.02	6221.14
451.20	6338.17
451.39	6403.71
451.57	6457.54
451.76	6415.41
451.94	6289.02
452.13	6523.07
452.31	6431.79
452.49	6232.85
452.68	6366.26
452.86	6457.54
453.05	6565.20
453.23	6733.72
453.42	6443.49
453.60	6471.58
453.78	6527.75
453.97	6565.20
454.15	6565.20
454.34	6420.09
454.52	6768.83
454.70	6722.02
454.89	6607.33
455.07	6810.96
455.26	6686.91
455.44	6939.69
455.62	6787.55
455.81	6960.75
455.99	6906.92
456.17	7033.31
456.36	7164.38
456.54	7140.97
456.73	7133.95
456.91	7304.81
457.09	7101.19
457.28	7358.64
457.46	7068.42
457.64	7164.38
457.83	7405.46
458.01	7176.08
458.19	7536.52
458.38	7389.07
458.56	7393.75
458.74	7344.60
458.93	7391.41
459.11	7424.18
459.29	7520.14
459.48	7625.47
459.66	7585.68
459.84	7536.52
460.03	7737.81
460.21	7590.36
460.39	7632.49
460.57	7506.10
460.76	7623.12
460.94	7681.64
461.12	7836.11
461.31	7801.01
461.49	7681.64
461.67	7723.77
461.85	7880.58
462.04	7662.91
462.22	8512.53
462.40	8107.62
462.59	7925.05
462.77	7925.05
462.95	7964.84
463.13	8140.38
463.32	7995.27
463.50	8131.02
463.68	8065.49
463.86	7892.29
464.05	7836.11
464.23	8126.34
464.41	8145.06
464.59	8018.68
464.78	8255.07
464.96	8025.70
465.14	8109.96
465.32	8074.85
465.50	8238.69
465.69	8133.36
465.87	8327.63
466.05	8360.39
466.23	8236.35
466.41	8276.13
466.60	8491.46
466.78	8229.32
466.96	8454.02
467.14	8318.26
467.32	8407.20
467.51	8564.02
467.69	8262.09
467.87	8414.23
468.05	8615.51
468.23	8262.09
468.41	8336.99
468.60	8713.81
468.78	8624.87
468.96	8613.17
469.14	8596.79
469.32	8538.27
469.50	8519.55
469.69	8755.94
469.87	8947.87
470.05	8851.91
470.23	8954.89
470.41	8992.34
470.59	8964.25
470.77	8905.74
470.95	9153.84
471.14	9116.39
471.32	8926.80
471.50	9343.42
471.68	9259.16
471.86	9256.82
472.04	9261.50
472.22	9441.72
472.40	9355.12
472.58	9097.66
472.77	9589.17
472.95	9408.95
473.13	9851.31
473.31	9657.05
473.49	9474.49
473.67	9469.81
473.85	9568.11
474.03	9956.64
474.21	9750.67
474.39	9886.42
474.57	9870.04
474.75	9944.94
474.93	10122.82
475.12	10251.55
475.30	10078.35
475.48	10380.28
475.66	10450.49
475.84	10274.95
476.02	10523.05
476.20	10499.64
476.38	10679.86
476.56	10640.08
476.74	10663.48
476.92	10642.42
477.10	10576.88
477.28	10757.10
477.46	10925.62
477.64	11103.50
477.82	11353.94
478.00	11150.31
478.18	11187.76
478.36	11410.11
478.54	11543.52
478.72	11730.76
478.90	11524.80
479.08	11896.94
479.26	11850.13
479.44	11742.47
479.62	11894.60
479.80	12070.14
479.98	12084.19
480.16	12245.68
480.34	12343.99
480.52	12301.86
480.70	12446.97
480.88	12414.20
481.06	12627.19
481.24	12610.81
481.41	12662.30
481.59	13104.66
481.77	13151.47
481.95	13034.44
482.13	13228.71
482.31	13004.02
482.49	13603.19
482.67	13542.34
482.85	13455.74
483.03	13841.93
483.21	13825.54
483.39	13839.59
483.57	13680.43
483.74	14176.62
483.92	14019.81
484.10	14129.81
484.28	14429.40
484.46	14532.39
484.64	14754.74
484.82	14389.61
485.00	14420.04
485.18	14780.48
485.35	15131.56
485.53	14628.35
485.71	14862.40
485.89	15269.66
486.07	15070.71
486.25	15562.22
486.43	15520.09
486.61	15627.76
486.78	15901.60
486.96	15751.81
487.14	16198.85
487.32	15941.39
487.50	16395.45
487.68	16161.40
487.85	16779.30
488.03	16896.33
488.21	16987.61
488.39	17198.26
488.57	17179.53
488.75	17032.08
488.92	17298.90
489.10	17607.85
489.28	17408.90
489.46	17556.36
489.64	17582.10
489.81	18403.63
489.99	18427.04
490.17	18436.40
490.35	18651.73
490.53	18422.36
490.70	18593.22
490.88	18588.53
491.06	19119.84
491.24	19105.79
491.41	18916.21
491.59	19234.52
491.77	18888.12
491.95	19639.44
492.13	19360.91
492.30	19864.13
492.48	19878.17
492.66	19995.20
492.84	19754.12
493.01	20187.12
493.19	20212.87
493.37	20196.48
493.54	20379.04
493.72	20669.27
493.90	20524.16
494.08	20842.47
494.25	21032.05
494.43	21179.51
494.61	21479.10
494.79	21341.00
494.96	21186.53
495.14	21577.40
495.32	21851.24
495.49	21766.98
495.67	21603.14
495.85	21797.41
496.02	22490.21
496.20	22183.60
496.38	22309.99
496.55	22228.07
496.73	23124.49
496.91	22457.44
497.09	22740.64
497.26	23030.87
497.44	22799.16
497.62	23030.87
497.79	23309.40
497.97	23012.15
498.14	23419.40
498.32	23742.39
498.50	23501.32
498.67	24187.10
498.85	23674.52
499.03	23967.09
499.20	23847.72
499.38	24133.26
499.56	24154.33
499.73	24507.75
499.91	24472.64
500.08	24479.66
500.26	24313.48
500.44	24556.90
500.61	24395.40
500.79	24554.56
500.97	24666.91
501.14	25064.80
501.32	25235.66
501.49	24669.25
501.67	24903.30
501.84	25331.62
502.02	25523.54
502.20	25385.45
502.37	25570.35
502.55	25406.52
502.72	26026.76
502.90	25900.37
503.07	25699.08
503.25	26031.44
503.43	25572.69
503.60	26085.27
503.78	25902.71
503.95	26103.99
504.13	26267.83
504.30	26532.31
504.48	26279.54
504.65	26380.18
504.83	26574.44
505.01	26586.15
505.18	26815.52
505.36	27068.30
505.53	26965.31
505.71	27246.18
505.88	27094.04
506.06	26630.62
506.23	27072.98
506.41	27122.13
506.58	27405.33
506.76	27557.47
506.93	27864.08
507.11	27248.52
507.28	27697.90
507.46	27777.48
507.63	27725.99
507.81	28013.87
507.98	28067.70
508.16	28278.35
508.33	28093.45
508.50	28173.03
508.68	28540.49
508.85	28542.83
509.03	28950.09
509.20	28669.22
509.38	28599.01
509.55	28793.27
509.73	29003.92
509.90	29385.43
510.08	28996.90
510.25	28971.15
510.42	29397.13
510.60	29219.25
510.77	29371.38
510.95	29902.68
511.12	29694.38
511.30	29813.74
511.47	30218.66
511.64	29919.07
511.82	29944.81
511.99	29982.26
512.17	30246.74
512.34	29996.31
512.51	30354.41
512.69	30267.81
512.86	30661.02
513.04	30693.79
513.21	30326.32
513.38	30242.06
513.56	30169.51
513.73	30581.44
513.90	30450.37
514.08	30567.40
514.25	30831.88
514.43	30733.57
514.60	30955.93
514.77	31023.80
514.95	31344.45
515.12	31253.17
515.29	31087.00
515.47	31590.21
515.64	31625.32
515.81	31309.35
515.99	31309.35
516.16	31889.80
516.33	31386.58
516.51	31639.36
516.68	31562.12
516.85	31569.15
517.03	31435.74
517.20	31775.11
517.37	31945.97
517.54	32402.38
517.72	32051.30
517.89	32058.32
518.06	32346.20
518.24	31913.20
518.41	31931.93
518.58	32496.00
518.75	32198.75
518.93	32701.96
519.10	32554.51
519.27	32959.42
519.45	32673.88
519.62	32842.40
519.79	33106.88
519.96	33141.99
520.14	33310.50
520.31	32659.84
520.48	33198.16
520.65	33228.59
520.83	33905.00
521.00	33603.07
521.17	33684.99
521.34	33628.82
521.52	33656.90
521.69	33666.27
521.86	34073.52
522.03	33860.53
522.20	33680.31
522.38	33916.70
522.55	33914.36
522.72	34110.97
522.89	34134.37
523.07	34529.92
523.24	34181.18
523.41	34000.96
523.58	34361.40
523.75	35037.82
523.92	34679.72
524.10	35215.70
524.27	34897.39
524.44	35105.70
524.61	35077.61
524.78	35302.30
524.96	35082.29
525.13	34918.45
525.30	35388.90
525.47	35660.40
525.64	35283.58
525.81	35519.97
525.98	35421.67
526.16	35173.57
526.33	35398.26
526.50	35424.01
526.67	35360.81
526.84	35241.45
527.01	35515.29
527.18	35461.46
527.36	35845.30
527.53	35557.42
527.70	35983.40
527.87	36290.01
528.04	35709.55
528.21	36154.26
528.38	36079.36
528.55	36402.35
528.72	36156.60
528.89	36605.98
529.07	36297.03
529.24	36034.89
529.41	36341.50
529.58	36318.09
529.75	36503.00
529.92	36753.43
530.09	36704.28
530.26	36559.17
530.43	36437.46
530.60	36416.40
530.77	36594.28
530.94	37031.96
531.11	36807.26
531.28	37067.06
531.46	37591.34
531.63	37429.85
531.80	37188.77
531.97	37024.93
532.14	37104.51
532.31	37399.42
532.48	37174.73
532.65	37390.06
532.82	36982.80
532.99	37291.76
533.16	37429.85
533.33	37383.04
533.50	37752.84
533.67	37443.89
533.84	37455.59
534.01	37607.73
534.18	37633.47
534.35	37853.48
534.52	37794.97
534.69	38129.67
534.86	38536.92
535.03	37935.40
535.20	38518.20
535.37	38345.00
535.54	38450.32
535.71	38419.89
535.88	38665.65
536.05	38108.60
536.22	38288.82
536.38	38532.24
536.55	38487.77
536.72	38852.89
536.89	38220.95
537.06	38455.00
537.23	38672.67
537.40	38579.05
537.57	38480.75
537.74	38642.24
537.91	39072.90
538.08	38986.30
538.25	38773.31
538.42	38930.13
538.59	39316.32
538.75	38742.89
538.92	39115.03
539.09	39051.84
539.26	39042.48
539.43	39346.75
539.60	38918.43
539.77	39035.45
539.94	39360.79
540.11	38761.61
540.28	39208.65
540.44	39353.77
540.61	39236.74
540.78	39227.38
540.95	39117.37
541.12	39117.37
541.29	39594.84
541.46	39538.67
541.62	39496.54
541.79	39849.96
541.96	39510.58
542.13	39299.94
542.30	39571.44
542.47	39915.50
542.63	39388.88
542.80	40165.93
542.97	40612.98
543.14	40495.95
543.31	40168.27
543.48	40325.09
543.64	40825.96
543.81	40790.86
543.98	40259.55
544.15	40224.45
544.32	40456.16
544.48	40713.62
544.65	40994.48
544.82	40519.35
544.99	40294.66
545.16	40610.64
545.32	40978.10
545.49	40666.81
545.66	40966.40
545.83	41305.77
546.00	40987.46
546.16	41350.24
546.33	40765.11
546.50	41003.85
546.67	40900.86
546.83	40615.32
547.00	40921.93
547.17	40620.00
547.34	41057.68
547.50	41621.75
547.67	41441.53
547.84	41368.97
548.00	41319.82
548.17	41907.29
548.34	41483.66
548.51	41682.60
548.67	41799.63
548.84	41640.47
549.01	41399.40
549.18	41415.78
549.34	41909.63
549.51	41886.23
549.68	41790.27
549.84	41893.25
550.01	41591.32
550.18	41347.90
550.34	41542.17
550.51	41757.50
550.68	42167.09
550.84	41715.37
551.01	42005.59
551.18	41813.67
551.34	41883.89
551.51	42010.28
551.68	42237.31
551.84	42033.68
552.01	42007.94
552.18	42391.78
552.34	42267.73
552.51	42597.75
552.68	42108.58
552.84	42789.67
553.01	42274.76
553.18	42223.26
553.34	42391.78
553.51	42241.99
553.67	42256.03
553.84	42478.38
554.01	42487.74
554.17	42848.19
554.34	43290.55
554.51	42354.33
554.67	43061.18
554.84	42387.10
555.00	42712.44
555.17	42398.80
555.33	42822.44
555.50	42143.69
555.67	42766.27
555.83	42581.37
556.00	42412.85
556.16	43189.91
556.33	42808.40
556.50	42899.68
556.66	42829.46
556.83	43089.26
556.99	43168.84
557.16	42801.38
557.32	43613.54
557.49	43475.45
557.65	42693.71
557.82	42522.85
557.98	42852.87
558.15	43285.87
558.32	43718.87
558.48	42990.96
558.65	43100.97
558.81	43012.02
558.98	43573.75
559.14	42958.19
559.31	43107.99
559.47	43063.52
559.64	43552.69
559.80	43779.72
559.97	43082.24
560.13	43157.14
560.30	43122.03
560.46	43409.92
560.63	43358.42
560.79	43459.07
560.96	43826.53
561.12	43468.43
561.29	43599.50
561.45	43744.61
561.61	43269.48
561.78	43545.67
561.94	43470.77
562.11	43466.09
562.27	43641.63
562.44	43304.59
562.60	43543.33
562.77	43936.54
562.93	43934.20
563.10	43985.69
563.26	43222.67
563.42	43356.08
563.59	43210.97
563.75	43732.91
563.92	43854.62
564.08	43966.96
564.24	43938.88
564.41	43824.19
564.57	43629.93
564.74	43882.70
564.90	43892.07
565.07	43910.79
565.23	43793.76
565.39	43342.04
565.56	43995.05
565.72	43952.92
565.88	43613.54
566.05	43414.60
566.21	43861.64
566.38	43812.49
566.54	43709.50
566.70	44151.87
566.87	44336.77
567.03	43828.87
567.19	44484.22
567.36	44254.85
567.52	43761.00
567.68	44229.10
567.85	44168.25
568.01	43672.06
568.17	43854.62
568.34	44058.24
568.50	44046.54
568.66	44025.48
568.83	44421.03
568.99	43859.30
569.15	44154.21
569.32	44299.32
569.48	44133.14
569.64	44444.43
569.81	44423.37
569.97	44357.83
570.13	44289.96
570.30	44098.03
570.46	43997.39
570.62	43999.73
570.78	43800.79
570.95	43798.44
571.11	44289.96
571.27	44112.08
571.43	44336.77
571.60	44495.92
571.76	44098.03
571.92	44416.35
572.09	44617.63
572.25	43997.39
572.41	44205.70
572.57	44130.80
572.74	44617.63
572.90	44053.56
573.06	44397.62
573.22	44065.27
573.38	44280.60
573.55	43679.08
573.71	44179.95
573.87	44053.56
574.03	44009.09
574.20	44254.85
574.36	44172.93
574.52	44374.22
574.68	44685.51
574.84	44821.26
575.01	44175.27
575.17	44179.95
575.33	44287.62
575.49	44304.00
575.65	44598.91
575.82	44809.56
575.98	44439.75
576.14	44832.96
576.30	44329.75
576.46	44521.67
576.62	44451.45
576.79	44299.32
576.95	44362.51
577.11	44554.44
577.27	44421.03
577.43	44699.55
577.59	44631.68
577.75	44676.15
577.92	44076.97
578.08	44311.02
578.24	43992.71
578.40	44409.32
578.56	44531.03
578.72	44259.53
578.88	44739.34
579.04	44479.54
579.21	43966.96
579.37	44339.11
579.53	43913.13
579.69	43805.47
579.85	44645.72
580.01	44348.47
580.17	44247.83
580.33	44563.80
580.49	44741.68
580.65	44364.85
580.82	44753.38
580.98	44598.91
581.14	44584.86
581.30	44601.25
581.46	44779.13
581.62	44762.75
581.78	44533.37
581.94	44713.59
582.10	44439.75
582.26	44863.39
582.42	44416.35
582.58	44570.82
582.74	44299.32
582.90	44343.79
583.06	44533.37
583.22	44538.05
583.38	44746.36
583.54	44395.28
583.70	45022.54
583.86	44669.12
584.02	44044.20
584.18	44804.88
584.34	44945.31
584.50	44760.40
584.66	44734.66
584.82	44437.41
584.98	45111.49
585.14	44638.70
585.30	44538.05
585.46	44720.62
585.62	44514.65
585.78	44615.29
585.94	44266.55
586.10	44481.88
586.26	44669.12
586.42	44463.16
586.58	44514.65
586.74	44767.43
586.90	44802.53
587.06	44411.67
587.22	44942.97
587.38	44720.62
587.54	45076.38
587.70	45097.44
587.86	44978.07
588.02	44713.59
588.18	45483.63
588.34	45134.89
588.49	44659.76
588.65	44486.56
588.81	44287.62
588.97	44629.34
589.13	44322.72
589.29	44458.48
589.45	44552.10
589.61	44165.91
589.77	45059.99
589.93	44924.24
590.08	45003.82
590.24	44994.46
590.40	45064.67
590.56	45193.40
590.72	44734.66
590.88	44526.35
591.04	44701.89
591.20	45155.96
591.35	45017.86
591.51	45366.60
591.67	44872.75
591.83	44680.83
591.99	44481.88
592.15	44734.66
592.31	44975.73
592.46	44561.46
592.62	45071.70
592.78	45191.06
592.94	45031.91
593.10	44250.17
593.26	44823.60
593.41	44591.89
593.57	44917.22
593.73	44872.75
593.89	45249.58
594.05	44854.03
594.20	44744.02
594.36	44774.45
594.52	45017.86
594.68	44868.07
594.84	45024.89
594.99	45181.70
595.15	45191.06
595.31	45240.21
595.47	44739.34
595.62	44879.77
595.78	44837.64
595.94	45059.99
596.10	45385.33
596.25	45673.21
596.41	45078.72
596.57	44765.09
596.73	45153.62
596.88	44748.70
597.04	44722.96
597.20	45305.75
597.36	45343.20
597.51	45422.78
597.67	44912.54
597.83	45085.74
597.99	45301.07
598.14	45139.57
598.30	44954.67
598.46	44935.95
598.61	45078.72
598.77	44844.66
598.93	45134.89
599.09	45191.06
599.24	45478.95
599.40	45577.25
599.56	45116.17
599.71	45006.16
599.87	45322.13
600.03	44739.34
600.18	44701.89
600.34	45574.91
600.50	45092.76
600.65	44905.52
600.81	45413.41
600.97	45612.36
601.12	45771.52
601.28	45188.72
601.44	45102.12
601.59	45265.96
601.75	44732.32
601.91	45240.21
602.06	44603.59
602.22	45247.24
602.37	45010.84
602.53	45041.27
602.69	45354.90
602.84	45172.34
603.00	45067.02
603.16	44989.78
603.31	45247.24
603.47	44933.60
603.62	44512.31
603.78	45301.07
603.94	44987.44
604.09	45467.25
604.25	45165.32
604.40	44875.09
604.56	45251.92
604.71	45139.57
604.87	45036.59
605.03	44949.99
605.18	44954.67
605.34	45514.06
605.49	44954.67
605.65	44971.05
605.80	45006.16
605.96	44835.30
606.12	45020.20
606.27	45071.70
606.43	44729.98
606.58	45170.00
606.74	44795.51
606.89	44739.34
607.05	45682.58
607.20	45017.86
607.36	45029.57
607.51	45120.85
607.67	45050.63
607.82	44769.77
607.98	44931.26
608.13	44947.65
608.29	44643.38
608.44	44336.77
608.60	44229.10
608.75	44596.57
608.91	44432.73
609.06	44839.98
609.22	44608.27
609.37	44350.81
609.53	44493.58
609.68	44823.60
609.84	44236.12
609.99	44390.60
610.15	44498.26
610.30	44676.15
610.46	44421.03
610.61	44729.98
610.76	44343.79
610.92	44264.21
611.07	44215.06
611.23	44659.76
611.38	44655.08
611.54	44116.76
611.69	43943.56
611.84	44577.84
612.00	44570.82
612.15	44294.64
612.31	44203.36
612.46	44498.26
612.62	44512.31
612.77	44009.09
612.92	44392.94
613.08	44669.12
613.23	44140.16
613.39	44128.46
613.54	43917.81
613.69	43810.15
613.85	44217.40
614.00	43976.33
614.15	44229.10
614.31	44362.51
614.46	44744.02
614.62	44367.20
614.77	43866.32
614.92	43889.73
615.08	43826.53
615.23	43934.20
615.38	44182.29
615.54	43503.54
615.69	43686.10
615.84	43690.78
616.00	43964.62
616.15	43533.96
616.30	43892.07
616.46	43749.29
616.61	43498.86
616.76	43566.73
616.92	43320.98
617.07	43395.87
617.22	43330.34
617.37	43753.97
617.53	43423.96
617.68	43952.92
617.83	44083.99
617.99	43800.79
618.14	43566.73
618.29	43810.15
618.45	43227.35
618.60	43552.69
618.75	43262.46
618.90	43751.63
619.06	43625.25
619.21	43662.69
619.36	43449.70
619.51	43482.47
619.67	43168.84
619.82	43753.97
619.97	43695.46
620.12	43100.97
620.28	42852.87
620.43	43269.48
620.58	43253.10
620.73	43440.34
620.89	42717.12
621.04	42873.93
621.19	42918.40
621.34	43051.81
621.49	42766.27
621.65	43072.88
621.80	42976.92
621.95	42726.48
622.10	42813.08
622.25	42724.14
622.41	42925.42
622.56	42653.92
622.71	43201.61
622.86	43077.56
623.01	43124.37
623.16	42906.70
623.32	42637.54
623.47	42700.73
623.62	42667.97
623.77	42440.93
623.92	42415.19
624.07	42546.26
624.23	42560.30
624.38	42302.84
624.53	42314.55
624.68	42845.85
624.83	43124.37
624.98	42651.58
625.13	42564.98
625.29	42490.09
625.44	42508.81
625.59	42131.98
625.74	42019.64
625.89	42129.64
626.04	42298.16
626.19	42103.90
626.34	42508.81
626.49	42684.35
626.65	42155.39
626.80	42511.15
626.95	41827.71
627.10	42127.30
627.25	41970.49
627.40	41841.76
627.55	41563.23
627.70	41631.11
627.85	41874.52
628.00	41979.85
628.15	42029.00
628.30	41979.85
628.45	41942.40
628.60	41865.16
628.76	42253.69
628.91	41537.49
629.06	41874.52
629.21	41731.75
629.36	41942.40
629.51	41563.23
629.66	41727.07
629.81	41804.31
629.96	41277.69
630.11	41532.81
630.26	41694.30
630.41	41598.34
630.56	41666.22
630.71	41626.43
630.86	41851.12
631.01	41525.78
631.16	41214.49
631.31	41177.04
631.46	40701.92
631.61	40942.99
631.76	41577.28
631.91	41118.53
632.06	41607.70
632.21	41298.75
632.36	41628.77
632.51	41134.92
632.66	40992.14
632.81	40793.20
632.96	40781.49
633.10	40996.82
633.25	40627.02
633.40	41036.61
633.55	41123.21
633.70	41076.40
633.85	41303.43
634.00	40964.06
634.15	40973.42
634.30	40851.71
634.45	40851.71
634.60	40645.74
634.75	40765.11
634.90	40657.45
635.05	40514.67
635.19	40547.44
635.34	41120.87
635.49	40872.78
635.64	40765.11
635.79	40739.36
635.94	40678.51
636.09	40566.16
636.24	40332.11
636.39	40545.10
636.53	40100.40
636.68	40575.53
636.83	40006.78
636.98	40264.24
637.13	40320.41
637.28	40093.38
637.43	40388.28
637.57	40659.79
637.72	40591.91
637.87	40297.00
638.02	40245.51
638.17	40154.23
638.32	39976.35
638.46	39784.43
638.61	39770.38
638.76	40027.84
638.91	39819.53
639.06	40020.82
639.20	40081.67
639.35	40233.81
639.50	40067.63
639.65	39782.09
639.80	40360.20
639.94	40243.17
640.09	40196.36
640.24	39882.73
640.39	39721.23
640.54	39608.89
640.68	39810.17
640.83	40154.23
640.98	39828.90
641.13	39536.33
641.27	40051.25
641.42	39676.76
641.57	39941.24
641.72	39800.81
641.86	39629.95
642.01	39426.32
642.16	39384.19
642.31	39133.76
642.45	39445.05
642.60	38986.30
642.75	39449.73
642.90	39276.53
643.04	39466.11
643.19	39522.29
643.34	39250.78
643.48	38974.60
643.63	39498.88
643.78	38918.43
643.93	39082.27
644.07	38848.21
644.22	38705.44
644.37	38965.24
644.51	38815.44
644.66	39234.40
644.81	38850.55
644.95	39651.02
645.10	39257.81
645.25	39522.29
645.39	39629.95
645.54	39138.44
645.69	39353.77
645.83	38450.32
645.98	38859.91
646.13	38717.14
646.27	38892.68
646.42	38773.31
646.57	38295.85
646.71	38789.70
646.86	38799.06
647.00	39271.85
647.15	38855.23
647.30	39054.18
647.44	38916.09
647.59	38553.30
647.74	38525.22
647.88	38429.26
648.03	38536.92
648.17	38646.93
648.32	38211.59
648.47	38403.51
648.61	38085.20
648.76	38590.75
648.90	38368.40
649.05	38391.81
649.20	38433.94
649.34	38792.04
649.49	37916.68
649.63	38527.56
649.78	38167.12
649.92	38122.65
650.07	39061.20
650.21	38813.10
650.36	38239.67
650.51	38520.54
650.65	38239.67
650.80	38232.65
650.94	37907.32
651.09	38251.38
651.23	38146.05
651.38	38153.07
651.52	37787.95
651.67	37930.72
651.81	37794.97
651.96	37942.42
652.10	37958.81
652.25	37345.59
652.39	37663.90
652.54	37624.11
652.68	38094.56
652.83	37982.21
652.97	37778.59
653.12	38019.66
653.26	37860.51
653.41	37628.79
653.55	37827.74
653.70	37507.08
653.84	37626.45
653.99	37738.80
654.13	37701.35
654.27	37558.58
654.42	37589.00
654.56	37436.87
654.71	37497.72
654.85	37502.40
655.00	37287.07
655.14	36783.86
655.29	36903.23
655.43	36837.69
655.57	36627.04
655.72	37024.93
655.86	37282.39
656.01	36889.18
656.15	37053.02
656.30	37294.10
656.44	36577.89
656.58	36428.10
656.73	37017.91
656.87	36486.61
657.01	36840.03
657.16	36701.94
657.30	36371.92
657.45	36996.85
657.59	36655.13
657.73	36376.61
657.88	36493.63
658.02	36444.48
658.16	36730.03
658.31	36411.71
658.45	36940.68
658.60	36580.23
658.74	36233.83
658.88	36512.36
659.03	36247.88
659.17	36187.02
659.31	36432.78
659.46	35938.93
659.60	36177.66
659.74	36290.01
659.89	36264.26
660.03	36271.28
660.17	36306.39
660.32	36378.95
660.46	36343.84
660.60	35981.06
660.74	36224.47
660.89	36037.23
661.03	35999.78
661.17	35899.14
661.32	35510.61
661.46	35576.14
661.60	35456.78
661.74	35529.33
661.89	35580.82
662.03	35735.30
662.17	35278.89
662.31	35255.49
662.46	35590.19
662.60	35409.96
662.74	35304.64
662.88	35686.15
663.03	35351.45
663.17	35627.63
663.31	35007.39
663.45	35140.80
663.60	35140.80
663.74	35363.15
663.88	35185.27
664.02	35098.67
664.17	34937.18
664.31	34366.09
664.45	35063.57
664.59	35061.22
664.73	35101.01
664.88	34567.37
665.02	34501.84
665.16	34927.81
665.30	34513.54
665.44	34504.18
665.59	33930.75
665.73	34174.16
665.87	34211.61
666.01	34113.31
666.15	34373.11
666.29	34188.21
666.44	34171.82
666.58	34036.07
666.72	34005.64
666.86	34101.61
667.00	33919.04
667.14	33628.82
667.28	34125.01
667.43	33743.50
667.57	33687.33
667.71	33684.99
667.85	33443.91
667.99	33474.34
668.13	33488.38
668.27	33322.21
668.41	33436.89
668.56	33369.02
668.70	33127.94
668.84	32945.38
668.98	33008.58
669.12	33179.43
669.26	33467.32
669.40	32826.01
669.54	32680.90
669.68	32847.08
669.82	33046.02
669.96	32847.08
670.10	32428.12
670.25	32929.00
670.39	32767.50
670.53	32664.52
670.67	32320.46
670.81	32943.04
670.95	32385.99
671.09	32683.24
671.23	32332.16
671.37	32823.67
671.51	31976.40
671.65	32713.67
671.79	31962.36
671.93	31854.69
672.07	31967.04
672.21	32081.72
672.35	32013.85
672.49	31896.82
672.63	32257.26
672.77	31866.39
672.91	31583.19
673.05	31798.52
673.19	31145.51
673.33	31339.77
673.47	31414.67
673.61	31419.35
673.75	30738.26
673.89	31133.81
674.03	30808.47
674.17	31049.55
674.31	31182.96
674.45	31028.48
674.59	31061.25
674.73	31049.55
674.87	30838.90
675.01	30698.47
675.15	31288.28
675.29	30806.13
675.43	30616.55
675.56	30756.98
675.70	30618.89
675.84	30110.99
675.98	29165.42
676.12	30178.87
676.26	29811.40
676.40	29797.36
676.54	29839.49
676.68	29879.28
676.82	29434.58
676.96	29607.78
677.10	29259.04
677.23	29759.91
677.37	29174.78
677.51	29043.71
677.65	28985.19
677.79	28456.23
677.93	28924.34
678.07	28882.21
678.21	28599.01
678.34	28517.09
678.48	28699.65
678.62	28294.74
678.76	28432.83
678.90	28219.84
679.04	28013.87
679.18	28198.77
679.31	27803.22
679.45	27878.12
679.59	27899.19
679.73	27672.15
679.87	27690.88
680.00	27931.95
680.14	27761.09
680.28	27634.71
680.42	27346.82
680.56	27182.98
680.70	27456.82
680.83	27480.23
680.97	26962.97
681.11	26972.33
681.25	26717.22
681.39	26850.63
681.52	26955.95
681.66	26927.86
681.80	26902.12
681.94	26621.25
682.07	26434.01
682.21	26368.48
682.35	26005.69
682.49	26595.51
682.62	26279.54
682.76	25785.68
682.90	25956.54
683.04	25752.91
683.17	26129.74
683.31	25614.82
683.45	25706.10
683.59	25553.97
683.72	25467.37
683.86	25230.98
684.00	25172.46
684.13	25369.07
684.27	25434.60
684.41	24973.52
684.55	24917.34
684.68	24833.08
684.82	24893.94
684.96	24790.95
685.09	24526.47
685.23	24334.55
685.37	24060.71
685.50	24142.63
685.64	24575.62
685.78	24421.15
685.91	24030.28
686.05	23964.75
686.19	23885.17
686.32	23782.18
686.46	23882.83
686.60	23536.43
686.73	23190.03
686.87	23049.60
687.01	22946.61
687.14	23342.16
687.28	23000.44
687.42	22757.03
687.55	22684.47
687.69	22778.09
687.82	22618.94
687.96	22836.61
688.10	22703.20
688.23	22789.80
688.37	22539.36
688.50	22232.75
688.64	22485.53
688.78	22499.57
688.91	22237.43
689.05	22340.41
689.18	21579.74
689.32	21687.40
689.46	22171.89
689.59	22026.78
689.73	21895.71
689.86	21497.82
690.00	21741.24
690.13	22029.12
690.27	21383.13
690.41	21238.02
690.54	21146.74
690.68	21259.09
690.81	21088.23
690.95	20889.28
691.08	20826.09
691.22	20858.85
691.35	20573.31
691.49	20898.64
691.62	20971.20
691.76	20795.66
691.89	20634.16
692.03	20095.84
692.16	20493.73
692.30	20320.53
692.43	20250.32
692.57	20376.70
692.70	20147.33
692.84	20056.05
692.97	19819.66
693.11	20006.90
693.24	19798.59
693.38	19627.73
693.51	19587.94
693.65	19520.07
693.78	19435.81
693.92	19269.63
694.05	19124.52
694.19	19218.14
694.32	19094.09
694.45	18970.04
694.59	18778.12
694.72	18977.06
694.86	18977.06
694.99	18328.74
695.13	18581.51
695.26	18249.16
695.39	18333.42
695.53	18352.14
695.66	18270.22
695.80	18082.98
695.93	18075.96
696.07	18256.18
696.20	18321.71
696.33	18192.98
696.47	18022.12
696.60	17865.31
696.73	17699.13
696.87	17479.12
697.00	17809.14
697.14	17605.51
697.27	17392.52
697.40	17481.46
697.54	17158.47
697.67	17186.55
697.80	17191.23
697.94	16847.18
698.07	16821.43
698.21	17064.85
698.34	17132.72
698.47	17055.48
698.61	16645.89
698.74	16725.47
698.87	16538.23
699.01	16044.37
699.14	16409.50
699.27	16500.78
699.40	16233.96
699.54	15819.68
699.67	16318.22
699.80	15997.56
699.94	15955.43
700.07	16154.38
700.20	15892.24
700.34	15613.71
700.47	15765.85
700.60	15854.79
700.73	15721.38
700.87	15775.21
701.00	15426.47
701.13	15382.00
701.26	15520.09
701.40	15463.92
701.53	14988.79
701.66	15199.44
701.79	15227.53
701.93	15075.39
702.06	14806.23
702.19	14740.69
702.32	14864.74
702.46	14995.81
702.59	14799.21
702.72	14597.92
702.85	14480.89
702.99	14850.70
703.12	14544.09
703.25	14590.90
703.38	14523.02
703.51	14328.76
703.65	14310.04
703.78	14284.29
703.91	14052.58
704.04	13958.96
704.17	14036.19
704.31	14045.55
704.44	13654.69
704.57	13586.81
704.70	13516.59
704.83	13582.13
704.96	13769.37
705.10	13816.18
705.23	13605.53
>>>>>End Processed Spectral Data<<<<<
