SpectraSuite Data File
++++++++++++++++++++++++++++++++++++
Date: Fri Oct 25 10:47:56 EDT 2013
User: price-jones
Dark Spectrum Present: No
Reference Spectrum Present: No
Number of Sampled Component Spectra: 1
Spectrometers: USB2+H05261
Integration Time (usec): 100000 (USB2+H05261)
Spectra Averaged: 1 (USB2+H05261)
Boxcar Smoothing: 0 (USB2+H05261)
Correct for Electrical Dark: No (USB2+H05261)
Strobe/Lamp Enabled: No (USB2+H05261)
Correct for Detector Non-linearity: No (USB2+H05261)
Correct for Stray Light: No (USB2+H05261)
Number of Pixels in Processed Spectrum: 2048
>>>>>Begin Processed Spectral Data<<<<<
365.73	175.54
365.92	175.54
366.12	175.54
366.32	42.13
366.52	70.22
366.72	81.92
366.91	28.09
367.11	7.02
367.31	0.00
367.51	58.51
367.70	51.49
367.90	79.58
368.10	44.47
368.30	32.77
368.49	117.03
368.69	37.45
368.89	32.77
369.09	51.49
369.28	95.96
369.48	32.77
369.68	135.75
369.87	93.62
370.07	133.41
370.27	121.71
370.47	252.78
370.66	376.83
370.86	416.62
371.06	519.60
371.25	510.24
371.45	540.66
371.65	571.09
371.84	386.19
372.04	470.45
372.24	507.90
372.44	433.00
372.63	489.17
372.83	482.15
373.03	535.98
373.22	521.94
373.42	470.45
373.62	514.92
373.81	599.18
374.01	603.86
374.21	477.47
374.40	568.75
374.60	566.41
374.79	519.60
374.99	531.30
375.19	550.03
375.38	613.22
375.58	645.99
375.78	617.90
375.97	559.39
376.17	636.63
376.37	554.71
376.56	601.52
376.76	547.69
376.95	585.13
377.15	603.86
377.35	669.39
377.54	683.44
377.74	636.63
377.93	589.82
378.13	622.58
378.33	627.26
378.52	564.07
378.72	608.54
378.91	655.35
379.11	545.34
379.31	603.86
379.50	610.88
379.70	695.14
379.89	678.76
380.09	641.31
380.28	643.65
380.48	697.48
380.68	758.33
380.87	676.41
381.07	702.16
381.26	634.29
381.46	617.90
381.65	734.93
381.85	725.57
382.04	599.18
382.24	699.82
382.43	664.71
382.63	685.78
382.83	765.36
383.02	723.23
383.22	730.25
383.41	641.31
383.61	676.41
383.80	779.40
384.00	844.93
384.19	763.01
384.39	685.78
384.58	713.86
384.78	744.29
384.97	767.70
385.17	730.25
385.36	781.74
385.56	718.54
385.75	765.36
385.95	725.57
386.14	779.40
386.34	805.14
386.53	828.55
386.72	741.95
386.92	814.51
387.11	777.06
387.31	910.47
387.50	830.89
387.70	856.64
387.89	844.93
388.09	849.61
388.28	788.76
388.48	877.70
388.67	814.51
388.86	915.15
389.06	894.08
389.25	866.00
389.45	880.04
389.64	844.93
389.84	891.74
390.03	966.64
390.22	863.66
390.42	887.06
390.61	884.72
390.81	924.51
391.00	905.79
391.19	1008.77
391.39	968.98
391.58	961.96
391.78	922.17
391.97	1055.58
392.16	938.55
392.36	964.30
392.55	952.60
392.75	976.00
392.94	945.58
393.13	997.07
393.33	976.00
393.52	945.58
393.71	985.37
393.91	1076.65
394.10	1025.15
394.29	1107.07
394.49	1083.67
394.68	1137.50
394.88	1137.50
395.07	1107.07
395.26	1076.65
395.46	1083.67
395.65	1151.54
395.84	1172.61
396.04	1226.44
396.23	1200.69
396.42	1088.35
396.62	1160.91
396.81	1198.35
397.00	1137.50
397.19	1174.95
397.39	1170.27
397.58	1261.55
397.77	1301.34
397.97	1289.64
398.16	1207.72
398.35	1350.49
398.55	1336.45
398.74	1268.57
398.93	1401.98
399.12	1256.87
399.32	1350.49
399.51	1291.98
399.70	1355.17
399.90	1322.40
400.09	1469.86
400.28	1327.08
400.47	1483.90
400.67	1535.39
400.86	1453.47
401.05	1420.71
401.24	1486.24
401.44	1458.15
401.63	1486.24
401.82	1509.65
402.01	1483.90
402.21	1434.75
402.40	1568.16
402.59	1511.99
402.78	1523.69
402.97	1591.56
403.17	1617.31
403.36	1593.90
403.55	1575.18
403.74	1657.10
403.93	1605.61
404.13	1678.16
404.32	1582.20
404.51	1647.74
404.70	1771.79
404.89	1666.46
405.09	1708.59
405.28	1795.19
405.47	1858.39
405.66	1708.59
405.85	1792.85
406.05	1666.46
406.24	1694.55
406.43	1823.28
406.62	1785.83
406.81	1849.02
407.00	1844.34
407.20	1732.00
407.39	1834.98
407.58	1823.28
407.77	1980.09
407.96	1830.30
408.15	2015.20
408.34	1916.90
408.54	1926.26
408.73	2050.31
408.92	1996.48
409.11	2108.82
409.30	2017.54
409.49	1984.77
409.68	2033.93
409.87	2141.59
410.07	2125.21
410.26	2101.80
410.45	2071.37
410.64	2153.29
410.83	2235.21
411.02	2157.97
411.21	2256.28
411.40	2363.94
411.59	2385.01
411.78	2225.85
411.98	2340.54
412.17	2335.85
412.36	2296.07
412.55	2389.69
412.74	2387.35
412.93	2326.49
413.12	2413.09
413.31	2593.31
413.50	2363.94
413.69	2541.82
413.88	2586.29
414.07	2527.78
414.26	2520.76
414.45	2612.04
414.64	2497.35
414.83	2595.65
415.02	2757.15
415.22	2684.59
415.41	2799.28
415.60	2768.85
415.79	2944.39
415.98	2923.33
416.17	2822.69
416.36	2775.88
416.55	2902.26
416.74	2965.46
416.93	2785.24
417.12	2944.39
417.31	2829.71
417.50	2935.03
417.69	3171.43
417.88	3035.67
418.07	3054.40
418.26	3000.57
418.45	3213.56
418.64	3038.02
418.83	3232.28
419.02	3173.77
419.21	3119.93
419.39	3304.84
419.58	3108.23
419.77	3148.02
419.96	3283.77
420.15	3375.05
420.34	3321.22
420.53	3227.60
420.72	3342.28
420.91	3393.78
421.10	3377.39
421.29	3487.40
421.48	3302.50
421.67	3349.31
421.86	3396.12
422.05	3534.21
422.24	3370.37
422.43	3428.88
422.61	3461.65
422.80	3442.93
422.99	3482.72
423.18	3492.08
423.37	3529.53
423.56	3559.95
423.75	3534.21
423.94	3456.97
424.13	3213.56
424.32	3344.63
424.50	3456.97
424.69	3623.15
424.88	3585.70
425.07	3480.38
425.26	3503.78
425.45	3496.76
425.64	3606.77
425.83	3524.85
426.01	3688.68
426.20	3606.77
426.39	3632.51
426.58	3494.42
426.77	3522.51
426.96	3592.72
427.15	3655.92
427.33	3684.00
427.52	3632.51
427.71	3674.64
427.90	3684.00
428.09	3824.44
428.28	3831.46
428.46	3803.37
428.65	3817.41
428.84	3786.99
429.03	3889.97
429.22	3726.13
429.40	3798.69
429.59	3801.03
429.78	3531.87
429.97	3595.06
430.16	3534.21
430.34	3845.50
430.53	3801.03
430.72	3861.88
430.91	3880.61
431.10	3929.76
431.28	4023.38
431.47	4138.07
431.66	4217.65
431.85	4021.04
432.03	4262.12
432.22	4222.33
432.41	4308.93
432.60	4212.96
432.79	4156.79
432.97	4224.67
433.16	4227.01
433.35	4245.73
433.54	4248.07
433.72	4386.16
433.91	4184.88
434.10	4283.18
434.28	4388.50
434.47	4348.72
434.66	4435.32
434.85	4507.87
435.03	4390.84
435.22	4573.41
435.41	4528.94
435.59	4489.15
435.78	4690.43
435.97	4557.02
436.16	4589.79
436.34	4622.56
436.53	4493.83
436.72	4723.20
436.90	4615.54
437.09	4697.46
437.28	4645.96
437.46	4711.50
437.65	4601.49
437.84	4660.01
438.02	4587.45
438.21	4636.60
438.40	4753.63
438.58	4959.60
438.77	4978.32
438.96	4833.21
439.14	4987.68
439.33	5111.73
439.52	5069.60
439.70	5174.92
439.89	5109.39
440.08	5188.97
440.26	5085.98
440.45	5146.84
440.63	5198.33
440.82	5331.74
441.01	5284.93
441.19	5568.13
441.38	5401.96
441.57	5493.24
441.75	5579.84
441.94	5589.20
442.12	5504.94
442.31	5804.53
442.50	5762.40
442.68	5673.46
442.87	5685.16
443.05	5554.09
443.24	5977.73
443.43	5731.97
443.61	5881.77
443.80	5877.09
443.98	5605.58
444.17	5614.95
444.35	5748.36
444.54	5909.85
444.73	5781.12
444.91	5935.60
445.10	5867.72
445.28	5776.44
445.47	5626.65
445.65	5762.40
445.84	6111.14
446.02	6094.76
446.21	5856.02
446.39	5902.83
446.58	5944.96
446.77	5891.13
446.95	5858.36
447.14	5928.58
447.32	5956.66
447.51	5949.64
447.69	5886.45
447.88	5937.94
448.06	6134.54
448.25	5998.79
448.43	6026.88
448.62	5909.85
448.80	6129.86
448.99	6090.07
449.17	6122.84
449.36	6045.60
449.54	6221.14
449.73	6333.49
449.91	6373.28
450.10	6249.23
450.28	6345.19
450.46	6314.77
450.65	6270.30
450.83	6427.11
451.02	6427.11
451.20	6279.66
451.39	6450.52
451.57	6497.33
451.76	6473.92
451.94	6338.17
452.13	6675.21
452.31	6581.59
452.49	6403.71
452.68	6352.21
452.86	6459.88
453.05	6623.72
453.23	6651.80
453.42	6539.46
453.60	6548.82
453.78	6771.17
453.97	6586.27
454.15	6679.89
454.34	6532.44
454.52	6808.62
454.70	6656.48
454.89	6595.63
455.07	6810.96
455.26	6923.30
455.44	6927.99
455.62	6883.52
455.81	7028.63
455.99	6970.12
456.17	6986.50
456.36	7033.31
456.54	7061.40
456.73	7148.00
456.91	7274.38
457.09	7279.07
457.28	7356.30
457.46	7328.22
457.64	7377.37
457.83	7391.41
458.01	7152.68
458.19	7466.31
458.38	7295.45
458.56	7595.04
458.74	7389.07
458.93	7583.34
459.11	7510.78
459.29	7536.52
459.48	7501.42
459.66	7613.76
459.84	7548.23
460.03	7808.03
460.21	7538.87
460.39	7630.15
460.57	7573.97
460.76	7824.41
460.94	7681.64
461.12	7709.72
461.31	7672.28
461.49	7772.92
461.67	7730.79
461.85	7992.93
462.04	7854.84
462.22	8395.50
462.40	8091.23
462.59	7878.24
462.77	8091.23
462.95	8145.06
463.13	8098.25
463.32	8102.93
463.50	7981.23
463.68	8086.55
463.86	8135.70
464.05	8013.99
464.23	7911.01
464.41	8264.43
464.59	8053.78
464.78	8264.43
464.96	8226.98
465.14	8348.69
465.32	8276.13
465.50	8334.65
465.69	8273.79
465.87	8322.94
466.05	8400.18
466.23	8388.48
466.41	8470.40
466.60	8624.87
466.78	8308.90
466.96	8325.29
467.14	8416.57
467.32	8470.40
467.51	8720.84
467.69	8458.70
467.87	8411.89
468.05	8683.39
468.23	8571.04
468.41	8535.93
468.60	8566.36
468.78	8699.77
468.96	8578.06
469.14	8809.78
469.32	8800.41
469.50	8706.79
469.69	8777.01
469.87	8781.69
470.05	8800.41
470.23	8975.95
470.41	8856.59
470.59	8865.95
470.77	8917.44
470.95	9085.96
471.14	9179.58
471.32	9165.54
471.50	9387.89
471.68	9226.39
471.86	9432.36
472.04	9198.31
472.22	9755.35
472.40	9167.88
472.58	9289.59
472.77	9404.27
472.95	9540.02
473.13	9919.19
473.31	9378.53
473.49	9533.00
473.67	9502.58
473.85	9568.11
474.03	9710.88
474.21	9949.62
474.39	9900.47
474.57	10097.07
474.75	10045.58
474.93	10122.82
475.12	10188.35
475.30	10221.12
475.48	10237.50
475.66	10284.31
475.84	10181.33
476.02	10534.75
476.20	10511.35
476.38	10611.99
476.56	10778.17
476.74	10796.89
476.92	10672.84
477.10	10696.25
477.28	10949.03
477.46	10984.13
477.64	11016.90
477.82	11311.81
478.00	11302.45
478.18	11335.21
478.36	11321.17
478.54	11510.75
478.72	11435.86
478.90	11489.69
479.08	11779.92
479.26	11882.90
479.44	11960.14
479.62	12114.61
479.80	11953.12
479.98	12184.83
480.16	12266.75
480.34	12505.48
480.52	12664.64
480.70	12526.55
480.88	12477.40
481.06	12706.77
481.24	12397.82
481.41	12915.08
481.59	13186.58
481.77	12973.59
481.95	13207.64
482.13	13331.69
482.31	13282.54
482.49	13659.37
482.67	13458.08
482.85	13488.51
483.03	13846.61
483.21	13916.83
483.39	14022.15
483.57	13973.00
483.74	14235.14
483.92	14403.66
484.10	14134.50
484.28	14675.16
484.46	14532.39
484.64	14677.50
484.82	14609.62
485.00	14820.27
485.18	14888.15
485.35	15154.97
485.53	15051.99
485.71	15059.01
485.89	15414.77
486.07	15541.16
486.25	15332.85
486.43	15524.77
486.61	15726.06
486.78	16219.91
486.96	16135.65
487.14	15976.50
487.32	16067.78
487.50	16500.78
487.68	16819.09
487.85	16772.28
488.03	17053.14
488.21	16952.50
488.39	17020.38
488.57	17240.39
488.75	17137.40
488.92	17308.26
489.10	18001.06
489.28	17544.66
489.46	18019.78
489.64	18040.85
489.81	18380.23
489.99	18305.33
490.17	18307.67
490.35	18618.96
490.53	18820.25
490.70	18721.95
490.88	18806.20
491.06	19066.00
491.24	18974.72
491.41	19143.24
491.59	19241.54
491.77	19124.52
491.95	19566.88
492.13	19480.28
492.30	19969.45
492.48	20238.61
492.66	19606.67
492.84	19824.34
493.01	20353.30
493.19	19850.08
493.37	20177.76
493.54	20243.29
493.72	20751.19
493.90	20575.65
494.08	20952.48
494.25	21212.28
494.43	21434.63
494.61	21025.03
494.79	21579.74
494.96	21120.99
495.14	21556.33
495.32	21476.76
495.49	22059.55
495.67	21986.99
495.85	22059.55
496.02	22207.00
496.20	22614.26
496.38	22305.31
496.55	22541.70
496.73	22899.80
496.91	22731.28
497.09	22951.29
497.26	22972.36
497.44	22843.63
497.62	23386.63
497.79	23274.29
497.97	23297.69
498.14	23435.78
498.32	23248.54
498.50	23957.72
498.67	23667.50
498.85	23737.71
499.03	24346.25
499.20	24041.98
499.38	23981.13
499.56	24173.05
499.73	24498.39
499.91	24425.83
500.08	24432.85
500.26	24203.48
500.44	24554.56
500.61	24624.78
500.79	24706.70
500.97	24898.62
501.14	25331.62
501.32	25184.16
501.49	25081.18
501.67	25226.29
501.84	25399.49
502.02	25638.23
502.20	25689.72
502.37	25783.34
502.55	25612.48
502.72	25902.71
502.90	25687.38
503.07	25830.15
503.25	26075.91
503.43	26010.37
503.60	26188.25
503.78	26085.27
503.95	26670.40
504.13	26162.51
504.30	26441.03
504.48	26485.50
504.65	26838.92
504.83	27056.59
505.01	27007.44
505.18	26834.24
505.36	27091.70
505.53	27211.07
505.71	27625.34
505.88	27508.32
506.06	27381.93
506.23	27370.22
506.41	27213.41
506.58	27627.68
506.76	27953.02
506.93	27758.75
507.11	27943.66
507.28	27917.91
507.46	27969.40
507.63	28030.26
507.81	28163.67
507.98	28182.39
508.16	28002.17
508.33	27950.68
508.50	28236.22
508.68	28608.37
508.85	28807.31
509.03	28751.14
509.20	28933.70
509.38	29081.16
509.55	29193.50
509.73	28985.19
509.90	28978.17
510.08	29099.88
510.25	29237.97
510.42	29289.46
510.60	29436.92
510.77	29507.13
510.95	29912.05
511.12	29436.92
511.30	30005.67
511.47	29626.50
511.64	30146.10
511.82	30506.54
511.99	30047.80
512.17	30143.76
512.34	30209.29
512.51	30354.41
512.69	30539.31
512.86	30441.01
513.04	30267.81
513.21	30792.09
513.38	30850.60
513.56	30721.87
513.73	30543.99
513.90	31014.44
514.08	30679.74
514.25	31194.66
514.43	31234.45
514.60	31154.87
514.77	30864.64
514.95	31480.21
515.12	31349.14
515.29	31557.44
515.47	31398.29
515.64	31573.83
515.81	31634.68
515.99	31613.62
516.16	31700.22
516.33	31807.88
516.51	32025.55
516.68	31550.42
516.85	31674.47
517.03	32184.71
517.20	32198.75
517.37	32238.54
517.54	32266.63
517.72	31683.83
517.89	32528.77
518.06	32100.45
518.24	32568.55
518.41	32109.81
518.58	32280.67
518.75	32238.54
518.93	32795.59
519.10	32774.52
519.27	32772.18
519.45	32900.91
519.62	32861.12
519.79	33130.28
519.96	33303.48
520.14	33099.86
520.31	33184.12
520.48	33083.47
520.65	33303.48
520.83	33376.04
521.00	33675.63
521.17	33614.77
521.34	33729.46
521.52	33736.48
521.69	34197.57
521.86	34106.29
522.03	33897.98
522.20	34389.49
522.38	34330.98
522.55	34415.24
522.72	33750.52
522.89	34314.59
523.07	34429.28
523.24	34473.75
523.41	34946.54
523.58	34541.63
523.75	34857.60
523.92	34548.65
524.10	34499.50
524.27	35077.61
524.44	34689.08
524.61	34937.18
524.78	35278.89
524.96	34834.19
525.13	34981.65
525.30	35641.68
525.47	35526.99
525.64	35534.01
525.81	35496.56
525.98	35180.59
526.16	35213.36
526.33	35285.92
526.50	35934.24
526.67	35534.01
526.84	35222.72
527.01	35515.29
527.18	35742.32
527.36	35611.25
527.53	35957.65
527.70	36444.48
527.87	36374.27
528.04	35999.78
528.21	36329.80
528.38	35805.52
528.55	36222.13
528.72	36486.61
528.89	36596.62
529.07	36325.11
529.24	36201.07
529.41	36706.62
529.58	36367.24
529.75	36418.74
529.92	36669.17
530.09	36779.18
530.26	36947.70
530.43	37017.91
530.60	36734.71
530.77	36980.46
530.94	36797.90
531.11	37027.28
531.28	37179.41
531.46	37076.43
531.63	37471.98
531.80	37326.86
531.97	37247.29
532.14	37652.20
532.31	37291.76
532.48	37514.11
532.65	37483.68
532.82	37146.64
532.99	37572.62
533.16	37167.71
533.33	37851.14
533.50	38153.07
533.67	38087.54
533.84	37743.48
534.01	38089.88
534.18	37855.82
534.35	38609.48
534.52	37626.45
534.69	38300.53
534.86	38087.54
535.03	38003.28
535.20	38232.65
535.37	38148.39
535.54	38850.55
535.71	38169.46
535.88	38139.03
536.05	38242.01
536.22	38562.67
536.38	38700.76
536.55	38359.04
536.72	38733.53
536.89	38281.80
537.06	38705.44
537.23	39026.09
537.40	38892.68
537.57	38756.93
537.74	39012.05
537.91	38990.98
538.08	38885.66
538.25	39089.29
538.42	39276.53
538.59	39346.75
538.75	39199.29
538.92	39054.18
539.09	39423.98
539.26	39131.42
539.43	39306.96
539.60	39426.32
539.77	39311.64
539.94	39269.51
540.11	39246.10
540.28	39405.26
540.44	39496.54
540.61	39634.63
540.78	39084.61
540.95	39526.97
541.12	39091.63
541.29	39550.37
541.46	39756.34
541.62	39693.15
541.79	40032.52
541.96	39452.07
542.13	40032.52
542.30	40016.14
542.47	40371.90
542.63	40100.40
542.80	40540.42
542.97	40519.35
543.14	40800.22
543.31	40184.66
543.48	40627.02
543.64	40783.83
543.81	40933.63
543.98	40498.29
544.15	40418.71
544.32	41090.44
544.48	41256.62
544.65	40334.45
544.82	40378.92
544.99	40793.20
545.16	40942.99
545.32	40584.89
545.49	40849.37
545.66	41333.86
545.83	41050.66
546.00	41478.97
546.16	40814.26
546.33	40938.31
546.50	40402.33
546.67	41350.24
546.83	40783.83
547.00	40807.24
547.17	40935.97
547.34	41397.06
547.50	41366.63
547.67	41670.90
547.84	41902.61
548.00	41816.01
548.17	41876.86
548.34	41357.27
548.51	41928.36
548.67	41724.73
548.84	41841.76
549.01	41713.03
549.18	41673.24
549.34	41684.94
549.51	41853.46
549.68	41956.44
549.84	41961.12
550.01	42033.68
550.18	41762.18
550.34	41689.62
550.51	41970.49
550.68	42274.76
550.84	41668.56
551.01	42040.70
551.18	41918.99
551.34	42115.60
551.51	41888.57
551.68	42452.64
551.84	42314.55
552.01	42075.81
552.18	42342.63
552.34	42080.49
552.51	42323.91
552.68	42653.92
552.84	42677.33
553.01	42817.76
553.18	42557.96
553.34	42955.85
553.51	42234.97
553.67	42763.93
553.84	42796.70
554.01	42930.11
554.17	42897.34
554.34	42848.19
554.51	42780.31
554.67	43222.67
554.84	42614.13
555.00	42583.71
555.17	42497.11
555.33	42817.76
555.50	42564.98
555.67	42567.32
555.83	42724.14
556.00	42946.49
556.16	43470.77
556.33	43178.20
556.50	43126.71
556.66	43344.38
556.83	43079.90
556.99	43175.86
557.16	43393.53
557.32	43339.70
557.49	43440.34
557.65	42822.44
557.82	42981.60
557.98	43438.00
558.15	42904.36
558.32	43222.67
558.48	43164.16
558.65	43634.61
558.81	42979.26
558.98	42993.30
559.14	43143.09
559.31	43133.73
559.47	43164.16
559.64	43522.26
559.80	43702.48
559.97	43377.15
560.13	43494.18
560.30	43335.02
560.46	43447.36
560.63	43789.08
560.79	43480.13
560.96	43784.40
561.12	43538.65
561.29	42925.42
561.45	43320.98
561.61	43606.52
561.78	43578.43
561.94	43452.05
562.11	43599.50
562.27	43709.50
562.44	43910.79
562.60	43634.61
562.77	43978.67
562.93	43798.44
563.10	44212.72
563.26	43700.14
563.42	44055.90
563.59	43917.81
563.75	43714.19
563.92	43779.72
564.08	43894.41
564.24	44144.84
564.41	43842.92
564.57	43735.25
564.74	43683.76
564.90	44067.61
565.07	44137.82
565.23	43833.55
565.39	44133.14
565.56	44208.04
565.72	44362.51
565.88	44109.74
566.05	44275.91
566.21	44203.36
566.38	43683.76
566.54	43943.56
566.70	44196.34
566.87	44563.80
567.03	44081.65
567.19	44388.26
567.36	44282.94
567.52	44154.21
567.68	44861.05
567.85	44261.87
568.01	44205.70
568.17	44149.53
568.34	44133.14
568.50	44308.68
568.66	44133.14
568.83	44371.88
568.99	43608.86
569.15	44226.76
569.32	44175.27
569.48	44114.42
569.64	44619.97
569.81	44285.28
569.97	44479.54
570.13	44589.55
570.30	44198.68
570.46	43985.69
570.62	43899.09
570.78	44208.04
570.95	44280.60
571.11	44685.51
571.27	44105.06
571.43	44179.95
571.60	44399.96
571.76	44421.03
571.92	43995.05
572.09	44343.79
572.25	44713.59
572.41	44247.83
572.57	44774.45
572.74	44907.86
572.90	44135.48
573.06	44591.89
573.22	44512.31
573.38	44617.63
573.55	44414.01
573.71	44748.70
573.87	44308.68
574.03	44261.87
574.20	44086.33
574.36	44430.39
574.52	44601.25
574.68	44498.26
574.84	44259.53
575.01	44311.02
575.17	44444.43
575.33	44266.55
575.49	44456.14
575.65	44643.38
575.82	45043.61
575.98	44570.82
576.14	44847.00
576.30	44346.13
576.46	44767.43
576.62	44535.71
576.79	44133.14
576.95	44081.65
577.11	44545.08
577.27	44444.43
577.43	44917.22
577.59	44502.95
577.75	44760.40
577.92	44442.09
578.08	44243.15
578.24	44088.67
578.40	44327.41
578.56	44804.88
578.72	44500.61
578.88	44247.83
579.04	44774.45
579.21	44486.56
579.37	44657.42
579.53	44666.78
579.69	44369.54
579.85	44224.42
580.01	44758.06
580.17	44851.69
580.33	44816.58
580.49	45563.21
580.65	44748.70
580.82	44664.44
580.98	44919.56
581.14	44524.01
581.30	44737.00
581.46	45120.85
581.62	44678.49
581.78	44666.78
581.94	45141.91
582.10	44765.09
582.26	44877.43
582.42	44547.42
582.58	45043.61
582.74	44699.55
582.90	44542.74
583.06	44861.05
583.22	44800.19
583.38	44797.85
583.54	44526.35
583.70	44535.71
583.86	44804.88
584.02	44179.95
584.18	44835.30
584.34	45001.48
584.50	44802.53
584.66	44341.45
584.82	44608.27
584.98	45024.89
585.14	44877.43
585.30	44575.50
585.46	44992.12
585.62	44924.24
585.78	44261.87
585.94	44470.18
586.10	44531.03
586.26	44430.39
586.42	44968.71
586.58	44903.18
586.74	44800.19
586.90	44608.27
587.06	44725.30
587.22	44889.13
587.38	44341.45
587.54	45254.26
587.70	45027.23
587.86	44788.49
588.02	45106.80
588.18	45064.67
588.34	45008.50
588.49	44280.60
588.65	44507.63
588.81	44570.82
588.97	44493.58
589.13	44708.91
589.29	44587.21
589.45	44781.47
589.61	45027.23
589.77	45315.11
589.93	45200.43
590.08	45256.60
590.24	45144.25
590.40	45048.29
590.56	45612.36
590.72	44786.15
590.88	44732.32
591.04	44818.92
591.20	45265.96
591.35	45242.56
591.51	45050.63
591.67	44828.28
591.83	45111.49
591.99	45041.27
592.15	44975.73
592.31	44577.84
592.46	44720.62
592.62	45031.91
592.78	44762.75
592.94	45319.79
593.10	45095.10
593.26	45390.01
593.41	44854.03
593.57	44856.37
593.73	45240.21
593.89	45296.39
594.05	44898.50
594.20	45048.29
594.36	45574.91
594.52	44835.30
594.68	45404.05
594.84	45237.87
594.99	45340.86
595.15	44790.83
595.31	45223.83
595.47	45219.15
595.62	45083.40
595.78	45347.88
595.94	45301.07
596.10	45378.31
596.25	45326.81
596.41	45102.12
596.57	44884.45
596.73	45251.92
596.88	45132.55
597.04	45237.87
597.20	45453.20
597.36	45446.18
597.51	45617.04
597.67	45439.16
597.83	45230.85
597.99	45471.93
598.14	45593.64
598.30	45361.92
598.46	45125.53
598.61	44931.26
598.77	45265.96
598.93	45036.59
599.09	45214.47
599.24	45535.12
599.40	45483.63
599.56	45291.71
599.71	45064.67
599.87	45090.42
600.03	45354.90
600.18	44816.58
600.34	44870.41
600.50	45378.31
600.65	45097.44
600.81	45174.68
600.97	45359.58
601.12	45502.35
601.28	45600.66
601.44	45165.32
601.59	45516.40
601.75	45216.81
601.91	45043.61
602.06	45275.32
602.22	45113.83
602.37	45045.95
602.53	45415.76
602.69	45481.29
602.84	45024.89
603.00	45226.17
603.16	45207.45
603.31	45174.68
603.47	44837.64
603.62	45230.85
603.78	45401.71
603.94	45614.70
604.09	45205.11
604.25	45162.98
604.40	45151.27
604.56	45153.62
604.71	45092.76
604.87	45177.02
605.03	45118.51
605.18	44975.73
605.34	44910.20
605.49	44584.86
605.65	45284.68
605.80	45406.39
605.96	45600.66
606.12	45193.40
606.27	45308.09
606.43	44982.76
606.58	45050.63
606.74	45027.23
606.89	44818.92
607.05	44797.85
607.20	45474.27
607.36	44917.22
607.51	45191.06
607.67	45357.24
607.82	45329.16
607.98	44868.07
608.13	44697.21
608.29	45198.09
608.44	44474.86
608.60	44306.34
608.75	44744.02
608.91	44437.41
609.06	45202.77
609.22	44961.69
609.37	44767.43
609.53	44823.60
609.68	44772.11
609.84	45113.83
609.99	45057.65
610.15	44818.92
610.30	44498.26
610.46	44350.81
610.61	44634.02
610.76	44725.30
610.92	44865.73
611.07	44486.56
611.23	44313.36
611.38	44793.17
611.54	44252.51
611.69	44549.76
611.84	44268.89
612.00	44692.53
612.15	44432.73
612.31	44250.17
612.46	44472.52
612.62	44809.56
612.77	44713.59
612.92	44751.04
613.08	44179.95
613.23	44184.63
613.39	44088.67
613.54	43653.33
613.69	44229.10
613.85	44512.31
614.00	44699.55
614.15	44655.08
614.31	44273.57
614.46	44673.81
614.62	44198.68
614.77	43950.58
614.92	44039.52
615.08	44203.36
615.23	44095.69
615.38	44009.09
615.54	43751.63
615.69	43828.87
615.84	43983.35
616.00	43646.31
616.15	44168.25
616.30	43753.97
616.46	43636.95
616.61	43957.60
616.76	44121.44
616.92	43466.09
617.07	44058.24
617.22	43793.76
617.37	43709.50
617.53	44210.38
617.68	43842.92
617.83	44191.65
617.99	43737.59
618.14	43861.64
618.29	43753.97
618.45	43613.54
618.60	43540.99
618.75	43615.88
618.90	43072.88
619.06	44168.25
619.21	43796.10
619.36	43917.81
619.51	43482.47
619.67	43412.26
619.82	43791.42
619.97	43735.25
620.12	43180.54
620.28	43175.86
620.43	43571.41
620.58	43358.42
620.73	43414.60
620.89	43519.92
621.04	43374.81
621.19	43180.54
621.34	43082.24
621.49	42988.62
621.65	42796.70
621.80	43297.57
621.95	42906.70
622.10	43351.40
622.25	42876.27
622.41	42787.33
622.56	42323.91
622.71	43292.89
622.86	42815.42
623.01	43152.46
623.16	43337.36
623.32	43185.22
623.47	43030.75
623.62	42883.30
623.77	42834.14
623.92	42712.44
624.07	42471.36
624.23	42408.17
624.38	42553.28
624.53	42473.70
624.68	42937.13
624.83	43349.06
624.98	42651.58
625.13	42646.90
625.29	42787.33
625.44	42770.95
625.59	42017.30
625.74	42274.76
625.89	41902.61
626.04	42347.31
626.19	42637.54
626.34	42363.70
626.49	42106.24
626.65	42211.56
626.80	42300.50
626.95	42059.43
627.10	42359.02
627.25	42024.32
627.40	42108.58
627.55	41998.57
627.70	41481.31
627.85	41804.31
628.00	41617.07
628.15	42342.63
628.30	41909.63
628.45	42124.96
628.60	42178.79
628.76	41661.54
628.91	42064.11
629.06	41834.74
629.21	41869.84
629.36	41923.68
629.51	41663.88
629.66	41890.91
629.81	41207.47
629.96	41521.10
630.11	41776.22
630.26	41345.56
630.41	41879.21
630.56	41930.70
630.71	41490.68
630.86	41434.50
631.01	41729.41
631.16	41780.90
631.31	41287.05
631.46	40622.34
631.61	41535.15
631.76	41261.30
631.91	41565.57
632.06	41495.36
632.21	41881.55
632.36	41111.51
632.51	41436.84
632.66	41045.97
632.81	40863.41
632.96	41467.27
633.10	40954.69
633.25	40896.18
633.40	40900.86
633.55	41598.34
633.70	41148.96
633.85	41284.71
634.00	41020.23
634.15	41081.08
634.30	41476.63
634.45	40933.63
634.60	40774.47
634.75	41439.18
634.90	41015.55
635.05	40727.66
635.19	40467.86
635.34	41216.83
635.49	41008.53
635.64	40673.83
635.79	40734.68
635.94	40872.78
636.09	40727.66
636.24	40399.99
636.39	40470.20
636.53	40425.73
636.68	40500.63
636.83	40715.96
636.98	40575.53
637.13	40212.74
637.28	40542.76
637.43	40575.53
637.57	40608.29
637.72	40399.99
637.87	40699.58
638.02	40573.19
638.17	40273.60
638.32	39941.24
638.46	40531.06
638.61	39889.75
638.76	39899.11
638.91	40261.90
639.06	39878.05
639.20	40208.06
639.35	40561.48
639.50	40222.11
639.65	40325.09
639.80	40254.87
639.94	39852.30
640.09	40123.80
640.24	40109.76
640.39	39908.47
640.54	39688.46
640.68	39667.40
640.83	39861.66
640.98	39700.17
641.13	39782.09
641.27	40587.23
641.42	39938.90
641.57	40172.96
641.72	39754.00
641.86	39651.02
642.01	39393.56
642.16	39447.39
642.31	39150.14
642.45	39660.38
642.60	39337.38
642.75	39402.92
642.90	39566.76
643.04	39412.28
643.19	38799.06
643.34	39648.68
643.48	39398.24
643.63	39257.81
643.78	39276.53
643.93	39295.25
644.07	38866.94
644.22	39220.36
644.37	38941.83
644.51	39051.84
644.66	39452.07
644.81	38962.90
644.95	39501.22
645.10	39026.09
645.25	39210.99
645.39	39157.16
645.54	39367.81
645.69	39044.82
645.83	39009.71
645.98	39316.32
646.13	39564.42
646.27	39201.63
646.42	38974.60
646.57	39063.54
646.71	38663.31
646.86	38686.71
647.00	38859.91
647.15	38808.42
647.30	38588.41
647.44	38951.20
647.59	39028.43
647.74	38705.44
647.88	38471.39
648.03	38504.15
648.17	38363.72
648.32	38190.52
648.47	38366.06
648.61	38335.63
648.76	38574.37
648.90	38483.09
649.05	38625.86
649.20	38953.54
649.34	38731.18
649.49	38609.48
649.63	38127.33
649.78	38464.36
649.92	38019.66
650.07	38419.89
650.21	37998.60
650.36	38108.60
650.51	38279.46
650.65	38976.94
650.80	38667.99
650.94	38754.59
651.09	38164.78
651.23	37801.99
651.38	38040.73
651.52	38005.62
651.67	37722.41
651.81	38202.22
651.96	38005.62
652.10	38223.29
652.25	37422.83
652.39	37834.76
652.54	37785.61
652.68	38043.07
652.83	38171.80
652.97	37951.79
653.12	37844.12
653.26	38106.26
653.41	37883.91
653.55	37727.10
653.70	37507.08
653.84	37879.23
653.99	37577.30
654.13	37347.93
654.27	37687.31
654.42	37551.56
654.56	38094.56
654.71	37258.99
654.85	37137.28
655.00	37399.42
655.14	37338.57
655.29	37364.31
655.43	37308.14
655.57	37268.35
655.72	36800.24
655.86	37233.24
656.01	37399.42
656.15	37181.75
656.30	36999.19
656.44	37158.34
656.58	36968.76
656.73	36776.84
656.87	36865.78
657.01	36776.84
657.16	36779.18
657.30	36847.05
657.45	36617.68
657.59	36666.83
657.73	36783.86
657.88	36914.93
658.02	36687.90
658.16	36718.32
658.31	37008.55
658.45	36964.08
658.60	36268.94
658.74	36697.26
658.88	36769.82
659.03	36381.29
659.17	36540.44
659.31	37046.00
659.46	36521.72
659.60	36641.09
659.74	36484.27
659.89	36327.45
660.03	36128.51
660.17	36449.16
660.32	35920.20
660.46	36802.58
660.60	36718.32
660.74	36495.97
660.89	36744.07
661.03	35779.77
661.17	35725.94
661.32	35644.02
661.46	35742.32
661.60	35676.79
661.74	35789.13
661.89	35885.09
662.03	35587.85
662.17	35431.03
662.31	35477.84
662.46	35777.43
662.60	35194.64
662.74	35737.64
662.88	35304.64
663.03	35962.33
663.17	35316.34
663.31	35424.01
663.45	35241.45
663.60	35414.65
663.74	35196.98
663.88	35098.67
664.02	35115.06
664.17	34876.32
664.31	34934.84
664.45	34656.31
664.59	34976.97
664.73	34401.19
664.88	34937.18
665.02	34707.80
665.16	35138.46
665.30	35381.88
665.44	34586.10
665.59	34504.18
665.73	34251.40
665.87	34188.21
666.01	34312.25
666.15	33968.19
666.29	34312.25
666.44	34363.75
666.58	34293.53
666.72	34153.10
666.86	34527.58
667.00	33872.23
667.14	33572.64
667.28	33865.21
667.43	34216.29
667.57	33577.33
667.71	33858.19
667.85	34122.67
667.99	33287.10
668.13	33483.70
668.27	33818.40
668.41	33621.80
668.56	33022.62
668.70	33633.50
668.84	33324.55
668.98	33259.01
669.12	33064.75
669.26	32662.18
669.40	33333.91
669.54	33158.37
669.68	33031.98
669.82	33099.86
669.96	32872.82
670.10	32741.75
670.25	32765.16
670.39	33134.96
670.53	32512.38
670.67	32582.60
670.81	32936.02
670.95	32694.94
671.09	32772.18
671.23	32706.65
671.37	32477.27
671.51	32566.21
671.65	32584.94
671.79	31983.42
671.93	32053.64
672.07	32009.17
672.21	32217.47
672.35	32079.38
672.49	31826.60
672.63	31927.25
672.77	31571.49
672.91	31690.85
673.05	31555.10
673.19	31653.40
673.33	31400.63
673.47	31292.96
673.61	31131.47
673.75	30845.92
673.89	30953.58
674.03	31079.97
674.17	30864.64
674.31	30897.41
674.45	30714.85
674.59	30808.47
674.73	31206.36
674.87	31026.14
675.01	30862.30
675.15	30822.51
675.29	30824.86
675.43	30553.35
675.56	30745.28
675.70	30527.61
675.84	30164.82
675.98	29312.87
676.12	29806.72
676.26	30043.12
676.40	29905.02
676.54	30043.12
676.68	29802.04
676.82	29654.59
676.96	29706.08
677.10	29551.60
677.23	29352.66
677.37	29654.59
677.51	29642.88
677.65	29387.77
677.79	28933.70
677.93	28996.90
678.07	29039.03
678.21	29074.13
678.34	28601.35
678.48	28755.82
678.62	28620.07
678.76	28519.43
678.90	28353.25
679.04	28589.64
679.18	28388.36
679.31	27948.34
679.45	27714.28
679.59	27707.26
679.73	27899.19
679.87	27695.56
680.00	27964.72
680.14	27630.02
680.28	27529.38
680.42	27033.19
680.56	27538.74
680.70	27360.86
680.83	27197.02
680.97	27042.55
681.11	26920.84
681.25	26864.67
681.39	27068.30
681.52	27002.76
681.66	27026.17
681.80	26941.91
681.94	26806.16
682.07	26588.49
682.21	26593.17
682.35	26352.09
682.49	26354.43
682.62	26499.55
682.76	26202.30
682.90	25820.79
683.04	25954.20
683.17	25790.36
683.31	25762.28
683.45	25921.43
683.59	25488.43
683.72	25387.79
683.86	25214.59
684.00	25394.81
684.13	25619.50
684.27	25647.59
684.41	25223.95
684.55	24898.62
684.68	24769.89
684.82	24858.83
684.96	24858.83
685.09	24505.41
685.23	24507.75
685.37	24542.86
685.50	24350.93
685.64	24535.84
685.78	24383.70
685.91	24575.62
686.05	24149.65
686.19	24219.86
686.32	24233.91
686.46	23716.65
686.60	23433.44
686.73	23323.44
686.87	23197.05
687.01	23613.66
687.14	23269.61
687.28	23201.73
687.42	22946.61
687.55	22892.78
687.69	23026.19
687.82	22878.74
687.96	22918.53
688.10	23002.78
688.23	22459.78
688.37	22410.63
688.50	22302.96
688.64	22485.53
688.78	22293.60
688.91	22211.68
689.05	22492.55
689.18	21734.21
689.32	21598.46
689.46	21942.52
689.59	22244.45
689.73	22024.44
689.86	21949.54
690.00	21748.26
690.13	21942.52
690.27	21612.51
690.41	21675.70
690.54	21137.38
690.68	21371.43
690.81	20924.39
690.95	21029.71
691.08	21095.25
691.22	20629.48
691.35	20650.55
691.49	20968.86
691.62	20980.56
691.76	21207.59
691.89	20758.21
692.03	20243.29
692.16	20390.75
692.30	20388.41
692.43	20238.61
692.57	19723.69
692.70	20205.84
692.84	19981.15
692.97	19714.33
693.11	19742.42
693.24	19414.74
693.38	19475.60
693.51	19646.46
693.65	19683.91
693.78	19796.25
693.92	19803.27
694.05	19199.41
694.19	19253.25
694.32	19360.91
694.45	19138.56
694.59	19082.39
694.72	18897.49
694.86	18899.83
694.99	18459.81
695.13	18427.04
695.26	18464.49
695.39	18256.18
695.53	18412.99
695.66	18520.66
695.80	18300.65
695.93	17994.04
696.07	18143.83
696.20	18047.87
696.33	18118.09
696.47	18307.67
696.60	18050.21
696.73	17764.67
696.87	18040.85
697.00	17799.77
697.14	17687.43
697.27	17418.27
697.40	17596.15
697.54	17195.92
697.67	17128.04
697.80	17612.53
697.94	17102.29
698.07	17186.55
698.21	17001.65
698.34	17001.65
698.47	16601.42
698.61	16596.74
698.74	16910.37
698.87	16278.43
699.01	16269.06
699.14	16573.33
699.27	16379.07
699.40	16189.49
699.54	16446.94
699.67	15985.86
699.80	16107.57
699.94	16065.44
700.07	16077.14
700.20	15826.70
700.34	15939.05
700.47	15749.46
700.60	15618.39
700.73	15819.68
700.87	15709.68
701.00	15410.09
701.13	15442.85
701.26	15154.97
701.40	15468.60
701.53	15367.96
701.66	15103.48
701.79	15264.97
701.93	14979.43
702.06	14934.96
702.19	14965.39
702.32	14761.76
702.46	14890.49
702.59	14670.48
702.72	14806.23
702.85	14558.13
702.99	14810.91
703.12	15049.64
703.25	14422.38
703.38	14595.58
703.51	14487.92
703.65	14335.78
703.78	14272.59
703.91	14047.90
704.04	14387.27
704.17	14146.20
704.31	13980.02
704.44	13830.23
704.57	13549.36
704.70	13650.00
704.83	13797.46
704.96	13600.85
705.10	13682.77
705.23	13877.04
>>>>>End Processed Spectral Data<<<<<
