SpectraSuite Data File
++++++++++++++++++++++++++++++++++++
Date: Fri Oct 25 10:46:55 EDT 2013
User: price-jones
Dark Spectrum Present: No
Reference Spectrum Present: No
Number of Sampled Component Spectra: 1
Spectrometers: USB2+H05261
Integration Time (usec): 100000 (USB2+H05261)
Spectra Averaged: 1 (USB2+H05261)
Boxcar Smoothing: 0 (USB2+H05261)
Correct for Electrical Dark: No (USB2+H05261)
Strobe/Lamp Enabled: No (USB2+H05261)
Correct for Detector Non-linearity: No (USB2+H05261)
Correct for Stray Light: No (USB2+H05261)
Number of Pixels in Processed Spectrum: 2048
>>>>>Begin Processed Spectral Data<<<<<
365.73	196.60
365.92	196.60
366.12	196.60
366.32	37.45
366.52	16.38
366.72	60.85
366.91	0.00
367.11	39.79
367.31	0.00
367.51	58.51
367.70	0.00
367.90	70.22
368.10	0.00
368.30	25.75
368.49	0.00
368.69	32.77
368.89	93.62
369.09	39.79
369.28	112.35
369.48	2.34
369.68	35.11
369.87	2.34
370.07	37.45
370.27	217.67
370.47	187.24
370.66	358.10
370.86	456.40
371.06	550.03
371.25	433.00
371.45	428.32
371.65	547.69
371.84	454.06
372.04	407.25
372.24	454.06
372.44	535.98
372.63	505.56
372.83	519.60
373.03	507.90
373.22	526.62
373.42	500.87
373.62	521.94
373.81	545.34
374.01	580.45
374.21	580.45
374.40	592.16
374.60	615.56
374.79	561.73
374.99	636.63
375.19	631.94
375.38	564.07
375.58	585.13
375.78	631.94
375.97	585.13
376.17	596.84
376.37	650.67
376.56	692.80
376.76	636.63
376.95	676.41
377.15	699.82
377.35	608.54
377.54	676.41
377.74	657.69
377.93	601.52
378.13	671.73
378.33	648.33
378.52	716.20
378.72	643.65
378.91	589.82
379.11	685.78
379.31	657.69
379.50	543.00
379.70	760.67
379.89	755.99
380.09	688.12
380.28	713.86
380.48	669.39
380.68	676.41
380.87	716.20
381.07	760.67
381.26	676.41
381.46	770.04
381.65	784.08
381.85	791.10
382.04	725.57
382.24	704.50
382.43	758.33
382.63	718.54
382.83	741.95
383.02	784.08
383.22	758.33
383.41	699.82
383.61	732.59
383.80	833.23
384.00	805.14
384.19	828.55
384.39	830.89
384.58	856.64
384.78	784.08
384.97	798.12
385.17	812.17
385.36	844.93
385.56	763.01
385.75	774.72
385.95	800.46
386.14	889.40
386.34	823.87
386.53	844.93
386.72	835.57
386.92	908.13
387.11	844.93
387.31	809.83
387.50	805.14
387.70	903.45
387.89	933.87
388.09	809.83
388.28	866.00
388.48	887.06
388.67	926.85
388.86	858.98
389.06	966.64
389.25	1036.86
389.45	1011.11
389.64	952.60
389.84	1018.13
390.03	947.92
390.22	994.73
390.42	938.55
390.61	1046.22
390.81	1020.47
391.00	1020.47
391.19	1121.12
391.39	1071.97
391.58	1041.54
391.78	1078.99
391.97	1100.05
392.16	957.28
392.36	1097.71
392.55	1090.69
392.75	1043.88
392.94	1013.45
393.13	1029.84
393.33	1114.10
393.52	950.26
393.71	1093.03
393.91	1102.39
394.10	1172.61
394.29	1071.97
394.49	1116.44
394.68	1170.27
394.88	1205.38
395.07	1203.04
395.26	1207.72
395.46	1203.04
395.65	1235.80
395.84	1310.70
396.04	1270.91
396.23	1205.38
396.42	1095.37
396.62	1174.95
396.81	1240.48
397.00	1233.46
397.19	1238.14
397.39	1221.76
397.58	1397.30
397.77	1329.42
397.97	1479.22
398.16	1401.98
398.35	1490.92
398.55	1474.54
398.74	1462.83
398.93	1547.09
399.12	1490.92
399.32	1476.88
399.51	1636.03
399.70	1523.69
399.90	1598.59
400.09	1619.65
400.28	1626.67
400.47	1589.22
400.67	1621.99
400.86	1682.85
401.05	1586.88
401.24	1687.53
401.44	1654.76
401.63	1664.12
401.82	1664.12
402.01	1647.74
402.21	1729.66
402.40	1708.59
402.59	1764.76
402.78	1743.70
402.97	1736.68
403.17	1657.10
403.36	1621.99
403.55	1776.47
403.74	1785.83
403.93	1748.38
404.13	1884.13
404.32	1846.68
404.51	1900.52
404.70	1776.47
404.89	1858.39
405.09	1900.52
405.28	1956.69
405.47	1874.77
405.66	1984.77
405.85	1933.28
406.05	1968.39
406.24	1914.56
406.43	1996.48
406.62	2052.65
406.81	2033.93
407.00	2097.12
407.20	2033.93
407.39	2157.97
407.58	2193.08
407.77	2157.97
407.96	2256.28
408.15	2200.10
408.34	2289.04
408.54	2216.49
408.73	2289.04
408.92	2237.55
409.11	2284.36
409.30	2317.13
409.49	2263.30
409.68	2188.40
409.87	2251.60
410.07	2342.88
410.26	2289.04
410.45	2387.35
410.64	2387.35
410.83	2363.94
411.02	2443.52
411.21	2516.08
411.40	2574.59
411.59	2590.97
411.78	2574.59
411.98	2729.06
412.17	2605.02
412.36	2665.87
412.55	2726.72
412.74	2766.51
412.93	2661.19
413.12	2696.30
413.31	2942.05
413.50	2864.82
413.69	2843.75
413.88	2843.75
414.07	2691.62
414.26	2803.96
414.45	2904.60
414.64	2970.14
414.83	2998.23
415.02	2928.01
415.22	3101.21
415.41	3049.72
415.60	3133.98
415.79	3112.91
415.98	3122.27
416.17	3272.07
416.36	3190.15
416.55	3082.49
416.74	3304.84
416.93	3178.45
417.12	3335.26
417.31	3368.03
417.50	3309.52
417.69	3529.53
417.88	3309.52
418.07	3368.03
418.26	3243.98
418.45	3585.70
418.64	3550.59
418.83	3473.36
419.02	3557.61
419.21	3545.91
419.39	3562.30
419.58	3564.64
419.77	3506.12
419.96	3536.55
420.15	3606.77
420.34	3590.38
420.53	3669.96
420.72	3730.81
420.91	3805.71
421.10	3754.22
421.29	3810.39
421.48	3648.90
421.67	3826.78
421.86	3733.15
422.05	3833.80
422.24	3808.05
422.43	3758.90
422.61	3756.56
422.80	3700.39
422.99	3913.38
423.18	3859.54
423.37	3927.42
423.56	3864.22
423.75	3948.48
423.94	3838.48
424.13	3625.49
424.32	3845.50
424.50	3943.80
424.69	4030.40
424.88	3878.27
425.07	3894.65
425.26	3985.93
425.45	3871.25
425.64	3960.19
425.83	3920.40
426.01	3868.91
426.20	4025.72
426.39	3999.98
426.58	3873.59
426.77	3948.48
426.96	3985.93
427.15	3941.46
427.33	3988.27
427.52	4093.60
427.71	4109.98
427.90	4114.66
428.09	4084.23
428.28	4175.52
428.46	4184.88
428.65	4009.34
428.84	4266.80
429.03	4210.62
429.22	3873.59
429.40	4023.38
429.59	4173.18
429.78	3971.89
429.97	3885.29
430.16	3985.93
430.34	4030.40
430.53	4318.29
430.72	4285.52
430.91	4152.11
431.10	4203.60
431.28	4400.21
431.47	4599.15
431.66	4610.86
431.85	4341.69
432.03	4557.02
432.22	4610.86
432.41	4645.96
432.60	4479.79
432.79	4667.03
432.97	4734.90
433.16	4573.41
433.35	4643.62
433.54	4580.43
433.72	4727.88
433.91	4781.71
434.10	4807.46
434.28	4816.82
434.47	4692.77
434.66	4938.53
434.85	4868.31
435.03	4908.10
435.22	4737.24
435.41	5071.94
435.59	5256.84
435.78	4997.04
435.97	4975.98
436.16	5039.17
436.34	5046.20
436.53	5062.58
436.72	5170.24
436.90	5123.43
437.09	5170.24
437.28	4917.47
437.46	5172.58
437.65	5097.69
437.84	5214.71
438.02	5132.79
438.21	5167.90
438.40	5064.92
438.58	5291.95
438.77	5348.12
438.96	5401.96
439.14	5502.60
439.33	5596.22
439.52	5614.95
439.70	5722.61
439.89	5558.77
440.08	5617.29
440.26	5734.31
440.45	5738.99
440.63	5802.19
440.82	5860.70
441.01	5928.58
441.19	6052.63
441.38	5956.66
441.57	6174.33
441.75	6003.47
441.94	6300.72
442.12	6195.40
442.31	6347.53
442.50	6073.69
442.68	6270.30
442.87	6356.90
443.05	6270.30
443.24	6373.28
443.43	6169.65
443.61	6235.19
443.80	6494.99
443.98	6211.78
444.17	6211.78
444.35	6502.01
444.54	6544.14
444.73	6406.05
444.91	6494.99
445.10	6408.39
445.28	6314.77
445.47	6307.74
445.65	6375.62
445.84	6572.22
446.02	6476.26
446.21	6530.09
446.39	6616.69
446.58	6633.08
446.77	6607.33
446.95	6586.27
447.14	6595.63
447.32	6623.72
447.51	6429.45
447.69	6619.04
447.88	6719.68
448.06	6916.28
448.25	6670.53
448.43	6644.78
448.62	6609.67
448.80	6494.99
448.99	6623.72
449.17	6682.23
449.36	6743.08
449.54	6932.67
449.73	6963.09
449.91	6846.07
450.10	7133.95
450.28	7101.19
450.46	7152.68
450.65	7199.49
450.83	6883.52
451.02	7094.16
451.20	7253.32
451.39	7073.10
451.57	7035.65
451.76	7023.95
451.94	7164.38
452.13	7250.98
452.31	7131.61
452.49	6787.55
452.68	7162.04
452.86	7056.72
453.05	7281.41
453.23	7169.06
453.42	7183.10
453.60	7267.36
453.78	7220.55
453.97	7286.09
454.15	7300.13
454.34	7194.81
454.52	7325.88
454.70	7428.86
454.89	7438.22
455.07	7396.09
455.26	7552.91
455.44	7618.44
455.62	7550.57
455.81	7646.53
455.99	7803.35
456.17	7683.98
456.36	7653.55
456.54	7662.91
456.73	7957.82
456.91	8067.83
457.09	7868.88
457.28	8369.76
457.46	7747.17
457.64	7978.89
457.83	8056.12
458.01	7943.78
458.19	8180.17
458.38	7948.46
458.56	8074.85
458.74	8112.30
458.93	8173.15
459.11	8257.41
459.29	8219.96
459.48	8339.33
459.66	8147.40
459.84	8077.19
460.03	8468.06
460.21	8383.80
460.39	8468.06
460.57	8311.24
460.76	8526.57
460.94	8629.56
461.12	8554.66
461.31	8650.62
461.49	8554.66
461.67	8664.66
461.85	8828.50
462.04	8617.85
462.22	8999.36
462.40	8847.22
462.59	8549.98
462.77	8629.56
462.95	8842.54
463.13	8938.51
463.32	8697.43
463.50	8896.38
463.68	8762.97
463.86	8753.60
464.05	8772.33
464.23	8931.48
464.41	8891.70
464.59	9085.96
464.78	9151.49
464.96	9001.70
465.14	8926.80
465.32	9259.16
465.50	9046.17
465.69	9170.22
465.87	9156.18
466.05	9284.91
466.23	8992.34
466.41	9158.52
466.60	9341.08
466.78	9074.26
466.96	9100.00
467.14	9210.01
467.32	9184.26
467.51	9109.36
467.69	9041.49
467.87	9336.40
468.05	9523.64
468.23	9245.12
468.41	9427.68
468.60	9495.55
468.78	9673.43
468.96	9385.55
469.14	9631.30
469.32	9511.94
469.50	9317.67
469.69	9650.03
469.87	9565.77
470.05	9795.14
470.23	9757.69
470.41	9631.30
470.59	9846.63
470.77	9645.35
470.95	9806.84
471.14	10054.94
471.32	9790.46
471.50	10057.28
471.68	10167.29
471.86	10202.40
472.04	10143.88
472.22	10469.22
472.40	10146.22
472.58	10347.51
472.77	10345.17
472.95	10525.39
473.13	10719.65
473.31	10518.37
473.49	10427.09
473.67	10394.32
473.85	10494.96
474.03	10853.06
474.21	10981.79
474.39	10867.11
474.57	10846.04
474.75	10761.78
474.93	10981.79
475.12	11042.65
475.30	11052.01
475.48	11061.37
475.66	11272.02
475.84	11115.20
476.02	11431.18
476.20	11302.45
476.38	11384.37
476.56	11646.51
476.74	11789.28
476.92	11538.84
477.10	11852.47
477.28	11775.24
477.46	11826.73
477.64	12032.69
477.82	12159.08
478.00	12528.89
478.18	12395.48
478.36	12432.93
478.54	12809.75
478.72	12603.78
478.90	12814.43
479.08	13032.10
479.26	13048.49
479.44	13011.04
479.62	13104.66
479.80	13001.68
479.98	13074.23
480.16	13469.78
480.34	13465.10
480.52	13467.44
480.70	13715.54
480.88	13448.72
481.06	13748.31
481.24	14038.53
481.41	13830.23
481.59	14202.37
481.77	14445.79
481.95	14127.47
482.13	14420.04
482.31	14473.87
482.49	14878.79
482.67	14810.91
482.85	15098.80
483.03	15082.41
483.21	15463.92
483.39	15201.78
483.57	15372.64
483.74	15337.53
483.92	15335.19
484.10	15213.48
484.28	15702.65
484.46	15613.71
484.64	16201.19
484.82	15943.73
485.00	16133.31
485.18	16360.34
485.35	16308.85
485.53	16051.39
485.71	16355.66
485.89	16383.75
486.07	16404.81
486.25	16367.37
486.43	16641.21
486.61	16924.41
486.78	17259.11
486.96	17287.20
487.14	17521.25
487.32	17273.15
487.50	17759.98
487.68	17781.05
487.85	18150.85
488.03	18223.41
488.21	18597.90
488.39	18366.18
488.57	18279.58
488.75	18670.45
488.92	18993.45
489.10	19403.04
489.28	19096.43
489.46	19611.35
489.64	19601.99
489.81	19962.43
489.99	20049.03
490.17	20044.35
490.35	19955.41
490.53	19882.85
490.70	20217.55
490.88	20430.54
491.06	21008.65
491.24	20456.28
491.41	20746.51
491.59	20657.57
491.77	20851.83
491.95	20884.60
492.13	21153.76
492.30	21659.32
492.48	21713.15
492.66	21853.58
492.84	21530.59
493.01	22001.04
493.19	21891.03
493.37	22263.18
493.54	22319.35
493.72	22551.06
493.90	22359.14
494.08	22738.30
494.25	23112.79
494.43	22836.61
494.61	23150.24
494.79	23187.69
494.96	23344.50
495.14	23190.03
495.32	23592.60
495.49	23377.27
495.67	23889.85
495.85	23798.57
496.02	24081.77
496.20	24144.97
496.38	24482.00
496.55	24416.47
496.73	24910.32
496.91	24343.91
497.09	24690.31
497.26	24931.39
497.44	24592.01
497.62	24999.26
497.79	25355.02
497.97	25172.46
498.14	25291.83
498.32	25869.94
498.50	25563.33
498.67	25666.31
498.85	25909.73
499.03	26305.28
499.20	25982.29
499.38	26277.19
499.56	26176.55
499.73	26398.90
499.91	26324.01
500.08	26171.87
500.26	26249.11
500.44	26712.53
500.61	26504.23
500.79	26434.01
500.97	26565.08
501.14	27143.19
501.32	27271.92
501.49	27082.34
501.67	26991.06
501.84	27037.87
502.02	27257.88
502.20	27379.59
502.37	27522.36
502.55	27412.35
502.72	27929.61
502.90	27889.82
503.07	28072.39
503.25	27943.66
503.43	27770.46
503.60	28177.71
503.78	27927.27
503.95	28463.25
504.13	28222.18
504.30	28968.81
504.48	28226.86
504.65	28631.77
504.83	28973.49
505.01	29118.60
505.18	28933.70
505.36	29483.73
505.53	29233.29
505.71	29383.09
505.88	29694.38
506.06	29160.73
506.23	29401.81
506.41	29343.30
506.58	29500.11
506.76	29649.91
506.93	29855.87
507.11	29376.06
507.28	29844.17
507.46	29769.27
507.63	29759.91
507.81	30354.41
507.98	29848.85
508.16	30403.56
508.33	30401.22
508.50	30831.88
508.68	30820.17
508.85	31019.12
509.03	31075.29
509.20	31058.91
509.38	31421.69
509.55	31468.50
509.73	31016.78
509.90	31388.92
510.08	31264.88
510.25	31690.85
510.42	31454.46
510.60	31484.89
510.77	31480.21
510.95	32039.59
511.12	31571.49
511.30	31796.18
511.47	32416.42
511.64	32116.83
511.82	31969.38
511.99	31955.33
512.17	32194.07
512.34	32549.83
512.51	32514.72
512.69	32744.09
512.86	32826.01
513.04	32914.95
513.21	32636.43
513.38	32790.91
513.56	32790.91
513.73	32673.88
513.90	32730.05
514.08	32678.56
514.25	33034.32
514.43	33120.92
514.60	33085.81
514.77	33120.92
514.95	33324.55
515.12	33158.37
515.29	33350.29
515.47	33928.41
515.64	34068.84
515.81	33649.88
515.99	33600.73
516.16	33736.48
516.33	33659.24
516.51	33830.10
516.68	33434.55
516.85	33516.47
517.03	33713.08
517.20	33865.21
517.37	34068.84
517.54	34396.51
517.72	34115.65
517.89	33972.88
518.06	34340.34
518.24	34183.52
518.41	34270.12
518.58	34206.93
518.75	34597.80
518.93	34918.45
519.10	34515.88
519.27	34899.73
519.45	34930.16
519.62	35653.38
519.79	34967.60
519.96	35503.59
520.14	35428.69
520.31	34778.02
520.48	35763.39
520.65	35227.40
520.83	35880.41
521.00	36308.73
521.17	35831.26
521.34	35941.27
521.52	36304.05
521.69	36294.69
521.86	36011.48
522.03	36175.32
522.20	36362.56
522.38	36282.98
522.55	36549.81
522.72	35887.43
522.89	36196.38
523.07	36622.36
523.24	36538.10
523.41	36737.05
523.58	36346.18
523.75	37221.54
523.92	37017.91
524.10	37446.23
524.27	37106.85
524.44	37387.72
524.61	37551.56
524.78	37380.70
524.96	37570.28
525.13	37270.69
525.30	37596.03
525.47	37759.86
525.64	38024.34
525.81	37324.52
525.98	37710.71
526.16	37200.47
526.33	37326.86
526.50	37511.77
526.67	37364.31
526.84	37579.64
527.01	37523.47
527.18	37511.77
527.36	38359.04
527.53	38333.29
527.70	38321.59
527.87	38384.79
528.04	38286.48
528.21	38216.27
528.38	38761.61
528.55	38801.40
528.72	38494.79
528.89	38574.37
529.07	38644.59
529.24	38696.08
529.41	38665.65
529.58	38995.67
529.75	38787.36
529.92	38859.91
530.09	39229.72
530.26	39115.03
530.43	39555.05
530.60	39033.11
530.77	39084.61
530.94	39442.71
531.11	39292.91
531.28	39489.52
531.46	39180.57
531.63	39625.27
531.80	39571.44
531.97	39721.23
532.14	39445.05
532.31	39428.66
532.48	39966.99
532.65	39510.58
532.82	39613.57
532.99	39761.02
533.16	39728.25
533.33	39950.60
533.50	40154.23
533.67	40437.44
533.84	39941.24
534.01	40067.63
534.18	39950.60
534.35	40514.67
534.52	40470.20
534.69	40835.33
534.86	40598.93
535.03	40250.19
535.20	40734.68
535.37	40627.02
535.54	40947.67
535.71	40364.88
535.88	40935.97
536.05	40734.68
536.22	41422.80
536.38	40844.69
536.55	40732.34
536.72	40526.38
536.89	40594.25
537.06	40891.50
537.23	41436.84
537.40	40879.80
537.57	40978.10
537.74	41102.15
537.91	41378.33
538.08	41401.74
538.25	41354.93
538.42	41191.09
538.59	40975.76
538.75	41209.81
538.92	41467.27
539.09	41567.91
539.26	41734.09
539.43	41661.54
539.60	41265.99
539.77	41378.33
539.94	41691.96
540.11	41453.23
540.28	41195.77
540.44	41532.81
540.61	41977.51
540.78	41581.96
540.95	41816.01
541.12	41237.90
541.29	41581.96
541.46	41823.03
541.62	42246.67
541.79	41764.52
541.96	41666.22
542.13	41890.91
542.30	41930.70
542.47	41607.70
542.63	41930.70
542.80	42710.10
542.97	42403.49
543.14	42532.22
543.31	42452.64
543.48	42625.84
543.64	43051.81
543.81	43093.94
543.98	42885.64
544.15	42550.94
544.32	42726.48
544.48	43241.40
544.65	42759.25
544.82	42972.24
544.99	42391.78
545.16	42562.64
545.32	43250.76
545.49	43328.00
545.66	43239.06
545.83	43379.49
546.00	43063.52
546.16	43068.20
546.33	43225.01
546.50	42979.26
546.67	43646.31
546.83	43021.39
547.00	43468.43
547.17	43480.13
547.34	43203.95
547.50	43711.84
547.67	43274.16
547.84	43658.01
548.00	43777.38
548.17	43793.76
548.34	43414.60
548.51	43662.69
548.67	44055.90
548.84	44208.04
549.01	44191.65
549.18	43744.61
549.34	43686.10
549.51	43894.41
549.68	43777.38
549.84	44027.82
550.01	43737.59
550.18	43894.41
550.34	43880.36
550.51	44179.95
550.68	44282.94
550.84	43730.57
551.01	44210.38
551.18	44030.16
551.34	44161.23
551.51	44491.24
551.68	44355.49
551.84	44390.60
552.01	43861.64
552.18	44514.65
552.34	44362.51
552.51	44610.61
552.68	44327.41
552.84	44933.60
553.01	44568.48
553.18	44732.32
553.34	44608.27
553.51	44196.34
553.67	44875.09
553.84	45254.26
554.01	44924.24
554.17	44722.96
554.34	44720.62
554.51	44933.60
554.67	44964.03
554.84	44933.60
555.00	44919.56
555.17	45139.57
555.33	44652.74
555.50	44964.03
555.67	45333.84
555.83	44575.50
556.00	45226.17
556.16	45427.46
556.33	45081.06
556.50	44868.07
556.66	45584.27
556.83	44786.15
556.99	45165.32
557.16	45720.02
557.32	44914.88
557.49	45102.12
557.65	44725.30
557.82	44868.07
557.98	44879.77
558.15	45291.71
558.32	45326.81
558.48	45120.85
558.65	45567.89
558.81	45237.87
558.98	45305.75
559.14	45118.51
559.31	45048.29
559.47	44971.05
559.64	45343.20
559.80	45570.23
559.97	45408.73
560.13	45202.77
560.30	45434.48
560.46	45308.09
560.63	45715.34
560.79	45607.68
560.96	45935.35
561.12	45614.70
561.29	45787.90
561.45	45785.56
561.61	45586.61
561.78	45556.19
561.94	45382.99
562.11	45539.80
562.27	45301.07
562.44	45326.81
562.60	45738.75
562.77	45755.13
562.93	46220.90
563.10	46244.30
563.26	45570.23
563.42	45801.94
563.59	45565.55
563.75	45368.94
563.92	46005.57
564.08	45684.92
564.24	45998.55
564.41	45801.94
564.57	45806.62
564.74	45724.71
564.90	45497.67
565.07	45914.29
565.23	45907.27
565.39	45539.80
565.56	45490.65
565.72	45375.97
565.88	45748.11
566.05	45916.63
566.21	45380.65
566.38	45783.22
566.54	45401.71
566.70	46251.33
566.87	46190.47
567.03	46237.28
567.19	46293.46
567.36	46078.13
567.52	46209.20
567.68	46075.79
567.85	45846.41
568.01	46019.61
568.17	45902.59
568.34	46291.12
568.50	45935.35
568.66	45947.06
568.83	46068.76
568.99	45958.76
569.15	46153.02
569.32	45832.37
569.48	45734.07
569.64	46417.50
569.81	46340.27
569.97	46057.06
570.13	46199.83
570.30	45455.54
570.46	45947.06
570.62	45514.06
570.78	45570.23
570.95	46036.00
571.11	46265.37
571.27	45612.36
571.43	46248.99
571.60	46253.67
571.76	46028.98
571.92	46150.68
572.09	46045.36
572.25	46064.08
572.41	45979.82
572.57	46120.26
572.74	46656.24
572.90	46366.01
573.06	45818.33
573.22	46515.81
573.38	46115.58
573.55	46164.73
573.71	46059.40
573.87	45909.61
574.03	45823.01
574.20	46557.94
574.36	46113.23
574.52	46199.83
574.68	46354.31
574.84	46632.83
575.01	46328.56
575.17	46012.59
575.33	45975.14
575.49	46216.22
575.65	46040.68
575.82	46529.85
575.98	46344.95
576.14	46611.77
576.30	46546.23
576.46	46066.42
576.62	46188.13
576.79	46403.46
576.95	45942.38
577.11	46134.30
577.27	46241.96
577.43	46209.20
577.59	46525.17
577.75	46450.27
577.92	45696.62
578.08	45574.91
578.24	45837.05
578.40	46681.98
578.56	46230.26
578.72	46461.97
578.88	46831.78
579.04	46562.62
579.21	46174.09
579.37	46277.07
579.53	46232.60
579.69	46073.45
579.85	46363.67
580.01	46333.24
580.17	46639.86
580.33	46674.96
580.49	46319.20
580.65	46220.90
580.82	46396.44
580.98	46108.55
581.14	46024.29
581.30	46567.30
581.46	46284.09
581.62	46586.02
581.78	46532.19
581.94	46651.56
582.10	46789.65
582.26	46894.97
582.42	46557.94
582.58	46342.61
582.74	46312.18
582.90	46323.88
583.06	46906.68
583.22	46639.86
583.38	46775.61
583.54	46724.11
583.70	46745.18
583.86	46649.22
584.02	46728.80
584.18	46951.15
584.34	46361.33
584.50	46569.64
584.66	46335.59
584.82	46546.23
584.98	46735.82
585.14	46485.38
585.30	46562.62
585.46	46340.27
585.62	46459.63
585.78	46691.35
585.94	45696.62
586.10	46480.70
586.26	46361.33
586.42	46738.16
586.58	46761.56
586.74	46724.11
586.90	46469.00
587.06	46382.40
587.22	46916.04
587.38	46391.76
587.54	46703.05
587.70	46380.06
587.86	46225.58
588.02	46693.69
588.18	46560.28
588.34	46241.96
588.49	46026.63
588.65	45935.35
588.81	45911.95
588.97	46188.13
589.13	45558.53
589.29	46106.21
589.45	46298.14
589.61	46401.12
589.77	46670.28
589.93	46632.83
590.08	46693.69
590.24	46564.96
590.40	46199.83
590.56	46651.56
590.72	46300.48
590.88	46775.61
591.04	46698.37
591.20	47098.60
591.35	46801.35
591.51	47023.70
591.67	46333.24
591.83	46574.32
591.99	46375.37
592.15	46281.75
592.31	46892.63
592.46	46333.24
592.62	46731.14
592.78	46845.82
592.94	46913.70
593.10	46476.02
593.26	46670.28
593.41	46494.74
593.57	46401.12
593.73	46300.48
593.89	46782.63
594.05	46387.08
594.20	46361.33
594.36	46841.14
594.52	46700.71
594.68	46323.88
594.84	46731.14
594.99	46768.58
595.15	46810.71
595.31	46789.65
595.47	46454.95
595.62	46712.41
595.78	46990.94
595.94	46660.92
596.10	46539.21
596.25	47000.30
596.41	46871.57
596.57	46567.30
596.73	46686.67
596.88	46370.69
597.04	46862.21
597.20	46717.09
597.36	46749.86
597.51	46843.48
597.67	46696.03
597.83	46869.23
597.99	46710.07
598.14	46852.84
598.30	46941.78
598.46	46857.52
598.61	46899.65
598.77	46618.79
598.93	47058.81
599.09	46490.06
599.24	46918.38
599.40	47182.86
599.56	46944.12
599.71	46845.82
599.87	47051.79
600.03	46459.63
600.18	46993.28
600.34	46887.95
600.50	46398.78
600.65	46508.79
600.81	46419.84
600.97	47012.00
601.12	46878.59
601.28	46511.13
601.44	46766.24
601.59	46417.50
601.75	46635.17
601.91	46829.44
602.06	46387.08
602.22	46630.49
602.37	46698.37
602.53	46520.49
602.69	47107.96
602.84	46733.48
603.00	46433.89
603.16	46689.01
603.31	46777.95
603.47	46754.54
603.62	46202.18
603.78	46581.34
603.94	46469.00
604.09	46923.06
604.25	46487.72
604.40	46745.18
604.56	47026.04
604.71	46717.09
604.87	46583.68
605.03	47140.73
605.18	46930.08
605.34	46951.15
605.49	46597.73
605.65	46766.24
605.80	46204.52
605.96	46485.38
606.12	46476.02
606.27	46756.88
606.43	46153.02
606.58	46616.45
606.74	45993.87
606.89	46204.52
607.05	46347.29
607.20	46714.75
607.36	46515.81
607.51	46726.46
607.67	46581.34
607.82	46522.83
607.98	46227.92
608.13	46122.60
608.29	45897.91
608.44	46043.02
608.60	45911.95
608.75	45813.65
608.91	45914.29
609.06	45982.16
609.22	45949.40
609.37	45942.38
609.53	46028.98
609.68	46546.23
609.84	46148.34
609.99	45956.42
610.15	45911.95
610.30	46157.70
610.46	45914.29
610.61	45811.31
610.76	46155.36
610.92	46071.10
611.07	45951.74
611.23	46157.70
611.38	46464.32
611.54	45818.33
611.69	45408.73
611.84	45656.83
612.00	45787.90
612.15	45949.40
612.31	45666.19
612.46	46167.07
612.62	46000.89
612.77	45336.18
612.92	46050.04
613.08	46085.15
613.23	45621.72
613.39	46213.88
613.54	45673.21
613.69	45413.41
613.85	45448.52
614.00	45911.95
614.15	45708.32
614.31	45773.86
614.46	46099.19
614.62	45605.34
614.77	45610.02
614.92	45485.97
615.08	45769.18
615.23	45397.03
615.38	45092.76
615.54	45361.92
615.69	45401.71
615.84	45305.75
616.00	44914.88
616.15	45282.34
616.30	45310.43
616.46	45067.02
616.61	45022.54
616.76	45272.98
616.92	44680.83
617.07	45067.02
617.22	45020.20
617.37	44711.25
617.53	45111.49
617.68	45186.38
617.83	45141.91
617.99	45130.21
618.14	44861.05
618.29	45249.58
618.45	44849.35
618.60	45048.29
618.75	45291.71
618.90	45001.48
619.06	45174.68
619.21	45209.79
619.36	45375.97
619.51	45097.44
619.67	44713.59
619.82	44509.97
619.97	44861.05
620.12	44142.50
620.28	44528.69
620.43	44847.00
620.58	44954.67
620.73	44547.42
620.89	44624.65
621.04	45041.27
621.19	44502.95
621.34	44161.23
621.49	44507.63
621.65	45111.49
621.80	44552.10
621.95	44114.42
622.10	44509.97
622.25	44329.75
622.41	44402.30
622.56	43978.67
622.71	44201.02
622.86	44313.36
623.01	44086.33
623.16	44519.33
623.32	44112.08
623.47	44229.10
623.62	44442.09
623.77	44247.83
623.92	44388.26
624.07	43896.75
624.23	44069.95
624.38	43906.11
624.53	43618.22
624.68	44596.57
624.83	43847.60
624.98	43765.68
625.13	43744.61
625.29	44217.40
625.44	43913.13
625.59	43683.76
625.74	43330.34
625.89	43304.59
626.04	43643.97
626.19	43632.27
626.34	43548.01
626.49	43990.37
626.65	43636.95
626.80	43140.75
626.95	43433.32
627.10	43103.31
627.25	43026.07
627.40	43206.29
627.55	42862.23
627.70	42885.64
627.85	43049.47
628.00	42871.59
628.15	42810.74
628.30	43213.31
628.45	43243.74
628.60	42792.01
628.76	43592.48
628.91	43283.53
629.06	43487.15
629.21	42827.12
629.36	43044.79
629.51	43129.05
629.66	42993.30
629.81	42445.62
629.96	42225.60
630.11	43311.61
630.26	42923.08
630.41	43335.02
630.56	42637.54
630.71	42644.56
630.86	43044.79
631.01	42801.38
631.16	42932.45
631.31	42604.77
631.46	42312.20
631.61	42834.14
631.76	42658.60
631.91	42445.62
632.06	42431.57
632.21	42499.45
632.36	43115.01
632.51	42562.64
632.66	42686.69
632.81	41942.40
632.96	42391.78
633.10	42295.82
633.25	42174.11
633.40	42265.39
633.55	42251.35
633.70	42391.78
633.85	42136.66
634.00	42040.70
634.15	42359.02
634.30	42127.30
634.45	42246.67
634.60	41928.36
634.75	42497.11
634.90	42012.62
635.05	41947.08
635.19	41944.74
635.34	42094.53
635.49	42319.23
635.64	41858.14
635.79	42108.58
635.94	42012.62
636.09	42232.63
636.24	41654.51
636.39	41418.12
636.53	41560.89
636.68	41289.39
636.83	41769.20
636.98	41612.38
637.13	41633.45
637.28	41603.02
637.43	41947.08
637.57	42227.95
637.72	41565.57
637.87	41860.48
638.02	41727.07
638.17	41434.50
638.32	41387.69
638.46	41336.20
638.61	41029.59
638.76	41308.11
638.91	41280.03
639.06	41226.20
639.20	41518.76
639.35	41603.02
639.50	41296.41
639.65	41446.21
639.80	41656.85
639.94	41273.01
640.09	41277.69
640.24	41301.09
640.39	41071.72
640.54	40701.92
640.68	41177.04
640.83	41038.95
640.98	40818.94
641.13	40959.38
641.27	41420.46
641.42	40879.80
641.57	40685.53
641.72	41060.02
641.86	40568.51
642.01	40636.38
642.16	40404.67
642.31	40334.45
642.45	40701.92
642.60	40402.33
642.75	40631.70
642.90	40638.72
643.04	40872.78
643.19	40863.41
643.34	40512.33
643.48	40509.99
643.63	40367.22
643.78	40407.01
643.93	40285.30
644.07	40472.54
644.22	40755.75
644.37	39945.92
644.51	40240.83
644.66	40414.03
644.81	40509.99
644.95	40624.68
645.10	40301.68
645.25	40521.69
645.39	40444.46
645.54	40484.25
645.69	39835.92
645.83	39997.41
645.98	40196.36
646.13	40240.83
646.27	39990.39
646.42	40121.46
646.57	40002.10
646.71	40187.00
646.86	39634.63
647.00	39714.21
647.15	39828.90
647.30	40112.10
647.44	39725.91
647.59	39255.46
647.74	39711.87
647.88	39927.20
648.03	39665.06
648.17	39643.99
648.32	39196.95
648.47	39929.54
648.61	39349.09
648.76	39674.42
648.90	39765.70
649.05	39508.24
649.20	39473.13
649.34	39714.21
649.49	39089.29
649.63	39470.79
649.78	39342.06
649.92	39126.74
650.07	39732.93
650.21	39868.69
650.36	39278.87
650.51	39431.01
650.65	39159.50
650.80	39636.97
650.94	39475.48
651.09	39594.84
651.23	39115.03
651.38	39222.70
651.52	38948.85
651.67	38806.08
651.81	39131.42
651.96	38902.04
652.10	38955.88
652.25	38834.17
652.39	39152.48
652.54	39456.75
652.68	39309.30
652.83	39150.14
652.97	39119.71
653.12	39157.16
653.26	38939.49
653.41	39246.10
653.55	38951.20
653.70	38279.46
653.84	38962.90
653.99	38707.78
654.13	38843.53
654.27	38628.20
654.42	38183.50
654.56	38401.17
654.71	38483.09
654.85	38377.76
655.00	38417.55
655.14	38403.51
655.29	37921.36
655.43	38347.34
655.57	38012.64
655.72	38096.90
655.86	38059.45
656.01	37673.26
656.15	37483.68
656.30	37528.15
656.44	37462.61
656.58	37720.07
656.73	38040.73
656.87	37844.12
657.01	37830.08
657.16	37958.81
657.30	37551.56
657.45	38071.15
657.59	37790.29
657.73	37336.23
657.88	37605.39
658.02	37427.51
658.16	37654.54
658.31	37787.95
658.45	37783.27
658.60	37462.61
658.74	37865.19
658.88	37670.92
659.03	37680.28
659.17	37317.50
659.31	37418.14
659.46	37361.97
659.60	37921.36
659.74	37242.60
659.89	36900.89
660.03	37102.17
660.17	37247.29
660.32	37017.91
660.46	37415.80
660.60	37055.36
660.74	37198.13
660.89	37022.59
661.03	36891.52
661.17	36938.33
661.32	36690.24
661.46	36758.11
661.60	36765.14
661.74	36575.55
661.89	36776.84
662.03	36842.37
662.17	36285.33
662.31	36322.77
662.46	36945.36
662.60	36945.36
662.74	36538.10
662.88	36746.41
663.03	36418.74
663.17	36219.79
663.31	36158.94
663.45	35735.30
663.60	36339.16
663.74	35997.44
663.88	36318.09
664.02	35714.23
664.17	36187.02
664.31	35328.05
664.45	36161.28
664.59	35807.86
664.73	35651.04
664.88	35725.94
665.02	35105.70
665.16	35199.32
665.30	35562.10
665.44	35704.87
665.59	35379.54
665.73	35330.39
665.87	34822.49
666.01	35344.43
666.15	35290.60
666.29	35234.42
666.44	34948.88
666.58	35117.40
666.72	34689.08
666.86	35126.76
667.00	35035.48
667.14	34930.16
667.28	35161.87
667.43	34768.66
667.57	34574.39
667.71	34338.00
667.85	34536.94
667.99	34462.05
668.13	34361.40
668.27	34632.91
668.41	34618.86
668.56	33923.72
668.70	34588.44
668.84	34298.21
668.98	33935.43
669.12	34263.10
669.26	34277.15
669.40	33830.10
669.54	33930.75
669.68	34267.78
669.82	34139.05
669.96	33593.71
670.10	33099.86
670.25	33745.84
670.39	33900.32
670.53	33780.95
670.67	33366.68
670.81	33755.21
670.95	33467.32
671.09	33364.34
671.23	33369.02
671.37	32926.66
671.51	33184.12
671.65	33034.32
671.79	33141.99
671.93	32856.44
672.07	32840.06
672.21	33123.26
672.35	32603.66
672.49	33039.00
672.63	33008.58
672.77	32297.05
672.91	32699.62
673.05	32037.25
673.19	32428.12
673.33	32348.54
673.47	32266.63
673.61	32086.40
673.75	31810.22
673.89	31732.98
674.03	31777.45
674.17	31356.16
674.31	31995.12
674.45	31550.42
674.59	31608.93
674.73	31803.20
674.87	31730.64
675.01	31363.18
675.15	31220.41
675.29	31751.71
675.43	31772.77
675.56	31524.68
675.70	31370.20
675.84	30937.20
675.98	29991.62
676.12	30876.35
676.26	30787.41
676.40	30155.46
676.54	30654.00
676.68	30691.44
676.82	29923.75
676.96	30410.58
677.10	30185.89
677.23	30429.30
677.37	30085.25
677.51	30279.51
677.65	30092.27
677.79	29521.18
677.93	29844.17
678.07	29535.22
678.21	29399.47
678.34	29507.13
678.48	29567.99
678.62	29399.47
678.76	29371.38
678.90	29207.55
679.04	28797.95
679.18	29453.30
679.31	28500.70
679.45	28325.16
679.59	28343.89
679.73	28374.31
679.87	28423.47
680.00	28496.02
680.14	28334.53
680.28	28016.21
680.42	28072.39
680.56	28128.56
680.70	28105.15
680.83	28191.75
680.97	28126.22
681.11	27702.58
681.25	27419.38
681.39	27765.78
681.52	27826.63
681.66	27482.57
681.80	27173.62
681.94	27101.06
682.07	27009.78
682.21	26927.86
682.35	26747.64
682.49	26714.87
682.62	27012.12
682.76	26742.96
682.90	26548.70
683.04	26761.69
683.17	26635.30
683.31	26518.27
683.45	26518.27
683.59	26174.21
683.72	25935.48
683.86	26033.78
684.00	25631.21
684.13	26096.97
684.27	25928.45
684.41	25663.97
684.55	25626.53
684.68	25221.61
684.82	25315.23
684.96	25713.13
685.09	25158.42
685.23	25186.50
685.37	25055.43
685.50	25036.71
685.64	24561.58
685.78	24989.90
685.91	24856.49
686.05	24772.23
686.19	24781.59
686.32	24666.91
686.46	24166.03
686.60	24250.29
686.73	24144.97
686.87	23892.19
687.01	23861.76
687.14	23566.85
687.28	23152.58
687.42	23381.95
687.55	23412.38
687.69	23379.61
687.82	23367.91
687.96	23257.90
688.10	22946.61
688.23	23288.33
688.37	23012.15
688.50	22693.83
688.64	22834.27
688.78	22902.14
688.91	22731.28
689.05	22773.41
689.18	22434.03
689.32	22522.98
689.46	22265.52
689.59	22476.16
689.73	22192.96
689.86	22242.11
690.00	22176.58
690.13	22530.00
690.27	22001.04
690.41	21958.91
690.54	21537.61
690.68	21385.47
690.81	21448.67
690.95	21135.04
691.08	21329.30
691.22	21116.31
691.35	21298.88
691.49	21563.36
691.62	21284.83
691.76	21350.37
691.89	21053.12
692.03	20940.77
692.16	20943.11
692.30	20821.41
692.43	20512.46
692.57	20491.39
692.70	20629.48
692.84	20556.93
692.97	19924.98
693.11	20093.50
693.24	19866.47
693.38	20114.56
693.51	20182.44
693.65	19609.01
693.78	20046.69
693.92	19765.82
694.05	19943.70
694.19	20121.59
694.32	19789.23
694.45	19709.65
694.59	19335.17
694.72	19197.07
694.86	19307.08
694.99	19204.10
695.13	19410.06
695.26	18838.97
695.39	19126.86
695.53	18934.93
695.66	18583.85
695.80	18597.90
695.93	18838.97
696.07	18848.33
696.20	18670.45
696.33	18412.99
696.47	18724.29
696.60	18291.29
696.73	18347.46
696.87	18003.40
697.00	18178.94
697.14	17977.65
697.27	17689.77
697.40	18036.17
697.54	17834.88
697.67	17411.25
697.80	17551.68
697.94	17509.55
698.07	17486.14
698.21	17570.40
698.34	17694.45
698.47	17575.08
698.61	16683.34
698.74	16950.16
698.87	16755.90
699.01	17114.00
699.14	16592.06
699.27	16617.80
699.40	16734.83
699.54	16751.21
699.67	16142.67
699.80	16299.49
699.94	16641.21
700.07	16652.91
700.20	16217.57
700.34	16259.70
700.47	16285.45
700.60	16152.04
700.73	16140.33
700.87	16175.44
701.00	15758.83
701.13	15770.53
701.26	16081.82
701.40	15641.80
701.53	15410.09
701.66	15510.73
701.79	15517.75
701.93	15489.67
702.06	15300.08
702.19	15342.21
702.32	15108.16
702.46	15194.76
702.59	15171.35
702.72	15096.46
702.85	15201.78
702.99	14970.07
703.12	14806.23
703.25	14944.32
703.38	14799.21
703.51	14661.12
703.65	14796.87
703.78	14649.41
703.91	14494.94
704.04	14609.62
704.17	14277.27
704.31	14239.82
704.44	14052.58
704.57	14003.43
704.70	14099.39
704.83	13989.38
704.96	14129.81
705.10	13977.68
705.23	14274.93
>>>>>End Processed Spectral Data<<<<<
