SpectraSuite Data File
++++++++++++++++++++++++++++++++++++
Date: Fri Oct 25 10:47:39 EDT 2013
User: price-jones
Dark Spectrum Present: No
Reference Spectrum Present: No
Number of Sampled Component Spectra: 1
Spectrometers: USB2+H05261
Integration Time (usec): 100000 (USB2+H05261)
Spectra Averaged: 1 (USB2+H05261)
Boxcar Smoothing: 0 (USB2+H05261)
Correct for Electrical Dark: No (USB2+H05261)
Strobe/Lamp Enabled: No (USB2+H05261)
Correct for Detector Non-linearity: No (USB2+H05261)
Correct for Stray Light: No (USB2+H05261)
Number of Pixels in Processed Spectrum: 2048
>>>>>Begin Processed Spectral Data<<<<<
365.73	163.84
365.92	163.84
366.12	163.84
366.32	110.01
366.52	2.34
366.72	42.13
366.91	0.00
367.11	49.15
367.31	74.90
367.51	51.49
367.70	72.56
367.90	23.41
368.10	53.83
368.30	4.68
368.49	0.00
368.69	65.54
368.89	39.79
369.09	102.98
369.28	51.49
369.48	18.72
369.68	124.05
369.87	147.45
370.07	191.92
370.27	51.49
370.47	205.97
370.66	344.06
370.86	386.19
371.06	484.49
371.25	423.64
371.45	475.13
371.65	435.34
371.84	395.55
372.04	479.81
372.24	477.47
372.44	458.74
372.63	557.05
372.83	540.66
373.03	505.56
373.22	397.89
373.42	423.64
373.62	568.75
373.81	465.77
374.01	571.09
374.21	596.84
374.40	550.03
374.60	608.54
374.79	550.03
374.99	526.62
375.19	585.13
375.38	603.86
375.58	603.86
375.78	510.24
375.97	599.18
376.17	641.31
376.37	571.09
376.56	634.29
376.76	463.43
376.95	655.35
377.15	568.75
377.35	667.05
377.54	599.18
377.74	660.03
377.93	683.44
378.13	596.84
378.33	629.60
378.52	596.84
378.72	617.90
378.91	713.86
379.11	690.46
379.31	636.63
379.50	641.31
379.70	657.69
379.89	662.37
380.09	678.76
380.28	669.39
380.48	683.44
380.68	641.31
380.87	655.35
381.07	657.69
381.26	732.59
381.46	699.82
381.65	676.41
381.85	568.75
382.04	655.35
382.24	713.86
382.43	631.94
382.63	695.14
382.83	662.37
383.02	716.20
383.22	704.50
383.41	678.76
383.61	699.82
383.80	746.63
384.00	755.99
384.19	772.38
384.39	765.36
384.58	753.65
384.78	781.74
384.97	781.74
385.17	734.93
385.36	716.20
385.56	882.38
385.75	765.36
385.95	833.23
386.14	758.33
386.34	772.38
386.53	809.83
386.72	842.59
386.92	795.78
387.11	854.30
387.31	847.27
387.50	861.32
387.70	784.08
387.89	875.36
388.09	875.36
388.28	873.02
388.48	842.59
388.67	933.87
388.86	901.11
389.06	898.77
389.25	833.23
389.45	929.19
389.64	894.08
389.84	873.02
390.03	1036.86
390.22	1039.20
390.42	1029.84
390.61	940.90
390.81	1001.75
391.00	954.94
391.19	1015.79
391.39	985.37
391.58	901.11
391.78	938.55
391.97	1011.11
392.16	936.21
392.36	1027.50
392.55	945.58
392.75	1020.47
392.94	983.02
393.13	1011.11
393.33	964.30
393.52	1034.52
393.71	997.07
393.91	1001.75
394.10	1013.45
394.29	1029.84
394.49	1062.60
394.68	1069.62
394.88	1086.01
395.07	1207.72
395.26	1135.16
395.46	1179.63
395.65	1228.78
395.84	1088.35
396.04	1191.33
396.23	1102.39
396.42	1172.61
396.62	1151.54
396.81	1135.16
397.00	1181.97
397.19	1132.82
397.39	1277.93
397.58	1238.14
397.77	1235.80
397.97	1324.74
398.16	1268.57
398.35	1263.89
398.55	1306.02
398.74	1287.29
398.93	1387.94
399.12	1401.98
399.32	1266.23
399.51	1310.70
399.70	1392.62
399.90	1385.60
400.09	1315.38
400.28	1472.20
400.47	1392.62
400.67	1600.93
400.86	1493.26
401.05	1460.49
401.24	1526.03
401.44	1483.90
401.63	1507.30
401.82	1565.82
402.01	1432.41
402.21	1584.54
402.40	1458.15
402.59	1570.50
402.78	1519.01
402.97	1699.23
403.17	1720.29
403.36	1629.01
403.55	1584.54
403.74	1657.10
403.93	1799.87
404.13	1736.68
404.32	1736.68
404.51	1671.14
404.70	1809.23
404.89	1685.19
405.09	1792.85
405.28	1746.04
405.47	1771.79
405.66	1802.21
405.85	1881.79
406.05	1792.85
406.24	1732.00
406.43	1771.79
406.62	1734.34
406.81	1867.75
407.00	1937.96
407.20	1830.30
407.39	1926.26
407.58	2012.86
407.77	1959.03
407.96	2022.22
408.15	1984.77
408.34	2050.31
408.54	2050.31
408.73	2045.63
408.92	2078.40
409.11	2104.14
409.30	2099.46
409.49	2179.04
409.68	2148.61
409.87	2090.10
410.07	2155.63
410.26	2113.50
410.45	2249.25
410.64	2087.76
410.83	2258.62
411.02	2277.34
411.21	2328.83
411.40	2366.28
411.59	2338.20
411.78	2396.71
411.98	2296.07
412.17	2359.26
412.36	2270.32
412.55	2375.64
412.74	2413.09
412.93	2471.61
413.12	2548.84
413.31	2593.31
413.50	2469.27
413.69	2628.42
413.88	2696.30
414.07	2586.29
414.26	2668.21
414.45	2621.40
414.64	2733.75
414.83	2630.76
415.02	2750.13
415.22	2846.09
415.41	2794.60
415.60	2834.39
415.79	2909.29
415.98	2895.24
416.17	2923.33
416.36	2923.33
416.55	3016.95
416.74	2984.18
416.93	2998.23
417.12	3023.97
417.31	2946.73
417.50	3075.46
417.69	3234.62
417.88	3141.00
418.07	3052.06
418.26	3164.40
418.45	3143.34
418.64	3288.45
418.83	3166.74
419.02	3169.09
419.21	3281.43
419.39	3206.53
419.58	3199.51
419.77	3274.41
419.96	3342.28
420.15	3363.35
420.34	3286.11
420.53	3412.50
420.72	3417.18
420.91	3459.31
421.10	3424.20
421.29	3487.40
421.48	3393.78
421.67	3513.14
421.86	3445.27
422.05	3478.04
422.24	3508.46
422.43	3485.06
422.61	3489.74
422.80	3503.78
422.99	3595.06
423.18	3529.53
423.37	3545.91
423.56	3611.45
423.75	3468.67
423.94	3527.19
424.13	3487.40
424.32	3391.44
424.50	3611.45
424.69	3662.94
424.88	3705.07
425.07	3597.40
425.26	3590.38
425.45	3672.30
425.64	3658.26
425.83	3527.19
426.01	3637.19
426.20	3545.91
426.39	3644.21
426.58	3630.17
426.77	3684.00
426.96	3712.09
427.15	3702.73
427.33	3611.45
427.52	3707.41
427.71	3763.58
427.90	3763.58
428.09	3742.52
428.28	3805.71
428.46	3784.65
428.65	3871.25
428.84	3822.09
429.03	3922.74
429.22	3632.51
429.40	3784.65
429.59	3833.80
429.78	3625.49
429.97	3623.15
430.16	3786.99
430.34	3836.14
430.53	3948.48
430.72	3878.27
430.91	4004.66
431.10	3992.95
431.28	4201.26
431.47	4219.99
431.66	4290.20
431.85	4077.21
432.03	4105.30
432.22	4245.73
432.41	4135.73
432.60	4227.01
432.79	4337.01
432.97	4498.51
433.16	4248.07
433.35	4234.03
433.54	4334.67
433.72	4299.56
433.91	4365.10
434.10	4229.35
434.28	4388.50
434.47	4236.37
434.66	4547.66
434.85	4493.83
435.03	4451.70
435.22	4472.76
435.41	4699.80
435.59	4580.43
435.78	4695.11
435.97	4709.16
436.16	4685.75
436.34	4568.73
436.53	4622.56
436.72	4816.82
436.90	4603.83
437.09	4678.73
437.28	4709.16
437.46	4720.86
437.65	4699.80
437.84	4681.07
438.02	4814.48
438.21	4905.76
438.40	4711.50
438.58	4910.44
438.77	4924.49
438.96	5022.79
439.14	5121.09
439.33	5060.24
439.52	4999.38
439.70	5083.64
439.89	5172.58
440.08	5219.39
440.26	5228.76
440.45	5310.68
440.63	5408.98
440.82	5329.40
441.01	5455.79
441.19	5544.73
441.38	5558.77
441.57	5568.13
441.75	5659.42
441.94	5825.59
442.12	5495.58
442.31	5797.51
442.50	5689.84
442.68	5645.37
442.87	5820.91
443.05	5724.95
443.24	5907.51
443.43	5748.36
443.61	5987.09
443.80	5989.43
443.98	5970.71
444.17	5708.57
444.35	5933.26
444.54	6139.23
444.73	5846.66
444.91	6001.13
445.10	5872.40
445.28	5923.90
445.47	5877.09
445.65	5844.32
445.84	5823.25
446.02	6057.31
446.21	5884.11
446.39	5799.85
446.58	6019.86
446.77	5977.73
446.95	6010.50
447.14	6045.60
447.32	6061.99
447.51	6134.54
447.69	6085.39
447.88	6132.20
448.06	5902.83
448.25	6232.85
448.43	6155.61
448.62	6127.52
448.80	5940.28
448.99	6338.17
449.17	6347.53
449.36	6272.64
449.54	6476.26
449.73	6438.81
449.91	6546.48
450.10	6356.90
450.28	6574.56
450.46	6279.66
450.65	6347.53
450.83	6509.03
451.02	6487.96
451.20	6663.51
451.39	6530.09
451.57	6518.39
451.76	6469.24
451.94	6429.45
452.13	6707.98
452.31	6600.31
452.49	6363.92
452.68	6600.31
452.86	6586.27
453.05	6630.74
453.23	6794.58
453.42	6773.51
453.60	6773.51
453.78	6715.00
453.97	6672.87
454.15	6710.32
454.34	6700.95
454.52	6773.51
454.70	6761.81
454.89	6913.94
455.07	6853.09
455.26	6890.54
455.44	7131.61
455.62	7052.03
455.81	6949.05
455.99	7075.44
456.17	7082.46
456.36	7037.99
456.54	7155.02
456.73	7084.80
456.91	7463.97
457.09	7335.24
457.28	7623.12
457.46	7096.50
457.64	7258.00
457.83	7377.37
458.01	7225.23
458.19	7557.59
458.38	7478.01
458.56	7463.97
458.74	7403.11
458.93	7431.20
459.11	7583.34
459.29	7543.55
459.48	7611.42
459.66	7611.42
459.84	7637.17
460.03	7812.71
460.21	7747.17
460.39	7651.21
460.57	7873.56
460.76	7838.45
460.94	7719.09
461.12	7672.28
461.31	7967.18
461.49	7604.40
461.67	7735.47
461.85	8234.00
462.04	8109.96
462.22	8554.66
462.40	8063.15
462.59	8102.93
462.77	8049.10
462.95	8145.06
463.13	8077.19
463.32	8046.76
463.50	8269.11
463.68	8205.92
463.86	8475.08
464.05	8042.08
464.23	8308.90
464.41	8236.35
464.59	8112.30
464.78	8386.14
464.96	8236.35
465.14	8084.21
465.32	8510.19
465.50	8542.96
465.69	8461.04
465.87	8681.05
466.05	8472.74
466.23	8528.91
466.41	8379.12
466.60	8748.92
466.78	8496.14
466.96	8435.29
467.14	8528.91
467.32	8613.17
467.51	8554.66
467.69	8411.89
467.87	8301.88
468.05	8758.28
468.23	8767.65
468.41	8629.56
468.60	8842.54
468.78	8835.52
468.96	8652.96
469.14	8802.75
469.32	9048.51
469.50	8769.99
469.69	8863.61
469.87	9135.11
470.05	9090.64
470.23	8987.66
470.41	9128.09
470.59	9060.21
470.77	8870.63
470.95	9462.79
471.14	9303.63
471.32	9151.49
471.50	9425.34
471.68	9406.61
471.86	9696.84
472.04	9525.98
472.22	9582.15
472.40	9462.79
472.58	9516.62
472.77	9753.01
472.95	9589.17
473.13	9853.66
473.31	9635.99
473.49	9624.28
473.67	9486.19
473.85	9659.39
474.03	10167.29
474.21	10193.03
474.39	9973.02
474.57	10216.44
474.75	10190.69
474.93	10286.65
475.12	10389.64
475.30	10214.10
475.48	10380.28
475.66	10424.75
475.84	10326.44
476.02	10525.39
476.20	10523.05
476.38	10649.44
476.56	10986.47
476.74	10815.62
476.92	10651.78
477.10	10778.17
477.28	11136.27
477.46	11103.50
477.64	11211.17
477.82	11550.54
478.00	11447.56
478.18	11461.60
478.36	11632.46
478.54	11646.51
478.72	11683.95
478.90	11943.75
479.08	12039.72
479.26	11864.18
479.44	12320.58
479.62	12395.48
479.80	12123.98
479.98	12311.22
480.16	12526.55
480.34	12580.38
480.52	12594.42
480.70	12585.06
480.88	12566.34
481.06	12533.57
481.24	12802.73
481.41	12957.21
481.59	13165.51
481.77	13422.97
481.95	13277.86
482.13	13242.75
482.31	13186.58
482.49	13762.35
482.67	13818.52
482.85	13556.38
483.03	13877.04
483.21	14101.73
483.39	14293.65
483.57	14188.33
483.74	14183.65
483.92	14366.21
484.10	14270.25
484.28	14637.71
484.46	14787.50
484.64	15012.20
484.82	14637.71
485.00	15028.58
485.18	15527.11
485.35	15030.92
485.53	15154.97
485.71	15119.86
485.89	15400.72
486.07	15297.74
486.25	15482.64
486.43	15721.38
486.61	16255.02
486.78	16212.89
486.96	16140.33
487.14	16301.83
487.32	16311.19
487.50	16671.64
487.68	16676.32
487.85	17130.38
488.03	17352.73
488.21	17362.09
488.39	17212.30
488.57	17305.92
488.75	17425.29
488.92	17928.50
489.10	17900.42
489.28	17820.84
489.46	18412.99
489.64	18242.14
489.81	18284.26
489.99	18700.88
490.17	18827.27
490.35	18948.98
490.53	18853.02
490.70	18923.23
490.88	18906.85
491.06	19513.05
491.24	19122.18
491.41	19173.67
491.59	19374.95
491.77	19232.18
491.95	19475.60
492.13	19878.17
492.30	20011.58
492.48	20187.12
492.66	20053.71
492.84	20292.44
493.01	20418.83
493.19	20615.44
493.37	20568.63
493.54	20723.10
493.72	21097.59
493.90	21048.44
494.08	21324.62
494.25	21298.88
494.43	21305.90
494.61	21439.31
494.79	21436.97
494.96	21715.49
495.14	21825.50
495.32	21820.81
495.49	21940.18
495.67	22045.51
495.85	22352.12
496.02	22473.82
496.20	22698.52
496.38	22782.77
496.55	22909.16
496.73	23634.73
496.91	23358.55
497.09	23358.55
497.26	23466.21
497.44	23285.99
497.62	23180.67
497.79	23828.99
497.97	23367.91
498.14	23721.33
498.32	23644.09
498.50	23702.61
498.67	24404.77
498.85	24341.57
499.03	24446.90
499.20	24524.13
499.38	24374.34
499.56	24767.55
499.73	24685.63
499.91	24936.07
500.08	24989.90
500.26	24788.61
500.44	24922.02
500.61	25064.80
500.79	24877.55
500.97	25102.25
501.14	25465.03
501.32	25586.74
501.49	25460.35
501.67	25556.31
501.84	25303.53
502.02	25802.07
502.20	25673.34
502.37	26125.06
502.55	25823.13
502.72	26001.01
502.90	26352.09
503.07	25963.56
503.25	25862.92
503.43	26445.71
503.60	26438.69
503.78	26431.67
503.95	26438.69
504.13	26984.04
504.30	26693.81
504.48	26651.68
504.65	26747.64
504.83	26883.39
505.01	27101.06
505.18	27122.13
505.36	27358.52
505.53	27428.74
505.71	27814.93
505.88	28287.71
506.06	27681.52
506.23	27498.95
506.41	27374.91
506.58	27828.97
506.76	27637.05
506.93	28472.62
507.11	28163.67
507.28	28231.54
507.46	28215.16
507.63	28266.65
507.81	28414.10
507.98	28549.85
508.16	28671.56
508.33	28671.56
508.50	28964.13
508.68	28975.83
508.85	29205.20
509.03	28889.23
509.20	29090.52
509.38	29186.48
509.55	29565.65
509.73	29390.11
509.90	29230.95
510.08	29200.52
510.25	29055.41
510.42	29879.28
510.60	29322.23
510.77	30050.14
510.95	30033.75
511.12	29919.07
511.30	30237.38
511.47	30024.39
511.64	30338.02
511.82	30487.82
511.99	30157.80
512.17	30572.08
512.34	30155.46
512.51	30780.39
512.69	30658.68
512.86	30925.50
513.04	30562.72
513.21	31049.55
513.38	30857.62
513.56	30864.64
513.73	30974.65
513.90	31115.08
514.08	31260.20
514.25	31012.10
514.43	31290.62
514.60	31412.33
514.77	31232.11
514.95	31644.04
515.12	31655.75
515.29	31690.85
515.47	31807.88
515.64	31754.05
515.81	31964.70
515.99	31920.23
516.16	31737.66
516.33	31765.75
516.51	32032.57
516.68	31807.88
516.85	31627.66
517.03	32091.09
517.20	32102.79
517.37	32481.95
517.54	32655.15
517.72	32329.82
517.89	32552.17
518.06	32318.12
518.24	32463.23
518.41	32601.32
518.58	32683.24
518.75	32676.22
518.93	32921.98
519.10	33333.91
519.27	33326.89
519.45	33167.73
519.62	33516.47
519.79	33177.09
519.96	33572.64
520.14	33539.88
520.31	33362.00
520.48	33628.82
520.65	33731.80
520.83	33701.37
521.00	33776.27
521.17	34038.41
521.34	33928.41
521.52	34029.05
521.69	34607.16
521.86	34204.59
522.03	34246.72
522.20	34361.40
522.38	34419.92
522.55	34756.96
522.72	34136.71
522.89	34593.12
523.07	34731.21
523.24	34675.04
523.41	34700.78
523.58	34455.03
523.75	35351.45
523.92	35335.07
524.10	35091.65
524.27	35185.27
524.44	35297.62
524.61	35466.14
524.78	35463.80
524.96	35489.54
525.13	35835.94
525.30	35903.82
525.47	35880.41
525.64	35683.81
525.81	35386.56
525.98	35728.28
526.16	35442.73
526.33	35847.64
526.50	35548.06
526.67	35690.83
526.84	35693.17
527.01	35608.91
527.18	35786.79
527.36	36294.69
527.53	36046.59
527.70	36231.49
527.87	36428.10
528.04	36034.89
528.21	36491.29
528.38	36336.82
528.55	36828.33
528.72	36491.29
528.89	37041.32
529.07	36959.40
529.24	36650.45
529.41	36830.67
529.58	36699.60
529.75	36673.85
529.92	37099.83
530.09	37315.16
530.26	37294.10
530.43	37174.73
530.60	37198.13
530.77	37165.37
530.94	37439.21
531.11	37275.37
531.28	37790.29
531.46	37900.29
531.63	37542.19
531.80	37486.02
531.97	37862.85
532.14	37420.48
532.31	37368.99
532.48	37565.60
532.65	38230.31
532.82	37776.25
532.99	38110.94
533.16	37757.52
533.33	37991.58
533.50	38244.35
533.67	38326.27
533.84	37926.04
534.01	38033.71
534.18	38181.16
534.35	38476.07
534.52	38270.10
534.69	38574.37
534.86	38642.24
535.03	38520.54
535.20	38639.90
535.37	38508.83
535.54	39016.73
535.71	39016.73
535.88	38848.21
536.05	38799.06
536.22	38745.23
536.38	38583.73
536.55	38560.33
536.72	39173.55
536.89	38824.81
537.06	38939.49
537.23	39056.52
537.40	38972.26
537.57	39232.06
537.74	38988.64
537.91	39213.34
538.08	39667.40
538.25	39262.49
538.42	39351.43
538.59	39548.03
538.75	39178.23
538.92	39339.72
539.09	39592.50
539.26	39524.63
539.43	39653.36
539.60	39487.18
539.77	39805.49
539.94	40093.38
540.11	39496.54
540.28	39915.50
540.44	39704.85
540.61	39545.69
540.78	39803.15
540.95	39772.72
541.12	40137.85
541.29	39838.26
541.46	39768.04
541.62	40140.19
541.79	40126.14
541.96	39852.30
542.13	40423.39
542.30	40306.37
542.47	40217.43
542.63	39871.03
542.80	40505.31
542.97	40814.26
543.14	40397.65
543.31	40809.58
543.48	40711.28
543.64	41378.33
543.81	40767.45
543.98	41085.76
544.15	41256.62
544.32	40755.75
544.48	41317.48
544.65	40992.14
544.82	41200.45
544.99	40722.98
545.16	41233.22
545.32	41200.45
545.49	41453.23
545.66	41572.60
545.83	41347.90
546.00	41455.57
546.16	41518.76
546.33	41317.48
546.50	40617.66
546.67	41928.36
546.83	41282.37
547.00	41544.51
547.17	41387.69
547.34	40987.46
547.50	41202.79
547.67	41933.04
547.84	41900.27
548.00	42232.63
548.17	41881.55
548.34	41588.98
548.51	42146.03
548.67	42382.42
548.84	42127.30
549.01	41509.40
549.18	42155.39
549.34	42253.69
549.51	42136.66
549.68	42237.31
549.84	42197.52
550.01	42270.08
550.18	42038.36
550.34	41930.70
550.51	42012.62
550.68	42050.06
550.84	41752.82
551.01	42309.86
551.18	42185.82
551.34	42160.07
551.51	42314.55
551.68	42335.61
551.84	42693.71
552.01	41914.31
552.18	42665.63
552.34	42616.47
552.51	42852.87
552.68	42646.90
552.84	42801.38
553.01	43030.75
553.18	42480.72
553.34	42799.04
553.51	42841.17
553.67	42541.58
553.84	43346.72
554.01	43161.82
554.17	43014.37
554.34	43028.41
554.51	43302.25
554.67	42934.79
554.84	43056.50
555.00	42810.74
555.17	42501.79
555.33	43648.65
555.50	42941.81
555.67	43311.61
555.83	42862.23
556.00	43119.69
556.16	43854.62
556.33	43290.55
556.50	43260.12
556.66	43529.28
556.83	42892.66
556.99	43119.69
557.16	43175.86
557.32	43400.55
557.49	43367.79
557.65	43168.84
557.82	43531.62
557.98	43402.89
558.15	43768.02
558.32	43627.59
558.48	43536.30
558.65	43800.79
558.81	43629.93
558.98	43929.51
559.14	43629.93
559.31	43798.44
559.47	43468.43
559.64	44278.25
559.80	43863.98
559.97	43838.23
560.13	43646.31
560.30	43503.54
560.46	43805.47
560.63	43562.05
560.79	44273.57
560.96	44395.28
561.12	43885.04
561.29	43672.06
561.45	44051.22
561.61	43840.57
561.78	44105.06
561.94	43861.64
562.11	43683.76
562.27	43494.18
562.44	44383.58
562.60	44278.25
562.77	44123.78
562.93	43985.69
563.10	44264.21
563.26	43796.10
563.42	44095.69
563.59	44037.18
563.75	44289.96
563.92	44774.45
564.08	44444.43
564.24	44236.12
564.41	44196.34
564.57	44107.40
564.74	44163.57
564.90	44629.34
565.07	44236.12
565.23	44156.55
565.39	44247.83
565.56	44355.49
565.72	44299.32
565.88	44367.20
566.05	44034.84
566.21	44217.40
566.38	44282.94
566.54	44341.45
566.70	44449.11
566.87	44687.85
567.03	43978.67
567.19	44804.88
567.36	44524.01
567.52	44329.75
567.68	44388.26
567.85	44411.67
568.01	44690.19
568.17	44016.11
568.34	44949.99
568.50	44666.78
568.66	44678.49
568.83	44666.78
568.99	44744.02
569.15	44381.24
569.32	44629.34
569.48	44261.87
569.64	44587.21
569.81	44786.15
569.97	44112.08
570.13	43997.39
570.30	44603.59
570.46	44390.60
570.62	44243.15
570.78	44161.23
570.95	44598.91
571.11	44830.62
571.27	44147.18
571.43	44629.34
571.60	45303.41
571.76	44619.97
571.92	44109.74
572.09	44938.29
572.25	44893.82
572.41	44371.88
572.57	44989.78
572.74	44987.44
572.90	44879.77
573.06	44788.49
573.22	44783.81
573.38	44701.89
573.55	44381.24
573.71	44631.68
573.87	44933.60
574.03	44348.47
574.20	44547.42
574.36	44608.27
574.52	44835.30
574.68	44779.13
574.84	45099.78
575.01	44360.17
575.17	45062.33
575.33	44783.81
575.49	44552.10
575.65	45188.72
575.82	45031.91
575.98	44664.44
576.14	45148.93
576.30	44978.07
576.46	44816.58
576.62	44671.46
576.79	44872.75
576.95	44402.30
577.11	44973.39
577.27	44830.62
577.43	44814.24
577.59	45289.37
577.75	44755.72
577.92	44128.46
578.08	44397.62
578.24	44598.91
578.40	44746.36
578.56	44910.20
578.72	44273.57
578.88	45081.06
579.04	44999.14
579.21	44587.21
579.37	44875.09
579.53	44924.24
579.69	44725.30
579.85	44626.99
580.01	44725.30
580.17	44896.16
580.33	45158.30
580.49	44999.14
580.65	45120.85
580.82	44896.16
580.98	45062.33
581.14	44442.09
581.30	45521.08
581.46	45071.70
581.62	44830.62
581.78	45031.91
581.94	45069.36
582.10	45289.37
582.26	45177.02
582.42	44804.88
582.58	45074.04
582.74	45015.52
582.90	45301.07
583.06	45315.11
583.22	45198.09
583.38	45085.74
583.54	45022.54
583.70	44818.92
583.86	44942.97
584.02	44676.15
584.18	44765.09
584.34	45155.96
584.50	44535.71
584.66	44945.31
584.82	44957.01
584.98	45160.64
585.14	44882.11
585.30	45008.50
585.46	44638.70
585.62	44664.44
585.78	44928.92
585.94	44245.49
586.10	45123.19
586.26	44877.43
586.42	45034.25
586.58	44783.81
586.74	45230.85
586.90	44432.73
587.06	44727.64
587.22	45448.52
587.38	44701.89
587.54	45233.19
587.70	45631.08
587.86	45113.83
588.02	45174.68
588.18	45429.80
588.34	45254.26
588.49	44910.20
588.65	44825.94
588.81	44952.33
588.97	44671.46
589.13	44683.17
589.29	44973.39
589.45	45038.93
589.61	45001.48
589.77	45155.96
589.93	45256.60
590.08	45198.09
590.24	45457.88
590.40	45006.16
590.56	45485.97
590.72	44732.32
590.88	44727.64
591.04	45324.47
591.20	45455.54
591.35	45347.88
591.51	45535.12
591.67	45492.99
591.83	45352.56
591.99	44961.69
592.15	45214.47
592.31	45055.31
592.46	44877.43
592.62	45265.96
592.78	45357.24
592.94	45315.11
593.10	45050.63
593.26	45551.51
593.41	45071.70
593.57	45603.00
593.73	45212.13
593.89	45275.32
594.05	45172.34
594.20	45303.41
594.36	45439.16
594.52	45371.28
594.68	45565.55
594.84	45331.50
594.99	45338.52
595.15	45343.20
595.31	45418.10
595.47	45586.61
595.62	45401.71
595.78	45146.59
595.94	45635.77
596.10	45064.67
596.25	45670.87
596.41	45291.71
596.57	45137.23
596.73	45450.86
596.88	45043.61
597.04	45289.37
597.20	45198.09
597.36	45490.65
597.51	45546.82
597.67	45500.01
597.83	45741.09
597.99	46101.53
598.14	45497.67
598.30	45675.55
598.46	45743.43
598.61	45081.06
598.77	45198.09
598.93	45085.74
599.09	45148.93
599.24	45998.55
599.40	45705.98
599.56	45581.93
599.71	45593.64
599.87	45701.30
600.03	45521.08
600.18	45453.20
600.34	45282.34
600.50	45181.70
600.65	45574.91
600.81	45584.27
600.97	45518.74
601.12	45968.12
601.28	45556.19
601.44	45378.31
601.59	45212.13
601.75	45067.02
601.91	44935.95
602.06	45261.28
602.22	45591.30
602.37	45523.42
602.53	45600.66
602.69	45467.25
602.84	45317.45
603.00	45244.90
603.16	45237.87
603.31	45343.20
603.47	45162.98
603.62	45284.68
603.78	45570.23
603.94	45621.72
604.09	45591.30
604.25	45469.59
604.40	45331.50
604.56	45467.25
604.71	45268.30
604.87	45298.73
605.03	45268.30
605.18	45041.27
605.34	45088.08
605.49	44987.44
605.65	45464.91
605.80	45181.70
605.96	45216.81
606.12	45352.56
606.27	45464.91
606.43	44863.39
606.58	45595.98
606.74	45113.83
606.89	44802.53
607.05	44996.80
607.20	44968.71
607.36	45205.11
607.51	45425.12
607.67	45088.08
607.82	45359.58
607.98	45167.66
608.13	44971.05
608.29	45116.17
608.44	44879.77
608.60	44669.12
608.75	44837.64
608.91	44516.99
609.06	44694.87
609.22	45432.14
609.37	44809.56
609.53	44816.58
609.68	45118.51
609.84	44975.73
609.99	45275.32
610.15	44947.65
610.30	44856.37
610.46	44617.63
610.61	44776.79
610.76	45013.18
610.92	44971.05
611.07	44748.70
611.23	44727.64
611.38	44996.80
611.54	44739.34
611.69	44814.24
611.84	44304.00
612.00	44903.18
612.15	44425.71
612.31	45036.59
612.46	44966.37
612.62	44900.84
612.77	44587.21
612.92	44711.25
613.08	45001.48
613.23	44488.90
613.39	44535.71
613.54	44060.58
613.69	44364.85
613.85	44615.29
614.00	44694.87
614.15	44664.44
614.31	44367.20
614.46	44479.54
614.62	44421.03
614.77	44533.37
614.92	44598.91
615.08	44671.46
615.23	44163.57
615.38	44250.17
615.54	43988.03
615.69	44243.15
615.84	43742.27
616.00	44367.20
616.15	44252.51
616.30	44102.71
616.46	43807.81
616.61	43971.64
616.76	43995.05
616.92	44034.84
617.07	44158.89
617.22	43798.44
617.37	44292.30
617.53	44289.96
617.68	44137.82
617.83	44348.47
617.99	44341.45
618.14	43969.30
618.29	43784.40
618.45	43452.05
618.60	44247.83
618.75	43831.21
618.90	44055.90
619.06	44191.65
619.21	43707.16
619.36	43653.33
619.51	44046.54
619.67	43660.35
619.82	44027.82
619.97	43878.02
620.12	43515.24
620.28	42948.83
620.43	43438.00
620.58	43810.15
620.73	43824.19
620.89	43459.07
621.04	43721.21
621.19	43636.95
621.34	42892.66
621.49	42965.21
621.65	42960.53
621.80	44189.31
621.95	43042.45
622.10	43161.82
622.25	43189.91
622.41	42909.04
622.56	43140.75
622.71	43290.55
622.86	43269.48
623.01	43363.11
623.16	43021.39
623.32	43365.45
623.47	42997.98
623.62	43100.97
623.77	43129.05
623.92	43026.07
624.07	42625.84
624.23	42682.01
624.38	43124.37
624.53	42700.73
624.68	42553.28
624.83	42733.50
624.98	42944.15
625.13	42878.61
625.29	42981.60
625.44	42483.06
625.59	42864.57
625.74	42270.08
625.89	41916.65
626.04	42033.68
626.19	42272.42
626.34	42642.22
626.49	42562.64
626.65	42752.23
626.80	42904.36
626.95	42370.72
627.10	42249.01
627.25	42321.57
627.40	42361.36
627.55	42031.34
627.70	41673.24
627.85	42148.37
628.00	42033.68
628.15	42351.99
628.30	41975.17
628.45	42167.09
628.60	42223.26
628.76	42370.72
628.91	42036.02
629.06	42225.60
629.21	42380.08
629.36	41874.52
629.51	41848.78
629.66	41872.18
629.81	41481.31
629.96	41656.85
630.11	41415.78
630.26	42120.28
630.41	41998.57
630.56	42040.70
630.71	41715.37
630.86	41837.08
631.01	41691.96
631.16	41710.69
631.31	41289.39
631.46	41322.16
631.61	41663.88
631.76	41804.31
631.91	41504.72
632.06	41680.26
632.21	41832.39
632.36	41724.73
632.51	41385.35
632.66	41818.35
632.81	40992.14
632.96	41308.11
633.10	40779.15
633.25	40992.14
633.40	40994.48
633.55	41488.34
633.70	41364.29
633.85	41216.83
634.00	41298.75
634.15	41420.46
634.30	41399.40
634.45	41064.70
634.60	40884.48
634.75	40882.14
634.90	41212.15
635.05	41214.49
635.19	41158.32
635.34	41141.94
635.49	40893.84
635.64	40477.22
635.79	40893.84
635.94	40964.06
636.09	40844.69
636.24	40741.71
636.39	40208.06
636.53	40278.28
636.68	40449.14
636.83	40531.06
636.98	40837.67
637.13	40067.63
637.28	40584.89
637.43	40634.04
637.57	40774.47
637.72	40315.73
637.87	40945.33
638.02	40247.85
638.17	40109.76
638.32	40215.08
638.46	40233.81
638.61	40278.28
638.76	40030.18
638.91	40320.41
639.06	40247.85
639.20	40109.76
639.35	40552.12
639.50	40327.43
639.65	40690.21
639.80	40620.00
639.94	40655.11
640.09	40149.55
640.24	40039.54
640.39	39861.66
640.54	39782.09
640.68	39934.22
640.83	40170.61
640.98	39913.16
641.13	40084.01
641.27	39966.99
641.42	39676.76
641.57	40025.50
641.72	40273.60
641.86	39618.25
642.01	39611.23
642.16	39615.91
642.31	39005.03
642.45	39639.31
642.60	38972.26
642.75	39260.15
642.90	39730.59
643.04	39405.26
643.19	39531.65
643.34	39543.35
643.48	39381.85
643.63	39459.09
643.78	39452.07
643.93	39185.25
644.07	38990.98
644.22	39239.08
644.37	39089.29
644.51	39512.92
644.66	39285.89
644.81	39342.06
644.95	39292.91
645.10	39496.54
645.25	39461.43
645.39	39285.89
645.54	39484.84
645.69	39192.27
645.83	39105.67
645.98	39157.16
646.13	39234.40
646.27	39484.84
646.42	38799.06
646.57	39000.35
646.71	39304.62
646.86	39346.75
647.00	39112.69
647.15	38990.98
647.30	39026.09
647.44	39140.78
647.59	39337.38
647.74	38485.43
647.88	38789.70
648.03	39077.58
648.17	38990.98
648.32	38485.43
648.47	38759.27
648.61	38611.82
648.76	39150.14
648.90	38618.84
649.05	38525.22
649.20	38843.53
649.34	39452.07
649.49	38600.12
649.63	38541.60
649.78	38330.95
649.92	38719.48
650.07	39110.35
650.21	38192.86
650.36	38050.09
650.51	38447.98
650.65	38614.16
650.80	38684.37
650.94	38780.34
651.09	38497.13
651.23	38288.82
651.38	38492.45
651.52	38052.43
651.67	38227.97
651.81	38440.96
651.96	37745.82
652.10	38525.22
652.25	38029.02
652.39	38005.62
652.54	38040.73
652.68	38096.90
652.83	38242.01
652.97	38185.84
653.12	38185.84
653.26	38059.45
653.41	37977.53
653.55	37963.49
653.70	37652.20
653.84	37731.78
653.99	37907.32
654.13	37933.06
654.27	37865.19
654.42	37589.00
654.56	37493.04
654.71	37776.25
654.85	37661.56
655.00	37811.35
655.14	37521.13
655.29	37034.30
655.43	37235.58
655.57	37347.93
655.72	37008.55
655.86	37174.73
656.01	37446.23
656.15	37368.99
656.30	37055.36
656.44	36935.99
656.58	37336.23
656.73	37378.36
656.87	36727.69
657.01	36964.08
657.16	36858.76
657.30	36851.73
657.45	37139.62
657.59	36914.93
657.73	36912.59
657.88	36982.80
658.02	36818.97
658.16	36982.80
658.31	36762.79
658.45	36818.97
658.60	37024.93
658.74	36514.70
658.88	36411.71
659.03	36636.41
659.17	36280.64
659.31	36840.03
659.46	36613.00
659.60	36371.92
659.74	36297.03
659.89	36355.54
660.03	36219.79
660.17	36725.35
660.32	36243.20
660.46	36655.13
660.60	36222.13
660.74	36421.08
660.89	36383.63
661.03	35749.34
661.17	36582.57
661.32	35817.22
661.46	36163.62
661.60	35817.22
661.74	35793.81
661.89	36030.21
662.03	35812.54
662.17	35789.13
662.31	35515.29
662.46	36018.50
662.60	35908.50
662.74	35302.30
662.88	35629.98
663.03	35342.09
663.17	35828.92
663.31	35370.18
663.45	35182.93
663.60	35431.03
663.74	34897.39
663.88	35192.30
664.02	34834.19
664.17	35306.98
664.31	35400.60
664.45	34794.40
664.59	35101.01
664.73	35007.39
664.88	35002.71
665.02	34525.24
665.16	34602.48
665.30	34679.72
665.44	34558.01
665.59	34218.63
665.73	34778.02
665.87	34555.67
666.01	34801.43
666.15	34565.03
666.29	34087.56
666.44	34656.31
666.58	34494.82
666.72	34120.33
666.86	34225.65
667.00	34368.43
667.14	34094.58
667.28	33780.95
667.43	33860.53
667.57	33790.31
667.71	33542.22
667.85	34288.85
667.99	33633.50
668.13	33397.10
668.27	33535.20
668.41	34005.64
668.56	33537.54
668.70	33802.02
668.84	33546.90
668.98	33638.18
669.12	33532.86
669.26	33460.30
669.40	33284.76
669.54	32933.68
669.68	33172.41
669.82	33200.50
669.96	32865.80
670.10	33043.68
670.25	33006.23
670.39	32821.33
670.53	32760.48
670.67	32652.81
670.81	32826.01
670.95	32734.73
671.09	32921.98
671.23	32835.38
671.37	32776.86
671.51	32243.22
671.65	32287.69
671.79	32261.94
671.93	32294.71
672.07	32407.06
672.21	32533.45
672.35	31901.50
672.49	32158.96
672.63	32034.91
672.77	31871.07
672.91	31854.69
673.05	31847.67
673.19	31934.27
673.33	31400.63
673.47	31290.62
673.61	31438.08
673.75	31412.33
673.89	31070.61
674.03	31082.31
674.17	31065.93
674.31	30925.50
674.45	30773.36
674.59	31178.28
674.73	31281.26
674.87	31201.68
675.01	30728.89
675.15	30801.45
675.29	30937.20
675.43	30738.26
675.56	30939.54
675.70	30618.89
675.84	30457.39
675.98	29488.41
676.12	30122.69
676.26	30307.60
676.40	30230.36
676.54	30078.22
676.68	29837.15
676.82	29500.11
676.96	29692.04
677.10	29537.56
677.23	29291.80
677.37	29570.33
677.51	29607.78
677.65	29392.45
677.79	29001.58
677.93	28933.70
678.07	29008.60
678.21	28924.34
678.34	28910.30
678.48	28718.37
678.62	28772.21
678.76	28545.17
678.90	28673.90
679.04	28704.33
679.18	28315.80
679.31	28233.88
679.45	27934.29
679.59	27953.02
679.73	28004.51
679.87	28077.07
680.00	27793.86
680.14	27892.16
680.28	27978.76
680.42	27393.63
680.56	27744.71
680.70	27456.82
680.83	27487.25
680.97	27000.42
681.11	27124.47
681.25	26782.75
681.39	26969.99
681.52	27168.94
681.66	26944.25
681.80	26841.26
681.94	26735.94
682.07	26691.47
682.21	26277.19
682.35	26747.64
682.49	26073.57
682.62	26635.30
682.76	25968.24
682.90	26054.84
683.04	26455.08
683.17	25942.50
683.31	25687.38
683.45	25898.03
683.59	25537.59
683.72	25504.82
683.86	25432.26
684.00	25212.25
684.13	25113.95
684.27	25256.72
684.41	25109.27
684.55	25345.66
684.68	24938.41
684.82	24884.58
684.96	24737.12
685.09	24802.66
685.23	24563.92
685.37	24844.79
685.50	24496.05
685.64	24603.71
685.78	24587.33
685.91	24156.67
686.05	24224.54
686.19	23836.02
686.32	23672.18
686.46	23868.78
686.60	23550.47
686.73	23709.63
686.87	23494.30
687.01	23697.92
687.14	23328.12
687.28	23220.45
687.42	22852.99
687.55	23014.49
687.69	22979.38
687.82	23082.36
687.96	22794.48
688.10	22953.63
688.23	22822.56
688.37	22618.94
688.50	22314.67
688.64	22405.95
688.78	22515.95
688.91	22230.41
689.05	22120.40
689.18	21790.39
689.32	21675.70
689.46	22279.56
689.59	22050.19
689.73	22216.36
689.86	21860.60
690.00	21558.67
690.13	21720.17
690.27	21743.58
690.41	21551.65
690.54	21362.07
690.68	21095.25
690.81	21275.47
690.95	21214.62
691.08	21109.29
691.22	21273.13
691.35	20938.43
691.49	20943.11
691.62	20830.77
691.76	20837.79
691.89	20889.28
692.03	20453.94
692.16	20620.12
692.30	20247.97
692.43	20421.17
692.57	20126.27
692.70	20166.06
692.84	20177.76
692.97	19899.23
693.11	19990.52
693.24	19833.70
693.38	19758.80
693.51	19527.09
693.65	19517.73
693.78	19491.98
693.92	19494.32
694.05	19461.55
694.19	19377.30
694.32	19105.79
694.45	19271.97
694.59	19248.57
694.72	18984.09
694.86	18831.95
694.99	18869.40
695.13	18499.59
695.26	18321.71
695.39	18265.54
695.53	18614.28
695.66	18410.65
695.80	18265.54
695.93	18340.44
696.07	17865.31
696.20	18038.51
696.33	18132.13
696.47	18183.62
696.60	17844.24
696.73	17862.97
696.87	17965.95
697.00	17898.08
697.14	17806.80
697.27	17474.44
697.40	17448.69
697.54	17362.09
697.67	17020.38
697.80	17392.52
697.94	17018.04
698.07	17256.77
698.21	16957.18
698.34	17219.32
698.47	16739.51
698.61	16793.34
698.74	16741.85
698.87	16596.74
699.01	16592.06
699.14	16350.98
699.27	16587.38
699.40	16271.40
699.54	16161.40
699.67	15981.18
699.80	16079.48
699.94	15908.62
700.07	16259.70
700.20	15885.22
700.34	15695.63
700.47	15627.76
700.60	16074.80
700.73	15941.39
700.87	15730.74
701.00	15712.02
701.13	15417.11
701.26	15644.14
701.40	15356.25
701.53	15176.03
701.66	15075.39
701.79	14995.81
701.93	14958.36
702.06	14991.13
702.19	14661.12
702.32	15157.31
702.46	14607.28
702.59	14771.12
702.72	14801.55
702.85	14890.49
702.99	14651.75
703.12	14927.94
703.25	14801.55
703.38	14455.15
703.51	14436.42
703.65	14473.87
703.78	14532.39
703.91	14331.10
704.04	14008.11
704.17	13940.23
704.31	13895.76
704.44	13755.33
704.57	13509.57
704.70	13682.77
704.83	13694.47
704.96	13750.65
705.10	13722.56
705.23	13781.07
>>>>>End Processed Spectral Data<<<<<
