SpectraSuite Data File
++++++++++++++++++++++++++++++++++++
Date: Fri Oct 25 11:33:17 EDT 2013
User: price-jones
Dark Spectrum Present: No
Reference Spectrum Present: No
Number of Sampled Component Spectra: 1
Spectrometers: USB2+H05261
Integration Time (usec): 100000 (USB2+H05261)
Spectra Averaged: 1 (USB2+H05261)
Boxcar Smoothing: 0 (USB2+H05261)
Correct for Electrical Dark: No (USB2+H05261)
Strobe/Lamp Enabled: No (USB2+H05261)
Correct for Detector Non-linearity: No (USB2+H05261)
Correct for Stray Light: No (USB2+H05261)
Number of Pixels in Processed Spectrum: 2048
>>>>>Begin Processed Spectral Data<<<<<
365.73	266.82
365.92	266.82
366.12	266.82
366.32	189.58
366.52	105.32
366.72	187.24
366.91	117.03
367.11	65.54
367.31	114.69
367.51	147.45
367.70	173.20
367.90	173.20
368.10	168.52
368.30	142.77
368.49	229.37
368.69	229.37
368.89	180.22
369.09	156.82
369.28	248.10
369.48	227.03
369.68	210.65
369.87	194.26
370.07	250.44
370.27	229.37
370.47	292.57
370.66	449.38
370.86	512.58
371.06	547.69
371.25	533.64
371.45	561.73
371.65	559.39
371.84	507.90
372.04	493.85
372.24	510.24
372.44	559.39
372.63	573.43
372.83	617.90
373.03	561.73
373.22	683.44
373.42	587.47
373.62	601.52
373.81	594.50
374.01	681.10
374.21	678.76
374.40	638.97
374.60	713.86
374.79	653.01
374.99	664.71
375.19	603.86
375.38	784.08
375.58	662.37
375.78	685.78
375.97	692.80
376.17	718.54
376.37	702.16
376.56	655.35
376.76	606.20
376.95	695.14
377.15	674.07
377.35	695.14
377.54	622.58
377.74	713.86
377.93	671.73
378.13	690.46
378.33	697.48
378.52	662.37
378.72	720.88
378.91	683.44
379.11	730.25
379.31	753.65
379.50	662.37
379.70	821.53
379.89	683.44
380.09	678.76
380.28	730.25
380.48	744.29
380.68	744.29
380.87	755.99
381.07	840.25
381.26	751.31
381.46	807.48
381.65	809.83
381.85	706.84
382.04	770.04
382.24	828.55
382.43	793.44
382.63	809.83
382.83	765.36
383.02	849.61
383.22	851.96
383.41	835.57
383.61	805.14
383.80	826.21
384.00	777.06
384.19	851.96
384.39	905.79
384.58	805.14
384.78	861.32
384.97	856.64
385.17	905.79
385.36	800.46
385.56	856.64
385.75	835.57
385.95	901.11
386.14	929.19
386.34	805.14
386.53	870.68
386.72	901.11
386.92	936.21
387.11	854.30
387.31	952.60
387.50	924.51
387.70	891.74
387.89	826.21
388.09	961.96
388.28	912.81
388.48	915.15
388.67	851.96
388.86	922.17
389.06	917.49
389.25	917.49
389.45	933.87
389.64	875.36
389.84	915.15
390.03	866.00
390.22	947.92
390.42	912.81
390.61	983.02
390.81	1001.75
391.00	940.90
391.19	952.60
391.39	1027.50
391.58	1029.84
391.78	964.30
391.97	994.73
392.16	990.05
392.36	1032.18
392.55	1069.62
392.75	1090.69
392.94	1114.10
393.13	1076.65
393.33	1097.71
393.52	1048.56
393.71	1064.94
393.91	1102.39
394.10	1128.14
394.29	1090.69
394.49	1074.31
394.68	1086.01
394.88	1095.37
395.07	1214.74
395.26	1172.61
395.46	1137.50
395.65	1196.01
395.84	1203.04
396.04	1193.67
396.23	1221.76
396.42	1118.78
396.62	1294.32
396.81	1203.04
397.00	1263.89
397.19	1203.04
397.39	1174.95
397.58	1224.10
397.77	1226.44
397.97	1268.57
398.16	1226.44
398.35	1231.12
398.55	1196.01
398.74	1259.21
398.93	1317.72
399.12	1256.87
399.32	1336.45
399.51	1301.34
399.70	1399.64
399.90	1439.43
400.09	1448.79
400.28	1404.32
400.47	1413.68
400.67	1350.49
400.86	1341.13
401.05	1406.66
401.24	1544.75
401.44	1467.52
401.63	1500.28
401.82	1488.58
402.01	1434.75
402.21	1469.86
402.40	1495.60
402.59	1554.12
402.78	1563.48
402.97	1572.84
403.17	1521.35
403.36	1572.84
403.55	1507.30
403.74	1584.54
403.93	1607.95
404.13	1621.99
404.32	1591.56
404.51	1689.87
404.70	1760.08
404.89	1654.76
405.09	1790.51
405.28	1713.27
405.47	1732.00
405.66	1781.15
405.85	1706.25
406.05	1764.76
406.24	1774.13
406.43	1783.49
406.62	1834.98
406.81	1827.96
407.00	1799.87
407.20	1774.13
407.39	1785.83
407.58	1823.28
407.77	1900.52
407.96	1867.75
408.15	1914.56
408.34	1879.45
408.54	1872.43
408.73	1921.58
408.92	1921.58
409.11	1912.22
409.30	1933.28
409.49	1982.43
409.68	2120.53
409.87	2010.52
410.07	2050.31
410.26	2059.67
410.45	2167.34
410.64	2099.46
410.83	2094.78
411.02	2165.00
411.21	2207.13
411.40	2190.74
411.59	2176.70
411.78	2214.15
411.98	2218.83
412.17	2230.53
412.36	2275.00
412.55	2319.47
412.74	2366.28
412.93	2328.83
413.12	2291.38
413.31	2420.11
413.50	2457.56
413.69	2377.98
413.88	2478.63
414.07	2427.14
414.26	2558.21
414.45	2492.67
414.64	2499.69
414.83	2588.63
415.02	2637.78
415.22	2602.68
415.41	2759.49
415.60	2700.98
415.79	2705.66
415.98	2729.06
416.17	2607.36
416.36	2712.68
416.55	2825.03
416.74	2810.98
416.93	2923.33
417.12	2846.09
417.31	2965.46
417.50	2913.97
417.69	2911.63
417.88	2986.52
418.07	3009.93
418.26	2916.31
418.45	2986.52
418.64	3204.19
418.83	3152.70
419.02	3063.76
419.21	3131.64
419.39	3141.00
419.58	3218.24
419.77	3180.79
419.96	3255.69
420.15	3272.07
420.34	3150.36
420.53	3251.00
420.72	3281.43
420.91	3084.83
421.10	3325.90
421.29	3379.73
421.48	3222.92
421.67	3391.44
421.86	3272.07
422.05	3452.29
422.24	3400.80
422.43	3482.72
422.61	3356.33
422.80	3332.92
422.99	3452.29
423.18	3513.14
423.37	3552.93
423.56	3421.86
423.75	3365.69
423.94	3435.91
424.13	3187.81
424.32	3335.26
424.50	3492.08
424.69	3506.12
424.88	3529.53
425.07	3419.52
425.26	3377.39
425.45	3461.65
425.64	3461.65
425.83	3468.67
426.01	3569.32
426.20	3536.55
426.39	3478.04
426.58	3529.53
426.77	3543.57
426.96	3632.51
427.15	3538.89
427.33	3609.11
427.52	3672.30
427.71	3672.30
427.90	3719.11
428.09	3623.15
428.28	3712.09
428.46	3660.60
428.65	3737.84
428.84	3716.77
429.03	3761.24
429.22	3684.00
429.40	3695.71
429.59	3794.01
429.78	3630.17
429.97	3686.34
430.16	3868.91
430.34	3899.33
430.53	3882.95
430.72	3843.16
430.91	3815.07
431.10	3838.48
431.28	4079.55
431.47	4039.76
431.66	4018.70
431.85	3964.87
432.03	4051.47
432.22	4219.99
432.41	4081.89
432.60	4049.13
432.79	4016.36
432.97	4065.51
433.16	4322.97
433.35	4173.18
433.54	4168.49
433.72	4348.72
433.91	4334.67
434.10	4243.39
434.28	4283.18
434.47	4271.48
434.66	4189.56
434.85	4266.80
435.03	4367.44
435.22	4418.93
435.41	4498.51
435.59	4500.85
435.78	4510.21
435.97	4521.92
436.16	4479.79
436.34	4400.21
436.53	4514.89
436.72	4528.94
436.90	4409.57
437.09	4498.51
437.28	4454.04
437.46	4575.75
437.65	4636.60
437.84	4772.35
438.02	4643.62
438.21	4676.39
438.40	4657.67
438.58	4837.89
438.77	4873.00
438.96	4802.78
439.14	5013.43
439.33	4926.83
439.52	4966.62
439.70	5062.58
439.89	5095.35
440.08	4964.28
440.26	5181.95
440.45	5109.39
440.63	5006.41
440.82	5203.01
441.01	5111.73
441.19	5296.63
441.38	5240.46
441.57	5280.25
441.75	5320.04
441.94	5584.52
442.12	5490.90
442.31	5474.51
442.50	5350.46
442.68	5495.58
442.87	5526.00
443.05	5687.50
443.24	5598.56
443.43	5731.97
443.61	5776.44
443.80	5832.62
443.98	5577.50
444.17	5406.64
444.35	5652.39
444.54	5617.29
444.73	5654.73
444.91	5715.59
445.10	5701.54
445.28	5823.25
445.47	5626.65
445.65	5809.21
445.84	5769.42
446.02	5685.16
446.21	5809.21
446.39	5727.29
446.58	5839.64
446.77	5781.12
446.95	5603.24
447.14	5680.48
447.32	5872.40
447.51	5738.99
447.69	5701.54
447.88	5708.57
448.06	5797.51
448.25	5860.70
448.43	5870.06
448.62	5834.96
448.80	5792.83
448.99	5841.98
449.17	5991.77
449.36	5982.41
449.54	6019.86
449.73	6045.60
449.91	6270.30
450.10	6200.08
450.28	6150.93
450.46	6120.50
450.65	6200.08
450.83	6296.04
451.02	6202.42
451.20	6277.32
451.39	6335.83
451.57	6291.36
451.76	6129.86
451.94	6267.95
452.13	6303.06
452.31	6377.96
452.49	6115.82
452.68	6387.32
452.86	6384.98
453.05	6450.52
453.23	6354.55
453.42	6352.21
453.60	6389.66
453.78	6523.07
453.97	6551.16
454.15	6551.16
454.34	6661.16
454.52	6764.15
454.70	6595.63
454.89	6761.81
455.07	6700.95
455.26	6733.72
455.44	6736.06
455.62	6658.82
455.81	6789.89
455.99	6956.07
456.17	6906.92
456.36	6794.58
456.54	6874.15
456.73	7028.63
456.91	6925.65
457.09	7157.36
457.28	7101.19
457.46	7101.19
457.64	7059.06
457.83	6967.77
458.01	6960.75
458.19	7316.51
458.38	7098.84
458.56	7342.26
458.74	7417.16
458.93	7403.11
459.11	7384.39
459.29	7283.75
459.48	7368.01
459.66	7281.41
459.84	7201.83
460.03	7466.31
460.21	7339.92
460.39	7431.20
460.57	7492.05
460.76	7555.25
460.94	7492.05
461.12	7648.87
461.31	7695.68
461.49	7386.73
461.67	7494.40
461.85	7978.89
462.04	7819.73
462.22	8044.42
462.40	7925.05
462.59	7742.49
462.77	7599.72
462.95	7721.43
463.13	7873.56
463.32	7840.79
463.50	7810.37
463.68	8072.51
463.86	7903.99
464.05	7793.98
464.23	7967.18
464.41	8049.10
464.59	7805.69
464.78	8088.89
464.96	8109.96
465.14	7983.57
465.32	8086.55
465.50	8079.53
465.69	8187.19
465.87	8105.28
466.05	8149.75
466.23	8224.64
466.41	8304.22
466.60	8444.65
466.78	8138.04
466.96	8308.90
467.14	8287.84
467.32	8505.51
467.51	8484.44
467.69	8252.73
467.87	8514.87
468.05	8353.37
468.23	8416.57
468.41	8418.91
468.60	8510.19
468.78	8659.98
468.96	8451.67
469.14	8856.59
469.32	8568.70
469.50	8521.89
469.69	8798.07
469.87	8755.94
470.05	8821.48
470.23	9018.08
470.41	8997.02
470.59	8924.46
470.77	8922.12
470.95	8664.66
471.14	9092.98
471.32	8800.41
471.50	9205.33
471.68	9142.13
471.86	9116.39
472.04	9228.73
472.22	9415.98
472.40	9312.99
472.58	9343.42
472.77	9282.56
472.95	9493.21
473.13	9673.43
473.31	9336.40
473.49	9472.15
473.67	9273.20
473.85	9490.87
474.03	9729.61
474.21	9792.80
474.39	9933.23
474.57	10153.24
474.75	9961.32
474.93	10146.22
475.12	9891.10
475.30	10148.56
475.48	9827.91
475.66	10136.86
475.84	10136.86
476.02	10118.14
476.20	10277.29
476.38	10523.05
476.56	10609.65
476.74	10670.50
476.92	10518.37
477.10	10693.91
477.28	10836.68
477.46	10815.62
477.64	11021.58
477.82	11014.56
478.00	11274.36
478.18	11119.89
478.36	11339.90
478.54	11583.31
478.72	11468.62
478.90	11585.65
479.08	11899.28
479.26	11798.64
479.44	11808.00
479.62	11908.65
479.80	11985.88
479.98	11995.25
480.16	12437.61
480.34	12196.53
480.52	12278.45
480.70	12278.45
480.88	12353.35
481.06	12400.16
481.24	12795.71
481.41	12713.79
481.59	12842.52
481.77	13048.49
481.95	12809.75
482.13	13020.40
482.31	13064.87
482.49	13422.97
482.67	13516.59
482.85	13706.18
483.03	13795.12
483.21	13692.13
483.39	13907.46
483.57	13752.99
483.74	13926.19
483.92	14324.08
484.10	14108.75
484.28	14553.45
484.46	14686.86
484.64	14736.01
484.82	14693.88
485.00	14813.25
485.18	14953.68
485.35	15150.29
485.53	15531.80
485.71	15487.32
485.89	15618.39
486.07	15557.54
486.25	15758.83
486.43	15768.19
486.61	15772.87
486.78	15871.17
486.96	15906.28
487.14	16280.77
487.32	16491.41
487.50	16402.47
487.68	16580.36
487.85	16872.92
488.03	17048.46
488.21	17104.64
488.39	17228.68
488.57	17511.89
488.75	17458.06
488.92	17757.64
489.10	17668.70
489.28	17818.50
489.46	17965.95
489.64	17785.73
489.81	18148.51
489.99	18045.53
490.17	18473.85
490.35	18820.25
490.53	18785.14
490.70	19082.39
490.88	18958.34
491.06	19255.59
491.24	19243.88
491.41	19349.21
491.59	19431.13
491.77	19356.23
491.95	19616.03
492.13	19517.73
492.30	19810.29
492.48	19838.38
492.66	20037.33
492.84	20053.71
493.01	20266.70
493.19	20463.30
493.37	20676.29
493.54	20641.18
493.72	20954.82
493.90	20947.79
494.08	20830.77
494.25	21027.37
494.43	21104.61
494.61	21195.89
494.79	21689.74
494.96	21394.84
495.14	21869.97
495.32	22031.46
495.49	21926.14
495.67	21930.82
495.85	22239.77
496.02	22455.10
496.20	22742.99
496.38	22544.04
496.55	22389.56
496.73	23278.97
496.91	22897.46
497.09	22981.72
497.26	23388.97
497.44	23208.75
497.62	23321.10
497.79	23491.96
497.97	23779.84
498.14	23817.29
498.32	23880.49
498.50	23939.00
498.67	24217.52
498.85	24233.91
499.03	24098.16
499.20	24156.67
499.38	24264.33
499.56	24615.41
499.73	24620.10
499.91	24891.60
500.08	24821.38
500.26	24898.62
500.44	25013.31
500.61	25060.12
500.79	24893.94
500.97	25291.83
501.14	25717.81
501.32	25656.95
501.49	25294.17
501.67	25528.22
501.84	25762.28
502.02	25792.70
502.20	25816.11
502.37	26122.72
502.55	26274.85
502.72	26352.09
502.90	26054.84
503.07	25914.41
503.25	26501.89
503.43	25996.33
503.60	26616.57
503.78	26682.11
503.95	26820.20
504.13	26719.56
504.30	26965.31
504.48	26871.69
504.65	27225.11
504.83	27381.93
505.01	27412.35
505.18	27578.53
505.36	27335.12
505.53	27461.51
505.71	27798.54
505.88	27693.22
506.06	27531.72
506.23	27885.14
506.41	28006.85
506.58	27630.02
506.76	28390.70
506.93	28313.46
507.11	28411.76
507.28	28407.08
507.46	28535.81
507.63	28556.88
507.81	28879.87
507.98	28362.61
508.16	28922.00
508.33	28697.31
508.50	29696.72
508.68	29261.38
508.85	29172.44
509.03	29015.62
509.20	29603.10
509.38	29312.87
509.55	29799.70
509.73	29619.48
509.90	29528.20
510.08	29745.87
510.25	30003.33
510.42	29811.40
510.60	30213.98
510.77	30611.87
510.95	30471.43
511.12	30412.92
511.30	30424.62
511.47	30232.70
511.64	30363.77
511.82	30661.02
511.99	30679.74
512.17	31152.53
512.34	31117.42
512.51	31016.78
512.69	31199.34
512.86	31192.32
513.04	31508.29
513.21	31204.02
513.38	31583.19
513.56	31578.51
513.73	30698.47
513.90	31655.75
514.08	31676.81
514.25	31896.82
514.43	31775.11
514.60	32088.74
514.77	32149.60
514.95	32416.42
515.12	32058.32
515.29	31866.39
515.47	32283.01
515.64	32591.96
515.81	32467.91
515.99	32070.02
516.16	32924.32
516.33	32664.52
516.51	32966.45
516.68	32542.81
516.85	32613.02
517.03	33324.55
517.20	32849.42
517.37	33029.64
517.54	33392.42
517.72	33408.81
517.89	33357.32
518.06	33825.42
518.24	33378.38
518.41	33048.36
518.58	33469.66
518.75	33668.61
518.93	33752.87
519.10	33986.92
519.27	33989.26
519.45	33862.87
519.62	34092.24
519.79	34113.31
519.96	34417.58
520.14	34230.33
520.31	34146.08
520.48	34431.62
520.65	34293.53
520.83	34658.65
521.00	34457.37
521.17	35007.39
521.34	34597.80
521.52	34850.58
521.69	35405.28
521.86	35044.84
522.03	35257.83
522.20	35267.19
522.38	35566.78
522.55	35480.18
522.72	35257.83
522.89	35407.62
523.07	35824.24
523.24	35704.87
523.41	36060.63
523.58	35363.15
523.75	36060.63
523.92	36053.61
524.10	36189.36
524.27	36559.17
524.44	35999.78
524.61	36266.60
524.78	36322.77
524.96	36236.17
525.13	36306.39
525.30	36699.60
525.47	36673.85
525.64	36718.32
525.81	36488.95
525.98	36751.09
526.16	36552.15
526.33	36535.76
526.50	37179.41
526.67	36594.28
526.84	37081.11
527.01	36711.30
527.18	36882.16
527.36	36924.29
527.53	37230.90
527.70	37722.41
527.87	37745.82
528.04	37589.00
528.21	37163.03
528.38	37179.41
528.55	37701.35
528.72	37525.81
528.89	37670.92
529.07	37764.54
529.24	37607.73
529.41	38333.29
529.58	38003.28
529.75	37553.90
529.92	37729.44
530.09	37996.26
530.26	38024.34
530.43	37820.72
530.60	38300.53
530.77	37972.85
530.94	38218.61
531.11	38136.69
531.28	38370.74
531.46	38745.23
531.63	38808.42
531.80	38487.77
531.97	38855.23
532.14	38686.71
532.31	38572.03
532.48	38920.77
532.65	39086.95
532.82	39026.09
532.99	39105.67
533.16	39093.97
533.33	39175.89
533.50	39309.30
533.67	39026.09
533.84	38754.59
534.01	39548.03
534.18	38979.28
534.35	39754.00
534.52	39674.42
534.69	39454.41
534.86	40058.27
535.03	39281.21
535.20	40004.44
535.37	40362.54
535.54	39938.90
535.71	40067.63
535.88	39786.77
536.05	39849.96
536.22	40378.92
536.38	40479.57
536.55	40009.12
536.72	40137.85
536.89	40053.59
537.06	40161.25
537.23	40652.76
537.40	39931.88
537.57	40587.23
537.74	40741.71
537.91	40549.78
538.08	40374.24
538.25	40392.97
538.42	40629.36
538.59	40542.76
538.75	40437.44
538.92	41092.79
539.09	41109.17
539.26	40718.30
539.43	40636.38
539.60	40807.24
539.77	41228.54
539.94	41308.11
540.11	41214.49
540.28	41586.64
540.44	41233.22
540.61	41221.52
540.78	40914.90
540.95	41184.07
541.12	41282.37
541.29	41237.90
541.46	41083.42
541.62	41446.21
541.79	41755.16
541.96	41385.35
542.13	41443.87
542.30	41757.50
542.47	41743.45
542.63	41708.35
542.80	42000.91
542.97	42766.27
543.14	42351.99
543.31	42146.03
543.48	42185.82
543.64	42298.16
543.81	42831.80
543.98	42429.23
544.15	42504.13
544.32	42520.51
544.48	43187.56
544.65	42682.01
544.82	42689.03
544.99	42871.59
545.16	42817.76
545.32	42529.87
545.49	43150.12
545.66	43260.12
545.83	42909.04
546.00	42859.89
546.16	42705.41
546.33	42799.04
546.50	43030.75
546.67	43358.42
546.83	42609.45
547.00	42997.98
547.17	43019.05
547.34	43063.52
547.50	43419.28
547.67	43995.05
547.84	43503.54
548.00	43526.94
548.17	43744.61
548.34	43522.26
548.51	43812.49
548.67	43805.47
548.84	43871.00
549.01	43409.92
549.18	43985.69
549.34	43606.52
549.51	43938.88
549.68	44556.78
549.84	44013.77
550.01	43557.37
550.18	44088.67
550.34	44140.16
550.51	44194.00
550.68	43966.96
550.84	44025.48
551.01	44378.90
551.18	43803.13
551.34	44041.86
551.51	44287.62
551.68	44105.06
551.84	44278.25
552.01	44184.63
552.18	44488.90
552.34	44006.75
552.51	44570.82
552.68	44339.11
552.84	44797.85
553.01	44531.03
553.18	44449.11
553.34	44662.10
553.51	44729.98
553.67	44671.46
553.84	44758.06
554.01	44882.11
554.17	44746.36
554.34	44737.00
554.51	44891.48
554.67	44940.63
554.84	44940.63
555.00	45212.13
555.17	45031.91
555.33	45062.33
555.50	45272.98
555.67	45230.85
555.83	45179.36
556.00	45006.16
556.16	45949.40
556.33	45490.65
556.50	45577.25
556.66	45151.27
556.83	45516.40
556.99	45521.08
557.16	45448.52
557.32	45558.53
557.49	45635.77
557.65	45223.83
557.82	45170.00
557.98	45865.14
558.15	45560.87
558.32	45989.19
558.48	45659.17
558.65	45867.48
558.81	45914.29
558.98	45970.46
559.14	45427.46
559.31	46036.00
559.47	45549.17
559.64	45694.28
559.80	45724.71
559.97	45853.44
560.13	45572.57
560.30	45673.21
560.46	46007.91
560.63	46307.50
560.79	46518.15
560.96	46356.65
561.12	46204.52
561.29	45853.44
561.45	46351.97
561.61	45862.80
561.78	46052.38
561.94	45577.25
562.11	45970.46
562.27	46209.20
562.44	46148.34
562.60	46714.75
562.77	46480.70
562.93	46075.79
563.10	46499.42
563.26	46356.65
563.42	46878.59
563.59	46028.98
563.75	46113.23
563.92	46096.85
564.08	46813.05
564.24	46447.93
564.41	46461.97
564.57	46532.19
564.74	46466.66
564.90	45961.10
565.07	46410.48
565.23	46155.36
565.39	46333.24
565.56	46611.77
565.72	46539.21
565.88	46801.35
566.05	46504.10
566.21	46590.70
566.38	46766.24
566.54	46536.87
566.70	46857.52
566.87	46490.06
567.03	46356.65
567.19	46794.33
567.36	46597.73
567.52	46562.62
567.68	47012.00
567.85	47206.26
568.01	46494.74
568.17	46686.67
568.34	47107.96
568.50	46930.08
568.66	46916.04
568.83	46845.82
568.99	46827.10
569.15	47070.51
569.32	47224.99
569.48	46780.29
569.64	47482.45
569.81	47173.50
569.97	46976.89
570.13	47461.38
570.30	47009.66
570.46	47405.21
570.62	47068.17
570.78	46841.14
570.95	47138.39
571.11	47330.31
571.27	47379.46
571.43	47122.01
571.60	47152.43
571.76	47522.24
571.92	47185.20
572.09	46871.57
572.25	46801.35
572.41	46899.65
572.57	47463.72
572.74	47522.24
572.90	47594.79
573.06	47145.41
573.22	47468.40
573.38	47274.14
573.55	46969.87
573.71	47611.18
573.87	47730.54
574.03	47482.45
574.20	47739.91
574.36	47468.40
574.52	47686.07
574.68	47260.10
574.84	47583.09
575.01	47913.11
575.17	47693.10
575.33	47405.21
575.49	47428.62
575.65	47606.50
575.82	47480.11
575.98	46997.96
576.14	47515.22
576.30	47852.25
576.46	47398.19
576.62	47229.67
576.79	47356.06
576.95	46831.78
577.11	47264.78
577.27	47421.59
577.43	47426.28
577.59	47360.74
577.75	47569.05
577.92	46806.03
578.08	47358.40
578.24	47730.54
578.40	47480.11
578.56	47615.86
578.72	47274.14
578.88	47889.70
579.04	47482.45
579.21	47828.85
579.37	47657.99
579.53	47515.22
579.69	47395.85
579.85	47950.56
580.01	47840.55
580.17	47463.72
580.33	47931.83
580.49	47870.98
580.65	47672.03
580.82	47660.33
580.98	47746.93
581.14	47789.06
581.30	47739.91
581.46	47501.17
581.62	47601.82
581.78	47356.06
581.94	47803.10
582.10	47393.51
582.26	47545.64
582.42	47955.24
582.58	47922.47
582.74	47955.24
582.90	47728.20
583.06	48318.02
583.22	47716.50
583.38	47555.00
583.54	47791.40
583.70	47746.93
583.86	47906.08
584.02	47889.70
584.18	48037.16
584.34	48121.41
584.50	47861.61
584.66	48046.52
584.82	47573.73
584.98	48027.79
585.14	47861.61
585.30	47522.24
585.46	47915.45
585.62	47863.96
585.78	47922.47
585.94	47751.61
586.10	47948.21
586.26	47753.95
586.42	47716.50
586.58	48002.05
586.74	48161.20
586.90	47704.80
587.06	47562.03
587.22	48095.67
587.38	48137.80
587.54	48046.52
587.70	48121.41
587.86	47995.03
588.02	48203.33
588.18	47765.65
588.34	47817.14
588.49	48367.17
588.65	47742.25
588.81	47730.54
588.97	47915.45
589.13	47782.04
589.29	47824.17
589.45	47964.60
589.61	48236.10
589.77	48231.42
589.93	48058.22
590.08	47938.85
590.24	47959.92
590.40	48432.71
590.56	48587.18
590.72	48053.54
590.88	48301.64
591.04	47962.26
591.20	48231.42
591.35	48285.25
591.51	48498.24
591.67	48444.41
591.83	48467.81
591.99	48210.35
592.15	48002.05
592.31	48308.66
592.46	47931.83
592.62	48645.69
592.78	48673.78
592.94	48648.03
593.10	48601.22
593.26	48786.13
593.41	48268.87
593.57	48292.27
593.73	48233.76
593.89	48774.42
594.05	48720.59
594.20	48683.14
594.36	48821.23
594.52	48648.03
594.68	48341.42
594.84	48603.56
594.99	48610.59
595.15	48318.02
595.31	48760.38
595.47	48767.40
595.62	48374.19
595.78	48589.52
595.94	48573.14
596.10	48652.72
596.25	48781.45
596.41	48406.96
596.57	48327.38
596.73	48849.32
596.88	48339.08
597.04	48720.59
597.20	48982.73
597.36	48893.79
597.51	48832.94
597.67	48533.35
597.83	48547.39
597.99	48891.45
598.14	48648.03
598.30	48332.06
598.46	48542.71
598.61	48865.70
598.77	48748.68
598.93	48776.76
599.09	48919.54
599.24	49113.80
599.40	48708.89
599.56	48273.55
599.71	48999.12
599.87	48980.39
600.03	49066.99
600.18	49097.42
600.34	48421.00
600.50	48612.93
600.65	48610.59
600.81	49022.52
600.97	48868.05
601.12	48561.44
601.28	48673.78
601.44	48706.55
601.59	48708.89
601.75	48428.02
601.91	48823.58
602.06	48767.40
602.22	48732.29
602.37	48715.91
602.53	48741.66
602.69	49036.56
602.84	48652.72
603.00	48746.34
603.16	48641.01
603.31	48619.95
603.47	48854.00
603.62	48851.66
603.78	48769.74
603.94	48884.43
604.09	49015.50
604.25	48753.36
604.40	48521.65
604.56	48900.81
604.71	48837.62
604.87	48456.11
605.03	48376.53
605.18	48652.72
605.34	49186.36
605.49	48580.16
605.65	48919.54
605.80	48315.68
605.96	48238.44
606.12	48615.27
606.27	48744.00
606.43	48334.40
606.58	48758.04
606.74	48584.84
606.89	48605.91
607.05	49106.78
607.20	48896.13
607.36	48615.27
607.51	48748.68
607.67	48505.26
607.82	48250.14
607.98	48547.39
608.13	48573.14
608.29	48556.75
608.44	48615.27
608.60	48432.71
608.75	48619.95
608.91	48954.64
609.06	48112.05
609.22	48570.80
609.37	48289.93
609.53	48753.36
609.68	48575.48
609.84	48683.14
609.99	48495.90
610.15	48566.12
610.30	48413.98
610.46	48830.60
610.61	48093.33
610.76	48603.56
610.92	48083.97
611.07	47920.13
611.23	47901.40
611.38	48189.29
611.54	48460.79
611.69	48509.94
611.84	48622.29
612.00	48334.40
612.15	48114.39
612.31	48547.39
612.46	47735.23
612.62	48299.30
612.77	48392.92
612.92	48781.45
613.08	47903.74
613.23	47824.17
613.39	47962.26
613.54	47957.58
613.69	48533.35
613.85	47854.59
614.00	47786.72
614.15	48552.07
614.31	48322.70
614.46	48065.24
614.62	47791.40
614.77	47929.49
614.92	48023.11
615.08	48013.75
615.23	48250.14
615.38	48175.25
615.54	48343.77
615.69	48236.10
615.84	48278.23
616.00	47878.00
616.15	47735.23
616.30	47980.98
616.46	47861.61
616.61	48013.75
616.76	48355.47
616.92	47782.04
617.07	48006.73
617.22	47885.02
617.37	47594.79
617.53	47892.04
617.68	47648.63
617.83	47718.84
617.99	47828.85
618.14	48032.47
618.29	47646.29
618.45	47171.16
618.60	47646.29
618.75	47398.19
618.90	47409.89
619.06	47295.21
619.21	47718.84
619.36	47622.88
619.51	47430.96
619.67	47150.09
619.82	47342.02
619.97	47920.13
620.12	47690.76
620.28	47365.42
620.43	47686.07
620.58	47793.74
620.73	47009.66
620.89	47470.75
621.04	47269.46
621.19	47639.26
621.34	47526.92
621.49	47494.15
621.65	47049.45
621.80	47358.40
621.95	47239.03
622.10	47412.23
622.25	47281.16
622.41	46873.91
622.56	46902.00
622.71	47150.09
622.86	46972.21
623.01	47426.28
623.16	46976.89
623.32	46976.89
623.47	47281.16
623.62	47150.09
623.77	47047.11
623.92	46927.74
624.07	46747.52
624.23	47262.44
624.38	47021.36
624.53	46953.49
624.68	46658.58
624.83	46880.93
624.98	46555.60
625.13	46321.54
625.29	46941.78
625.44	47023.70
625.59	46838.80
625.74	46597.73
625.89	46148.34
626.04	46967.53
626.19	46398.78
626.34	46775.61
626.49	46333.24
626.65	46305.16
626.80	47002.64
626.95	46436.23
627.10	45998.55
627.25	46820.08
627.40	46476.02
627.55	46162.39
627.70	46564.96
627.85	46499.42
628.00	46801.35
628.15	46457.29
628.30	46136.64
628.45	46185.79
628.60	45846.41
628.76	45989.19
628.91	46298.14
629.06	45902.59
629.21	45551.51
629.36	45696.62
629.51	45759.81
629.66	45874.50
629.81	45855.78
629.96	46078.13
630.11	45872.16
630.26	45652.15
630.41	45904.93
630.56	45731.73
630.71	45942.38
630.86	45724.71
631.01	45670.87
631.16	45724.71
631.31	45727.05
631.46	45771.52
631.61	46050.04
631.76	45928.33
631.91	46052.38
632.06	45991.53
632.21	46075.79
632.36	45507.04
632.51	45574.91
632.66	45914.29
632.81	45455.54
632.96	45741.09
633.10	45565.55
633.25	45598.32
633.40	45427.46
633.55	45811.31
633.70	45565.55
633.85	46073.45
634.00	44931.26
634.15	45177.02
634.30	45104.46
634.45	45504.70
634.60	45373.63
634.75	45148.93
634.90	45216.81
635.05	45595.98
635.19	45287.03
635.34	45516.40
635.49	45207.45
635.64	45467.25
635.79	45535.12
635.94	45301.07
636.09	45312.77
636.24	44971.05
636.39	44896.16
636.53	44964.03
636.68	44830.62
636.83	44987.44
636.98	44762.75
637.13	44484.22
637.28	44257.19
637.43	44598.91
637.57	44957.01
637.72	44893.82
637.87	44329.75
638.02	44706.57
638.17	44926.58
638.32	44729.98
638.46	44446.77
638.61	44498.26
638.76	44119.10
638.91	44383.58
639.06	44421.03
639.20	43847.60
639.35	44830.62
639.50	44460.82
639.65	44385.92
639.80	44802.53
639.94	44612.95
640.09	44444.43
640.24	44271.23
640.39	44383.58
640.54	43913.13
640.68	44634.02
640.83	44437.41
640.98	44062.93
641.13	44135.48
641.27	44350.81
641.42	44266.55
641.57	43824.19
641.72	44177.61
641.86	43636.95
642.01	43409.92
642.16	44275.91
642.31	43482.47
642.45	44128.46
642.60	43849.94
642.75	43981.01
642.90	43878.02
643.04	43716.53
643.19	43751.63
643.34	43866.32
643.48	43746.95
643.63	43941.22
643.78	43737.59
643.93	44252.51
644.07	43564.39
644.22	43620.56
644.37	43320.98
644.51	43641.63
644.66	43629.93
644.81	43934.20
644.95	43683.76
645.10	43320.98
645.25	43112.67
645.39	42997.98
645.54	43707.16
645.69	43168.84
645.83	43072.88
645.98	43353.74
646.13	43519.92
646.27	43377.15
646.42	43152.46
646.57	43538.65
646.71	43210.97
646.86	43648.65
647.00	43136.07
647.15	43344.38
647.30	43482.47
647.44	42873.93
647.59	42897.34
647.74	43203.95
647.88	43290.55
648.03	43676.74
648.17	43290.55
648.32	42916.06
648.47	43650.99
648.61	43117.35
648.76	42756.91
648.90	42979.26
649.05	43185.22
649.20	43199.27
649.34	42747.54
649.49	42979.26
649.63	42665.63
649.78	43194.59
649.92	43171.18
650.07	43688.44
650.21	42951.17
650.36	42698.39
650.51	42696.05
650.65	42883.30
650.80	43185.22
650.94	42344.97
651.09	42920.74
651.23	42361.36
651.38	42110.92
651.52	42120.28
651.67	42480.72
651.81	42679.67
651.96	42403.49
652.10	41979.85
652.25	42387.10
652.39	42131.98
652.54	42532.22
652.68	42309.86
652.83	42527.53
652.97	42401.14
653.12	42401.14
653.26	41921.34
653.41	41731.75
653.55	42092.19
653.70	42202.20
653.84	42405.83
653.99	42274.76
654.13	41748.14
654.27	42204.54
654.42	42281.78
654.56	42045.38
654.71	41942.40
654.85	42099.22
655.00	41888.57
655.14	42384.76
655.29	41743.45
655.43	42454.98
655.57	41865.16
655.72	41380.67
655.86	41263.64
656.01	41614.72
656.15	41647.49
656.30	41371.31
656.44	41741.11
656.58	41689.62
656.73	41530.47
656.87	41427.48
657.01	41317.48
657.16	41603.02
657.30	41617.07
657.45	41064.70
657.59	40933.63
657.73	41118.53
657.88	41076.40
658.02	41624.09
658.16	41631.11
658.31	41565.57
658.45	41371.31
658.60	41172.36
658.74	41284.71
658.88	41326.84
659.03	41202.79
659.17	41092.79
659.31	40521.69
659.46	40835.33
659.60	41022.57
659.74	41254.28
659.89	40435.10
660.03	40203.38
660.17	40591.91
660.32	40517.01
660.46	40706.60
660.60	40261.90
660.74	40392.97
660.89	40856.39
661.03	40566.16
661.17	39676.76
661.32	40198.70
661.46	40589.57
661.60	40299.34
661.74	40313.39
661.89	39761.02
662.03	40390.62
662.17	39852.30
662.31	39768.04
662.46	40158.91
662.60	40006.78
662.74	39667.40
662.88	39711.87
663.03	39232.06
663.17	39423.98
663.31	39124.40
663.45	39129.08
663.60	39318.66
663.74	39632.29
663.88	39548.03
664.02	39065.88
664.17	39639.31
664.31	39271.85
664.45	39564.42
664.59	39363.13
664.73	38911.41
664.88	39419.30
665.02	38990.98
665.16	39012.05
665.30	38817.78
665.44	38754.59
665.59	38707.78
665.73	38614.16
665.87	38429.26
666.01	38852.89
666.15	38529.90
666.29	38476.07
666.44	39093.97
666.58	38602.46
666.72	38218.61
666.86	38504.15
667.00	38167.12
667.14	38071.15
667.28	38057.11
667.43	37991.58
667.57	38068.81
667.71	37963.49
667.85	37904.98
667.99	37858.17
668.13	37436.87
668.27	37591.34
668.41	37593.68
668.56	37235.58
668.70	36898.55
668.84	36943.02
668.98	37130.26
669.12	37567.94
669.26	37418.14
669.40	37387.72
669.54	37088.13
669.68	37144.30
669.82	36884.50
669.96	36840.03
670.10	36727.69
670.25	36772.16
670.39	36402.35
670.53	36807.26
670.67	36603.64
670.81	36769.82
670.95	36732.37
671.09	36491.29
671.23	35882.75
671.37	35974.03
671.51	35749.34
671.65	36172.98
671.79	36020.84
671.93	36425.76
672.07	36079.36
672.21	36119.15
672.35	35370.18
672.49	35651.04
672.63	35868.71
672.77	35419.33
672.91	35531.67
673.05	35182.93
673.19	35136.12
673.33	35330.39
673.47	35185.27
673.61	34899.73
673.75	35159.53
673.89	34323.96
674.03	34597.80
674.17	34616.52
674.31	34672.70
674.45	34469.07
674.59	34616.52
674.73	34267.78
674.87	34312.25
675.01	33830.10
675.15	33764.57
675.29	34066.50
675.43	33699.03
675.56	34146.08
675.70	33596.05
675.84	33848.83
675.98	32788.56
676.12	33443.91
676.26	33722.44
676.40	33530.51
676.54	32957.08
676.68	33003.89
676.82	32755.80
676.96	33174.75
677.10	33067.09
677.23	32708.99
677.37	33064.75
677.51	32774.52
677.65	33039.00
677.79	32650.47
677.93	32474.93
678.07	32407.06
678.21	31873.42
678.34	32198.75
678.48	31901.50
678.62	31735.32
678.76	31765.75
678.90	31700.22
679.04	31690.85
679.18	31835.97
679.31	31220.41
679.45	31323.39
679.59	30799.11
679.73	31122.10
679.87	30738.26
680.00	31063.59
680.14	30969.97
680.28	30782.73
680.42	30934.86
680.56	30616.55
680.70	30649.32
680.83	30157.80
680.97	30354.41
681.11	30340.36
681.25	30370.79
681.39	29937.79
681.52	29792.68
681.66	29394.79
681.80	29282.44
681.94	29053.07
682.07	29350.32
682.21	28964.13
682.35	29095.20
682.49	29137.33
682.62	29172.44
682.76	29167.76
682.90	29127.97
683.04	28446.87
683.17	28744.12
683.31	29120.95
683.45	28369.63
683.59	28151.96
683.72	28002.17
683.86	28142.60
684.00	28004.51
684.13	27934.29
684.27	27697.90
684.41	27529.38
684.55	27894.50
684.68	27798.54
684.82	27716.62
684.96	27395.97
685.09	27264.90
685.23	27344.48
685.37	27634.71
685.50	27683.86
685.64	27440.44
685.78	26857.65
685.91	26696.15
686.05	26242.09
686.19	26118.04
686.32	26455.08
686.46	25895.69
686.60	25839.51
686.73	26043.14
686.87	25989.31
687.01	25738.87
687.14	25982.29
687.28	25989.31
687.42	25668.66
687.55	25469.71
687.69	25699.08
687.82	25289.49
687.96	25238.00
688.10	25432.26
688.23	25242.68
688.37	25235.66
688.50	25371.41
688.64	24826.06
688.78	24781.59
688.91	24329.87
689.05	24517.11
689.18	24095.82
689.32	23702.61
689.46	23983.47
689.59	23955.38
689.73	24348.59
689.86	24086.45
690.00	23995.17
690.13	24332.21
690.27	23578.56
690.41	23737.71
690.54	23758.78
690.68	23274.29
690.81	23110.45
690.95	23075.34
691.08	22878.74
691.22	23218.11
691.35	22899.80
691.49	23243.86
691.62	22906.82
691.76	22621.28
691.89	22347.44
692.03	22382.54
692.16	22223.39
692.30	22270.20
692.43	21902.73
692.57	21996.35
692.70	21949.54
692.84	22052.53
692.97	21703.79
693.11	21640.59
693.24	21383.13
693.38	21357.39
693.51	21333.98
693.65	21315.26
693.78	20889.28
693.92	21235.68
694.05	21003.97
694.19	20772.25
694.32	20875.24
694.45	21055.46
694.59	20828.43
694.72	20877.58
694.86	20624.80
694.99	20369.68
695.13	20170.74
695.26	20084.14
695.39	19803.27
695.53	19868.81
695.66	19955.41
695.80	20072.43
695.93	19864.13
696.07	19777.53
696.20	19264.95
696.33	19187.71
696.47	19220.48
696.60	19094.09
696.73	19576.24
696.87	19178.35
697.00	19246.23
697.14	19054.30
697.27	18558.11
697.40	19187.71
697.54	18670.45
697.67	18668.11
697.80	18874.08
697.94	18338.10
698.07	18450.44
698.21	18221.07
698.34	18024.47
698.47	18118.09
698.61	17790.41
698.74	17666.36
698.87	18008.08
699.01	17605.51
699.14	17619.55
699.27	17755.30
699.40	17509.55
699.54	17364.43
699.67	17469.76
699.80	17221.66
699.94	17083.57
700.07	17060.16
700.20	17366.78
700.34	17053.14
700.47	17081.23
700.60	17355.07
700.73	16781.64
700.87	16587.38
701.00	16255.02
701.13	16554.61
701.26	16362.69
701.40	16437.58
701.53	16140.33
701.66	16510.14
701.79	15997.56
701.93	15864.15
702.06	15735.42
702.19	15810.32
702.32	15920.32
702.46	15796.28
702.59	15941.39
702.72	15882.88
702.85	15728.40
702.99	15353.91
703.12	15475.62
703.25	15377.32
703.38	15246.25
703.51	15049.64
703.65	14857.72
703.78	14736.01
703.91	14974.75
704.04	14574.52
704.17	14628.35
704.31	14675.16
704.44	14668.14
704.57	14595.58
704.70	14436.42
704.83	14448.13
704.96	14225.78
705.10	14001.08
705.23	14281.95
>>>>>End Processed Spectral Data<<<<<
