SpectraSuite Data File
++++++++++++++++++++++++++++++++++++
Date: Fri Oct 25 10:47:46 EDT 2013
User: price-jones
Dark Spectrum Present: No
Reference Spectrum Present: No
Number of Sampled Component Spectra: 1
Spectrometers: USB2+H05261
Integration Time (usec): 100000 (USB2+H05261)
Spectra Averaged: 1 (USB2+H05261)
Boxcar Smoothing: 0 (USB2+H05261)
Correct for Electrical Dark: No (USB2+H05261)
Strobe/Lamp Enabled: No (USB2+H05261)
Correct for Detector Non-linearity: No (USB2+H05261)
Correct for Stray Light: No (USB2+H05261)
Number of Pixels in Processed Spectrum: 2048
>>>>>Begin Processed Spectral Data<<<<<
365.73	126.39
365.92	126.39
366.12	126.39
366.32	56.17
366.52	18.72
366.72	39.79
366.91	49.15
367.11	74.90
367.31	30.43
367.51	32.77
367.70	37.45
367.90	131.07
368.10	56.17
368.30	51.49
368.49	21.06
368.69	95.96
368.89	39.79
369.09	0.00
369.28	102.98
369.48	93.62
369.68	112.35
369.87	35.11
370.07	117.03
370.27	138.09
370.47	250.44
370.66	351.08
370.86	409.59
371.06	334.70
371.25	440.02
371.45	458.74
371.65	484.49
371.84	465.77
372.04	526.62
372.24	571.09
372.44	458.74
372.63	535.98
372.83	554.71
373.03	470.45
373.22	479.81
373.42	449.38
373.62	517.26
373.81	479.81
374.01	514.92
374.21	564.07
374.40	585.13
374.60	482.15
374.79	496.19
374.99	578.11
375.19	521.94
375.38	587.47
375.58	599.18
375.78	578.11
375.97	564.07
376.17	620.24
376.37	582.79
376.56	594.50
376.76	629.60
376.95	585.13
377.15	596.84
377.35	571.09
377.54	653.01
377.74	617.90
377.93	575.77
378.13	585.13
378.33	615.56
378.52	531.30
378.72	587.47
378.91	631.94
379.11	636.63
379.31	606.20
379.50	617.90
379.70	653.01
379.89	660.03
380.09	629.60
380.28	645.99
380.48	753.65
380.68	730.25
380.87	674.07
381.07	664.71
381.26	671.73
381.46	589.82
381.65	795.78
381.85	718.54
382.04	685.78
382.24	674.07
382.43	671.73
382.63	681.10
382.83	699.82
383.02	702.16
383.22	695.14
383.41	660.03
383.61	718.54
383.80	741.95
384.00	744.29
384.19	725.57
384.39	746.63
384.58	746.63
384.78	709.18
384.97	711.52
385.17	770.04
385.36	688.12
385.56	793.44
385.75	716.20
385.95	837.91
386.14	786.42
386.34	781.74
386.53	833.23
386.72	814.51
386.92	706.84
387.11	786.42
387.31	779.40
387.50	849.61
387.70	826.21
387.89	758.33
388.09	828.55
388.28	840.25
388.48	779.40
388.67	842.59
388.86	833.23
389.06	919.83
389.25	889.40
389.45	819.19
389.64	915.15
389.84	994.73
390.03	917.49
390.22	957.28
390.42	938.55
390.61	924.51
390.81	950.26
391.00	952.60
391.19	992.39
391.39	1022.81
391.58	983.02
391.78	912.81
391.97	1006.43
392.16	1027.50
392.36	1011.11
392.55	966.64
392.75	959.62
392.94	887.06
393.13	983.02
393.33	933.87
393.52	924.51
393.71	994.73
393.91	985.37
394.10	1018.13
394.29	1050.90
394.49	1104.73
394.68	1167.93
394.88	1064.94
395.07	1198.35
395.26	1132.82
395.46	1128.14
395.65	1074.31
395.84	1144.52
396.04	1181.97
396.23	1109.41
396.42	1100.05
396.62	1165.59
396.81	1165.59
397.00	1186.65
397.19	1188.99
397.39	1177.29
397.58	1217.08
397.77	1259.21
397.97	1233.46
398.16	1287.29
398.35	1287.29
398.55	1217.08
398.74	1343.47
398.93	1352.83
399.12	1245.16
399.32	1362.19
399.51	1406.66
399.70	1373.89
399.90	1380.92
400.09	1432.41
400.28	1516.67
400.47	1392.62
400.67	1533.05
400.86	1362.19
401.05	1371.55
401.24	1474.54
401.44	1446.45
401.63	1544.75
401.82	1570.50
402.01	1476.88
402.21	1584.54
402.40	1540.07
402.59	1523.69
402.78	1537.73
402.97	1554.12
403.17	1652.42
403.36	1624.33
403.55	1687.53
403.74	1638.38
403.93	1621.99
404.13	1596.25
404.32	1579.86
404.51	1760.08
404.70	1619.65
404.89	1727.32
405.09	1746.04
405.28	1785.83
405.47	1750.72
405.66	1703.91
405.85	1638.38
406.05	1750.72
406.24	1858.39
406.43	1736.68
406.62	1797.53
406.81	1874.77
407.00	1914.56
407.20	1802.21
407.39	1739.02
407.58	1865.41
407.77	1846.68
407.96	1846.68
408.15	1928.60
408.34	1893.49
408.54	1961.37
408.73	2003.50
408.92	1870.09
409.11	2022.22
409.30	2040.95
409.49	1952.01
409.68	2005.84
409.87	2050.31
410.07	2045.63
410.26	2186.06
410.45	2120.53
410.64	2167.34
410.83	2120.53
411.02	2279.68
411.21	2300.75
411.40	2218.83
411.59	2209.47
411.78	2317.13
411.98	2300.75
412.17	2359.26
412.36	2328.83
412.55	2487.99
412.74	2473.95
412.93	2455.22
413.12	2422.45
413.31	2541.82
413.50	2527.78
413.69	2499.69
413.88	2567.57
414.07	2480.97
414.26	2539.48
414.45	2466.92
414.64	2672.89
414.83	2668.21
415.02	2722.04
415.22	2679.91
415.41	2710.34
415.60	2761.83
415.79	2862.48
415.98	2928.01
416.17	2850.77
416.36	2813.32
416.55	2747.79
416.74	2860.13
416.93	2815.66
417.12	2890.56
417.31	2932.69
417.50	2848.43
417.69	3045.04
417.88	2984.18
418.07	3066.10
418.26	3073.12
418.45	3094.19
418.64	3141.00
418.83	3159.72
419.02	3220.58
419.21	3166.74
419.39	3225.26
419.58	3110.57
419.77	3136.32
419.96	3243.98
420.15	3286.11
420.34	3192.49
420.53	3286.11
420.72	3431.23
420.91	3323.56
421.10	3337.60
421.29	3356.33
421.48	3353.99
421.67	3473.36
421.86	3445.27
422.05	3494.42
422.24	3405.48
422.43	3375.05
422.61	3461.65
422.80	3552.93
422.99	3433.57
423.18	3566.98
423.37	3667.62
423.56	3433.57
423.75	3463.99
423.94	3468.67
424.13	3218.24
424.32	3496.76
424.50	3630.17
424.69	3637.19
424.88	3648.90
425.07	3536.55
425.26	3623.15
425.45	3562.30
425.64	3506.12
425.83	3463.99
426.01	3550.59
426.20	3719.11
426.39	3691.02
426.58	3583.36
426.77	3672.30
426.96	3686.34
427.15	3641.87
427.33	3669.96
427.52	3761.24
427.71	3857.20
427.90	3686.34
428.09	3658.26
428.28	3702.73
428.46	3779.97
428.65	3688.68
428.84	3922.74
429.03	3896.99
429.22	3726.13
429.40	3831.46
429.59	3758.90
429.78	3698.05
429.97	3698.05
430.16	3754.22
430.34	3714.43
430.53	3815.07
430.72	3999.98
430.91	3885.29
431.10	3859.54
431.28	4021.04
431.47	4035.08
431.66	4124.02
431.85	4140.41
432.03	4117.00
432.22	4283.18
432.41	4128.70
432.60	4205.94
432.79	4245.73
432.97	4353.40
433.16	4444.68
433.35	4138.07
433.54	4229.35
433.72	4383.82
433.91	4360.42
434.10	4271.48
434.28	4344.03
434.47	4379.14
434.66	4346.37
434.85	4496.17
435.03	4334.67
435.22	4435.32
435.41	4533.62
435.59	4557.02
435.78	4573.41
435.97	4685.75
436.16	4657.67
436.34	4496.17
436.53	4358.08
436.72	4723.20
436.90	4550.00
437.09	4638.94
437.28	4538.30
437.46	4627.24
437.65	4514.89
437.84	4608.51
438.02	4835.55
438.21	4706.82
438.40	4631.92
438.58	4734.90
438.77	4863.63
438.96	4896.40
439.14	4985.34
439.33	5097.69
439.52	5083.64
439.70	5135.14
439.89	5245.14
440.08	4990.02
440.26	5392.59
440.45	5095.35
440.63	5228.76
440.82	5444.09
441.01	5270.89
441.19	5394.93
441.38	5392.59
441.57	5411.32
441.75	5416.00
441.94	5542.39
442.12	5612.60
442.31	5701.54
442.50	5727.29
442.68	5701.54
442.87	5708.57
443.05	5706.23
443.24	5734.31
443.43	5708.57
443.61	5558.77
443.80	6022.20
443.98	5661.76
444.17	5526.00
444.35	6059.65
444.54	5923.90
444.73	5689.84
444.91	5888.79
445.10	5769.42
445.28	5816.23
445.47	5731.97
445.65	5680.48
445.84	5837.30
446.02	6033.90
446.21	5888.79
446.39	5839.64
446.58	5898.15
446.77	5923.90
446.95	5795.17
447.14	5900.49
447.32	6167.31
447.51	5933.26
447.69	5973.05
447.88	6160.29
448.06	5921.56
448.25	6052.63
448.43	6097.10
448.62	6001.13
448.80	5933.26
448.99	6050.28
449.17	6143.91
449.36	6139.23
449.54	6150.93
449.73	6232.85
449.91	6443.49
450.10	6230.51
450.28	6504.35
450.46	6207.10
450.65	6410.73
450.83	6464.56
451.02	6537.12
451.20	6438.81
451.39	6296.04
451.57	6443.49
451.76	6429.45
451.94	6565.20
452.13	6686.91
452.31	6401.37
452.49	6539.46
452.68	6384.98
452.86	6551.16
453.05	6649.46
453.23	6754.79
453.42	6518.39
453.60	6717.34
453.78	6630.74
453.97	6553.50
454.15	6679.89
454.34	6722.02
454.52	6787.55
454.70	6703.29
454.89	6768.83
455.07	6937.35
455.26	6813.30
455.44	6825.00
455.62	6773.51
455.81	6862.45
455.99	7014.59
456.17	7077.78
456.36	7049.69
456.54	7021.61
456.73	6984.16
456.91	7393.75
457.09	7349.28
457.28	7328.22
457.46	7148.00
457.64	7246.30
457.83	7243.96
458.01	7098.84
458.19	7489.71
458.38	7433.54
458.56	7421.84
458.74	7328.22
458.93	7534.18
459.11	7461.63
459.29	7501.42
459.48	7440.56
459.66	7503.76
459.84	7470.99
460.03	7686.32
460.21	7829.09
460.39	7653.55
460.57	7637.17
460.76	7770.58
460.94	7925.05
461.12	7494.40
461.31	7728.45
461.49	7702.70
461.67	7878.24
461.85	7918.03
462.04	7847.82
462.22	8383.80
462.40	8159.11
462.59	7882.92
462.77	7889.95
462.95	7908.67
463.13	7885.26
463.32	8084.21
463.50	7967.18
463.68	8175.49
463.86	8241.03
464.05	7927.39
464.23	8070.17
464.41	8154.43
464.59	7992.93
464.78	8369.76
464.96	8311.24
465.14	8142.72
465.32	8348.69
465.50	8421.25
465.69	8351.03
465.87	8234.00
466.05	8217.62
466.23	8329.97
466.41	8400.18
466.60	8568.70
466.78	8358.05
466.96	8379.12
467.14	8451.67
467.32	8603.81
467.51	8786.37
467.69	8390.82
467.87	8512.53
468.05	8645.94
468.23	8397.84
468.41	8617.85
468.60	8437.63
468.78	8791.05
468.96	8667.00
469.14	8786.37
469.32	8971.27
469.50	8603.81
469.69	8971.27
469.87	8713.81
470.05	8814.46
470.23	8858.93
470.41	8978.30
470.59	9078.94
470.77	8952.55
470.95	9071.92
471.14	9053.19
471.32	9025.11
471.50	9324.69
471.68	9231.07
471.86	9362.14
472.04	9177.24
472.22	9460.45
472.40	9469.81
472.58	9331.72
472.77	9284.91
472.95	9666.41
473.13	9717.90
473.31	9584.49
473.49	9694.50
473.67	9687.48
473.85	9556.41
474.03	9778.76
474.21	9895.78
474.39	10277.29
474.57	9949.62
474.75	10197.71
474.93	10057.28
475.12	10076.01
475.30	10391.98
475.48	10101.75
475.66	10300.70
475.84	10169.63
476.02	10361.55
476.20	10157.92
476.38	10413.04
476.56	10712.63
476.74	10836.68
476.92	10939.66
477.10	10876.47
477.28	11075.42
477.46	10923.28
477.64	11009.88
477.82	11047.33
478.00	11485.01
478.18	11302.45
478.36	11234.57
478.54	11068.39
478.72	11527.14
478.90	11529.48
479.08	11772.89
479.26	12152.06
479.44	12009.29
479.62	11705.02
479.80	12219.94
479.98	12107.59
480.16	12407.18
480.34	12224.62
480.52	12615.49
480.70	12659.96
480.88	12315.90
481.06	12737.20
481.24	12861.24
481.41	12697.41
481.59	13130.41
481.77	13130.41
481.95	13085.94
482.13	13191.26
482.31	13200.62
482.49	13415.95
482.67	13584.47
482.85	13472.12
483.03	13694.47
483.21	13865.33
483.39	13891.08
483.57	14221.10
483.74	14251.52
483.92	14457.49
484.10	14178.97
484.28	14380.25
484.46	14733.67
484.64	14864.74
484.82	14518.34
485.00	14932.62
485.18	14661.12
485.35	15442.85
485.53	14820.27
485.71	15014.54
485.89	15283.70
486.07	15503.71
486.25	15302.42
486.43	15597.33
486.61	15618.39
486.78	15506.05
486.96	15807.98
487.14	16301.83
487.32	16442.26
487.50	16716.11
487.68	16655.25
487.85	16830.79
488.03	17032.08
488.21	17146.76
488.39	17013.35
488.57	17338.69
488.75	16978.25
488.92	17334.01
489.10	17233.36
489.28	17642.96
489.46	18029.15
489.64	17893.40
489.81	18207.03
489.99	18342.78
490.17	18246.82
490.35	18389.59
490.53	18576.83
490.70	18824.93
490.88	18745.35
491.06	19391.34
491.24	19030.90
491.41	18941.96
491.59	19218.14
491.77	19105.79
491.95	19686.25
492.13	19534.11
492.30	20034.99
492.48	19873.49
492.66	19871.15
492.84	19976.47
493.01	20126.27
493.19	20224.57
493.37	20556.93
493.54	20538.20
493.72	20634.16
493.90	20704.38
494.08	21064.82
494.25	21097.59
494.43	21589.10
494.61	21542.29
494.79	21811.45
494.96	21247.38
495.14	21495.48
495.32	21757.62
495.49	21687.40
495.67	21972.95
495.85	22305.31
496.02	22279.56
496.20	22522.98
496.38	22457.44
496.55	22403.61
496.73	22974.70
496.91	22937.25
497.09	22923.21
497.26	23236.84
497.44	23049.60
497.62	23016.83
497.79	23133.86
497.97	23218.11
498.14	23770.48
498.32	23557.49
498.50	23683.88
498.67	23880.49
498.85	23775.16
499.03	24034.96
499.20	24318.17
499.38	24472.64
499.56	24439.87
499.73	24004.53
499.91	24655.20
500.08	24697.33
500.26	24587.33
500.44	24451.58
500.61	24776.91
500.79	24788.61
500.97	25158.42
501.14	24936.07
501.32	25448.64
501.49	25350.34
501.67	25425.24
501.84	25640.57
502.02	25216.93
502.20	25790.36
502.37	25860.58
502.55	25891.01
502.72	25809.09
502.90	25975.27
503.07	25764.62
503.25	25907.39
503.43	26082.93
503.60	26347.41
503.78	26415.29
503.95	26221.02
504.13	26410.60
504.30	26637.64
504.48	26799.13
504.65	26637.64
504.83	26483.16
505.01	27042.55
505.18	27044.89
505.36	27377.25
505.53	26969.99
505.71	27419.38
505.88	27557.47
506.06	27386.61
506.23	27239.15
506.41	27491.93
506.58	27599.60
506.76	27807.90
506.93	27929.61
507.11	27578.53
507.28	27807.90
507.46	27892.16
507.63	28095.79
507.81	28212.82
507.98	27770.46
508.16	28166.01
508.33	28456.23
508.50	28601.35
508.68	28430.49
508.85	28816.68
509.03	28563.90
509.20	28973.49
509.38	29186.48
509.55	29273.08
509.73	29223.93
509.90	28933.70
510.08	29078.82
510.25	29429.90
510.42	29371.38
510.60	29673.31
510.77	29376.06
510.95	29680.33
511.12	29357.34
511.30	29762.25
511.47	30036.09
511.64	30139.08
511.82	30164.82
511.99	29832.47
512.17	30380.15
512.34	30113.33
512.51	30394.20
512.69	30450.37
512.86	30586.12
513.04	30483.14
513.21	30803.79
513.38	30644.63
513.56	30649.32
513.73	30759.32
513.90	30656.34
514.08	30813.15
514.25	31023.80
514.43	30948.90
514.60	30941.88
514.77	31084.65
514.95	31351.48
515.12	31510.63
515.29	31438.08
515.47	31763.41
515.64	31725.96
515.81	31433.39
515.99	31702.56
516.16	31955.33
516.33	31634.68
516.51	31807.88
516.68	31461.48
516.85	31669.79
517.03	31700.22
517.20	32100.45
517.37	31768.09
517.54	32570.90
517.72	32362.59
517.89	32077.04
518.06	32395.35
518.24	31955.33
518.41	31887.46
518.58	32580.26
518.75	32397.70
518.93	33333.91
519.10	32840.06
519.27	33240.29
519.45	33132.62
519.62	33130.28
519.79	32910.27
519.96	33567.96
520.14	33228.59
520.31	33090.49
520.48	33556.26
520.65	33354.97
520.83	33406.47
521.00	33869.89
521.17	33851.17
521.34	33811.38
521.52	34122.67
521.69	34178.84
521.86	34237.36
522.03	33799.68
522.20	34195.23
522.38	34272.46
522.55	34478.43
522.72	34167.14
522.89	33837.12
523.07	34639.93
523.24	34270.12
523.41	34658.65
523.58	34433.96
523.75	35241.45
523.92	34469.07
524.10	34780.36
524.27	35358.47
524.44	34635.25
524.61	35344.43
524.78	35070.59
524.96	35136.12
525.13	35101.01
525.30	35716.58
525.47	35686.15
525.64	35349.11
525.81	35323.36
525.98	35269.53
526.16	35526.99
526.33	35283.58
526.50	35536.35
526.67	35225.06
526.84	35545.72
527.01	35608.91
527.18	35864.03
527.36	36128.51
527.53	35903.82
527.70	36261.92
527.87	36109.78
528.04	36301.71
528.21	36137.87
528.38	35971.69
528.55	36451.50
528.72	36751.09
528.89	36591.94
529.07	36388.31
529.24	36580.23
529.41	36559.17
529.58	36690.24
529.75	36495.97
529.92	36935.99
530.09	36861.10
530.26	36701.94
530.43	36825.99
530.60	36732.37
530.77	36891.52
530.94	36940.68
531.11	37345.59
531.28	36982.80
531.46	37291.76
531.63	37570.28
531.80	37055.36
531.97	36952.38
532.14	37497.72
532.31	37237.92
532.48	37380.70
532.65	37247.29
532.82	37090.47
532.99	37776.25
533.16	36954.72
533.33	37305.80
533.50	38000.94
533.67	38052.43
533.84	37762.20
534.01	37888.59
534.18	38000.94
534.35	38202.22
534.52	38192.86
534.69	38209.25
534.86	38550.96
535.03	37809.01
535.20	38277.12
535.37	38532.24
535.54	38768.63
535.71	38550.96
535.88	38693.74
536.05	38705.44
536.22	38560.33
536.38	38532.24
536.55	38679.69
536.72	38433.94
536.89	38864.60
537.06	38576.71
537.23	38782.68
537.40	38684.37
537.57	38873.96
537.74	38656.29
537.91	39236.74
538.08	39021.41
538.25	38911.41
538.42	38955.88
538.59	39330.36
538.75	38754.59
538.92	38990.98
539.09	39232.06
539.26	39173.55
539.43	39559.73
539.60	39248.44
539.77	39194.61
539.94	39517.60
540.11	39264.83
540.28	39431.01
540.44	39285.89
540.61	39601.86
540.78	39636.97
540.95	39309.30
541.12	39461.43
541.29	39777.40
541.46	39669.74
541.62	39515.26
541.79	40224.45
541.96	39494.20
542.13	39629.95
542.30	40156.57
542.47	40154.23
542.63	40091.04
542.80	39882.73
542.97	40451.48
543.14	40914.90
543.31	40584.89
543.48	40430.41
543.64	41237.90
543.81	40985.12
543.98	40935.97
544.15	40662.13
544.32	41045.97
544.48	41060.02
544.65	40879.80
544.82	41064.70
544.99	40219.77
545.16	40556.80
545.32	40624.68
545.49	41174.70
545.66	41352.58
545.83	40975.76
546.00	40828.30
546.16	41050.66
546.33	41165.34
546.50	40486.59
546.67	40865.75
546.83	41029.59
547.00	41160.66
547.17	40957.03
547.34	41287.05
547.50	41439.18
547.67	41401.74
547.84	41268.33
548.00	41874.52
548.17	41467.27
548.34	41453.23
548.51	41736.43
548.67	41855.80
548.84	42068.79
549.01	41556.21
549.18	41301.09
549.34	41624.09
549.51	41830.05
549.68	42010.28
549.84	42277.10
550.01	42270.08
550.18	41830.05
550.34	41951.76
550.51	41979.85
550.68	41670.90
550.84	41605.36
551.01	42277.10
551.18	41982.19
551.34	41773.88
551.51	42127.30
551.68	42171.77
551.84	42199.86
552.01	42321.57
552.18	42225.60
552.34	42422.21
552.51	42408.17
552.68	41823.03
552.84	42749.88
553.01	42562.64
553.18	42548.60
553.34	42181.13
553.51	42209.22
553.67	42590.73
553.84	42576.69
554.01	42724.14
554.17	42632.86
554.34	43203.95
554.51	42710.10
554.67	42993.30
554.84	43150.12
555.00	42712.44
555.17	42761.59
555.33	42197.52
555.50	43021.39
555.67	42777.97
555.83	43005.00
556.00	42920.74
556.16	42864.57
556.33	43302.25
556.50	42941.81
556.66	43426.30
556.83	42932.45
556.99	43517.58
557.16	43164.16
557.32	43515.24
557.49	43505.88
557.65	42810.74
557.82	43100.97
557.98	42869.25
558.15	43480.13
558.32	43665.03
558.48	43414.60
558.65	43442.68
558.81	43445.02
558.98	43473.11
559.14	43370.13
559.31	43150.12
559.47	43449.70
559.64	43709.50
559.80	43826.53
559.97	43814.83
560.13	43152.46
560.30	43838.23
560.46	43555.03
560.63	43482.47
560.79	43730.57
560.96	43847.60
561.12	43604.18
561.29	43627.59
561.45	43587.80
561.61	43721.21
561.78	43599.50
561.94	43592.48
562.11	43510.56
562.27	43421.62
562.44	43849.94
562.60	44069.95
562.77	43999.73
562.93	43990.37
563.10	44044.20
563.26	44039.52
563.42	43812.49
563.59	43608.86
563.75	43379.49
563.92	44135.48
564.08	44060.58
564.24	43981.01
564.41	44311.02
564.57	43882.70
564.74	43817.17
564.90	44053.56
565.07	44048.88
565.23	44006.75
565.39	43519.92
565.56	43983.35
565.72	44320.38
565.88	43882.70
566.05	44128.46
566.21	44266.55
566.38	43667.37
566.54	44144.84
566.70	44142.50
566.87	44318.04
567.03	43917.81
567.19	44121.44
567.36	44493.58
567.52	43978.67
567.68	44184.63
567.85	44556.78
568.01	44105.06
568.17	44126.12
568.34	44432.73
568.50	44507.63
568.66	44161.23
568.83	44306.34
568.99	44074.63
569.15	44011.43
569.32	44409.32
569.48	43978.67
569.64	44814.24
569.81	44399.96
569.97	44168.25
570.13	44416.35
570.30	44318.04
570.46	44088.67
570.62	43938.88
570.78	44385.92
570.95	44135.48
571.11	44540.39
571.27	44421.03
571.43	44327.41
571.60	44442.09
571.76	44421.03
571.92	44172.93
572.09	44659.76
572.25	44690.19
572.41	44414.01
572.57	44524.01
572.74	45041.27
572.90	44502.95
573.06	44488.90
573.22	44669.12
573.38	44348.47
573.55	44219.74
573.71	44903.18
573.87	44769.77
574.03	44446.77
574.20	44591.89
574.36	44336.77
574.52	44556.78
574.68	44346.13
574.84	44790.83
575.01	44697.21
575.17	45034.25
575.33	44547.42
575.49	44713.59
575.65	44968.71
575.82	44687.85
575.98	44594.23
576.14	44713.59
576.30	44952.33
576.46	43999.73
576.62	44516.99
576.79	44390.60
576.95	43995.05
577.11	44566.14
577.27	44488.90
577.43	44825.94
577.59	44343.79
577.75	44444.43
577.92	44608.27
578.08	44109.74
578.24	44191.65
578.40	44374.22
578.56	44353.15
578.72	44542.74
578.88	44905.52
579.04	44729.98
579.21	44854.03
579.37	44472.52
579.53	44346.13
579.69	44306.34
579.85	44802.53
580.01	44704.23
580.17	44505.29
580.33	45219.15
580.49	44608.27
580.65	45104.46
580.82	44547.42
580.98	44701.89
581.14	44320.38
581.30	44858.71
581.46	44741.68
581.62	44992.12
581.78	44872.75
581.94	44879.77
582.10	44919.56
582.26	44973.39
582.42	44664.44
582.58	44861.05
582.74	44577.84
582.90	44495.92
583.06	44842.32
583.22	44708.91
583.38	44844.66
583.54	44879.77
583.70	44261.87
583.86	44823.60
584.02	44533.37
584.18	44912.54
584.34	45069.36
584.50	45200.43
584.66	44481.88
584.82	44428.05
584.98	45076.38
585.14	44896.16
585.30	44542.74
585.46	44729.98
585.62	44526.35
585.78	44158.89
585.94	44662.10
586.10	44652.74
586.26	44350.81
586.42	45048.29
586.58	44966.37
586.74	44954.67
586.90	44711.25
587.06	44105.06
587.22	44828.28
587.38	44294.64
587.54	44919.56
587.70	45228.51
587.86	44828.28
588.02	44879.77
588.18	44832.96
588.34	45116.17
588.49	44610.61
588.65	44521.67
588.81	44718.28
588.97	45048.29
589.13	44535.71
589.29	44729.98
589.45	44722.96
589.61	44832.96
589.77	45120.85
589.93	44992.12
590.08	44949.99
590.24	44509.97
590.40	45408.73
590.56	45188.72
590.72	44795.51
590.88	45249.58
591.04	45148.93
591.20	45013.18
591.35	45041.27
591.51	45560.87
591.67	45352.56
591.83	44931.26
591.99	44844.66
592.15	44935.95
592.31	45177.02
592.46	45448.52
592.62	45244.90
592.78	45120.85
592.94	45612.36
593.10	44697.21
593.26	45242.56
593.41	45043.61
593.57	45202.77
593.73	44797.85
593.89	45031.91
594.05	44786.15
594.20	45191.06
594.36	45455.54
594.52	44971.05
594.68	44933.60
594.84	45141.91
594.99	45565.55
595.15	44823.60
595.31	45195.74
595.47	45343.20
595.62	45043.61
595.78	45050.63
595.94	45399.37
596.10	44917.22
596.25	45130.21
596.41	45174.68
596.57	45249.58
596.73	45268.30
596.88	44907.86
597.04	45099.78
597.20	44978.07
597.36	45666.19
597.51	45085.74
597.67	45205.11
597.83	45076.38
597.99	45523.42
598.14	45378.31
598.30	45064.67
598.46	45399.37
598.61	44980.42
598.77	44889.13
598.93	44886.79
599.09	45202.77
599.24	45624.06
599.40	45387.67
599.56	45584.27
599.71	45553.85
599.87	45450.86
600.03	45521.08
600.18	45177.02
600.34	45471.93
600.50	45268.30
600.65	45294.05
600.81	45411.07
600.97	45670.87
601.12	45432.14
601.28	45249.58
601.44	44957.01
601.59	45179.36
601.75	44694.87
601.91	45242.56
602.06	45364.26
602.22	44975.73
602.37	45382.99
602.53	45291.71
602.69	45727.05
602.84	45427.46
603.00	44875.09
603.16	44961.69
603.31	45270.64
603.47	45088.08
603.62	45123.19
603.78	44964.03
603.94	45219.15
604.09	45500.01
604.25	45153.62
604.40	44980.42
604.56	45375.97
604.71	45652.15
604.87	45125.53
605.03	45125.53
605.18	45127.87
605.34	45006.16
605.49	44596.57
605.65	45024.89
605.80	45043.61
605.96	45366.60
606.12	45474.27
606.27	45464.91
606.43	45212.13
606.58	45464.91
606.74	44912.54
606.89	45312.77
607.05	44847.00
607.20	45251.92
607.36	45095.10
607.51	45420.44
607.67	45287.03
607.82	44889.13
607.98	45132.55
608.13	44657.42
608.29	44795.51
608.44	44589.55
608.60	44577.84
608.75	44535.71
608.91	44112.08
609.06	44568.48
609.22	45120.85
609.37	45022.54
609.53	44554.44
609.68	45120.85
609.84	44416.35
609.99	44865.73
610.15	44910.20
610.30	44739.34
610.46	44559.12
610.61	44184.63
610.76	44229.10
610.92	44596.57
611.07	44435.07
611.23	44149.53
611.38	44456.14
611.54	44575.50
611.69	44596.57
611.84	44252.51
612.00	44570.82
612.15	44292.30
612.31	44320.38
612.46	44690.19
612.62	44769.77
612.77	44388.26
612.92	44952.33
613.08	44734.66
613.23	44474.86
613.39	44320.38
613.54	44074.63
613.69	44168.25
613.85	44507.63
614.00	44325.07
614.15	44896.16
614.31	44575.50
614.46	44947.65
614.62	44261.87
614.77	44444.43
614.92	44699.55
615.08	44318.04
615.23	44116.76
615.38	44271.23
615.54	43711.84
615.69	44093.35
615.84	44013.77
616.00	43962.28
616.15	43775.04
616.30	43735.25
616.46	43461.41
616.61	43648.65
616.76	43826.53
616.92	43840.57
617.07	43576.09
617.22	43037.77
617.37	43522.26
617.53	44175.27
617.68	43732.91
617.83	43913.13
617.99	43540.99
618.14	43952.92
618.29	43590.14
618.45	43805.47
618.60	43643.97
618.75	43920.15
618.90	43821.85
619.06	43409.92
619.21	43716.53
619.36	43807.81
619.51	43601.84
619.67	43381.83
619.82	43765.68
619.97	44067.61
620.12	43019.05
620.28	43168.84
620.43	42806.06
620.58	43384.17
620.73	43648.65
620.89	43105.65
621.04	43447.36
621.19	43016.71
621.34	42962.87
621.49	43154.80
621.65	43103.31
621.80	43655.67
621.95	43000.32
622.10	42885.64
622.25	43042.45
622.41	42895.00
622.56	42707.76
622.71	43370.13
622.86	43030.75
623.01	43145.44
623.16	43117.35
623.32	43320.98
623.47	43419.28
623.62	43112.67
623.77	42391.78
623.92	42522.85
624.07	42604.77
624.23	42749.88
624.38	42754.57
624.53	42625.84
624.68	43257.78
624.83	42520.51
624.98	42377.74
625.13	43035.43
625.29	42843.51
625.44	42679.67
625.59	42511.15
625.74	42232.63
625.89	42295.82
626.04	41759.84
626.19	41984.53
626.34	42504.13
626.49	42391.78
626.65	42408.17
626.80	42787.33
626.95	42497.11
627.10	42220.92
627.25	41989.21
627.40	42029.00
627.55	41853.46
627.70	41628.77
627.85	42052.41
628.00	42054.75
628.15	42169.43
628.30	42124.96
628.45	42169.43
628.60	41991.55
628.76	41881.55
628.91	42253.69
629.06	41956.44
629.21	41495.36
629.36	41617.07
629.51	41773.88
629.66	41914.31
629.81	41448.55
629.96	41476.63
630.11	41745.80
630.26	41333.86
630.41	41986.87
630.56	41975.17
630.71	41263.64
630.86	41797.29
631.01	41570.25
631.16	41572.60
631.31	41319.82
631.46	41034.27
631.61	41237.90
631.76	41216.83
631.91	41457.91
632.06	41457.91
632.21	41603.02
632.36	41427.48
632.51	41116.19
632.66	41324.50
632.81	40774.47
632.96	41074.06
633.10	40964.06
633.25	40945.33
633.40	41191.09
633.55	41287.05
633.70	40928.95
633.85	41273.01
634.00	40919.59
634.15	40830.65
634.30	40954.69
634.45	41284.71
634.60	41092.79
634.75	41139.60
634.90	41036.61
635.05	40816.60
635.19	40863.41
635.34	41144.28
635.49	40671.49
635.64	40774.47
635.79	40601.27
635.94	40540.42
636.09	40858.73
636.24	40755.75
636.39	40357.86
636.53	40512.33
636.68	40549.78
636.83	40919.59
636.98	41244.92
637.13	40147.21
637.28	40381.26
637.43	40407.01
637.57	40624.68
637.72	40336.79
637.87	40320.41
638.02	40313.39
638.17	40034.86
638.32	40416.37
638.46	39751.66
638.61	40472.54
638.76	39943.58
638.91	39669.74
639.06	39763.36
639.20	40196.36
639.35	40250.19
639.50	39868.69
639.65	40177.64
639.80	40091.04
639.94	39938.90
640.09	39875.71
640.24	39866.34
640.39	39791.45
640.54	39676.76
640.68	39859.32
640.83	40266.58
640.98	39866.34
641.13	39878.05
641.27	39838.26
641.42	39709.53
641.57	39971.67
641.72	40119.12
641.86	39290.57
642.01	39564.42
642.16	39814.85
642.31	39379.51
642.45	39716.55
642.60	39391.22
642.75	39072.90
642.90	39421.64
643.04	39220.36
643.19	39541.01
643.34	39653.36
643.48	39398.24
643.63	39086.95
643.78	39009.71
643.93	39105.67
644.07	38906.73
644.22	39409.94
644.37	39358.45
644.51	39007.37
644.66	39318.66
644.81	39187.59
644.95	39311.64
645.10	39150.14
645.25	39426.32
645.39	39168.87
645.54	39180.57
645.69	38609.48
645.83	38550.96
645.98	38883.32
646.13	39164.18
646.27	39449.73
646.42	39269.51
646.57	38492.45
646.71	38822.47
646.86	39187.59
647.00	38829.49
647.15	38993.32
647.30	38735.87
647.44	38939.49
647.59	38689.06
647.74	38614.16
647.88	38766.29
648.03	38864.60
648.17	38675.01
648.32	38026.68
648.47	38330.95
648.61	38066.47
648.76	39243.76
648.90	38429.26
649.05	38878.64
649.20	38916.09
649.34	39077.58
649.49	38277.12
649.63	38384.79
649.78	38691.40
649.92	38178.82
650.07	38869.28
650.21	37614.75
650.36	38646.93
650.51	38174.14
650.65	38735.87
650.80	38972.26
650.94	38431.60
651.09	38424.57
651.23	38209.25
651.38	38082.86
651.52	37841.78
651.67	38185.84
651.81	38164.78
651.96	38218.61
652.10	38293.50
652.25	37647.52
652.39	37684.97
652.54	37930.72
652.68	38050.09
652.83	38366.06
652.97	37921.36
653.12	37996.26
653.26	37919.02
653.41	37851.14
653.55	37511.77
653.70	37614.75
653.84	37570.28
653.99	37326.86
654.13	37507.08
654.27	37736.46
654.42	37326.86
654.56	37525.81
654.71	37886.25
654.85	37479.00
655.00	37422.83
655.14	37359.63
655.29	36982.80
655.43	37464.96
655.57	37446.23
655.72	36781.52
655.86	37226.22
656.01	36985.15
656.15	37235.58
656.30	37329.20
656.44	37191.11
656.58	37163.03
656.73	36645.77
656.87	36931.31
657.01	36505.34
657.16	36882.16
657.30	36521.72
657.45	36287.67
657.59	36638.75
657.73	36854.08
657.88	36589.59
658.02	36669.17
658.16	36891.52
658.31	36849.39
658.45	37446.23
658.60	36825.99
658.74	36666.83
658.88	36840.03
659.03	36535.76
659.17	36486.61
659.31	36528.74
659.46	36367.24
659.60	36219.79
659.74	36521.72
659.89	36268.94
660.03	36437.46
660.17	36411.71
660.32	36217.45
660.46	36479.59
660.60	36648.11
660.74	36713.64
660.89	36322.77
661.03	36048.93
661.17	35981.06
661.32	35648.70
661.46	35622.95
661.60	35271.87
661.74	35840.62
661.89	35344.43
662.03	35819.56
662.17	35365.49
662.31	35260.17
662.46	35943.61
662.60	35468.48
662.74	35641.68
662.88	35655.72
663.03	34991.01
663.17	35503.59
663.31	35426.35
663.45	35295.28
663.60	35185.27
663.74	34885.68
663.88	35185.27
664.02	35136.12
664.17	34878.66
664.31	34911.43
664.45	34429.28
664.59	34965.26
664.73	34651.63
664.88	35093.99
665.02	34625.89
665.16	35096.33
665.30	34714.83
665.44	34576.73
665.59	33989.26
665.73	34274.80
665.87	34380.13
666.01	34078.20
666.15	34054.79
666.29	34560.35
666.44	34550.99
666.58	34099.26
666.72	33986.92
666.86	34150.76
667.00	34235.02
667.14	33975.22
667.28	33813.72
667.43	33408.81
667.57	33642.86
667.71	33841.81
667.85	33563.28
667.99	33495.41
668.13	33397.10
668.27	33074.11
668.41	33989.26
668.56	33448.60
668.70	33680.31
668.84	33427.53
668.98	33251.99
669.12	33109.22
669.26	33589.03
669.40	33493.07
669.54	33167.73
669.68	33254.33
669.82	33111.56
669.96	32816.65
670.10	32505.36
670.25	32685.58
670.39	32662.18
670.53	32912.61
670.67	32496.00
670.81	32996.87
670.95	32514.72
671.09	32655.15
671.23	32629.41
671.37	32708.99
671.51	32306.41
671.65	32191.73
671.79	31735.32
671.93	32046.62
672.07	32570.90
672.21	31857.03
672.35	31688.51
672.49	32189.39
672.63	31875.76
672.77	31615.96
672.91	31536.38
673.05	31564.46
673.19	31428.71
673.33	31412.33
673.47	31494.25
673.61	31197.00
673.75	30632.93
673.89	30967.63
674.03	30916.14
674.17	30675.06
674.31	31248.49
674.45	30845.92
674.59	30925.50
674.73	31246.15
674.87	30857.62
675.01	30888.05
675.15	31267.22
675.29	30672.72
675.43	30270.15
675.56	30682.08
675.70	30527.61
675.84	30267.81
675.98	29343.30
676.12	30206.95
676.26	29783.32
676.40	30094.61
676.54	29816.08
676.68	29860.55
676.82	29490.75
676.96	29757.57
677.10	29603.10
677.23	29380.74
677.37	29607.78
677.51	29319.89
677.65	29331.59
677.79	28856.46
677.93	28662.20
678.07	29214.57
678.21	28933.70
678.34	28762.84
678.48	28685.61
678.62	28723.05
678.76	28348.57
678.90	28189.41
679.04	28353.25
679.18	28409.42
679.31	28194.09
679.45	28161.33
679.59	27838.33
679.73	27730.67
679.87	27826.63
680.00	27742.37
680.14	27777.48
680.28	27707.26
680.42	27611.30
680.56	27463.85
680.70	27412.35
680.83	27316.39
680.97	26991.06
681.11	27103.40
681.25	26382.52
681.39	27182.98
681.52	26740.62
681.66	26855.31
681.80	26855.31
681.94	26628.27
682.07	26527.63
682.21	26426.99
682.35	26696.15
682.49	26504.23
682.62	26066.55
682.76	25961.22
682.90	26003.35
683.04	25895.69
683.17	25907.39
683.31	25905.05
683.45	26015.05
683.59	25614.82
683.72	25130.33
683.86	24926.71
684.00	25039.05
684.13	25675.68
684.27	25469.71
684.41	24814.36
684.55	24830.74
684.68	25156.08
684.82	24570.94
684.96	24400.08
685.09	24662.22
685.23	24781.59
685.37	24580.31
685.50	24528.81
685.64	24709.04
685.78	24299.44
685.91	24037.30
686.05	24133.26
686.19	23793.89
686.32	24137.94
686.46	23721.33
686.60	23494.30
686.73	23285.99
686.87	23487.28
687.01	23477.91
687.14	22843.63
687.28	22927.89
687.42	22869.37
687.55	22995.76
687.69	23208.75
687.82	23173.64
687.96	23040.23
688.10	22654.05
688.23	22738.30
688.37	22541.70
688.50	22188.28
688.64	22293.60
688.78	22029.12
688.91	22026.78
689.05	22309.99
689.18	22047.85
689.32	21654.64
689.46	21900.39
689.59	22286.58
689.73	21900.39
689.86	21628.89
690.00	21769.32
690.13	21886.35
690.27	21694.43
690.41	21198.23
690.54	21130.36
690.68	21111.63
690.81	20999.29
690.95	20877.58
691.08	21034.39
691.22	21312.92
691.35	20987.58
691.49	20886.94
691.62	21027.37
691.76	20999.29
691.89	20723.10
692.03	20437.56
692.16	20273.72
692.30	20032.65
692.43	20283.08
692.57	20315.85
692.70	20194.14
692.84	20039.67
692.97	19992.86
693.11	19805.61
693.24	19693.27
693.38	19576.24
693.51	19470.92
693.65	19501.34
693.78	19618.37
693.92	19185.37
694.05	19325.80
694.19	19129.20
694.32	19346.87
694.45	19293.04
694.59	18752.37
694.72	18895.14
694.86	18700.88
694.99	18972.38
695.13	18525.34
695.26	18581.51
695.39	18284.26
695.53	18338.10
695.66	18384.91
695.80	18384.91
695.93	18185.96
696.07	18319.37
696.20	18302.99
696.33	18043.19
696.47	17738.92
696.60	17980.00
696.73	17989.36
696.87	17905.10
697.00	17928.50
697.14	17715.51
697.27	17495.50
697.40	17406.56
697.54	17596.15
697.67	17350.39
697.80	17371.46
697.94	17336.35
698.07	17137.40
698.21	17226.34
698.34	17104.64
698.47	16659.93
698.61	16322.90
698.74	16556.95
698.87	16601.42
699.01	16327.58
699.14	16910.37
699.27	16563.97
699.40	16430.56
699.54	16318.22
699.67	16032.67
699.80	16404.81
699.94	15953.09
700.07	16091.18
700.20	16060.76
700.34	15726.06
700.47	15903.94
700.60	15868.83
700.73	15983.52
700.87	15885.22
701.00	15382.00
701.13	15513.07
701.26	15442.85
701.40	15611.37
701.53	15344.55
701.66	15077.73
701.79	15009.86
701.93	14848.36
702.06	14780.48
702.19	14911.55
702.32	15110.50
702.46	14801.55
702.59	14626.01
702.72	14768.78
702.85	14902.19
702.99	14754.74
703.12	14726.65
703.25	14843.68
703.38	14417.70
703.51	14274.93
703.65	14544.09
703.78	14251.52
703.91	13984.70
704.04	13874.70
704.17	14108.75
704.31	13717.88
704.44	13495.53
704.57	13692.13
704.70	13720.22
704.83	13558.72
704.96	13731.92
705.10	13558.72
705.23	13860.65
>>>>>End Processed Spectral Data<<<<<
