SpectraSuite Data File
++++++++++++++++++++++++++++++++++++
Date: Fri Oct 25 11:34:23 EDT 2013
User: price-jones
Dark Spectrum Present: No
Reference Spectrum Present: No
Number of Sampled Component Spectra: 1
Spectrometers: USB2+H05261
Integration Time (usec): 100000 (USB2+H05261)
Spectra Averaged: 1 (USB2+H05261)
Boxcar Smoothing: 0 (USB2+H05261)
Correct for Electrical Dark: No (USB2+H05261)
Strobe/Lamp Enabled: No (USB2+H05261)
Correct for Detector Non-linearity: No (USB2+H05261)
Correct for Stray Light: No (USB2+H05261)
Number of Pixels in Processed Spectrum: 2048
>>>>>Begin Processed Spectral Data<<<<<
365.73	341.72
365.92	341.72
366.12	341.72
366.32	159.16
366.52	217.67
366.72	100.64
366.91	81.92
367.11	210.65
367.31	152.13
367.51	145.11
367.70	161.50
367.90	121.71
368.10	194.26
368.30	147.45
368.49	182.56
368.69	294.91
368.89	175.54
369.09	135.75
369.28	212.99
369.48	266.82
369.68	257.46
369.87	259.80
370.07	243.42
370.27	304.27
370.47	355.76
370.66	531.30
370.86	477.47
371.06	571.09
371.25	507.90
371.45	449.38
371.65	510.24
371.84	535.98
372.04	554.71
372.24	587.47
372.44	610.88
372.63	561.73
372.83	571.09
373.03	568.75
373.22	594.50
373.42	587.47
373.62	662.37
373.81	676.41
374.01	617.90
374.21	610.88
374.40	610.88
374.60	692.80
374.79	664.71
374.99	702.16
375.19	702.16
375.38	587.47
375.58	636.63
375.78	648.33
375.97	681.10
376.17	683.44
376.37	667.05
376.56	662.37
376.76	622.58
376.95	737.27
377.15	688.12
377.35	669.39
377.54	692.80
377.74	615.56
377.93	669.39
378.13	669.39
378.33	683.44
378.52	627.26
378.72	674.07
378.91	704.50
379.11	697.48
379.31	725.57
379.50	667.05
379.70	711.52
379.89	657.69
380.09	755.99
380.28	692.80
380.48	683.44
380.68	699.82
380.87	667.05
381.07	723.23
381.26	748.97
381.46	755.99
381.65	784.08
381.85	744.29
382.04	763.01
382.24	788.76
382.43	798.12
382.63	772.38
382.83	706.84
383.02	744.29
383.22	807.48
383.41	779.40
383.61	816.85
383.80	807.48
384.00	821.53
384.19	751.31
384.39	793.44
384.58	772.38
384.78	866.00
384.97	809.83
385.17	788.76
385.36	858.98
385.56	755.99
385.75	842.59
385.95	805.14
386.14	819.19
386.34	821.53
386.53	837.91
386.72	807.48
386.92	802.80
387.11	875.36
387.31	915.15
387.50	847.27
387.70	844.93
387.89	882.38
388.09	835.57
388.28	866.00
388.48	826.21
388.67	915.15
388.86	877.70
389.06	915.15
389.25	933.87
389.45	957.28
389.64	901.11
389.84	908.13
390.03	938.55
390.22	999.41
390.42	966.64
390.61	950.26
390.81	901.11
391.00	924.51
391.19	1008.77
391.39	898.77
391.58	959.62
391.78	1034.52
391.97	961.96
392.16	1032.18
392.36	1076.65
392.55	1076.65
392.75	1022.81
392.94	997.07
393.13	1121.12
393.33	1027.50
393.52	1043.88
393.71	1102.39
393.91	1011.11
394.10	1053.24
394.29	1055.58
394.49	1069.62
394.68	1114.10
394.88	1111.75
395.07	1198.35
395.26	1090.69
395.46	1081.33
395.65	1177.29
395.84	1130.48
396.04	1266.23
396.23	1224.10
396.42	1198.35
396.62	1240.48
396.81	1268.57
397.00	1142.18
397.19	1109.41
397.39	1170.27
397.58	1196.01
397.77	1149.20
397.97	1207.72
398.16	1296.66
398.35	1214.74
398.55	1172.61
398.74	1306.02
398.93	1306.02
399.12	1188.99
399.32	1270.91
399.51	1238.14
399.70	1306.02
399.90	1348.15
400.09	1336.45
400.28	1380.92
400.47	1217.08
400.67	1390.28
400.86	1303.68
401.05	1348.15
401.24	1327.08
401.44	1390.28
401.63	1338.79
401.82	1420.71
402.01	1359.85
402.21	1350.49
402.40	1397.30
402.59	1434.75
402.78	1411.34
402.97	1359.85
403.17	1306.02
403.36	1474.54
403.55	1439.43
403.74	1636.03
403.93	1568.16
404.13	1586.88
404.32	1514.33
404.51	1519.01
404.70	1533.05
404.89	1652.42
405.09	1657.10
405.28	1612.63
405.47	1556.46
405.66	1582.20
405.85	1743.70
406.05	1640.72
406.24	1678.16
406.43	1715.61
406.62	1673.48
406.81	1842.00
407.00	1778.81
407.20	1701.57
407.39	1713.27
407.58	1713.27
407.77	1846.68
407.96	1867.75
408.15	1886.47
408.34	1834.98
408.54	1905.20
408.73	1877.11
408.92	1912.22
409.11	1877.11
409.30	1818.60
409.49	1877.11
409.68	1952.01
409.87	1963.71
410.07	2040.95
410.26	2008.18
410.45	1987.11
410.64	2062.01
410.83	2104.14
411.02	2083.08
411.21	2073.71
411.40	2197.76
411.59	2104.14
411.78	2113.50
411.98	2043.29
412.17	2176.70
412.36	2127.55
412.55	2176.70
412.74	2218.83
412.93	2279.68
413.12	2197.76
413.31	2382.67
413.50	2380.32
413.69	2289.04
413.88	2394.37
414.07	2448.20
414.26	2373.30
414.45	2366.28
414.64	2385.01
414.83	2403.73
415.02	2548.84
415.22	2527.78
415.41	2541.82
415.60	2567.57
415.79	2541.82
415.98	2722.04
416.17	2605.02
416.36	2719.70
416.55	2682.25
416.74	2794.60
416.93	2700.98
417.12	2595.65
417.31	2796.94
417.50	2862.48
417.69	2878.86
417.88	2841.41
418.07	2789.92
418.26	2885.88
418.45	2881.20
418.64	3021.63
418.83	2979.50
419.02	2883.54
419.21	3117.59
419.39	3052.06
419.58	2977.16
419.77	2986.52
419.96	3042.70
420.15	3045.04
420.34	2991.20
420.53	2944.39
420.72	3199.51
420.91	3129.30
421.10	3157.38
421.29	3117.59
421.48	3187.81
421.67	3110.57
421.86	3213.56
422.05	3103.55
422.24	3183.13
422.43	3304.84
422.61	3126.96
422.80	3272.07
422.99	3192.49
423.18	3276.75
423.37	3391.44
423.56	3309.52
423.75	3246.32
423.94	3206.53
424.13	3157.38
424.32	3236.96
424.50	3243.98
424.69	3265.05
424.88	3510.80
425.07	3431.23
425.26	3307.18
425.45	3323.56
425.64	3258.03
425.83	3286.11
426.01	3339.94
426.20	3295.47
426.39	3421.86
426.58	3314.20
426.77	3431.23
426.96	3307.18
427.15	3384.41
427.33	3389.10
427.52	3365.69
427.71	3541.23
427.90	3370.37
428.09	3522.51
428.28	3433.57
428.46	3480.38
428.65	3456.97
428.84	3726.13
429.03	3714.43
429.22	3648.90
429.40	3730.81
429.59	3480.38
429.78	3625.49
429.97	3597.40
430.16	3646.55
430.34	3681.66
430.53	3655.92
430.72	3749.54
430.91	3789.33
431.10	3786.99
431.28	3805.71
431.47	3894.65
431.66	3789.33
431.85	3843.16
432.03	3868.91
432.22	4084.23
432.41	4032.74
432.60	3920.40
432.79	3995.29
432.97	3838.48
433.16	3988.27
433.35	4004.66
433.54	3955.51
433.72	4131.05
433.91	3948.48
434.10	4028.06
434.28	4037.42
434.47	4114.66
434.66	4077.21
434.85	4196.58
435.03	4182.54
435.22	4142.75
435.41	4372.12
435.59	4259.78
435.78	4248.07
435.97	4152.11
436.16	4194.24
436.34	4210.62
436.53	4245.73
436.72	4294.88
436.90	4266.80
437.09	4325.31
437.28	4266.80
437.46	4447.02
437.65	4507.87
437.84	4353.40
438.02	4454.04
438.21	4404.89
438.40	4500.85
438.58	4475.10
438.77	4599.15
438.96	4720.86
439.14	4627.24
439.33	4692.77
439.52	4734.90
439.70	4737.24
439.89	4945.55
440.08	4908.10
440.26	4894.06
440.45	4774.69
440.63	4861.29
440.82	4940.87
441.01	5025.13
441.19	4863.63
441.38	5130.45
441.57	5048.54
441.75	5193.65
441.94	5270.89
442.12	5352.81
442.31	5259.18
442.50	5291.95
442.68	5210.03
442.87	5188.97
443.05	5289.61
443.24	5275.57
443.43	5144.50
443.61	5406.64
443.80	5476.85
443.98	5214.71
444.17	5139.82
444.35	5233.44
444.54	5341.10
444.73	5458.13
444.91	5376.21
445.10	5453.45
445.28	5455.79
445.47	5291.95
445.65	5416.00
445.84	5406.64
446.02	5593.88
446.21	5432.38
446.39	5448.77
446.58	5664.10
446.77	5582.18
446.95	5511.96
447.14	5598.56
447.32	5579.84
447.51	5556.43
447.69	5526.00
447.88	5551.75
448.06	5551.75
448.25	5490.90
448.43	5497.92
448.62	5657.07
448.80	5537.71
448.99	5540.05
449.17	5778.78
449.36	5820.91
449.54	5898.15
449.73	5874.74
449.91	5954.32
450.10	5930.92
450.28	6054.97
450.46	5900.49
450.65	5884.11
450.83	6047.94
451.02	5961.34
451.20	6099.44
451.39	5942.62
451.57	5863.04
451.76	5795.17
451.94	5998.79
452.13	6054.97
452.31	6047.94
452.49	5923.90
452.68	6171.99
452.86	5930.92
453.05	6190.72
453.23	6111.14
453.42	6054.97
453.60	6099.44
453.78	6303.06
453.97	6017.52
454.15	6167.31
454.34	6104.12
454.52	6274.98
454.70	6347.53
454.89	6377.96
455.07	6326.47
455.26	6436.47
455.44	6532.44
455.62	6466.90
455.81	6532.44
455.99	6544.14
456.17	6565.20
456.36	6590.95
456.54	6644.78
456.73	6731.38
456.91	6768.83
457.09	6705.63
457.28	6799.26
457.46	6665.85
457.64	6719.68
457.83	6801.60
458.01	6583.93
458.19	6855.43
458.38	6712.66
458.56	7016.93
458.74	6904.58
458.93	6810.96
459.11	6923.30
459.29	7138.63
459.48	7185.44
459.66	6935.01
459.84	6930.33
460.03	7112.89
460.21	7047.35
460.39	7136.29
460.57	7152.68
460.76	7337.58
460.94	7250.98
461.12	7382.05
461.31	7138.63
461.49	7236.94
461.67	7218.21
461.85	7426.52
462.04	7250.98
462.22	7588.02
462.40	7499.08
462.59	7356.30
462.77	7328.22
462.95	7492.05
463.13	7311.83
463.32	7386.73
463.50	7520.14
463.68	7541.21
463.86	7428.86
464.05	7676.96
464.23	7506.10
464.41	7793.98
464.59	7550.57
464.78	7906.33
464.96	7798.66
465.14	7581.00
465.32	7735.47
465.50	7721.43
465.69	7819.73
465.87	7707.38
466.05	7887.61
466.23	7850.16
466.41	7812.71
466.60	7974.21
466.78	7889.95
466.96	7859.52
467.14	7840.79
467.32	8051.44
467.51	7983.57
467.69	7796.32
467.87	8093.57
468.05	8231.66
468.23	8009.31
468.41	8032.72
468.60	8002.29
468.78	8161.45
468.96	8065.49
469.14	8215.28
469.32	8170.81
469.50	8147.40
469.69	8402.52
469.87	8400.18
470.05	8381.46
470.23	8496.14
470.41	8475.08
470.59	8692.75
470.77	8493.80
470.95	8652.96
471.14	8645.94
471.32	8507.85
471.50	8718.50
471.68	8802.75
471.86	8784.03
472.04	8741.90
472.22	9022.77
472.40	8772.33
472.58	8884.67
472.77	9144.47
472.95	9186.60
473.13	9324.69
473.31	9001.70
473.49	8964.25
473.67	9076.60
473.85	8987.66
474.03	9490.87
474.21	9303.63
474.39	9247.46
474.57	9458.10
474.75	9504.92
474.93	9631.30
475.12	9558.75
475.30	9600.88
475.48	9530.66
475.66	9692.16
475.84	9813.87
476.02	9813.87
476.20	9856.00
476.38	10040.90
476.56	10307.72
476.74	9961.32
476.92	10097.07
477.10	9856.00
477.28	10207.08
477.46	10272.61
477.64	10581.56
477.82	10490.28
478.00	10820.30
478.18	10731.36
478.36	10881.15
478.54	10691.57
478.72	10932.64
478.90	10944.34
479.08	11012.22
479.26	11424.15
479.44	11253.30
479.62	11393.73
479.80	11323.51
479.98	11386.71
480.16	11880.56
480.34	11627.78
480.52	11716.72
480.70	11908.65
480.88	11808.00
481.06	11815.02
481.24	11796.30
481.41	12037.38
481.59	12292.49
481.77	12212.92
481.95	12208.23
482.13	12681.02
482.31	12444.63
482.49	12844.86
482.67	12926.78
482.85	12903.37
483.03	13015.72
483.21	13273.18
483.39	13500.21
483.57	13380.84
483.74	13188.92
483.92	13420.63
484.10	13380.84
484.28	13750.65
484.46	14001.08
484.64	14005.77
484.82	13621.92
485.00	14155.56
485.18	14459.83
485.35	14480.89
485.53	14391.95
485.71	14401.32
485.89	14841.34
486.07	14773.46
486.25	14691.54
486.43	14988.79
486.61	14930.28
486.78	15428.81
486.96	15211.14
487.14	15438.17
487.32	15641.80
487.50	15648.82
487.68	15742.44
487.85	15967.13
488.03	16016.29
488.21	16519.50
488.39	16315.87
488.57	16493.76
488.75	16397.79
488.92	16872.92
489.10	17074.21
489.28	16842.50
489.46	17109.32
489.64	16798.02
489.81	17502.53
489.99	17408.90
490.17	17469.76
490.35	17851.27
490.53	17673.39
490.70	17996.38
490.88	17776.37
491.06	18122.77
491.24	18333.42
491.41	18272.56
491.59	18478.53
491.77	18487.89
491.95	18984.09
492.13	18862.38
492.30	18965.36
492.48	19021.53
492.66	18974.72
492.84	19323.46
493.01	19620.71
493.19	19447.51
493.37	19316.44
493.54	19363.25
493.72	19545.81
493.90	19854.76
494.08	19906.26
494.25	20290.10
494.43	20262.02
494.61	20229.25
494.79	20451.60
494.96	20250.32
495.14	20641.18
495.32	20671.61
495.49	21106.95
495.67	20711.40
495.85	21137.38
496.02	21324.62
496.20	21415.90
496.38	21326.96
496.55	21425.26
496.73	22097.00
496.91	21748.26
497.09	21984.65
497.26	21713.15
497.44	21706.13
497.62	22052.53
497.79	22298.28
497.97	22356.80
498.14	22508.93
498.32	22455.10
498.50	22878.74
498.67	22946.61
498.85	22778.09
499.03	23065.98
499.20	22923.21
499.38	23393.65
499.56	23278.97
499.73	23379.61
499.91	23243.86
500.08	23597.28
500.26	23508.34
500.44	23967.09
500.61	23648.77
500.79	23789.20
500.97	24191.78
501.14	24395.40
501.32	24222.20
501.49	24203.48
501.67	24407.11
501.84	24828.40
502.02	24828.40
502.20	24620.10
502.37	24645.84
502.55	24421.15
502.72	24879.89
502.90	25039.05
503.07	25015.65
503.25	24671.59
503.43	24748.82
503.60	25427.58
503.78	25568.01
503.95	25081.18
504.13	25420.56
504.30	25680.36
504.48	25766.96
504.65	25951.86
504.83	25795.04
505.01	26258.47
505.18	25811.43
505.36	26272.51
505.53	26258.47
505.71	25851.22
505.88	26162.51
506.06	26092.29
506.23	26349.75
506.41	26099.31
506.58	26714.87
506.76	26932.54
506.93	26920.84
507.11	27117.45
507.28	27014.46
507.46	27349.16
507.63	26827.22
507.81	27180.64
507.98	27208.73
508.16	27463.85
508.33	27377.25
508.50	27543.42
508.68	27351.50
508.85	27861.74
509.03	27786.84
509.20	27611.30
509.38	27946.00
509.55	28215.16
509.73	28278.35
509.90	28348.57
510.08	28465.60
510.25	28367.29
510.42	28070.04
510.60	28554.54
510.77	28769.86
510.95	29013.28
511.12	28671.56
511.30	28697.31
511.47	28989.88
511.64	28814.34
511.82	28975.83
511.99	28926.68
512.17	29303.51
512.34	28776.89
512.51	29675.65
512.69	29308.19
512.86	29544.58
513.04	29940.13
513.21	29694.38
513.38	30075.88
513.56	30078.22
513.73	29979.92
513.90	29776.30
514.08	29907.37
514.25	30316.96
514.43	30150.78
514.60	30092.27
514.77	30228.02
514.95	30576.76
515.12	30520.59
515.29	30096.95
515.47	30569.74
515.64	31065.93
515.81	30609.53
515.99	31115.08
516.16	31047.21
516.33	30991.03
516.51	31246.15
516.68	30740.60
516.85	31171.25
517.03	31054.23
517.20	31463.82
517.37	31101.04
517.54	31428.71
517.72	31199.34
517.89	31576.17
518.06	31491.91
518.24	31541.06
518.41	31503.61
518.58	31850.01
518.75	31660.43
518.93	31964.70
519.10	31899.16
519.27	32091.09
519.45	32299.39
519.62	32432.80
519.79	32079.38
519.96	32252.58
520.14	32835.38
520.31	31917.89
520.48	32627.07
520.65	33188.80
520.83	32861.12
521.00	33357.32
521.17	32957.08
521.34	33399.44
521.52	33036.66
521.69	33244.97
521.86	33488.38
522.03	33415.83
522.20	33907.34
522.38	33865.21
522.55	33736.48
522.72	33659.24
522.89	33879.25
523.07	34087.56
523.24	33970.54
523.41	33958.83
523.58	33741.16
523.75	34466.73
523.92	34164.80
524.10	33909.68
524.27	34127.35
524.44	34412.90
524.61	34174.16
524.78	34260.76
524.96	34506.52
525.13	34483.11
525.30	34419.92
525.47	34778.02
525.64	34391.83
525.81	35089.31
525.98	34583.76
526.16	35157.19
526.33	34747.59
526.50	35421.67
526.67	35239.11
526.84	35470.82
527.01	35299.96
527.18	35435.71
527.36	35363.15
527.53	35585.50
527.70	36058.29
527.87	35868.71
528.04	35445.07
528.21	35637.00
528.38	35337.41
528.55	35723.60
528.72	35456.78
528.89	35592.53
529.07	35896.80
529.24	35646.36
529.41	36140.21
529.58	36315.75
529.75	35817.22
529.92	35978.72
530.09	36400.01
530.26	36374.27
530.43	36388.31
530.60	35768.07
530.77	35995.10
530.94	36563.85
531.11	36364.90
531.28	36187.02
531.46	36795.56
531.63	36294.69
531.80	36435.12
531.97	36608.32
532.14	36802.58
532.31	36582.57
532.48	37230.90
532.65	37483.68
532.82	37043.66
532.99	36739.39
533.16	36814.29
533.33	37577.30
533.50	37544.53
533.67	36992.17
533.84	36531.08
534.01	37486.02
534.18	37088.13
534.35	37680.28
534.52	37633.47
534.69	37930.72
534.86	37755.18
535.03	37383.04
535.20	37867.53
535.37	38223.29
535.54	38122.65
535.71	38075.84
535.88	38155.41
536.05	37977.53
536.22	38352.02
536.38	38129.67
536.55	37989.24
536.72	37970.51
536.89	38239.67
537.06	38232.65
537.23	38045.41
537.40	38232.65
537.57	37970.51
537.74	38464.36
537.91	39082.27
538.08	38586.07
538.25	38178.82
538.42	38426.92
538.59	38979.28
538.75	38986.30
538.92	38941.83
539.09	38560.33
539.26	39203.97
539.43	38756.93
539.60	39150.14
539.77	38864.60
539.94	39187.59
540.11	39136.10
540.28	39152.48
540.44	39405.26
540.61	39164.18
540.78	38829.49
540.95	38770.97
541.12	39356.11
541.29	39297.59
541.46	39007.37
541.62	39491.86
541.79	39468.45
541.96	39297.59
542.13	39573.78
542.30	39590.16
542.47	39934.22
542.63	39615.91
542.80	39924.86
542.97	40264.24
543.14	40224.45
543.31	40161.25
543.48	40025.50
543.64	40601.27
543.81	40325.09
543.98	40369.56
544.15	40437.44
544.32	40257.21
544.48	40835.33
544.65	40367.22
544.82	40474.88
544.99	40243.17
545.16	40444.46
545.32	40514.67
545.49	40552.12
545.66	41031.93
545.83	41282.37
546.00	40751.07
546.16	40832.99
546.33	40765.11
546.50	40706.60
546.67	41258.96
546.83	40320.41
547.00	41053.00
547.17	41069.38
547.34	41160.66
547.50	40861.07
547.67	41368.97
547.84	41539.83
548.00	40947.67
548.17	41612.38
548.34	41558.55
548.51	41900.27
548.67	41397.06
548.84	41546.85
549.01	41535.15
549.18	41825.37
549.34	41874.52
549.51	42000.91
549.68	41975.17
549.84	41858.14
550.01	41914.31
550.18	41535.15
550.34	41766.86
550.51	42106.24
550.68	42045.38
550.84	41904.95
551.01	42000.91
551.18	41888.57
551.34	42103.90
551.51	42291.14
551.68	42244.33
551.84	42000.91
552.01	41942.40
552.18	42066.45
552.34	42532.22
552.51	42195.18
552.68	42426.89
552.84	42473.70
553.01	42476.04
553.18	42534.56
553.34	42529.87
553.51	42157.73
553.67	42686.69
553.84	43070.54
554.01	42721.80
554.17	42710.10
554.34	42813.08
554.51	42983.94
554.67	43210.97
554.84	42806.06
555.00	42674.99
555.17	42611.79
555.33	43136.07
555.50	43159.48
555.67	43217.99
555.83	43461.41
556.00	42836.48
556.16	43040.11
556.33	43215.65
556.50	43009.68
556.66	43208.63
556.83	43051.81
556.99	43363.11
557.16	43482.47
557.32	43110.33
557.49	43416.94
557.65	43283.53
557.82	43243.74
557.98	43552.69
558.15	43491.83
558.32	43325.66
558.48	43475.45
558.65	43540.99
558.81	43639.29
558.98	43697.80
559.14	43019.05
559.31	43196.93
559.47	43503.54
559.64	43669.72
559.80	43372.47
559.97	44058.24
560.13	43136.07
560.30	43899.09
560.46	44182.29
560.63	43929.51
560.79	44287.62
560.96	44172.93
561.12	44013.77
561.29	43648.65
561.45	44039.52
561.61	43976.33
561.78	43793.76
561.94	43690.78
562.11	43519.92
562.27	43796.10
562.44	44208.04
562.60	44346.13
562.77	44547.42
562.93	44006.75
563.10	44186.97
563.26	44362.51
563.42	44720.62
563.59	43831.21
563.75	44229.10
563.92	43988.03
564.08	44737.00
564.24	44491.24
564.41	43983.35
564.57	44222.08
564.74	44512.31
564.90	44528.69
565.07	44175.27
565.23	44514.65
565.39	44222.08
565.56	44472.52
565.72	44673.81
565.88	44458.48
566.05	44215.06
566.21	44662.10
566.38	44589.55
566.54	44435.07
566.70	44224.42
566.87	44594.23
567.03	44402.30
567.19	45010.84
567.36	44109.74
567.52	44818.92
567.68	45048.29
567.85	44479.54
568.01	44914.88
568.17	44308.68
568.34	44804.88
568.50	44795.51
568.66	44477.20
568.83	44545.08
568.99	44999.14
569.15	44678.49
569.32	44776.79
569.48	44563.80
569.64	45090.42
569.81	45099.78
569.97	45228.51
570.13	44648.06
570.30	44360.17
570.46	44825.94
570.62	45272.98
570.78	44973.39
570.95	44774.45
571.11	44999.14
571.27	45244.90
571.43	44706.57
571.60	44919.56
571.76	44589.55
571.92	45095.10
572.09	44643.38
572.25	45127.87
572.41	45008.50
572.57	44711.25
572.74	45586.61
572.90	45038.93
573.06	45319.79
573.22	45123.19
573.38	45141.91
573.55	45193.40
573.71	45523.42
573.87	45195.74
574.03	44964.03
574.20	45247.24
574.36	45216.81
574.52	45595.98
574.68	45024.89
574.84	45268.30
575.01	45034.25
575.17	45811.31
575.33	45366.60
575.49	45319.79
575.65	45390.01
575.82	45450.86
575.98	45483.63
576.14	45818.33
576.30	45390.01
576.46	45462.57
576.62	45219.15
576.79	45591.30
576.95	44603.59
577.11	44947.65
577.27	45738.75
577.43	45359.58
577.59	45455.54
577.75	45471.93
577.92	44847.00
578.08	45516.40
578.24	45247.24
578.40	45769.18
578.56	45588.95
578.72	45324.47
578.88	45666.19
579.04	45633.42
579.21	45418.10
579.37	45453.20
579.53	45523.42
579.69	45502.35
579.85	45439.16
580.01	45771.52
580.17	45511.72
580.33	45553.85
580.49	45364.26
580.65	45666.19
580.82	45408.73
580.98	44942.97
581.14	45303.41
581.30	45282.34
581.46	45305.75
581.62	45450.86
581.78	45532.78
581.94	45464.91
582.10	45432.14
582.26	45603.00
582.42	45698.96
582.58	45684.92
582.74	45446.18
582.90	45420.44
583.06	45759.81
583.22	45523.42
583.38	45167.66
583.54	45434.48
583.70	45549.17
583.86	45680.24
584.02	45617.04
584.18	45684.92
584.34	46157.70
584.50	45862.80
584.66	46174.09
584.82	45783.22
584.98	46138.98
585.14	45624.06
585.30	45284.68
585.46	45588.95
585.62	45535.12
585.78	45904.93
585.94	45598.32
586.10	45532.78
586.26	45478.95
586.42	45600.66
586.58	45867.48
586.74	45743.43
586.90	45708.32
587.06	45532.78
587.22	45511.72
587.38	45633.42
587.54	46206.86
587.70	45771.52
587.86	45661.51
588.02	45418.10
588.18	45750.45
588.34	45717.68
588.49	45787.90
588.65	45595.98
588.81	45387.67
588.97	45900.25
589.13	45804.28
589.29	45776.20
589.45	46183.45
589.61	45755.13
589.77	46326.22
589.93	45947.06
590.08	46124.94
590.24	46108.55
590.40	46216.22
590.56	46337.93
590.72	46106.21
590.88	45979.82
591.04	45823.01
591.20	46127.28
591.35	46216.22
591.51	46686.67
591.67	46092.17
591.83	45951.74
591.99	45771.52
592.15	46326.22
592.31	46218.56
592.46	45937.69
592.62	46307.50
592.78	46553.26
592.94	46316.86
593.10	46382.40
593.26	46534.53
593.41	46707.73
593.57	46344.95
593.73	46513.47
593.89	46522.83
594.05	46618.79
594.20	46646.88
594.36	46658.58
594.52	46541.55
594.68	46373.03
594.84	46246.65
594.99	46822.42
595.15	46038.34
595.31	46398.78
595.47	46066.42
595.62	45928.33
595.78	46326.22
595.94	46555.60
596.10	45872.16
596.25	46761.56
596.41	46808.37
596.57	46298.14
596.73	46801.35
596.88	46534.53
597.04	46431.55
597.20	46525.17
597.36	46766.24
597.51	46930.08
597.67	46307.50
597.83	46267.71
597.99	46473.68
598.14	46281.75
598.30	46333.24
598.46	46199.83
598.61	46586.02
598.77	46529.85
598.93	46660.92
599.09	46527.51
599.24	46887.95
599.40	46281.75
599.56	46649.22
599.71	46969.87
599.87	47496.49
600.03	46873.91
600.18	46665.60
600.34	46443.25
600.50	46616.45
600.65	46422.19
600.81	46480.70
600.97	46806.03
601.12	46796.67
601.28	46307.50
601.44	46497.08
601.59	46576.66
601.75	46288.77
601.91	46857.52
602.06	46389.42
602.22	46707.73
602.37	46731.14
602.53	46653.90
602.69	46263.03
602.84	46300.48
603.00	46232.60
603.16	46932.42
603.31	46440.91
603.47	46429.21
603.62	46742.84
603.78	47023.70
603.94	46398.78
604.09	46370.69
604.25	46880.93
604.40	46618.79
604.56	46780.29
604.71	46930.08
604.87	46314.52
605.03	46742.84
605.18	46454.95
605.34	46789.65
605.49	46298.14
605.65	46401.12
605.80	46197.49
605.96	46593.04
606.12	46415.16
606.27	46700.71
606.43	46562.62
606.58	46719.43
606.74	46265.37
606.89	46557.94
607.05	46604.75
607.20	46625.81
607.36	46457.29
607.51	46326.22
607.67	46387.08
607.82	46160.05
607.98	46155.36
608.13	46162.39
608.29	46295.80
608.44	46630.49
608.60	46557.94
608.75	46195.15
608.91	46415.16
609.06	45975.14
609.22	46337.93
609.37	46106.21
609.53	46773.27
609.68	46422.19
609.84	46108.55
609.99	46188.13
610.15	46326.22
610.30	46508.79
610.46	46277.07
610.61	46342.61
610.76	46153.02
610.92	46220.90
611.07	46014.93
611.23	45853.44
611.38	46036.00
611.54	46234.94
611.69	46153.02
611.84	46199.83
612.00	45865.14
612.15	45684.92
612.31	46202.18
612.46	45851.09
612.62	45502.35
612.77	45855.78
612.92	46504.10
613.08	45743.43
613.23	46003.23
613.39	45635.77
613.54	45883.86
613.69	45993.87
613.85	45970.46
614.00	45979.82
614.15	46146.00
614.31	45797.26
614.46	45642.79
614.62	45895.56
614.77	45867.48
614.92	45933.01
615.08	45516.40
615.23	46017.27
615.38	46043.02
615.54	45785.56
615.69	45897.91
615.84	45521.08
616.00	45944.72
616.15	45808.96
616.30	46096.85
616.46	45502.35
616.61	45724.71
616.76	46000.89
616.92	45570.23
617.07	45661.51
617.22	45698.96
617.37	44994.46
617.53	45542.14
617.68	45696.62
617.83	45703.64
617.99	45474.27
618.14	45525.76
618.29	45340.86
618.45	45350.22
618.60	45357.24
618.75	44971.05
618.90	44914.88
619.06	45811.31
619.21	45420.44
619.36	45628.74
619.51	45008.50
619.67	45429.80
619.82	45167.66
619.97	45219.15
620.12	45109.14
620.28	45102.12
620.43	45298.73
620.58	45165.32
620.73	45397.03
620.89	45567.89
621.04	45467.25
621.19	45158.30
621.34	44945.31
621.49	44636.36
621.65	45057.65
621.80	45256.60
621.95	45106.80
622.10	44987.44
622.25	44891.48
622.41	44992.12
622.56	44737.00
622.71	44849.35
622.86	45006.16
623.01	45322.13
623.16	44933.60
623.32	44615.29
623.47	44725.30
623.62	44753.38
623.77	44737.00
623.92	45233.19
624.07	44559.12
624.23	45076.38
624.38	44666.78
624.53	44760.40
624.68	44711.25
624.83	44573.16
624.98	44603.59
625.13	44540.39
625.29	44364.85
625.44	44575.50
625.59	44353.15
625.74	44186.97
625.89	44100.37
626.04	44154.21
626.19	44634.02
626.34	44404.64
626.49	44238.47
626.65	44287.62
626.80	44458.48
626.95	44030.16
627.10	44060.58
627.25	44264.21
627.40	44252.51
627.55	44074.63
627.70	43913.13
627.85	44339.11
628.00	44294.64
628.15	44069.95
628.30	43821.85
628.45	43777.38
628.60	43807.81
628.76	44369.54
628.91	43662.69
629.06	43578.43
629.21	43641.63
629.36	43728.23
629.51	43700.14
629.66	43845.26
629.81	43828.87
629.96	44004.41
630.11	43735.25
630.26	43650.99
630.41	43571.41
630.56	43449.70
630.71	43519.92
630.86	43316.29
631.01	43585.46
631.16	43482.47
631.31	43274.16
631.46	43323.32
631.61	43945.90
631.76	43765.68
631.91	43646.31
632.06	43592.48
632.21	43662.69
632.36	43522.26
632.51	43412.26
632.66	43615.88
632.81	43295.23
632.96	43480.13
633.10	42955.85
633.25	43412.26
633.40	43103.31
633.55	43548.01
633.70	43299.91
633.85	43030.75
634.00	42721.80
634.15	43253.10
634.30	42766.27
634.45	43194.59
634.60	43042.45
634.75	43360.76
634.90	42974.58
635.05	42803.72
635.19	42946.49
635.34	43070.54
635.49	42909.04
635.64	42572.00
635.79	42834.14
635.94	42829.46
636.09	43344.38
636.24	42497.11
636.39	42827.12
636.53	42934.79
636.68	42513.49
636.83	42281.78
636.98	42443.27
637.13	42281.78
637.28	42277.10
637.43	42141.35
637.57	42541.58
637.72	42579.03
637.87	42202.20
638.02	42890.32
638.17	42265.39
638.32	42480.72
638.46	42188.16
638.61	42043.04
638.76	42129.64
638.91	42234.97
639.06	42087.51
639.20	42206.88
639.35	42071.13
639.50	42148.37
639.65	42246.67
639.80	42050.06
639.94	42368.38
640.09	41682.60
640.24	42511.15
640.39	41680.26
640.54	41717.71
640.68	41970.49
640.83	42342.63
640.98	41933.04
641.13	42000.91
641.27	42040.70
641.42	42059.43
641.57	41989.21
641.72	41762.18
641.86	41666.22
642.01	41794.95
642.16	41471.95
642.31	41343.22
642.45	41509.40
642.60	41675.58
642.75	41537.49
642.90	41851.12
643.04	41638.13
643.19	41483.66
643.34	41235.56
643.48	40987.46
643.63	41095.13
643.78	41275.35
643.93	41902.61
644.07	41652.17
644.22	41567.91
644.37	41406.42
644.51	41851.12
644.66	41621.75
644.81	41174.70
644.95	41427.48
645.10	41181.73
645.25	40931.29
645.39	41567.91
645.54	41163.00
645.69	40741.71
645.83	40989.80
645.98	41181.73
646.13	40552.12
646.27	41652.17
646.42	40907.88
646.57	41006.19
646.71	41006.19
646.86	41160.66
647.00	41078.74
647.15	41188.75
647.30	40809.58
647.44	40832.99
647.59	40961.72
647.74	40664.47
647.88	40809.58
648.03	41057.68
648.17	41076.40
648.32	40734.68
648.47	41088.10
648.61	40821.28
648.76	41153.64
648.90	40570.85
649.05	40261.90
649.20	40409.35
649.34	40392.97
649.49	40479.57
649.63	40491.27
649.78	40783.83
649.92	40573.19
650.07	40891.50
650.21	40924.27
650.36	40886.82
650.51	40493.61
650.65	40683.19
650.80	40760.43
650.94	40652.76
651.09	40360.20
651.23	40147.21
651.38	39934.22
651.52	39927.20
651.67	39761.02
651.81	40201.04
651.96	40121.46
652.10	40044.23
652.25	39316.32
652.39	39770.38
652.54	40617.66
652.68	39934.22
652.83	39398.24
652.97	40034.86
653.12	40032.52
653.26	39878.05
653.41	39789.11
653.55	40479.57
653.70	40076.99
653.84	39915.50
653.99	40116.78
654.13	40282.96
654.27	39915.50
654.42	39775.06
654.56	39889.75
654.71	39936.56
654.85	39482.50
655.00	39924.86
655.14	39948.26
655.29	39817.19
655.43	39800.81
655.57	39707.19
655.72	39328.02
655.86	39519.95
656.01	39264.83
656.15	38937.15
656.30	39358.45
656.44	39026.09
656.58	39503.56
656.73	39592.50
656.87	39281.21
657.01	39136.10
657.16	39229.72
657.30	39222.70
657.45	39625.27
657.59	39105.67
657.73	38522.88
657.88	39042.48
658.02	39299.94
658.16	39360.79
658.31	39246.10
658.45	39615.91
658.60	38803.74
658.74	38810.76
658.88	39203.97
659.03	39016.73
659.17	38476.07
659.31	38354.36
659.46	38440.96
659.60	38873.96
659.74	38494.79
659.89	38457.34
660.03	38082.86
660.17	38522.88
660.32	38211.59
660.46	38117.96
660.60	37848.80
660.74	38237.33
660.89	38452.66
661.03	38384.79
661.17	38103.92
661.32	38029.02
661.46	37663.90
661.60	37902.64
661.74	38075.84
661.89	38169.46
662.03	38171.80
662.17	37612.41
662.31	37797.31
662.46	37710.71
662.60	37589.00
662.74	37308.14
662.88	37528.15
663.03	37500.06
663.17	37347.93
663.31	37357.29
663.45	37483.68
663.60	37343.25
663.74	37156.00
663.88	37598.37
664.02	37251.97
664.17	37699.01
664.31	37376.01
664.45	36938.33
664.59	37144.30
664.73	36987.49
664.88	37010.89
665.02	36652.79
665.16	36582.57
665.30	36683.22
665.44	37172.39
665.59	36685.56
665.73	36367.24
665.87	36414.05
666.01	36610.66
666.15	36610.66
666.29	36514.70
666.44	36507.68
666.58	35910.84
666.72	36088.72
666.86	36175.32
667.00	36004.46
667.14	35992.76
667.28	36102.76
667.43	36095.74
667.57	36100.42
667.71	36327.45
667.85	35903.82
667.99	36072.34
668.13	36243.20
668.27	35707.21
668.41	35192.30
668.56	35424.01
668.70	35119.74
668.84	34969.94
668.98	35276.55
669.12	35339.75
669.26	35021.44
669.40	34682.06
669.54	35267.19
669.68	34829.51
669.82	34803.77
669.96	34756.96
670.10	34361.40
670.25	34630.57
670.39	34927.81
670.53	34948.88
670.67	34684.40
670.81	34939.52
670.95	34771.00
671.09	34340.34
671.23	34515.88
671.37	34483.11
671.51	33827.76
671.65	34330.98
671.79	34117.99
671.93	33895.64
672.07	34354.38
672.21	34045.43
672.35	33469.66
672.49	34277.15
672.63	33921.38
672.77	33092.83
672.91	33986.92
673.05	33696.69
673.19	33092.83
673.33	33380.72
673.47	33436.89
673.61	32662.18
673.75	32936.02
673.89	32964.10
674.03	32451.53
674.17	32727.71
674.31	32570.90
674.45	32486.64
674.59	32701.96
674.73	32428.12
674.87	32283.01
675.01	32219.81
675.15	32189.39
675.29	31644.04
675.43	32039.59
675.56	32077.04
675.70	31948.31
675.84	31789.16
675.98	30955.93
676.12	31756.39
676.26	31814.90
676.40	31353.82
676.54	30909.11
676.68	31477.86
676.82	30852.94
676.96	31225.09
677.10	30920.82
677.23	30836.56
677.37	30658.68
677.51	30848.26
677.65	30682.08
677.79	30909.11
677.93	31271.90
678.07	30387.18
678.21	30534.63
678.34	30139.08
678.48	30237.38
678.62	30377.81
678.76	29851.19
678.90	29556.28
679.04	29771.61
679.18	30359.09
679.31	29659.27
679.45	29350.32
679.59	29216.91
679.73	29303.51
679.87	29359.68
680.00	29387.77
680.14	29457.98
680.28	28823.70
680.42	29113.92
680.56	28765.18
680.70	28437.51
680.83	28753.48
680.97	28339.21
681.11	28072.39
681.25	28341.55
681.39	28046.64
681.52	28322.82
681.66	28044.30
681.80	27709.60
681.94	27304.69
682.07	27253.20
682.21	27817.27
682.35	27552.79
682.49	27674.49
682.62	27599.60
682.76	27606.62
682.90	27637.05
683.04	27101.06
683.17	26977.01
683.31	26590.83
683.45	26803.82
683.59	26518.27
683.72	26312.30
683.86	26295.92
684.00	26335.71
684.13	26632.96
684.27	26363.79
684.41	26314.64
684.55	26515.93
684.68	25982.29
684.82	25813.77
684.96	25963.56
685.09	26078.25
685.23	25504.82
685.37	25731.85
685.50	26052.50
685.64	25947.18
685.78	25467.37
685.91	25387.79
686.05	25120.97
686.19	24687.97
686.32	25050.75
686.46	24346.25
686.60	24397.74
686.73	24514.77
686.87	24683.29
687.01	24643.50
687.14	24425.83
687.28	24177.73
687.42	24271.36
687.55	24374.34
687.69	24173.05
687.82	23674.52
687.96	24102.84
688.10	23838.36
688.23	23520.04
688.37	23742.39
688.50	24151.99
688.64	23311.74
688.78	23293.01
688.91	23278.97
689.05	23349.18
689.18	23227.48
689.32	22724.26
689.46	22754.69
689.59	22920.87
689.73	23002.78
689.86	23012.15
690.00	22649.36
690.13	22569.79
690.27	22249.13
690.41	22443.40
690.54	22190.62
690.68	22129.77
690.81	21891.03
690.95	21781.03
691.08	21867.63
691.22	21884.01
691.35	21699.11
691.49	21715.49
691.62	21523.57
691.76	21392.50
691.89	21128.02
692.03	20893.96
692.16	20917.37
692.30	20758.21
692.43	20753.53
692.57	20407.13
692.70	20475.01
692.84	20446.92
692.97	20051.37
693.11	20421.17
693.24	20301.81
693.38	20187.12
693.51	20037.33
693.65	19868.81
693.78	20196.48
693.92	19709.65
694.05	19742.42
694.19	19819.66
694.32	19644.12
694.45	19826.68
694.59	19665.18
694.72	20077.12
694.86	19543.47
694.99	19623.05
695.13	19239.20
695.26	19028.56
695.39	18925.57
695.53	18628.32
695.66	18782.80
695.80	18904.51
695.93	18806.20
696.07	18420.02
696.20	18176.60
696.33	18375.55
696.47	18302.99
696.60	18113.41
696.73	18471.51
696.87	18202.35
697.00	18178.94
697.14	17860.63
697.27	17816.16
697.40	17806.80
697.54	17685.09
697.67	17708.49
697.80	17575.08
697.94	17462.74
698.07	17441.67
698.21	17547.00
698.34	17317.62
698.47	17083.57
698.61	16552.27
698.74	16858.88
698.87	16772.28
699.01	16552.27
699.14	16620.14
699.27	16697.38
699.40	16425.88
699.54	16585.04
699.67	16325.24
699.80	16353.32
699.94	16278.43
700.07	16226.93
700.20	16212.89
700.34	15641.80
700.47	15992.88
700.60	16016.29
700.73	16018.63
700.87	15700.31
701.00	15475.62
701.13	15484.98
701.26	15543.50
701.40	15367.96
701.53	15115.18
701.66	15410.09
701.79	15119.86
701.93	15297.74
702.06	14930.28
702.19	14949.00
702.32	15119.86
702.46	14960.70
702.59	14572.18
702.72	14855.38
702.85	14721.97
702.99	14897.51
703.12	14773.46
703.25	14347.48
703.38	14122.79
703.51	14349.82
703.65	13994.06
703.78	14083.00
703.91	14143.86
704.04	13879.38
704.17	13872.36
704.31	14242.16
704.44	13785.76
704.57	14031.51
704.70	13692.13
704.83	13357.44
704.96	13404.25
705.10	13413.61
705.23	13245.09
>>>>>End Processed Spectral Data<<<<<
