SpectraSuite Data File
++++++++++++++++++++++++++++++++++++
Date: Fri Oct 25 11:34:47 EDT 2013
User: price-jones
Dark Spectrum Present: No
Reference Spectrum Present: No
Number of Sampled Component Spectra: 1
Spectrometers: USB2+H05261
Integration Time (usec): 100000 (USB2+H05261)
Spectra Averaged: 1 (USB2+H05261)
Boxcar Smoothing: 0 (USB2+H05261)
Correct for Electrical Dark: No (USB2+H05261)
Strobe/Lamp Enabled: No (USB2+H05261)
Correct for Detector Non-linearity: No (USB2+H05261)
Correct for Stray Light: No (USB2+H05261)
Number of Pixels in Processed Spectrum: 2048
>>>>>Begin Processed Spectral Data<<<<<
365.73	255.12
365.92	255.12
366.12	255.12
366.32	159.16
366.52	182.56
366.72	163.84
366.91	152.13
367.11	210.65
367.31	208.31
367.51	124.05
367.70	189.58
367.90	133.41
368.10	220.01
368.30	227.03
368.49	145.11
368.69	234.05
368.89	205.97
369.09	196.60
369.28	180.22
369.48	252.78
369.68	159.16
369.87	241.08
370.07	290.23
370.27	238.73
370.47	299.59
370.66	444.70
370.86	545.34
371.06	505.56
371.25	566.41
371.45	528.96
371.65	552.37
371.84	571.09
372.04	594.50
372.24	578.11
372.44	514.92
372.63	692.80
372.83	557.05
373.03	587.47
373.22	587.47
373.42	603.86
373.62	660.03
373.81	669.39
374.01	603.86
374.21	650.67
374.40	683.44
374.60	697.48
374.79	587.47
374.99	617.90
375.19	678.76
375.38	610.88
375.58	660.03
375.78	650.67
375.97	704.50
376.17	720.88
376.37	692.80
376.56	685.78
376.76	676.41
376.95	638.97
377.15	601.52
377.35	643.65
377.54	667.05
377.74	650.67
377.93	706.84
378.13	697.48
378.33	727.91
378.52	699.82
378.72	732.59
378.91	737.27
379.11	709.18
379.31	697.48
379.50	676.41
379.70	734.93
379.89	732.59
380.09	620.24
380.28	748.97
380.48	755.99
380.68	718.54
380.87	657.69
381.07	709.18
381.26	765.36
381.46	781.74
381.65	739.61
381.85	781.74
382.04	746.63
382.24	720.88
382.43	755.99
382.63	856.64
382.83	737.27
383.02	798.12
383.22	809.83
383.41	816.85
383.61	823.87
383.80	821.53
384.00	821.53
384.19	765.36
384.39	765.36
384.58	763.01
384.78	763.01
384.97	833.23
385.17	866.00
385.36	830.89
385.56	777.06
385.75	910.47
385.95	786.42
386.14	807.48
386.34	830.89
386.53	823.87
386.72	791.10
386.92	910.47
387.11	877.70
387.31	868.34
387.50	821.53
387.70	826.21
387.89	933.87
388.09	847.27
388.28	772.38
388.48	901.11
388.67	957.28
388.86	854.30
389.06	926.85
389.25	952.60
389.45	887.06
389.64	931.53
389.84	950.26
390.03	973.66
390.22	894.08
390.42	1008.77
390.61	968.98
390.81	961.96
391.00	980.68
391.19	912.81
391.39	896.43
391.58	1184.31
391.78	976.00
391.97	997.07
392.16	910.47
392.36	1006.43
392.55	1013.45
392.75	1057.92
392.94	952.60
393.13	1008.77
393.33	1022.81
393.52	1064.94
393.71	1022.81
393.91	1001.75
394.10	985.37
394.29	1050.90
394.49	1067.28
394.68	1062.60
394.88	1107.07
395.07	1114.10
395.26	1116.44
395.46	1039.20
395.65	1163.25
395.84	1158.57
396.04	1217.08
396.23	1135.16
396.42	1076.65
396.62	1151.54
396.81	1100.05
397.00	1165.59
397.19	1153.88
397.39	1156.22
397.58	1207.72
397.77	1163.25
397.97	1193.67
398.16	1256.87
398.35	1296.66
398.55	1172.61
398.74	1249.85
398.93	1331.76
399.12	1280.27
399.32	1301.34
399.51	1273.25
399.70	1315.38
399.90	1399.64
400.09	1320.06
400.28	1287.29
400.47	1341.13
400.67	1336.45
400.86	1345.81
401.05	1401.98
401.24	1296.66
401.44	1404.32
401.63	1444.11
401.82	1420.71
402.01	1460.49
402.21	1378.58
402.40	1364.53
402.59	1460.49
402.78	1390.28
402.97	1514.33
403.17	1521.35
403.36	1446.45
403.55	1500.28
403.74	1570.50
403.93	1521.35
404.13	1495.60
404.32	1568.16
404.51	1582.20
404.70	1629.01
404.89	1511.99
405.09	1619.65
405.28	1490.92
405.47	1558.80
405.66	1603.27
405.85	1570.50
406.05	1701.57
406.24	1617.31
406.43	1631.35
406.62	1650.08
406.81	1699.23
407.00	1675.82
407.20	1624.33
407.39	1671.14
407.58	1762.42
407.77	1842.00
407.96	1720.29
408.15	1710.93
408.34	1774.13
408.54	1769.44
408.73	1874.77
408.92	1764.76
409.11	1877.11
409.30	1830.30
409.49	1792.85
409.68	1970.73
409.87	1846.68
410.07	1952.01
410.26	1940.30
410.45	1973.07
410.64	1900.52
410.83	1984.77
411.02	2026.90
411.21	2073.71
411.40	2031.58
411.59	2141.59
411.78	2104.14
411.98	2160.31
412.17	2193.08
412.36	2155.63
412.55	2104.14
412.74	2195.42
412.93	2141.59
413.12	2289.04
413.31	2303.09
413.50	2392.03
413.69	2169.68
413.88	2361.60
414.07	2331.17
414.26	2443.52
414.45	2361.60
414.64	2431.82
414.83	2455.22
415.02	2408.41
415.22	2464.58
415.41	2492.67
415.60	2506.71
415.79	2544.16
415.98	2633.10
416.17	2565.23
416.36	2588.63
416.55	2581.61
416.74	2682.25
416.93	2630.76
417.12	2567.57
417.31	2766.51
417.50	2787.58
417.69	2829.71
417.88	2853.11
418.07	2846.09
418.26	2698.64
418.45	2878.86
418.64	2890.56
418.83	2939.71
419.02	2794.60
419.21	3047.38
419.39	2965.46
419.58	2869.50
419.77	2991.20
419.96	3035.67
420.15	3122.27
420.34	3021.63
420.53	3087.17
420.72	2995.89
420.91	3028.65
421.10	3042.70
421.29	3061.42
421.48	3173.77
421.67	3101.21
421.86	3014.61
422.05	3199.51
422.24	3131.64
422.43	3155.04
422.61	3143.34
422.80	3208.87
422.99	3265.05
423.18	3105.89
423.37	3365.69
423.56	3220.58
423.75	3236.96
423.94	3218.24
424.13	3033.33
424.32	3122.27
424.50	3405.48
424.69	3255.69
424.88	3375.05
425.07	3192.49
425.26	3260.37
425.45	3206.53
425.64	3246.32
425.83	3187.81
426.01	3478.04
426.20	3197.17
426.39	3290.79
426.58	3330.58
426.77	3258.03
426.96	3391.44
427.15	3337.60
427.33	3527.19
427.52	3400.80
427.71	3447.61
427.90	3403.14
428.09	3468.67
428.28	3456.97
428.46	3506.12
428.65	3471.01
428.84	3550.59
429.03	3583.36
429.22	3454.63
429.40	3625.49
429.59	3604.42
429.78	3590.38
429.97	3435.91
430.16	3494.42
430.34	3559.95
430.53	3705.07
430.72	3737.84
430.91	3728.47
431.10	3681.66
431.28	3648.90
431.47	3768.26
431.66	3784.65
431.85	3623.15
432.03	3824.44
432.22	3927.42
432.41	3829.12
432.60	3798.69
432.79	3791.67
432.97	3957.85
433.16	3999.98
433.35	3805.71
433.54	3964.87
433.72	3936.78
433.91	3901.67
434.10	3929.76
434.28	3946.14
434.47	4032.74
434.66	4053.81
434.85	4030.40
435.03	4049.13
435.22	3981.25
435.41	4320.63
435.59	4217.65
435.78	4107.64
435.97	4124.02
436.16	4107.64
436.34	4140.41
436.53	4170.83
436.72	4194.24
436.90	4126.36
437.09	4217.65
437.28	4194.24
437.46	4210.62
437.65	4306.59
437.84	4234.03
438.02	4407.23
438.21	4308.93
438.40	4318.29
438.58	4535.96
438.77	4468.08
438.96	4531.28
439.14	4692.77
439.33	4711.50
439.52	4566.39
439.70	4681.07
439.89	4762.99
440.08	4809.80
440.26	4774.69
440.45	4711.50
440.63	4807.46
440.82	4784.06
441.01	4760.65
441.19	4891.72
441.38	4971.30
441.57	4875.34
441.75	4940.87
441.94	4903.42
442.12	5193.65
442.31	5151.52
442.50	5144.50
442.68	5156.20
442.87	5205.35
443.05	5270.89
443.24	5266.21
443.43	5207.69
443.61	5074.28
443.80	5364.51
443.98	5242.80
444.17	5186.63
444.35	5324.72
444.54	5350.46
444.73	5441.75
444.91	5366.85
445.10	5392.59
445.28	5387.91
445.47	5348.12
445.65	5310.68
445.84	5483.88
446.02	5313.02
446.21	5366.85
446.39	5423.02
446.58	5565.79
446.77	5425.36
446.95	5212.37
447.14	5500.26
447.32	5352.81
447.51	5373.87
447.69	5458.13
447.88	5392.59
448.06	5453.45
448.25	5355.15
448.43	5390.25
448.62	5542.39
448.80	5404.30
448.99	5504.94
449.17	5607.92
449.36	5521.32
449.54	5638.35
449.73	5640.69
449.91	5767.08
450.10	5710.91
450.28	5921.56
450.46	5856.02
450.65	5841.98
450.83	5720.27
451.02	5584.52
451.20	5954.32
451.39	5989.43
451.57	5790.49
451.76	5783.46
451.94	5982.41
452.13	5825.59
452.31	6160.29
452.49	5905.17
452.68	5940.28
452.86	5916.87
453.05	5790.49
453.23	5905.17
453.42	6090.07
453.60	6071.35
453.78	6066.67
453.97	5973.05
454.15	5926.24
454.34	6171.99
454.52	6129.86
454.70	6181.35
454.89	6132.20
455.07	6221.14
455.26	6282.00
455.44	6197.74
455.62	6181.35
455.81	6298.38
455.99	6387.32
456.17	6349.87
456.36	6417.75
456.54	6368.60
456.73	6635.42
456.91	6635.42
457.09	6569.88
457.28	6672.87
457.46	6340.51
457.64	6670.53
457.83	6750.10
458.01	6600.31
458.19	6754.79
458.38	6745.42
458.56	6888.20
458.74	6897.56
458.93	6691.59
459.11	6850.75
459.29	6846.07
459.48	6813.30
459.66	6789.89
459.84	6974.80
460.03	7087.14
460.21	6981.82
460.39	7049.69
460.57	7054.37
460.76	7007.56
460.94	7164.38
461.12	7208.85
461.31	6995.86
461.49	6949.05
461.67	7014.59
461.85	7201.83
462.04	7145.66
462.22	7276.73
462.40	7213.53
462.59	7265.02
462.77	7194.81
462.95	7389.07
463.13	7417.16
463.32	7372.69
463.50	7487.37
463.68	7445.24
463.86	7520.14
464.05	7330.56
464.23	7452.27
464.41	7337.58
464.59	7489.71
464.78	7726.11
464.96	7503.76
465.14	7524.82
465.32	7751.85
465.50	7627.81
465.69	7714.41
465.87	7660.57
466.05	7611.42
466.23	7845.48
466.41	7592.70
466.60	7918.03
466.78	7639.51
466.96	7779.94
467.14	7793.98
467.32	7817.39
467.51	7934.42
467.69	7836.11
467.87	7943.78
468.05	7967.18
468.23	7805.69
468.41	8030.38
468.60	7896.97
468.78	7957.82
468.96	8161.45
469.14	8028.04
469.32	8114.64
469.50	8138.04
469.69	8318.26
469.87	8318.26
470.05	8243.37
470.23	8367.42
470.41	8266.77
470.59	8365.07
470.77	8229.32
470.95	8325.29
471.14	8498.49
471.32	8383.80
471.50	8444.65
471.68	8545.30
471.86	8482.10
472.04	8634.24
472.22	8940.85
472.40	8699.77
472.58	8620.19
472.77	8755.94
472.95	8765.31
473.13	9022.77
473.31	8917.44
473.49	8994.68
473.67	8933.82
473.85	9254.48
474.03	9259.16
474.21	9111.71
474.39	9221.71
474.57	9219.37
474.75	9341.08
474.93	9179.58
475.12	9415.98
475.30	9465.13
475.48	9387.89
475.66	9460.45
475.84	9701.52
476.02	9600.88
476.20	9643.01
476.38	9668.75
476.56	9867.70
476.74	9837.27
476.92	9888.76
477.10	9802.16
477.28	10122.82
477.46	10024.51
477.64	10118.14
477.82	10359.21
478.00	10464.54
478.18	10401.34
478.36	10359.21
478.54	10740.72
478.72	10813.28
478.90	10892.85
479.08	10932.64
479.26	10930.30
479.44	10944.34
479.62	11005.20
479.80	11103.50
479.98	11461.60
480.16	11585.65
480.34	11260.32
480.52	11459.26
480.70	11295.43
480.88	11314.15
481.06	11552.88
481.24	11646.51
481.41	11728.42
481.59	12116.95
481.77	11985.88
481.95	12285.47
482.13	12287.81
482.31	12231.64
482.49	12568.68
482.67	12692.73
482.85	12505.48
483.03	12716.13
483.21	12961.89
483.39	12959.55
483.57	12819.11
483.74	13118.70
483.92	13167.85
484.10	13188.92
484.28	13465.10
484.46	13565.74
484.64	14207.05
484.82	13575.11
485.00	13668.73
485.18	14031.51
485.35	14174.28
485.53	13970.66
485.71	14408.34
485.89	14544.09
486.07	14530.05
486.25	14263.22
486.43	14459.83
486.61	14967.73
486.78	15218.16
486.96	14848.36
487.14	15037.94
487.32	15433.49
487.50	15372.64
487.68	15571.58
487.85	15562.22
488.03	15662.86
488.21	15798.62
488.39	15960.11
488.57	16077.14
488.75	16362.69
488.92	16074.80
489.10	16465.67
489.28	16388.43
489.46	16720.79
489.64	16755.90
489.81	17301.24
489.99	16821.43
490.17	17298.90
490.35	17296.56
490.53	17118.68
490.70	17451.03
490.88	17425.29
491.06	17792.75
491.24	17736.58
491.41	17968.29
491.59	17961.27
491.77	17855.95
491.95	17975.31
492.13	18192.98
492.30	18260.86
492.48	18834.29
492.66	18586.19
492.84	18623.64
493.01	19021.53
493.19	19012.17
493.37	19112.81
493.54	19040.26
493.72	19517.73
493.90	19314.10
494.08	19475.60
494.25	19726.04
494.43	19562.20
494.61	20116.90
494.79	20229.25
494.96	20177.76
495.14	20217.55
495.32	20205.84
495.49	20353.30
495.67	20519.48
495.85	20428.20
496.02	20842.47
496.20	21174.83
496.38	21144.40
496.55	20980.56
496.73	21303.56
496.91	21500.16
497.09	21364.41
497.26	21656.98
497.44	21387.82
497.62	21874.65
497.79	21998.70
497.97	21848.90
498.14	21909.75
498.32	22359.14
498.50	22258.49
498.67	22707.88
498.85	22211.68
499.03	22588.51
499.20	22539.36
499.38	22686.81
499.56	22541.70
499.73	22810.86
499.91	23054.28
500.08	23250.88
500.26	23028.53
500.44	23241.52
500.61	23323.44
500.79	22834.27
500.97	23768.14
501.14	23955.38
501.32	23646.43
501.49	24011.56
501.67	23948.36
501.84	24187.10
502.02	23899.21
502.20	24133.26
502.37	24336.89
502.55	24058.37
502.72	24540.52
502.90	24334.55
503.07	24229.23
503.25	24374.34
503.43	24538.18
503.60	24634.14
503.78	24732.44
503.95	24643.50
504.13	24819.04
504.30	25060.12
504.48	25226.29
504.65	25142.03
504.83	25111.61
505.01	25357.36
505.18	25450.99
505.36	25888.67
505.53	25486.09
505.71	25610.14
505.88	25612.48
506.06	25781.00
506.23	26036.12
506.41	25645.25
506.58	26057.18
506.76	26054.84
506.93	26455.08
507.11	26668.06
507.28	26656.36
507.46	26593.17
507.63	26733.60
507.81	26909.14
507.98	26522.95
508.16	26656.36
508.33	26754.66
508.50	27201.71
508.68	27250.86
508.85	27110.43
509.03	26852.97
509.20	27147.87
509.38	27704.92
509.55	27239.15
509.73	27737.69
509.90	27655.77
510.08	27545.76
510.25	27756.41
510.42	27899.19
510.60	28182.39
510.77	28247.93
510.95	28079.41
511.12	28027.92
511.30	28180.05
511.47	28245.58
511.64	28208.14
511.82	28617.73
511.99	28669.22
512.17	28451.55
512.34	28379.00
512.51	28917.32
512.69	29010.94
512.86	28905.62
513.04	29219.25
513.21	29081.16
513.38	29270.74
513.56	29436.92
513.73	28975.83
513.90	29329.25
514.08	29481.39
514.25	29673.31
514.43	29593.73
514.60	29776.30
514.77	29771.61
514.95	29933.11
515.12	29509.47
515.29	29811.40
515.47	30256.11
515.64	30057.16
515.81	29893.32
515.99	30235.04
516.16	30403.56
516.33	30483.14
516.51	30747.62
516.68	30284.19
516.85	30251.42
517.03	30677.40
517.20	30817.83
517.37	30909.11
517.54	30958.27
517.72	30836.56
517.89	30689.10
518.06	31136.15
518.24	30721.87
518.41	31227.43
518.58	30909.11
518.75	31260.20
518.93	31166.57
519.10	30925.50
519.27	31051.89
519.45	31592.55
519.62	31503.61
519.79	31824.26
519.96	31438.08
520.14	31775.11
520.31	31552.76
520.48	31917.89
520.65	31859.37
520.83	32086.40
521.00	32664.52
521.17	32435.14
521.34	32116.83
521.52	32673.88
521.69	32617.71
521.86	32362.59
522.03	32596.64
522.20	32643.45
522.38	32795.59
522.55	32767.50
522.72	32957.08
522.89	33106.88
523.07	33439.23
523.24	32837.72
523.41	33436.89
523.58	32842.40
523.75	33048.36
523.92	33289.44
524.10	33064.75
524.27	33467.32
524.44	33579.67
524.61	33853.51
524.78	33699.03
524.96	33490.73
525.13	33542.22
525.30	33811.38
525.47	34363.75
525.64	34188.21
525.81	34274.80
525.98	34188.21
526.16	34066.50
526.33	34031.39
526.50	34637.59
526.67	33961.17
526.84	34066.50
527.01	34408.22
527.18	34494.82
527.36	34534.60
527.53	34504.18
527.70	34859.94
527.87	34948.88
528.04	34616.52
528.21	34881.00
528.38	34611.84
528.55	34780.36
528.72	34871.64
528.89	35030.80
529.07	35346.77
529.24	34820.15
529.41	35168.89
529.58	35171.23
529.75	35407.62
529.92	34925.47
530.09	35435.71
530.26	35297.62
530.43	35590.19
530.60	35578.48
530.77	35751.68
530.94	35285.92
531.11	35531.67
531.28	35690.83
531.46	35501.25
531.63	35711.89
531.80	35861.69
531.97	35725.94
532.14	36194.04
532.31	35775.09
532.48	35931.90
532.65	36404.69
532.82	36332.14
532.99	36512.36
533.16	36201.07
533.33	36486.61
533.50	36414.05
533.67	36392.99
533.84	36294.69
534.01	36535.76
534.18	36510.02
534.35	36774.50
534.52	37127.92
534.69	36788.54
534.86	37247.29
535.03	37046.00
535.20	37053.02
535.37	37376.01
535.54	37123.24
535.71	37010.89
535.88	37177.07
536.05	37296.44
536.22	37439.21
536.38	37163.03
536.55	37067.06
536.72	37273.03
536.89	36989.83
537.06	37413.46
537.23	37610.07
537.40	37350.27
537.57	37528.15
537.74	37254.31
537.91	37535.17
538.08	37921.36
538.25	37682.62
538.42	38003.28
538.59	37783.27
538.75	37806.67
538.92	37862.85
539.09	38487.77
539.26	38225.63
539.43	38256.06
539.60	38169.46
539.77	38300.53
539.94	38286.48
540.11	38010.30
540.28	38419.89
540.44	38270.10
540.61	38560.33
540.78	38192.86
540.95	38511.17
541.12	38733.53
541.29	38473.73
541.46	38632.88
541.62	38684.37
541.79	39189.93
541.96	38455.00
542.13	38291.16
542.30	38539.26
542.47	38595.43
542.63	39124.40
542.80	38986.30
542.97	39234.40
543.14	39274.19
543.31	39412.28
543.48	38801.40
543.64	39545.69
543.81	39496.54
543.98	39412.28
544.15	39639.31
544.32	39929.54
544.48	39512.92
544.65	39814.85
544.82	39770.38
544.99	39325.68
545.16	39707.19
545.32	39779.74
545.49	40084.01
545.66	40198.70
545.83	39810.17
546.00	39887.41
546.16	40102.74
546.33	40020.82
546.50	40046.57
546.67	40620.00
546.83	39803.15
547.00	40378.92
547.17	40030.18
547.34	39901.45
547.50	40474.88
547.67	41102.15
547.84	40573.19
548.00	40645.74
548.17	40521.69
548.34	40521.69
548.51	40561.48
548.67	40509.99
548.84	40662.13
549.01	40556.80
549.18	40840.01
549.34	40701.92
549.51	41106.83
549.68	40889.16
549.84	40727.66
550.01	40818.94
550.18	40509.99
550.34	40659.79
550.51	41242.58
550.68	41333.86
550.84	40964.06
551.01	41219.17
551.18	40924.27
551.34	41083.42
551.51	41123.21
551.68	41322.16
551.84	41088.10
552.01	41364.29
552.18	41392.37
552.34	41127.89
552.51	41467.27
552.68	41324.50
552.84	41507.06
553.01	41572.60
553.18	41511.74
553.34	41713.03
553.51	41261.30
553.67	41727.07
553.84	41914.31
554.01	41717.71
554.17	41296.41
554.34	41851.12
554.51	41408.76
554.67	42106.24
554.84	42216.24
555.00	41624.09
555.17	41378.33
555.33	42160.07
555.50	42281.78
555.67	42220.92
555.83	42096.88
556.00	42139.00
556.16	42885.64
556.33	41893.25
556.50	42270.08
556.66	42209.22
556.83	42080.49
556.99	42590.73
557.16	42576.69
557.32	42920.74
557.49	42419.87
557.65	42380.08
557.82	42473.70
557.98	42536.90
558.15	42656.26
558.32	42295.82
558.48	42466.68
558.65	42253.69
558.81	42389.44
558.98	42806.06
559.14	42731.16
559.31	42071.13
559.47	42572.00
559.64	42864.57
559.80	42546.26
559.97	42761.59
560.13	42220.92
560.30	42902.02
560.46	42972.24
560.63	43084.58
560.79	43199.27
560.96	43370.13
561.12	43278.85
561.29	43124.37
561.45	42944.15
561.61	43131.39
561.78	42930.11
561.94	42717.12
562.11	43019.05
562.27	42913.72
562.44	43126.71
562.60	43173.52
562.77	43365.45
562.93	43285.87
563.10	43646.31
563.26	43023.73
563.42	43824.19
563.59	43510.56
563.75	43510.56
563.92	42948.83
564.08	43292.89
564.24	43718.87
564.41	43384.17
564.57	43377.15
564.74	43533.96
564.90	43583.12
565.07	43423.96
565.23	43246.08
565.39	43430.98
565.56	43812.49
565.72	43742.27
565.88	43594.82
566.05	43592.48
566.21	43793.76
566.38	43477.79
566.54	43229.69
566.70	43686.10
566.87	43473.11
567.03	43615.88
567.19	43716.53
567.36	43604.18
567.52	43709.50
567.68	43852.28
567.85	43807.81
568.01	43868.66
568.17	43533.96
568.34	43805.47
568.50	43590.14
568.66	43615.88
568.83	43899.09
568.99	43903.77
569.15	43793.76
569.32	43768.02
569.48	43629.93
569.64	44081.65
569.81	44268.89
569.97	43929.51
570.13	44238.47
570.30	43859.30
570.46	43840.57
570.62	44470.18
570.78	44051.22
570.95	43761.00
571.11	44332.09
571.27	44041.86
571.43	43875.68
571.60	43910.79
571.76	43817.17
571.92	44025.48
572.09	44191.65
572.25	43772.70
572.41	44289.96
572.57	43782.06
572.74	44467.84
572.90	43938.88
573.06	44397.62
573.22	44439.75
573.38	44301.66
573.55	44395.28
573.71	44767.43
573.87	44261.87
574.03	43887.39
574.20	44540.39
574.36	44006.75
574.52	43997.39
574.68	44481.88
574.84	44423.37
575.01	44676.15
575.17	44304.00
575.33	44182.29
575.49	44252.51
575.65	44458.48
575.82	44369.54
575.98	44800.19
576.14	44236.12
576.30	44643.38
576.46	44456.14
576.62	43896.75
576.79	43997.39
576.95	44011.43
577.11	43835.89
577.27	44406.98
577.43	44292.30
577.59	44547.42
577.75	44364.85
577.92	44409.32
578.08	44224.42
578.24	44856.37
578.40	44514.65
578.56	44746.36
578.72	44514.65
578.88	44608.27
579.04	44402.30
579.21	44165.91
579.37	44348.47
579.53	44725.30
579.69	44418.69
579.85	44481.88
580.01	44175.27
580.17	44456.14
580.33	44694.87
580.49	44318.04
580.65	44067.61
580.82	44322.72
580.98	44521.67
581.14	44208.04
581.30	45099.78
581.46	44505.29
581.62	44390.60
581.78	44175.27
581.94	45127.87
582.10	44154.21
582.26	44914.88
582.42	44186.97
582.58	44839.98
582.74	44842.32
582.90	44524.01
583.06	44655.08
583.22	44353.15
583.38	44753.38
583.54	44776.79
583.70	44631.68
583.86	44802.53
584.02	44673.81
584.18	45193.40
584.34	44561.46
584.50	44980.42
584.66	44425.71
584.82	44893.82
584.98	45010.84
585.14	44542.74
585.30	44194.00
585.46	44966.37
585.62	44486.56
585.78	44531.03
585.94	44222.08
586.10	44926.58
586.26	44458.48
586.42	44470.18
586.58	44584.86
586.74	44844.66
586.90	44678.49
587.06	44608.27
587.22	44734.66
587.38	44322.72
587.54	44900.84
587.70	44744.02
587.86	44355.49
588.02	44893.82
588.18	45120.85
588.34	45205.11
588.49	44821.26
588.65	44959.35
588.81	44617.63
588.97	44849.35
589.13	44856.37
589.29	45071.70
589.45	45059.99
589.61	44926.58
589.77	44847.00
589.93	44788.49
590.08	44919.56
590.24	45038.93
590.40	45195.74
590.56	45141.91
590.72	45125.53
590.88	44809.56
591.04	45177.02
591.20	45081.06
591.35	45411.07
591.51	45404.05
591.67	44868.07
591.83	45448.52
591.99	44987.44
592.15	44985.10
592.31	45413.41
592.46	45162.98
592.62	45244.90
592.78	45415.76
592.94	45244.90
593.10	45256.60
593.26	45713.00
593.41	45109.14
593.57	45146.59
593.73	45418.10
593.89	45972.80
594.05	45818.33
594.20	45397.03
594.36	45914.29
594.52	45656.83
594.68	45560.87
594.84	45352.56
594.99	45553.85
595.15	45319.79
595.31	45251.92
595.47	45237.87
595.62	45298.73
595.78	45329.16
595.94	45415.76
596.10	45528.10
596.25	45525.76
596.41	45701.30
596.57	44968.71
596.73	45574.91
596.88	45408.73
597.04	45492.99
597.20	45502.35
597.36	45727.05
597.51	45579.59
597.67	45226.17
597.83	45495.33
597.99	45703.64
598.14	45200.43
598.30	45408.73
598.46	45411.07
598.61	46110.89
598.77	45368.94
598.93	45900.25
599.09	45418.10
599.24	45956.42
599.40	45500.01
599.56	45478.95
599.71	45635.77
599.87	45874.50
600.03	45654.49
600.18	45762.15
600.34	45586.61
600.50	45329.16
600.65	45441.50
600.81	46014.93
600.97	45940.04
601.12	45703.64
601.28	45694.28
601.44	45425.12
601.59	45813.65
601.75	45308.09
601.91	45830.03
602.06	45502.35
602.22	45483.63
602.37	45448.52
602.53	45902.59
602.69	45542.14
602.84	45780.88
603.00	45666.19
603.16	45689.60
603.31	45647.47
603.47	45666.19
603.62	45666.19
603.78	45666.19
603.94	45347.88
604.09	45872.16
604.25	45242.56
604.40	45801.94
604.56	45820.67
604.71	45998.55
604.87	45727.05
605.03	45806.62
605.18	45235.53
605.34	45806.62
605.49	45324.47
605.65	45511.72
605.80	45532.78
605.96	45537.46
606.12	45483.63
606.27	45523.42
606.43	45331.50
606.58	45535.12
606.74	45429.80
606.89	45303.41
607.05	45750.45
607.20	45783.22
607.36	45083.40
607.51	45443.84
607.67	45406.39
607.82	45272.98
607.98	45062.33
608.13	45455.54
608.29	45462.57
608.44	45628.74
608.60	45354.90
608.75	45542.14
608.91	45205.11
609.06	45249.58
609.22	45593.64
609.37	45324.47
609.53	45322.13
609.68	45701.30
609.84	45378.31
609.99	45509.38
610.15	45184.04
610.30	45738.75
610.46	45361.92
610.61	45228.51
610.76	45642.79
610.92	45109.14
611.07	44877.43
611.23	45111.49
611.38	45345.54
611.54	44971.05
611.69	45638.11
611.84	45574.91
612.00	45050.63
612.15	44870.41
612.31	45036.59
612.46	45057.65
612.62	45198.09
612.77	44900.84
612.92	44978.07
613.08	45092.76
613.23	44844.66
613.39	45120.85
613.54	44828.28
613.69	45083.40
613.85	44947.65
614.00	44875.09
614.15	45343.20
614.31	44697.21
614.46	44655.08
614.62	44542.74
614.77	44816.58
614.92	45020.20
615.08	44959.35
615.23	44519.33
615.38	44926.58
615.54	45041.27
615.69	44718.28
615.84	44561.46
616.00	44694.87
616.15	44933.60
616.30	44612.95
616.46	44198.68
616.61	44428.05
616.76	44655.08
616.92	44404.64
617.07	44516.99
617.22	44491.24
617.37	44612.95
617.53	44676.15
617.68	44362.51
617.83	44598.91
617.99	44484.22
618.14	45027.23
618.29	44416.35
618.45	44367.20
618.60	44535.71
618.75	43927.17
618.90	44060.58
619.06	44610.61
619.21	44179.95
619.36	44329.75
619.51	44025.48
619.67	44463.16
619.82	43929.51
619.97	44081.65
620.12	44404.64
620.28	44051.22
620.43	44278.25
620.58	43859.30
620.73	44437.41
620.89	44629.34
621.04	44233.78
621.19	43840.57
621.34	44559.12
621.49	43828.87
621.65	44076.97
621.80	44516.99
621.95	44046.54
622.10	44392.94
622.25	44119.10
622.41	43922.49
622.56	43978.67
622.71	43772.70
622.86	43817.17
623.01	44315.70
623.16	43976.33
623.32	43681.42
623.47	43573.75
623.62	43669.72
623.77	43875.68
623.92	43636.95
624.07	43508.22
624.23	43917.81
624.38	43833.55
624.53	43353.74
624.68	43810.15
624.83	43606.52
624.98	43545.67
625.13	43234.38
625.29	43040.11
625.44	43538.65
625.59	43391.19
625.74	43419.28
625.89	42925.42
626.04	43299.91
626.19	43512.90
626.34	42983.94
626.49	43391.19
626.65	43140.75
626.80	43295.23
626.95	42911.38
627.10	42817.76
627.25	43033.09
627.40	43016.71
627.55	43154.80
627.70	43140.75
627.85	43379.49
628.00	43370.13
628.15	43215.65
628.30	43112.67
628.45	42773.29
628.60	42564.98
628.76	42820.10
628.91	42815.42
629.06	42763.93
629.21	42986.28
629.36	43005.00
629.51	42595.41
629.66	42693.71
629.81	42948.83
629.96	43082.24
630.11	43058.84
630.26	42244.33
630.41	42576.69
630.56	42644.56
630.71	42560.30
630.86	42630.52
631.01	42431.57
631.16	42391.78
631.31	42267.73
631.46	42794.36
631.61	42897.34
631.76	42604.77
631.91	42527.53
632.06	42827.12
632.21	42979.26
632.36	42721.80
632.51	42225.60
632.66	42857.55
632.81	42347.31
632.96	42185.82
633.10	42134.32
633.25	42447.96
633.40	42363.70
633.55	42291.14
633.70	41855.80
633.85	42410.51
634.00	41816.01
634.15	41848.78
634.30	41975.17
634.45	42213.90
634.60	42176.45
634.75	41907.29
634.90	42220.92
635.05	42197.52
635.19	41888.57
635.34	41659.20
635.49	41584.30
635.64	42476.04
635.79	42270.08
635.94	42209.22
636.09	42274.76
636.24	41703.67
636.39	41844.10
636.53	41844.10
636.68	41507.06
636.83	41352.58
636.98	41214.49
637.13	41029.59
637.28	41460.25
637.43	41394.71
637.57	41387.69
637.72	41518.76
637.87	41071.72
638.02	41780.90
638.17	41588.98
638.32	41308.11
638.46	40933.63
638.61	41151.30
638.76	41247.26
638.91	41361.95
639.06	41359.61
639.20	40711.28
639.35	40795.54
639.50	41352.58
639.65	41291.73
639.80	41670.90
639.94	41134.92
640.09	41235.56
640.24	41158.32
640.39	40919.59
640.54	40725.32
640.68	41361.95
640.83	41181.73
640.98	40959.38
641.13	40966.40
641.27	41179.39
641.42	40809.58
641.57	40467.86
641.72	41055.34
641.86	40854.05
642.01	40514.67
642.16	40151.89
642.31	40339.13
642.45	40662.13
642.60	40509.99
642.75	40999.16
642.90	41163.00
643.04	40734.68
643.19	40762.77
643.34	40786.18
643.48	40374.24
643.63	40439.78
643.78	40566.16
643.93	41027.25
644.07	40921.93
644.22	40617.66
644.37	40617.66
644.51	40435.10
644.66	40734.68
644.81	40540.42
644.95	40346.15
645.10	40622.34
645.25	40444.46
645.39	39676.76
645.54	40385.94
645.69	40308.71
645.83	39864.00
645.98	40006.78
646.13	39761.02
646.27	39952.94
646.42	39831.24
646.57	40620.00
646.71	40203.38
646.86	40018.48
647.00	39845.28
647.15	40030.18
647.30	39901.45
647.44	39997.41
647.59	40172.96
647.74	39885.07
647.88	40177.64
648.03	40339.13
648.17	40240.83
648.32	39730.59
648.47	40371.90
648.61	39840.60
648.76	39398.24
648.90	39814.85
649.05	39803.15
649.20	39915.50
649.34	39737.62
649.49	39674.42
649.63	39756.34
649.78	39501.22
649.92	39414.62
650.07	40091.04
650.21	40051.25
650.36	39597.18
650.51	39798.47
650.65	40027.84
650.80	39569.10
650.94	39990.39
651.09	39487.18
651.23	39473.13
651.38	39564.42
651.52	39058.86
651.67	39321.00
651.81	39576.12
651.96	39557.39
652.10	39299.94
652.25	38799.06
652.39	39346.75
652.54	39122.05
652.68	39264.83
652.83	39054.18
652.97	39477.82
653.12	38785.02
653.26	38670.33
653.41	39035.45
653.55	38892.68
653.70	39054.18
653.84	39227.38
653.99	39276.53
654.13	39112.69
654.27	38639.90
654.42	38630.54
654.56	38656.29
654.71	39091.63
654.85	38916.09
655.00	38712.46
655.14	38600.12
655.29	38993.32
655.43	38969.92
655.57	38810.76
655.72	38333.29
655.86	38384.79
656.01	38183.50
656.15	38398.83
656.30	38656.29
656.44	38412.87
656.58	38443.30
656.73	38703.10
656.87	38066.47
657.01	37961.15
657.16	38349.68
657.30	38057.11
657.45	38352.02
657.59	37951.79
657.73	37982.21
657.88	38562.67
658.02	38246.69
658.16	38223.29
658.31	38242.01
658.45	38387.13
658.60	37984.55
658.74	38543.94
658.88	38363.72
659.03	38092.22
659.17	37813.70
659.31	37670.92
659.46	37394.74
659.60	38141.37
659.74	37610.07
659.89	37090.47
660.03	37266.01
660.17	37357.29
660.32	37647.52
660.46	37642.84
660.60	37085.79
660.74	37387.72
660.89	37853.48
661.03	37467.30
661.17	36980.46
661.32	36790.88
661.46	37586.66
661.60	36854.08
661.74	37268.35
661.89	37151.32
662.03	37109.19
662.17	36788.54
662.31	36507.68
662.46	36769.82
662.60	36734.71
662.74	35959.99
662.88	36437.46
663.03	36268.94
663.17	36208.09
663.31	36091.06
663.45	36959.40
663.60	36718.32
663.74	36392.99
663.88	36521.72
664.02	35789.13
664.17	36751.09
664.31	36191.70
664.45	35906.16
664.59	35842.96
664.73	36009.14
664.88	35896.80
665.02	35592.53
665.16	35810.20
665.30	35826.58
665.44	35714.23
665.59	35391.24
665.73	35395.92
665.87	35051.86
666.01	35887.43
666.15	35278.89
666.29	35498.91
666.44	35725.94
666.58	35454.44
666.72	35051.86
666.86	35108.04
667.00	35145.48
667.14	35042.50
667.28	34745.25
667.43	35199.32
667.57	35325.71
667.71	35115.06
667.85	35063.57
667.99	35023.78
668.13	34691.42
668.27	34735.89
668.41	34651.63
668.56	34007.98
668.70	34497.16
668.84	34244.38
668.98	34391.83
669.12	34848.24
669.26	34370.77
669.40	34031.39
669.54	34169.48
669.68	34485.45
669.82	34342.68
669.96	33762.23
670.10	33968.19
670.25	33724.78
670.39	34038.41
670.53	33865.21
670.67	33652.22
670.81	33942.45
670.95	33876.91
671.09	33558.60
671.23	33455.62
671.37	33769.25
671.51	33399.44
671.65	33043.68
671.79	33354.97
671.93	33584.35
672.07	33574.98
672.21	33085.81
672.35	33006.23
672.49	32891.55
672.63	33069.43
672.77	32531.11
672.91	32563.87
673.05	32493.66
673.19	32840.06
673.33	32540.47
673.47	32505.36
673.61	32165.98
673.75	32180.03
673.89	31871.07
674.03	31857.03
674.17	31873.42
674.31	31772.77
674.45	31648.72
674.59	31945.97
674.73	32004.49
674.87	31545.74
675.01	31363.18
675.15	31449.78
675.29	31260.20
675.43	31344.45
675.56	31250.83
675.70	31201.68
675.84	30831.88
675.98	30213.98
676.12	30944.22
676.26	30899.75
676.40	30724.21
676.54	30679.74
676.68	30459.73
676.82	30274.83
676.96	30742.94
677.10	30824.86
677.23	30218.66
677.37	30302.92
677.51	29851.19
677.65	30122.69
677.79	29989.28
677.93	29752.89
678.07	29352.66
678.21	29509.47
678.34	29198.18
678.48	29261.38
678.62	29177.12
678.76	29441.60
678.90	29060.09
679.04	29497.77
679.18	29111.58
679.31	28851.78
679.45	28849.44
679.59	28819.02
679.73	28484.32
679.87	28767.52
680.00	28758.16
680.14	28449.21
680.28	28294.74
680.42	28133.24
680.56	28142.60
680.70	28041.96
680.83	27625.34
680.97	27882.80
681.11	27775.14
681.25	27379.59
681.39	27896.85
681.52	27377.25
681.66	27033.19
681.80	26850.63
681.94	26719.56
682.07	27077.66
682.21	26761.69
682.35	26611.89
682.49	26843.60
682.62	26539.33
682.76	26747.64
682.90	26471.46
683.04	26300.60
683.17	26485.50
683.31	26136.76
683.45	26532.31
683.59	25956.54
683.72	25788.02
683.86	25804.41
684.00	25462.69
684.13	25656.95
684.27	25642.91
684.41	25336.30
684.55	25443.96
684.68	24936.07
684.82	25242.68
684.96	25216.93
685.09	24812.02
685.23	25142.03
685.37	25172.46
685.50	25256.72
685.64	24978.20
685.78	24584.99
685.91	24196.46
686.05	24535.84
686.19	24187.10
686.32	23805.59
686.46	24088.79
686.60	23557.49
686.73	24119.22
686.87	23740.05
687.01	23889.85
687.14	23960.06
687.28	23859.42
687.42	23939.00
687.55	23484.94
687.69	23477.91
687.82	23480.25
687.96	23136.20
688.10	23370.25
688.23	22970.02
688.37	23232.16
688.50	23398.34
688.64	22934.91
688.78	22731.28
688.91	22710.22
689.05	22759.37
689.18	22291.26
689.32	22108.70
689.46	22270.20
689.59	22078.27
689.73	22457.44
689.86	22204.66
690.00	22363.82
690.13	21994.01
690.27	21741.24
690.41	21818.47
690.54	21797.41
690.68	21490.80
690.81	21451.01
690.95	21109.29
691.08	21476.76
691.22	21270.79
691.35	21179.51
691.49	21053.12
691.62	20886.94
691.76	20676.29
691.89	20709.06
692.03	20362.66
692.16	20470.33
692.30	20460.96
692.43	20180.10
692.57	20084.14
692.70	20166.06
692.84	20306.49
692.97	19967.11
693.11	19948.39
693.24	19454.53
693.38	19601.99
693.51	19281.33
693.65	19482.62
693.78	19393.68
693.92	19606.67
694.05	19227.50
694.19	19152.60
694.32	19197.07
694.45	19374.95
694.59	19538.79
694.72	19152.60
694.86	18862.38
694.99	18892.80
695.13	18307.67
695.26	18551.09
695.39	18600.24
695.53	18242.14
695.66	18525.34
695.80	18494.91
695.93	18209.37
696.07	17998.72
696.20	17919.14
696.33	17708.49
696.47	17624.23
696.60	17575.08
696.73	17561.04
696.87	17860.63
697.00	17738.92
697.14	17322.30
697.27	17305.92
697.40	17296.56
697.54	17460.40
697.67	17298.90
697.80	17359.75
697.94	16973.56
698.07	17074.21
698.21	16870.58
698.34	17020.38
698.47	16627.17
698.61	16233.96
698.74	16374.39
698.87	16365.03
699.01	16350.98
699.14	16315.87
699.27	16329.92
699.40	16290.13
699.54	15740.10
699.67	16027.99
699.80	16343.96
699.94	16032.67
700.07	16135.65
700.20	15941.39
700.34	15669.89
700.47	15676.91
700.60	15602.01
700.73	15414.77
700.87	15281.36
701.00	15372.64
701.13	15332.85
701.26	15449.88
701.40	15096.46
701.53	14850.70
701.66	14710.27
701.79	14834.32
701.93	14649.41
702.06	14602.60
702.19	14665.80
702.32	14588.56
702.46	14644.73
702.59	14759.42
702.72	14569.83
702.85	14586.22
702.99	14462.17
703.12	14270.25
703.25	14246.84
703.38	13879.38
703.51	14097.05
703.65	13851.29
703.78	13933.21
703.91	13619.58
704.04	13525.96
704.17	13252.11
704.31	13310.63
704.44	13343.39
704.57	13327.01
704.70	13469.78
704.83	13266.16
704.96	13273.18
705.10	13025.08
705.23	12877.63
>>>>>End Processed Spectral Data<<<<<
