SpectraSuite Data File
++++++++++++++++++++++++++++++++++++
Date: Fri Oct 25 11:33:10 EDT 2013
User: price-jones
Dark Spectrum Present: No
Reference Spectrum Present: No
Number of Sampled Component Spectra: 1
Spectrometers: USB2+H05261
Integration Time (usec): 100000 (USB2+H05261)
Spectra Averaged: 1 (USB2+H05261)
Boxcar Smoothing: 0 (USB2+H05261)
Correct for Electrical Dark: No (USB2+H05261)
Strobe/Lamp Enabled: No (USB2+H05261)
Correct for Detector Non-linearity: No (USB2+H05261)
Correct for Stray Light: No (USB2+H05261)
Number of Pixels in Processed Spectrum: 2048
>>>>>Begin Processed Spectral Data<<<<<
365.73	325.33
365.92	325.33
366.12	325.33
366.32	156.82
366.52	119.37
366.72	245.76
366.91	159.16
367.11	210.65
367.31	107.66
367.51	201.29
367.70	131.07
367.90	154.48
368.10	180.22
368.30	135.75
368.49	156.82
368.69	212.99
368.89	229.37
369.09	173.20
369.28	229.37
369.48	271.50
369.68	210.65
369.87	215.33
370.07	168.52
370.27	287.89
370.47	294.91
370.66	458.74
370.86	435.34
371.06	528.96
371.25	608.54
371.45	580.45
371.65	526.62
371.84	561.73
372.04	634.29
372.24	620.24
372.44	575.77
372.63	683.44
372.83	650.67
373.03	627.26
373.22	657.69
373.42	636.63
373.62	589.82
373.81	674.07
374.01	580.45
374.21	688.12
374.40	606.20
374.60	596.84
374.79	552.37
374.99	620.24
375.19	669.39
375.38	683.44
375.58	695.14
375.78	692.80
375.97	681.10
376.17	734.93
376.37	624.92
376.56	697.48
376.76	664.71
376.95	713.86
377.15	678.76
377.35	657.69
377.54	709.18
377.74	720.88
377.93	763.01
378.13	711.52
378.33	732.59
378.52	613.22
378.72	720.88
378.91	676.41
379.11	674.07
379.31	720.88
379.50	681.10
379.70	734.93
379.89	730.25
380.09	758.33
380.28	727.91
380.48	704.50
380.68	695.14
380.87	791.10
381.07	800.46
381.26	795.78
381.46	770.04
381.65	770.04
381.85	746.63
382.04	837.91
382.24	765.36
382.43	748.97
382.63	723.23
382.83	849.61
383.02	812.17
383.22	844.93
383.41	835.57
383.61	774.72
383.80	854.30
384.00	802.80
384.19	814.51
384.39	805.14
384.58	770.04
384.78	847.27
384.97	875.36
385.17	919.83
385.36	908.13
385.56	826.21
385.75	812.17
385.95	910.47
386.14	837.91
386.34	763.01
386.53	854.30
386.72	882.38
386.92	812.17
387.11	858.98
387.31	915.15
387.50	835.57
387.70	905.79
387.89	957.28
388.09	894.08
388.28	933.87
388.48	863.66
388.67	966.64
388.86	919.83
389.06	924.51
389.25	950.26
389.45	919.83
389.64	971.32
389.84	950.26
390.03	961.96
390.22	976.00
390.42	943.24
390.61	961.96
390.81	936.21
391.00	931.53
391.19	954.94
391.39	1055.58
391.58	1053.24
391.78	922.17
391.97	985.37
392.16	1076.65
392.36	1041.54
392.55	985.37
392.75	1109.41
392.94	1107.07
393.13	1036.86
393.33	971.32
393.52	994.73
393.71	1046.22
393.91	1139.84
394.10	1095.37
394.29	1067.28
394.49	1137.50
394.68	1114.10
394.88	1109.41
395.07	1174.95
395.26	1095.37
395.46	1095.37
395.65	1191.33
395.84	1235.80
396.04	1263.89
396.23	1235.80
396.42	1263.89
396.62	1179.63
396.81	1247.51
397.00	1212.40
397.19	1299.00
397.39	1284.95
397.58	1238.14
397.77	1231.12
397.97	1277.93
398.16	1240.48
398.35	1362.19
398.55	1233.46
398.74	1343.47
398.93	1362.19
399.12	1359.85
399.32	1306.02
399.51	1291.98
399.70	1350.49
399.90	1343.47
400.09	1390.28
400.28	1404.32
400.47	1409.00
400.67	1427.73
400.86	1533.05
401.05	1455.81
401.24	1409.00
401.44	1427.73
401.63	1425.39
401.82	1432.41
402.01	1502.62
402.21	1446.45
402.40	1427.73
402.59	1502.62
402.78	1493.26
402.97	1509.65
403.17	1558.80
403.36	1549.43
403.55	1603.27
403.74	1687.53
403.93	1577.52
404.13	1671.14
404.32	1614.97
404.51	1586.88
404.70	1640.72
404.89	1528.37
405.09	1621.99
405.28	1708.59
405.47	1732.00
405.66	1834.98
405.85	1724.97
406.05	1729.66
406.24	1696.89
406.43	1781.15
406.62	1748.38
406.81	1851.36
407.00	1727.32
407.20	1722.63
407.39	1872.43
407.58	1914.56
407.77	1867.75
407.96	1884.13
408.15	1874.77
408.34	1947.33
408.54	1973.07
408.73	1888.81
408.92	1914.56
409.11	2122.87
409.30	2036.27
409.49	2019.88
409.68	2038.61
409.87	1914.56
410.07	1977.75
410.26	2047.97
410.45	2047.97
410.64	2099.46
410.83	2120.53
411.02	2188.40
411.21	2186.06
411.40	2118.18
411.59	2197.76
411.78	2167.34
411.98	2305.43
412.17	2282.02
412.36	2267.98
412.55	2387.35
412.74	2387.35
412.93	2321.81
413.12	2267.98
413.31	2349.90
413.50	2317.13
413.69	2457.56
413.88	2520.76
414.07	2499.69
414.26	2483.31
414.45	2502.03
414.64	2403.73
414.83	2644.81
415.02	2614.38
415.22	2719.70
415.41	2593.31
415.60	2612.04
415.79	2810.98
415.98	2684.59
416.17	2820.35
416.36	2729.06
416.55	2745.45
416.74	2715.02
416.93	2878.86
417.12	2843.75
417.31	2883.54
417.50	2869.50
417.69	2913.97
417.88	3033.33
418.07	2885.88
418.26	3023.97
418.45	3016.95
418.64	3068.44
418.83	2981.84
419.02	3087.17
419.21	3105.89
419.39	3101.21
419.58	3047.38
419.77	3166.74
419.96	3258.03
420.15	3251.00
420.34	3169.09
420.53	3162.06
420.72	3279.09
420.91	3300.16
421.10	3272.07
421.29	3295.47
421.48	3309.52
421.67	3335.26
421.86	3180.79
422.05	3288.45
422.24	3323.56
422.43	3342.28
422.61	3335.26
422.80	3449.95
422.99	3293.13
423.18	3445.27
423.37	3496.76
423.56	3440.59
423.75	3468.67
423.94	3349.31
424.13	3187.81
424.32	3262.71
424.50	3391.44
424.69	3541.23
424.88	3524.85
425.07	3445.27
425.26	3375.05
425.45	3398.46
425.64	3440.59
425.83	3424.20
426.01	3520.17
426.20	3625.49
426.39	3588.04
426.58	3475.70
426.77	3424.20
426.96	3637.19
427.15	3456.97
427.33	3599.74
427.52	3548.25
427.71	3604.42
427.90	3667.62
428.09	3754.22
428.28	3728.47
428.46	3758.90
428.65	3609.11
428.84	3850.18
429.03	3765.92
429.22	3658.26
429.40	3744.86
429.59	3791.67
429.78	3641.87
429.97	3651.24
430.16	3824.44
430.34	3948.48
430.53	3906.35
430.72	3875.93
430.91	3833.80
431.10	4042.11
431.28	3997.64
431.47	4039.76
431.66	3992.95
431.85	3950.82
432.03	4079.55
432.22	3988.27
432.41	3953.16
432.60	4070.19
432.79	4021.04
432.97	4189.56
433.16	4100.62
433.35	4168.49
433.54	4189.56
433.72	4299.56
433.91	4259.78
434.10	4372.12
434.28	4177.86
434.47	4203.60
434.66	4383.82
434.85	4409.57
435.03	4400.21
435.22	4329.99
435.41	4421.27
435.59	4360.42
435.78	4479.79
435.97	4505.53
436.16	4360.42
436.34	4461.06
436.53	4557.02
436.72	4535.96
436.90	4486.81
437.09	4468.08
437.28	4451.70
437.46	4557.02
437.65	4531.28
437.84	4624.90
438.02	4674.05
438.21	4657.67
438.40	4582.77
438.58	4816.82
438.77	4777.03
438.96	4795.76
439.14	4901.08
439.33	5085.98
439.52	4851.93
439.70	5060.24
439.89	5043.85
440.08	5043.85
440.26	4973.64
440.45	5027.47
440.63	5303.65
440.82	5305.99
441.01	5146.84
441.19	5277.91
441.38	5301.31
441.57	5210.03
441.75	5280.25
441.94	5390.25
442.12	5528.35
442.31	5465.15
442.50	5504.94
442.68	5537.71
442.87	5430.04
443.05	5399.62
443.24	5589.20
443.43	5650.05
443.61	5561.11
443.80	5806.87
443.98	5380.89
444.17	5413.66
444.35	5537.71
444.54	5827.93
444.73	5731.97
444.91	5614.95
445.10	5823.25
445.28	5710.91
445.47	5858.36
445.65	5643.03
445.84	5607.92
446.02	5818.57
446.21	5657.07
446.39	5736.65
446.58	5818.57
446.77	5884.11
446.95	5734.31
447.14	5771.76
447.32	5884.11
447.51	5771.76
447.69	5867.72
447.88	5696.86
448.06	5853.68
448.25	5785.80
448.43	5870.06
448.62	5706.23
448.80	5769.42
448.99	5877.09
449.17	6036.24
449.36	5963.68
449.54	5933.26
449.73	6087.73
449.91	6239.87
450.10	6012.84
450.28	6129.86
450.46	6190.72
450.65	6286.68
450.83	6153.27
451.02	6263.27
451.20	6211.78
451.39	6167.31
451.57	6300.72
451.76	6408.39
451.94	6188.38
452.13	6303.06
452.31	6258.59
452.49	6244.55
452.68	6352.21
452.86	6490.31
453.05	6483.28
453.23	6373.28
453.42	6511.37
453.60	6384.98
453.78	6490.31
453.97	6406.05
454.15	6511.37
454.34	6441.15
454.52	6614.35
454.70	6553.50
454.89	6705.63
455.07	6642.44
455.26	6722.02
455.44	6560.52
455.62	6731.38
455.81	6684.57
455.99	6808.62
456.17	6759.47
456.36	6792.23
456.54	6963.09
456.73	7073.10
456.91	7070.76
457.09	7183.10
457.28	7283.75
457.46	7047.35
457.64	7164.38
457.83	6899.90
458.01	7103.53
458.19	7363.33
458.38	7218.21
458.56	7318.86
458.74	7265.02
458.93	7258.00
459.11	7262.68
459.29	7344.60
459.48	7309.49
459.66	7344.60
459.84	7424.18
460.03	7454.61
460.21	7311.83
460.39	7529.50
460.57	7360.98
460.76	7410.14
460.94	7627.81
461.12	7482.69
461.31	7400.77
461.49	7728.45
461.67	7662.91
461.85	7740.15
462.04	7569.29
462.22	8210.60
462.40	7751.85
462.59	7829.09
462.77	7791.64
462.95	7676.96
463.13	7733.13
463.32	7843.14
463.50	7875.90
463.68	7999.95
463.86	7990.59
464.05	7995.27
464.23	7906.33
464.41	8013.99
464.59	7892.29
464.78	8112.30
464.96	8100.59
465.14	7983.57
465.32	8241.03
465.50	8168.47
465.69	8262.09
465.87	8035.06
466.05	8124.00
466.23	8325.29
466.41	8152.09
466.60	8379.12
466.78	8301.88
466.96	8290.18
467.14	8285.50
467.32	8376.78
467.51	8369.76
467.69	8264.43
467.87	8446.99
468.05	8617.85
468.23	8416.57
468.41	8346.35
468.60	8461.04
468.78	8589.77
468.96	8645.94
469.14	8655.30
469.32	8802.75
469.50	8620.19
469.69	8655.30
469.87	8924.46
470.05	8961.91
470.23	9083.62
470.41	8788.71
470.59	8910.42
470.77	8788.71
470.95	9046.17
471.14	9032.13
471.32	8973.61
471.50	9034.47
471.68	9132.77
471.86	9167.88
472.04	9235.75
472.22	9430.02
472.40	9362.14
472.58	9408.95
472.77	9362.14
472.95	9568.11
473.13	9811.53
473.31	9460.45
473.49	9549.39
473.67	9540.02
473.85	9572.79
474.03	9818.55
474.21	9851.31
474.39	9851.31
474.57	9968.34
474.75	9935.57
474.93	9989.41
475.12	9921.53
475.30	10061.96
475.48	10080.69
475.66	10223.46
475.84	10223.46
476.02	10141.54
476.20	10076.01
476.38	10483.26
476.56	10576.88
476.74	10539.43
476.92	10490.28
477.10	10487.94
477.28	10771.15
477.46	10874.13
477.64	11136.27
477.82	10972.43
478.00	11183.08
478.18	11140.95
478.36	11117.54
478.54	11389.05
478.72	11531.82
478.90	11576.29
479.08	11714.38
479.26	11803.32
479.44	11789.28
479.62	11960.14
479.80	12051.42
479.98	12159.08
480.16	12374.41
480.34	12170.79
480.52	12610.81
480.70	12374.41
480.88	12425.90
481.06	12727.83
481.24	12531.23
481.41	12685.70
481.59	12875.29
481.77	12959.55
481.95	13336.37
482.13	13092.96
482.31	13144.45
482.49	13434.68
482.67	13310.63
482.85	13352.76
483.03	13825.54
483.21	13734.26
483.39	14024.49
483.57	14057.26
483.74	14090.02
483.92	14033.85
484.10	14108.75
484.28	14366.21
484.46	14806.23
484.64	14785.16
484.82	14574.52
485.00	14857.72
485.18	15119.86
485.35	15344.55
485.53	15185.40
485.71	15618.39
485.89	15630.10
486.07	15339.87
486.25	15517.75
486.43	15515.41
486.61	15723.72
486.78	15920.32
486.96	16065.44
487.14	16477.37
487.32	16549.93
487.50	16594.40
487.68	16460.99
487.85	16669.30
488.03	17032.08
488.21	17013.35
488.39	17216.98
488.57	17535.29
488.75	17378.48
488.92	17436.99
489.10	17736.58
489.28	17912.12
489.46	18192.98
489.64	17612.53
489.81	18347.46
489.99	18520.66
490.17	18429.38
490.35	18560.45
490.53	18691.52
490.70	18637.69
490.88	18682.16
491.06	19047.28
491.24	18916.21
491.41	19220.48
491.59	19524.75
491.77	19707.31
491.95	19803.27
492.13	19962.43
492.30	19735.40
492.48	20030.30
492.66	19840.72
492.84	20051.37
493.01	20250.32
493.19	20156.69
493.37	20648.21
493.54	20194.14
493.72	20947.79
493.90	20842.47
494.08	21135.04
494.25	21144.40
494.43	21067.16
494.61	21570.38
494.79	21439.31
494.96	21919.12
495.14	21701.45
495.32	22211.68
495.49	22089.98
495.67	22061.89
495.85	22150.83
496.02	22363.82
496.20	22497.23
496.38	22714.90
496.55	22607.23
496.73	22705.54
496.91	23005.13
497.09	23278.97
497.26	22808.52
497.44	23480.25
497.62	23201.73
497.79	23695.58
497.97	23564.51
498.14	23819.63
498.32	24074.75
498.50	24034.96
498.67	24201.14
498.85	24102.84
499.03	24053.69
499.20	24666.91
499.38	24470.30
499.56	24320.51
499.73	24840.11
499.91	24802.66
500.08	25111.61
500.26	25017.99
500.44	25062.46
500.61	24680.95
500.79	25181.82
500.97	25504.82
501.14	25483.75
501.32	25422.90
501.49	26029.10
501.67	25687.38
501.84	25982.29
502.02	25879.30
502.20	25977.61
502.37	25867.60
502.55	26001.01
502.72	25982.29
502.90	26141.44
503.07	26412.95
503.25	26415.29
503.43	25898.03
503.60	27082.34
503.78	26801.47
503.95	27056.59
504.13	27000.42
504.30	27117.45
504.48	26778.07
504.65	26941.91
504.83	27267.24
505.01	27562.15
505.18	27587.89
505.36	27669.81
505.53	27440.44
505.71	27594.92
505.88	27735.35
506.06	27660.45
506.23	27894.50
506.41	27718.96
506.58	27716.62
506.76	28292.40
506.93	27896.85
507.11	28168.35
507.28	28503.04
507.46	28451.55
507.63	28531.13
507.81	28837.74
507.98	28811.99
508.16	28638.80
508.33	29085.84
508.50	28767.52
508.68	28835.40
508.85	29397.13
509.03	28863.49
509.20	29296.49
509.38	29584.37
509.55	29343.30
509.73	29333.93
509.90	29654.59
510.08	29825.45
510.25	29998.65
510.42	29923.75
510.60	29666.29
510.77	30576.76
510.95	30672.72
511.12	30380.15
511.30	30263.13
511.47	30733.57
511.64	30625.91
511.82	30672.72
511.99	30576.76
512.17	30906.77
512.34	30789.75
512.51	30883.37
512.69	31435.74
512.86	30869.33
513.04	31445.10
513.21	31012.10
513.38	31704.90
513.56	31475.52
513.73	31744.69
513.90	31611.28
514.08	31527.02
514.25	32070.02
514.43	31875.76
514.60	31747.03
514.77	32173.00
514.95	32058.32
515.12	31978.74
515.29	31850.01
515.47	32376.63
515.64	32629.41
515.81	32505.36
515.99	32357.91
516.16	32933.68
516.33	32472.59
516.51	32793.25
516.68	32797.93
516.85	32788.56
517.03	33202.84
517.20	32851.76
517.37	33376.04
517.54	33085.81
517.72	33053.05
517.89	33436.89
518.06	33373.70
518.24	33160.71
518.41	33390.08
518.58	33823.08
518.75	33450.94
518.93	33806.70
519.10	33373.70
519.27	34157.78
519.45	33804.36
519.62	34216.29
519.79	34256.08
519.96	34328.64
520.14	34356.72
520.31	33893.30
520.48	34426.94
520.65	34520.56
520.83	34796.74
521.00	34656.31
521.17	34431.62
521.34	34705.46
521.52	34829.51
521.69	34892.71
521.86	35164.21
522.03	35047.18
522.20	35332.73
522.38	35662.74
522.55	35622.95
522.72	35428.69
522.89	35358.47
523.07	35695.51
523.24	35611.25
523.41	35569.12
523.58	35257.83
523.75	36397.67
523.92	35529.33
524.10	35805.52
524.27	36189.36
524.44	36252.56
524.61	36245.54
524.78	36067.66
524.96	36589.59
525.13	36500.65
525.30	36575.55
525.47	36591.94
525.64	36591.94
525.81	36854.08
525.98	36840.03
526.16	36802.58
526.33	36453.84
526.50	36851.73
526.67	36961.74
526.84	36964.08
527.01	37074.09
527.18	37158.34
527.36	37268.35
527.53	37219.20
527.70	37628.79
527.87	37493.04
528.04	37500.06
528.21	37354.95
528.38	37670.92
528.55	37638.15
528.72	37652.20
528.89	37617.09
529.07	37383.04
529.24	37553.90
529.41	37736.46
529.58	37996.26
529.75	37706.03
529.92	38096.90
530.09	38117.96
530.26	38249.03
530.43	38478.41
530.60	37914.34
530.77	38316.91
530.94	38396.49
531.11	38298.19
531.28	38565.01
531.46	38513.52
531.63	38422.23
531.80	38656.29
531.97	38925.45
532.14	38749.91
532.31	38518.20
532.48	39033.11
532.65	38871.62
532.82	38953.54
532.99	39002.69
533.16	38712.46
533.33	39178.23
533.50	39412.28
533.67	39393.56
533.84	38836.51
534.01	39283.55
534.18	38967.58
534.35	39974.01
534.52	39866.34
534.69	39950.60
534.86	39952.94
535.03	39573.78
535.20	39763.36
535.37	39746.98
535.54	39901.45
535.71	39821.87
535.88	39814.85
536.05	39615.91
536.22	40285.30
536.38	39910.82
536.55	40062.95
536.72	40037.20
536.89	40289.98
537.06	40343.81
537.23	40828.30
537.40	40285.30
537.57	40271.26
537.74	40243.17
537.91	40676.17
538.08	40486.59
538.25	40650.42
538.42	40879.80
538.59	40999.16
538.75	40727.66
538.92	40648.08
539.09	40940.65
539.26	40699.58
539.43	41048.32
539.60	41097.47
539.77	40730.00
539.94	41198.11
540.11	41045.97
540.28	41441.53
540.44	41303.43
540.61	41418.12
540.78	41031.93
540.95	41020.23
541.12	41486.00
541.29	41132.57
541.46	41209.81
541.62	41539.83
541.79	41766.86
541.96	41642.81
542.13	41874.52
542.30	41516.42
542.47	42040.70
542.63	41867.50
542.80	42078.15
542.97	42335.61
543.14	42492.43
543.31	42487.74
543.48	42103.90
543.64	42712.44
543.81	42806.06
543.98	42265.39
544.15	42354.33
544.32	42602.43
544.48	43129.05
544.65	42560.30
544.82	42906.70
544.99	42373.06
545.16	43007.34
545.32	42607.11
545.49	42967.55
545.66	43166.50
545.83	43192.25
546.00	43164.16
546.16	43070.54
546.33	43105.65
546.50	42869.25
546.67	43005.00
546.83	42623.50
547.00	43203.95
547.17	43358.42
547.34	42904.36
547.50	43426.30
547.67	44098.03
547.84	43384.17
548.00	43648.65
548.17	43838.23
548.34	43573.75
548.51	43896.75
548.67	44137.82
548.84	43330.34
549.01	43351.40
549.18	43526.94
549.34	43861.64
549.51	44032.50
549.68	44313.36
549.84	43611.20
550.01	43899.09
550.18	43721.21
550.34	44006.75
550.51	43892.07
550.68	43875.68
550.84	43842.92
551.01	44013.77
551.18	43665.03
551.34	44275.91
551.51	44414.01
551.68	44259.53
551.84	44037.18
552.01	44322.72
552.18	44453.79
552.34	44526.35
552.51	45184.04
552.68	44470.18
552.84	44751.04
553.01	45029.57
553.18	44074.63
553.34	45155.96
553.51	44676.15
553.67	45102.12
553.84	44989.78
554.01	44971.05
554.17	44690.19
554.34	45242.56
554.51	44781.47
554.67	45457.88
554.84	45095.10
555.00	44954.67
555.17	44779.13
555.33	45200.43
555.50	44772.11
555.67	45280.00
555.83	45446.18
556.00	45130.21
556.16	45738.75
556.33	44931.26
556.50	45214.47
556.66	45558.53
556.83	45036.59
556.99	45947.06
557.16	45617.04
557.32	45469.59
557.49	45450.86
557.65	45401.71
557.82	45270.64
557.98	45631.08
558.15	45720.02
558.32	45633.42
558.48	45546.82
558.65	45633.42
558.81	45509.38
558.98	45635.77
559.14	45696.62
559.31	45890.88
559.47	45961.10
559.64	45823.01
559.80	46138.98
559.97	46071.10
560.13	46129.62
560.30	45467.25
560.46	46094.51
560.63	46312.18
560.79	46520.49
560.96	46134.30
561.12	46064.08
561.29	46553.26
561.45	46223.24
561.61	46143.66
561.78	45785.56
561.94	45579.59
562.11	45876.84
562.27	45827.69
562.44	46052.38
562.60	46316.86
562.77	46202.18
562.93	45989.19
563.10	46600.07
563.26	46436.23
563.42	46852.84
563.59	46375.37
563.75	46127.28
563.92	46440.91
564.08	46230.26
564.24	46349.63
564.41	46681.98
564.57	46518.15
564.74	46590.70
564.90	46300.48
565.07	46342.61
565.23	46707.73
565.39	46939.44
565.56	46686.67
565.72	46447.93
565.88	46513.47
566.05	46209.20
566.21	46628.15
566.38	46742.84
566.54	47091.58
566.70	46934.76
566.87	46637.51
567.03	46438.57
567.19	46731.14
567.36	46511.13
567.52	46543.89
567.68	47412.23
567.85	46796.67
568.01	46967.53
568.17	47187.54
568.34	47194.56
568.50	47004.98
568.66	46717.09
568.83	46909.02
568.99	46658.58
569.15	47075.19
569.32	46384.74
569.48	46831.78
569.64	46876.25
569.81	46983.91
569.97	47051.79
570.13	47182.86
570.30	46782.63
570.46	46569.64
570.62	47213.29
570.78	46958.17
570.95	47000.30
571.11	47157.11
571.27	47000.30
571.43	47246.05
571.60	46965.19
571.76	46698.37
571.92	47114.98
572.09	47306.91
572.25	47058.81
572.41	46958.17
572.57	47243.71
572.74	47531.60
572.90	47236.69
573.06	47166.48
573.22	47477.77
573.38	47325.63
573.55	47175.84
573.71	47430.96
573.87	47611.18
574.03	46995.62
574.20	47395.85
574.36	47489.47
574.52	47531.60
574.68	47405.21
574.84	47751.61
575.01	47323.29
575.17	47388.83
575.33	47482.45
575.49	47580.75
575.65	47852.25
575.82	47597.13
575.98	47222.65
576.14	47615.86
576.30	47646.29
576.46	47510.53
576.62	47325.63
576.79	47136.05
576.95	47337.33
577.11	47611.18
577.27	47515.22
577.43	47648.63
577.59	47763.31
577.75	47533.94
577.92	47143.07
578.08	47732.89
578.24	47704.80
578.40	47807.78
578.56	47372.44
578.72	47604.16
578.88	47789.06
579.04	47449.68
579.21	47625.22
579.37	47665.01
579.53	47613.52
579.69	47325.63
579.85	47583.09
580.01	47550.32
580.17	47515.22
580.33	47585.43
580.49	47564.37
580.65	47758.63
580.82	47821.83
580.98	47578.41
581.14	47533.94
581.30	48172.91
581.46	47695.44
581.62	47721.18
581.78	47718.84
581.94	47775.02
582.10	47737.57
582.26	47824.17
582.42	47660.33
582.58	48013.75
582.74	47648.63
582.90	47737.57
583.06	47826.51
583.22	47646.29
583.38	47814.80
583.54	48032.47
583.70	47674.37
583.86	47910.77
584.02	47751.61
584.18	48208.01
584.34	47566.71
584.50	47997.37
584.66	47627.56
584.82	48009.07
584.98	48168.22
585.14	47835.87
585.30	47330.31
585.46	47810.12
585.62	47655.65
585.78	48133.12
585.94	47782.04
586.10	48327.38
586.26	47452.02
586.42	47660.33
586.58	47969.28
586.74	47636.92
586.90	47571.39
587.06	47669.69
587.22	48140.14
587.38	47702.46
587.54	48030.13
587.70	47856.93
587.86	48009.07
588.02	47728.20
588.18	47903.74
588.34	47924.81
588.49	47931.83
588.65	47753.95
588.81	47938.85
588.97	48193.97
589.13	48140.14
589.29	47763.31
589.45	48594.20
589.61	48083.97
589.77	48086.31
589.93	48098.01
590.08	48245.46
590.24	48729.95
590.40	48280.57
590.56	48568.46
590.72	48397.60
590.88	48020.77
591.04	48020.77
591.20	48409.30
591.35	48399.94
591.51	48596.54
591.67	48388.24
591.83	48442.07
591.99	48484.20
592.15	48268.87
592.31	47938.85
592.46	48009.07
592.62	48350.79
592.78	48285.25
592.94	49134.87
593.10	48336.74
593.26	48720.59
593.41	48706.55
593.57	48708.89
593.73	48442.07
593.89	48966.35
594.05	48701.87
594.20	48301.64
594.36	48889.11
594.52	48512.28
594.68	48617.61
594.84	48156.52
594.99	48861.02
595.15	48385.89
595.31	48699.53
595.47	48498.24
595.62	48374.19
595.78	48652.72
595.94	48399.94
596.10	48212.70
596.25	48650.38
596.41	48708.89
596.57	48573.14
596.73	48865.70
596.88	48865.70
597.04	48629.31
597.20	48832.94
597.36	48528.67
597.51	48755.70
597.67	48559.09
597.83	48219.72
597.99	49041.24
598.14	48858.68
598.30	48612.93
598.46	48727.61
598.61	48797.83
598.77	48486.54
598.93	48907.83
599.09	48540.37
599.24	48690.16
599.40	48797.83
599.56	49029.54
599.71	48774.42
599.87	49446.16
600.03	49052.95
600.18	48758.04
600.34	48678.46
600.50	48659.74
600.65	48472.49
600.81	49191.04
600.97	49172.31
601.12	48559.09
601.28	49027.20
601.44	48729.95
601.59	48486.54
601.75	48608.25
601.91	48685.48
602.06	49130.19
602.22	48910.17
602.37	48839.96
602.53	48800.17
602.69	48839.96
602.84	48680.80
603.00	49062.31
603.16	48523.99
603.31	48968.69
603.47	48758.04
603.62	48781.45
603.78	49169.97
603.94	48837.62
604.09	48643.35
604.25	48619.95
604.40	48608.25
604.56	48753.36
604.71	49071.67
604.87	48596.54
605.03	48369.51
605.18	48949.96
605.34	48961.67
605.49	48713.57
605.65	48416.32
605.80	48767.40
605.96	48715.91
606.12	48797.83
606.27	48800.17
606.43	48346.11
606.58	48591.86
606.74	48629.31
606.89	48229.08
607.05	48582.50
607.20	48952.30
607.36	48332.06
607.51	48718.25
607.67	48582.50
607.82	48406.96
607.98	48453.77
608.13	48474.84
608.29	48566.12
608.44	48474.84
608.60	48156.52
608.75	48921.88
608.91	48378.87
609.06	48912.52
609.22	48865.70
609.37	48357.81
609.53	48413.98
609.68	48456.11
609.84	48481.86
609.99	48612.93
610.15	48655.06
610.30	48928.90
610.46	48376.53
610.61	48666.76
610.76	48662.08
610.92	47922.47
611.07	48313.34
611.23	48442.07
611.38	48158.86
611.54	48376.53
611.69	48821.23
611.84	48638.67
612.00	48105.03
612.15	48128.44
612.31	48390.58
612.46	48203.33
612.62	48032.47
612.77	48289.93
612.92	48732.29
613.08	48325.04
613.23	48360.15
613.39	48093.33
613.54	48245.46
613.69	48172.91
613.85	47901.40
614.00	47962.26
614.15	48301.64
614.31	48292.27
614.46	48308.66
614.62	48002.05
614.77	48243.12
614.92	48037.16
615.08	47931.83
615.23	48135.46
615.38	48442.07
615.54	48023.11
615.69	47969.28
615.84	48271.21
616.00	48547.39
616.15	47938.85
616.30	47636.92
616.46	47983.32
616.61	47892.04
616.76	48287.59
616.92	47824.17
617.07	48109.71
617.22	47831.19
617.37	47489.47
617.53	47901.40
617.68	47777.36
617.83	47920.13
617.99	48296.95
618.14	48018.43
618.29	47445.00
618.45	47655.65
618.60	47283.50
618.75	47409.89
618.90	47381.80
619.06	47543.30
619.21	47760.97
619.36	47948.21
619.51	47433.30
619.67	47222.65
619.82	47007.32
619.97	47489.47
620.12	47285.84
620.28	47112.64
620.43	47290.52
620.58	47569.05
620.73	47941.19
620.89	47618.20
621.04	47517.56
621.19	47276.48
621.34	47409.89
621.49	47421.59
621.65	47091.58
621.80	47196.90
621.95	47466.06
622.10	47250.74
622.25	47342.02
622.41	47047.11
622.56	47505.85
622.71	47730.54
622.86	47342.02
623.01	47367.76
623.16	47089.24
623.32	47100.94
623.47	47110.30
623.62	47157.11
623.77	47056.47
623.92	46995.62
624.07	47089.24
624.23	47124.35
624.38	47468.40
624.53	46770.93
624.68	46614.11
624.83	46623.47
624.98	46878.59
625.13	46464.32
625.29	46962.85
625.44	46951.15
625.59	46721.77
625.74	46766.24
625.89	46646.88
626.04	46347.29
626.19	46887.95
626.34	46614.11
626.49	46092.17
626.65	46286.43
626.80	46555.60
626.95	46822.42
627.10	46349.63
627.25	46768.58
627.40	46461.97
627.55	46366.01
627.70	46223.24
627.85	46382.40
628.00	46794.33
628.15	46373.03
628.30	46220.90
628.45	46396.44
628.60	45640.45
628.76	46607.09
628.91	45820.67
629.06	45687.26
629.21	45743.43
629.36	46148.34
629.51	46157.70
629.66	46206.86
629.81	45691.94
629.96	45720.02
630.11	45792.58
630.26	45848.75
630.41	46000.89
630.56	45436.82
630.71	45837.05
630.86	46281.75
631.01	45638.11
631.16	45893.22
631.31	46026.63
631.46	45570.23
631.61	45823.01
631.76	45553.85
631.91	45790.24
632.06	45839.39
632.21	45603.00
632.36	46066.42
632.51	45675.55
632.66	45713.00
632.81	45418.10
632.96	46019.61
633.10	45635.77
633.25	45893.22
633.40	45361.92
633.55	45841.73
633.70	45771.52
633.85	45139.57
634.00	45406.39
634.15	45181.70
634.30	45495.33
634.45	45172.34
634.60	45532.78
634.75	45127.87
634.90	45055.31
635.05	45226.17
635.19	45394.69
635.34	45408.73
635.49	45457.88
635.64	44907.86
635.79	45291.71
635.94	45193.40
636.09	45048.29
636.24	45242.56
636.39	45394.69
636.53	45305.75
636.68	45022.54
636.83	44722.96
636.98	44648.06
637.13	44762.75
637.28	44847.00
637.43	44938.29
637.57	44774.45
637.72	44549.76
637.87	44325.07
638.02	45099.78
638.17	44568.48
638.32	43906.11
638.46	44095.69
638.61	44811.90
638.76	44381.24
638.91	44744.02
639.06	44123.78
639.20	43955.26
639.35	43840.57
639.50	44189.31
639.65	44481.88
639.80	44732.32
639.94	44669.12
640.09	44308.68
640.24	44629.34
640.39	43761.00
640.54	43833.55
640.68	43971.64
640.83	44456.14
640.98	44495.92
641.13	43730.57
641.27	44896.16
641.42	44016.11
641.57	44278.25
641.72	44130.80
641.86	43964.62
642.01	43779.72
642.16	43749.29
642.31	43421.62
642.45	43796.10
642.60	43765.68
642.75	43906.11
642.90	43702.48
643.04	44133.14
643.19	44072.29
643.34	43634.61
643.48	43103.31
643.63	43756.32
643.78	43503.54
643.93	44062.93
644.07	43679.08
644.22	43863.98
644.37	43222.67
644.51	43597.16
644.66	43845.26
644.81	43311.61
644.95	43821.85
645.10	43655.67
645.25	43576.09
645.39	42932.45
645.54	43737.59
645.69	43402.89
645.83	43255.44
645.98	43210.97
646.13	42995.64
646.27	43203.95
646.42	42990.96
646.57	43225.01
646.71	43569.07
646.86	43377.15
647.00	43510.56
647.15	43171.18
647.30	43384.17
647.44	43590.14
647.59	43332.68
647.74	43304.59
647.88	42831.80
648.03	42951.17
648.17	43353.74
648.32	43145.44
648.47	43178.20
648.61	43002.66
648.76	43012.02
648.90	43154.80
649.05	43271.82
649.20	43084.58
649.34	42796.70
649.49	42815.42
649.63	42848.19
649.78	43136.07
649.92	43014.37
650.07	43255.44
650.21	43133.73
650.36	42983.94
650.51	42773.29
650.65	43192.25
650.80	42866.91
650.94	42976.92
651.09	42780.31
651.23	42382.42
651.38	42344.97
651.52	42450.30
651.67	42106.24
651.81	42485.40
651.96	42185.82
652.10	41780.90
652.25	42171.77
652.39	42747.54
652.54	42567.32
652.68	42094.53
652.83	42485.40
652.97	42361.36
653.12	42326.25
653.26	42368.38
653.41	42005.59
653.55	41947.08
653.70	42099.22
653.84	42773.29
653.99	42548.60
654.13	42129.64
654.27	41872.18
654.42	42099.22
654.56	41663.88
654.71	42000.91
654.85	42241.99
655.00	41827.71
655.14	41996.23
655.29	42057.09
655.43	41766.86
655.57	41556.21
655.72	41677.92
655.86	41493.02
656.01	41940.06
656.15	41380.67
656.30	41638.13
656.44	41455.57
656.58	41694.30
656.73	41804.31
656.87	41099.81
657.01	41383.01
657.16	41226.20
657.30	41563.23
657.45	41610.04
657.59	41036.61
657.73	41280.03
657.88	41322.16
658.02	41481.31
658.16	41256.62
658.31	41474.29
658.45	41219.17
658.60	40987.46
658.74	41008.53
658.88	41523.44
659.03	41181.73
659.17	40928.95
659.31	40486.59
659.46	40900.86
659.60	40875.12
659.74	40737.02
659.89	40636.38
660.03	40577.87
660.17	40524.04
660.32	40631.70
660.46	40369.56
660.60	40189.34
660.74	40547.44
660.89	40978.10
661.03	40362.54
661.17	39871.03
661.32	40179.98
661.46	40828.30
661.60	40226.79
661.74	39880.39
661.89	40325.09
662.03	40076.99
662.17	39784.43
662.31	39711.87
662.46	39648.68
662.60	40048.91
662.74	39695.49
662.88	39679.10
663.03	39253.12
663.17	39089.29
663.31	39349.09
663.45	39501.22
663.60	39737.62
663.74	39463.77
663.88	39566.76
664.02	38920.77
664.17	39491.86
664.31	39047.16
664.45	39405.26
664.59	39150.14
664.73	39225.04
664.88	38925.45
665.02	38897.36
665.16	38925.45
665.30	39173.55
665.44	38815.44
665.59	38579.05
665.73	38738.21
665.87	37965.83
666.01	38808.42
666.15	38628.20
666.29	38492.45
666.44	38553.30
666.58	38565.01
666.72	38260.74
666.86	38256.06
667.00	38195.20
667.14	38045.41
667.28	38066.47
667.43	38246.69
667.57	38583.73
667.71	37972.85
667.85	38010.30
667.99	37797.31
668.13	37493.04
668.27	37612.41
668.41	37296.44
668.56	36870.46
668.70	37624.11
668.84	36968.76
668.98	36818.97
669.12	37497.72
669.26	37102.17
669.40	37413.46
669.54	37102.17
669.68	37354.95
669.82	36971.10
669.96	36657.47
670.10	36603.64
670.25	37181.75
670.39	36720.66
670.53	36840.03
670.67	36631.72
670.81	36718.32
670.95	36205.75
671.09	36402.35
671.23	36332.14
671.37	36531.08
671.51	36437.46
671.65	36336.82
671.79	36149.57
671.93	36449.16
672.07	36074.68
672.21	35569.12
672.35	35379.54
672.49	35779.77
672.63	35952.97
672.77	35103.35
672.91	35803.17
673.05	35337.41
673.19	35384.22
673.33	35225.06
673.47	35093.99
673.61	34747.59
673.75	34920.79
673.89	35007.39
674.03	34698.44
674.17	34480.77
674.31	34078.20
674.45	34555.67
674.59	34415.24
674.73	34110.97
674.87	33977.56
675.01	34110.97
675.15	34195.23
675.29	33638.18
675.43	33469.66
675.56	33897.98
675.70	33996.28
675.84	33656.90
675.98	32779.20
676.12	33443.91
676.26	34115.65
676.40	33619.46
676.54	33329.23
676.68	33333.91
676.82	32650.47
676.96	33170.07
677.10	33085.81
677.23	33172.41
677.37	32907.93
677.51	32465.57
677.65	32613.02
677.79	32374.29
677.93	32921.98
678.07	32161.30
678.21	32353.23
678.34	31981.08
678.48	32006.83
678.62	31587.87
678.76	31721.28
678.90	31576.17
679.04	31314.03
679.18	31697.88
679.31	31138.49
679.45	31393.61
679.59	31192.32
679.73	31222.75
679.87	30792.09
680.00	30962.95
680.14	30953.58
680.28	31042.53
680.42	30654.00
680.56	30476.12
680.70	30417.60
680.83	30560.37
680.97	30253.76
681.11	30206.95
681.25	29757.57
681.39	29900.34
681.52	29785.66
681.66	29443.94
681.80	29125.63
681.94	29165.42
682.07	29134.99
682.21	29507.13
682.35	29027.32
682.49	29151.37
682.62	28989.88
682.76	29134.99
682.90	29263.72
683.04	28893.91
683.17	28746.46
683.31	28531.13
683.45	28290.06
683.59	28278.35
683.72	28287.71
683.86	28070.04
684.00	28180.05
684.13	28100.47
684.27	27728.33
684.41	27672.15
684.55	27833.65
684.68	28018.55
684.82	27262.56
684.96	27620.66
685.09	27555.13
685.23	27030.85
685.37	27524.70
685.50	27623.00
685.64	27246.18
685.78	26511.25
685.91	26693.81
686.05	26462.10
686.19	26164.85
686.32	26541.68
686.46	26211.66
686.60	26012.71
686.73	26169.53
686.87	26223.36
687.01	25916.75
687.14	26024.42
687.28	25706.10
687.42	25612.48
687.55	25184.16
687.69	25448.64
687.82	25420.56
687.96	25303.53
688.10	24835.42
688.23	25350.34
688.37	25015.65
688.50	25490.77
688.64	24975.86
688.78	24634.14
688.91	24542.86
689.05	24814.36
689.18	24056.03
689.32	23786.86
689.46	23527.06
689.59	23740.05
689.73	24465.62
689.86	24549.88
690.00	24093.47
690.13	23946.02
690.27	23613.66
690.41	23777.50
690.54	23611.32
690.68	23737.71
690.81	23185.35
690.95	23056.62
691.08	22920.87
691.22	22745.33
691.35	22691.49
691.49	22932.57
691.62	23124.49
691.76	22553.40
691.89	22522.98
692.03	22368.50
692.16	22089.98
692.30	22209.34
692.43	22436.38
692.57	21792.73
692.70	21888.69
692.84	21937.84
692.97	21727.19
693.11	21205.25
693.24	21575.06
693.38	21486.12
693.51	21472.07
693.65	21247.38
693.78	21207.59
693.92	20961.84
694.05	20795.66
694.19	21010.99
694.32	20762.89
694.45	21074.18
694.59	20823.75
694.72	20844.81
694.86	20528.84
694.99	20329.89
695.13	20210.53
695.26	20100.52
695.39	19957.75
695.53	20198.82
695.66	19786.89
695.80	19744.76
695.93	19880.51
696.07	19910.94
696.20	19288.35
696.33	19133.88
696.47	19122.18
696.60	19089.41
696.73	19168.99
696.87	19374.95
697.00	19328.14
697.14	18972.38
697.27	18771.10
697.40	19199.41
697.54	18735.99
697.67	18539.38
697.80	18338.10
697.94	18445.76
698.07	18251.50
698.21	18197.67
698.34	18214.05
698.47	18143.83
698.61	17605.51
698.74	18012.76
698.87	17741.26
699.01	17689.77
699.14	17809.14
699.27	17415.93
699.40	17586.79
699.54	17846.58
699.67	17362.09
699.80	17530.61
699.94	17378.48
700.07	17284.86
700.20	17109.32
700.34	16980.59
700.47	17123.36
700.60	17429.97
700.73	16999.31
700.87	16517.16
701.00	16744.19
701.13	16430.56
701.26	16245.66
701.40	16152.04
701.53	15981.18
701.66	16257.36
701.79	16484.39
701.93	15749.46
702.06	15976.50
702.19	15690.95
702.32	15709.68
702.46	15634.78
702.59	15999.90
702.72	15815.00
702.85	15730.74
702.99	15744.78
703.12	15218.16
703.25	15391.36
703.38	15274.34
703.51	15005.17
703.65	15117.52
703.78	14988.79
703.91	14565.15
704.04	15033.26
704.17	14691.54
704.31	14698.56
704.44	14661.12
704.57	14675.16
704.70	14195.35
704.83	14434.08
704.96	14218.75
705.10	14223.44
705.23	14017.47
>>>>>End Processed Spectral Data<<<<<
