SpectraSuite Data File
++++++++++++++++++++++++++++++++++++
Date: Fri Oct 25 11:34:47 EDT 2013
User: price-jones
Dark Spectrum Present: No
Reference Spectrum Present: No
Number of Sampled Component Spectra: 1
Spectrometers: USB2+H05261
Integration Time (usec): 100000 (USB2+H05261)
Spectra Averaged: 1 (USB2+H05261)
Boxcar Smoothing: 0 (USB2+H05261)
Correct for Electrical Dark: No (USB2+H05261)
Strobe/Lamp Enabled: No (USB2+H05261)
Correct for Detector Non-linearity: No (USB2+H05261)
Correct for Stray Light: No (USB2+H05261)
Number of Pixels in Processed Spectrum: 2048
>>>>>Begin Processed Spectral Data<<<<<
365.73	322.99
365.92	322.99
366.12	322.99
366.32	191.92
366.52	147.45
366.72	198.95
366.91	234.05
367.11	107.66
367.31	182.56
367.51	145.11
367.70	121.71
367.90	248.10
368.10	184.90
368.30	145.11
368.49	212.99
368.69	210.65
368.89	217.67
369.09	166.18
369.28	196.60
369.48	231.71
369.68	255.12
369.87	243.42
370.07	234.05
370.27	276.18
370.47	320.65
370.66	397.89
370.86	573.43
371.06	559.39
371.25	533.64
371.45	547.69
371.65	641.31
371.84	601.52
372.04	615.56
372.24	547.69
372.44	568.75
372.63	582.79
372.83	641.31
373.03	657.69
373.22	538.32
373.42	561.73
373.62	620.24
373.81	631.94
374.01	645.99
374.21	653.01
374.40	526.62
374.60	667.05
374.79	657.69
374.99	559.39
375.19	638.97
375.38	645.99
375.58	669.39
375.78	692.80
375.97	606.20
376.17	751.31
376.37	594.50
376.56	737.27
376.76	662.37
376.95	610.88
377.15	629.60
377.35	674.07
377.54	702.16
377.74	709.18
377.93	627.26
378.13	711.52
378.33	690.46
378.52	657.69
378.72	744.29
378.91	699.82
379.11	683.44
379.31	709.18
379.50	685.78
379.70	746.63
379.89	718.54
380.09	702.16
380.28	716.20
380.48	737.27
380.68	699.82
380.87	690.46
381.07	732.59
381.26	765.36
381.46	781.74
381.65	842.59
381.85	676.41
382.04	716.20
382.24	770.04
382.43	755.99
382.63	692.80
382.83	779.40
383.02	784.08
383.22	774.72
383.41	744.29
383.61	826.21
383.80	835.57
384.00	793.44
384.19	744.29
384.39	788.76
384.58	713.86
384.78	758.33
384.97	772.38
385.17	807.48
385.36	896.43
385.56	840.25
385.75	821.53
385.95	727.91
386.14	894.08
386.34	847.27
386.53	898.77
386.72	866.00
386.92	931.53
387.11	786.42
387.31	884.72
387.50	866.00
387.70	901.11
387.89	849.61
388.09	861.32
388.28	821.53
388.48	877.70
388.67	910.47
388.86	882.38
389.06	961.96
389.25	896.43
389.45	870.68
389.64	919.83
389.84	915.15
390.03	896.43
390.22	947.92
390.42	908.13
390.61	819.19
390.81	943.24
391.00	896.43
391.19	924.51
391.39	1022.81
391.58	901.11
391.78	957.28
391.97	1039.20
392.16	1029.84
392.36	990.05
392.55	1032.18
392.75	1062.60
392.94	1039.20
393.13	976.00
393.33	971.32
393.52	1107.07
393.71	1121.12
393.91	1114.10
394.10	1060.26
394.29	1083.67
394.49	1053.24
394.68	1125.80
394.88	1048.56
395.07	1135.16
395.26	1109.41
395.46	1048.56
395.65	1086.01
395.84	1238.14
396.04	1242.82
396.23	1095.37
396.42	1104.73
396.62	1224.10
396.81	1118.78
397.00	1188.99
397.19	1160.91
397.39	1233.46
397.58	1266.23
397.77	1224.10
397.97	1313.04
398.16	1306.02
398.35	1289.64
398.55	1256.87
398.74	1242.82
398.93	1200.69
399.12	1270.91
399.32	1233.46
399.51	1235.80
399.70	1284.95
399.90	1226.44
400.09	1315.38
400.28	1315.38
400.47	1160.91
400.67	1469.86
400.86	1331.76
401.05	1289.64
401.24	1364.53
401.44	1296.66
401.63	1387.94
401.82	1409.00
402.01	1291.98
402.21	1336.45
402.40	1481.56
402.59	1469.86
402.78	1460.49
402.97	1444.11
403.17	1425.39
403.36	1430.07
403.55	1474.54
403.74	1469.86
403.93	1551.78
404.13	1547.09
404.32	1544.75
404.51	1535.39
404.70	1584.54
404.89	1535.39
405.09	1715.61
405.28	1591.56
405.47	1591.56
405.66	1605.61
405.85	1638.38
406.05	1640.72
406.24	1743.70
406.43	1645.40
406.62	1734.34
406.81	1746.04
407.00	1689.87
407.20	1701.57
407.39	1806.89
407.58	1750.72
407.77	1722.63
407.96	1673.48
408.15	1781.15
408.34	1834.98
408.54	1785.83
408.73	1755.40
408.92	1839.66
409.11	1909.88
409.30	1839.66
409.49	1813.92
409.68	2001.16
409.87	1877.11
410.07	1973.07
410.26	1984.77
410.45	1930.94
410.64	1916.90
410.83	2111.16
411.02	2050.31
411.21	2087.76
411.40	2150.95
411.59	2146.27
411.78	2104.14
411.98	2139.25
412.17	2054.99
412.36	2153.29
412.55	2202.44
412.74	2211.81
412.93	2172.02
413.12	2141.59
413.31	2354.58
413.50	2317.13
413.69	2277.34
413.88	2333.51
414.07	2422.45
414.26	2324.15
414.45	2452.88
414.64	2408.41
414.83	2473.95
415.02	2499.69
415.22	2600.34
415.41	2495.01
415.60	2504.37
415.79	2548.84
415.98	2637.78
416.17	2649.49
416.36	2562.89
416.55	2635.44
416.74	2612.04
416.93	2719.70
417.12	2637.78
417.31	2785.24
417.50	2822.69
417.69	2820.35
417.88	2801.62
418.07	2775.88
418.26	2768.85
418.45	2876.52
418.64	2895.24
418.83	2885.88
419.02	2747.79
419.21	2904.60
419.39	2925.67
419.58	2967.80
419.77	2839.07
419.96	2857.79
420.15	2970.14
420.34	2923.33
420.53	3061.42
420.72	3049.72
420.91	3176.11
421.10	3115.25
421.29	3084.83
421.48	3087.17
421.67	3033.33
421.86	3068.44
422.05	3028.65
422.24	3094.19
422.43	3159.72
422.61	3293.13
422.80	3290.79
422.99	3162.06
423.18	3314.20
423.37	3180.79
423.56	3232.28
423.75	3272.07
423.94	3185.47
424.13	3080.14
424.32	3197.17
424.50	3295.47
424.69	3379.73
424.88	3377.39
425.07	3262.71
425.26	3269.73
425.45	3199.51
425.64	3283.77
425.83	3236.96
426.01	3396.12
426.20	3351.65
426.39	3260.37
426.58	3243.98
426.77	3342.28
426.96	3405.48
427.15	3494.42
427.33	3281.43
427.52	3428.88
427.71	3501.44
427.90	3482.72
428.09	3489.74
428.28	3552.93
428.46	3475.70
428.65	3489.74
428.84	3606.77
429.03	3527.19
429.22	3407.82
429.40	3463.99
429.59	3606.77
429.78	3515.48
429.97	3419.52
430.16	3611.45
430.34	3786.99
430.53	3751.88
430.72	3662.94
430.91	3744.86
431.10	3716.77
431.28	3756.56
431.47	3810.39
431.66	3882.95
431.85	3702.73
432.03	3894.65
432.22	3866.56
432.41	3922.74
432.60	3824.44
432.79	3833.80
432.97	3974.23
433.16	3836.14
433.35	3873.59
433.54	4004.66
433.72	3953.16
433.91	3941.46
434.10	4056.15
434.28	3957.85
434.47	3985.93
434.66	4046.79
434.85	4198.92
435.03	3995.29
435.22	4100.62
435.41	4245.73
435.59	4112.32
435.78	4180.20
435.97	4280.84
436.16	4236.37
436.34	4128.70
436.53	4189.56
436.72	4238.71
436.90	4210.62
437.09	4318.29
437.28	4262.12
437.46	4430.63
437.65	4283.18
437.84	4280.84
438.02	4355.74
438.21	4273.82
438.40	4344.03
438.58	4477.44
438.77	4512.55
438.96	4573.41
439.14	4683.41
439.33	4608.51
439.52	4662.35
439.70	4667.03
439.89	4802.78
440.08	4725.54
440.26	4833.21
440.45	4894.06
440.63	4746.61
440.82	4887.04
441.01	4985.34
441.19	5050.88
441.38	5039.17
441.57	4990.02
441.75	5004.07
441.94	5015.77
442.12	5097.69
442.31	5191.31
442.50	5198.33
442.68	5029.81
442.87	5158.54
443.05	5284.93
443.24	5249.82
443.43	5322.38
443.61	5420.68
443.80	5373.87
443.98	5156.20
444.17	4987.68
444.35	5233.44
444.54	5338.76
444.73	5261.52
444.91	5247.48
445.10	5518.98
445.28	5418.34
445.47	5364.51
445.65	5352.81
445.84	5490.90
446.02	5479.19
446.21	5406.64
446.39	5540.05
446.58	5401.96
446.77	5481.53
446.95	5401.96
447.14	5341.10
447.32	5504.94
447.51	5387.91
447.69	5570.48
447.88	5451.11
448.06	5500.26
448.25	5355.15
448.43	5453.45
448.62	5469.83
448.80	5434.72
448.99	5535.37
449.17	5568.13
449.36	5652.39
449.54	5645.37
449.73	5659.42
449.91	5909.85
450.10	5820.91
450.28	5706.23
450.46	5685.16
450.65	5753.04
450.83	5914.53
451.02	5865.38
451.20	5846.66
451.39	5853.68
451.57	5881.77
451.76	5713.25
451.94	5891.13
452.13	6052.63
452.31	5881.77
452.49	5849.00
452.68	6031.56
452.86	5959.00
453.05	6031.56
453.23	6092.41
453.42	6057.31
453.60	5935.60
453.78	6228.17
453.97	6043.26
454.15	6211.78
454.34	6099.44
454.52	6120.50
454.70	6335.83
454.89	6305.40
455.07	6246.89
455.26	6303.06
455.44	6406.05
455.62	6354.55
455.81	6401.37
455.99	6317.11
456.17	6478.60
456.36	6450.52
456.54	6359.24
456.73	6574.56
456.91	6614.35
457.09	6731.38
457.28	6686.91
457.46	6583.93
457.64	6787.55
457.83	6644.78
458.01	6689.25
458.19	6773.51
458.38	6864.79
458.56	6717.34
458.74	6787.55
458.93	6686.91
459.11	6808.62
459.29	6927.99
459.48	7056.72
459.66	6810.96
459.84	6937.35
460.03	7077.78
460.21	7117.57
460.39	7009.90
460.57	7056.72
460.76	7103.53
460.94	7234.60
461.12	7229.91
461.31	7096.50
461.49	7021.61
461.67	7033.31
461.85	7281.41
462.04	7166.72
462.22	7377.37
462.40	7140.97
462.59	7283.75
462.77	7262.68
462.95	7405.46
463.13	7382.05
463.32	7201.83
463.50	7349.28
463.68	7431.20
463.86	7485.03
464.05	7545.89
464.23	7506.10
464.41	7644.19
464.59	7508.44
464.78	7679.30
464.96	7653.55
465.14	7541.21
465.32	7637.17
465.50	7606.74
465.69	7740.15
465.87	7623.12
466.05	7728.45
466.23	7683.98
466.41	7637.17
466.60	7791.64
466.78	7866.54
466.96	7831.43
467.14	7604.40
467.32	7798.66
467.51	7859.52
467.69	7730.79
467.87	7913.35
468.05	8184.85
468.23	7840.79
468.41	7957.82
468.60	7843.14
468.78	8065.49
468.96	7976.55
469.14	8180.17
469.32	8250.39
469.50	7922.71
469.69	8299.54
469.87	8205.92
470.05	8271.45
470.23	8489.12
470.41	8306.56
470.59	8482.10
470.77	8482.10
470.95	8257.41
471.14	8386.14
471.32	8498.49
471.50	8423.59
471.68	8613.17
471.86	8542.96
472.04	8484.44
472.22	8947.87
472.40	8531.25
472.58	8777.01
472.77	8940.85
472.95	8940.85
473.13	9064.89
473.31	8798.07
473.49	8905.74
473.67	8865.95
473.85	9011.06
474.03	9444.06
474.21	9078.94
474.39	9247.46
474.57	9146.81
474.75	9334.06
474.93	9350.44
475.12	9327.03
475.30	9521.30
475.48	9518.96
475.66	9355.12
475.84	9565.77
476.02	9776.42
476.20	9643.01
476.38	9731.95
476.56	9949.62
476.74	9928.55
476.92	9736.63
477.10	9867.70
477.28	10216.44
477.46	10087.71
477.64	10113.45
477.82	10431.77
478.00	10803.91
478.18	10384.96
478.36	10340.49
478.54	10707.95
478.72	10642.42
478.90	10813.28
479.08	10885.83
479.26	11019.24
479.44	11159.67
479.62	11089.46
479.80	11220.53
479.98	11365.64
480.16	11515.44
480.34	11159.67
480.52	11578.63
480.70	11618.42
480.88	11463.94
481.06	11655.87
481.24	11580.97
481.41	11871.20
481.59	12011.63
481.77	12051.42
481.95	12140.36
482.13	12341.64
482.31	12166.10
482.49	12367.39
482.67	12486.76
482.85	12688.04
483.03	12772.30
483.21	12971.25
483.39	13069.55
483.57	12947.84
483.74	13104.66
483.92	13095.30
484.10	13057.85
484.28	13596.17
484.46	13764.69
484.64	13888.74
484.82	13628.94
485.00	13720.22
485.18	14141.52
485.35	14181.31
485.53	14174.28
485.71	13867.67
485.89	14572.18
486.07	14408.34
486.25	14651.75
486.43	14740.69
486.61	14991.13
486.78	14829.63
486.96	14988.79
487.14	15304.76
487.32	15389.02
487.50	15365.62
487.68	15506.05
487.85	15569.24
488.03	15880.53
488.21	15648.82
488.39	15866.49
488.57	16159.06
488.75	16231.62
488.92	16552.27
489.10	16475.03
489.28	16592.06
489.46	16994.63
489.64	16760.58
489.81	17053.14
489.99	16851.86
490.17	17268.47
490.35	17355.07
490.53	17401.88
490.70	17369.12
490.88	17586.79
491.06	17696.79
491.24	17565.72
491.41	17975.31
491.59	17944.89
491.77	17919.14
491.95	18251.50
492.13	18480.87
492.30	18338.10
492.48	18588.53
492.66	18607.26
492.84	18726.63
493.01	19094.09
493.19	18689.18
493.37	19075.37
493.54	19131.54
493.72	19417.08
493.90	19239.20
494.08	19428.79
494.25	19906.26
494.43	19889.87
494.61	19838.38
494.79	20109.88
494.96	19913.28
495.14	20175.42
495.32	20884.60
495.49	20329.89
495.67	20538.20
495.85	20575.65
496.02	20774.60
496.20	21006.31
496.38	20774.60
496.55	21184.19
496.73	21661.66
496.91	21369.09
497.09	21577.40
497.26	21486.12
497.44	21481.44
497.62	21921.46
497.79	22057.21
497.97	21841.88
498.14	22207.00
498.32	22258.49
498.50	22515.95
498.67	22401.27
498.85	22710.22
499.03	22618.94
499.20	22768.73
499.38	22892.78
499.56	22581.49
499.73	22902.14
499.91	23194.71
500.08	23611.32
500.26	23236.84
500.44	22965.34
500.61	23344.50
500.79	23536.43
500.97	23840.70
501.14	24189.44
501.32	23948.36
501.49	23772.82
501.67	24013.90
501.84	24140.29
502.02	24142.63
502.20	24322.85
502.37	24027.94
502.55	24372.00
502.72	24245.61
502.90	24395.40
503.07	24400.08
503.25	24325.19
503.43	24753.51
503.60	24741.80
503.78	25228.63
503.95	24898.62
504.13	24992.24
504.30	25228.63
504.48	25249.70
504.65	25277.79
504.83	25654.61
505.01	25589.08
505.18	25645.25
505.36	25668.66
505.53	25586.74
505.71	25450.99
505.88	25795.04
506.06	25528.22
506.23	25909.73
506.41	26043.14
506.58	26169.53
506.76	26249.11
506.93	26485.50
507.11	26150.81
507.28	26794.45
507.46	26583.80
507.63	26565.08
507.81	26738.28
507.98	26618.91
508.16	27274.26
508.33	26838.92
508.50	27084.68
508.68	26937.23
508.85	27197.02
509.03	27220.43
509.20	27505.98
509.38	27555.13
509.55	27580.87
509.73	27529.38
509.90	27908.55
510.08	27590.24
510.25	27704.92
510.42	27751.73
510.60	28240.90
510.77	27981.10
510.95	28439.85
511.12	28430.49
511.30	28388.36
511.47	28489.00
511.64	28472.62
511.82	28491.34
511.99	28652.84
512.17	28776.89
512.34	28793.27
512.51	29104.56
512.69	29111.58
512.86	29118.60
513.04	29160.73
513.21	28940.72
513.38	29336.27
513.56	29296.49
513.73	29216.91
513.90	29392.45
514.08	29212.23
514.25	29598.41
514.43	29701.40
514.60	29965.88
514.77	29675.65
514.95	29968.22
515.12	30171.85
515.29	30054.82
515.47	30267.81
515.64	29752.89
515.81	29933.11
515.99	30218.66
516.16	30394.20
516.33	30213.98
516.51	30415.26
516.68	30501.86
516.85	30703.15
517.03	30829.54
517.20	31061.25
517.37	30621.23
517.54	30824.86
517.72	30881.03
517.89	31215.72
518.06	31103.38
518.24	30871.67
518.41	30789.75
518.58	31056.57
518.75	30806.13
518.93	31409.99
519.10	31285.94
519.27	31159.55
519.45	31304.67
519.62	31765.75
519.79	31742.35
519.96	31693.19
520.14	31838.31
520.31	31747.03
520.48	31777.45
520.65	32245.56
520.83	32105.13
521.00	32070.02
521.17	32378.97
521.34	32542.81
521.52	32577.92
521.69	32538.13
521.86	32456.21
522.03	32720.69
522.20	32629.41
522.38	32896.23
522.55	32903.25
522.72	33235.61
522.89	33001.55
523.07	33022.62
523.24	32975.81
523.41	33158.37
523.58	32725.37
523.75	33703.71
523.92	33277.74
524.10	33273.06
524.27	33455.62
524.44	33574.98
524.61	33776.27
524.78	33883.94
524.96	33692.01
525.13	33954.15
525.30	34593.12
525.47	33900.32
525.64	33703.71
525.81	34277.15
525.98	34433.96
526.16	34169.48
526.33	34059.48
526.50	34593.12
526.67	34235.02
526.84	34239.70
527.01	34536.94
527.18	34326.30
527.36	34724.19
527.53	34597.80
527.70	35115.06
527.87	35271.87
528.04	34445.66
528.21	34824.83
528.38	35178.25
528.55	34913.77
528.72	35147.82
528.89	35007.39
529.07	34628.23
529.24	34871.64
529.41	35246.13
529.58	35611.25
529.75	35185.27
529.92	35487.20
530.09	35257.83
530.26	35651.04
530.43	35555.08
530.60	35452.09
530.77	35215.70
530.94	35732.96
531.11	35414.65
531.28	35849.99
531.46	35576.14
531.63	35999.78
531.80	35859.35
531.97	36631.72
532.14	35842.96
532.31	35959.99
532.48	36364.90
532.65	36662.15
532.82	35988.08
532.99	36575.55
533.16	36086.38
533.33	36397.67
533.50	36561.51
533.67	36570.87
533.84	36451.50
534.01	36645.77
534.18	36418.74
534.35	37081.11
534.52	36896.20
534.69	36935.99
534.86	36844.71
535.03	36755.77
535.20	37361.97
535.37	37350.27
535.54	37600.71
535.71	37104.51
535.88	37113.87
536.05	37467.30
536.22	37570.28
536.38	36828.33
536.55	37287.07
536.72	37640.50
536.89	37287.07
537.06	37329.20
537.23	37610.07
537.40	37631.13
537.57	37839.44
537.74	37844.12
537.91	37926.04
538.08	37879.23
538.25	37640.50
538.42	37968.17
538.59	37764.54
538.75	38052.43
538.92	38237.33
539.09	38295.85
539.26	37830.08
539.43	38141.37
539.60	38122.65
539.77	38471.39
539.94	38307.55
540.11	38522.88
540.28	38436.28
540.44	38504.15
540.61	38281.80
540.78	38141.37
540.95	38242.01
541.12	38581.39
541.29	38604.80
541.46	38639.90
541.62	38597.77
541.79	38747.57
541.96	38817.78
542.13	38595.43
542.30	38635.22
542.47	38941.83
542.63	39086.95
542.80	39576.12
542.97	39281.21
543.14	39730.59
543.31	39381.85
543.48	39709.53
543.64	39854.64
543.81	39941.24
543.98	39590.16
544.15	39606.55
544.32	40212.74
544.48	40105.08
544.65	39833.58
544.82	39508.24
544.99	39669.74
545.16	40037.20
545.32	40016.14
545.49	40201.04
545.66	40088.70
545.83	40165.93
546.00	40027.84
546.16	39974.01
546.33	40332.11
546.50	40121.46
546.67	40624.68
546.83	40271.26
547.00	40591.91
547.17	40165.93
547.34	40161.25
547.50	40596.59
547.67	41195.77
547.84	40191.68
548.00	40266.58
548.17	40568.51
548.34	40552.12
548.51	40898.52
548.67	40978.10
548.84	40432.75
549.01	40666.81
549.18	40774.47
549.34	41031.93
549.51	41160.66
549.68	40980.44
549.84	40746.39
550.01	41240.24
550.18	40882.14
550.34	40725.32
550.51	41331.52
550.68	41392.37
550.84	41104.49
551.01	41691.96
551.18	41017.89
551.34	40854.05
551.51	40849.37
551.68	41352.58
551.84	41228.54
552.01	41254.28
552.18	41790.27
552.34	41553.87
552.51	41521.10
552.68	41277.69
552.84	40999.16
553.01	41724.73
553.18	41383.01
553.34	41797.29
553.51	41942.40
553.67	42017.30
553.84	41888.57
554.01	41818.35
554.17	42024.32
554.34	42075.81
554.51	41933.04
554.67	42604.77
554.84	42351.99
555.00	42017.30
555.17	42085.17
555.33	42220.92
555.50	42295.82
555.67	42101.56
555.83	42260.71
556.00	42256.03
556.16	42625.84
556.33	42845.85
556.50	42473.70
556.66	42258.37
556.83	42012.62
556.99	42593.07
557.16	42108.58
557.32	42579.03
557.49	42869.25
557.65	42752.23
557.82	42864.57
557.98	42532.22
558.15	42653.92
558.32	42602.43
558.48	42335.61
558.65	42326.25
558.81	42705.41
558.98	42703.07
559.14	42387.10
559.31	42951.17
559.47	42656.26
559.64	42773.29
559.80	42621.16
559.97	42887.98
560.13	43213.31
560.30	42787.33
560.46	42656.26
560.63	43056.50
560.79	43100.97
560.96	43402.89
561.12	43185.22
561.29	43721.21
561.45	43524.60
561.61	43449.70
561.78	42906.70
561.94	43103.31
562.11	43157.14
562.27	43229.69
562.44	43330.34
562.60	43608.86
562.77	43576.09
562.93	42770.95
563.10	43358.42
563.26	43248.42
563.42	43384.17
563.59	43199.27
563.75	43098.62
563.92	43311.61
564.08	43171.18
564.24	43477.79
564.41	43526.94
564.57	43920.15
564.74	43599.50
564.90	43702.48
565.07	43447.36
565.23	43501.20
565.39	43203.95
565.56	43587.80
565.72	43622.90
565.88	43557.37
566.05	43452.05
566.21	43353.74
566.38	43433.32
566.54	43721.21
566.70	44161.23
566.87	43524.60
567.03	44224.42
567.19	43693.12
567.36	43665.03
567.52	44119.10
567.68	44074.63
567.85	44074.63
568.01	43943.56
568.17	43770.36
568.34	44091.01
568.50	43463.75
568.66	43749.29
568.83	44074.63
568.99	43901.43
569.15	43522.26
569.32	43522.26
569.48	43824.19
569.64	44163.57
569.81	44179.95
569.97	44205.70
570.13	44650.40
570.30	44069.95
570.46	43753.97
570.62	43938.88
570.78	44039.52
570.95	43810.15
571.11	43962.28
571.27	43948.24
571.43	44196.34
571.60	44378.90
571.76	43978.67
571.92	44491.24
572.09	44100.37
572.25	43936.54
572.41	44236.12
572.57	44561.46
572.74	44755.72
572.90	44163.57
573.06	43995.05
573.22	43964.62
573.38	44095.69
573.55	44250.17
573.71	44350.81
573.87	44282.94
574.03	44076.97
574.20	44851.69
574.36	44706.57
574.52	44304.00
574.68	44872.75
574.84	44299.32
575.01	44655.08
575.17	44282.94
575.33	44254.85
575.49	44238.47
575.65	44231.44
575.82	44507.63
575.98	44266.55
576.14	44664.44
576.30	44734.66
576.46	44514.65
576.62	44322.72
576.79	44406.98
576.95	44044.20
577.11	44404.64
577.27	44301.66
577.43	44112.08
577.59	44142.50
577.75	44406.98
577.92	44531.03
578.08	44402.30
578.24	44619.97
578.40	44435.07
578.56	44453.79
578.72	44486.56
578.88	44727.64
579.04	44554.44
579.21	44147.18
579.37	44467.84
579.53	45076.38
579.69	44252.51
579.85	44425.71
580.01	44741.68
580.17	44847.00
580.33	44786.15
580.49	44587.21
580.65	44556.78
580.82	44105.06
580.98	44554.44
581.14	44294.64
581.30	44739.34
581.46	44664.44
581.62	44751.04
581.78	44296.98
581.94	44327.41
582.10	44587.21
582.26	44809.56
582.42	44690.19
582.58	44711.25
582.74	44715.93
582.90	44666.78
583.06	44839.98
583.22	44605.93
583.38	44816.58
583.54	44774.45
583.70	44772.11
583.86	45029.57
584.02	44786.15
584.18	44847.00
584.34	44832.96
584.50	44729.98
584.66	44989.78
584.82	44889.13
584.98	45078.72
585.14	44758.06
585.30	44605.93
585.46	44542.74
585.62	44769.77
585.78	44842.32
585.94	44219.74
586.10	44650.40
586.26	44554.44
586.42	44706.57
586.58	44992.12
586.74	44842.32
586.90	45078.72
587.06	44725.30
587.22	44779.13
587.38	44135.48
587.54	44652.74
587.70	44697.21
587.86	44898.50
588.02	45265.96
588.18	44898.50
588.34	45233.19
588.49	44928.92
588.65	44835.30
588.81	44666.78
588.97	44678.49
589.13	44622.31
589.29	44828.28
589.45	45202.77
589.61	44744.02
589.77	45144.25
589.93	45233.19
590.08	45301.07
590.24	45256.60
590.40	45528.10
590.56	45193.40
590.72	45446.18
590.88	44765.09
591.04	45490.65
591.20	45242.56
591.35	45294.05
591.51	45537.46
591.67	45659.17
591.83	45272.98
591.99	45240.21
592.15	45294.05
592.31	45165.32
592.46	44924.24
592.62	45205.11
592.78	45420.44
592.94	45820.67
593.10	45710.66
593.26	45179.36
593.41	45401.71
593.57	45329.16
593.73	45390.01
593.89	45979.82
594.05	45523.42
594.20	45841.73
594.36	45904.93
594.52	45422.78
594.68	45469.59
594.84	45830.03
594.99	45844.07
595.15	45401.71
595.31	45649.81
595.47	45008.50
595.62	45434.48
595.78	45471.93
595.94	45478.95
596.10	45193.40
596.25	45640.45
596.41	45998.55
596.57	45476.61
596.73	45771.52
596.88	45591.30
597.04	45546.82
597.20	45914.29
597.36	45680.24
597.51	45858.12
597.67	45055.31
597.83	45116.17
597.99	45607.68
598.14	45469.59
598.30	45675.55
598.46	45666.19
598.61	45923.65
598.77	45654.49
598.93	45563.21
599.09	45382.99
599.24	46192.81
599.40	45525.76
599.56	45460.23
599.71	45890.88
599.87	46169.41
600.03	46080.47
600.18	45907.27
600.34	45691.94
600.50	45090.42
600.65	45579.59
600.81	45942.38
600.97	46054.72
601.12	45916.63
601.28	45390.01
601.44	45769.18
601.59	45514.06
601.75	45450.86
601.91	45947.06
602.06	45673.21
602.22	46129.62
602.37	45680.24
602.53	45853.44
602.69	45635.77
602.84	45378.31
603.00	45502.35
603.16	45581.93
603.31	45577.25
603.47	46127.28
603.62	45483.63
603.78	45600.66
603.94	45801.94
604.09	45329.16
604.25	45509.38
604.40	45212.13
604.56	45755.13
604.71	46073.45
604.87	45340.86
605.03	45411.07
605.18	45127.87
605.34	45839.39
605.49	45680.24
605.65	45933.01
605.80	45343.20
605.96	45237.87
606.12	45467.25
606.27	45827.69
606.43	45434.48
606.58	45750.45
606.74	45792.58
606.89	45179.36
607.05	45462.57
607.20	45832.37
607.36	45488.31
607.51	45170.00
607.67	45195.74
607.82	45556.19
607.98	45422.78
608.13	45078.72
608.29	45474.27
608.44	45436.82
608.60	45064.67
608.75	45378.31
608.91	45223.83
609.06	44961.69
609.22	45528.10
609.37	45141.91
609.53	45605.34
609.68	45848.75
609.84	45172.34
609.99	45614.70
610.15	45254.26
610.30	45429.80
610.46	45074.04
610.61	45144.25
610.76	45343.20
610.92	44926.58
611.07	44811.90
611.23	44996.80
611.38	45057.65
611.54	44978.07
611.69	45457.88
611.84	45116.17
612.00	45137.23
612.15	45146.59
612.31	45556.19
612.46	44727.64
612.62	45322.13
612.77	45022.54
612.92	45352.56
613.08	45092.76
613.23	45125.53
613.39	45202.77
613.54	44685.51
613.69	45247.24
613.85	44804.88
614.00	44940.63
614.15	45038.93
614.31	44886.79
614.46	44556.78
614.62	44737.00
614.77	44926.58
614.92	44720.62
615.08	44882.11
615.23	45144.25
615.38	45151.27
615.54	44725.30
615.69	45076.38
615.84	44992.12
616.00	45099.78
616.15	44877.43
616.30	44765.09
616.46	44617.63
616.61	44884.45
616.76	44758.06
616.92	44802.53
617.07	44875.09
617.22	44526.35
617.37	44802.53
617.53	44779.13
617.68	44385.92
617.83	45233.19
617.99	45081.06
618.14	44905.52
618.29	44514.65
618.45	44336.77
618.60	44666.78
618.75	44184.63
618.90	44559.12
619.06	44608.27
619.21	44598.91
619.36	44708.91
619.51	44191.65
619.67	44140.16
619.82	44231.44
619.97	44619.97
620.12	44215.06
620.28	44177.61
620.43	44273.57
620.58	44650.40
620.73	43856.96
620.89	44701.89
621.04	45057.65
621.19	44280.60
621.34	44275.91
621.49	44458.48
621.65	44236.12
621.80	44435.07
621.95	43922.49
622.10	44238.47
622.25	43924.83
622.41	44278.25
622.56	43730.57
622.71	43903.77
622.86	44196.34
623.01	43929.51
623.16	43557.37
623.32	44114.42
623.47	44060.58
623.62	43842.92
623.77	44027.82
623.92	43847.60
624.07	43658.01
624.23	44126.12
624.38	44311.02
624.53	43906.11
624.68	43622.90
624.83	43604.18
624.98	43856.96
625.13	43182.88
625.29	43377.15
625.44	43501.20
625.59	43400.55
625.74	43529.28
625.89	43215.65
626.04	43274.16
626.19	43512.90
626.34	43253.10
626.49	43540.99
626.65	43009.68
626.80	43119.69
626.95	42813.08
627.10	43189.91
627.25	43232.04
627.40	43161.82
627.55	42906.70
627.70	43105.65
627.85	43395.87
628.00	43086.92
628.15	43150.12
628.30	43002.66
628.45	42630.52
628.60	43072.88
628.76	42696.05
628.91	42920.74
629.06	42562.64
629.21	42604.77
629.36	42850.53
629.51	42890.32
629.66	42710.10
629.81	43009.68
629.96	43079.90
630.11	42990.96
630.26	43005.00
630.41	42972.24
630.56	42614.13
630.71	42728.82
630.86	42707.76
631.01	42473.70
631.16	42476.04
631.31	42440.93
631.46	42410.51
631.61	42454.98
631.76	43040.11
631.91	42775.63
632.06	43164.16
632.21	42689.03
632.36	42913.72
632.51	42660.94
632.66	42356.67
632.81	42436.25
632.96	42281.78
633.10	42120.28
633.25	42291.14
633.40	41846.44
633.55	42469.02
633.70	42347.31
633.85	42220.92
634.00	41921.34
634.15	41790.27
634.30	42122.62
634.45	41764.52
634.60	42110.92
634.75	41839.42
634.90	42382.42
635.05	42178.79
635.19	42146.03
635.34	41937.72
635.49	41684.94
635.64	41776.22
635.79	42115.60
635.94	41661.54
636.09	42183.48
636.24	41628.77
636.39	42110.92
636.53	42021.98
636.68	41633.45
636.83	41443.87
636.98	41743.45
637.13	41574.94
637.28	41249.60
637.43	41830.05
637.57	41942.40
637.72	41237.90
637.87	41462.59
638.02	41621.75
638.17	41567.91
638.32	41251.94
638.46	41467.27
638.61	40954.69
638.76	41380.67
638.91	41495.36
639.06	41654.51
639.20	41315.14
639.35	41291.73
639.50	40980.44
639.65	41446.21
639.80	41296.41
639.94	41371.31
640.09	41205.13
640.24	41221.52
640.39	40584.89
640.54	40772.13
640.68	41153.64
640.83	41748.14
640.98	40856.39
641.13	40247.85
641.27	41411.10
641.42	40891.50
641.57	40980.44
641.72	41031.93
641.86	40814.26
642.01	40325.09
642.16	41045.97
642.31	40587.23
642.45	40493.61
642.60	40292.32
642.75	40793.20
642.90	40875.12
643.04	40561.48
643.19	40540.42
643.34	40182.32
643.48	40261.90
643.63	40079.33
643.78	40737.02
643.93	40987.46
644.07	40624.68
644.22	40701.92
644.37	40676.17
644.51	40620.00
644.66	40505.31
644.81	40315.73
644.95	40612.98
645.10	40491.27
645.25	40432.75
645.39	39913.16
645.54	40268.92
645.69	40327.43
645.83	39800.81
645.98	40168.27
646.13	40301.68
646.27	40210.40
646.42	39929.54
646.57	40023.16
646.71	40598.93
646.86	40226.79
647.00	40074.65
647.15	40004.44
647.30	40259.55
647.44	40350.84
647.59	40135.51
647.74	40208.06
647.88	40268.92
648.03	40055.93
648.17	40444.46
648.32	39931.88
648.47	40264.24
648.61	39688.46
648.76	39749.32
648.90	39793.79
649.05	39480.16
649.20	39620.59
649.34	39739.96
649.49	39660.38
649.63	39456.75
649.78	39599.52
649.92	39770.38
650.07	40247.85
650.21	40013.80
650.36	39845.28
650.51	39168.87
650.65	39786.77
650.80	39702.51
650.94	39529.31
651.09	39768.04
651.23	39351.43
651.38	39391.22
651.52	39419.30
651.67	39100.99
651.81	39386.54
651.96	39491.86
652.10	39321.00
652.25	39122.05
652.39	39255.46
652.54	39349.09
652.68	39035.45
652.83	38398.83
652.97	39016.73
653.12	39203.97
653.26	38644.59
653.41	39086.95
653.55	39171.21
653.70	38951.20
653.84	39349.09
653.99	38911.41
654.13	38810.76
654.27	38773.31
654.42	39182.91
654.56	39070.56
654.71	38838.85
654.85	39173.55
655.00	39201.63
655.14	39250.78
655.29	39005.03
655.43	38820.13
655.57	38653.95
655.72	38478.41
655.86	38665.65
656.01	38635.22
656.15	38667.99
656.30	38651.61
656.44	38780.34
656.58	39068.22
656.73	38319.25
656.87	38050.09
657.01	38424.57
657.16	38586.07
657.30	38562.67
657.45	38382.45
657.59	37902.64
657.73	38373.08
657.88	38667.99
658.02	38085.20
658.16	38890.34
658.31	38220.95
658.45	38595.43
658.60	37982.21
658.74	38249.03
658.88	38202.22
659.03	37940.08
659.17	37865.19
659.31	37628.79
659.46	37605.39
659.60	38000.94
659.74	37401.76
659.89	37027.28
660.03	37567.94
660.17	37759.86
660.32	38132.01
660.46	37563.26
660.60	37289.42
660.74	37757.52
660.89	37399.42
661.03	37415.80
661.17	37048.34
661.32	37034.30
661.46	37191.11
661.60	37383.04
661.74	36811.95
661.89	37490.70
662.03	37212.18
662.17	36776.84
662.31	37020.25
662.46	36933.65
662.60	36959.40
662.74	36545.12
662.88	36318.09
663.03	36165.96
663.17	36105.10
663.31	36170.64
663.45	36474.91
663.60	36615.34
663.74	36999.19
663.88	36388.31
664.02	36437.46
664.17	36669.17
664.31	36091.06
664.45	36332.14
664.59	36060.63
664.73	36226.81
664.88	36109.78
665.02	35952.97
665.16	35922.54
665.30	36027.87
665.44	36065.31
665.59	35622.95
665.73	35524.65
665.87	35316.34
666.01	35559.76
666.15	35454.44
666.29	35744.66
666.44	35672.10
666.58	35531.67
666.72	34864.62
666.86	35016.75
667.00	35498.91
667.14	35112.72
667.28	35314.00
667.43	35454.44
667.57	35735.30
667.71	34920.79
667.85	35194.64
667.99	35234.42
668.13	34522.90
668.27	34618.86
668.41	34958.24
668.56	34513.54
668.70	34382.47
668.84	34256.08
668.98	34054.79
669.12	34476.09
669.26	34611.84
669.40	34291.19
669.54	34096.92
669.68	34382.47
669.82	34300.55
669.96	33661.58
670.10	33839.47
670.25	33926.07
670.39	33621.80
670.53	33755.21
670.67	33968.19
670.81	34249.06
670.95	33989.26
671.09	33804.36
671.23	33230.93
671.37	33617.11
671.51	33408.81
671.65	33450.94
671.79	33076.45
671.93	33472.00
672.07	33434.55
672.21	33273.06
672.35	33022.62
672.49	33284.76
672.63	32893.89
672.77	32666.86
672.91	33132.62
673.05	32917.29
673.19	32444.51
673.33	32378.97
673.47	32346.20
673.61	32187.05
673.75	32123.85
673.89	32182.37
674.03	31620.64
674.17	31936.61
674.31	31850.01
674.45	31945.97
674.59	32327.48
674.73	31775.11
674.87	31250.83
675.01	31161.89
675.15	31269.56
675.29	31431.05
675.43	30993.37
675.56	31304.67
675.70	31337.43
675.84	31051.89
675.98	30305.26
676.12	30644.63
676.26	31337.43
676.40	30642.29
676.54	31021.46
676.68	30466.75
676.82	30015.03
676.96	30583.78
677.10	30478.46
677.23	30340.36
677.37	30265.47
677.51	29783.32
677.65	30221.00
677.79	30012.69
677.93	29818.42
678.07	29874.60
678.21	29631.18
678.34	29420.53
678.48	28800.29
678.62	29259.04
678.76	29303.51
678.90	29282.44
679.04	29507.13
679.18	29041.37
679.31	28875.19
679.45	28875.19
679.59	28900.94
679.73	28914.98
679.87	28865.83
680.00	28327.50
680.14	28308.78
680.28	28254.95
680.42	28388.36
680.56	28194.09
680.70	27943.66
680.83	27679.18
680.97	27941.32
681.11	28070.04
681.25	27601.94
681.39	27641.73
681.52	27442.78
681.66	27391.29
681.80	26965.31
681.94	26817.86
682.07	26661.04
682.21	26991.06
682.35	26672.74
682.49	26560.40
682.62	26969.99
682.76	27000.42
682.90	26771.05
683.04	26843.60
683.17	26300.60
683.31	26473.80
683.45	26256.13
683.59	25865.26
683.72	25722.49
683.86	25895.69
684.00	25762.28
684.13	25916.75
684.27	25446.30
684.41	25848.88
684.55	25420.56
684.68	25207.57
684.82	25097.56
684.96	25245.02
685.09	25252.04
685.23	24936.07
685.37	25228.63
685.50	24891.60
685.64	24905.64
685.78	24844.79
685.91	24769.89
686.05	24348.59
686.19	24409.45
686.32	24334.55
686.46	23686.22
686.60	24034.96
686.73	24027.94
686.87	24116.88
687.01	24350.93
687.14	24027.94
687.28	24198.80
687.42	23484.94
687.55	23440.47
687.69	23597.28
687.82	23339.82
687.96	23255.56
688.10	23424.08
688.23	23140.88
688.37	23012.15
688.50	23136.20
688.64	23000.44
688.78	22796.82
688.91	22735.96
689.05	22857.67
689.18	22670.43
689.32	22267.86
689.46	22281.90
689.59	22279.56
689.73	22445.74
689.86	22527.66
690.00	22335.73
690.13	22061.89
690.27	21757.62
690.41	21977.63
690.54	21823.16
690.68	21359.73
690.81	21771.66
690.95	21579.74
691.08	21116.31
691.22	20882.26
691.35	20980.56
691.49	21357.39
691.62	21053.12
691.76	20517.14
691.89	20577.99
692.03	20404.79
692.16	20353.30
692.30	20329.89
692.43	20690.34
692.57	19999.88
692.70	20100.52
692.84	20053.71
692.97	19770.51
693.11	19960.09
693.24	19969.45
693.38	20112.22
693.51	19360.91
693.65	19463.90
693.78	19283.67
693.92	19435.81
694.05	19421.77
694.19	19005.15
694.32	19178.35
694.45	19344.53
694.59	19349.21
694.72	19250.91
694.86	19012.17
694.99	18689.18
695.13	18518.32
695.26	18480.87
695.39	18455.12
695.53	18366.18
695.66	18398.95
695.80	18225.75
695.93	18267.88
696.07	18129.79
696.20	17961.27
696.33	17757.64
696.47	17755.30
696.60	17626.57
696.73	17788.07
696.87	17867.65
697.00	17923.82
697.14	17394.86
697.27	17511.89
697.40	17350.39
697.54	17233.36
697.67	17263.79
697.80	17130.38
697.94	17090.59
698.07	16919.73
698.21	16917.39
698.34	16901.01
698.47	16994.63
698.61	16517.16
698.74	16594.40
698.87	16266.72
699.01	16250.34
699.14	16145.02
699.27	16365.03
699.40	16119.27
699.54	16140.33
699.67	16126.29
699.80	16219.91
699.94	16217.57
700.07	15737.76
700.20	15688.61
700.34	15503.71
700.47	15463.92
700.60	15644.14
700.73	15697.97
700.87	15433.49
701.00	15428.81
701.13	15131.56
701.26	15185.40
701.40	14956.02
701.53	15124.54
701.66	14862.40
701.79	15035.60
701.93	14663.46
702.06	14553.45
702.19	14651.75
702.32	14600.26
702.46	14436.42
702.59	14471.53
702.72	14684.52
702.85	14335.78
702.99	14326.42
703.12	14054.92
703.25	14040.87
703.38	14267.91
703.51	14059.60
703.65	13909.80
703.78	13657.03
703.91	13589.15
704.04	13596.17
704.17	13617.24
704.31	13582.13
704.44	13324.67
704.57	13474.46
704.70	13219.35
704.83	13233.39
704.96	13551.70
705.10	13111.68
705.23	12931.46
>>>>>End Processed Spectral Data<<<<<
