SpectraSuite Data File
++++++++++++++++++++++++++++++++++++
Date: Fri Oct 25 10:48:23 EDT 2013
User: price-jones
Dark Spectrum Present: No
Reference Spectrum Present: No
Number of Sampled Component Spectra: 1
Spectrometers: USB2+H05261
Integration Time (usec): 100000 (USB2+H05261)
Spectra Averaged: 1 (USB2+H05261)
Boxcar Smoothing: 0 (USB2+H05261)
Correct for Electrical Dark: No (USB2+H05261)
Strobe/Lamp Enabled: No (USB2+H05261)
Correct for Detector Non-linearity: No (USB2+H05261)
Correct for Stray Light: No (USB2+H05261)
Number of Pixels in Processed Spectrum: 2048
>>>>>Begin Processed Spectral Data<<<<<
365.73	102.98
365.92	102.98
366.12	102.98
366.32	74.90
366.52	46.81
366.72	35.11
366.91	16.38
367.11	53.83
367.31	46.81
367.51	0.00
367.70	67.88
367.90	11.70
368.10	21.06
368.30	0.00
368.49	51.49
368.69	63.19
368.89	63.19
369.09	121.71
369.28	154.48
369.48	63.19
369.68	93.62
369.87	102.98
370.07	102.98
370.27	224.69
370.47	217.67
370.66	297.25
370.86	528.96
371.06	470.45
371.25	456.40
371.45	491.51
371.65	507.90
371.84	470.45
372.04	528.96
372.24	491.51
372.44	526.62
372.63	580.45
372.83	589.82
373.03	500.87
373.22	566.41
373.42	599.18
373.62	526.62
373.81	589.82
374.01	578.11
374.21	498.53
374.40	543.00
374.60	547.69
374.79	531.30
374.99	648.33
375.19	543.00
375.38	617.90
375.58	634.29
375.78	571.09
375.97	631.94
376.17	596.84
376.37	643.65
376.56	634.29
376.76	601.52
376.95	744.29
377.15	627.26
377.35	634.29
377.54	671.73
377.74	617.90
377.93	571.09
378.13	697.48
378.33	760.67
378.52	685.78
378.72	711.52
378.91	641.31
379.11	634.29
379.31	683.44
379.50	636.63
379.70	622.58
379.89	744.29
380.09	643.65
380.28	727.91
380.48	805.14
380.68	725.57
380.87	678.76
381.07	674.07
381.26	713.86
381.46	734.93
381.65	683.44
381.85	669.39
382.04	770.04
382.24	770.04
382.43	772.38
382.63	674.07
382.83	774.72
383.02	826.21
383.22	713.86
383.41	688.12
383.61	770.04
383.80	779.40
384.00	861.32
384.19	826.21
384.39	812.17
384.58	793.44
384.78	828.55
384.97	844.93
385.17	858.98
385.36	786.42
385.56	854.30
385.75	830.89
385.95	802.80
386.14	748.97
386.34	943.24
386.53	854.30
386.72	887.06
386.92	889.40
387.11	861.32
387.31	858.98
387.50	891.74
387.70	922.17
387.89	933.87
388.09	931.53
388.28	931.53
388.48	858.98
388.67	912.81
388.86	912.81
389.06	985.37
389.25	908.13
389.45	919.83
389.64	1020.47
389.84	1020.47
390.03	1062.60
390.22	964.30
390.42	957.28
390.61	973.66
390.81	964.30
391.00	994.73
391.19	1060.26
391.39	1013.45
391.58	1132.82
391.78	1074.31
391.97	1032.18
392.16	992.39
392.36	1160.91
392.55	983.02
392.75	1020.47
392.94	1043.88
393.13	1076.65
393.33	1001.75
393.52	1069.62
393.71	1114.10
393.91	1067.28
394.10	1097.71
394.29	1090.69
394.49	1128.14
394.68	1156.22
394.88	1174.95
395.07	1277.93
395.26	1156.22
395.46	1268.57
395.65	1273.25
395.84	1207.72
396.04	1343.47
396.23	1165.59
396.42	1132.82
396.62	1221.76
396.81	1177.29
397.00	1301.34
397.19	1296.66
397.39	1378.58
397.58	1390.28
397.77	1434.75
397.97	1423.05
398.16	1378.58
398.35	1479.22
398.55	1434.75
398.74	1493.26
398.93	1502.62
399.12	1467.52
399.32	1542.41
399.51	1455.81
399.70	1607.95
399.90	1626.67
400.09	1528.37
400.28	1617.31
400.47	1596.25
400.67	1624.33
400.86	1614.97
401.05	1607.95
401.24	1537.73
401.44	1654.76
401.63	1729.66
401.82	1671.14
402.01	1614.97
402.21	1692.21
402.40	1788.17
402.59	1687.53
402.78	1603.27
402.97	1727.32
403.17	1795.19
403.36	1781.15
403.55	1776.47
403.74	1743.70
403.93	1893.49
404.13	1870.09
404.32	1832.64
404.51	1788.17
404.70	1926.26
404.89	1975.41
405.09	1966.05
405.28	1877.11
405.47	1907.54
405.66	1923.92
405.85	2003.50
406.05	1937.96
406.24	1949.67
406.43	1928.60
406.62	2008.18
406.81	2162.66
407.00	2010.52
407.20	1959.03
407.39	2122.87
407.58	2104.14
407.77	2146.27
407.96	2127.55
408.15	2214.15
408.34	2099.46
408.54	2202.44
408.73	2263.30
408.92	2228.19
409.11	2289.04
409.30	2293.72
409.49	2326.49
409.68	2377.98
409.87	2286.70
410.07	2356.92
410.26	2457.56
410.45	2317.13
410.64	2399.05
410.83	2539.48
411.02	2434.16
411.21	2544.16
411.40	2525.44
411.59	2576.93
411.78	2544.16
411.98	2483.31
412.17	2602.68
412.36	2612.04
412.55	2787.58
412.74	2729.06
412.93	2670.55
413.12	2715.02
413.31	2794.60
413.50	2729.06
413.69	2778.22
413.88	2888.22
414.07	2860.13
414.26	2876.52
414.45	2867.16
414.64	2920.99
414.83	2967.80
415.02	3000.57
415.22	3089.51
415.41	3014.61
415.60	3112.91
415.79	3084.83
415.98	3126.96
416.17	3206.53
416.36	3211.22
416.55	3206.53
416.74	3241.64
416.93	3201.85
417.12	3166.74
417.31	3290.79
417.50	3225.26
417.69	3361.01
417.88	3365.69
418.07	3396.12
418.26	3496.76
418.45	3314.20
418.64	3550.59
418.83	3492.08
419.02	3475.70
419.21	3695.71
419.39	3543.57
419.58	3435.91
419.77	3524.85
419.96	3634.85
420.15	3576.34
420.34	3646.55
420.53	3660.60
420.72	3726.13
420.91	3836.14
421.10	3676.98
421.29	3852.52
421.48	3819.75
421.67	3871.25
421.86	3815.07
422.05	3789.33
422.24	3796.35
422.43	3803.37
422.61	3859.54
422.80	3861.88
422.99	3866.56
423.18	3822.09
423.37	3946.14
423.56	3826.78
423.75	3791.67
423.94	3873.59
424.13	3786.99
424.32	3641.87
424.50	3871.25
424.69	3822.09
424.88	3896.99
425.07	3974.23
425.26	3878.27
425.45	3878.27
425.64	3939.12
425.83	3864.22
426.01	4025.72
426.20	3878.27
426.39	4007.00
426.58	3880.61
426.77	4016.36
426.96	4016.36
427.15	3950.82
427.33	4170.83
427.52	3936.78
427.71	4161.47
427.90	4100.62
428.09	4074.87
428.28	4159.13
428.46	4126.36
428.65	4117.00
428.84	4285.52
429.03	4229.35
429.22	3929.76
429.40	4102.96
429.59	4032.74
429.78	3904.01
429.97	3943.80
430.16	4091.26
430.34	4152.11
430.53	4224.67
430.72	4212.96
430.91	4250.41
431.10	4234.03
431.28	4395.53
431.47	4573.41
431.66	4596.81
431.85	4596.81
432.03	4554.68
432.22	4601.49
432.41	4638.94
432.60	4645.96
432.79	4655.33
432.97	4786.40
433.16	4690.43
433.35	4737.24
433.54	4767.67
433.72	4535.96
433.91	4741.93
434.10	4592.13
434.28	4697.46
434.47	4849.59
434.66	4905.76
434.85	4788.74
435.03	5036.83
435.22	4910.44
435.41	5011.09
435.59	5015.77
435.78	4938.53
435.97	5060.24
436.16	5036.83
436.34	5149.18
436.53	5097.69
436.72	5193.65
436.90	4983.00
437.09	5179.61
437.28	5001.72
437.46	5270.89
437.65	5158.54
437.84	4983.00
438.02	5172.58
438.21	5008.75
438.40	5118.75
438.58	5266.21
438.77	5404.30
438.96	5275.57
439.14	5392.59
439.33	5659.42
439.52	5507.28
439.70	5533.03
439.89	5579.84
440.08	5706.23
440.26	5692.18
440.45	5778.78
440.63	5921.56
440.82	5891.13
441.01	5795.17
441.19	5870.06
441.38	5966.03
441.57	6026.88
441.75	6146.25
441.94	6174.33
442.12	6181.35
442.31	6310.08
442.50	6193.06
442.68	6277.32
442.87	6127.52
443.05	6380.30
443.24	6572.22
443.43	6382.64
443.61	6478.60
443.80	6499.67
443.98	6359.24
444.17	6279.66
444.35	6434.13
444.54	6579.25
444.73	6616.69
444.91	6471.58
445.10	6202.42
445.28	6363.92
445.47	6092.41
445.65	6267.95
445.84	6436.47
446.02	6464.56
446.21	6392.00
446.39	6527.75
446.58	6551.16
446.77	6651.80
446.95	6392.00
447.14	6607.33
447.32	6658.82
447.51	6630.74
447.69	6717.34
447.88	6558.18
448.06	6579.25
448.25	6607.33
448.43	6693.93
448.62	6555.84
448.80	6459.88
448.99	6665.85
449.17	6663.51
449.36	6757.13
449.54	6848.41
449.73	6927.99
449.91	7045.01
450.10	7056.72
450.28	7185.44
450.46	7061.40
450.65	7077.78
450.83	7169.06
451.02	7215.87
451.20	7332.90
451.39	7129.27
451.57	7112.89
451.76	7047.35
451.94	7286.09
452.13	7133.95
452.31	7187.79
452.49	6871.81
452.68	7178.42
452.86	7283.75
453.05	7155.02
453.23	7293.11
453.42	7344.60
453.60	7356.30
453.78	7316.51
453.97	7351.62
454.15	7241.62
454.34	7346.94
454.52	7328.22
454.70	7321.20
454.89	7290.77
455.07	7527.16
455.26	7529.50
455.44	7562.27
455.62	7630.15
455.81	7604.40
455.99	7709.72
456.17	7538.87
456.36	7695.68
456.54	7714.41
456.73	7850.16
456.91	7950.80
457.09	8070.17
457.28	8084.21
457.46	7843.14
457.64	7978.89
457.83	8028.04
458.01	8013.99
458.19	8234.00
458.38	7824.41
458.56	8053.78
458.74	8070.17
458.93	8093.57
459.11	8088.89
459.29	8234.00
459.48	8131.02
459.66	8243.37
459.84	8383.80
460.03	8444.65
460.21	8252.73
460.39	8362.73
460.57	8439.97
460.76	8271.45
460.94	8465.72
461.12	8566.36
461.31	8540.61
461.49	8545.30
461.67	8491.46
461.85	8676.37
462.04	8760.63
462.22	9008.72
462.40	8659.98
462.59	8814.46
462.77	8748.92
462.95	8910.42
463.13	8870.63
463.32	8723.18
463.50	8973.61
463.68	8992.34
463.86	9081.28
464.05	8854.25
464.23	8765.31
464.41	8971.27
464.59	8727.86
464.78	8938.51
464.96	9015.74
465.14	8915.10
465.32	9050.85
465.50	9291.93
465.69	9116.39
465.87	9235.75
466.05	9125.75
466.23	9092.98
466.41	9193.62
466.60	9357.46
466.78	9170.22
466.96	9242.78
467.14	9425.34
467.32	9425.34
467.51	9320.01
467.69	9242.78
467.87	9357.46
468.05	9521.30
468.23	9261.50
468.41	9530.66
468.60	9652.37
468.78	9495.55
468.96	9502.58
469.14	9556.41
469.32	9682.80
469.50	9462.79
469.69	9621.94
469.87	9919.19
470.05	9769.40
470.23	9563.43
470.41	9731.95
470.59	9895.78
470.77	9863.02
470.95	10111.11
471.14	10186.01
471.32	9923.87
471.50	10092.39
471.68	10239.84
471.86	10228.14
472.04	10160.27
472.22	10394.32
472.40	10331.12
472.58	10178.99
472.77	10265.59
472.95	10686.89
473.13	10537.09
473.31	10307.72
473.49	10569.86
473.67	10473.90
473.85	10602.63
474.03	10792.21
474.21	10965.41
474.39	10963.07
474.57	10906.90
474.75	11131.59
474.93	11098.82
475.12	11222.87
475.30	11066.05
475.48	10991.16
475.66	11342.24
475.84	11349.26
476.02	11241.59
476.20	11293.08
476.38	11915.67
476.56	11925.03
476.74	11808.00
476.92	11728.42
477.10	11538.84
477.28	11824.39
477.46	11852.47
477.64	12049.08
477.82	12365.05
478.00	12423.56
478.18	12376.75
478.36	12301.86
478.54	12613.15
478.72	12381.43
478.90	12823.80
479.08	13107.00
479.26	13217.01
479.44	12954.87
479.62	13132.75
479.80	13413.61
479.98	13062.53
480.16	13607.87
480.34	13453.40
480.52	13902.78
480.70	13708.52
480.88	13554.04
481.06	13879.38
481.24	13790.44
481.41	13958.96
481.59	14244.50
481.77	14415.36
481.95	14071.30
482.13	14518.34
482.31	14403.66
482.49	14808.57
482.67	14902.19
482.85	14918.57
483.03	14998.15
483.21	15040.28
483.39	15342.21
483.57	15236.89
483.74	15515.41
483.92	15669.89
484.10	15414.77
484.28	15833.72
484.46	15932.03
484.64	16074.80
484.82	15978.84
485.00	16130.97
485.18	16273.74
485.35	16432.90
485.53	16177.78
485.71	15882.88
485.89	16439.92
486.07	16519.50
486.25	16741.85
486.43	16718.45
486.61	16994.63
486.78	17153.79
486.96	17106.98
487.14	17582.10
487.32	17855.95
487.50	17827.86
487.68	17940.21
487.85	18408.31
488.03	18597.90
488.21	18478.53
488.39	18462.15
488.57	18497.25
488.75	18551.09
488.92	18948.98
489.10	19129.20
489.28	19309.42
489.46	19604.33
489.64	19655.82
489.81	19932.00
489.99	20095.84
490.17	19969.45
490.35	20243.29
490.53	20053.71
490.70	20271.38
490.88	20318.19
491.06	20716.08
491.24	20837.79
491.41	20704.38
491.59	20664.59
491.77	20730.12
491.95	21142.06
492.13	21188.87
492.30	21502.50
492.48	21764.64
492.66	21537.61
492.84	21352.71
493.01	22162.53
493.19	22066.57
493.37	22153.17
493.54	22452.76
493.72	22263.18
493.90	22445.74
494.08	22972.36
494.25	23201.73
494.43	23016.83
494.61	23440.47
494.79	23028.53
494.96	23527.06
495.14	23644.09
495.32	23494.30
495.49	23550.47
495.67	23559.83
495.85	23939.00
496.02	24135.60
496.20	24341.57
496.38	24222.20
496.55	24299.44
496.73	24797.98
496.91	24772.23
497.09	24772.23
497.26	24650.52
497.44	24549.88
497.62	24584.99
497.79	25294.17
497.97	25359.70
498.14	25654.61
498.32	25750.57
498.50	25458.01
498.67	25912.07
498.85	25628.87
499.03	26197.62
499.20	26199.96
499.38	25881.64
499.56	25965.90
499.73	26572.10
499.91	26607.21
500.08	26806.16
500.26	26026.76
500.44	26483.16
500.61	26611.89
500.79	26679.77
500.97	26740.62
501.14	27260.22
501.32	27016.80
501.49	26977.01
501.67	27016.80
501.84	27339.80
502.02	27288.31
502.20	27903.87
502.37	27913.23
502.55	27477.89
502.72	27688.54
502.90	28156.64
503.07	28128.56
503.25	28081.75
503.43	27957.70
503.60	27981.10
503.78	28121.54
503.95	28217.50
504.13	28343.89
504.30	28437.51
504.48	28463.25
504.65	29240.31
504.83	28786.25
505.01	29053.07
505.18	28996.90
505.36	29621.82
505.53	29469.69
505.71	29633.52
505.88	29677.99
506.06	29411.17
506.23	29591.39
506.41	29259.04
506.58	29600.76
506.76	29713.10
506.93	29883.96
507.11	29982.26
507.28	29984.60
507.46	30003.33
507.63	30045.46
507.81	29956.52
507.98	30071.20
508.16	30270.15
508.33	30464.41
508.50	30515.90
508.68	30684.42
508.85	31178.28
509.03	30883.37
509.20	30937.20
509.38	31185.30
509.55	30976.99
509.73	31328.07
509.90	31529.36
510.08	31147.85
510.25	31482.55
510.42	31913.20
510.60	31573.83
510.77	31683.83
510.95	32048.96
511.12	31644.04
511.30	32086.40
511.47	32275.99
511.64	32194.07
511.82	32173.00
511.99	32095.77
512.17	32343.86
512.34	32231.52
512.51	32994.53
512.69	32989.85
512.86	32610.68
513.04	33125.60
513.21	32966.45
513.38	32833.04
513.56	32732.39
513.73	32601.32
513.90	33350.29
514.08	32659.84
514.25	32879.85
514.43	33137.30
514.60	33120.92
514.77	33266.03
514.95	33661.58
515.12	33722.44
515.29	33308.16
515.47	33872.23
515.64	33883.94
515.81	33546.90
515.99	34003.30
516.16	33404.13
516.33	33628.82
516.51	33277.74
516.68	33193.48
516.85	33352.63
517.03	33759.89
517.20	34010.32
517.37	34190.55
517.54	34759.30
517.72	34412.90
517.89	34520.56
518.06	33982.24
518.24	34103.95
518.41	34164.80
518.58	34305.23
518.75	34462.05
518.93	35112.72
519.10	34714.83
519.27	34827.17
519.45	34838.87
519.62	34909.09
519.79	35274.21
519.96	35377.20
520.14	35431.03
520.31	35316.34
520.48	36074.68
520.65	35594.87
520.83	35723.60
521.00	35845.30
521.17	36292.35
521.34	36140.21
521.52	36095.74
521.69	36191.70
521.86	36130.85
522.03	36449.16
522.20	35915.52
522.38	36425.76
522.55	36786.20
522.72	36397.67
522.89	36392.99
523.07	36741.73
523.24	36830.67
523.41	36818.97
523.58	36697.26
523.75	37060.04
523.92	37071.75
524.10	37235.58
524.27	37139.62
524.44	37308.14
524.61	37418.14
524.78	37823.06
524.96	37500.06
525.13	37565.60
525.30	37530.49
525.47	37933.06
525.64	37411.12
525.81	37741.14
525.98	37841.78
526.16	37308.14
526.33	37266.01
526.50	37579.64
526.67	37097.49
526.84	37801.99
527.01	37881.57
527.18	37699.01
527.36	38234.99
527.53	37813.70
527.70	38345.00
527.87	38803.74
528.04	38307.55
528.21	38391.81
528.38	38293.50
528.55	39072.90
528.72	38464.36
528.89	39058.86
529.07	38635.22
529.24	38756.93
529.41	38778.00
529.58	39288.23
529.75	39026.09
529.92	38824.81
530.09	39274.19
530.26	39243.76
530.43	39239.08
530.60	39136.10
530.77	39409.94
530.94	39742.30
531.11	39622.93
531.28	39260.15
531.46	39388.88
531.63	39505.90
531.80	39531.65
531.97	39498.88
532.14	39484.84
532.31	39140.78
532.48	39477.82
532.65	39702.51
532.82	39936.56
532.99	39952.94
533.16	39578.46
533.33	39868.69
533.50	39852.30
533.67	40563.82
533.84	39725.91
534.01	40076.99
534.18	39997.41
534.35	40692.55
534.52	40458.50
534.69	40044.23
534.86	40605.95
535.03	40058.27
535.20	40231.47
535.37	41031.93
535.54	41123.21
535.71	40828.30
535.88	40851.71
536.05	40634.04
536.22	40612.98
536.38	40987.46
536.55	40673.83
536.72	40645.74
536.89	40914.90
537.06	41249.60
537.23	41277.69
537.40	40825.96
537.57	40879.80
537.74	41074.06
537.91	41296.41
538.08	41834.74
538.25	41174.70
538.42	41488.34
538.59	41354.93
538.75	41434.50
538.92	41638.13
539.09	41907.29
539.26	41691.96
539.43	41921.34
539.60	41614.72
539.77	41097.47
539.94	41649.83
540.11	41682.60
540.28	41193.43
540.44	41343.22
540.61	41574.94
540.78	41851.12
540.95	41691.96
541.12	41813.67
541.29	41888.57
541.46	42190.50
541.62	42026.66
541.79	42300.50
541.96	41706.01
542.13	41944.74
542.30	41862.82
542.47	42447.96
542.63	42000.91
542.80	42511.15
542.97	42569.66
543.14	43119.69
543.31	42539.24
543.48	42857.55
543.64	43346.72
543.81	43206.29
543.98	42801.38
544.15	42548.60
544.32	42993.30
544.48	43213.31
544.65	42815.42
544.82	43194.59
544.99	42773.29
545.16	43119.69
545.32	42955.85
545.49	43470.77
545.66	43220.33
545.83	43274.16
546.00	43665.03
546.16	43690.78
546.33	43430.98
546.50	43091.60
546.67	43646.31
546.83	42962.87
547.00	43257.78
547.17	43526.94
547.34	43306.93
547.50	43414.60
547.67	43552.69
547.84	43400.55
548.00	43658.01
548.17	44182.29
548.34	43494.18
548.51	44137.82
548.67	43409.92
548.84	44175.27
549.01	43941.22
549.18	43833.55
549.34	43594.82
549.51	44371.88
549.68	43866.32
549.84	44023.14
550.01	44329.75
550.18	44357.83
550.34	44046.54
550.51	43468.43
550.68	44102.71
550.84	44004.41
551.01	44339.11
551.18	44079.31
551.34	43718.87
551.51	44442.09
551.68	44807.22
551.84	44804.88
552.01	44198.68
552.18	44268.89
552.34	44240.81
552.51	44421.03
552.68	44184.63
552.84	44884.45
553.01	45310.43
553.18	44397.62
553.34	44687.85
553.51	44509.97
553.67	44919.56
553.84	45153.62
554.01	44982.76
554.17	44886.79
554.34	45036.59
554.51	45111.49
554.67	45593.64
554.84	44914.88
555.00	44938.29
555.17	44912.54
555.33	44746.36
555.50	45441.50
555.67	45476.61
555.83	45008.50
556.00	45097.44
556.16	45359.58
556.33	45081.06
556.50	45170.00
556.66	45055.31
556.83	44952.33
556.99	45474.27
557.16	45610.02
557.32	45261.28
557.49	45170.00
557.65	45148.93
557.82	45165.32
557.98	45600.66
558.15	45420.44
558.32	45158.30
558.48	45497.67
558.65	45251.92
558.81	45191.06
558.98	45296.39
559.14	45668.53
559.31	45556.19
559.47	45612.36
559.64	45890.88
559.80	45422.78
559.97	45738.75
560.13	45067.02
560.30	45514.06
560.46	45544.48
560.63	45123.19
560.79	45949.40
560.96	45860.46
561.12	45923.65
561.29	45588.95
561.45	45780.88
561.61	45525.76
561.78	45752.79
561.94	45261.28
562.11	45258.94
562.27	45249.58
562.44	45687.26
562.60	46089.83
562.77	46120.26
562.93	46028.98
563.10	46188.13
563.26	45820.67
563.42	46082.81
563.59	46157.70
563.75	45502.35
563.92	46391.76
564.08	46031.32
564.24	46101.53
564.41	46288.77
564.57	46061.74
564.74	46178.77
564.90	46101.53
565.07	45771.52
565.23	45961.10
565.39	45563.21
565.56	46429.21
565.72	45862.80
565.88	45984.51
566.05	45862.80
566.21	45991.53
566.38	45837.05
566.54	45881.52
566.70	46391.76
566.87	46630.49
567.03	45984.51
567.19	46742.84
567.36	46127.28
567.52	46380.06
567.68	45961.10
567.85	46040.68
568.01	46080.47
568.17	46092.17
568.34	46258.35
568.50	45691.94
568.66	45972.80
568.83	46316.86
568.99	46000.89
569.15	46064.08
569.32	45949.40
569.48	45993.87
569.64	45991.53
569.81	46754.54
569.97	46174.09
570.13	46192.81
570.30	45935.35
570.46	46050.04
570.62	45556.19
570.78	46146.00
570.95	46071.10
571.11	45907.27
571.27	45916.63
571.43	46396.44
571.60	46466.66
571.76	46520.49
571.92	46366.01
572.09	45979.82
572.25	46356.65
572.41	46225.58
572.57	46246.65
572.74	46719.43
572.90	46314.52
573.06	46457.29
573.22	46670.28
573.38	45909.61
573.55	46227.92
573.71	46478.36
573.87	45989.19
574.03	46157.70
574.20	46316.86
574.36	46302.82
574.52	46284.09
574.68	47004.98
574.84	46190.47
575.01	46136.64
575.17	46284.09
575.33	45968.12
575.49	45923.65
575.65	46490.06
575.82	46550.91
575.98	46246.65
576.14	46719.43
576.30	46504.10
576.46	46096.85
576.62	46124.94
576.79	46567.30
576.95	46351.97
577.11	46199.83
577.27	46358.99
577.43	46684.33
577.59	46480.70
577.75	46450.27
577.92	46134.30
578.08	46253.67
578.24	46059.40
578.40	46220.90
578.56	46358.99
578.72	46274.73
578.88	46548.57
579.04	46471.34
579.21	46330.90
579.37	46223.24
579.53	46398.78
579.69	46188.13
579.85	46190.47
580.01	46588.36
580.17	46279.41
580.33	46628.15
580.49	46464.32
580.65	46932.42
580.82	46906.68
580.98	46663.26
581.14	46389.42
581.30	46251.33
581.46	46344.95
581.62	46604.75
581.78	46674.96
581.94	46684.33
582.10	46649.22
582.26	45888.54
582.42	46670.28
582.58	46843.48
582.74	46199.83
582.90	46464.32
583.06	46508.79
583.22	46543.89
583.38	46218.56
583.54	46733.48
583.70	46646.88
583.86	46504.10
584.02	46038.34
584.18	46251.33
584.34	46560.28
584.50	46583.68
584.66	46490.06
584.82	46543.89
584.98	46883.27
585.14	46340.27
585.30	46588.36
585.46	46810.71
585.62	46237.28
585.78	46267.71
585.94	46014.93
586.10	46298.14
586.26	46391.76
586.42	46663.26
586.58	46787.31
586.74	46508.79
586.90	46256.01
587.06	45895.56
587.22	46658.58
587.38	46302.82
587.54	46536.87
587.70	46632.83
587.86	46600.07
588.02	46534.53
588.18	46686.67
588.34	46277.07
588.49	46188.13
588.65	46057.06
588.81	45815.99
588.97	46265.37
589.13	46087.49
589.29	46443.25
589.45	46358.99
589.61	46174.09
589.77	46747.52
589.93	46499.42
590.08	46302.82
590.24	46993.28
590.40	46902.00
590.56	46775.61
590.72	47049.45
590.88	46579.00
591.04	46436.23
591.20	46871.57
591.35	46789.65
591.51	46913.70
591.67	46637.51
591.83	46799.01
591.99	46574.32
592.15	46227.92
592.31	46719.43
592.46	46464.32
592.62	46667.94
592.78	46693.69
592.94	46253.67
593.10	46281.75
593.26	46801.35
593.41	47026.04
593.57	46625.81
593.73	46494.74
593.89	46518.15
594.05	46684.33
594.20	46712.41
594.36	46869.23
594.52	46492.40
594.68	46483.04
594.84	46721.77
594.99	47168.82
595.15	46553.26
595.31	46829.44
595.47	47026.04
595.62	46714.75
595.78	46941.78
595.94	46887.95
596.10	46969.87
596.25	46897.31
596.41	46536.87
596.57	47004.98
596.73	46909.02
596.88	46773.27
597.04	46864.55
597.20	47253.08
597.36	46899.65
597.51	47442.66
597.67	46667.94
597.83	47058.81
597.99	47269.46
598.14	47239.03
598.30	46548.57
598.46	46621.13
598.61	46850.50
598.77	46396.44
598.93	46962.85
599.09	46890.29
599.24	47414.57
599.40	47267.12
599.56	47220.31
599.71	46817.74
599.87	46958.17
600.03	46927.74
600.18	46983.91
600.34	46651.56
600.50	46710.07
600.65	47084.56
600.81	47166.48
600.97	46815.40
601.12	46824.76
601.28	47063.49
601.44	46745.18
601.59	46880.93
601.75	46052.38
601.91	46677.30
602.06	46770.93
602.22	47114.98
602.37	46553.26
602.53	46464.32
602.69	47072.85
602.84	46625.81
603.00	46866.89
603.16	46328.56
603.31	46733.48
603.47	46564.96
603.62	46288.77
603.78	46698.37
603.94	46815.40
604.09	46988.60
604.25	46459.63
604.40	46672.62
604.56	46827.10
604.71	46735.82
604.87	46691.35
605.03	46632.83
605.18	46820.08
605.34	46705.39
605.49	46419.84
605.65	46880.93
605.80	46490.06
605.96	46911.36
606.12	46731.14
606.27	47030.72
606.43	46569.64
606.58	46813.05
606.74	46539.21
606.89	46843.48
607.05	46380.06
607.20	46529.85
607.36	46415.16
607.51	46979.23
607.67	46824.76
607.82	46836.46
607.98	46831.78
608.13	46595.38
608.29	46337.93
608.44	46719.43
608.60	45958.76
608.75	46251.33
608.91	46146.00
609.06	46492.40
609.22	46635.17
609.37	46246.65
609.53	46401.12
609.68	46515.81
609.84	46218.56
609.99	46349.63
610.15	46436.23
610.30	46202.18
610.46	46267.71
610.61	46164.73
610.76	46375.37
610.92	45947.06
611.07	46410.48
611.23	46071.10
611.38	46246.65
611.54	46026.63
611.69	46073.45
611.84	45729.39
612.00	45595.98
612.15	45628.74
612.31	45972.80
612.46	45729.39
612.62	46185.79
612.77	45675.55
612.92	45942.38
613.08	45815.99
613.23	45785.56
613.39	45743.43
613.54	45832.37
613.69	45619.38
613.85	45902.59
614.00	45975.14
614.15	46286.43
614.31	45811.31
614.46	45865.14
614.62	45729.39
614.77	46040.68
614.92	45708.32
615.08	45500.01
615.23	45614.70
615.38	45577.25
615.54	45181.70
615.69	45439.16
615.84	45230.85
616.00	45371.28
616.15	45378.31
616.30	45698.96
616.46	45308.09
616.61	45631.08
616.76	45635.77
616.92	45298.73
617.07	45308.09
617.22	45085.74
617.37	45088.08
617.53	45251.92
617.68	45624.06
617.83	45277.66
617.99	45453.20
618.14	45109.14
618.29	44973.39
618.45	44957.01
618.60	44872.75
618.75	44767.43
618.90	45244.90
619.06	44945.31
619.21	45127.87
619.36	44947.65
619.51	45120.85
619.67	44825.94
619.82	45069.36
619.97	45120.85
620.12	44896.16
620.28	44854.03
620.43	45067.02
620.58	44561.46
620.73	45010.84
620.89	45141.91
621.04	44940.63
621.19	44641.04
621.34	44390.60
621.49	44573.16
621.65	44634.02
621.80	44680.83
621.95	44652.74
622.10	44526.35
622.25	44306.34
622.41	44196.34
622.56	44399.96
622.71	44594.23
622.86	44336.77
623.01	44577.84
623.16	44641.04
623.32	44666.78
623.47	44591.89
623.62	44638.70
623.77	44477.20
623.92	43983.35
624.07	44027.82
624.23	43819.51
624.38	43683.76
624.53	44341.45
624.68	44201.02
624.83	44020.80
624.98	44224.42
625.13	43983.35
625.29	44371.88
625.44	43950.58
625.59	43941.22
625.74	43416.94
625.89	43543.33
626.04	43828.87
626.19	44032.50
626.34	43557.37
626.49	43098.62
626.65	43655.67
626.80	43955.26
626.95	43522.26
627.10	43548.01
627.25	43236.72
627.40	43009.68
627.55	42972.24
627.70	42890.32
627.85	43091.60
628.00	43295.23
628.15	43597.16
628.30	43129.05
628.45	43283.53
628.60	43770.36
628.76	43564.39
628.91	43290.55
629.06	43217.99
629.21	42806.06
629.36	42581.37
629.51	42719.46
629.66	43093.94
629.81	43063.52
629.96	43107.99
630.11	43178.20
630.26	43246.08
630.41	43234.38
630.56	42754.57
630.71	42794.36
630.86	42848.19
631.01	42876.27
631.16	42944.15
631.31	43037.77
631.46	42696.05
631.61	42618.81
631.76	42686.69
631.91	42866.91
632.06	42801.38
632.21	42843.51
632.36	42810.74
632.51	42777.97
632.66	42560.30
632.81	42532.22
632.96	42937.13
633.10	42366.04
633.25	42143.69
633.40	42473.70
633.55	42546.26
633.70	42635.20
633.85	42298.16
634.00	42391.78
634.15	42504.13
634.30	42445.62
634.45	42354.33
634.60	42213.90
634.75	42129.64
634.90	42300.50
635.05	42382.42
635.19	42068.79
635.34	42188.16
635.49	41706.01
635.64	41954.10
635.79	41909.63
635.94	42106.24
636.09	42419.87
636.24	42192.84
636.39	41251.94
636.53	41612.38
636.68	41731.75
636.83	41633.45
636.98	41834.74
637.13	41390.03
637.28	42080.49
637.43	42403.49
637.57	42061.77
637.72	41495.36
637.87	42176.45
638.02	42108.58
638.17	41516.42
638.32	41483.66
638.46	41411.10
638.61	41251.94
638.76	41385.35
638.91	41467.27
639.06	41432.16
639.20	41958.78
639.35	41708.35
639.50	41406.42
639.65	41553.87
639.80	41759.84
639.94	40957.03
640.09	41256.62
640.24	40816.60
640.39	40748.73
640.54	40673.83
640.68	41022.57
640.83	41532.81
640.98	41184.07
641.13	40851.71
641.27	41167.68
641.42	40697.24
641.57	41083.42
641.72	41160.66
641.86	40458.50
642.01	40547.44
642.16	40830.65
642.31	40442.12
642.45	40938.31
642.60	40463.18
642.75	40776.81
642.90	41010.87
643.04	40428.07
643.19	40673.83
643.34	40638.72
643.48	40643.40
643.63	40355.52
643.78	40547.44
643.93	40456.16
644.07	40751.07
644.22	40502.97
644.37	40428.07
644.51	40446.80
644.66	40533.40
644.81	40540.42
644.95	40402.33
645.10	40325.09
645.25	40198.70
645.39	40488.93
645.54	40336.79
645.69	40261.90
645.83	40076.99
645.98	40463.18
646.13	40266.58
646.27	40058.27
646.42	40053.59
646.57	40215.08
646.71	40297.00
646.86	40098.06
647.00	40322.75
647.15	40215.08
647.30	39721.23
647.44	39892.09
647.59	39569.10
647.74	39541.01
647.88	39573.78
648.03	39653.36
648.17	39501.22
648.32	39503.56
648.47	39784.43
648.61	39604.20
648.76	40229.13
648.90	39459.09
649.05	40006.78
649.20	39487.18
649.34	39735.27
649.49	39496.54
649.63	39702.51
649.78	39552.71
649.92	39697.83
650.07	39887.41
650.21	39208.65
650.36	38909.07
650.51	39604.20
650.65	39889.75
650.80	40107.42
650.94	39526.97
651.09	39353.77
651.23	39159.50
651.38	39192.27
651.52	39075.24
651.67	39250.78
651.81	39321.00
651.96	39077.58
652.10	38995.67
652.25	39009.71
652.39	38630.54
652.54	39056.52
652.68	39175.89
652.83	38745.23
652.97	39068.22
653.12	39253.12
653.26	39112.69
653.41	39271.85
653.55	38740.55
653.70	38471.39
653.84	39023.75
653.99	38682.03
654.13	38803.74
654.27	38913.75
654.42	38705.44
654.56	38572.03
654.71	38831.83
654.85	38529.90
655.00	38904.38
655.14	38066.47
655.29	38211.59
655.43	38382.45
655.57	38258.40
655.72	37865.19
655.86	37834.76
656.01	37694.33
656.15	38010.30
656.30	38195.20
656.44	38471.39
656.58	37844.12
656.73	37851.14
656.87	38031.36
657.01	38014.98
657.16	37621.77
657.30	37572.62
657.45	38080.52
657.59	37598.37
657.73	37780.93
657.88	37762.20
658.02	37411.12
658.16	37996.26
658.31	37626.45
658.45	38103.92
658.60	37921.36
658.74	38223.29
658.88	37841.78
659.03	37235.58
659.17	37460.27
659.31	37493.04
659.46	37406.44
659.60	37666.24
659.74	37434.53
659.89	37446.23
660.03	37338.57
660.17	37525.81
660.32	36886.84
660.46	37558.58
660.60	37076.43
660.74	37266.01
660.89	37048.34
661.03	36837.69
661.17	36987.49
661.32	36828.33
661.46	36973.44
661.60	37181.75
661.74	36615.34
661.89	36837.69
662.03	36715.98
662.17	36287.67
662.31	36350.86
662.46	37125.58
662.60	36765.14
662.74	36369.58
662.88	36615.34
663.03	36673.85
663.17	36481.93
663.31	36507.68
663.45	36584.91
663.60	36346.18
663.74	36268.94
663.88	36067.66
664.02	36032.55
664.17	35782.11
664.31	35964.67
664.45	35906.16
664.59	35838.28
664.73	35744.66
664.88	36112.13
665.02	35351.45
665.16	35824.24
665.30	35868.71
665.44	35576.14
665.59	35243.79
665.73	35690.83
665.87	35016.75
666.01	35218.04
666.15	35318.68
666.29	34810.79
666.44	35182.93
666.58	34920.79
666.72	35412.31
666.86	35232.08
667.00	35082.29
667.14	35166.55
667.28	34623.54
667.43	34848.24
667.57	35016.75
667.71	34696.10
667.85	34649.29
667.99	34462.05
668.13	34380.13
668.27	34623.54
668.41	34588.44
668.56	34897.39
668.70	34433.96
668.84	33914.36
668.98	34139.05
669.12	34181.18
669.26	34136.71
669.40	33909.68
669.54	33656.90
669.68	34003.30
669.82	33890.96
669.96	33479.02
670.10	33722.44
670.25	33860.53
670.39	33663.93
670.53	33722.44
670.67	33443.91
670.81	34005.64
670.95	33635.84
671.09	33582.01
671.23	33233.27
671.37	33270.72
671.51	33446.26
671.65	33167.73
671.79	32957.08
671.93	32727.71
672.07	33202.84
672.21	33144.33
672.35	32987.51
672.49	32439.82
672.63	32842.40
672.77	32776.86
672.91	33120.92
673.05	32767.50
673.19	32381.31
673.33	32594.30
673.47	32238.54
673.61	32196.41
673.75	31955.33
673.89	31971.72
674.03	31557.44
674.17	31695.53
674.31	31634.68
674.45	31679.15
674.59	31831.29
674.73	32039.59
674.87	31559.78
675.01	31950.65
675.15	31967.04
675.29	31697.88
675.43	31297.64
675.56	31379.56
675.70	30988.69
675.84	31019.12
675.98	30237.38
676.12	31189.98
676.26	30775.70
676.40	31023.80
676.54	30808.47
676.68	30651.66
676.82	30157.80
676.96	30408.24
677.10	30293.55
677.23	30321.64
677.37	30141.42
677.51	30412.92
677.65	30249.08
677.79	30026.73
677.93	30190.57
678.07	29825.45
678.21	29280.10
678.34	29450.96
678.48	29226.27
678.62	29453.30
678.76	28907.96
678.90	29212.23
679.04	29109.24
679.18	29233.29
679.31	28837.74
679.45	28484.32
679.59	28683.27
679.73	29064.77
679.87	28751.14
680.00	28924.34
680.14	28804.97
680.28	28453.89
680.42	28446.87
680.56	28243.24
680.70	27950.68
680.83	27953.02
680.97	27957.70
681.11	27880.46
681.25	27571.51
681.39	27779.82
681.52	27489.59
681.66	27658.11
681.80	27480.23
681.94	27094.04
682.07	27246.18
682.21	27391.29
682.35	26937.23
682.49	27089.36
682.62	26995.74
682.76	26939.57
682.90	26871.69
683.04	26661.04
683.17	26579.12
683.31	26595.51
683.45	26441.03
683.59	26405.92
683.72	25902.71
683.86	25844.20
684.00	25905.05
684.13	26324.01
684.27	26169.53
684.41	25816.11
684.55	25692.06
684.68	25820.79
684.82	25158.42
684.96	25401.83
685.09	25322.26
685.23	25165.44
685.37	25003.94
685.50	25139.69
685.64	25427.58
685.78	24964.15
685.91	24912.66
686.05	24884.58
686.19	24540.52
686.32	24772.23
686.46	24327.53
686.60	24049.00
686.73	24002.19
686.87	23985.81
687.01	23924.96
687.14	23433.44
687.28	23616.01
687.42	23381.95
687.55	23524.72
687.69	23634.73
687.82	23267.27
687.96	23480.25
688.10	23365.57
688.23	23276.63
688.37	22951.29
688.50	22759.37
688.64	22757.03
688.78	22785.12
688.91	22675.11
689.05	22714.90
689.18	22082.95
689.32	22307.65
689.46	22382.54
689.59	22464.46
689.73	22625.96
689.86	21986.99
690.00	22312.33
690.13	22412.97
690.27	21891.03
690.41	22178.92
690.54	21872.31
690.68	21619.53
690.81	21596.12
690.95	21415.90
691.08	21523.57
691.22	21647.61
691.35	21263.77
691.49	21149.08
691.62	21301.22
691.76	21259.09
691.89	21359.73
692.03	21074.18
692.16	21120.99
692.30	21106.95
692.43	20861.19
692.57	20531.18
692.70	20720.76
692.84	20861.19
692.97	20702.04
693.11	20247.97
693.24	20355.64
693.38	20156.69
693.51	19803.27
693.65	20163.72
693.78	20079.46
693.92	19943.70
694.05	19831.36
694.19	19599.65
694.32	19878.17
694.45	19843.06
694.59	19529.43
694.72	19346.87
694.86	18853.02
694.99	18988.77
695.13	18941.96
695.26	18934.93
695.39	18609.60
695.53	19206.44
695.66	18918.55
695.80	19096.43
695.93	18625.98
696.07	18572.15
696.20	18553.43
696.33	18604.92
696.47	18452.78
696.60	18363.84
696.73	18111.07
696.87	17968.29
697.00	18064.25
697.14	18008.08
697.27	18211.71
697.40	17881.69
697.54	17687.43
697.67	17741.26
697.80	17769.35
697.94	17451.03
698.07	17224.00
698.21	17495.50
698.34	17493.16
698.47	17151.45
698.61	16961.86
698.74	16837.81
698.87	17324.65
699.01	16573.33
699.14	16769.94
699.27	16950.16
699.40	16798.02
699.54	16528.86
699.67	16386.09
699.80	16479.71
699.94	16395.45
700.07	16442.26
700.20	16510.14
700.34	16255.02
700.47	16121.61
700.60	16238.64
700.73	16091.18
700.87	16133.31
701.00	16065.44
701.13	16051.39
701.26	15775.21
701.40	15829.04
701.53	15594.99
701.66	15452.22
701.79	15604.35
701.93	15314.13
702.06	15246.25
702.19	15227.53
702.32	15597.33
702.46	15358.60
702.59	15077.73
702.72	15218.16
702.85	15110.50
702.99	14883.47
703.12	14974.75
703.25	14827.29
703.38	14892.83
703.51	14785.16
703.65	14714.95
703.78	14831.97
703.91	14558.13
704.04	14398.98
704.17	14485.58
704.31	14326.42
704.44	14293.65
704.57	13900.44
704.70	13830.23
704.83	14162.58
704.96	14090.02
705.10	14015.13
705.23	13853.63
>>>>>End Processed Spectral Data<<<<<
