SpectraSuite Data File
++++++++++++++++++++++++++++++++++++
Date: Fri Oct 25 11:34:07 EDT 2013
User: price-jones
Dark Spectrum Present: No
Reference Spectrum Present: No
Number of Sampled Component Spectra: 1
Spectrometers: USB2+H05261
Integration Time (usec): 100000 (USB2+H05261)
Spectra Averaged: 1 (USB2+H05261)
Boxcar Smoothing: 0 (USB2+H05261)
Correct for Electrical Dark: No (USB2+H05261)
Strobe/Lamp Enabled: No (USB2+H05261)
Correct for Detector Non-linearity: No (USB2+H05261)
Correct for Stray Light: No (USB2+H05261)
Number of Pixels in Processed Spectrum: 2048
>>>>>Begin Processed Spectral Data<<<<<
365.73	250.44
365.92	250.44
366.12	250.44
366.32	189.58
366.52	236.39
366.72	220.01
366.91	154.48
367.11	180.22
367.31	191.92
367.51	217.67
367.70	170.86
367.90	142.77
368.10	161.50
368.30	198.95
368.49	187.24
368.69	222.35
368.89	145.11
369.09	224.69
369.28	145.11
369.48	212.99
369.68	255.12
369.87	273.84
370.07	264.48
370.27	248.10
370.47	322.99
370.66	433.00
370.86	535.98
371.06	557.05
371.25	631.94
371.45	550.03
371.65	589.82
371.84	561.73
372.04	543.00
372.24	596.84
372.44	606.20
372.63	538.32
372.83	599.18
373.03	594.50
373.22	550.03
373.42	601.52
373.62	606.20
373.81	636.63
374.01	683.44
374.21	610.88
374.40	554.71
374.60	629.60
374.79	641.31
374.99	777.06
375.19	559.39
375.38	613.22
375.58	627.26
375.78	814.51
375.97	692.80
376.17	753.65
376.37	638.97
376.56	720.88
376.76	622.58
376.95	660.03
377.15	730.25
377.35	664.71
377.54	699.82
377.74	692.80
377.93	702.16
378.13	678.76
378.33	692.80
378.52	620.24
378.72	650.67
378.91	760.67
379.11	671.73
379.31	699.82
379.50	671.73
379.70	751.31
379.89	711.52
380.09	667.05
380.28	751.31
380.48	732.59
380.68	678.76
380.87	702.16
381.07	741.95
381.26	765.36
381.46	793.44
381.65	802.80
381.85	716.20
382.04	718.54
382.24	655.35
382.43	702.16
382.63	758.33
382.83	741.95
383.02	793.44
383.22	866.00
383.41	767.70
383.61	800.46
383.80	823.87
384.00	826.21
384.19	800.46
384.39	903.45
384.58	849.61
384.78	814.51
384.97	814.51
385.17	791.10
385.36	802.80
385.56	840.25
385.75	786.42
385.95	805.14
386.14	866.00
386.34	844.93
386.53	896.43
386.72	877.70
386.92	861.32
387.11	933.87
387.31	910.47
387.50	858.98
387.70	889.40
387.89	910.47
388.09	880.04
388.28	917.49
388.48	763.01
388.67	954.94
388.86	882.38
389.06	992.39
389.25	933.87
389.45	880.04
389.64	926.85
389.84	1029.84
390.03	919.83
390.22	901.11
390.42	940.90
390.61	901.11
390.81	936.21
391.00	1043.88
391.19	945.58
391.39	912.81
391.58	905.79
391.78	1046.22
391.97	933.87
392.16	966.64
392.36	1062.60
392.55	1069.62
392.75	1086.01
392.94	1081.33
393.13	1011.11
393.33	980.68
393.52	1104.73
393.71	1118.78
393.91	1034.52
394.10	1097.71
394.29	1118.78
394.49	1050.90
394.68	1109.41
394.88	1067.28
395.07	1181.97
395.26	1116.44
395.46	1144.52
395.65	1184.31
395.84	1188.99
396.04	1123.46
396.23	1174.95
396.42	1160.91
396.62	1172.61
396.81	1125.80
397.00	1196.01
397.19	1228.78
397.39	1235.80
397.58	1128.14
397.77	1224.10
397.97	1228.78
398.16	1144.52
398.35	1240.48
398.55	1181.97
398.74	1177.29
398.93	1289.64
399.12	1256.87
399.32	1263.89
399.51	1341.13
399.70	1280.27
399.90	1284.95
400.09	1308.36
400.28	1385.60
400.47	1266.23
400.67	1416.02
400.86	1425.39
401.05	1385.60
401.24	1387.94
401.44	1352.83
401.63	1453.47
401.82	1448.79
402.01	1434.75
402.21	1542.41
402.40	1547.09
402.59	1446.45
402.78	1509.65
402.97	1458.15
403.17	1467.52
403.36	1554.12
403.55	1551.78
403.74	1507.30
403.93	1563.48
404.13	1668.80
404.32	1561.14
404.51	1540.07
404.70	1586.88
404.89	1640.72
405.09	1685.19
405.28	1699.23
405.47	1682.85
405.66	1647.74
405.85	1643.06
406.05	1668.80
406.24	1610.29
406.43	1724.97
406.62	1753.06
406.81	1748.38
407.00	1790.51
407.20	1837.32
407.39	1778.81
407.58	1804.55
407.77	1853.70
407.96	1912.22
408.15	1926.26
408.34	1757.74
408.54	1877.11
408.73	1884.13
408.92	1975.41
409.11	1940.30
409.30	1973.07
409.49	2010.52
409.68	1872.43
409.87	2043.29
410.07	1984.77
410.26	2012.86
410.45	2071.37
410.64	2050.31
410.83	2012.86
411.02	2073.71
411.21	2120.53
411.40	2052.65
411.59	2275.00
411.78	2209.47
411.98	2162.66
412.17	2244.57
412.36	2282.02
412.55	2293.72
412.74	2471.61
412.93	2349.90
413.12	2246.91
413.31	2319.47
413.50	2310.11
413.69	2333.51
413.88	2408.41
414.07	2363.94
414.26	2373.30
414.45	2530.12
414.64	2532.46
414.83	2473.95
415.02	2562.89
415.22	2656.51
415.41	2626.08
415.60	2644.81
415.79	2658.85
415.98	2703.32
416.17	2757.15
416.36	2679.91
416.55	2743.11
416.74	2754.81
416.93	2839.07
417.12	2782.90
417.31	2904.60
417.50	2829.71
417.69	2979.50
417.88	2951.42
418.07	2944.39
418.26	3061.42
418.45	2850.77
418.64	3049.72
418.83	2918.65
419.02	2988.86
419.21	3063.76
419.39	2965.46
419.58	2946.73
419.77	2904.60
419.96	3070.78
420.15	3101.21
420.34	3201.85
420.53	3089.51
420.72	3150.36
420.91	3066.10
421.10	3126.96
421.29	3222.92
421.48	3023.97
421.67	3255.69
421.86	3145.68
422.05	3272.07
422.24	3330.58
422.43	3400.80
422.61	3353.99
422.80	3314.20
422.99	3382.07
423.18	3321.22
423.37	3351.65
423.56	3279.09
423.75	3339.94
423.94	3248.66
424.13	3180.79
424.32	3304.84
424.50	3353.99
424.69	3375.05
424.88	3407.82
425.07	3358.67
425.26	3375.05
425.45	3307.18
425.64	3379.73
425.83	3365.69
426.01	3393.78
426.20	3393.78
426.39	3321.22
426.58	3304.84
426.77	3335.26
426.96	3393.78
427.15	3396.12
427.33	3431.23
427.52	3466.33
427.71	3588.04
427.90	3499.10
428.09	3445.27
428.28	3602.08
428.46	3588.04
428.65	3639.53
428.84	3714.43
429.03	3674.64
429.22	3723.79
429.40	3588.04
429.59	3698.05
429.78	3475.70
429.97	3595.06
430.16	3768.26
430.34	3833.80
430.53	3777.62
430.72	3803.37
430.91	3829.12
431.10	3700.39
431.28	3847.84
431.47	3829.12
431.66	3868.91
431.85	3873.59
432.03	3983.59
432.22	3936.78
432.41	4014.02
432.60	3941.46
432.79	3985.93
432.97	3948.48
433.16	4119.34
433.35	4121.68
433.54	3852.52
433.72	4044.45
433.91	3969.55
434.10	4173.18
434.28	4121.68
434.47	4084.23
434.66	4056.15
434.85	4149.77
435.03	4086.58
435.22	4381.48
435.41	4283.18
435.59	4322.97
435.78	4327.65
435.97	4355.74
436.16	4271.48
436.34	4400.21
436.53	4358.08
436.72	4311.27
436.90	4280.84
437.09	4353.40
437.28	4344.03
437.46	4587.45
437.65	4327.65
437.84	4550.00
438.02	4458.72
438.21	4491.49
438.40	4451.70
438.58	4589.79
438.77	4655.33
438.96	4685.75
439.14	4652.98
439.33	4816.82
439.52	4720.86
439.70	4760.65
439.89	4898.74
440.08	4887.04
440.26	4891.72
440.45	4805.12
440.63	4894.06
440.82	5015.77
441.01	4992.36
441.19	5163.22
441.38	5085.98
441.57	5139.82
441.75	5149.18
441.94	5179.61
442.12	5327.06
442.31	5263.86
442.50	5322.38
442.68	5235.78
442.87	5247.48
443.05	5504.94
443.24	5338.76
443.43	5390.25
443.61	5329.40
443.80	5643.03
443.98	5266.21
444.17	5205.35
444.35	5628.99
444.54	5493.24
444.73	5542.39
444.91	5493.24
445.10	5352.81
445.28	5563.45
445.47	5350.46
445.65	5643.03
445.84	5528.35
446.02	5692.18
446.21	5661.76
446.39	5462.81
446.58	5533.03
446.77	5556.43
446.95	5427.70
447.14	5558.77
447.32	5713.25
447.51	5570.48
447.69	5579.84
447.88	5743.67
448.06	5778.78
448.25	5596.22
448.43	5685.16
448.62	5628.99
448.80	5624.31
448.99	5844.32
449.17	5863.04
449.36	5544.73
449.54	5851.34
449.73	5898.15
449.91	5813.89
450.10	5893.47
450.28	6104.12
450.46	5893.47
450.65	6050.28
450.83	5973.05
451.02	5996.45
451.20	6033.90
451.39	6120.50
451.57	6073.69
451.76	6003.47
451.94	6249.23
452.13	6071.35
452.31	6106.46
452.49	6001.13
452.68	6108.80
452.86	6171.99
453.05	6312.42
453.23	6307.74
453.42	6197.74
453.60	6293.70
453.78	6277.32
453.97	6150.93
454.15	6314.77
454.34	6466.90
454.52	6307.74
454.70	6361.58
454.89	6457.54
455.07	6345.19
455.26	6502.01
455.44	6630.74
455.62	6553.50
455.81	6565.20
455.99	6520.73
456.17	6663.51
456.36	6654.14
456.54	6803.94
456.73	6773.51
456.91	6963.09
457.09	6827.34
457.28	6911.60
457.46	6806.28
457.64	7035.65
457.83	6963.09
458.01	6813.30
458.19	6899.90
458.38	7045.01
458.56	7045.01
458.74	7066.08
458.93	7021.61
459.11	6867.13
459.29	7103.53
459.48	6958.41
459.66	6916.28
459.84	7171.40
460.03	7260.34
460.21	7187.79
460.39	7258.00
460.57	7368.01
460.76	7279.07
460.94	7377.37
461.12	7389.07
461.31	7417.16
461.49	7300.13
461.67	7332.90
461.85	7665.25
462.04	7358.64
462.22	7801.01
462.40	7578.65
462.59	7527.16
462.77	7522.48
462.95	7688.66
463.13	7559.93
463.32	7564.61
463.50	7695.68
463.68	7831.43
463.86	7831.43
464.05	7691.00
464.23	7620.78
464.41	7744.83
464.59	7674.62
464.78	7971.86
464.96	8163.79
465.14	7824.41
465.32	7702.70
465.50	7875.90
465.69	7915.69
465.87	7758.88
466.05	8053.78
466.23	8016.33
466.41	8067.83
466.60	8241.03
466.78	8011.65
466.96	7962.50
467.14	7866.54
467.32	8149.75
467.51	8276.13
467.69	7960.16
467.87	8369.76
468.05	8266.77
468.23	8201.24
468.41	8116.98
468.60	8425.93
468.78	8383.80
468.96	8353.37
469.14	8327.63
469.32	8351.03
469.50	8226.98
469.69	8470.40
469.87	8695.09
470.05	8559.34
470.23	8514.87
470.41	8762.97
470.59	8809.78
470.77	8533.59
470.95	8674.03
471.14	8819.14
471.32	8599.13
471.50	8709.13
471.68	8952.55
471.86	9109.36
472.04	8917.44
472.22	9252.14
472.40	8821.48
472.58	8997.02
472.77	9153.84
472.95	9142.13
473.13	9511.94
473.31	9418.32
473.49	9067.24
473.67	9186.60
473.85	9280.22
474.03	9385.55
474.21	9535.34
474.39	9645.35
474.57	9643.01
474.75	9652.37
474.93	9682.80
475.12	9741.31
475.30	9790.46
475.48	9778.76
475.66	9888.76
475.84	9858.34
476.02	10024.51
476.20	9968.34
476.38	10209.42
476.56	10342.83
476.74	10230.48
476.92	10218.78
477.10	10221.12
477.28	10527.73
477.46	10462.19
477.64	10480.92
477.82	10534.75
478.00	10867.11
478.18	10796.89
478.36	10988.82
478.54	11016.90
478.72	11147.97
478.90	11183.08
479.08	11587.99
479.26	11508.41
479.44	11536.50
479.62	11290.74
479.80	11513.10
479.98	11749.49
480.16	11985.88
480.34	11962.48
480.52	12067.80
480.70	12269.09
480.88	11962.48
481.06	11901.62
481.24	12159.08
481.41	12322.92
481.59	12545.27
481.77	12636.55
481.95	12353.35
482.13	12784.01
482.31	12575.70
482.49	12950.18
482.67	12985.29
482.85	13334.03
483.03	13004.02
483.21	13383.18
483.39	13521.27
483.57	13331.69
483.74	13741.29
483.92	13792.78
484.10	13774.05
484.28	14061.94
484.46	14288.97
484.64	14258.54
484.82	14204.71
485.00	14633.03
485.18	14324.08
485.35	14593.24
485.53	14391.95
485.71	14864.74
485.89	15005.17
486.07	14946.66
486.25	14923.26
486.43	15204.12
486.61	15143.27
486.78	15365.62
486.96	15616.05
487.14	15641.80
487.32	15873.51
487.50	15784.57
487.68	15824.36
487.85	16320.56
488.03	16271.40
488.21	16556.95
488.39	16711.42
488.57	16781.64
488.75	16746.53
488.92	16851.86
489.10	17301.24
489.28	17057.82
489.46	17516.57
489.64	17427.63
489.81	17696.79
489.99	17790.41
490.17	17380.82
490.35	17940.21
490.53	18059.57
490.70	18097.02
490.88	18200.01
491.06	18611.94
491.24	18146.17
491.41	18724.29
491.59	18970.04
491.77	18647.05
491.95	19049.62
492.13	18799.18
492.30	19105.79
492.48	19023.87
492.66	19220.48
492.84	19470.92
493.01	19796.25
493.19	19616.03
493.37	19812.63
493.54	19728.38
493.72	19976.47
493.90	20531.18
494.08	20299.47
494.25	20386.07
494.43	20744.17
494.61	20669.27
494.79	20673.95
494.96	20540.54
495.14	20910.35
495.32	21394.84
495.49	21460.37
495.67	21455.69
495.85	21441.65
496.02	21610.17
496.20	21638.25
496.38	22066.57
496.55	21837.20
496.73	22043.17
496.91	22059.55
497.09	22314.67
497.26	22436.38
497.44	22335.73
497.62	22721.92
497.79	22836.61
497.97	22792.14
498.14	22913.84
498.32	23164.28
498.50	23468.55
498.67	23695.58
498.85	23438.12
499.03	23646.43
499.20	23936.66
499.38	23559.83
499.56	23566.85
499.73	23779.84
499.91	24425.83
500.08	23875.80
500.26	23831.33
500.44	24217.52
500.61	24472.64
500.79	24219.86
500.97	24421.15
501.14	24863.51
501.32	24821.38
501.49	24751.17
501.67	24638.82
501.84	24594.35
502.02	24821.38
502.20	24940.75
502.37	25142.03
502.55	25212.25
502.72	25422.90
502.90	25436.94
503.07	25252.04
503.25	25441.62
503.43	25467.37
503.60	25743.55
503.78	25743.55
503.95	25996.33
504.13	25834.83
504.30	25998.67
504.48	26094.63
504.65	26267.83
504.83	26324.01
505.01	26328.69
505.18	26295.92
505.36	26719.56
505.53	26792.11
505.71	26766.37
505.88	26911.48
506.06	26529.97
506.23	27096.38
506.41	27096.38
506.58	27126.81
506.76	27307.03
506.93	27484.91
507.11	27826.63
507.28	27580.87
507.46	27669.81
507.63	27697.90
507.81	27672.15
507.98	27810.25
508.16	27700.24
508.33	27901.53
508.50	27791.52
508.68	28144.94
508.85	28161.33
509.03	28479.64
509.20	28533.47
509.38	28638.80
509.55	28671.56
509.73	28823.70
509.90	28727.74
510.08	28851.78
510.25	28671.56
510.42	28772.21
510.60	29127.97
510.77	29301.17
510.95	29479.05
511.12	29291.80
511.30	29198.18
511.47	29567.99
511.64	29420.53
511.82	29722.46
511.99	29579.69
512.17	29816.08
512.34	29701.40
512.51	30045.46
512.69	30260.79
512.86	29996.31
513.04	30534.63
513.21	30494.84
513.38	30614.21
513.56	30906.77
513.73	30279.51
513.90	30436.33
514.08	30501.86
514.25	30635.27
514.43	30965.29
514.60	30869.33
514.77	30906.77
514.95	30993.37
515.12	31117.42
515.29	30822.51
515.47	30986.35
515.64	30960.61
515.81	30745.28
515.99	31817.24
516.16	31559.78
516.33	31552.76
516.51	31655.75
516.68	31641.70
516.85	31538.72
517.03	31777.45
517.20	31641.70
517.37	31929.59
517.54	31924.91
517.72	32608.34
517.89	31931.93
518.06	32187.05
518.24	32205.77
518.41	31962.36
518.58	32151.94
518.75	32191.73
518.93	32554.51
519.10	32526.42
519.27	32673.88
519.45	32830.69
519.62	33474.34
519.79	32856.44
519.96	32872.82
520.14	32929.00
520.31	33092.83
520.48	33422.85
520.65	33069.43
520.83	33612.43
521.00	33795.00
521.17	33464.98
521.34	33792.65
521.52	33317.53
521.69	33694.35
521.86	33633.50
522.03	33846.49
522.20	34012.66
522.38	34450.35
522.55	34373.11
522.72	34010.32
522.89	34307.57
523.07	34501.84
523.24	34433.96
523.41	34511.20
523.58	34338.00
523.75	34424.60
523.92	34541.63
524.10	34445.66
524.27	35058.88
524.44	35091.65
524.61	34857.60
524.78	35110.38
524.96	35384.22
525.13	35150.17
525.30	35351.45
525.47	35494.22
525.64	35089.31
525.81	35742.32
525.98	35859.35
526.16	35416.99
526.33	35833.60
526.50	35985.74
526.67	35208.68
526.84	35337.41
527.01	35438.05
527.18	35695.51
527.36	35896.80
527.53	35906.16
527.70	36392.99
527.87	36495.97
528.04	36060.63
528.21	36402.35
528.38	36311.07
528.55	36397.67
528.72	36605.98
528.89	36210.43
529.07	36533.42
529.24	36767.48
529.41	36938.33
529.58	36549.81
529.75	36418.74
529.92	36723.01
530.09	36751.09
530.26	36741.73
530.43	36924.29
530.60	36704.28
530.77	36840.03
530.94	37078.77
531.11	36378.95
531.28	37008.55
531.46	36989.83
531.63	37148.98
531.80	37401.76
531.97	37551.56
532.14	37207.50
532.31	37408.78
532.48	37521.13
532.65	37823.06
532.82	37848.80
532.99	37617.09
533.16	37656.88
533.33	37780.93
533.50	38103.92
533.67	37984.55
533.84	37455.59
534.01	37809.01
534.18	38012.64
534.35	38426.92
534.52	38251.38
534.69	38340.32
534.86	38728.84
535.03	38127.33
535.20	38476.07
535.37	38520.54
535.54	38565.01
535.71	38785.02
535.88	38511.17
536.05	38686.71
536.22	38794.38
536.38	38890.34
536.55	39035.45
536.72	38979.28
536.89	38394.15
537.06	39133.76
537.23	39409.94
537.40	39014.39
537.57	38665.65
537.74	38911.41
537.91	39714.21
538.08	39143.12
538.25	39035.45
538.42	39091.63
538.59	39604.20
538.75	39033.11
538.92	39662.72
539.09	39917.84
539.26	39508.24
539.43	39295.25
539.60	39714.21
539.77	39711.87
539.94	40128.48
540.11	39913.16
540.28	39868.69
540.44	39533.99
540.61	39651.02
540.78	39601.86
540.95	39894.43
541.12	39974.01
541.29	39608.89
541.46	39990.39
541.62	40524.04
541.79	40493.61
541.96	40196.36
542.13	39756.34
542.30	40112.10
542.47	40215.08
542.63	40306.37
542.80	40589.57
542.97	41020.23
543.14	40748.73
543.31	40940.65
543.48	41017.89
543.64	41181.73
543.81	41160.66
543.98	41214.49
544.15	41123.21
544.32	41378.33
544.48	41467.27
544.65	41507.06
544.82	41844.10
544.99	41247.26
545.16	41408.76
545.32	40950.01
545.49	41312.80
545.66	42080.49
545.83	41441.53
546.00	41455.57
546.16	41425.14
546.33	41287.05
546.50	41577.28
546.67	41865.16
546.83	41212.15
547.00	41343.22
547.17	41694.30
547.34	41879.21
547.50	42419.87
547.67	42691.37
547.84	41907.29
548.00	42080.49
548.17	42122.62
548.34	41982.19
548.51	42150.71
548.67	42312.20
548.84	42249.01
549.01	42047.72
549.18	42188.16
549.34	42206.88
549.51	42621.16
549.68	42300.50
549.84	42368.38
550.01	42810.74
550.18	42609.45
550.34	42698.39
550.51	42768.61
550.68	42946.49
550.84	42206.88
551.01	42974.58
551.18	42471.36
551.34	42752.23
551.51	43065.86
551.68	42909.04
551.84	42976.92
552.01	42424.55
552.18	42677.33
552.34	42562.64
552.51	43091.60
552.68	42841.17
552.84	43096.28
553.01	43030.75
553.18	43030.75
553.34	43131.39
553.51	43323.32
553.67	43342.04
553.84	43386.51
554.01	43136.07
554.17	43564.39
554.34	43611.20
554.51	43688.44
554.67	43543.33
554.84	43821.85
555.00	43475.45
555.17	43555.03
555.33	43751.63
555.50	43536.30
555.67	43716.53
555.83	43861.64
556.00	43880.36
556.16	44542.74
556.33	43936.54
556.50	43955.26
556.66	43920.15
556.83	43625.25
556.99	44278.25
557.16	43997.39
557.32	44037.18
557.49	44502.95
557.65	43545.67
557.82	44037.18
557.98	43796.10
558.15	43938.88
558.32	44451.45
558.48	43966.96
558.65	44479.54
558.81	44327.41
558.98	44390.60
559.14	44044.20
559.31	44222.08
559.47	44114.42
559.64	44205.70
559.80	44769.77
559.97	44467.84
560.13	43992.71
560.30	44421.03
560.46	44945.31
560.63	44641.04
560.79	44561.46
560.96	44823.60
561.12	44713.59
561.29	44683.17
561.45	44961.69
561.61	44502.95
561.78	45106.80
561.94	44514.65
562.11	45013.18
562.27	44987.44
562.44	45081.06
562.60	44800.19
562.77	44868.07
562.93	44481.88
563.10	45219.15
563.26	44591.89
563.42	44964.03
563.59	44708.91
563.75	45202.77
563.92	44772.11
564.08	44891.48
564.24	45081.06
564.41	44987.44
564.57	44849.35
564.74	44938.29
564.90	45146.59
565.07	45022.54
565.23	45055.31
565.39	45415.76
565.56	45247.24
565.72	45244.90
565.88	45315.11
566.05	45034.25
566.21	45509.38
566.38	45099.78
566.54	45544.48
566.70	44971.05
566.87	45205.11
567.03	45102.12
567.19	45406.39
567.36	45230.85
567.52	44907.86
567.68	45832.37
567.85	45741.09
568.01	45338.52
568.17	45385.33
568.34	45556.19
568.50	45523.42
568.66	45272.98
568.83	45460.23
568.99	45605.34
569.15	45413.41
569.32	45294.05
569.48	45626.40
569.64	45794.92
569.81	45546.82
569.97	45593.64
570.13	45244.90
570.30	45731.73
570.46	45474.27
570.62	45659.17
570.78	45738.75
570.95	45673.21
571.11	45741.09
571.27	45408.73
571.43	45261.28
571.60	45783.22
571.76	45881.52
571.92	45722.37
572.09	45579.59
572.25	45425.12
572.41	45701.30
572.57	45631.08
572.74	46394.10
572.90	45481.29
573.06	46146.00
573.22	46045.36
573.38	46174.09
573.55	46122.60
573.71	46707.73
573.87	46068.76
574.03	45855.78
574.20	45862.80
574.36	45937.69
574.52	46277.07
574.68	45603.00
574.84	46204.52
575.01	46354.31
575.17	45958.76
575.33	46047.70
575.49	46169.41
575.65	46089.83
575.82	45846.41
575.98	46227.92
576.14	46321.54
576.30	45954.08
576.46	45900.25
576.62	45900.25
576.79	45977.48
576.95	45965.78
577.11	46174.09
577.27	46050.04
577.43	45951.74
577.59	45729.39
577.75	46012.59
577.92	45792.58
578.08	45993.87
578.24	46040.68
578.40	45911.95
578.56	46408.14
578.72	46113.23
578.88	46703.05
579.04	45883.86
579.21	46138.98
579.37	46438.57
579.53	46195.15
579.69	46050.04
579.85	46033.66
580.01	45977.48
580.17	46241.96
580.33	45940.04
580.49	46623.47
580.65	46569.64
580.82	46021.95
580.98	46120.26
581.14	46155.36
581.30	46124.94
581.46	46384.74
581.62	46014.93
581.78	46003.23
581.94	46422.19
582.10	45998.55
582.26	46270.05
582.42	46148.34
582.58	46174.09
582.74	46260.69
582.90	46574.32
583.06	46642.20
583.22	45851.09
583.38	45975.14
583.54	46356.65
583.70	46490.06
583.86	46307.50
584.02	46618.79
584.18	46590.70
584.34	46829.44
584.50	46873.91
584.66	46466.66
584.82	46380.06
584.98	47047.11
585.14	46223.24
585.30	46045.36
585.46	46293.46
585.62	46085.15
585.78	46555.60
585.94	46164.73
586.10	46597.73
586.26	46213.88
586.42	46288.77
586.58	46319.20
586.74	46483.04
586.90	46288.77
587.06	46724.11
587.22	46520.49
587.38	46291.12
587.54	46707.73
587.70	46614.11
587.86	46649.22
588.02	46045.36
588.18	46616.45
588.34	46356.65
588.49	46316.86
588.65	46433.89
588.81	46726.46
588.97	46419.84
589.13	46532.19
589.29	46480.70
589.45	46890.29
589.61	46522.83
589.77	46412.82
589.93	46454.95
590.08	46590.70
590.24	46763.90
590.40	47414.57
590.56	47512.88
590.72	46972.21
590.88	46387.08
591.04	46344.95
591.20	47194.56
591.35	46831.78
591.51	47421.59
591.67	46834.12
591.83	47407.55
591.99	47412.23
592.15	46993.28
592.31	46857.52
592.46	46988.60
592.62	46597.73
592.78	47000.30
592.94	47255.42
593.10	46724.11
593.26	46979.23
593.41	47449.68
593.57	46625.81
593.73	47051.79
593.89	47349.04
594.05	47215.63
594.20	47255.42
594.36	47695.44
594.52	46916.04
594.68	47098.60
594.84	46791.99
594.99	47725.86
595.15	47082.22
595.31	47131.37
595.47	46824.76
595.62	47423.93
595.78	46817.74
595.94	47400.53
596.10	46681.98
596.25	46906.68
596.41	47119.66
596.57	46923.06
596.73	47550.32
596.88	47491.81
597.04	47426.28
597.20	47512.88
597.36	47442.66
597.51	47580.75
597.67	47213.29
597.83	47150.09
597.99	47330.31
598.14	47131.37
598.30	47206.26
598.46	46946.47
598.61	47227.33
598.77	47302.23
598.93	47435.64
599.09	47236.69
599.24	47547.98
599.40	47639.26
599.56	47583.09
599.71	47760.97
599.87	47849.91
600.03	47676.71
600.18	47253.08
600.34	47313.93
600.50	47138.39
600.65	47292.86
600.81	47578.41
600.97	46965.19
601.12	47391.17
601.28	47386.49
601.44	47433.30
601.59	47576.07
601.75	47044.77
601.91	47402.87
602.06	46944.12
602.22	47330.31
602.37	47150.09
602.53	47522.24
602.69	47620.54
602.84	47405.21
603.00	47098.60
603.16	47299.89
603.31	47271.80
603.47	47257.76
603.62	47297.55
603.78	47487.13
603.94	47021.36
604.09	47405.21
604.25	47508.19
604.40	47105.62
604.56	47264.78
604.71	47728.20
604.87	47445.00
605.03	47126.69
605.18	47229.67
605.34	46838.80
605.49	47473.09
605.65	47470.75
605.80	47283.50
605.96	47662.67
606.12	46784.97
606.27	47342.02
606.43	46909.02
606.58	47533.94
606.74	47012.00
606.89	47564.37
607.05	47707.14
607.20	47400.53
607.36	47164.14
607.51	47082.22
607.67	47143.07
607.82	47206.26
607.98	47040.09
608.13	47203.92
608.29	46843.48
608.44	47292.86
608.60	47215.63
608.75	47175.84
608.91	47365.42
609.06	46609.43
609.22	47445.00
609.37	47267.12
609.53	47098.60
609.68	47405.21
609.84	47079.88
609.99	46981.57
610.15	47391.17
610.30	47049.45
610.46	46906.68
610.61	47021.36
610.76	47100.94
610.92	46951.15
611.07	46890.29
611.23	46677.30
611.38	46527.51
611.54	47089.24
611.69	46876.25
611.84	46986.25
612.00	46712.41
612.15	46553.26
612.31	47049.45
612.46	46157.70
612.62	46681.98
612.77	46600.07
612.92	46670.28
613.08	46492.40
613.23	46625.81
613.39	46461.97
613.54	46780.29
613.69	47014.34
613.85	46770.93
614.00	46476.02
614.15	46581.34
614.31	46777.95
614.46	46124.94
614.62	46490.06
614.77	46632.83
614.92	46553.26
615.08	46483.04
615.23	46440.91
615.38	46841.14
615.54	46831.78
615.69	46281.75
615.84	46417.50
616.00	46237.28
616.15	46646.88
616.30	46546.23
616.46	46176.43
616.61	46328.56
616.76	47009.66
616.92	46043.02
617.07	46454.95
617.22	46623.47
617.37	46309.84
617.53	46213.88
617.68	46110.89
617.83	46422.19
617.99	46684.33
618.14	46892.63
618.29	45883.86
618.45	46082.81
618.60	45944.72
618.75	46094.51
618.90	46024.29
619.06	45640.45
619.21	45832.37
619.36	46602.41
619.51	45989.19
619.67	45907.27
619.82	45846.41
619.97	46567.30
620.12	45881.52
620.28	45886.20
620.43	46134.30
620.58	46014.93
620.73	45703.64
620.89	45729.39
621.04	46047.70
621.19	46061.74
621.34	45984.51
621.49	45488.31
621.65	45677.90
621.80	46358.99
621.95	45684.92
622.10	46143.66
622.25	45935.35
622.41	46082.81
622.56	45947.06
622.71	45804.28
622.86	45687.26
623.01	45469.59
623.16	45570.23
623.32	45172.34
623.47	45450.86
623.62	45591.30
623.77	45631.08
623.92	45731.73
624.07	45497.67
624.23	45818.33
624.38	45792.58
624.53	45528.10
624.68	45345.54
624.83	44903.18
624.98	45911.95
625.13	45247.24
625.29	45076.38
625.44	45720.02
625.59	45240.21
625.74	45525.76
625.89	44987.44
626.04	45144.25
626.19	45326.81
626.34	45102.12
626.49	44734.66
626.65	44673.81
626.80	45031.91
626.95	45301.07
627.10	44732.32
627.25	45233.19
627.40	44816.58
627.55	45214.47
627.70	45198.09
627.85	44755.72
628.00	45127.87
628.15	44931.26
628.30	44470.18
628.45	44437.41
628.60	44435.07
628.76	44636.36
628.91	44767.43
629.06	44308.68
629.21	44453.79
629.36	44414.01
629.51	44580.18
629.66	44839.98
629.81	44685.51
629.96	44744.02
630.11	44355.49
630.26	44416.35
630.41	44339.11
630.56	44327.41
630.71	44294.64
630.86	44395.28
631.01	44142.50
631.16	44215.06
631.31	44121.44
631.46	44245.49
631.61	44313.36
631.76	44334.43
631.91	44346.13
632.06	44814.24
632.21	44692.53
632.36	44189.31
632.51	43641.63
632.66	44313.36
632.81	44215.06
632.96	44025.48
633.10	43995.05
633.25	43945.90
633.40	43899.09
633.55	43885.04
633.70	44243.15
633.85	44039.52
634.00	43606.52
634.15	43765.68
634.30	43758.66
634.45	43639.29
634.60	43885.04
634.75	43845.26
634.90	43779.72
635.05	43978.67
635.19	43641.63
635.34	43812.49
635.49	43585.46
635.64	43269.48
635.79	43435.66
635.94	43875.68
636.09	44053.56
636.24	43732.91
636.39	43583.12
636.53	43786.74
636.68	43180.54
636.83	43194.59
636.98	43416.94
637.13	43517.58
637.28	43255.44
637.43	43386.51
637.57	42969.90
637.72	42735.84
637.87	43192.25
638.02	42871.59
638.17	43136.07
638.32	43697.80
638.46	42628.18
638.61	43049.47
638.76	43047.13
638.91	42883.30
639.06	42962.87
639.20	42775.63
639.35	42452.64
639.50	42536.90
639.65	43068.20
639.80	42883.30
639.94	42937.13
640.09	43014.37
640.24	42831.80
640.39	42651.58
640.54	42679.67
640.68	43026.07
640.83	42534.56
640.98	42906.70
641.13	42782.65
641.27	42773.29
641.42	42653.92
641.57	42777.97
641.72	42527.53
641.86	42452.64
642.01	42162.41
642.16	42440.93
642.31	41738.77
642.45	42808.40
642.60	42279.44
642.75	42508.81
642.90	42930.11
643.04	42471.36
643.19	42424.55
643.34	42108.58
643.48	42223.26
643.63	42244.33
643.78	42445.62
643.93	42576.69
644.07	42288.80
644.22	42134.32
644.37	42192.84
644.51	42366.04
644.66	42438.59
644.81	42078.15
644.95	42389.44
645.10	42120.28
645.25	41591.32
645.39	41790.27
645.54	41813.67
645.69	41439.18
645.83	41567.91
645.98	41790.27
646.13	41645.15
646.27	41794.95
646.42	41563.23
646.57	41984.53
646.71	41806.65
646.86	42195.18
647.00	42031.34
647.15	41855.80
647.30	41645.15
647.44	41397.06
647.59	41656.85
647.74	41603.02
647.88	41408.76
648.03	41968.15
648.17	41846.44
648.32	41628.77
648.47	42003.25
648.61	41230.88
648.76	41378.33
648.90	41216.83
649.05	41518.76
649.20	41050.66
649.34	41738.77
649.49	41649.83
649.63	41422.80
649.78	41502.38
649.92	41591.32
650.07	41797.29
650.21	41296.41
650.36	41408.76
650.51	41106.83
650.65	41493.02
650.80	41305.77
650.94	41324.50
651.09	41076.40
651.23	40517.01
651.38	41036.61
651.52	40758.09
651.67	40999.16
651.81	41139.60
651.96	41247.26
652.10	40566.16
652.25	40816.60
652.39	41015.55
652.54	40891.50
652.68	40701.92
652.83	40634.04
652.97	41191.09
653.12	40746.39
653.26	40495.95
653.41	40917.25
653.55	40238.49
653.70	40563.82
653.84	40535.74
653.99	40788.52
654.13	40390.62
654.27	40549.78
654.42	40727.66
654.56	40708.94
654.71	40627.02
654.85	40566.16
655.00	40671.49
655.14	40521.69
655.29	40755.75
655.43	40554.46
655.57	40343.81
655.72	40030.18
655.86	40222.11
656.01	40135.51
656.15	40144.87
656.30	40273.60
656.44	40395.31
656.58	40102.74
656.73	40219.77
656.87	39861.66
657.01	39873.37
657.16	40058.27
657.30	40105.08
657.45	40142.53
657.59	39386.54
657.73	39777.40
657.88	39922.52
658.02	40088.70
658.16	40533.40
658.31	40350.84
658.45	39765.70
658.60	39725.91
658.74	39812.51
658.88	39908.47
659.03	39746.98
659.17	38979.28
659.31	39604.20
659.46	39585.48
659.60	39496.54
659.74	39133.76
659.89	39033.11
660.03	38698.42
660.17	39491.86
660.32	39028.43
660.46	39000.35
660.60	38719.48
660.74	39119.71
660.89	39257.81
661.03	38878.64
661.17	38639.90
661.32	38974.60
661.46	38976.94
661.60	38625.86
661.74	38855.23
661.89	39126.74
662.03	38794.38
662.17	38579.05
662.31	38586.07
662.46	38574.37
662.60	38347.34
662.74	38146.05
662.88	38071.15
663.03	37752.84
663.17	37912.00
663.31	38071.15
663.45	38536.92
663.60	38267.76
663.74	38300.53
663.88	38040.73
664.02	37867.53
664.17	38162.43
664.31	37713.05
664.45	37570.28
664.59	37801.99
664.73	37383.04
664.88	37809.01
665.02	37223.88
665.16	37628.79
665.30	37734.12
665.44	37425.17
665.59	37361.97
665.73	37158.34
665.87	37123.24
666.01	37017.91
666.15	37565.60
666.29	36985.15
666.44	37116.22
666.58	36992.17
666.72	36877.48
666.86	36884.50
667.00	36914.93
667.14	36884.50
667.28	36500.65
667.43	36629.38
667.57	36968.76
667.71	36669.17
667.85	36837.69
667.99	36851.73
668.13	36287.67
668.27	36257.24
668.41	36692.58
668.56	35601.89
668.70	36086.38
668.84	35515.29
668.98	35742.32
669.12	36065.31
669.26	35901.48
669.40	35782.11
669.54	35779.77
669.68	35779.77
669.82	35803.17
669.96	35297.62
670.10	35281.24
670.25	35241.45
670.39	35342.09
670.53	35159.53
670.67	35297.62
670.81	35452.09
670.95	35192.30
671.09	35164.21
671.23	34923.13
671.37	35021.44
671.51	34993.35
671.65	34869.30
671.79	34808.45
671.93	34483.11
672.07	34890.37
672.21	34691.42
672.35	34412.90
672.49	34520.56
672.63	34508.86
672.77	34391.83
672.91	33724.78
673.05	34169.48
673.19	33834.78
673.33	33975.22
673.47	33729.46
673.61	33825.42
673.75	33436.89
673.89	33546.90
674.03	33331.57
674.17	33280.08
674.31	33205.18
674.45	33036.66
674.59	33123.26
674.73	33219.22
674.87	33017.94
675.01	32657.49
675.15	32327.48
675.29	32657.49
675.43	32484.30
675.56	32842.40
675.70	32751.12
675.84	32397.70
675.98	31414.67
676.12	32058.32
676.26	32245.56
676.40	32180.03
676.54	31931.93
676.68	31545.74
676.82	31087.00
676.96	31548.08
677.10	31735.32
677.23	31695.53
677.37	31845.33
677.51	31351.48
677.65	31103.38
677.79	31332.75
677.93	31264.88
678.07	30836.56
678.21	30995.71
678.34	30874.01
678.48	30644.63
678.62	30834.22
678.76	30726.55
678.90	30450.37
679.04	30810.81
679.18	30923.16
679.31	30162.48
679.45	30401.22
679.59	29993.97
679.73	30176.53
679.87	29865.24
680.00	29727.14
680.14	29834.81
680.28	29769.27
680.42	29364.36
680.56	29404.15
680.70	29422.87
680.83	29027.32
680.97	28929.02
681.11	29261.38
681.25	28491.34
681.39	28690.29
681.52	28940.72
681.66	28311.12
681.80	28100.47
681.94	28187.07
682.07	28051.32
682.21	28217.50
682.35	27992.81
682.49	27826.63
682.62	28196.43
682.76	27995.15
682.90	27344.48
683.04	27721.30
683.17	27632.36
683.31	27295.33
683.45	27295.33
683.59	26689.13
683.72	27023.83
683.86	26930.20
684.00	27023.83
684.13	26808.50
684.27	26707.85
684.41	26536.99
684.55	26824.88
684.68	26513.59
684.82	26164.85
684.96	26441.03
685.09	26445.71
685.23	26263.15
685.37	26429.33
685.50	26579.12
685.64	26134.42
685.78	25680.36
685.91	25881.64
686.05	25256.72
686.19	24959.47
686.32	25394.81
686.46	25266.08
686.60	24357.96
686.73	25362.04
686.87	24982.88
687.01	25078.84
687.14	24893.94
687.28	24755.85
687.42	24739.46
687.55	24692.65
687.69	24381.36
687.82	24442.21
687.96	24280.72
688.10	24493.71
688.23	24311.14
688.37	24407.11
688.50	24498.39
688.64	23812.61
688.78	24147.31
688.91	23700.26
689.05	23433.44
689.18	23257.90
689.32	22984.06
689.46	23278.97
689.59	23225.14
689.73	23772.82
689.86	23346.84
690.00	23152.58
690.13	23091.73
690.27	22459.78
690.41	22860.01
690.54	22427.01
690.68	22794.48
690.81	22286.58
690.95	22148.49
691.08	22097.00
691.22	22057.21
691.35	21741.24
691.49	22235.09
691.62	22054.87
691.76	21781.03
691.89	21504.84
692.03	21191.21
692.16	21364.41
692.30	21245.04
692.43	21319.94
692.57	20858.85
692.70	20779.28
692.84	21076.52
692.97	21048.44
693.11	20638.84
693.24	20449.26
693.38	20498.41
693.51	20634.16
693.65	20610.76
693.78	20266.70
693.92	20350.96
694.05	19882.85
694.19	19936.68
694.32	20133.29
694.45	20549.90
694.59	19908.60
694.72	20231.59
694.86	19981.15
694.99	19374.95
695.13	19590.28
695.26	19173.67
695.39	19543.47
695.53	19213.46
695.66	19400.70
695.80	19274.31
695.93	18977.06
696.07	18855.36
696.20	18651.73
696.33	18443.42
696.47	18417.68
696.60	18429.38
696.73	18590.88
696.87	18534.70
697.00	18504.28
697.14	18036.17
697.27	18237.45
697.40	18040.85
697.54	17809.14
697.67	18202.35
697.80	17853.61
697.94	17685.09
698.07	17640.62
698.21	17542.32
698.34	17776.37
698.47	17664.02
698.61	17221.66
698.74	17099.95
698.87	17362.09
699.01	17125.70
699.14	17429.97
699.27	17163.15
699.40	16901.01
699.54	16996.97
699.67	16863.56
699.80	16580.36
699.94	16884.62
700.07	16383.75
700.20	16711.42
700.34	16528.86
700.47	16100.55
700.60	16360.34
700.73	16318.22
700.87	16149.70
701.00	15758.83
701.13	15768.19
701.26	15651.16
701.40	15810.32
701.53	15564.56
701.66	15592.65
701.79	15634.78
701.93	15288.38
702.06	15164.33
702.19	15255.61
702.32	15161.99
702.46	15087.09
702.59	15590.31
702.72	15096.46
702.85	14761.76
702.99	14977.09
703.12	14745.38
703.25	14600.26
703.38	14714.95
703.51	14628.35
703.65	14499.62
703.78	14157.90
703.91	14223.44
704.04	14118.11
704.17	14139.18
704.31	14136.84
704.44	13975.34
704.57	14012.79
704.70	14036.19
704.83	13930.87
704.96	13898.10
705.10	13781.07
705.23	13664.05
>>>>>End Processed Spectral Data<<<<<
