SpectraSuite Data File
++++++++++++++++++++++++++++++++++++
Date: Fri Oct 25 11:34:04 EDT 2013
User: price-jones
Dark Spectrum Present: No
Reference Spectrum Present: No
Number of Sampled Component Spectra: 1
Spectrometers: USB2+H05261
Integration Time (usec): 100000 (USB2+H05261)
Spectra Averaged: 1 (USB2+H05261)
Boxcar Smoothing: 0 (USB2+H05261)
Correct for Electrical Dark: No (USB2+H05261)
Strobe/Lamp Enabled: No (USB2+H05261)
Correct for Detector Non-linearity: No (USB2+H05261)
Correct for Stray Light: No (USB2+H05261)
Number of Pixels in Processed Spectrum: 2048
>>>>>Begin Processed Spectral Data<<<<<
365.73	285.55
365.92	285.55
366.12	285.55
366.32	189.58
366.52	184.90
366.72	159.16
366.91	198.95
367.11	184.90
367.31	124.05
367.51	177.88
367.70	198.95
367.90	177.88
368.10	170.86
368.30	187.24
368.49	168.52
368.69	182.56
368.89	212.99
369.09	250.44
369.28	182.56
369.48	231.71
369.68	234.05
369.87	245.76
370.07	196.60
370.27	269.16
370.47	383.85
370.66	489.17
370.86	571.09
371.06	596.84
371.25	573.43
371.45	543.00
371.65	568.75
371.84	582.79
372.04	540.66
372.24	491.51
372.44	550.03
372.63	589.82
372.83	592.16
373.03	585.13
373.22	535.98
373.42	547.69
373.62	702.16
373.81	615.56
374.01	617.90
374.21	636.63
374.40	669.39
374.60	664.71
374.79	592.16
374.99	627.26
375.19	697.48
375.38	655.35
375.58	650.67
375.78	627.26
375.97	699.82
376.17	692.80
376.37	648.33
376.56	681.10
376.76	641.31
376.95	711.52
377.15	688.12
377.35	770.04
377.54	767.70
377.74	692.80
377.93	641.31
378.13	638.97
378.33	709.18
378.52	676.41
378.72	718.54
378.91	758.33
379.11	664.71
379.31	688.12
379.50	716.20
379.70	751.31
379.89	800.46
380.09	657.69
380.28	737.27
380.48	725.57
380.68	667.05
380.87	688.12
381.07	716.20
381.26	720.88
381.46	788.76
381.65	741.95
381.85	758.33
382.04	755.99
382.24	767.70
382.43	774.72
382.63	779.40
382.83	793.44
383.02	821.53
383.22	765.36
383.41	777.06
383.61	812.17
383.80	763.01
384.00	711.52
384.19	760.67
384.39	812.17
384.58	837.91
384.78	870.68
384.97	854.30
385.17	805.14
385.36	828.55
385.56	882.38
385.75	884.72
385.95	889.40
386.14	884.72
386.34	781.74
386.53	842.59
386.72	849.61
386.92	929.19
387.11	884.72
387.31	880.04
387.50	926.85
387.70	882.38
387.89	873.02
388.09	844.93
388.28	880.04
388.48	882.38
388.67	950.26
388.86	929.19
389.06	816.85
389.25	971.32
389.45	945.58
389.64	983.02
389.84	999.41
390.03	971.32
390.22	894.08
390.42	947.92
390.61	908.13
390.81	919.83
391.00	976.00
391.19	1090.69
391.39	1046.22
391.58	971.32
391.78	971.32
391.97	1055.58
392.16	947.92
392.36	994.73
392.55	954.94
392.75	1006.43
392.94	1022.81
393.13	1041.54
393.33	936.21
393.52	1029.84
393.71	1151.54
393.91	997.07
394.10	943.24
394.29	1062.60
394.49	1095.37
394.68	1032.18
394.88	1174.95
395.07	1081.33
395.26	1149.20
395.46	1142.18
395.65	1153.88
395.84	1142.18
396.04	1135.16
396.23	1193.67
396.42	1118.78
396.62	1123.46
396.81	1261.55
397.00	1256.87
397.19	1247.51
397.39	1109.41
397.58	1118.78
397.77	1221.76
397.97	1256.87
398.16	1205.38
398.35	1376.24
398.55	1275.59
398.74	1299.00
398.93	1259.21
399.12	1228.78
399.32	1308.36
399.51	1336.45
399.70	1371.55
399.90	1270.91
400.09	1322.40
400.28	1420.71
400.47	1399.64
400.67	1509.65
400.86	1409.00
401.05	1324.74
401.24	1453.47
401.44	1371.55
401.63	1483.90
401.82	1401.98
402.01	1469.86
402.21	1397.30
402.40	1427.73
402.59	1409.00
402.78	1451.13
402.97	1472.20
403.17	1575.18
403.36	1507.30
403.55	1533.05
403.74	1474.54
403.93	1533.05
404.13	1577.52
404.32	1579.86
404.51	1598.59
404.70	1678.16
404.89	1591.56
405.09	1643.06
405.28	1673.48
405.47	1701.57
405.66	1643.06
405.85	1692.21
406.05	1605.61
406.24	1776.47
406.43	1764.76
406.62	1678.16
406.81	1816.26
407.00	1748.38
407.20	1746.04
407.39	1727.32
407.58	1771.79
407.77	1748.38
407.96	1839.66
408.15	1930.94
408.34	1907.54
408.54	1860.73
408.73	1842.00
408.92	1881.79
409.11	1919.24
409.30	1853.70
409.49	1944.99
409.68	1968.39
409.87	1984.77
410.07	1998.82
410.26	1898.17
410.45	2090.10
410.64	1973.07
410.83	2033.93
411.02	2052.65
411.21	2054.99
411.40	2104.14
411.59	2211.81
411.78	2026.90
411.98	2038.61
412.17	2260.96
412.36	2211.81
412.55	2221.17
412.74	2251.60
412.93	2256.28
413.12	2277.34
413.31	2373.30
413.50	2263.30
413.69	2328.83
413.88	2368.62
414.07	2359.26
414.26	2408.41
414.45	2427.14
414.64	2548.84
414.83	2469.27
415.02	2581.61
415.22	2583.95
415.41	2612.04
415.60	2518.42
415.79	2588.63
415.98	2644.81
416.17	2679.91
416.36	2843.75
416.55	2672.89
416.74	2677.57
416.93	2761.83
417.12	2747.79
417.31	2796.94
417.50	2813.32
417.69	2913.97
417.88	2869.50
418.07	2846.09
418.26	2839.07
418.45	2925.67
418.64	3124.62
418.83	3173.77
419.02	3026.31
419.21	3000.57
419.39	3042.70
419.58	2904.60
419.77	3021.63
419.96	3101.21
420.15	3068.44
420.34	3091.85
420.53	3157.38
420.72	3222.92
420.91	3157.38
421.10	3197.17
421.29	3246.32
421.48	3155.04
421.67	3119.93
421.86	3255.69
422.05	3243.98
422.24	3138.66
422.43	3279.09
422.61	3251.00
422.80	3393.78
422.99	3262.71
423.18	3375.05
423.37	3445.27
423.56	3403.14
423.75	3272.07
423.94	3234.62
424.13	3141.00
424.32	3180.79
424.50	3531.87
424.69	3412.50
424.88	3386.76
425.07	3412.50
425.26	3368.03
425.45	3384.41
425.64	3349.31
425.83	3353.99
426.01	3445.27
426.20	3281.43
426.39	3403.14
426.58	3389.10
426.77	3529.53
426.96	3449.95
427.15	3400.80
427.33	3478.04
427.52	3419.52
427.71	3702.73
427.90	3555.27
428.09	3569.32
428.28	3655.92
428.46	3646.55
428.65	3552.93
428.84	3733.15
429.03	3749.54
429.22	3627.83
429.40	3707.41
429.59	3733.15
429.78	3480.38
429.97	3471.01
430.16	3702.73
430.34	3810.39
430.53	3836.14
430.72	3791.67
430.91	3667.62
431.10	3798.69
431.28	3850.18
431.47	3997.64
431.66	4035.08
431.85	3911.04
432.03	3918.06
432.22	3948.48
432.41	3971.89
432.60	3960.19
432.79	3950.82
432.97	4030.40
433.16	3946.14
433.35	4030.40
433.54	3960.19
433.72	4156.79
433.91	4140.41
434.10	3941.46
434.28	4147.43
434.47	4168.49
434.66	4156.79
434.85	4346.37
435.03	4117.00
435.22	4168.49
435.41	4248.07
435.59	4346.37
435.78	4278.50
435.97	4301.90
436.16	4196.58
436.34	4337.01
436.53	4346.37
436.72	4360.42
436.90	4381.48
437.09	4479.79
437.28	4325.31
437.46	4461.06
437.65	4428.29
437.84	4463.40
438.02	4418.93
438.21	4407.23
438.40	4341.69
438.58	4657.67
438.77	4552.34
438.96	4608.51
439.14	4830.87
439.33	4690.43
439.52	4884.70
439.70	4805.12
439.89	4997.04
440.08	4868.31
440.26	4905.76
440.45	4903.42
440.63	5149.18
440.82	5104.71
441.01	5008.75
441.19	5095.35
441.38	5207.69
441.57	5128.11
441.75	5181.95
441.94	5329.40
442.12	5366.85
442.31	5280.25
442.50	5376.21
442.68	5214.71
442.87	5298.97
443.05	5390.25
443.24	5394.93
443.43	5362.17
443.61	5376.21
443.80	5572.82
443.98	5472.17
444.17	5254.50
444.35	5441.75
444.54	5603.24
444.73	5397.28
444.91	5600.90
445.10	5383.23
445.28	5638.35
445.47	5530.69
445.65	5533.03
445.84	5448.77
446.02	5682.82
446.21	5518.98
446.39	5591.54
446.58	5650.05
446.77	5575.16
446.95	5430.04
447.14	5607.92
447.32	5671.12
447.51	5509.62
447.69	5652.39
447.88	5577.50
448.06	5547.07
448.25	5638.35
448.43	5783.46
448.62	5769.42
448.80	5823.25
448.99	5781.12
449.17	5764.74
449.36	5647.71
449.54	5923.90
449.73	5991.77
449.91	5991.77
450.10	5865.38
450.28	5998.79
450.46	6061.99
450.65	5884.11
450.83	6012.84
451.02	6139.23
451.20	6132.20
451.39	5916.87
451.57	5977.73
451.76	6106.46
451.94	6003.47
452.13	6031.56
452.31	6223.48
452.49	6113.48
452.68	6176.67
452.86	6186.04
453.05	6150.93
453.23	6228.17
453.42	6188.38
453.60	6176.67
453.78	6265.61
453.97	6270.30
454.15	6303.06
454.34	6164.97
454.52	6258.59
454.70	6431.79
454.89	6520.73
455.07	6473.92
455.26	6401.37
455.44	6670.53
455.62	6703.29
455.81	6579.25
455.99	6626.06
456.17	6621.38
456.36	6663.51
456.54	6815.64
456.73	6787.55
456.91	6817.98
457.09	6736.06
457.28	6932.67
457.46	6705.63
457.64	6986.50
457.83	6810.96
458.01	6979.48
458.19	7082.46
458.38	6918.62
458.56	7089.48
458.74	7126.93
458.93	7049.69
459.11	7105.87
459.29	7082.46
459.48	7173.74
459.66	7253.32
459.84	7208.85
460.03	7276.73
460.21	7215.87
460.39	7143.32
460.57	7260.34
460.76	7384.39
460.94	7255.66
461.12	7199.49
461.31	7588.02
461.49	7276.73
461.67	7300.13
461.85	7632.49
462.04	7414.82
462.22	7838.45
462.40	7569.29
462.59	7595.04
462.77	7449.93
462.95	7634.83
463.13	7531.84
463.32	7712.07
463.50	7660.57
463.68	7763.56
463.86	7822.07
464.05	7831.43
464.23	7637.17
464.41	7770.58
464.59	7559.93
464.78	8004.63
464.96	7798.66
465.14	7655.89
465.32	7978.89
465.50	7957.82
465.69	7997.61
465.87	7779.94
466.05	7964.84
466.23	8088.89
466.41	8180.17
466.60	8175.49
466.78	8028.04
466.96	8004.63
467.14	7957.82
467.32	8060.80
467.51	8224.64
467.69	7995.27
467.87	8243.37
468.05	8250.39
468.23	7992.93
468.41	7962.50
468.60	8243.37
468.78	8231.66
468.96	8407.20
469.14	8533.59
469.32	8676.37
469.50	8152.09
469.69	8439.97
469.87	8517.21
470.05	8468.06
470.23	8603.81
470.41	8554.66
470.59	8772.33
470.77	8545.30
470.95	8613.17
471.14	8898.72
471.32	8702.11
471.50	9027.45
471.68	8968.93
471.86	8842.54
472.04	8884.67
472.22	9076.60
472.40	8879.99
472.58	9050.85
472.77	9130.43
472.95	9144.47
473.13	9408.95
473.31	9273.20
473.49	9294.27
473.67	9322.35
473.85	9465.13
474.03	9614.92
474.21	9614.92
474.39	9703.86
474.57	9657.05
474.75	9720.24
474.93	9886.42
475.12	9790.46
475.30	9888.76
475.48	9762.37
475.66	9909.83
475.84	9605.56
476.02	10029.20
476.20	9802.16
476.38	9970.68
476.56	10434.11
476.74	10399.00
476.92	10195.37
477.10	10366.23
477.28	10520.71
477.46	10593.26
477.64	10640.08
477.82	10881.15
478.00	10967.75
478.18	10909.24
478.36	10890.51
478.54	10977.11
478.72	11023.92
478.90	11147.97
479.08	11646.51
479.26	11363.30
479.44	11375.00
479.62	11674.59
479.80	11623.10
479.98	11644.17
480.16	12109.93
480.34	11852.47
480.52	11908.65
480.70	12058.44
480.88	11838.43
481.06	12311.22
481.24	12294.83
481.41	12154.40
481.59	12610.81
481.77	12561.66
481.95	12545.27
482.13	12868.27
482.31	12613.15
482.49	13238.07
482.67	12924.44
482.85	13008.70
483.03	13373.82
483.21	13390.20
483.39	13678.09
483.57	13497.87
483.74	13598.51
483.92	13809.16
484.10	13830.23
484.28	13956.61
484.46	14052.58
484.64	14494.94
484.82	14197.69
485.00	14211.73
485.18	14728.99
485.35	14843.68
485.53	14693.88
485.71	15014.54
485.89	14785.16
486.07	14761.76
486.25	15089.43
486.43	15283.70
486.61	15449.88
486.78	15644.14
486.96	15620.74
487.14	15882.88
487.32	15737.76
487.50	15889.90
487.68	16133.31
487.85	16498.44
488.03	16538.23
488.21	16669.30
488.39	16692.70
488.57	16816.75
488.75	17048.46
488.92	17158.47
489.10	17095.27
489.28	17319.96
489.46	17151.45
489.64	17128.04
489.81	17734.24
489.99	18115.75
490.17	17668.70
490.35	18108.72
490.53	18122.77
490.70	18274.90
490.88	18347.46
491.06	18448.10
491.24	18731.31
491.41	18831.95
491.59	18778.12
491.77	18892.80
491.95	18934.93
492.13	19442.83
492.30	19337.51
492.48	19513.05
492.66	19454.53
492.84	19592.62
493.01	19814.98
493.19	20025.62
493.37	20084.14
493.54	20081.80
493.72	20046.69
493.90	20086.48
494.08	20662.25
494.25	20236.27
494.43	20421.17
494.61	20842.47
494.79	21153.76
494.96	20688.00
495.14	20926.73
495.32	21483.78
495.49	21352.71
495.67	21142.06
495.85	21462.71
496.02	21816.13
496.20	21928.48
496.38	22003.38
496.55	21851.24
496.73	22459.78
496.91	22129.77
497.09	22471.48
497.26	22417.65
497.44	22256.15
497.62	22726.60
497.79	23056.62
497.97	22778.09
498.14	22913.84
498.32	23110.45
498.50	23091.73
498.67	23274.29
498.85	23365.57
499.03	23793.89
499.20	23349.18
499.38	23906.23
499.56	23740.05
499.73	23744.73
499.91	24037.30
500.08	24180.07
500.26	23777.50
500.44	24472.64
500.61	24247.95
500.79	24072.41
500.97	24301.78
501.14	24739.46
501.32	24779.25
501.49	24652.86
501.67	25055.43
501.84	24973.52
502.02	24961.81
502.20	25083.52
502.37	25247.36
502.55	25151.40
502.72	25329.28
502.90	25619.50
503.07	25420.56
503.25	25675.68
503.43	25516.52
503.60	25799.73
503.78	25944.84
503.95	25816.11
504.13	26096.97
504.30	26361.45
504.48	26370.82
504.65	26443.37
504.83	26405.92
505.01	26441.03
505.18	26441.03
505.36	26930.20
505.53	26515.93
505.71	26979.36
505.88	26843.60
506.06	26335.71
506.23	27182.98
506.41	26883.39
506.58	26731.26
506.76	27587.89
506.93	27517.68
507.11	27564.49
507.28	27346.82
507.46	27613.64
507.63	27681.52
507.81	27737.69
507.98	27850.03
508.16	27728.33
508.33	28009.19
508.50	28271.33
508.68	28397.72
508.85	28524.11
509.03	27978.76
509.20	28652.84
509.38	28645.82
509.55	28952.43
509.73	28690.29
509.90	28797.95
510.08	28697.31
510.25	29085.84
510.42	28994.56
510.60	29076.48
510.77	29165.42
510.95	29469.69
511.12	29193.50
511.30	29404.15
511.47	29198.18
511.64	29357.34
511.82	29954.18
511.99	29846.51
512.17	29727.14
512.34	29933.11
512.51	30092.27
512.69	30363.77
512.86	30206.95
513.04	30417.60
513.21	30391.86
513.38	30590.80
513.56	30766.34
513.73	30969.97
513.90	30895.07
514.08	30333.34
514.25	31072.95
514.43	30965.29
514.60	30960.61
514.77	30827.20
514.95	30801.45
515.12	31229.77
515.29	31084.65
515.47	31185.30
515.64	31562.12
515.81	31512.97
515.99	31292.96
516.16	31723.62
516.33	31601.91
516.51	31786.82
516.68	31440.42
516.85	31952.99
517.03	31625.32
517.20	32032.57
517.37	32055.98
517.54	32236.20
517.72	32449.19
517.89	32318.12
518.06	32161.30
518.24	32402.38
518.41	32224.50
518.58	32510.04
518.75	32477.27
518.93	32877.51
519.10	32559.19
519.27	32615.37
519.45	32477.27
519.62	33027.30
519.79	32921.98
519.96	33268.37
520.14	32900.91
520.31	32921.98
520.48	33174.75
520.65	33486.04
520.83	33762.23
521.00	33862.87
521.17	33582.01
521.34	33851.17
521.52	33703.71
521.69	34169.48
521.86	33982.24
522.03	34277.15
522.20	34010.32
522.38	34445.66
522.55	34117.99
522.72	34546.31
522.89	34417.58
523.07	34747.59
523.24	34146.08
523.41	34492.47
523.58	34352.04
523.75	35051.86
523.92	34852.92
524.10	35021.44
524.27	34408.22
524.44	34920.79
524.61	35026.12
524.78	34995.69
524.96	35283.58
525.13	35503.59
525.30	35358.47
525.47	35288.26
525.64	35182.93
525.81	36320.43
525.98	35739.98
526.16	35257.83
526.33	35379.54
526.50	35974.03
526.67	35833.60
526.84	35674.45
527.01	35566.78
527.18	35798.49
527.36	36114.47
527.53	36114.47
527.70	36535.76
527.87	36357.88
528.04	36364.90
528.21	36219.79
528.38	36456.18
528.55	36357.88
528.72	36601.30
528.89	36084.04
529.07	36175.32
529.24	36341.50
529.41	37048.34
529.58	36662.15
529.75	36589.59
529.92	37074.09
530.09	36781.52
530.26	37081.11
530.43	37062.38
530.60	36886.84
530.77	36882.16
530.94	37251.97
531.11	37113.87
531.28	37151.32
531.46	37275.37
531.63	37771.57
531.80	37584.32
531.97	37589.00
532.14	37654.54
532.31	37532.83
532.48	37490.70
532.65	37736.46
532.82	38052.43
532.99	37596.03
533.16	37741.14
533.33	37675.60
533.50	38227.97
533.67	38150.73
533.84	38115.62
534.01	38443.30
534.18	37841.78
534.35	38408.19
534.52	38272.44
534.69	38740.55
534.86	38574.37
535.03	38337.98
535.20	38775.66
535.37	38593.09
535.54	38801.40
535.71	38836.51
535.88	39023.75
536.05	39129.08
536.22	38923.11
536.38	38848.21
536.55	38548.62
536.72	38644.59
536.89	38981.62
537.06	38785.02
537.23	39482.50
537.40	38628.20
537.57	38724.16
537.74	39108.01
537.91	39105.67
538.08	39091.63
538.25	38902.04
538.42	39660.38
538.59	39723.57
538.75	39557.39
538.92	39665.06
539.09	39718.89
539.26	39402.92
539.43	39665.06
539.60	39213.34
539.77	39665.06
539.94	40194.02
540.11	39833.58
540.28	39721.23
540.44	39725.91
540.61	40392.97
540.78	40069.97
540.95	39995.07
541.12	39819.53
541.29	40067.63
541.46	40247.85
541.62	40268.92
541.79	40500.63
541.96	39983.37
542.13	40140.19
542.30	40126.14
542.47	40650.42
542.63	40156.57
542.80	41062.36
542.97	40725.32
543.14	41345.56
543.31	40720.64
543.48	41177.04
543.64	41282.37
543.81	41345.56
543.98	41649.83
544.15	41511.74
544.32	41151.30
544.48	41324.50
544.65	41401.74
544.82	41698.98
544.99	41425.14
545.16	41490.68
545.32	41642.81
545.49	41450.89
545.66	41610.04
545.83	41588.98
546.00	41729.41
546.16	41652.17
546.33	41308.11
546.50	41329.18
546.67	42279.44
546.83	41265.99
547.00	41947.08
547.17	41914.31
547.34	42000.91
547.50	42026.66
547.67	42557.96
547.84	42003.25
548.00	42181.13
548.17	42789.67
548.34	42616.47
548.51	42230.29
548.67	42150.71
548.84	42265.39
549.01	42639.88
549.18	42291.14
549.34	42508.81
549.51	42513.49
549.68	42564.98
549.84	42436.25
550.01	42773.29
550.18	42375.40
550.34	42855.21
550.51	42871.59
550.68	42747.54
550.84	42080.49
551.01	43164.16
551.18	43037.77
551.34	42415.19
551.51	43145.44
551.68	42916.06
551.84	42864.57
552.01	42574.34
552.18	42775.63
552.34	43068.20
552.51	43199.27
552.68	42813.08
552.84	42794.36
553.01	43325.66
553.18	43005.00
553.34	43171.18
553.51	43306.93
553.67	43328.00
553.84	43679.08
554.01	43746.95
554.17	43636.95
554.34	43679.08
554.51	43555.03
554.67	44088.67
554.84	43580.78
555.00	43768.02
555.17	43501.20
555.33	43814.83
555.50	43601.84
555.67	44179.95
555.83	43510.56
556.00	44102.71
556.16	44451.45
556.33	43679.08
556.50	44163.57
556.66	43999.73
556.83	43667.37
556.99	44261.87
557.16	44215.06
557.32	44264.21
557.49	44516.99
557.65	43973.98
557.82	44264.21
557.98	44325.07
558.15	43732.91
558.32	44402.30
558.48	44112.08
558.65	44381.24
558.81	44477.20
558.98	44098.03
559.14	44243.15
559.31	44512.31
559.47	44463.16
559.64	44584.86
559.80	44395.28
559.97	44708.91
560.13	44439.75
560.30	44170.59
560.46	44678.49
560.63	44795.51
560.79	44744.02
560.96	44814.24
561.12	44603.59
561.29	45013.18
561.45	44832.96
561.61	44767.43
561.78	44861.05
561.94	44596.57
562.11	44830.62
562.27	44414.01
562.44	44783.81
562.60	45022.54
562.77	45181.70
562.93	44701.89
563.10	44861.05
563.26	45003.82
563.42	45324.47
563.59	45043.61
563.75	44790.83
563.92	45500.01
564.08	44952.33
564.24	45268.30
564.41	45106.80
564.57	45074.04
564.74	44971.05
564.90	45132.55
565.07	45008.50
565.23	45329.16
565.39	45013.18
565.56	45390.01
565.72	45415.76
565.88	45361.92
566.05	45106.80
566.21	45338.52
566.38	45361.92
566.54	45595.98
566.70	45359.58
566.87	45448.52
567.03	45221.49
567.19	45645.13
567.36	45399.37
567.52	45694.28
567.68	45687.26
567.85	45764.49
568.01	45680.24
568.17	45336.18
568.34	45443.84
568.50	45574.91
568.66	45284.68
568.83	45542.14
568.99	45368.94
569.15	45202.77
569.32	45471.93
569.48	45322.13
569.64	45972.80
569.81	45640.45
569.97	45284.68
570.13	45787.90
570.30	45095.10
570.46	46021.95
570.62	45713.00
570.78	45588.95
570.95	46026.63
571.11	45848.75
571.27	45837.05
571.43	45853.44
571.60	45771.52
571.76	45446.18
571.92	46040.68
572.09	45661.51
572.25	46026.63
572.41	46129.62
572.57	45918.97
572.74	45869.82
572.90	45961.10
573.06	45841.73
573.22	45727.05
573.38	46380.06
573.55	46265.37
573.71	45979.82
573.87	46366.01
574.03	45624.06
574.20	46417.50
574.36	46085.15
574.52	45963.44
574.68	46155.36
574.84	46377.72
575.01	46087.49
575.17	46232.60
575.33	45986.85
575.49	45933.01
575.65	46323.88
575.82	46333.24
575.98	45937.69
576.14	46461.97
576.30	46068.76
576.46	46415.16
576.62	46117.92
576.79	46312.18
576.95	45382.99
577.11	45813.65
577.27	45996.21
577.43	46251.33
577.59	45734.07
577.75	46117.92
577.92	45701.30
578.08	46129.62
578.24	46314.52
578.40	46696.03
578.56	46314.52
578.72	46401.12
578.88	45998.55
579.04	45909.61
579.21	46454.95
579.37	46176.43
579.53	46564.96
579.69	45989.19
579.85	46286.43
580.01	46263.03
580.17	46075.79
580.33	46508.79
580.49	46429.21
580.65	46487.72
580.82	46171.75
580.98	45869.82
581.14	45729.39
581.30	46717.09
581.46	46312.18
581.62	46309.84
581.78	46169.41
581.94	46164.73
582.10	46270.05
582.26	46674.96
582.42	46464.32
582.58	46445.59
582.74	46543.89
582.90	46347.29
583.06	46246.65
583.22	46026.63
583.38	46581.34
583.54	46469.00
583.70	46728.80
583.86	46583.68
584.02	45876.84
584.18	46600.07
584.34	46768.58
584.50	46761.56
584.66	46728.80
584.82	46476.02
584.98	46670.28
585.14	46487.72
585.30	46361.33
585.46	46513.47
585.62	46609.43
585.78	46632.83
585.94	46600.07
586.10	46337.93
586.26	46571.98
586.42	46237.28
586.58	46817.74
586.74	46127.28
586.90	46164.73
587.06	46794.33
587.22	46356.65
587.38	45998.55
587.54	46600.07
587.70	46763.90
587.86	46883.27
588.02	46452.61
588.18	46628.15
588.34	46667.94
588.49	46691.35
588.65	46700.71
588.81	47044.77
588.97	46960.51
589.13	46876.25
589.29	46700.71
589.45	47136.05
589.61	46330.90
589.77	47056.47
589.93	46838.80
590.08	46939.44
590.24	47239.03
590.40	47250.74
590.56	47014.34
590.72	46986.25
590.88	46674.96
591.04	46801.35
591.20	47189.88
591.35	47126.69
591.51	47358.40
591.67	46960.51
591.83	47012.00
591.99	47243.71
592.15	46932.42
592.31	46873.91
592.46	47220.31
592.62	47061.15
592.78	47047.11
592.94	47657.99
593.10	47482.45
593.26	47625.22
593.41	47117.32
593.57	47150.09
593.73	46911.36
593.89	47288.18
594.05	47248.39
594.20	47302.23
594.36	47683.73
594.52	47028.38
594.68	47021.36
594.84	47002.64
594.99	47241.37
595.15	47320.95
595.31	47400.53
595.47	47306.91
595.62	47367.76
595.78	47014.34
595.94	47234.35
596.10	47248.39
596.25	47203.92
596.41	47234.35
596.57	47653.31
596.73	47468.40
596.88	47756.29
597.04	47096.26
597.20	47114.98
597.36	47297.55
597.51	47700.12
597.67	46728.80
597.83	47407.55
597.99	47573.73
598.14	47447.34
598.30	47271.80
598.46	47606.50
598.61	47583.09
598.77	47213.29
598.93	47550.32
599.09	47344.36
599.24	47327.97
599.40	47501.17
599.56	47377.12
599.71	47440.32
599.87	48065.24
600.03	47859.27
600.18	47339.68
600.34	47650.97
600.50	47861.61
600.65	47510.53
600.81	47683.73
600.97	47735.23
601.12	47138.39
601.28	47283.50
601.44	47360.74
601.59	47100.94
601.75	47295.21
601.91	47737.57
602.06	47737.57
602.22	47590.11
602.37	47257.76
602.53	47550.32
602.69	47461.38
602.84	47393.51
603.00	47033.07
603.16	47395.85
603.31	47578.41
603.47	47707.14
603.62	47601.82
603.78	47765.65
603.94	47592.45
604.09	46864.55
604.25	47430.96
604.40	47026.04
604.56	47594.79
604.71	47828.85
604.87	47334.99
605.03	47210.95
605.18	47393.51
605.34	47487.13
605.49	47379.46
605.65	47557.35
605.80	47388.83
605.96	47351.38
606.12	47494.15
606.27	47522.24
606.43	47257.76
606.58	47817.14
606.74	47456.70
606.89	47243.71
607.05	47627.56
607.20	47601.82
607.36	47365.42
607.51	47426.28
607.67	47250.74
607.82	47365.42
607.98	46873.91
608.13	47150.09
608.29	47217.97
608.44	47428.62
608.60	47044.77
608.75	47028.38
608.91	47248.39
609.06	46855.18
609.22	47105.62
609.37	46937.10
609.53	47402.87
609.68	47599.47
609.84	47028.38
609.99	47189.88
610.15	46892.63
610.30	47138.39
610.46	46897.31
610.61	47063.49
610.76	47292.86
610.92	47114.98
611.07	47103.28
611.23	46904.34
611.38	46983.91
611.54	46871.57
611.69	47246.05
611.84	47271.80
612.00	47040.09
612.15	47021.36
612.31	46880.93
612.46	46918.38
612.62	46937.10
612.77	46618.79
612.92	47110.30
613.08	46801.35
613.23	46803.69
613.39	46859.87
613.54	46579.00
613.69	47199.24
613.85	46773.27
614.00	46848.16
614.15	46820.08
614.31	46850.50
614.46	46529.85
614.62	46445.59
614.77	46656.24
614.92	46677.30
615.08	46483.04
615.23	46946.47
615.38	46806.03
615.54	46759.22
615.69	46375.37
615.84	46831.78
616.00	47063.49
616.15	47070.51
616.30	46522.83
616.46	46604.75
616.61	46270.05
616.76	46335.59
616.92	46314.52
617.07	46740.50
617.22	46314.52
617.37	46389.42
617.53	46431.55
617.68	45904.93
617.83	46176.43
617.99	46911.36
618.14	46635.17
618.29	46136.64
618.45	46307.50
618.60	46312.18
618.75	46099.19
618.90	45818.33
619.06	46174.09
619.21	45977.48
619.36	46628.15
619.51	45832.37
619.67	46167.07
619.82	45968.12
619.97	46223.24
620.12	46101.53
620.28	46136.64
620.43	46644.54
620.58	45799.60
620.73	46089.83
620.89	46202.18
621.04	46225.58
621.19	46314.52
621.34	46017.27
621.49	45799.60
621.65	46157.70
621.80	46143.66
621.95	46050.04
622.10	45911.95
622.25	46113.23
622.41	45638.11
622.56	45806.62
622.71	45984.51
622.86	45635.77
623.01	45567.89
623.16	45752.79
623.32	45815.99
623.47	45710.66
623.62	45633.42
623.77	45780.88
623.92	45748.11
624.07	45670.87
624.23	45970.46
624.38	45820.67
624.53	45544.48
624.68	45141.91
624.83	45141.91
624.98	45624.06
625.13	45289.37
625.29	45469.59
625.44	45663.85
625.59	45333.84
625.74	45347.88
625.89	45099.78
626.04	45212.13
626.19	45584.27
626.34	45088.08
626.49	44807.22
626.65	44797.85
626.80	45181.70
626.95	44739.34
627.10	44582.52
627.25	45294.05
627.40	45090.42
627.55	44992.12
627.70	44821.26
627.85	45212.13
628.00	45242.56
628.15	45258.94
628.30	44601.25
628.45	44521.67
628.60	44397.62
628.76	44643.38
628.91	44636.36
629.06	44306.34
629.21	44524.01
629.36	44652.74
629.51	44636.36
629.66	45006.16
629.81	44821.26
629.96	44910.20
630.11	44294.64
630.26	44362.51
630.41	44418.69
630.56	44509.97
630.71	43950.58
630.86	44402.30
631.01	44065.27
631.16	44540.39
631.31	44463.16
631.46	44252.51
631.61	44226.76
631.76	44311.02
631.91	44383.58
632.06	44851.69
632.21	44493.58
632.36	44589.55
632.51	43859.30
632.66	44294.64
632.81	44172.93
632.96	44128.46
633.10	44502.95
633.25	44306.34
633.40	44259.53
633.55	44655.08
633.70	43981.01
633.85	43903.77
634.00	43793.76
634.15	43658.01
634.30	43658.01
634.45	43751.63
634.60	44222.08
634.75	43871.00
634.90	44114.42
635.05	43950.58
635.19	44067.61
635.34	43824.19
635.49	43590.14
635.64	43887.39
635.79	43662.69
635.94	43863.98
636.09	43985.69
636.24	43482.47
636.39	43552.69
636.53	43990.37
636.68	43274.16
636.83	43297.57
636.98	43042.45
637.13	42696.05
637.28	43199.27
637.43	43360.76
637.57	43065.86
637.72	42834.14
637.87	43629.93
638.02	43613.54
638.17	43318.64
638.32	43430.98
638.46	42960.53
638.61	43276.51
638.76	42909.04
638.91	43072.88
639.06	42848.19
639.20	42600.09
639.35	42593.07
639.50	42906.70
639.65	43133.73
639.80	42492.43
639.94	42780.31
640.09	43559.71
640.24	43086.92
640.39	42600.09
640.54	42679.67
640.68	43194.59
640.83	43243.74
640.98	42539.24
641.13	42366.04
641.27	43068.20
641.42	42511.15
641.57	42721.80
641.72	42724.14
641.86	42387.10
642.01	42597.75
642.16	42845.85
642.31	42148.37
642.45	43112.67
642.60	42426.89
642.75	42646.90
642.90	42796.70
643.04	41972.83
643.19	42291.14
643.34	42131.98
643.48	42040.70
643.63	42536.90
643.78	42452.64
643.93	42815.42
644.07	42464.34
644.22	42192.84
644.37	42143.69
644.51	42766.27
644.66	42396.46
644.81	42466.68
644.95	42497.11
645.10	42183.48
645.25	42153.05
645.39	41811.33
645.54	42192.84
645.69	41881.55
645.83	41708.35
645.98	41797.29
646.13	41818.35
646.27	41963.46
646.42	41596.00
646.57	41516.42
646.71	42017.30
646.86	42061.77
647.00	41886.23
647.15	41633.45
647.30	42136.66
647.44	41752.82
647.59	41617.07
647.74	41656.85
647.88	41652.17
648.03	41933.04
648.17	41790.27
648.32	42089.85
648.47	42050.06
648.61	41572.60
648.76	41483.66
648.90	41727.07
649.05	41434.50
649.20	41411.10
649.34	41186.41
649.49	41762.18
649.63	41493.02
649.78	41537.49
649.92	41624.09
650.07	41773.88
650.21	41596.00
650.36	41713.03
650.51	41687.28
650.65	41757.50
650.80	41301.09
650.94	41420.46
651.09	41174.70
651.23	40517.01
651.38	41263.64
651.52	40896.18
651.67	41055.34
651.81	40828.30
651.96	41258.96
652.10	40725.32
652.25	40713.62
652.39	40947.67
652.54	41076.40
652.68	41013.21
652.83	41092.79
652.97	40945.33
653.12	40889.16
653.26	40781.49
653.41	41113.85
653.55	40996.82
653.70	41216.83
653.84	41020.23
653.99	41006.19
654.13	40856.39
654.27	40374.24
654.42	40608.29
654.56	40959.38
654.71	40376.58
654.85	40800.22
655.00	40804.90
655.14	40685.53
655.29	40594.25
655.43	40994.48
655.57	40584.89
655.72	39793.79
655.86	40678.51
656.01	39885.07
656.15	39859.32
656.30	40128.48
656.44	40538.08
656.58	40458.50
656.73	40402.33
656.87	39875.71
657.01	40154.23
657.16	39971.67
657.30	40399.99
657.45	40079.33
657.59	40301.68
657.73	39924.86
657.88	39814.85
658.02	40261.90
658.16	40189.34
658.31	40187.00
658.45	39810.17
658.60	39833.58
658.74	40030.18
658.88	39936.56
659.03	39849.96
659.17	39718.89
659.31	39407.60
659.46	39428.66
659.60	39555.05
659.74	39840.60
659.89	39414.62
660.03	39145.46
660.17	39526.97
660.32	39367.81
660.46	39201.63
660.60	38806.08
660.74	39246.10
660.89	38995.67
661.03	39063.54
661.17	39030.77
661.32	39126.74
661.46	38979.28
661.60	39138.44
661.74	39065.88
661.89	38969.92
662.03	38756.93
662.17	38323.93
662.31	38106.26
662.46	38284.14
662.60	38653.95
662.74	38188.18
662.88	38101.58
663.03	38005.62
663.17	38333.29
663.31	38447.98
663.45	38417.55
663.60	38508.83
663.74	38539.26
663.88	38312.23
664.02	38115.62
664.17	37989.24
664.31	37874.55
664.45	37467.30
664.59	38024.34
664.73	37490.70
664.88	37785.61
665.02	37596.03
665.16	37628.79
665.30	37340.91
665.44	37638.15
665.59	37294.10
665.73	37188.77
665.87	37041.32
666.01	37247.29
666.15	37301.12
666.29	36659.81
666.44	37221.54
666.58	37247.29
666.72	36966.42
666.86	36989.83
667.00	36926.63
667.14	37144.30
667.28	36943.02
667.43	36917.27
667.57	36776.84
667.71	36720.66
667.85	36725.35
667.99	36622.36
668.13	36091.06
668.27	36465.55
668.41	36091.06
668.56	36137.87
668.70	35653.38
668.84	35892.12
668.98	35849.99
669.12	36077.02
669.26	36130.85
669.40	36116.81
669.54	35842.96
669.68	35800.83
669.82	35714.23
669.96	35480.18
670.10	35304.64
670.25	35468.48
670.39	35416.99
670.53	35519.97
670.67	35435.71
670.81	35276.55
670.95	35262.51
671.09	35152.51
671.23	35433.37
671.37	35309.32
671.51	34890.37
671.65	35271.87
671.79	34850.58
671.93	34452.69
672.07	35173.57
672.21	34946.54
672.35	34522.90
672.49	34558.01
672.63	34323.96
672.77	34553.33
672.91	34361.40
673.05	34265.44
673.19	34033.73
673.33	33855.85
673.47	34017.35
673.61	33844.15
673.75	33509.45
673.89	33619.46
674.03	33462.64
674.17	33326.89
674.31	33373.70
674.45	33280.08
674.59	33027.30
674.73	33301.14
674.87	33270.72
675.01	32837.72
675.15	32833.04
675.29	32669.20
675.43	32945.38
675.56	32910.27
675.70	32683.24
675.84	32734.73
675.98	31517.65
676.12	32395.35
676.26	32528.77
676.40	32371.95
676.54	31892.14
676.68	32137.90
676.82	31419.35
676.96	32334.50
677.10	32233.86
677.23	31496.59
677.37	32180.03
677.51	31747.03
677.65	31477.86
677.79	31749.37
677.93	31501.27
678.07	31225.09
678.21	31063.59
678.34	31068.27
678.48	30628.25
678.62	30710.17
678.76	30522.93
678.90	30511.22
679.04	30654.00
679.18	30724.21
679.31	30501.86
679.45	30424.62
679.59	30338.02
679.73	30412.92
679.87	30143.76
680.00	29816.08
680.14	29954.18
680.28	29996.31
680.42	30059.50
680.56	29476.71
680.70	29340.96
680.83	29436.92
680.97	28931.36
681.11	29596.07
681.25	29008.60
681.39	28687.95
681.52	28849.44
681.66	28489.00
681.80	28032.60
681.94	27936.63
682.07	28212.82
682.21	28503.04
682.35	28037.28
682.49	27901.53
682.62	27730.67
682.76	28058.34
682.90	28039.62
683.04	27480.23
683.17	27618.32
683.31	27300.01
683.45	27323.41
683.59	27300.01
683.72	26941.91
683.86	27304.69
684.00	27159.58
684.13	27096.38
684.27	26742.96
684.41	26911.48
684.55	26511.25
684.68	26700.83
684.82	26359.11
684.96	26422.31
685.09	26148.46
685.23	26389.54
685.37	26663.38
685.50	26246.77
685.64	26221.02
685.78	26293.58
685.91	25860.58
686.05	25523.54
686.19	25228.63
686.32	25551.63
686.46	25226.29
686.60	24926.71
686.73	25146.72
686.87	25069.48
687.01	25153.74
687.14	24929.05
687.28	25057.78
687.42	25104.59
687.55	24439.87
687.69	24664.57
687.82	23857.08
687.96	24273.70
688.10	24224.54
688.23	23997.51
688.37	24388.38
688.50	24596.69
688.64	24318.17
688.78	23939.00
688.91	23901.55
689.05	23782.18
689.18	23630.05
689.32	23351.52
689.46	23323.44
689.59	23248.54
689.73	23297.69
689.86	23557.49
690.00	23117.47
690.13	23351.52
690.27	22593.19
690.41	23037.89
690.54	22452.76
690.68	22326.37
690.81	22157.85
690.95	22656.39
691.08	22207.00
691.22	22309.99
691.35	21825.50
691.49	22373.18
691.62	22361.48
691.76	21708.47
691.89	21553.99
692.03	21418.24
692.16	21713.15
692.30	21614.85
692.43	21427.60
692.57	21305.90
692.70	20915.03
692.84	21083.55
692.97	20905.66
693.11	21153.76
693.24	20741.83
693.38	20512.46
693.51	20826.09
693.65	20498.41
693.78	20634.16
693.92	20269.04
694.05	20210.53
694.19	19960.09
694.32	20247.97
694.45	20479.69
694.59	20245.63
694.72	20297.13
694.86	19941.36
694.99	19807.95
695.13	19386.66
695.26	19381.98
695.39	19040.26
695.53	19583.26
695.66	19335.17
695.80	19131.54
695.93	19501.34
696.07	18618.96
696.20	18647.05
696.33	18551.09
696.47	18593.22
696.60	18883.44
696.73	18658.75
696.87	18574.49
697.00	18506.62
697.14	18368.52
697.27	18134.47
697.40	18209.37
697.54	18321.71
697.67	18045.53
697.80	18106.38
697.94	17755.30
698.07	17757.64
698.21	17521.25
698.34	17624.23
698.47	17666.36
698.61	17170.17
698.74	17172.51
698.87	17357.41
699.01	16898.67
699.14	17207.62
699.27	16879.94
699.40	16781.64
699.54	16973.56
699.67	16922.07
699.80	16821.43
699.94	16566.31
700.07	16570.99
700.20	16397.79
700.34	16250.34
700.47	16203.53
700.60	16587.38
700.73	16049.05
700.87	16077.14
701.00	15850.11
701.13	15768.19
701.26	15850.11
701.40	15840.75
701.53	15648.82
701.66	15625.42
701.79	15613.71
701.93	15405.41
702.06	15241.57
702.19	15295.40
702.32	15314.13
702.46	14998.15
702.59	15262.63
702.72	15119.86
702.85	15049.64
702.99	15204.12
703.12	14815.59
703.25	14904.53
703.38	14630.69
703.51	14738.35
703.65	14410.68
703.78	14473.87
703.91	14298.33
704.04	14265.57
704.17	14338.12
704.31	14497.28
704.44	14216.41
704.57	14134.50
704.70	13757.67
704.83	13802.14
704.96	14026.83
705.10	13678.09
705.23	13865.33
>>>>>End Processed Spectral Data<<<<<
