SpectraSuite Data File
++++++++++++++++++++++++++++++++++++
Date: Fri Oct 25 10:44:52 EDT 2013
User: price-jones
Dark Spectrum Present: No
Reference Spectrum Present: No
Number of Sampled Component Spectra: 1
Spectrometers: USB2+H05261
Integration Time (usec): 100000 (USB2+H05261)
Spectra Averaged: 1 (USB2+H05261)
Boxcar Smoothing: 0 (USB2+H05261)
Correct for Electrical Dark: No (USB2+H05261)
Strobe/Lamp Enabled: No (USB2+H05261)
Correct for Detector Non-linearity: No (USB2+H05261)
Correct for Stray Light: No (USB2+H05261)
Number of Pixels in Processed Spectrum: 2048
>>>>>Begin Processed Spectral Data<<<<<
365.73	182.56
365.92	182.56
366.12	182.56
366.32	16.38
366.52	72.56
366.72	23.41
366.91	0.00
367.11	0.00
367.31	0.00
367.51	23.41
367.70	42.13
367.90	0.00
368.10	30.43
368.30	0.00
368.49	30.43
368.69	56.17
368.89	46.81
369.09	0.00
369.28	70.22
369.48	74.90
369.68	72.56
369.87	100.64
370.07	112.35
370.27	77.24
370.47	210.65
370.66	367.46
370.86	369.80
371.06	479.81
371.25	451.72
371.45	423.64
371.65	414.27
371.84	395.55
372.04	409.59
372.24	421.30
372.44	423.64
372.63	538.32
372.83	470.45
373.03	451.72
373.22	505.56
373.42	482.15
373.62	468.11
373.81	461.09
374.01	496.19
374.21	510.24
374.40	477.47
374.60	550.03
374.79	559.39
374.99	510.24
375.19	538.32
375.38	608.54
375.58	524.28
375.78	533.64
375.97	571.09
376.17	638.97
376.37	617.90
376.56	617.90
376.76	564.07
376.95	505.56
377.15	589.82
377.35	620.24
377.54	568.75
377.74	617.90
377.93	585.13
378.13	547.69
378.33	636.63
378.52	622.58
378.72	671.73
378.91	643.65
379.11	592.16
379.31	610.88
379.50	622.58
379.70	671.73
379.89	702.16
380.09	653.01
380.28	617.90
380.48	650.67
380.68	622.58
380.87	702.16
381.07	662.37
381.26	688.12
381.46	716.20
381.65	667.05
381.85	734.93
382.04	709.18
382.24	688.12
382.43	704.50
382.63	650.67
382.83	655.35
383.02	657.69
383.22	746.63
383.41	720.88
383.61	730.25
383.80	739.61
384.00	674.07
384.19	667.05
384.39	667.05
384.58	732.59
384.78	718.54
384.97	774.72
385.17	744.29
385.36	692.80
385.56	758.33
385.75	774.72
385.95	774.72
386.14	795.78
386.34	791.10
386.53	737.27
386.72	781.74
386.92	788.76
387.11	826.21
387.31	774.72
387.50	819.19
387.70	704.50
387.89	802.80
388.09	758.33
388.28	819.19
388.48	828.55
388.67	896.43
388.86	875.36
389.06	807.48
389.25	870.68
389.45	884.72
389.64	812.17
389.84	952.60
390.03	880.04
390.22	875.36
390.42	870.68
390.61	980.68
390.81	961.96
391.00	931.53
391.19	959.62
391.39	1018.13
391.58	1027.50
391.78	1036.86
391.97	936.21
392.16	973.66
392.36	992.39
392.55	952.60
392.75	929.19
392.94	971.32
393.13	964.30
393.33	1004.09
393.52	994.73
393.71	1020.47
393.91	1144.52
394.10	1025.15
394.29	1081.33
394.49	1055.58
394.68	1071.97
394.88	1086.01
395.07	1095.37
395.26	1156.22
395.46	1086.01
395.65	1160.91
395.84	1167.93
396.04	1277.93
396.23	1111.75
396.42	1083.67
396.62	1060.26
396.81	1137.50
397.00	1069.62
397.19	1125.80
397.39	1275.59
397.58	1198.35
397.77	1287.29
397.97	1228.78
398.16	1313.04
398.35	1261.55
398.55	1212.40
398.74	1336.45
398.93	1320.06
399.12	1336.45
399.32	1313.04
399.51	1348.15
399.70	1418.36
399.90	1446.45
400.09	1355.17
400.28	1306.02
400.47	1448.79
400.67	1467.52
400.86	1394.96
401.05	1448.79
401.24	1420.71
401.44	1441.77
401.63	1486.24
401.82	1467.52
402.01	1591.56
402.21	1441.77
402.40	1521.35
402.59	1570.50
402.78	1547.09
402.97	1537.73
403.17	1647.74
403.36	1558.80
403.55	1579.86
403.74	1753.06
403.93	1678.16
404.13	1652.42
404.32	1643.06
404.51	1692.21
404.70	1631.35
404.89	1736.68
405.09	1692.21
405.28	1612.63
405.47	1708.59
405.66	1818.60
405.85	1734.34
406.05	1727.32
406.24	1858.39
406.43	1778.81
406.62	1937.96
406.81	1816.26
407.00	1837.32
407.20	1818.60
407.39	1891.15
407.58	1806.89
407.77	1923.92
407.96	1926.26
408.15	1874.77
408.34	1949.67
408.54	2146.27
408.73	2097.12
408.92	1989.46
409.11	2019.88
409.30	1914.56
409.49	2005.84
409.68	1982.43
409.87	2019.88
410.07	2052.65
410.26	2120.53
410.45	2214.15
410.64	2064.35
410.83	2291.38
411.02	2232.87
411.21	2232.87
411.40	2207.13
411.59	2373.30
411.78	2272.66
411.98	2256.28
412.17	2272.66
412.36	2338.20
412.55	2403.73
412.74	2438.84
412.93	2422.45
413.12	2406.07
413.31	2457.56
413.50	2534.80
413.69	2583.95
413.88	2654.17
414.07	2530.12
414.26	2668.21
414.45	2619.06
414.64	2579.27
414.83	2684.59
415.02	2738.43
415.22	2766.51
415.41	2808.64
415.60	2768.85
415.79	2731.41
415.98	2881.20
416.17	2869.50
416.36	2810.98
416.55	2956.10
416.74	2862.48
416.93	2890.56
417.12	2920.99
417.31	2878.86
417.50	2984.18
417.69	3239.30
417.88	3126.96
418.07	2998.23
418.26	3045.04
418.45	3040.36
418.64	3178.45
418.83	3115.25
419.02	3229.94
419.21	3204.19
419.39	3192.49
419.58	3215.90
419.77	3096.53
419.96	3253.34
420.15	3365.69
420.34	3267.39
420.53	3328.24
420.72	3410.16
420.91	3370.37
421.10	3463.99
421.29	3442.93
421.48	3513.14
421.67	3492.08
421.86	3295.47
422.05	3407.82
422.24	3297.81
422.43	3447.61
422.61	3370.37
422.80	3412.50
422.99	3482.72
423.18	3513.14
423.37	3602.08
423.56	3630.17
423.75	3506.12
423.94	3473.36
424.13	3316.54
424.32	3349.31
424.50	3595.06
424.69	3698.05
424.88	3552.93
425.07	3492.08
425.26	3524.85
425.45	3611.45
425.64	3609.11
425.83	3571.66
426.01	3721.45
426.20	3688.68
426.39	3538.89
426.58	3698.05
426.77	3566.98
426.96	3665.28
427.15	3578.68
427.33	3616.13
427.52	3651.24
427.71	3705.07
427.90	3794.01
428.09	3810.39
428.28	3880.61
428.46	3871.25
428.65	3894.65
428.84	3899.33
429.03	3833.80
429.22	3604.42
429.40	3850.18
429.59	3751.88
429.78	3606.77
429.97	3782.31
430.16	3936.78
430.34	3817.41
430.53	3845.50
430.72	3932.10
430.91	3878.27
431.10	3990.61
431.28	4121.68
431.47	4133.39
431.66	4187.22
431.85	4212.96
432.03	4145.09
432.22	4217.65
432.41	4231.69
432.60	4044.45
432.79	4266.80
432.97	4273.82
433.16	4166.15
433.35	4180.20
433.54	4386.16
433.72	4278.50
433.91	4285.52
434.10	4358.08
434.28	4287.86
434.47	4477.44
434.66	4381.48
434.85	4468.08
435.03	4470.42
435.22	4400.21
435.41	4650.64
435.59	4582.77
435.78	4381.48
435.97	4704.48
436.16	4585.11
436.34	4655.33
436.53	4578.09
436.72	4791.08
436.90	4676.39
437.09	4652.98
437.28	4585.11
437.46	4709.16
437.65	4629.58
437.84	4732.56
438.02	4669.37
438.21	4648.30
438.40	4636.60
438.58	4915.12
438.77	4915.12
438.96	4985.34
439.14	4908.10
439.33	5025.13
439.52	5132.79
439.70	5135.14
439.89	5179.61
440.08	5284.93
440.26	5245.14
440.45	4980.66
440.63	5170.24
440.82	5329.40
441.01	5324.72
441.19	5390.25
441.38	5579.84
441.57	5600.90
441.75	5528.35
441.94	5586.86
442.12	5582.18
442.31	5731.97
442.50	5750.70
442.68	5661.76
442.87	5741.33
443.05	5895.81
443.24	5877.09
443.43	5926.24
443.61	5781.12
443.80	5907.51
443.98	5694.52
444.17	5645.37
444.35	5888.79
444.54	5898.15
444.73	5980.07
444.91	5865.38
445.10	5734.31
445.28	5841.98
445.47	5757.72
445.65	5741.33
445.84	5919.21
446.02	5856.02
446.21	5827.93
446.39	6010.50
446.58	6038.58
446.77	6019.86
446.95	5673.46
447.14	6195.40
447.32	6197.74
447.51	5954.32
447.69	5987.09
447.88	6047.94
448.06	6214.12
448.25	6015.18
448.43	6118.16
448.62	6069.01
448.80	6094.76
448.99	6113.48
449.17	6122.84
449.36	6176.67
449.54	6282.00
449.73	6300.72
449.91	6342.85
450.10	6401.37
450.28	6480.94
450.46	6361.58
450.65	6502.01
450.83	6394.34
451.02	6562.86
451.20	6466.90
451.39	6490.31
451.57	6502.01
451.76	6420.09
451.94	6462.22
452.13	6677.55
452.31	6562.86
452.49	6473.92
452.68	6504.35
452.86	6392.00
453.05	6595.63
453.23	6775.85
453.42	6619.04
453.60	6633.08
453.78	6609.67
453.97	6754.79
454.15	6750.10
454.34	6541.80
454.52	6815.64
454.70	6892.88
454.89	6836.70
455.07	6864.79
455.26	6803.94
455.44	6939.69
455.62	6862.45
455.81	6974.80
455.99	7007.56
456.17	7112.89
456.36	7012.24
456.54	7225.23
456.73	7192.47
456.91	7353.96
457.09	7267.36
457.28	7468.65
457.46	7110.55
457.64	7452.27
457.83	7297.79
458.01	7295.45
458.19	7489.71
458.38	7265.02
458.56	7620.78
458.74	7339.92
458.93	7508.44
459.11	7543.55
459.29	7417.16
459.48	7445.24
459.66	7466.31
459.84	7655.89
460.03	7683.98
460.21	7688.66
460.39	7775.26
460.57	7801.01
460.76	7496.74
460.94	7737.81
461.12	7915.69
461.31	7857.18
461.49	7810.37
461.67	7691.00
461.85	8105.28
462.04	8025.70
462.22	8208.26
462.40	7920.37
462.59	7950.80
462.77	7948.46
462.95	8107.62
463.13	7960.16
463.32	8198.90
463.50	8142.72
463.68	7964.84
463.86	8128.68
464.05	7995.27
464.23	8154.43
464.41	8074.85
464.59	8053.78
464.78	8365.07
464.96	8245.71
465.14	8074.85
465.32	8351.03
465.50	8318.26
465.69	8346.35
465.87	8266.77
466.05	8313.58
466.23	8327.63
466.41	8322.94
466.60	8629.56
466.78	8395.50
466.96	8273.79
467.14	8568.70
467.32	8739.56
467.51	8667.00
467.69	8360.39
467.87	8596.79
468.05	8587.43
468.23	8463.38
468.41	8505.51
468.60	8652.96
468.78	8655.30
468.96	8608.49
469.14	8919.78
469.32	8849.57
469.50	8638.92
469.69	8919.78
469.87	8872.97
470.05	9022.77
470.23	9022.77
470.41	8833.18
470.59	9195.96
470.77	9186.60
470.95	9100.00
471.14	9170.22
471.32	9095.32
471.50	9350.44
471.68	9451.08
471.86	9406.61
472.04	9352.78
472.22	9628.96
472.40	9310.65
472.58	9284.91
472.77	9593.86
472.95	9607.90
473.13	9944.94
473.31	9631.30
473.49	9654.71
473.67	9753.01
473.85	9654.71
474.03	9900.47
474.21	10120.48
474.39	9982.38
474.57	10171.97
474.75	10167.29
474.93	10394.32
475.12	10167.29
475.30	10417.72
475.48	10155.58
475.66	10134.52
475.84	10235.16
476.02	10354.53
476.20	10560.50
476.38	10408.36
476.56	11087.12
476.74	10768.80
476.92	10839.02
477.10	10885.83
477.28	11026.26
477.46	11262.66
477.64	11101.16
477.82	11094.14
478.00	11470.97
478.18	11424.15
478.36	11456.92
478.54	11461.60
478.72	11466.28
478.90	11667.57
479.08	11906.31
479.26	11939.07
479.44	11929.71
479.62	11967.16
479.80	12301.86
479.98	12135.68
480.16	12503.14
480.34	12772.30
480.52	12468.03
480.70	12517.18
480.88	12252.70
481.06	12744.22
481.24	12699.75
481.41	12755.92
481.59	13125.72
481.77	13074.23
481.95	13214.66
482.13	13135.09
482.31	13315.31
482.49	13453.40
482.67	13783.41
482.85	13584.47
483.03	13902.78
483.21	13921.51
483.39	13900.44
483.57	14031.51
483.74	14537.07
483.92	14122.79
484.10	14221.10
484.28	14740.69
484.46	14822.61
484.64	14808.57
484.82	14848.36
485.00	14628.35
485.18	15194.76
485.35	15154.97
485.53	15087.09
485.71	15255.61
485.89	15419.45
486.07	15211.14
486.25	15480.30
486.43	15585.63
486.61	15716.70
486.78	15913.30
486.96	16292.47
487.14	16147.36
487.32	16299.49
487.50	16386.09
487.68	16737.17
487.85	16980.59
488.03	17006.33
488.21	17043.78
488.39	17219.32
488.57	17446.35
488.75	16989.95
488.92	17778.71
489.10	17912.12
489.28	17855.95
489.46	18005.74
489.64	17949.57
489.81	18478.53
489.99	18300.65
490.17	18412.99
490.35	18895.14
490.53	18958.34
490.70	18939.62
490.88	18780.46
491.06	19194.73
491.24	19145.58
491.41	19370.27
491.59	19332.82
491.77	19342.19
491.95	19442.83
492.13	19679.22
492.30	19915.62
492.48	19819.66
492.66	20060.73
492.84	19836.04
493.01	20580.33
493.19	20411.81
493.37	20498.41
493.54	20336.91
493.72	21158.44
493.90	20723.10
494.08	20996.95
494.25	21060.14
494.43	21352.71
494.61	21397.18
494.79	21348.03
494.96	21326.96
495.14	21521.23
495.32	21708.47
495.49	21687.40
495.67	22188.28
495.85	22478.50
496.02	22417.65
496.20	22314.67
496.38	22377.86
496.55	22546.38
496.73	22944.27
496.91	22876.40
497.09	23070.66
497.26	23035.55
497.44	23108.11
497.62	23042.57
497.79	23410.04
497.97	23197.05
498.14	23573.88
498.32	23796.23
498.50	23531.75
498.67	23962.40
498.85	23761.12
499.03	24088.79
499.20	24093.47
499.38	23995.17
499.56	24556.90
499.73	24407.11
499.91	24545.20
500.08	24496.05
500.26	24795.64
500.44	25046.07
500.61	24989.90
500.79	24760.53
500.97	25144.38
501.14	25404.17
501.32	25352.68
501.49	24882.24
501.67	25242.68
501.84	25570.35
502.02	25596.10
502.20	25722.49
502.37	25809.09
502.55	25469.71
502.72	25921.43
502.90	25788.02
503.07	25942.50
503.25	26305.28
503.43	26242.09
503.60	26176.55
503.78	26326.35
503.95	26525.29
504.13	26529.97
504.30	26417.63
504.48	26930.20
504.65	26813.18
504.83	26951.27
505.01	27033.19
505.18	26911.48
505.36	27449.80
505.53	27005.10
505.71	27417.04
505.88	27442.78
506.06	27005.10
506.23	27770.46
506.41	27232.13
506.58	27562.15
506.76	27571.51
506.93	27873.44
507.11	27749.39
507.28	28034.94
507.46	27709.60
507.63	27833.65
507.81	28264.31
507.98	27931.95
508.16	28379.00
508.33	28027.92
508.50	28781.57
508.68	28783.91
508.85	29071.79
509.03	28627.09
509.20	28748.80
509.38	29216.91
509.55	29216.91
509.73	28772.21
509.90	29364.36
510.08	29022.64
510.25	29275.42
510.42	29425.22
510.60	29811.40
510.77	29448.62
510.95	29500.11
511.12	29851.19
511.30	30047.80
511.47	30728.89
511.64	30078.22
511.82	30146.10
511.99	29795.02
512.17	29827.79
512.34	30169.51
512.51	30700.81
512.69	30785.07
512.86	31000.40
513.04	30845.92
513.21	30728.89
513.38	30462.07
513.56	30775.70
513.73	30775.70
513.90	30820.17
514.08	30998.06
514.25	30838.90
514.43	30661.02
514.60	31070.61
514.77	30916.14
514.95	31454.46
515.12	31199.34
515.29	31391.26
515.47	31943.63
515.64	32126.19
515.81	31812.56
515.99	31805.54
516.16	31599.57
516.33	31597.23
516.51	31772.77
516.68	31491.91
516.85	31814.90
517.03	32191.73
517.20	31718.94
517.37	32070.02
517.54	32126.19
517.72	32458.55
517.89	32011.51
518.06	32077.04
518.24	32360.25
518.41	32100.45
518.58	32535.79
518.75	32484.30
518.93	33165.39
519.10	32800.27
519.27	32606.00
519.45	32641.11
519.62	33092.83
519.79	33076.45
519.96	33338.59
520.14	33329.23
520.31	33544.56
520.48	33469.66
520.65	33270.72
520.83	33708.40
521.00	33851.17
521.17	33635.84
521.34	33820.74
521.52	34232.68
521.69	33933.09
521.86	34029.05
522.03	34064.16
522.20	34106.29
522.38	34415.24
522.55	34185.86
522.72	34263.10
522.89	34026.71
523.07	34457.37
523.24	34412.90
523.41	34712.49
523.58	34780.36
523.75	35157.19
523.92	35061.22
524.10	34988.67
524.27	35192.30
524.44	35211.02
524.61	35695.51
524.78	35161.87
524.96	35281.24
525.13	35875.73
525.30	35613.59
525.47	35384.22
525.64	35440.39
525.81	35487.20
525.98	35194.64
526.16	35311.66
526.33	35386.56
526.50	35931.90
526.67	35393.58
526.84	35117.40
527.01	35409.96
527.18	35508.27
527.36	35969.35
527.53	36259.58
527.70	36285.33
527.87	36306.39
528.04	36332.14
528.21	36339.16
528.38	36027.87
528.55	36507.68
528.72	36746.41
528.89	36601.30
529.07	36191.70
529.24	36566.19
529.41	36685.56
529.58	36615.34
529.75	36451.50
529.92	36697.26
530.09	36760.45
530.26	37038.98
530.43	36828.33
530.60	36940.68
530.77	37099.83
530.94	36999.19
531.11	36868.12
531.28	36833.01
531.46	37069.40
531.63	37132.60
531.80	37177.07
531.97	37184.09
532.14	37031.96
532.31	37659.22
532.48	37881.57
532.65	37670.92
532.82	37383.04
532.99	38082.86
533.16	37696.67
533.33	37933.06
533.50	38302.87
533.67	37830.08
533.84	37408.78
534.01	37879.23
534.18	38045.41
534.35	38466.70
534.52	38192.86
534.69	38445.64
534.86	38185.84
535.03	38101.58
535.20	38848.21
535.37	38813.10
535.54	38845.87
535.71	38450.32
535.88	38253.72
536.05	38188.18
536.22	38876.30
536.38	38429.26
536.55	38389.47
536.72	38361.38
536.89	38347.34
537.06	38859.91
537.23	38600.12
537.40	38838.85
537.57	38773.31
537.74	38642.24
537.91	39257.81
538.08	38983.96
538.25	38752.25
538.42	38890.34
538.59	39047.16
538.75	38958.22
538.92	38630.54
539.09	38845.87
539.26	39199.29
539.43	39248.44
539.60	39489.52
539.77	39503.56
539.94	39304.62
540.11	38637.56
540.28	39227.38
540.44	39318.66
540.61	39405.26
540.78	39084.61
540.95	39033.11
541.12	39440.37
541.29	39468.45
541.46	39761.02
541.62	39503.56
541.79	40446.80
541.96	39487.18
542.13	39505.90
542.30	39655.70
542.47	39831.24
542.63	40205.72
542.80	40065.29
542.97	39936.56
543.14	40666.81
543.31	40311.05
543.48	40273.60
543.64	40765.11
543.81	40980.44
543.98	40631.70
544.15	40652.76
544.32	41095.13
544.48	41301.09
544.65	41041.29
544.82	40968.74
544.99	40540.42
545.16	41010.87
545.32	40818.94
545.49	41525.78
545.66	41221.52
545.83	41106.83
546.00	41139.60
546.16	41284.71
546.33	40811.92
546.50	41029.59
546.67	41223.86
546.83	40734.68
547.00	40964.06
547.17	41064.70
547.34	40900.86
547.50	41801.97
547.67	41731.75
547.84	41940.06
548.00	41401.74
548.17	41832.39
548.34	41642.81
548.51	41907.29
548.67	41703.67
548.84	42176.45
549.01	41668.56
549.18	41385.35
549.34	41918.99
549.51	41757.50
549.68	41956.44
549.84	41890.91
550.01	41879.21
550.18	41907.29
550.34	41865.16
550.51	41961.12
550.68	41902.61
550.84	41839.42
551.01	41869.84
551.18	41947.08
551.34	41855.80
551.51	42337.95
551.68	42071.13
551.84	42195.18
552.01	42218.58
552.18	42167.09
552.34	42216.24
552.51	42103.90
552.68	42157.73
552.84	42927.77
553.01	42705.41
553.18	42462.00
553.34	42567.32
553.51	41986.87
553.67	42305.18
553.84	42913.72
554.01	42473.70
554.17	42740.52
554.34	42885.64
554.51	42244.33
554.67	42944.15
554.84	43037.77
555.00	42932.45
555.17	42527.53
555.33	42525.19
555.50	42646.90
555.67	42593.07
555.83	43145.44
556.00	42848.19
556.16	43330.34
556.33	42913.72
556.50	42710.10
556.66	43182.88
556.83	42665.63
556.99	42656.26
557.16	43122.03
557.32	43147.78
557.49	43117.35
557.65	42841.17
557.82	43304.59
557.98	43058.84
558.15	43718.87
558.32	43573.75
558.48	42958.19
558.65	43304.59
558.81	42986.28
558.98	42918.40
559.14	42909.04
559.31	42892.66
559.47	43662.69
559.64	43608.86
559.80	43220.33
559.97	43622.90
560.13	43084.58
560.30	43152.46
560.46	43189.91
560.63	43440.34
560.79	43625.25
560.96	43973.98
561.12	43515.24
561.29	43077.56
561.45	43716.53
561.61	43634.61
561.78	43512.90
561.94	43557.37
562.11	43592.48
562.27	43683.76
562.44	43824.19
562.60	43569.07
562.77	43835.89
562.93	43395.87
563.10	43702.48
563.26	43470.77
563.42	43929.51
563.59	43653.33
563.75	43313.95
563.92	43936.54
564.08	43690.78
564.24	43941.22
564.41	43683.76
564.57	43833.55
564.74	43618.22
564.90	44046.54
565.07	43840.57
565.23	44023.14
565.39	43819.51
565.56	44229.10
565.72	43634.61
565.88	44170.59
566.05	44107.40
566.21	43819.51
566.38	43707.16
566.54	44105.06
566.70	44807.22
566.87	44201.02
567.03	44280.60
567.19	44807.22
567.36	44240.81
567.52	44081.65
567.68	44020.80
567.85	44435.07
568.01	43964.62
568.17	43917.81
568.34	44198.68
568.50	44282.94
568.66	44222.08
568.83	44261.87
568.99	43655.67
569.15	43908.45
569.32	43756.32
569.48	43840.57
569.64	44505.29
569.81	44556.78
569.97	44121.44
570.13	44250.17
570.30	44081.65
570.46	44055.90
570.62	43702.48
570.78	43943.56
570.95	44224.42
571.11	44055.90
571.27	43962.28
571.43	43997.39
571.60	43990.37
571.76	43856.96
571.92	44453.79
572.09	44404.64
572.25	44205.70
572.41	43648.65
572.57	44397.62
572.74	44680.83
572.90	44367.20
573.06	44891.48
573.22	44343.79
573.38	44793.17
573.55	44002.07
573.71	44505.29
573.87	44362.51
574.03	44177.61
574.20	44694.87
574.36	43779.72
574.52	44259.53
574.68	44498.26
574.84	44697.21
575.01	44196.34
575.17	44168.25
575.33	44119.10
575.49	44243.15
575.65	44858.71
575.82	44720.62
575.98	44439.75
576.14	44891.48
576.30	44940.63
576.46	44371.88
576.62	44280.60
576.79	44315.70
576.95	44346.13
577.11	44350.81
577.27	44254.85
577.43	44577.84
577.59	44500.61
577.75	44631.68
577.92	44037.18
578.08	43728.23
578.24	44238.47
578.40	44137.82
578.56	44252.51
578.72	44268.89
578.88	44751.04
579.04	44626.99
579.21	44189.31
579.37	44676.15
579.53	44704.23
579.69	44318.04
579.85	44306.34
580.01	44502.95
580.17	44809.56
580.33	44729.98
580.49	44147.18
580.65	44706.57
580.82	44823.60
580.98	44528.69
581.14	44357.83
581.30	44636.36
581.46	44552.10
581.62	44664.44
581.78	44575.50
581.94	45090.42
582.10	44648.06
582.26	44247.83
582.42	44825.94
582.58	44254.85
582.74	44751.04
582.90	44842.32
583.06	44484.22
583.22	44498.26
583.38	44938.29
583.54	44498.26
583.70	44444.43
583.86	44844.66
584.02	44430.39
584.18	45116.17
584.34	44406.98
584.50	44238.47
584.66	44252.51
584.82	44498.26
584.98	44699.55
585.14	45067.02
585.30	44779.13
585.46	44556.78
585.62	44793.17
585.78	44350.81
585.94	44105.06
586.10	44554.44
586.26	44748.70
586.42	44788.49
586.58	44706.57
586.74	44514.65
586.90	44444.43
587.06	44554.44
587.22	44662.10
587.38	44531.03
587.54	44744.02
587.70	44587.21
587.86	45083.40
588.02	44804.88
588.18	44601.25
588.34	44383.58
588.49	44573.16
588.65	44149.53
588.81	44292.30
588.97	44369.54
589.13	44568.48
589.29	44273.57
589.45	45010.84
589.61	44608.27
589.77	45071.70
589.93	45031.91
590.08	44458.48
590.24	44601.25
590.40	44634.02
590.56	45380.65
590.72	45090.42
590.88	44727.64
591.04	44924.24
591.20	45162.98
591.35	44851.69
591.51	45280.00
591.67	45265.96
591.83	44832.96
591.99	44428.05
592.15	45092.76
592.31	45031.91
592.46	44566.14
592.62	44942.97
592.78	44634.02
592.94	45045.95
593.10	45184.04
593.26	44725.30
593.41	44746.36
593.57	44521.67
593.73	44790.83
593.89	45188.72
594.05	45113.83
594.20	44964.03
594.36	44858.71
594.52	45144.25
594.68	44870.41
594.84	44835.30
594.99	44875.09
595.15	44910.20
595.31	44917.22
595.47	45069.36
595.62	45167.66
595.78	45034.25
595.94	44924.24
596.10	45317.45
596.25	45146.59
596.41	45144.25
596.57	44910.20
596.73	45055.31
596.88	44722.96
597.04	45109.14
597.20	45315.11
597.36	44900.84
597.51	45158.30
597.67	45418.10
597.83	45067.02
597.99	45338.52
598.14	45366.60
598.30	45235.53
598.46	44797.85
598.61	45006.16
598.77	44755.72
598.93	44610.61
599.09	44870.41
599.24	45619.38
599.40	45418.10
599.56	45305.75
599.71	45050.63
599.87	44809.56
600.03	44865.73
600.18	44987.44
600.34	44802.53
600.50	45125.53
600.65	44573.16
600.81	45305.75
600.97	45317.45
601.12	45230.85
601.28	45158.30
601.44	44865.73
601.59	44779.13
601.75	45095.10
601.91	44645.72
602.06	45233.19
602.22	45226.17
602.37	44580.18
602.53	44933.60
602.69	45542.14
602.84	44751.04
603.00	45059.99
603.16	44865.73
603.31	44711.25
603.47	44823.60
603.62	44938.29
603.78	45027.23
603.94	44774.45
604.09	45083.40
604.25	45062.33
604.40	44978.07
604.56	44924.24
604.71	45446.18
604.87	44715.93
605.03	44935.95
605.18	44622.31
605.34	45006.16
605.49	44865.73
605.65	44868.07
605.80	44746.36
605.96	45116.17
606.12	45013.18
606.27	45237.87
606.43	44825.94
606.58	44800.19
606.74	44655.08
606.89	44839.98
607.05	44982.76
607.20	44697.21
607.36	44692.53
607.51	45038.93
607.67	44549.76
607.82	45153.62
607.98	45010.84
608.13	44556.78
608.29	44535.71
608.44	44559.12
608.60	44449.11
608.75	44734.66
608.91	44308.68
609.06	44245.49
609.22	44999.14
609.37	44512.31
609.53	44259.53
609.68	44507.63
609.84	44463.16
609.99	44449.11
610.15	44491.24
610.30	44046.54
610.46	44472.52
610.61	44381.24
610.76	44275.91
610.92	44739.34
611.07	44566.14
611.23	44486.56
611.38	44229.10
611.54	44039.52
611.69	44243.15
611.84	44037.18
612.00	44442.09
612.15	44168.25
612.31	44081.65
612.46	44170.59
612.62	44252.51
612.77	44142.50
612.92	44346.13
613.08	44102.71
613.23	43922.49
613.39	44177.61
613.54	43908.45
613.69	43828.87
613.85	44128.46
614.00	44236.12
614.15	44634.02
614.31	43880.36
614.46	44442.09
614.62	44041.86
614.77	43742.27
614.92	44149.53
615.08	43971.64
615.23	43758.66
615.38	43999.73
615.54	43587.80
615.69	43931.86
615.84	43896.75
616.00	43732.91
616.15	43543.33
616.30	43812.49
616.46	43564.39
616.61	43115.01
616.76	43681.42
616.92	43072.88
617.07	43232.04
617.22	42962.87
617.37	42897.34
617.53	43863.98
617.68	43711.84
617.83	43580.78
617.99	43697.80
618.14	43323.32
618.29	43580.78
618.45	42803.72
618.60	43409.92
618.75	43393.53
618.90	43356.08
619.06	43175.86
619.21	43536.30
619.36	43515.24
619.51	43215.65
619.67	43196.93
619.82	43658.01
619.97	43489.49
620.12	43285.87
620.28	43332.68
620.43	43044.79
620.58	43405.23
620.73	43143.09
620.89	42787.33
621.04	43084.58
621.19	42883.30
621.34	43133.73
621.49	42555.62
621.65	42763.93
621.80	42981.60
621.95	42789.67
622.10	42820.10
622.25	42642.22
622.41	42506.47
622.56	42277.10
622.71	42763.93
622.86	42351.99
623.01	42625.84
623.16	43049.47
623.32	42817.76
623.47	42635.20
623.62	42792.01
623.77	42623.50
623.92	42579.03
624.07	42564.98
624.23	42710.10
624.38	42237.31
624.53	42033.68
624.68	42291.14
624.83	42380.08
624.98	42927.77
625.13	42213.90
625.29	42356.67
625.44	42459.66
625.59	41808.99
625.74	41570.25
625.89	41958.78
626.04	41696.64
626.19	41944.74
626.34	42377.74
626.49	42497.11
626.65	42195.18
626.80	42162.41
626.95	42263.05
627.10	42251.35
627.25	42075.81
627.40	41771.54
627.55	41755.16
627.70	41326.84
627.85	41633.45
628.00	41706.01
628.15	41558.55
628.30	41439.18
628.45	41879.21
628.60	41703.67
628.76	42038.36
628.91	41801.97
629.06	41656.85
629.21	41481.31
629.36	41261.30
629.51	41230.88
629.66	41530.47
629.81	41055.34
629.96	41411.10
630.11	41270.67
630.26	41275.35
630.41	41436.84
630.56	41631.11
630.71	41364.29
630.86	41120.87
631.01	41113.85
631.16	41235.56
631.31	41186.41
631.46	40875.12
631.61	41273.01
631.76	40893.84
631.91	41132.57
632.06	41268.33
632.21	41284.71
632.36	41549.19
632.51	40643.40
632.66	40657.45
632.81	40992.14
632.96	40950.01
633.10	40620.00
633.25	40758.09
633.40	40865.75
633.55	41031.93
633.70	40973.42
633.85	40875.12
634.00	40713.62
634.15	40629.36
634.30	40517.01
634.45	40636.38
634.60	40786.18
634.75	40978.10
634.90	40444.46
635.05	40725.32
635.19	39999.76
635.34	40327.43
635.49	40055.93
635.64	40517.01
635.79	40779.15
635.94	40304.02
636.09	40229.13
636.24	40442.12
636.39	40060.61
636.53	40147.21
636.68	39957.63
636.83	39917.84
636.98	40055.93
637.13	40271.26
637.28	40243.17
637.43	40575.53
637.57	40395.31
637.72	40219.77
637.87	39945.92
638.02	40058.27
638.17	40243.17
638.32	39849.96
638.46	39751.66
638.61	40135.51
638.76	39592.50
638.91	39976.35
639.06	40034.86
639.20	40252.53
639.35	39674.42
639.50	40034.86
639.65	40304.02
639.80	40217.43
639.94	39508.24
640.09	39934.22
640.24	39754.00
640.39	39304.62
640.54	39257.81
640.68	39594.84
640.83	39686.12
640.98	39519.95
641.13	39019.07
641.27	39770.38
641.42	39026.09
641.57	39594.84
641.72	39615.91
641.86	39604.20
642.01	38916.09
642.16	39119.71
642.31	38745.23
642.45	39225.04
642.60	39089.29
642.75	39161.84
642.90	39227.38
643.04	39159.50
643.19	39117.37
643.34	39035.45
643.48	39065.88
643.63	38759.27
643.78	38820.13
643.93	38754.59
644.07	38792.04
644.22	38990.98
644.37	38745.23
644.51	38572.03
644.66	38960.56
644.81	39061.20
644.95	39086.95
645.10	38885.66
645.25	39262.49
645.39	39040.14
645.54	38646.93
645.69	38658.63
645.83	38782.68
645.98	38878.64
646.13	39002.69
646.27	38602.46
646.42	39007.37
646.57	38574.37
646.71	38312.23
646.86	38642.24
647.00	38754.59
647.15	38948.85
647.30	38443.30
647.44	38249.03
647.59	38515.86
647.74	38440.96
647.88	38464.36
648.03	38394.15
648.17	38864.60
648.32	37780.93
648.47	37965.83
648.61	38466.70
648.76	38452.66
648.90	38064.13
649.05	38667.99
649.20	38265.42
649.34	38415.21
649.49	37963.49
649.63	38129.67
649.78	37907.32
649.92	37783.27
650.07	37743.48
650.21	37914.34
650.36	37844.12
650.51	37996.26
650.65	38349.68
650.80	38763.95
650.94	38153.07
651.09	38089.88
651.23	37771.57
651.38	38080.52
651.52	37734.12
651.67	37254.31
651.81	37062.38
651.96	37776.25
652.10	37518.79
652.25	37507.08
652.39	37670.92
652.54	37514.11
652.68	37996.26
652.83	37642.84
652.97	37886.25
653.12	37476.66
653.26	37406.44
653.41	37507.08
653.55	37422.83
653.70	37158.34
653.84	37390.06
653.99	37823.06
654.13	37153.66
654.27	37254.31
654.42	37174.73
654.56	37228.56
654.71	37043.66
654.85	37305.80
655.00	37013.23
655.14	37394.74
655.29	36680.88
655.43	37134.94
655.57	36821.31
655.72	37017.91
655.86	37050.68
656.01	36402.35
656.15	36907.91
656.30	37015.57
656.44	36994.51
656.58	36755.77
656.73	36844.71
656.87	36807.26
657.01	36687.90
657.16	36975.78
657.30	36493.63
657.45	36479.59
657.59	36524.06
657.73	36299.37
657.88	36531.08
658.02	36608.32
658.16	36699.60
658.31	36893.86
658.45	36540.44
658.60	36266.60
658.74	36903.23
658.88	36287.67
659.03	36479.59
659.17	36182.34
659.31	36208.09
659.46	36439.80
659.60	36088.72
659.74	36065.31
659.89	35934.24
660.03	36039.57
660.17	36123.83
660.32	36091.06
660.46	36165.96
660.60	35934.24
660.74	36086.38
660.89	35999.78
661.03	35866.37
661.17	35730.62
661.32	35332.73
661.46	35255.49
661.60	35519.97
661.74	35620.61
661.89	35981.06
662.03	35421.67
662.17	35634.66
662.31	35096.33
662.46	35562.10
662.60	35241.45
662.74	35405.28
662.88	35152.51
663.03	34848.24
663.17	35058.88
663.31	34789.72
663.45	35002.71
663.60	35016.75
663.74	34705.46
663.88	34890.37
664.02	34658.65
664.17	34906.75
664.31	34471.41
664.45	34635.25
664.59	34672.70
664.73	34579.07
664.88	34206.93
665.02	34239.70
665.16	34412.90
665.30	34092.24
665.44	34448.00
665.59	34244.38
665.73	34270.12
665.87	34256.08
666.01	34232.68
666.15	34113.31
666.29	34202.25
666.44	34679.72
666.58	33626.48
666.72	33528.17
666.86	34260.76
667.00	34443.32
667.14	33766.91
667.28	33144.33
667.43	33256.67
667.57	33851.17
667.71	33399.44
667.85	33560.94
667.99	33235.61
668.13	33469.66
668.27	33703.71
668.41	33476.68
668.56	32968.79
668.70	33399.44
668.84	32912.61
668.98	32711.33
669.12	33055.39
669.26	32720.69
669.40	32573.24
669.54	32587.28
669.68	33024.96
669.82	32840.06
669.96	32196.41
670.10	32528.77
670.25	32680.90
670.39	32617.71
670.53	32194.07
670.67	32095.77
670.81	32526.42
670.95	32517.06
671.09	32491.32
671.23	32245.56
671.37	32037.25
671.51	31810.22
671.65	31934.27
671.79	31957.67
671.93	31873.42
672.07	32006.83
672.21	32100.45
672.35	31417.01
672.49	31847.67
672.63	31711.92
672.77	31592.55
672.91	31419.35
673.05	31817.24
673.19	31529.36
673.33	31103.38
673.47	30953.58
673.61	31005.08
673.75	30920.82
673.89	30728.89
674.03	30857.62
674.17	30810.81
674.31	30876.35
674.45	30543.99
674.59	31199.34
674.73	31000.40
674.87	30387.18
675.01	30478.46
675.15	30827.20
675.29	30288.87
675.43	30197.59
675.56	30335.68
675.70	29986.94
675.84	29942.47
675.98	29048.39
676.12	30340.36
676.26	29912.05
676.40	29935.45
676.54	29876.94
676.68	29474.37
676.82	29263.72
676.96	29469.69
677.10	29329.25
677.23	29228.61
677.37	28863.49
677.51	28978.17
677.65	29212.23
677.79	28421.13
677.93	28744.12
678.07	28554.54
678.21	28114.52
678.34	28409.42
678.48	28266.65
678.62	28142.60
678.76	28135.58
678.90	28016.21
679.04	28173.03
679.18	27948.34
679.31	27861.74
679.45	27756.41
679.59	27342.14
679.73	27618.32
679.87	27330.44
680.00	27405.33
680.14	27384.27
680.28	27269.58
680.42	27529.38
680.56	27012.12
680.70	27087.02
680.83	27545.76
680.97	26871.69
681.11	27061.27
681.25	26581.46
681.39	26871.69
681.52	27005.10
681.66	26246.77
681.80	26504.23
681.94	26188.25
682.07	26506.57
682.21	26431.67
682.35	26038.46
682.49	26216.34
682.62	26169.53
682.76	26085.27
682.90	25851.22
683.04	25397.15
683.17	25731.85
683.31	25549.29
683.45	25558.65
683.59	25497.80
683.72	24982.88
683.86	25057.78
684.00	25472.05
684.13	24996.92
684.27	24858.83
684.41	24898.62
684.55	24636.48
684.68	24865.85
684.82	24271.36
684.96	24606.05
685.09	24510.09
685.23	24496.05
685.37	24526.47
685.50	24414.13
685.64	24208.16
685.78	23929.64
685.91	23854.74
686.05	23920.28
686.19	23805.59
686.32	23278.97
686.46	23330.46
686.60	23082.36
686.73	23353.87
686.87	23204.07
687.01	23145.56
687.14	22822.56
687.28	23180.67
687.42	22785.12
687.55	23321.10
687.69	23061.30
687.82	22532.34
687.96	23000.44
688.10	22871.72
688.23	22476.16
688.37	22333.39
688.50	22410.63
688.64	22033.80
688.78	22445.74
688.91	22436.38
689.05	21867.63
689.18	22314.67
689.32	22155.51
689.46	21785.71
689.59	21785.71
689.73	22019.76
689.86	21680.38
690.00	21415.90
690.13	21598.46
690.27	21401.86
690.41	21413.56
690.54	20957.16
690.68	20905.66
690.81	20945.45
690.95	20973.54
691.08	20716.08
691.22	20669.27
691.35	20844.81
691.49	20893.96
691.62	21013.33
691.76	20535.86
691.89	20592.03
692.03	20538.20
692.16	20196.48
692.30	19967.11
692.43	20156.69
692.57	20056.05
692.70	19515.39
692.84	19878.17
692.97	19967.11
693.11	19896.89
693.24	19709.65
693.38	19569.22
693.51	19655.82
693.65	19470.92
693.78	19271.97
693.92	19700.29
694.05	19173.67
694.19	19201.76
694.32	18787.48
694.45	19063.66
694.59	18520.66
694.72	18611.94
694.86	18541.72
694.99	18532.36
695.13	18754.71
695.26	18162.56
695.39	18366.18
695.53	18567.47
695.66	18228.09
695.80	18485.55
695.93	18216.39
696.07	18047.87
696.20	18097.02
696.33	17998.72
696.47	18221.07
696.60	17767.01
696.73	17514.23
696.87	17759.98
697.00	17837.22
697.14	17699.13
697.27	17579.76
697.40	17343.37
697.54	17011.01
697.67	17261.45
697.80	17146.76
697.94	17167.83
698.07	17011.01
698.21	16795.68
698.34	16781.64
698.47	16578.01
698.61	16456.31
698.74	16212.89
698.87	16142.67
699.01	16166.08
699.14	15981.18
699.27	15983.52
699.40	16264.38
699.54	16379.07
699.67	15583.29
699.80	15875.85
699.94	15840.75
700.07	15852.45
700.20	15770.53
700.34	15529.45
700.47	15775.21
700.60	15632.44
700.73	15861.81
700.87	15590.31
701.00	15424.13
701.13	15576.27
701.26	15494.35
701.40	15136.24
701.53	15035.60
701.66	15115.18
701.79	14857.72
701.93	15009.86
702.06	14717.29
702.19	14864.74
702.32	14604.94
702.46	14630.69
702.59	14450.47
702.72	14583.88
702.85	14626.01
702.99	14501.96
703.12	14501.96
703.25	14249.18
703.38	13961.30
703.51	14064.28
703.65	13961.30
703.78	14087.68
703.91	14122.79
704.04	14040.87
704.17	13998.74
704.31	13930.87
704.44	13937.89
704.57	13603.19
704.70	13877.04
704.83	13570.43
704.96	13781.07
705.10	13589.15
705.23	13406.59
>>>>>End Processed Spectral Data<<<<<
