SpectraSuite Data File
++++++++++++++++++++++++++++++++++++
Date: Fri Oct 25 10:47:23 EDT 2013
User: price-jones
Dark Spectrum Present: No
Reference Spectrum Present: No
Number of Sampled Component Spectra: 1
Spectrometers: USB2+H05261
Integration Time (usec): 100000 (USB2+H05261)
Spectra Averaged: 1 (USB2+H05261)
Boxcar Smoothing: 0 (USB2+H05261)
Correct for Electrical Dark: No (USB2+H05261)
Strobe/Lamp Enabled: No (USB2+H05261)
Correct for Detector Non-linearity: No (USB2+H05261)
Correct for Stray Light: No (USB2+H05261)
Number of Pixels in Processed Spectrum: 2048
>>>>>Begin Processed Spectral Data<<<<<
365.73	93.62
365.92	93.62
366.12	93.62
366.32	67.88
366.52	0.00
366.72	63.19
366.91	37.45
367.11	60.85
367.31	81.92
367.51	56.17
367.70	42.13
367.90	63.19
368.10	72.56
368.30	7.02
368.49	105.32
368.69	142.77
368.89	30.43
369.09	67.88
369.28	98.30
369.48	21.06
369.68	93.62
369.87	102.98
370.07	72.56
370.27	114.69
370.47	196.60
370.66	369.80
370.86	463.43
371.06	545.34
371.25	472.79
371.45	510.24
371.65	489.17
371.84	435.34
372.04	468.11
372.24	440.02
372.44	491.51
372.63	540.66
372.83	402.57
373.03	503.22
373.22	496.19
373.42	524.28
373.62	461.09
373.81	552.37
374.01	540.66
374.21	571.09
374.40	472.79
374.60	461.09
374.79	535.98
374.99	566.41
375.19	573.43
375.38	575.77
375.58	601.52
375.78	566.41
375.97	543.00
376.17	636.63
376.37	535.98
376.56	585.13
376.76	608.54
376.95	533.64
377.15	608.54
377.35	543.00
377.54	631.94
377.74	582.79
377.93	580.45
378.13	667.05
378.33	592.16
378.52	575.77
378.72	641.31
378.91	678.76
379.11	653.01
379.31	631.94
379.50	636.63
379.70	667.05
379.89	615.56
380.09	596.84
380.28	667.05
380.48	695.14
380.68	669.39
380.87	662.37
381.07	629.60
381.26	615.56
381.46	704.50
381.65	704.50
381.85	755.99
382.04	603.86
382.24	704.50
382.43	669.39
382.63	695.14
382.83	669.39
383.02	711.52
383.22	695.14
383.41	629.60
383.61	763.01
383.80	798.12
384.00	751.31
384.19	730.25
384.39	779.40
384.58	802.80
384.78	702.16
384.97	786.42
385.17	765.36
385.36	807.48
385.56	751.31
385.75	758.33
385.95	730.25
386.14	819.19
386.34	746.63
386.53	755.99
386.72	788.76
386.92	809.83
387.11	777.06
387.31	819.19
387.50	753.65
387.70	821.53
387.89	910.47
388.09	875.36
388.28	835.57
388.48	847.27
388.67	983.02
388.86	873.02
389.06	915.15
389.25	919.83
389.45	870.68
389.64	898.77
389.84	910.47
390.03	950.26
390.22	954.94
390.42	919.83
390.61	880.04
390.81	938.55
391.00	1013.45
391.19	980.68
391.39	898.77
391.58	959.62
391.78	961.96
391.97	922.17
392.16	992.39
392.36	1025.15
392.55	985.37
392.75	929.19
392.94	954.94
393.13	1004.09
393.33	912.81
393.52	950.26
393.71	1057.92
393.91	1095.37
394.10	1018.13
394.29	1029.84
394.49	1029.84
394.68	1116.44
394.88	1069.62
395.07	1191.33
395.26	1116.44
395.46	1198.35
395.65	1123.46
395.84	1086.01
396.04	1111.75
396.23	1064.94
396.42	1064.94
396.62	1109.41
396.81	1128.14
397.00	1174.95
397.19	1151.54
397.39	1249.85
397.58	1207.72
397.77	1198.35
397.97	1238.14
398.16	1252.19
398.35	1224.10
398.55	1373.89
398.74	1357.51
398.93	1378.58
399.12	1324.74
399.32	1359.85
399.51	1427.73
399.70	1399.64
399.90	1401.98
400.09	1479.22
400.28	1357.51
400.47	1409.00
400.67	1476.88
400.86	1439.43
401.05	1409.00
401.24	1488.58
401.44	1547.09
401.63	1565.82
401.82	1490.92
402.01	1598.59
402.21	1563.48
402.40	1549.43
402.59	1530.71
402.78	1533.05
402.97	1519.01
403.17	1519.01
403.36	1612.63
403.55	1579.86
403.74	1654.76
403.93	1666.46
404.13	1554.12
404.32	1647.74
404.51	1685.19
404.70	1659.44
404.89	1762.42
405.09	1860.73
405.28	1764.76
405.47	1806.89
405.66	1720.29
405.85	1694.55
406.05	1762.42
406.24	1832.64
406.43	1802.21
406.62	1820.94
406.81	1884.13
407.00	1874.77
407.20	1853.70
407.39	1767.10
407.58	1907.54
407.77	1886.47
407.96	1949.67
408.15	1928.60
408.34	2038.61
408.54	2097.12
408.73	1970.73
408.92	2113.50
409.11	2141.59
409.30	2101.80
409.49	1956.69
409.68	2111.16
409.87	2003.50
410.07	2160.31
410.26	2047.97
410.45	2099.46
410.64	2066.69
410.83	2279.68
411.02	2235.21
411.21	2331.17
411.40	2176.70
411.59	2422.45
411.78	2401.39
411.98	2335.85
412.17	2441.18
412.36	2445.86
412.55	2282.02
412.74	2443.52
412.93	2466.92
413.12	2431.82
413.31	2583.95
413.50	2532.46
413.69	2534.80
413.88	2579.27
414.07	2539.48
414.26	2619.06
414.45	2560.55
414.64	2665.87
414.83	2745.45
415.02	2761.83
415.22	2705.66
415.41	2850.77
415.60	2825.03
415.79	2902.26
415.98	2909.29
416.17	2745.45
416.36	2778.22
416.55	2932.69
416.74	2913.97
416.93	2984.18
417.12	2951.42
417.31	2984.18
417.50	2963.12
417.69	3136.32
417.88	3115.25
418.07	2925.67
418.26	3073.12
418.45	3138.66
418.64	3199.51
418.83	3194.83
419.02	3112.91
419.21	3213.56
419.39	3272.07
419.58	3225.26
419.77	3138.66
419.96	3304.84
420.15	3290.79
420.34	3421.86
420.53	3370.37
420.72	3391.44
420.91	3379.73
421.10	3325.90
421.29	3597.40
421.48	3468.67
421.67	3485.06
421.86	3412.50
422.05	3471.01
422.24	3276.75
422.43	3384.41
422.61	3428.88
422.80	3538.89
422.99	3557.61
423.18	3585.70
423.37	3583.36
423.56	3325.90
423.75	3529.53
423.94	3478.04
424.13	3339.94
424.32	3496.76
424.50	3557.61
424.69	3672.30
424.88	3712.09
425.07	3630.17
425.26	3489.74
425.45	3482.72
425.64	3599.74
425.83	3545.91
426.01	3630.17
426.20	3630.17
426.39	3632.51
426.58	3534.21
426.77	3522.51
426.96	3588.04
427.15	3597.40
427.33	3686.34
427.52	3676.98
427.71	3574.00
427.90	3801.03
428.09	3791.67
428.28	3779.97
428.46	3676.98
428.65	3901.67
428.84	3868.91
429.03	3833.80
429.22	3782.31
429.40	3824.44
429.59	3927.42
429.78	3674.64
429.97	3644.21
430.16	3674.64
430.34	3691.02
430.53	3946.14
430.72	3922.74
430.91	3953.16
431.10	3969.55
431.28	4182.54
431.47	3974.23
431.66	4098.28
431.85	4107.64
432.03	4297.22
432.22	4339.35
432.41	4145.09
432.60	4255.09
432.79	4280.84
432.97	4222.33
433.16	4325.31
433.35	4168.49
433.54	4222.33
433.72	4362.76
433.91	4294.88
434.10	4238.71
434.28	4322.97
434.47	4367.44
434.66	4407.23
434.85	4386.16
435.03	4578.09
435.22	4472.76
435.41	4683.41
435.59	4498.51
435.78	4552.34
435.97	4512.55
436.16	4517.23
436.34	4526.60
436.53	4788.74
436.72	4793.42
436.90	4610.86
437.09	4667.03
437.28	4613.20
437.46	4657.67
437.65	4826.18
437.84	4828.53
438.02	4856.61
438.21	4788.74
438.40	4774.69
438.58	5043.85
438.77	5050.88
438.96	4877.68
439.14	5018.11
439.33	5146.84
439.52	5200.67
439.70	5041.51
439.89	5116.41
440.08	5135.14
440.26	5273.23
440.45	5345.78
440.63	5238.12
440.82	5392.59
441.01	5371.53
441.19	5497.92
441.38	5387.91
441.57	5554.09
441.75	5533.03
441.94	5584.52
442.12	5572.82
442.31	5678.14
442.50	5762.40
442.68	5570.48
442.87	5654.73
443.05	5678.14
443.24	5942.62
443.43	5783.46
443.61	5799.85
443.80	5949.64
443.98	5762.40
444.17	5600.90
444.35	5799.85
444.54	5961.34
444.73	6087.73
444.91	5797.51
445.10	5816.23
445.28	5865.38
445.47	5834.96
445.65	5891.13
445.84	5912.19
446.02	6167.31
446.21	5989.43
446.39	6012.84
446.58	6108.80
446.77	6045.60
446.95	5987.09
447.14	6108.80
447.32	6113.48
447.51	5827.93
447.69	6071.35
447.88	6085.39
448.06	6036.24
448.25	6073.69
448.43	6073.69
448.62	6230.51
448.80	6157.95
448.99	6232.85
449.17	6202.42
449.36	6171.99
449.54	6127.52
449.73	6356.90
449.91	6338.17
450.10	6455.20
450.28	6492.65
450.46	6574.56
450.65	6359.24
450.83	6324.13
451.02	6420.09
451.20	6450.52
451.39	6485.62
451.57	6478.60
451.76	6565.20
451.94	6319.45
452.13	6628.40
452.31	6520.73
452.49	6483.28
452.68	6478.60
452.86	6445.84
453.05	6626.06
453.23	6459.88
453.42	6579.25
453.60	6527.75
453.78	6806.28
453.97	6682.23
454.15	6677.55
454.34	6612.01
454.52	6911.60
454.70	6850.75
454.89	6860.11
455.07	6647.12
455.26	6911.60
455.44	7101.19
455.62	7033.31
455.81	6963.09
455.99	6909.26
456.17	7138.63
456.36	7115.23
456.54	7199.49
456.73	7194.81
456.91	7140.97
457.09	7456.95
457.28	7459.29
457.46	7260.34
457.64	7524.82
457.83	7403.11
458.01	7297.79
458.19	7229.91
458.38	7358.64
458.56	7517.80
458.74	7510.78
458.93	7332.90
459.11	7405.46
459.29	7648.87
459.48	7585.68
459.66	7737.81
459.84	7772.92
460.03	7695.68
460.21	7695.68
460.39	7592.70
460.57	7695.68
460.76	7817.39
460.94	7779.94
461.12	7873.56
461.31	7815.05
461.49	7878.24
461.67	7758.88
461.85	7997.61
462.04	7880.58
462.22	8648.28
462.40	8114.64
462.59	8079.53
462.77	8124.00
462.95	8187.19
463.13	8168.47
463.32	8238.69
463.50	8294.86
463.68	8074.85
463.86	8182.51
464.05	7939.10
464.23	8037.40
464.41	8166.13
464.59	8194.22
464.78	8390.82
464.96	8339.33
465.14	8140.38
465.32	8266.77
465.50	8245.71
465.69	8168.47
465.87	8475.08
466.05	8250.39
466.23	8336.99
466.41	8559.34
466.60	8622.53
466.78	8430.61
466.96	8318.26
467.14	8479.76
467.32	8482.10
467.51	8655.30
467.69	8285.50
467.87	8573.38
468.05	8624.87
468.23	8610.83
468.41	8741.90
468.60	8711.47
468.78	8674.03
468.96	8622.53
469.14	8800.41
469.32	9088.30
469.50	8807.44
469.69	8973.61
469.87	8936.17
470.05	9076.60
470.23	9034.47
470.41	9013.40
470.59	9041.49
470.77	9336.40
470.95	9144.47
471.14	9259.16
471.32	9156.18
471.50	9525.98
471.68	9418.32
471.86	9523.64
472.04	9427.68
472.22	9778.76
472.40	9523.64
472.58	9458.10
472.77	9668.75
472.95	9455.76
473.13	10057.28
473.31	9680.46
473.49	9511.94
473.67	9699.18
473.85	9738.97
474.03	10125.16
474.21	10054.94
474.39	9987.07
474.57	10012.81
474.75	10157.92
474.93	10176.65
475.12	10253.89
475.30	10146.22
475.48	10092.39
475.66	10389.64
475.84	10160.27
476.02	10677.52
476.20	10705.61
476.38	10754.76
476.56	10916.26
476.74	10562.84
476.92	10927.96
477.10	10827.32
477.28	11007.54
477.46	11129.25
477.64	11154.99
477.82	10981.79
478.00	11630.12
478.18	11197.12
478.36	11669.91
478.54	11466.28
478.72	11705.02
478.90	11784.60
479.08	11967.16
479.26	12100.57
479.44	11789.28
479.62	12009.29
479.80	12203.55
479.98	12353.35
480.16	12566.34
480.34	12545.27
480.52	12376.75
480.70	12528.89
480.88	12716.13
481.06	12652.94
481.24	12699.75
481.41	13050.83
481.59	13099.98
481.77	13273.18
481.95	13128.06
482.13	13310.63
482.31	13392.55
482.49	13720.22
482.67	13659.37
482.85	13860.65
483.03	13855.97
483.21	13982.36
483.39	14073.64
483.57	14085.34
483.74	14445.79
483.92	14185.99
484.10	14349.82
484.28	14480.89
484.46	14721.97
484.64	15164.33
484.82	14946.66
485.00	14967.73
485.18	15161.99
485.35	15227.53
485.53	15103.48
485.71	15286.04
485.89	15367.96
486.07	15452.22
486.25	15470.94
486.43	15957.77
486.61	15817.34
486.78	16079.48
486.96	15875.85
487.14	16446.94
487.32	16463.33
487.50	16599.08
487.68	16608.44
487.85	16992.29
488.03	17144.42
488.21	17074.21
488.39	17289.54
488.57	17177.19
488.75	17563.38
488.92	17558.70
489.10	17654.66
489.28	17649.98
489.46	18097.02
489.64	17881.69
489.81	18548.75
489.99	18462.15
490.17	18424.70
490.35	18824.93
490.53	18766.42
490.70	18700.88
490.88	18892.80
491.06	19255.59
491.24	19278.99
491.41	19124.52
491.59	19260.27
491.77	19168.99
491.95	19426.45
492.13	19709.65
492.30	20081.80
492.48	19740.08
492.66	20299.47
492.84	20320.53
493.01	20402.45
493.19	20222.23
493.37	20652.89
493.54	20524.16
493.72	20400.11
493.90	21071.84
494.08	20992.26
494.25	21113.97
494.43	21142.06
494.61	21535.27
494.79	21734.21
494.96	21432.29
495.14	21397.18
495.32	22050.19
495.49	21912.10
495.67	22354.46
495.85	22338.07
496.02	22309.99
496.20	22721.92
496.38	22787.46
496.55	22593.19
496.73	22750.01
496.91	22604.89
497.09	23285.99
497.26	23316.42
497.44	22930.23
497.62	23344.50
497.79	23269.61
497.97	23218.11
498.14	23885.17
498.32	23770.48
498.50	23779.84
498.67	23899.21
498.85	24025.60
499.03	24545.20
499.20	24301.78
499.38	24512.43
499.56	24388.38
499.73	24673.93
499.91	24800.32
500.08	24774.57
500.26	24776.91
500.44	24994.58
500.61	24730.10
500.79	25048.41
500.97	25326.94
501.14	25439.28
501.32	25329.28
501.49	25530.56
501.67	25778.66
501.84	25647.59
502.02	25642.91
502.20	25731.85
502.37	26295.92
502.55	26045.48
502.72	26162.51
502.90	25872.28
503.07	26075.91
503.25	26228.04
503.43	26171.87
503.60	26178.89
503.78	26410.60
503.95	26656.36
504.13	26178.89
504.30	26787.43
504.48	26731.26
504.65	26857.65
504.83	26611.89
505.01	27307.03
505.18	26951.27
505.36	27428.74
505.53	27087.02
505.71	27482.57
505.88	27470.87
506.06	27623.00
506.23	27641.73
506.41	27536.40
506.58	27922.59
506.76	27927.27
506.93	28016.21
507.11	27850.03
507.28	27955.36
507.46	27946.00
507.63	28147.28
507.81	28013.87
507.98	28446.87
508.16	28388.36
508.33	28760.50
508.50	28526.45
508.68	28613.05
508.85	29092.86
509.03	28844.76
509.20	28996.90
509.38	29064.77
509.55	29198.18
509.73	29439.26
509.90	29331.59
510.08	29116.26
510.25	29172.44
510.42	29420.53
510.60	29284.78
510.77	29612.46
510.95	29956.52
511.12	29507.13
511.30	29975.24
511.47	30562.72
511.64	30396.54
511.82	30279.51
511.99	29883.96
512.17	30590.80
512.34	30356.75
512.51	30459.73
512.69	30698.47
512.86	30375.47
513.04	30534.63
513.21	30609.53
513.38	30979.33
513.56	30909.11
513.73	30387.18
513.90	30792.09
514.08	30946.56
514.25	31126.78
514.43	31548.08
514.60	31040.18
514.77	31194.66
514.95	31627.66
515.12	32182.37
515.29	31473.18
515.47	31641.70
515.64	31931.93
515.81	31330.41
515.99	31672.13
516.16	31910.86
516.33	32037.25
516.51	31835.97
516.68	31466.16
516.85	31749.37
517.03	31852.35
517.20	32137.90
517.37	32004.49
517.54	32407.06
517.72	32250.24
517.89	32350.88
518.06	32465.57
518.24	32442.17
518.41	32350.88
518.58	32542.81
518.75	32381.31
518.93	33165.39
519.10	32807.29
519.27	32748.78
519.45	32985.17
519.62	33039.00
519.79	33046.02
519.96	33347.95
520.14	33488.38
520.31	33694.35
520.48	33895.64
520.65	33570.30
520.83	33921.38
521.00	34005.64
521.17	33989.26
521.34	34370.77
521.52	33893.30
521.69	34405.88
521.86	34162.46
522.03	34274.80
522.20	34265.44
522.38	34370.77
522.55	34462.05
522.72	34611.84
522.89	34820.15
523.07	34438.64
523.24	34543.97
523.41	34462.05
523.58	34485.45
523.75	35056.54
523.92	34855.26
524.10	34831.85
524.27	35072.93
524.44	35218.04
524.61	35393.58
524.78	35175.91
524.96	35505.93
525.13	35065.91
525.30	35772.75
525.47	35697.85
525.64	35555.08
525.81	35592.53
525.98	35634.66
526.16	35536.35
526.33	35749.34
526.50	35899.14
526.67	35484.86
526.84	35592.53
527.01	35454.44
527.18	35838.28
527.36	35854.67
527.53	36065.31
527.70	36205.75
527.87	36561.51
528.04	36402.35
528.21	36168.30
528.38	36236.17
528.55	36474.91
528.72	36495.97
528.89	36868.12
529.07	36643.43
529.24	36524.06
529.41	36446.82
529.58	36664.49
529.75	36634.06
529.92	37092.81
530.09	36835.35
530.26	37177.07
530.43	36954.72
530.60	36865.78
530.77	37034.30
530.94	37429.85
531.11	37041.32
531.28	37205.16
531.46	37284.73
531.63	37310.48
531.80	37617.09
531.97	37411.12
532.14	37647.52
532.31	37280.05
532.48	37481.34
532.65	37823.06
532.82	37560.92
532.99	37649.86
533.16	37481.34
533.33	38033.71
533.50	38237.33
533.67	38197.54
533.84	38066.47
534.01	38197.54
534.18	37881.57
534.35	38258.40
534.52	37794.97
534.69	38436.28
534.86	38230.31
535.03	38382.45
535.20	38850.55
535.37	38457.34
535.54	39000.35
535.71	38359.04
535.88	38827.15
536.05	38979.28
536.22	39042.48
536.38	38361.38
536.55	38602.46
536.72	38859.91
536.89	38321.59
537.06	38597.77
537.23	39044.82
537.40	38691.40
537.57	38888.00
537.74	38962.90
537.91	39407.60
538.08	39159.50
538.25	38906.73
538.42	39152.48
538.59	39026.09
538.75	38892.68
538.92	39021.41
539.09	39522.29
539.26	39456.75
539.43	39845.28
539.60	39646.33
539.77	39374.83
539.94	39735.27
540.11	39283.55
540.28	39749.32
540.44	39571.44
540.61	39592.50
540.78	39473.13
540.95	39681.44
541.12	39793.79
541.29	39447.39
541.46	39578.46
541.62	39597.18
541.79	40130.83
541.96	39936.56
542.13	40086.36
542.30	40198.70
542.47	40301.68
542.63	40264.24
542.80	39988.05
542.97	40896.18
543.14	40779.15
543.31	40711.28
543.48	40561.48
543.64	41020.23
543.81	40800.22
543.98	40271.26
544.15	41022.57
544.32	41045.97
544.48	41537.49
544.65	41015.55
544.82	40697.24
544.99	40229.13
545.16	41064.70
545.32	41031.93
545.49	40746.39
545.66	41113.85
545.83	41155.98
546.00	40973.42
546.16	41031.93
546.33	41256.62
546.50	40713.62
546.67	41469.61
546.83	40919.59
547.00	41134.92
547.17	41148.96
547.34	41113.85
547.50	41429.82
547.67	41902.61
547.84	41567.91
548.00	41872.18
548.17	42073.47
548.34	41460.25
548.51	41614.72
548.67	41954.10
548.84	41787.92
549.01	41794.95
549.18	41308.11
549.34	41963.46
549.51	42272.42
549.68	41762.18
549.84	41855.80
550.01	41769.20
550.18	42092.19
550.34	41804.31
550.51	42120.28
550.68	41954.10
550.84	41933.04
551.01	42052.41
551.18	42443.27
551.34	42225.60
551.51	42436.25
551.68	42394.12
551.84	42319.23
552.01	42511.15
552.18	42536.90
552.34	42033.68
552.51	42782.65
552.68	42569.66
552.84	42850.53
553.01	43016.71
553.18	42726.48
553.34	42054.75
553.51	42710.10
553.67	42653.92
553.84	43061.18
554.01	42731.16
554.17	42925.42
554.34	43194.59
554.51	43012.02
554.67	43168.84
554.84	42843.51
555.00	43112.67
555.17	43068.20
555.33	43124.37
555.50	42761.59
555.67	43400.55
555.83	42770.95
556.00	42953.51
556.16	43306.93
556.33	43629.93
556.50	43138.41
556.66	43126.71
556.83	43126.71
556.99	43407.58
557.16	43339.70
557.32	43377.15
557.49	43393.53
557.65	42974.58
557.82	43131.39
557.98	43049.47
558.15	43253.10
558.32	43522.26
558.48	43267.14
558.65	43405.23
558.81	43580.78
558.98	43981.01
559.14	43288.21
559.31	43335.02
559.47	43346.72
559.64	43702.48
559.80	43665.03
559.97	44032.50
560.13	43482.47
560.30	43606.52
560.46	43550.35
560.63	43819.51
560.79	44217.40
560.96	44128.46
561.12	43758.66
561.29	43859.30
561.45	44072.29
561.61	44219.74
561.78	43826.53
561.94	43299.91
562.11	43992.71
562.27	43669.72
562.44	44151.87
562.60	44238.47
562.77	43737.59
562.93	43901.43
563.10	44016.11
563.26	43772.70
563.42	43838.23
563.59	43658.01
563.75	44243.15
563.92	44086.33
564.08	44032.50
564.24	44271.23
564.41	44175.27
564.57	43966.96
564.74	44175.27
564.90	43906.11
565.07	44348.47
565.23	43821.85
565.39	44023.14
565.56	44453.79
565.72	43992.71
565.88	43948.24
566.05	44280.60
566.21	43744.61
566.38	44201.02
566.54	44498.26
566.70	44514.65
566.87	44406.98
567.03	44638.70
567.19	44226.76
567.36	44156.55
567.52	44470.18
567.68	44327.41
567.85	44280.60
568.01	44161.23
568.17	44306.34
568.34	44636.36
568.50	44545.08
568.66	44231.44
568.83	44112.08
568.99	44074.63
569.15	44030.16
569.32	44294.64
569.48	44231.44
569.64	44744.02
569.81	44610.61
569.97	44524.01
570.13	44222.08
570.30	44275.91
570.46	43938.88
570.62	44442.09
570.78	44020.80
570.95	44126.12
571.11	44509.97
571.27	44083.99
571.43	43847.60
571.60	44582.52
571.76	44243.15
571.92	44727.64
572.09	44636.36
572.25	44505.29
572.41	44406.98
572.57	44528.69
572.74	44767.43
572.90	44898.50
573.06	44559.12
573.22	44502.95
573.38	44900.84
573.55	44364.85
573.71	44488.90
573.87	44343.79
574.03	44406.98
574.20	44720.62
574.36	44360.17
574.52	44938.29
574.68	44666.78
574.84	44861.05
575.01	44767.43
575.17	44538.05
575.33	44844.66
575.49	44634.02
575.65	44861.05
575.82	44837.64
575.98	44835.30
576.14	45237.87
576.30	44739.34
576.46	44626.99
576.62	44678.49
576.79	44687.85
576.95	44147.18
577.11	44919.56
577.27	44978.07
577.43	44460.82
577.59	44884.45
577.75	44439.75
577.92	44467.84
578.08	44800.19
578.24	44011.43
578.40	44479.54
578.56	44992.12
578.72	45111.49
578.88	44699.55
579.04	44622.31
579.21	44655.08
579.37	44458.48
579.53	44624.65
579.69	44404.64
579.85	44360.17
580.01	44706.57
580.17	44439.75
580.33	44809.56
580.49	44781.47
580.65	44823.60
580.82	44734.66
580.98	45144.25
581.14	44683.17
581.30	44844.66
581.46	44652.74
581.62	44818.92
581.78	44828.28
581.94	44968.71
582.10	44748.70
582.26	45240.21
582.42	45050.63
582.58	44935.95
582.74	44856.37
582.90	44711.25
583.06	44669.12
583.22	44568.48
583.38	44870.41
583.54	44556.78
583.70	44985.10
583.86	44378.90
584.02	44388.26
584.18	45069.36
584.34	44584.86
584.50	45031.91
584.66	44856.37
584.82	44751.04
584.98	45251.92
585.14	44851.69
585.30	44673.81
585.46	44856.37
585.62	45038.93
585.78	44666.78
585.94	44538.05
586.10	44722.96
586.26	44737.00
586.42	45170.00
586.58	45144.25
586.74	44872.75
586.90	44949.99
587.06	44823.60
587.22	44811.90
587.38	44676.15
587.54	45088.08
587.70	44952.33
587.86	44818.92
588.02	45139.57
588.18	45198.09
588.34	45162.98
588.49	44664.44
588.65	44624.65
588.81	44587.21
588.97	44514.65
589.13	44463.16
589.29	44729.98
589.45	45017.86
589.61	45092.76
589.77	45361.92
589.93	45134.89
590.08	45352.56
590.24	45371.28
590.40	45153.62
590.56	45509.38
590.72	45308.09
590.88	45177.02
591.04	45347.88
591.20	45413.41
591.35	45745.77
591.51	45516.40
591.67	45375.97
591.83	45052.97
591.99	45064.67
592.15	45123.19
592.31	45228.51
592.46	45027.23
592.62	45116.17
592.78	45006.16
592.94	45352.56
593.10	45059.99
593.26	45221.49
593.41	45242.56
593.57	45153.62
593.73	45071.70
593.89	44755.72
594.05	44856.37
594.20	45235.53
594.36	45317.45
594.52	45130.21
594.68	45420.44
594.84	45345.54
594.99	45659.17
595.15	44987.44
595.31	45455.54
595.47	45144.25
595.62	45041.27
595.78	44987.44
595.94	45586.61
596.10	45446.18
596.25	45240.21
596.41	45537.46
596.57	45336.18
596.73	45202.77
596.88	44821.26
597.04	45141.91
597.20	44992.12
597.36	45427.46
597.51	45553.85
597.67	45626.40
597.83	45544.48
597.99	45500.01
598.14	45521.08
598.30	45544.48
598.46	45277.66
598.61	45392.35
598.77	44947.65
598.93	45310.43
599.09	45109.14
599.24	45567.89
599.40	45268.30
599.56	45455.54
599.71	45052.97
599.87	45256.60
600.03	44954.67
600.18	45516.40
600.34	45333.84
600.50	45165.32
600.65	44821.26
600.81	45191.06
600.97	45502.35
601.12	45872.16
601.28	45862.80
601.44	45284.68
601.59	45722.37
601.75	44968.71
601.91	44921.90
602.06	45357.24
602.22	45083.40
602.37	44945.31
602.53	45268.30
602.69	45645.13
602.84	45097.44
603.00	44980.42
603.16	45329.16
603.31	45390.01
603.47	45067.02
603.62	45642.79
603.78	45471.93
603.94	45710.66
604.09	45549.17
604.25	45603.00
604.40	45359.58
604.56	45104.46
604.71	45127.87
604.87	45284.68
605.03	45258.94
605.18	45160.64
605.34	45357.24
605.49	45256.60
605.65	44945.31
605.80	45137.23
605.96	45074.04
606.12	44999.14
606.27	45488.31
606.43	45352.56
606.58	44800.19
606.74	45076.38
606.89	44662.10
607.05	44971.05
607.20	45029.57
607.36	45549.17
607.51	45207.45
607.67	45193.40
607.82	44790.83
607.98	44917.22
608.13	45249.58
608.29	44729.98
608.44	44729.98
608.60	44538.05
608.75	44872.75
608.91	44933.60
609.06	44847.00
609.22	45713.00
609.37	44800.19
609.53	44704.23
609.68	45177.02
609.84	44601.25
609.99	44952.33
610.15	44935.95
610.30	44992.12
610.46	44652.74
610.61	44608.27
610.76	44720.62
610.92	44641.04
611.07	44861.05
611.23	44444.43
611.38	44722.96
611.54	44479.54
611.69	44383.58
611.84	44655.08
612.00	44538.05
612.15	44486.56
612.31	44568.48
612.46	44687.85
612.62	44538.05
612.77	44722.96
612.92	44935.95
613.08	44027.82
613.23	44292.30
613.39	44294.64
613.54	44238.47
613.69	44364.85
613.85	44266.55
614.00	44437.41
614.15	44793.17
614.31	44601.25
614.46	44898.50
614.62	44472.52
614.77	44261.87
614.92	44360.17
615.08	44360.17
615.23	44357.83
615.38	44254.85
615.54	43674.40
615.69	43824.19
615.84	43922.49
616.00	43915.47
616.15	44083.99
616.30	44208.04
616.46	43641.63
616.61	43648.65
616.76	43973.98
616.92	43262.46
617.07	44002.07
617.22	43571.41
617.37	43791.42
617.53	43945.90
617.68	44060.58
617.83	43936.54
617.99	43981.01
618.14	43849.94
618.29	43702.48
618.45	44069.95
618.60	43426.30
618.75	43938.88
618.90	43746.95
619.06	44013.77
619.21	43894.41
619.36	44304.00
619.51	43695.46
619.67	43416.94
619.82	43737.59
619.97	43648.65
620.12	43318.64
620.28	43161.82
620.43	43056.50
620.58	43742.27
620.73	43295.23
620.89	42953.51
621.04	43555.03
621.19	43358.42
621.34	43145.44
621.49	43222.67
621.65	43627.59
621.80	43438.00
621.95	42983.94
622.10	43033.09
622.25	42515.83
622.41	42895.00
622.56	43026.07
622.71	43583.12
622.86	43225.01
623.01	43562.05
623.16	43395.87
623.32	43002.66
623.47	43384.17
623.62	42972.24
623.77	42113.26
623.92	43063.52
624.07	42838.83
624.23	42698.39
624.38	42115.60
624.53	42387.10
624.68	42658.60
624.83	42740.52
624.98	43077.56
625.13	42859.89
625.29	42789.67
625.44	42328.59
625.59	43084.58
625.74	42223.26
625.89	42368.38
626.04	42253.69
626.19	42508.81
626.34	42433.91
626.49	42539.24
626.65	42326.25
626.80	42749.88
626.95	41993.89
627.10	42012.62
627.25	42117.94
627.40	42436.25
627.55	41830.05
627.70	41909.63
627.85	42005.59
628.00	42239.65
628.15	42307.52
628.30	42204.54
628.45	42742.86
628.60	42160.07
628.76	42649.24
628.91	42377.74
629.06	42094.53
629.21	41813.67
629.36	41979.85
629.51	41610.04
629.66	41319.82
629.81	41530.47
629.96	41614.72
630.11	42012.62
630.26	41902.61
630.41	41947.08
630.56	42047.72
630.71	41581.96
630.86	41647.49
631.01	41724.73
631.16	41544.51
631.31	41434.50
631.46	41401.74
631.61	41581.96
631.76	41612.38
631.91	41172.36
632.06	41060.02
632.21	41350.24
632.36	41661.54
632.51	41017.89
632.66	41471.95
632.81	40751.07
632.96	41420.46
633.10	41041.29
633.25	41240.24
633.40	41106.83
633.55	41228.54
633.70	41125.55
633.85	40999.16
634.00	41001.50
634.15	41111.51
634.30	40748.73
634.45	40877.46
634.60	40926.61
634.75	40786.18
634.90	40753.41
635.05	41141.94
635.19	40566.16
635.34	41411.10
635.49	40947.67
635.64	40704.26
635.79	40847.03
635.94	40556.80
636.09	40652.76
636.24	40575.53
636.39	40350.84
636.53	40474.88
636.68	40133.17
636.83	40205.72
636.98	40559.14
637.13	40289.98
637.28	40149.55
637.43	40240.83
637.57	40650.42
637.72	40570.85
637.87	40676.17
638.02	40622.34
638.17	40280.62
638.32	40194.02
638.46	39875.71
638.61	40144.87
638.76	39915.50
638.91	40205.72
639.06	39831.24
639.20	40371.90
639.35	40531.06
639.50	40463.18
639.65	40399.99
639.80	40547.44
639.94	40208.06
640.09	40350.84
640.24	39901.45
640.39	40062.95
640.54	40121.46
640.68	39758.68
640.83	39800.81
640.98	39793.79
641.13	39894.43
641.27	40175.30
641.42	39723.57
641.57	39945.92
641.72	40378.92
641.86	39552.71
642.01	39686.12
642.16	39452.07
642.31	39182.91
642.45	39688.46
642.60	39480.16
642.75	39323.34
642.90	39693.15
643.04	39428.66
643.19	39814.85
643.34	39606.55
643.48	39526.97
643.63	39576.12
643.78	39173.55
643.93	39470.79
644.07	38864.60
644.22	39290.57
644.37	39072.90
644.51	39152.48
644.66	39332.70
644.81	39016.73
644.95	38946.51
645.10	39225.04
645.25	39210.99
645.39	39634.63
645.54	39639.31
645.69	38892.68
645.83	38726.50
645.98	39028.43
646.13	39199.29
646.27	39372.49
646.42	38457.34
646.57	39309.30
646.71	38494.79
646.86	39138.44
647.00	38614.16
647.15	38869.28
647.30	39246.10
647.44	39112.69
647.59	38574.37
647.74	38897.36
647.88	38136.69
648.03	38487.77
648.17	38499.47
648.32	38192.86
648.47	38637.56
648.61	38546.28
648.76	38373.08
648.90	38763.95
649.05	38452.66
649.20	38487.77
649.34	38785.02
649.49	38199.88
649.63	38653.95
649.78	38611.82
649.92	38473.73
650.07	38550.96
650.21	38087.54
650.36	38550.96
650.51	38419.89
650.65	38188.18
650.80	38808.42
650.94	39082.27
651.09	38445.64
651.23	38232.65
651.38	38190.52
651.52	37989.24
651.67	38490.11
651.81	37993.92
651.96	38120.31
652.10	37951.79
652.25	38387.13
652.39	37816.04
652.54	38160.09
652.68	38143.71
652.83	38281.80
652.97	38155.41
653.12	37837.10
653.26	37823.06
653.41	37881.57
653.55	37825.40
653.70	37626.45
653.84	37488.36
653.99	37755.18
654.13	37958.81
654.27	37694.33
654.42	37034.30
654.56	37865.19
654.71	37991.58
654.85	37577.30
655.00	37621.77
655.14	37425.17
655.29	37230.90
655.43	37202.82
655.57	37340.91
655.72	36910.25
655.86	37057.70
656.01	36985.15
656.15	36898.55
656.30	37134.94
656.44	36935.99
656.58	36746.41
656.73	36947.70
656.87	37350.27
657.01	36755.77
657.16	36446.82
657.30	36570.87
657.45	36786.20
657.59	36861.10
657.73	36842.37
657.88	37230.90
658.02	36847.05
658.16	36889.18
658.31	36940.68
658.45	36715.98
658.60	36994.51
658.74	36793.22
658.88	37216.86
659.03	36540.44
659.17	36498.31
659.31	36723.01
659.46	36673.85
659.60	36201.07
659.74	36425.76
659.89	36126.17
660.03	36259.58
660.17	36484.27
660.32	36177.66
660.46	36666.83
660.60	36641.09
660.74	36425.76
660.89	36034.89
661.03	35765.73
661.17	36147.23
661.32	35611.25
661.46	35557.42
661.60	35264.85
661.74	36058.29
661.89	35952.97
662.03	35967.01
662.17	35342.09
662.31	35218.04
662.46	35531.67
662.60	35625.29
662.74	35484.86
662.88	35178.25
663.03	35674.45
663.17	35407.62
663.31	35559.76
663.45	34991.01
663.60	35290.60
663.74	35211.02
663.88	34796.74
664.02	35192.30
664.17	34792.06
664.31	34878.66
664.45	34991.01
664.59	34981.65
664.73	34888.03
664.88	35065.91
665.02	34628.23
665.16	34630.57
665.30	34698.44
665.44	34550.99
665.59	34176.50
665.73	34146.08
665.87	33888.62
666.01	34169.48
666.15	34326.30
666.29	34253.74
666.44	34440.98
666.58	34281.83
666.72	33954.15
666.86	34513.54
667.00	34312.25
667.14	33600.73
667.28	33610.09
667.43	33890.96
667.57	33926.07
667.71	33984.58
667.85	33844.15
667.99	33472.00
668.13	33813.72
668.27	33354.97
668.41	33883.94
668.56	33064.75
668.70	33724.78
668.84	33406.47
668.98	33371.36
669.12	33130.28
669.26	33614.77
669.40	32999.21
669.54	32926.66
669.68	32980.49
669.82	33067.09
669.96	33352.63
670.10	32376.63
670.25	33343.27
670.39	33158.37
670.53	32954.74
670.67	32657.49
670.81	33010.92
670.95	32882.19
671.09	32800.27
671.23	32510.04
671.37	32666.86
671.51	32259.60
671.65	32287.69
671.79	32418.76
671.93	32063.00
672.07	32467.91
672.21	32580.26
672.35	31824.26
672.49	31740.00
672.63	32144.92
672.77	32105.13
672.91	31793.84
673.05	31742.35
673.19	31386.58
673.33	31297.64
673.47	31342.11
673.61	31222.75
673.75	31346.79
673.89	31299.98
674.03	30792.09
674.17	31126.78
674.31	31225.09
674.45	30930.18
674.59	30691.44
674.73	31234.45
674.87	31119.76
675.01	30607.19
675.15	30988.69
675.29	30618.89
675.43	30909.11
675.56	30726.55
675.70	30684.42
675.84	30370.79
675.98	29357.34
676.12	30024.39
676.26	30022.05
676.40	29895.66
676.54	30019.71
676.68	30036.09
676.82	29556.28
676.96	29600.76
677.10	29565.65
677.23	29376.06
677.37	29319.89
677.51	29127.97
677.65	28861.15
677.79	28973.49
677.93	29006.26
678.07	28936.04
678.21	28638.80
678.34	28453.89
678.48	28666.88
678.62	28732.42
678.76	28507.72
678.90	28154.30
679.04	28524.11
679.18	28081.75
679.31	27833.65
679.45	28250.27
679.59	28158.99
679.73	27864.08
679.87	27730.67
680.00	27798.54
680.14	27524.70
680.28	27569.17
680.42	27311.71
680.56	27639.39
680.70	26946.59
680.83	26998.08
680.97	27222.77
681.11	26663.38
681.25	26654.02
681.39	27047.23
681.52	27035.53
681.66	26749.98
681.80	26834.24
681.94	26529.97
682.07	26696.15
682.21	26476.14
682.35	26438.69
682.49	26286.56
682.62	26260.81
682.76	26085.27
682.90	25804.41
683.04	26181.23
683.17	26174.21
683.31	26080.59
683.45	26043.14
683.59	25776.32
683.72	25429.92
683.86	25254.38
684.00	25420.56
684.13	25549.29
684.27	25249.70
684.41	25294.17
684.55	24781.59
684.68	24833.08
684.82	25013.31
684.96	24381.36
685.09	24989.90
685.23	24606.05
685.37	24666.91
685.50	24217.52
685.64	24306.46
685.78	24180.07
685.91	24276.04
686.05	24166.03
686.19	23669.84
686.32	24077.09
686.46	23616.01
686.60	23506.00
686.73	23559.83
686.87	23580.90
687.01	23351.52
687.14	23227.48
687.28	22883.42
687.42	23112.79
687.55	23094.07
687.69	22778.09
687.82	23021.51
687.96	22869.37
688.10	22745.33
688.23	22576.81
688.37	22532.34
688.50	22361.48
688.64	22298.28
688.78	22064.23
688.91	22586.17
689.05	22441.06
689.18	22115.72
689.32	21759.96
689.46	21734.21
689.59	22050.19
689.73	22019.76
689.86	21790.39
690.00	21888.69
690.13	21792.73
690.27	21743.58
690.41	21509.52
690.54	21135.04
690.68	21387.82
690.81	21209.93
690.95	20989.92
691.08	20964.18
691.22	21015.67
691.35	20875.24
691.49	21223.98
691.62	21003.97
691.76	20657.57
691.89	20786.30
692.03	20617.78
692.16	20325.21
692.30	20098.18
692.43	20400.11
692.57	19777.53
692.70	20222.23
692.84	20210.53
692.97	19679.22
693.11	19992.86
693.24	19805.61
693.38	19807.95
693.51	19609.01
693.65	19473.26
693.78	19550.49
693.92	19585.60
694.05	19405.38
694.19	19271.97
694.32	19239.20
694.45	19117.50
694.59	18974.72
694.72	18520.66
694.86	18977.06
694.99	18946.64
695.13	18782.80
695.26	18499.59
695.39	18242.14
695.53	18686.84
695.66	18452.78
695.80	18412.99
695.93	18270.22
696.07	18192.98
696.20	18108.72
696.33	18075.96
696.47	18090.00
696.60	18075.96
696.73	17830.20
696.87	17970.63
697.00	18090.00
697.14	17888.71
697.27	17692.11
697.40	17551.68
697.54	17628.92
697.67	17514.23
697.80	17312.94
697.94	17303.58
698.07	17149.11
698.21	16996.97
698.34	17266.13
698.47	17032.08
698.61	16645.89
698.74	16482.05
698.87	16709.08
699.01	16362.69
699.14	16243.32
699.27	16402.47
699.40	16159.06
699.54	16294.81
699.67	15990.54
699.80	16060.76
699.94	15967.13
700.07	16208.21
700.20	15676.91
700.34	15737.76
700.47	15676.91
700.60	15962.45
700.73	16025.65
700.87	15616.05
701.00	15391.36
701.13	15262.63
701.26	15562.22
701.40	15915.64
701.53	15131.56
701.66	15143.27
701.79	15051.99
701.93	15028.58
702.06	14860.06
702.19	14853.04
702.32	15063.69
702.46	14941.98
702.59	14897.51
702.72	14934.96
702.85	14792.19
702.99	14677.50
703.12	14937.30
703.25	14576.86
703.38	14328.76
703.51	14345.14
703.65	14413.02
703.78	14303.01
703.91	14104.07
704.04	14204.71
704.17	14232.80
704.31	13987.04
704.44	13713.20
704.57	13378.50
704.70	13591.49
704.83	13607.87
704.96	13650.00
705.10	13532.98
705.23	13619.58
>>>>>End Processed Spectral Data<<<<<
