SpectraSuite Data File
++++++++++++++++++++++++++++++++++++
Date: Fri Oct 25 10:44:46 EDT 2013
User: price-jones
Dark Spectrum Present: No
Reference Spectrum Present: No
Number of Sampled Component Spectra: 1
Spectrometers: USB2+H05261
Integration Time (usec): 100000 (USB2+H05261)
Spectra Averaged: 1 (USB2+H05261)
Boxcar Smoothing: 0 (USB2+H05261)
Correct for Electrical Dark: No (USB2+H05261)
Strobe/Lamp Enabled: No (USB2+H05261)
Correct for Detector Non-linearity: No (USB2+H05261)
Correct for Stray Light: No (USB2+H05261)
Number of Pixels in Processed Spectrum: 2048
>>>>>Begin Processed Spectral Data<<<<<
365.73	154.48
365.92	154.48
366.12	154.48
366.32	0.00
366.52	9.36
366.72	35.11
366.91	44.47
367.11	51.49
367.31	0.00
367.51	91.28
367.70	7.02
367.90	65.54
368.10	81.92
368.30	28.09
368.49	4.68
368.69	91.28
368.89	58.51
369.09	65.54
369.28	39.79
369.48	84.26
369.68	133.41
369.87	65.54
370.07	86.60
370.27	105.32
370.47	201.29
370.66	311.29
370.86	376.83
371.06	442.36
371.25	435.34
371.45	404.91
371.65	369.80
371.84	444.70
372.04	486.83
372.24	505.56
372.44	435.34
372.63	552.37
372.83	425.98
373.03	463.43
373.22	486.83
373.42	482.15
373.62	521.94
373.81	531.30
374.01	498.53
374.21	447.04
374.40	615.56
374.60	627.26
374.79	528.96
374.99	528.96
375.19	615.56
375.38	554.71
375.58	580.45
375.78	547.69
375.97	589.82
376.17	615.56
376.37	550.03
376.56	561.73
376.76	622.58
376.95	521.94
377.15	631.94
377.35	657.69
377.54	582.79
377.74	629.60
377.93	535.98
378.13	606.20
378.33	617.90
378.52	664.71
378.72	631.94
378.91	678.76
379.11	524.28
379.31	592.16
379.50	674.07
379.70	601.52
379.89	681.10
380.09	676.41
380.28	592.16
380.48	685.78
380.68	716.20
380.87	641.31
381.07	660.03
381.26	755.99
381.46	741.95
381.65	709.18
381.85	638.97
382.04	578.11
382.24	643.65
382.43	613.22
382.63	643.65
382.83	704.50
383.02	767.70
383.22	695.14
383.41	667.05
383.61	727.91
383.80	692.80
384.00	678.76
384.19	772.38
384.39	741.95
384.58	760.67
384.78	828.55
384.97	784.08
385.17	695.14
385.36	763.01
385.56	751.31
385.75	819.19
385.95	734.93
386.14	753.65
386.34	816.85
386.53	800.46
386.72	835.57
386.92	741.95
387.11	772.38
387.31	777.06
387.50	802.80
387.70	842.59
387.89	894.08
388.09	898.77
388.28	788.76
388.48	765.36
388.67	842.59
388.86	882.38
389.06	816.85
389.25	919.83
389.45	858.98
389.64	896.43
389.84	929.19
390.03	884.72
390.22	936.21
390.42	894.08
390.61	844.93
390.81	933.87
391.00	917.49
391.19	945.58
391.39	922.17
391.58	910.47
391.78	938.55
391.97	887.06
392.16	931.53
392.36	1039.20
392.55	1015.79
392.75	976.00
392.94	1025.15
393.13	1093.03
393.33	992.39
393.52	987.71
393.71	1020.47
393.91	1006.43
394.10	990.05
394.29	1095.37
394.49	1116.44
394.68	1020.47
394.88	1123.46
395.07	1156.22
395.26	1130.48
395.46	1064.94
395.65	1118.78
395.84	1125.80
396.04	1179.63
396.23	1022.81
396.42	1121.12
396.62	1067.28
396.81	1151.54
397.00	1203.04
397.19	1088.35
397.39	1203.04
397.58	1231.12
397.77	1249.85
397.97	1308.36
398.16	1240.48
398.35	1299.00
398.55	1352.83
398.74	1336.45
398.93	1432.41
399.12	1383.26
399.32	1331.76
399.51	1261.55
399.70	1483.90
399.90	1406.66
400.09	1366.87
400.28	1416.02
400.47	1425.39
400.67	1488.58
400.86	1451.13
401.05	1359.85
401.24	1385.60
401.44	1427.73
401.63	1455.81
401.82	1474.54
402.01	1427.73
402.21	1519.01
402.40	1502.62
402.59	1570.50
402.78	1612.63
402.97	1530.71
403.17	1605.61
403.36	1610.29
403.55	1600.93
403.74	1764.76
403.93	1687.53
404.13	1685.19
404.32	1509.65
404.51	1596.25
404.70	1584.54
404.89	1713.27
405.09	1834.98
405.28	1753.06
405.47	1783.49
405.66	1762.42
405.85	1729.66
406.05	1811.57
406.24	1774.13
406.43	1827.96
406.62	1912.22
406.81	1900.52
407.00	1846.68
407.20	1891.15
407.39	1856.04
407.58	1870.09
407.77	1898.17
407.96	1884.13
408.15	1949.67
408.34	1963.71
408.54	1977.75
408.73	1987.11
408.92	2080.74
409.11	2057.33
409.30	2113.50
409.49	1980.09
409.68	1959.03
409.87	2071.37
410.07	2115.84
410.26	2134.57
410.45	2157.97
410.64	2172.02
410.83	2209.47
411.02	2197.76
411.21	2251.60
411.40	2214.15
411.59	2272.66
411.78	2289.04
411.98	2368.62
412.17	2385.01
412.36	2361.60
412.55	2413.09
412.74	2438.84
412.93	2373.30
413.12	2380.32
413.31	2448.20
413.50	2539.48
413.69	2548.84
413.88	2649.49
414.07	2651.83
414.26	2651.83
414.45	2768.85
414.64	2693.96
414.83	2766.51
415.02	2679.91
415.22	2684.59
415.41	2862.48
415.60	2768.85
415.79	2733.75
415.98	2869.50
416.17	2888.22
416.36	2904.60
416.55	3000.57
416.74	2972.48
416.93	2878.86
417.12	2963.12
417.31	3005.25
417.50	2956.10
417.69	3021.63
417.88	3082.49
418.07	3169.09
418.26	3091.85
418.45	3150.36
418.64	3279.09
418.83	3141.00
419.02	3211.22
419.21	3262.71
419.39	3307.18
419.58	3286.11
419.77	3236.96
419.96	3131.64
420.15	3356.33
420.34	3241.64
420.53	3417.18
420.72	3468.67
420.91	3456.97
421.10	3414.84
421.29	3595.06
421.48	3428.88
421.67	3407.82
421.86	3471.01
422.05	3524.85
422.24	3456.97
422.43	3489.74
422.61	3463.99
422.80	3522.51
422.99	3459.31
423.18	3625.49
423.37	3606.77
423.56	3595.06
423.75	3634.85
423.94	3517.83
424.13	3318.88
424.32	3346.97
424.50	3630.17
424.69	3627.83
424.88	3684.00
425.07	3658.26
425.26	3449.95
425.45	3496.76
425.64	3595.06
425.83	3590.38
426.01	3559.95
426.20	3623.15
426.39	3651.24
426.58	3510.80
426.77	3576.34
426.96	3679.32
427.15	3721.45
427.33	3714.43
427.52	3728.47
427.71	3784.65
427.90	3744.86
428.09	3716.77
428.28	3679.32
428.46	3812.73
428.65	3843.16
428.84	4053.81
429.03	3990.61
429.22	3695.71
429.40	3786.99
429.59	3875.93
429.78	3609.11
429.97	3562.30
430.16	3817.41
430.34	3758.90
430.53	3805.71
430.72	3969.55
430.91	3878.27
431.10	4016.36
431.28	4198.92
431.47	4074.87
431.66	4145.09
431.85	4112.32
432.03	4201.26
432.22	4217.65
432.41	4170.83
432.60	4257.43
432.79	4236.37
432.97	4238.71
433.16	4365.10
433.35	4175.52
433.54	4102.96
433.72	4388.50
433.91	4344.03
434.10	4325.31
434.28	4259.78
434.47	4519.57
434.66	4456.38
434.85	4496.17
435.03	4550.00
435.22	4372.12
435.41	4519.57
435.59	4470.42
435.78	4486.81
435.97	4484.47
436.16	4711.50
436.34	4669.37
436.53	4613.20
436.72	4681.07
436.90	4573.41
437.09	4664.69
437.28	4578.09
437.46	4685.75
437.65	4671.71
437.84	4798.10
438.02	4697.46
438.21	4758.31
438.40	4660.01
438.58	4870.65
438.77	4901.08
438.96	4697.46
439.14	5060.24
439.33	4947.89
439.52	5170.24
439.70	5093.01
439.89	5100.03
440.08	5184.29
440.26	5158.54
440.45	5139.82
440.63	5488.56
440.82	5488.56
441.01	5331.74
441.19	5345.78
441.38	5528.35
441.57	5549.41
441.75	5743.67
441.94	5666.44
442.12	5614.95
442.31	5795.17
442.50	5727.29
442.68	5717.93
442.87	5617.29
443.05	5764.74
443.24	5727.29
443.43	5846.66
443.61	5680.48
443.80	5984.75
443.98	5708.57
444.17	5703.89
444.35	5874.74
444.54	5947.30
444.73	5792.83
444.91	5823.25
445.10	5659.42
445.28	5692.18
445.47	5853.68
445.65	5820.91
445.84	5820.91
446.02	6122.84
446.21	6012.84
446.39	5975.39
446.58	5982.41
446.77	6099.44
446.95	5970.71
447.14	5886.45
447.32	5963.68
447.51	6010.50
447.69	6073.69
447.88	5977.73
448.06	5980.07
448.25	6115.82
448.43	6218.80
448.62	6087.73
448.80	5956.66
448.99	6122.84
449.17	6108.80
449.36	6127.52
449.54	6307.74
449.73	6286.68
449.91	6361.58
450.10	6422.43
450.28	6502.01
450.46	6394.34
450.65	6494.99
450.83	6466.90
451.02	6310.08
451.20	6490.31
451.39	6640.10
451.57	6471.58
451.76	6382.64
451.94	6473.92
452.13	6506.69
452.31	6392.00
452.49	6314.77
452.68	6509.03
452.86	6635.42
453.05	6553.50
453.23	6782.87
453.42	6602.65
453.60	6588.61
453.78	6792.23
453.97	6635.42
454.15	6644.78
454.34	6707.98
454.52	6712.66
454.70	7110.55
454.89	6965.43
455.07	7000.54
455.26	6764.15
455.44	6857.77
455.62	7082.46
455.81	6920.96
455.99	7080.12
456.17	7150.34
456.36	7061.40
456.54	7014.59
456.73	7192.47
456.91	7365.67
457.09	7438.22
457.28	7571.63
457.46	7349.28
457.64	7449.93
457.83	7470.99
458.01	7307.15
458.19	7494.40
458.38	7405.46
458.56	7442.90
458.74	7524.82
458.93	7318.86
459.11	7613.76
459.29	7496.74
459.48	7545.89
459.66	7531.84
459.84	7562.27
460.03	7695.68
460.21	7779.94
460.39	7602.06
460.57	7641.85
460.76	7698.02
460.94	7805.69
461.12	7789.30
461.31	7880.58
461.49	7878.24
461.67	7824.41
461.85	8196.56
462.04	7939.10
462.22	8226.98
462.40	8170.81
462.59	8058.46
462.77	8037.40
462.95	8105.28
463.13	8245.71
463.32	7997.61
463.50	8308.90
463.68	8138.04
463.86	8163.79
464.05	8236.35
464.23	8128.68
464.41	8299.54
464.59	8067.83
464.78	8299.54
464.96	8329.97
465.14	8219.96
465.32	8383.80
465.50	8334.65
465.69	8336.99
465.87	8353.37
466.05	8463.38
466.23	8411.89
466.41	8557.00
466.60	8695.09
466.78	8308.90
466.96	8454.02
467.14	8423.59
467.32	8669.34
467.51	8781.69
467.69	8489.12
467.87	8610.83
468.05	8538.27
468.23	8585.08
468.41	8599.13
468.60	8505.51
468.78	8854.25
468.96	8765.31
469.14	9048.51
469.32	8910.42
469.50	8692.75
469.69	9116.39
469.87	9057.87
470.05	8819.14
470.23	9004.04
470.41	8847.22
470.59	8868.29
470.77	9104.68
470.95	9121.07
471.14	9233.41
471.32	9013.40
471.50	9280.22
471.68	9378.53
471.86	9298.95
472.04	9469.81
472.22	9635.99
472.40	9385.55
472.58	9734.29
472.77	9401.93
472.95	9778.76
473.13	9865.36
473.31	9678.12
473.49	9701.52
473.67	9678.12
473.85	9701.52
474.03	10083.03
474.21	10033.88
474.39	10059.62
474.57	10176.65
474.75	10202.40
474.93	10157.92
475.12	10305.38
475.30	10129.84
475.48	10270.27
475.66	10256.23
475.84	10319.42
476.02	10462.19
476.20	10565.18
476.38	10551.14
476.56	10986.47
476.74	10801.57
476.92	10745.40
477.10	10773.49
477.28	10993.50
477.46	11159.67
477.64	11211.17
477.82	11342.24
478.00	11433.52
478.18	11386.71
478.36	11538.84
478.54	11590.33
478.72	11602.04
478.90	11733.11
479.08	11674.59
479.26	11997.59
479.44	12135.68
479.62	12098.23
479.80	12020.99
479.98	12222.28
480.16	12390.80
480.34	12720.81
480.52	12524.21
480.70	12470.37
480.88	12439.95
481.06	12699.75
481.24	12734.85
481.41	12959.55
481.59	13074.23
481.77	13198.28
481.95	13081.25
482.13	13202.96
482.31	13301.26
482.49	13619.58
482.67	13668.73
482.85	13888.74
483.03	13823.20
483.21	13902.78
483.39	14136.84
483.57	14122.79
483.74	14375.57
483.92	14434.08
484.10	14239.82
484.28	14551.11
484.46	14574.52
484.64	14876.44
484.82	14736.01
485.00	14932.62
485.18	15005.17
485.35	15250.93
485.53	15061.35
485.71	15208.80
485.89	15475.62
486.07	15349.23
486.25	15477.96
486.43	15587.97
486.61	15812.66
486.78	15929.69
486.96	16056.08
487.14	16180.12
487.32	16343.96
487.50	16601.42
487.68	16802.71
487.85	16788.66
488.03	16936.12
488.21	17064.85
488.39	17158.47
488.57	17266.13
488.75	17451.03
488.92	17612.53
489.10	18019.78
489.28	17844.24
489.46	18040.85
489.64	18115.75
489.81	18548.75
489.99	18532.36
490.17	18244.48
490.35	18607.26
490.53	18391.93
490.70	18977.06
490.88	18923.23
491.06	19185.37
491.24	19080.05
491.41	19482.62
491.59	19363.25
491.77	19372.61
491.95	19400.70
492.13	19740.08
492.30	19964.77
492.48	20025.62
492.66	19878.17
492.84	20180.10
493.01	20367.34
493.19	20332.23
493.37	20121.59
493.54	20512.46
493.72	20912.69
493.90	20863.54
494.08	20905.66
494.25	21216.96
494.43	21205.25
494.61	21745.92
494.79	21472.07
494.96	21708.47
495.14	21490.80
495.32	21979.97
495.49	21921.46
495.67	21771.66
495.85	22300.62
496.02	22551.06
496.20	22422.33
496.38	22487.87
496.55	22593.19
496.73	23232.16
496.91	22871.72
497.09	23021.51
497.26	23037.89
497.44	23185.35
497.62	23073.00
497.79	23300.03
497.97	23487.28
498.14	23707.29
498.32	23789.20
498.50	24020.92
498.67	24105.18
498.85	23838.36
499.03	24233.91
499.20	24306.46
499.38	24472.64
499.56	24079.43
499.73	24278.38
499.91	24652.86
500.08	25032.03
500.26	24538.18
500.44	24877.55
500.61	24807.34
500.79	24615.41
500.97	25256.72
501.14	25205.23
501.32	25214.59
501.49	25467.37
501.67	25254.38
501.84	25635.89
502.02	25731.85
502.20	25713.13
502.37	25759.94
502.55	25848.88
502.72	26251.45
502.90	26183.57
503.07	26160.17
503.25	26211.66
503.43	25986.97
503.60	26349.75
503.78	26293.58
503.95	26494.86
504.13	26408.26
504.30	26471.46
504.48	26609.55
504.65	27035.53
504.83	27194.68
505.01	27159.58
505.18	27047.23
505.36	27300.01
505.53	27414.69
505.71	27585.55
505.88	27676.83
506.06	27386.61
506.23	27634.71
506.41	27487.25
506.58	27658.11
506.76	27541.08
506.93	28294.74
507.11	28065.36
507.28	28315.80
507.46	27784.50
507.63	28039.62
507.81	28273.67
507.98	27772.80
508.16	28222.18
508.33	28446.87
508.50	28332.18
508.68	28975.83
508.85	28912.64
509.03	28957.11
509.20	28940.72
509.38	29193.50
509.55	29280.10
509.73	29170.10
509.90	29099.88
510.08	29069.45
510.25	28910.30
510.42	29420.53
510.60	29408.83
510.77	29481.39
510.95	29797.36
511.12	29652.25
511.30	29820.77
511.47	30209.29
511.64	29984.60
511.82	30338.02
511.99	30129.72
512.17	30118.01
512.34	30326.32
512.51	30574.42
512.69	30852.94
512.86	30565.06
513.04	30719.53
513.21	30593.14
513.38	30588.46
513.56	30565.06
513.73	30670.38
513.90	30979.33
514.08	30684.42
514.25	31407.65
514.43	31349.14
514.60	31281.26
514.77	31211.04
514.95	31611.28
515.12	31672.13
515.29	31407.65
515.47	31688.51
515.64	31807.88
515.81	31101.04
515.99	31690.85
516.16	31576.17
516.33	31583.19
516.51	32020.87
516.68	31606.59
516.85	31431.05
517.03	31630.00
517.20	32105.13
517.37	32598.98
517.54	32128.53
517.72	32521.74
517.89	31908.52
518.06	31702.56
518.24	32030.23
518.41	32367.27
518.58	32545.15
518.75	32568.55
518.93	32531.11
519.10	32329.82
519.27	33083.47
519.45	33289.44
519.62	33022.62
519.79	32952.40
519.96	33254.33
520.14	33434.55
520.31	33191.14
520.48	33233.27
520.65	33357.32
520.83	33656.90
521.00	33570.30
521.17	33872.23
521.34	33610.09
521.52	34309.91
521.69	34015.01
521.86	34089.90
522.03	34199.91
522.20	34064.16
522.38	34457.37
522.55	34359.06
522.72	34251.40
522.89	34092.24
523.07	34389.49
523.24	34487.79
523.41	34616.52
523.58	34499.50
523.75	34888.03
523.92	34609.50
524.10	35047.18
524.27	35129.10
524.44	35150.17
524.61	35342.09
524.78	35632.32
524.96	35253.15
525.13	35578.48
525.30	35634.66
525.47	35714.23
525.64	35309.32
525.81	35222.72
525.98	35365.49
526.16	35655.72
526.33	35342.09
526.50	35739.98
526.67	35082.29
526.84	35529.33
527.01	35531.67
527.18	35534.01
527.36	35786.79
527.53	36407.03
527.70	36222.13
527.87	36060.63
528.04	36418.74
528.21	36037.23
528.38	36400.01
528.55	36634.06
528.72	36311.07
528.89	37060.04
529.07	36402.35
529.24	36631.72
529.41	36643.43
529.58	36659.81
529.75	36692.58
529.92	36999.19
530.09	36739.39
530.26	36938.33
530.43	37106.85
530.60	36919.61
530.77	37200.47
530.94	37193.45
531.11	36966.42
531.28	37326.86
531.46	37181.75
531.63	37237.92
531.80	37071.75
531.97	37350.27
532.14	37097.49
532.31	37240.26
532.48	37376.01
532.65	37631.13
532.82	37191.11
532.99	37663.90
533.16	37359.63
533.33	38181.16
533.50	37890.93
533.67	38010.30
533.84	37347.93
534.01	37703.69
534.18	37757.52
534.35	38190.52
534.52	37818.38
534.69	38141.37
534.86	38227.97
535.03	37979.87
535.20	38033.71
535.37	38705.44
535.54	38939.49
535.71	38527.56
535.88	38122.65
536.05	38396.49
536.22	38815.44
536.38	38754.59
536.55	38756.93
536.72	38756.93
536.89	38824.81
537.06	38450.32
537.23	38855.23
537.40	38780.34
537.57	38803.74
537.74	38677.35
537.91	38817.78
538.08	39077.58
538.25	38794.38
538.42	39117.37
538.59	39634.63
538.75	38752.25
538.92	38747.57
539.09	38883.32
539.26	39037.80
539.43	38967.58
539.60	39431.01
539.77	38836.51
539.94	39299.94
540.11	39388.88
540.28	39508.24
540.44	39421.64
540.61	39370.15
540.78	39405.26
540.95	39381.85
541.12	39374.83
541.29	39461.43
541.46	39861.66
541.62	39571.44
541.79	39686.12
541.96	39283.55
542.13	39981.03
542.30	40149.55
542.47	39643.99
542.63	40123.80
542.80	40252.53
542.97	40065.29
543.14	40828.30
543.31	40556.80
543.48	40004.44
543.64	41118.53
543.81	41001.50
543.98	40758.09
544.15	40231.47
544.32	40978.10
544.48	41448.55
544.65	40814.26
544.82	40882.14
544.99	40828.30
545.16	41020.23
545.32	40734.68
545.49	41567.91
545.66	41418.12
545.83	40847.03
546.00	41116.19
546.16	40622.34
546.33	41380.67
546.50	40746.39
546.67	41031.93
546.83	41038.95
547.00	41230.88
547.17	41462.59
547.34	40957.03
547.50	41567.91
547.67	41565.57
547.84	41478.97
548.00	41549.19
548.17	41588.98
548.34	41706.01
548.51	41940.06
548.67	41736.43
548.84	41834.74
549.01	41244.92
549.18	41532.81
549.34	41926.02
549.51	41926.02
549.68	41944.74
549.84	41776.22
550.01	42281.78
550.18	41441.53
550.34	42263.05
550.51	42202.20
550.68	41911.97
550.84	41588.98
551.01	41998.57
551.18	41935.38
551.34	42150.71
551.51	42682.01
551.68	42120.28
551.84	42225.60
552.01	42061.77
552.18	42094.53
552.34	42169.43
552.51	42256.03
552.68	42223.26
552.84	42419.87
553.01	42564.98
553.18	42677.33
553.34	42328.59
553.51	42323.91
553.67	42438.59
553.84	42705.41
554.01	42796.70
554.17	42422.21
554.34	42941.81
554.51	42766.27
554.67	42820.10
554.84	42382.42
555.00	42223.26
555.17	42457.32
555.33	42836.48
555.50	42550.94
555.67	42864.57
555.83	42660.94
556.00	42696.05
556.16	42990.96
556.33	42719.46
556.50	42644.56
556.66	42993.30
556.83	42749.88
556.99	43267.14
557.16	43239.06
557.32	43267.14
557.49	43653.33
557.65	42873.93
557.82	43318.64
557.98	43468.43
558.15	43351.40
558.32	43402.89
558.48	43468.43
558.65	43115.01
558.81	43257.78
558.98	43199.27
559.14	43522.26
559.31	43503.54
559.47	43379.49
559.64	43517.58
559.80	43662.69
559.97	43447.36
560.13	42904.36
560.30	43395.87
560.46	43697.80
560.63	43339.70
560.79	43896.75
560.96	43861.64
561.12	43903.77
561.29	43585.46
561.45	43683.76
561.61	43484.81
561.78	43428.64
561.94	43566.73
562.11	43072.88
562.27	43814.83
562.44	43629.93
562.60	43936.54
562.77	44002.07
562.93	44069.95
563.10	44605.93
563.26	43311.61
563.42	43723.55
563.59	43498.86
563.75	43510.56
563.92	43997.39
564.08	43796.10
564.24	43746.95
564.41	44065.27
564.57	43995.05
564.74	43735.25
564.90	43922.49
565.07	43613.54
565.23	43693.12
565.39	43819.51
565.56	43955.26
565.72	43882.70
565.88	44016.11
566.05	43821.85
566.21	44062.93
566.38	43824.19
566.54	43700.14
566.70	44194.00
566.87	44275.91
567.03	44023.14
567.19	44444.43
567.36	44238.47
567.52	43948.24
567.68	44109.74
567.85	44170.59
568.01	44006.75
568.17	44004.41
568.34	44533.37
568.50	43807.81
568.66	43856.96
568.83	44194.00
568.99	43913.13
569.15	44079.31
569.32	44231.44
569.48	44051.22
569.64	44069.95
569.81	44009.09
569.97	44278.25
570.13	44524.01
570.30	43821.85
570.46	43985.69
570.62	43917.81
570.78	43882.70
570.95	43599.50
571.11	44364.85
571.27	44116.76
571.43	44257.19
571.60	44215.06
571.76	43950.58
571.92	43988.03
572.09	44329.75
572.25	44027.82
572.41	44355.49
572.57	44383.58
572.74	45085.74
572.90	44229.10
573.06	44374.22
573.22	44676.15
573.38	44165.91
573.55	44465.50
573.71	44367.20
573.87	44444.43
574.03	44212.72
574.20	44343.79
574.36	44032.50
574.52	44589.55
574.68	44411.67
574.84	44554.44
575.01	44060.58
575.17	44542.74
575.33	44030.16
575.49	44002.07
575.65	44465.50
575.82	44423.37
575.98	44243.15
576.14	44584.86
576.30	44615.29
576.46	44252.51
576.62	43962.28
576.79	44116.76
576.95	44514.65
577.11	44404.64
577.27	44154.21
577.43	44268.89
577.59	44341.45
577.75	44140.16
577.92	44177.61
578.08	44191.65
578.24	43922.49
578.40	44004.41
578.56	44428.05
578.72	44271.23
578.88	44762.75
579.04	44371.88
579.21	44247.83
579.37	44238.47
579.53	44732.32
579.69	44243.15
579.85	44556.78
580.01	44266.55
580.17	44594.23
580.33	44687.85
580.49	44683.17
580.65	44697.21
580.82	44615.29
580.98	44449.11
581.14	44343.79
581.30	44919.56
581.46	44767.43
581.62	44355.49
581.78	44634.02
581.94	45036.59
582.10	44278.25
582.26	44224.42
582.42	44444.43
582.58	44491.24
582.74	44287.62
582.90	45050.63
583.06	44900.84
583.22	44673.81
583.38	45024.89
583.54	44531.03
583.70	44538.05
583.86	44416.35
584.02	44446.77
584.18	44727.64
584.34	44629.34
584.50	44662.10
584.66	44280.60
584.82	43983.35
584.98	44978.07
585.14	44755.72
585.30	44680.83
585.46	44746.36
585.62	44825.94
585.78	44243.15
585.94	44194.00
586.10	44746.36
586.26	44472.52
586.42	44327.41
586.58	44652.74
586.74	44706.57
586.90	44507.63
587.06	44154.21
587.22	44559.12
587.38	44233.78
587.54	44605.93
587.70	44907.86
587.86	45076.38
588.02	44402.30
588.18	44907.86
588.34	44683.17
588.49	44334.43
588.65	43962.28
588.81	44252.51
588.97	44807.22
589.13	44442.09
589.29	44421.03
589.45	44666.78
589.61	44652.74
589.77	44596.57
589.93	44968.71
590.08	45158.30
590.24	45090.42
590.40	44678.49
590.56	45191.06
590.72	45069.36
590.88	44479.54
591.04	44861.05
591.20	45085.74
591.35	45141.91
591.51	45556.19
591.67	44992.12
591.83	45333.84
591.99	44612.95
592.15	44435.07
592.31	44968.71
592.46	45001.48
592.62	45113.83
592.78	44809.56
592.94	44865.73
593.10	45038.93
593.26	45130.21
593.41	44491.24
593.57	44758.06
593.73	45097.44
593.89	45411.07
594.05	44987.44
594.20	44889.13
594.36	44952.33
594.52	44875.09
594.68	44842.32
594.84	44907.86
594.99	45251.92
595.15	44870.41
595.31	45038.93
595.47	45071.70
595.62	45132.55
595.78	44746.36
595.94	45179.36
596.10	45179.36
596.25	44809.56
596.41	45282.34
596.57	44872.75
596.73	45155.96
596.88	44664.44
597.04	45038.93
597.20	44949.99
597.36	45308.09
597.51	44748.70
597.67	45523.42
597.83	45055.31
597.99	45450.86
598.14	45008.50
598.30	44519.33
598.46	45006.16
598.61	44945.31
598.77	45287.03
598.93	44645.72
599.09	44921.90
599.24	45535.12
599.40	45382.99
599.56	44737.00
599.71	45177.02
599.87	45294.05
600.03	44790.83
600.18	44765.09
600.34	45088.08
600.50	45492.99
600.65	44931.26
600.81	45464.91
600.97	45038.93
601.12	45373.63
601.28	45052.97
601.44	45076.38
601.59	45043.61
601.75	44669.12
601.91	44938.29
602.06	44959.35
602.22	45111.49
602.37	45015.52
602.53	44870.41
602.69	45116.17
602.84	44636.36
603.00	45015.52
603.16	44814.24
603.31	44847.00
603.47	44842.32
603.62	44882.11
603.78	44959.35
603.94	44737.00
604.09	45490.65
604.25	45127.87
604.40	45188.72
604.56	44966.37
604.71	45282.34
604.87	44854.03
605.03	44378.90
605.18	44479.54
605.34	45069.36
605.49	45085.74
605.65	44685.51
605.80	44919.56
605.96	44830.62
606.12	44847.00
606.27	45111.49
606.43	44959.35
606.58	44893.82
606.74	44940.63
606.89	45191.06
607.05	44842.32
607.20	45099.78
607.36	44954.67
607.51	44856.37
607.67	44837.64
607.82	44615.29
607.98	44999.14
608.13	44598.91
608.29	44392.94
608.44	44781.47
608.60	44243.15
608.75	44259.53
608.91	44676.15
609.06	44556.78
609.22	44617.63
609.37	44619.97
609.53	44299.32
609.68	44722.96
609.84	44222.08
609.99	44575.50
610.15	44748.70
610.30	44357.83
610.46	44158.89
610.61	44465.50
610.76	44659.76
610.92	44568.48
611.07	44334.43
611.23	44451.45
611.38	44318.04
611.54	44336.77
611.69	44135.48
611.84	43878.02
612.00	44444.43
612.15	44121.44
612.31	44573.16
612.46	44250.17
612.62	44098.03
612.77	44093.35
612.92	44685.51
613.08	43906.11
613.23	44439.75
613.39	44381.24
613.54	44100.37
613.69	44095.69
613.85	43487.15
614.00	44306.34
614.15	44589.55
614.31	43929.51
614.46	44580.18
614.62	44170.59
614.77	44062.93
614.92	43768.02
615.08	43978.67
615.23	43669.72
615.38	44095.69
615.54	43592.48
615.69	44058.24
615.84	43491.83
616.00	43889.73
616.15	43456.73
616.30	43763.34
616.46	43791.42
616.61	43419.28
616.76	43533.96
616.92	43316.29
617.07	43260.12
617.22	43091.60
617.37	42801.38
617.53	43821.85
617.68	44313.36
617.83	43253.10
617.99	43419.28
618.14	43508.22
618.29	43604.18
618.45	43232.04
618.60	43302.25
618.75	43105.65
618.90	43058.84
619.06	43583.12
619.21	43562.05
619.36	43931.86
619.51	43873.34
619.67	44041.86
619.82	43873.34
619.97	43480.13
620.12	42909.04
620.28	42817.76
620.43	42632.86
620.58	43288.21
620.73	42855.21
620.89	42995.64
621.04	43086.92
621.19	42712.44
621.34	42995.64
621.49	43136.07
621.65	42735.84
621.80	42909.04
621.95	42583.71
622.10	42972.24
622.25	42635.20
622.41	42841.17
622.56	42412.85
622.71	42672.65
622.86	42979.26
623.01	42703.07
623.16	42487.74
623.32	42780.31
623.47	42543.92
623.62	42373.06
623.77	42078.15
623.92	42274.76
624.07	42169.43
624.23	42326.25
624.38	42789.67
624.53	42291.14
624.68	42291.14
624.83	42373.06
624.98	42347.31
625.13	41907.29
625.29	42284.12
625.44	42333.27
625.59	41979.85
625.74	41926.02
625.89	41827.71
626.04	41930.70
626.19	42064.11
626.34	42185.82
626.49	41858.14
626.65	42183.48
626.80	42852.87
626.95	41986.87
627.10	41942.40
627.25	42227.95
627.40	41790.27
627.55	41432.16
627.70	41687.28
627.85	41673.24
628.00	41263.64
628.15	41792.61
628.30	41469.61
628.45	42209.22
628.60	41752.82
628.76	41441.53
628.91	41680.26
629.06	41942.40
629.21	41628.77
629.36	41450.89
629.51	41703.67
629.66	41598.34
629.81	41137.26
629.96	41434.50
630.11	41289.39
630.26	41605.36
630.41	41771.54
630.56	41500.04
630.71	41045.97
630.86	41214.49
631.01	41125.55
631.16	41125.55
631.31	41207.47
631.46	40783.83
631.61	41350.24
631.76	41333.86
631.91	41319.82
632.06	40987.46
632.21	41167.68
632.36	41352.58
632.51	41074.06
632.66	40779.15
632.81	40715.96
632.96	40790.86
633.10	40570.85
633.25	40861.07
633.40	41198.11
633.55	40933.63
633.70	40769.79
633.85	40545.10
634.00	40388.28
634.15	40722.98
634.30	40828.30
634.45	40781.49
634.60	40854.05
634.75	40598.93
634.90	40502.97
635.05	40634.04
635.19	40273.60
635.34	40722.98
635.49	40362.54
635.64	40032.52
635.79	40603.61
635.94	40318.07
636.09	40601.27
636.24	40402.33
636.39	39812.51
636.53	39840.60
636.68	39859.32
636.83	40081.67
636.98	40275.94
637.13	39793.79
637.28	40212.74
637.43	40533.40
637.57	40170.61
637.72	40306.37
637.87	40013.80
638.02	39995.07
638.17	40133.17
638.32	39922.52
638.46	39899.11
638.61	40091.04
638.76	39957.63
638.91	39962.31
639.06	39807.83
639.20	40100.40
639.35	40509.99
639.50	40032.52
639.65	40318.07
639.80	40348.50
639.94	39725.91
640.09	39786.77
640.24	39604.20
640.39	39178.23
640.54	39573.78
640.68	39545.69
640.83	39969.33
640.98	39143.12
641.13	39480.16
641.27	39751.66
641.42	39817.19
641.57	39182.91
641.72	39267.17
641.86	38988.64
642.01	39166.52
642.16	39269.51
642.31	38834.17
642.45	39384.19
642.60	39199.29
642.75	39082.27
642.90	39379.51
643.04	39306.96
643.19	38792.04
643.34	39082.27
643.48	38724.16
643.63	39108.01
643.78	38632.88
643.93	38581.39
644.07	38937.15
644.22	38986.30
644.37	39009.71
644.51	39061.20
644.66	39014.39
644.81	39065.88
644.95	39264.83
645.10	39019.07
645.25	39079.92
645.39	39196.95
645.54	39201.63
645.69	38534.58
645.83	38871.62
645.98	39061.20
646.13	38717.14
646.27	38967.58
646.42	38773.31
646.57	38614.16
646.71	38824.81
646.86	38429.26
647.00	38817.78
647.15	39061.20
647.30	38941.83
647.44	38354.36
647.59	38494.79
647.74	38457.34
647.88	38117.96
648.03	38518.20
648.17	38728.84
648.32	38312.23
648.47	38443.30
648.61	37933.06
648.76	38504.15
648.90	38146.05
649.05	38148.39
649.20	37895.61
649.34	38307.55
649.49	38342.66
649.63	38047.75
649.78	38249.03
649.92	37991.58
650.07	38426.92
650.21	37858.17
650.36	37755.18
650.51	37998.60
650.65	38094.56
650.80	38136.69
650.94	38181.16
651.09	38185.84
651.23	37738.80
651.38	37991.58
651.52	37853.48
651.67	37563.26
651.81	37661.56
651.96	37699.01
652.10	38117.96
652.25	37460.27
652.39	37652.20
652.54	37729.44
652.68	37965.83
652.83	37897.95
652.97	37680.28
653.12	37823.06
653.26	37277.71
653.41	37347.93
653.55	37195.79
653.70	37612.41
653.84	37319.84
653.99	37490.70
654.13	37027.28
654.27	37020.25
654.42	37244.94
654.56	36943.02
654.71	37003.87
654.85	37443.89
655.00	37436.87
655.14	36816.63
655.29	36528.74
655.43	37116.22
655.57	36472.57
655.72	36715.98
655.86	36699.60
656.01	36772.16
656.15	36570.87
656.30	36219.79
656.44	36825.99
656.58	36491.29
656.73	36727.69
656.87	37013.23
657.01	36505.34
657.16	36788.54
657.30	36404.69
657.45	36378.95
657.59	37053.02
657.73	36430.44
657.88	37261.33
658.02	37160.69
658.16	37113.87
658.31	36517.04
658.45	36676.19
658.60	36486.61
658.74	37046.00
658.88	36348.52
659.03	36638.75
659.17	36175.32
659.31	36116.81
659.46	35864.03
659.60	36268.94
659.74	36655.13
659.89	35768.07
660.03	36353.20
660.17	36320.43
660.32	36006.80
660.46	36205.75
660.60	35959.99
660.74	36060.63
660.89	35992.76
661.03	35613.59
661.17	36053.61
661.32	35552.74
661.46	35194.64
661.60	35299.96
661.74	35374.86
661.89	35522.31
662.03	35557.42
662.17	35412.31
662.31	34789.72
662.46	35227.40
662.60	35161.87
662.74	35431.03
662.88	35524.65
663.03	35056.54
663.17	34946.54
663.31	34962.92
663.45	35072.93
663.60	34801.43
663.74	34906.75
663.88	34408.22
664.02	34934.84
664.17	35012.07
664.31	34211.61
664.45	34969.94
664.59	34635.25
664.73	34492.47
664.88	34771.00
665.02	34209.27
665.16	34569.71
665.30	34099.26
665.44	34305.23
665.59	34213.95
665.73	34300.55
665.87	34195.23
666.01	33944.79
666.15	33961.17
666.29	34225.65
666.44	33996.28
666.58	33979.90
666.72	33476.68
666.86	33982.24
667.00	33897.98
667.14	33097.52
667.28	33687.33
667.43	33591.37
667.57	33291.78
667.71	33233.27
667.85	33291.78
667.99	33039.00
668.13	33256.67
668.27	33479.02
668.41	33450.94
668.56	32968.79
668.70	33429.87
668.84	33179.43
668.98	32971.13
669.12	32554.51
669.26	32329.82
669.40	32524.08
669.54	32273.65
669.68	32636.43
669.82	32493.66
669.96	32671.54
670.10	32425.78
670.25	32531.11
670.39	32114.49
670.53	32025.55
670.67	32861.12
670.81	32400.04
670.95	32250.24
671.09	32109.81
671.23	32318.12
671.37	32044.27
671.51	32247.90
671.65	32135.56
671.79	31688.51
671.93	31400.63
672.07	31878.10
672.21	32112.15
672.35	31555.10
672.49	31711.92
672.63	31831.29
672.77	31665.11
672.91	31648.72
673.05	31625.32
673.19	31398.29
673.33	31297.64
673.47	31122.10
673.61	30808.47
673.75	30965.29
673.89	30471.43
674.03	30597.82
674.17	30728.89
674.31	30679.74
674.45	30576.76
674.59	30686.76
674.73	31283.60
674.87	30726.55
675.01	30331.00
675.15	30408.24
675.29	30679.74
675.43	30506.54
675.56	30354.41
675.70	30008.01
675.84	29586.71
675.98	29036.69
676.12	29984.60
676.26	29900.34
676.40	29958.86
676.54	29673.31
676.68	29631.18
676.82	29142.01
676.96	29607.78
677.10	29420.53
677.23	29146.69
677.37	29163.08
677.51	28601.35
677.65	28671.56
677.79	28498.36
677.93	28940.72
678.07	28772.21
678.21	28297.08
678.34	28371.97
678.48	27995.15
678.62	28163.67
678.76	28095.79
678.90	27857.06
679.04	27901.53
679.18	27857.06
679.31	27716.62
679.45	27402.99
679.59	27412.35
679.73	27154.90
679.87	27599.60
680.00	27323.41
680.14	27356.18
680.28	27267.24
680.42	27185.32
680.56	27349.16
680.70	26918.50
680.83	27190.00
680.97	27543.42
681.11	27044.89
681.25	26869.35
681.39	26532.31
681.52	26583.80
681.66	26621.25
681.80	26635.30
681.94	26494.86
682.07	26658.70
682.21	26272.51
682.35	26068.89
682.49	26066.55
682.62	26298.26
682.76	25989.31
682.90	25893.35
683.04	25315.23
683.17	25809.09
683.31	24966.49
683.45	25724.83
683.59	25214.59
683.72	25216.93
683.86	25209.91
684.00	25235.66
684.13	25137.35
684.27	24638.82
684.41	24690.31
684.55	24629.46
684.68	24629.46
684.82	24648.18
684.96	24732.44
685.09	24395.40
685.23	24283.06
685.37	24587.33
685.50	24233.91
685.64	24140.29
685.78	23784.52
685.91	23864.10
686.05	23761.12
686.19	23597.28
686.32	23578.56
686.46	23391.31
686.60	23393.65
686.73	23267.27
686.87	22991.08
687.01	23398.34
687.14	22874.06
687.28	22918.53
687.42	23267.27
687.55	23075.34
687.69	22820.22
687.82	22752.35
687.96	22623.62
688.10	22604.89
688.23	22478.50
688.37	22427.01
688.50	22010.40
688.64	22380.20
688.78	22052.53
688.91	22017.42
689.05	22340.41
689.18	22544.04
689.32	21722.51
689.46	21869.97
689.59	21659.32
689.73	21694.43
689.86	21626.55
690.00	21429.94
690.13	21497.82
690.27	21565.70
690.41	21261.43
690.54	20903.32
690.68	20697.36
690.81	20952.48
690.95	20805.02
691.08	20950.14
691.22	20416.49
691.35	20915.03
691.49	20837.79
691.62	20816.72
691.76	20458.62
691.89	20222.23
692.03	20519.48
692.16	20182.44
692.30	20325.21
692.43	20060.73
692.57	19665.18
692.70	19800.93
692.84	19847.74
692.97	19777.53
693.11	19473.26
693.24	19529.43
693.38	19264.95
693.51	19417.08
693.65	19700.29
693.78	19199.41
693.92	19381.98
694.05	19323.46
694.19	19037.92
694.32	19129.20
694.45	18850.67
694.59	18705.56
694.72	18565.13
694.86	18892.80
694.99	18405.97
695.13	18682.16
695.26	18321.71
695.39	18544.06
695.53	18396.61
695.66	18644.71
695.80	18373.21
695.93	18441.08
696.07	18228.09
696.20	18097.02
696.33	17905.10
696.47	18127.45
696.60	17834.88
696.73	17542.32
696.87	17703.81
697.00	17645.30
697.14	17521.25
697.27	17214.64
697.40	17401.88
697.54	17256.77
697.67	17013.35
697.80	17025.06
697.94	17092.93
698.07	16863.56
698.21	16615.46
698.34	16673.98
698.47	16734.83
698.61	16233.96
698.74	16627.17
698.87	16245.66
699.01	16224.59
699.14	16130.97
699.27	16002.24
699.40	16196.51
699.54	15983.52
699.67	15789.25
699.80	16194.17
699.94	15793.94
700.07	15744.78
700.20	15466.26
700.34	15686.27
700.47	15660.52
700.60	15704.99
700.73	15796.28
700.87	15667.55
701.00	15403.07
701.13	15398.38
701.26	15421.79
701.40	15091.77
701.53	15117.52
701.66	15253.27
701.79	14895.17
701.93	14878.79
702.06	14981.77
702.19	14750.06
702.32	14733.67
702.46	14476.21
702.59	14801.55
702.72	14771.12
702.85	14611.96
702.99	14513.66
703.12	14333.44
703.25	14427.06
703.38	14427.06
703.51	13991.72
703.65	14012.79
703.78	14263.22
703.91	13965.98
704.04	13965.98
704.17	13827.88
704.31	13949.59
704.44	13832.57
704.57	13694.47
704.70	13797.46
704.83	13799.80
704.96	13680.43
705.10	13706.18
705.23	13593.83
>>>>>End Processed Spectral Data<<<<<
