SpectraSuite Data File
++++++++++++++++++++++++++++++++++++
Date: Fri Oct 25 10:48:27 EDT 2013
User: price-jones
Dark Spectrum Present: No
Reference Spectrum Present: No
Number of Sampled Component Spectra: 1
Spectrometers: USB2+H05261
Integration Time (usec): 100000 (USB2+H05261)
Spectra Averaged: 1 (USB2+H05261)
Boxcar Smoothing: 0 (USB2+H05261)
Correct for Electrical Dark: No (USB2+H05261)
Strobe/Lamp Enabled: No (USB2+H05261)
Correct for Detector Non-linearity: No (USB2+H05261)
Correct for Stray Light: No (USB2+H05261)
Number of Pixels in Processed Spectrum: 2048
>>>>>Begin Processed Spectral Data<<<<<
365.73	170.86
365.92	170.86
366.12	170.86
366.32	70.22
366.52	44.47
366.72	21.06
366.91	2.34
367.11	0.00
367.31	28.09
367.51	58.51
367.70	35.11
367.90	95.96
368.10	67.88
368.30	79.58
368.49	25.75
368.69	110.01
368.89	63.19
369.09	79.58
369.28	77.24
369.48	9.36
369.68	91.28
369.87	110.01
370.07	77.24
370.27	145.11
370.47	236.39
370.66	402.57
370.86	388.53
371.06	498.53
371.25	479.81
371.45	447.04
371.65	517.26
371.84	477.47
372.04	491.51
372.24	437.68
372.44	561.73
372.63	456.40
372.83	514.92
373.03	571.09
373.22	498.53
373.42	500.87
373.62	580.45
373.81	531.30
374.01	622.58
374.21	526.62
374.40	547.69
374.60	648.33
374.79	575.77
374.99	535.98
375.19	648.33
375.38	653.01
375.58	615.56
375.78	622.58
375.97	620.24
376.17	711.52
376.37	624.92
376.56	645.99
376.76	573.43
376.95	634.29
377.15	638.97
377.35	603.86
377.54	725.57
377.74	596.84
377.93	653.01
378.13	702.16
378.33	667.05
378.52	664.71
378.72	660.03
378.91	660.03
379.11	709.18
379.31	697.48
379.50	627.26
379.70	713.86
379.89	784.08
380.09	730.25
380.28	624.92
380.48	690.46
380.68	755.99
380.87	741.95
381.07	727.91
381.26	770.04
381.46	671.73
381.65	781.74
381.85	650.67
382.04	699.82
382.24	770.04
382.43	669.39
382.63	645.99
382.83	702.16
383.02	720.88
383.22	739.61
383.41	697.48
383.61	753.65
383.80	774.72
384.00	788.76
384.19	753.65
384.39	823.87
384.58	851.96
384.78	826.21
384.97	887.06
385.17	858.98
385.36	861.32
385.56	800.46
385.75	748.97
385.95	823.87
386.14	880.04
386.34	837.91
386.53	901.11
386.72	828.55
386.92	856.64
387.11	866.00
387.31	873.02
387.50	863.66
387.70	847.27
387.89	917.49
388.09	873.02
388.28	866.00
388.48	858.98
388.67	971.32
388.86	924.51
389.06	959.62
389.25	997.07
389.45	868.34
389.64	931.53
389.84	1064.94
390.03	957.28
390.22	968.98
390.42	985.37
390.61	990.05
390.81	1083.67
391.00	1086.01
391.19	1011.11
391.39	1006.43
391.58	983.02
391.78	1025.15
391.97	1053.24
392.16	990.05
392.36	1130.48
392.55	999.41
392.75	990.05
392.94	971.32
393.13	1041.54
393.33	987.71
393.52	1069.62
393.71	1064.94
393.91	1151.54
394.10	1034.52
394.29	1081.33
394.49	1093.03
394.68	1174.95
394.88	1245.16
395.07	1275.59
395.26	1172.61
395.46	1275.59
395.65	1301.34
395.84	1142.18
396.04	1165.59
396.23	1125.80
396.42	1238.14
396.62	1212.40
396.81	1226.44
397.00	1198.35
397.19	1287.29
397.39	1301.34
397.58	1383.26
397.77	1362.19
397.97	1439.43
398.16	1500.28
398.35	1446.45
398.55	1413.68
398.74	1397.30
398.93	1481.56
399.12	1462.83
399.32	1549.43
399.51	1481.56
399.70	1446.45
399.90	1467.52
400.09	1696.89
400.28	1586.88
400.47	1479.22
400.67	1687.53
400.86	1647.74
401.05	1668.80
401.24	1619.65
401.44	1671.14
401.63	1636.03
401.82	1710.93
402.01	1638.38
402.21	1673.48
402.40	1643.06
402.59	1785.83
402.78	1739.02
402.97	1680.50
403.17	1760.08
403.36	1739.02
403.55	1629.01
403.74	1891.15
403.93	1802.21
404.13	1877.11
404.32	1867.75
404.51	1774.13
404.70	1863.07
404.89	1832.64
405.09	1980.09
405.28	1956.69
405.47	1872.43
405.66	1900.52
405.85	1872.43
406.05	1863.07
406.24	1944.99
406.43	2010.52
406.62	2071.37
406.81	2064.35
407.00	1996.48
407.20	1933.28
407.39	2008.18
407.58	2059.67
407.77	2045.63
407.96	2148.61
408.15	2113.50
408.34	2207.13
408.54	2275.00
408.73	2211.81
408.92	2298.41
409.11	2263.30
409.30	2183.72
409.49	2148.61
409.68	2221.17
409.87	2279.68
410.07	2218.83
410.26	2298.41
410.45	2373.30
410.64	2338.20
410.83	2480.97
411.02	2452.88
411.21	2464.58
411.40	2471.61
411.59	2455.22
411.78	2576.93
411.98	2600.34
412.17	2504.37
412.36	2597.99
412.55	2640.12
412.74	2715.02
412.93	2668.21
413.12	2672.89
413.31	2693.96
413.50	2754.81
413.69	2719.70
413.88	2883.54
414.07	2846.09
414.26	2839.07
414.45	2829.71
414.64	2820.35
414.83	2984.18
415.02	3012.27
415.22	2946.73
415.41	3026.31
415.60	2939.71
415.79	3098.87
415.98	3155.04
416.17	3243.98
416.36	3129.30
416.55	3157.38
416.74	3138.66
416.93	3192.49
417.12	3192.49
417.31	3171.43
417.50	3246.32
417.69	3363.35
417.88	3463.99
418.07	3375.05
418.26	3375.05
418.45	3417.18
418.64	3447.61
418.83	3447.61
419.02	3543.57
419.21	3588.04
419.39	3487.40
419.58	3417.18
419.77	3335.26
419.96	3566.98
420.15	3534.21
420.34	3552.93
420.53	3566.98
420.72	3726.13
420.91	3744.86
421.10	3765.92
421.29	3742.52
421.48	3627.83
421.67	3737.84
421.86	3620.81
422.05	3655.92
422.24	3742.52
422.43	3681.66
422.61	3782.31
422.80	3707.41
422.99	3791.67
423.18	3763.58
423.37	3915.72
423.56	3920.40
423.75	3810.39
423.94	3915.72
424.13	3496.76
424.32	3653.58
424.50	3957.85
424.69	3822.09
424.88	3889.97
425.07	3777.62
425.26	3751.88
425.45	3833.80
425.64	3747.20
425.83	3791.67
426.01	3922.74
426.20	3899.33
426.39	3822.09
426.58	3768.26
426.77	3948.48
426.96	3852.52
427.15	3777.62
427.33	4093.60
427.52	4044.45
427.71	4007.00
427.90	4002.32
428.09	4028.06
428.28	4093.60
428.46	4126.36
428.65	4147.43
428.84	4102.96
429.03	4224.67
429.22	3962.53
429.40	4091.26
429.59	4084.23
429.78	3915.72
429.97	3707.41
430.16	4051.47
430.34	4077.21
430.53	3957.85
430.72	4201.26
430.91	4011.68
431.10	4329.99
431.28	4395.53
431.47	4489.15
431.66	4652.98
431.85	4470.42
432.03	4491.49
432.22	4634.26
432.41	4592.13
432.60	4503.19
432.79	4582.77
432.97	4667.03
433.16	4643.62
433.35	4545.32
433.54	4503.19
433.72	4557.02
433.91	4475.10
434.10	4641.28
434.28	4631.92
434.47	4608.51
434.66	4706.82
434.85	4875.34
435.03	4917.47
435.22	4737.24
435.41	4966.62
435.59	5025.13
435.78	4844.91
435.97	5057.90
436.16	4997.04
436.34	4952.57
436.53	4910.44
436.72	5135.14
436.90	4919.81
437.09	5181.95
437.28	4999.38
437.46	5062.58
437.65	5043.85
437.84	5081.30
438.02	5165.56
438.21	5097.69
438.40	5018.11
438.58	5289.61
438.77	5219.39
438.96	5207.69
439.14	5324.72
439.33	5301.31
439.52	5378.55
439.70	5570.48
439.89	5643.03
440.08	5383.23
440.26	5509.62
440.45	5500.26
440.63	5734.31
440.82	5811.55
441.01	5767.08
441.19	5764.74
441.38	5977.73
441.57	5970.71
441.75	6050.28
441.94	6113.48
442.12	6101.78
442.31	6274.98
442.50	6069.01
442.68	6047.94
442.87	6033.90
443.05	6153.27
443.24	6340.51
443.43	6171.99
443.61	6349.87
443.80	6347.53
443.98	6349.87
444.17	6218.80
444.35	6300.72
444.54	6270.30
444.73	6319.45
444.91	6221.14
445.10	6270.30
445.28	6335.83
445.47	6239.87
445.65	6228.17
445.84	6424.77
446.02	6431.79
446.21	6296.04
446.39	6286.68
446.58	6509.03
446.77	6363.92
446.95	6368.60
447.14	6623.72
447.32	6579.25
447.51	6569.88
447.69	6485.62
447.88	6431.79
448.06	6480.94
448.25	6555.84
448.43	6396.68
448.62	6628.40
448.80	6478.60
448.99	6726.70
449.17	6810.96
449.36	6794.58
449.54	6761.81
449.73	6862.45
449.91	7066.08
450.10	6939.69
450.28	6998.20
450.46	7098.84
450.65	7000.54
450.83	6949.05
451.02	7016.93
451.20	6949.05
451.39	7045.01
451.57	6806.28
451.76	7091.82
451.94	7171.40
452.13	7157.36
452.31	7049.69
452.49	6862.45
452.68	7080.12
452.86	7101.19
453.05	6979.48
453.23	7194.81
453.42	6958.41
453.60	7222.89
453.78	7403.11
453.97	7112.89
454.15	7204.17
454.34	7239.28
454.52	7363.33
454.70	7344.60
454.89	7400.77
455.07	7503.76
455.26	7346.94
455.44	7606.74
455.62	7417.16
455.81	7531.84
455.99	7466.31
456.17	7709.72
456.36	7583.34
456.54	7674.62
456.73	7850.16
456.91	8023.36
457.09	7906.33
457.28	8140.38
457.46	7840.79
457.64	8065.49
457.83	7864.20
458.01	7712.07
458.19	8021.02
458.38	7805.69
458.56	8161.45
458.74	8145.06
458.93	7918.03
459.11	8250.39
459.29	8025.70
459.48	8105.28
459.66	8119.32
459.84	8264.43
460.03	8215.28
460.21	8299.54
460.39	8241.03
460.57	8229.32
460.76	8351.03
460.94	8470.40
461.12	8446.99
461.31	8533.59
461.49	8292.52
461.67	8414.23
461.85	8407.20
462.04	8589.77
462.22	9001.70
462.40	8762.97
462.59	8737.22
462.77	8746.58
462.95	8844.88
463.13	8730.20
463.32	8594.45
463.50	8685.73
463.68	8655.30
463.86	8762.97
464.05	8627.21
464.23	8755.94
464.41	8863.61
464.59	8723.18
464.78	8891.70
464.96	8791.05
465.14	8837.86
465.32	9032.13
465.50	9004.04
465.69	8945.53
465.87	8833.18
466.05	9188.94
466.23	8891.70
466.41	8898.72
466.60	9060.21
466.78	8938.51
466.96	9034.47
467.14	9193.62
467.32	9027.45
467.51	9284.91
467.69	8936.17
467.87	9001.70
468.05	9263.84
468.23	9032.13
468.41	9390.23
468.60	9401.93
468.78	9392.57
468.96	9235.75
469.14	9418.32
469.32	9542.36
469.50	9348.10
469.69	9394.91
469.87	9488.53
470.05	9626.62
470.23	9568.11
470.41	9621.94
470.59	10057.28
470.77	9724.93
470.95	9818.55
471.14	9865.36
471.32	9909.83
471.50	10150.90
471.68	10036.22
471.86	10118.14
472.04	10148.56
472.22	10333.47
472.40	10083.03
472.58	10141.54
472.77	10242.18
472.95	10319.42
473.13	10497.30
473.31	10258.57
473.49	10286.65
473.67	10408.36
473.85	10417.72
474.03	10843.70
474.21	10794.55
474.39	10700.93
474.57	10761.78
474.75	10820.30
474.93	10757.10
475.12	10988.82
475.30	11082.44
475.48	11157.33
475.66	10953.71
475.84	10974.77
476.02	11157.33
476.20	11061.37
476.38	11407.77
476.56	11716.72
476.74	11433.52
476.92	11452.24
477.10	11564.59
477.28	11630.12
477.46	11838.43
477.64	12072.48
477.82	12098.23
478.00	12238.66
478.18	12067.80
478.36	12212.92
478.54	12395.48
478.72	12486.76
478.90	12538.25
479.08	12812.09
479.26	12711.45
479.44	12854.22
479.62	13137.43
479.80	12851.88
479.98	13085.94
480.16	13479.15
480.34	13015.72
480.52	13511.91
480.70	13584.47
480.88	13034.44
481.06	13521.27
481.24	13970.66
481.41	13994.06
481.59	14012.79
481.77	14295.99
481.95	14242.16
482.13	14265.57
482.31	14406.00
482.49	14717.29
482.67	14731.33
482.85	14541.75
483.03	14871.76
483.21	15115.18
483.39	15218.16
483.57	14834.32
483.74	15068.37
483.92	15372.64
484.10	15248.59
484.28	15810.32
484.46	15517.75
484.64	15805.64
484.82	15543.50
485.00	15941.39
485.18	16018.63
485.35	16100.55
485.53	15709.68
485.71	15824.36
485.89	16514.82
486.07	16119.27
486.25	16266.72
486.43	16545.25
486.61	16556.95
486.78	17067.19
486.96	17149.11
487.14	17172.51
487.32	17549.34
487.50	17682.75
487.68	17806.80
487.85	18225.75
488.03	18415.34
488.21	18075.96
488.39	18197.67
488.57	18118.09
488.75	18370.86
488.92	18848.33
489.10	18836.63
489.28	18958.34
489.46	19349.21
489.64	19477.94
489.81	19433.47
489.99	19864.13
490.17	19693.27
490.35	20046.69
490.53	19934.34
490.70	20135.63
490.88	20173.08
491.06	20414.15
491.24	20247.97
491.41	20308.83
491.59	20643.52
491.77	20746.51
491.95	20898.64
492.13	21018.01
492.30	21287.17
492.48	21401.86
492.66	21694.43
492.84	21600.80
493.01	21556.33
493.19	21544.63
493.37	21886.35
493.54	21928.48
493.72	22075.93
493.90	22230.41
494.08	22576.81
494.25	22469.14
494.43	22897.46
494.61	22745.33
494.79	23068.32
494.96	22979.38
495.14	22801.50
495.32	23400.68
495.49	23393.65
495.67	23658.14
495.85	23587.92
496.02	23868.78
496.20	24182.42
496.38	23922.62
496.55	23967.09
496.73	24435.19
496.91	24098.16
497.09	24315.83
497.26	24613.07
497.44	24655.20
497.62	24821.38
497.79	24919.68
497.97	24987.56
498.14	25081.18
498.32	24957.13
498.50	25474.39
498.67	26026.76
498.85	25373.75
499.03	25713.13
499.20	26001.01
499.38	25809.09
499.56	26094.63
499.73	26057.18
499.91	25991.65
500.08	26455.08
500.26	25825.47
500.44	26548.70
500.61	26368.48
500.79	26403.58
500.97	26356.77
501.14	26780.41
501.32	26787.43
501.49	26698.49
501.67	26752.32
501.84	27075.32
502.02	27131.49
502.20	27152.55
502.37	27194.68
502.55	27405.33
502.72	27517.68
502.90	27475.55
503.07	27641.73
503.25	27833.65
503.43	27653.43
503.60	27946.00
503.78	27728.33
503.95	27871.10
504.13	27725.99
504.30	27941.32
504.48	28114.52
504.65	28332.18
504.83	28566.24
505.01	28814.34
505.18	28383.68
505.36	28938.38
505.53	28428.15
505.71	29333.93
505.88	29465.00
506.06	29085.84
506.23	29483.73
506.41	29024.98
506.58	29495.43
506.76	29544.58
506.93	29862.90
507.11	29680.33
507.28	29715.44
507.46	29427.56
507.63	29769.27
507.81	29916.73
507.98	29963.54
508.16	29928.43
508.33	30293.55
508.50	30305.26
508.68	30185.89
508.85	30656.34
509.03	30590.80
509.20	30579.10
509.38	31009.76
509.55	30850.60
509.73	30993.37
509.90	30785.07
510.08	30738.26
510.25	30876.35
510.42	31232.11
510.60	31094.02
510.77	31161.89
510.95	31604.25
511.12	31461.48
511.30	31608.93
511.47	31850.01
511.64	31927.25
511.82	32009.17
511.99	32018.53
512.17	31992.78
512.34	31564.46
512.51	32144.92
512.69	32180.03
512.86	32594.30
513.04	32463.23
513.21	32453.87
513.38	32435.14
513.56	32540.47
513.73	32091.09
513.90	32760.48
514.08	32432.80
514.25	32964.10
514.43	32765.16
514.60	32645.79
514.77	32992.19
514.95	33558.60
515.12	33186.46
515.29	33509.45
515.47	33500.09
515.64	34110.97
515.81	33338.59
515.99	33537.54
516.16	33362.00
516.33	33532.86
516.51	33383.06
516.68	32716.01
516.85	33085.81
517.03	33474.34
517.20	33577.33
517.37	33764.57
517.54	34003.30
517.72	33855.85
517.89	33862.87
518.06	33804.36
518.24	33790.31
518.41	33860.53
518.58	34132.03
518.75	33755.21
518.93	34553.33
519.10	34391.83
519.27	34494.82
519.45	34799.08
519.62	35049.52
519.79	35299.96
519.96	34855.26
520.14	35314.00
520.31	34775.68
520.48	35154.85
520.65	34953.56
520.83	35512.95
521.00	35278.89
521.17	35660.40
521.34	35737.64
521.52	35658.06
521.69	35887.43
521.86	35765.73
522.03	35885.09
522.20	35854.67
522.38	36147.23
522.55	36205.75
522.72	36121.49
522.89	36013.82
523.07	36285.33
523.24	36224.47
523.41	36486.61
523.58	36041.91
523.75	36737.05
523.92	36666.83
524.10	36772.16
524.27	36779.18
524.44	37071.75
524.61	36999.19
524.78	36921.95
524.96	37200.47
525.13	37296.44
525.30	37371.33
525.47	37247.29
525.64	37146.64
525.81	37696.67
525.98	37481.34
526.16	36973.44
526.33	37046.00
526.50	37273.03
526.67	37249.63
526.84	37411.12
527.01	37036.64
527.18	37764.54
527.36	37869.87
527.53	37748.16
527.70	38052.43
527.87	38000.94
528.04	37720.07
528.21	37841.78
528.38	37806.67
528.55	38700.76
528.72	38321.59
528.89	38665.65
529.07	38501.81
529.24	38359.04
529.41	38307.55
529.58	37991.58
529.75	38260.74
529.92	38644.59
530.09	38878.64
530.26	38244.35
530.43	38646.93
530.60	38515.86
530.77	38705.44
530.94	39044.82
531.11	38742.89
531.28	39089.29
531.46	39215.68
531.63	39557.39
531.80	39573.78
531.97	39100.99
532.14	39117.37
532.31	38927.79
532.48	39201.63
532.65	39597.18
532.82	39126.74
532.99	39833.58
533.16	38951.20
533.33	39789.11
533.50	39702.51
533.67	39763.36
533.84	39803.15
534.01	39922.52
534.18	40002.10
534.35	40252.53
534.52	39775.06
534.69	39615.91
534.86	40264.24
535.03	39971.67
535.20	40109.76
535.37	40196.36
535.54	40306.37
535.71	40240.83
535.88	40463.18
536.05	40392.97
536.22	40252.53
536.38	40123.80
536.55	40353.18
536.72	40519.35
536.89	40556.80
537.06	40140.19
537.23	40807.24
537.40	40814.26
537.57	41013.21
537.74	40507.65
537.91	41195.77
538.08	41097.47
538.25	40498.29
538.42	40811.92
538.59	41308.11
538.75	40942.99
538.92	41308.11
539.09	41240.24
539.26	41469.61
539.43	40725.32
539.60	41249.60
539.77	40795.54
539.94	41198.11
540.11	40999.16
540.28	41591.32
540.44	41191.09
540.61	41338.54
540.78	41399.40
540.95	41088.10
541.12	41146.62
541.29	41584.30
541.46	41230.88
541.62	41888.57
541.79	42139.00
541.96	41593.66
542.13	41724.73
542.30	42092.19
542.47	41415.78
542.63	41830.05
542.80	42391.78
542.97	42429.23
543.14	42370.72
543.31	42204.54
543.48	42321.57
543.64	42951.17
543.81	42354.33
543.98	42682.01
544.15	42686.69
544.32	42878.61
544.48	42876.27
544.65	42412.85
544.82	42955.85
544.99	42380.08
545.16	43075.22
545.32	42583.71
545.49	42822.44
545.66	43063.52
545.83	42862.23
546.00	43730.57
546.16	43012.02
546.33	42614.13
546.50	42426.89
546.67	42934.79
546.83	42747.54
547.00	43065.86
547.17	42925.42
547.34	43056.50
547.50	42981.60
547.67	43234.38
547.84	43199.27
548.00	43676.74
548.17	43405.23
548.34	43173.52
548.51	43866.32
548.67	43276.51
548.84	43901.43
549.01	43482.47
549.18	43578.43
549.34	43835.89
549.51	43416.94
549.68	43562.05
549.84	43482.47
550.01	43824.19
550.18	44121.44
550.34	43583.12
550.51	43739.93
550.68	43789.08
550.84	43540.99
551.01	44224.42
551.18	43910.79
551.34	43976.33
551.51	44032.50
551.68	44151.87
551.84	43702.48
552.01	43643.97
552.18	43878.02
552.34	43445.02
552.51	44058.24
552.68	43892.07
552.84	44399.96
553.01	44626.99
553.18	44449.11
553.34	44105.06
553.51	44313.36
553.67	44294.64
553.84	44554.44
554.01	44470.18
554.17	44882.11
554.34	44650.40
554.51	44636.36
554.67	44657.42
554.84	44280.60
555.00	44804.88
555.17	44500.61
555.33	44849.35
555.50	44594.23
555.67	44451.45
555.83	44711.25
556.00	44786.15
556.16	45251.92
556.33	44870.41
556.50	44828.28
556.66	44912.54
556.83	44816.58
556.99	45148.93
557.16	44821.26
557.32	45146.59
557.49	44685.51
557.65	44786.15
557.82	44858.71
557.98	44634.02
558.15	44900.84
558.32	45186.38
558.48	44971.05
558.65	45418.10
558.81	44619.97
558.98	45010.84
559.14	44828.28
559.31	44837.64
559.47	45488.31
559.64	45294.05
559.80	45237.87
559.97	45574.91
560.13	45118.51
560.30	44896.16
560.46	45263.62
560.63	45219.15
560.79	45324.47
560.96	45280.00
561.12	45373.63
561.29	45095.10
561.45	45579.59
561.61	45305.75
561.78	45364.26
561.94	45130.21
562.11	45436.82
562.27	45478.95
562.44	45123.19
562.60	45827.69
562.77	45579.59
562.93	45673.21
563.10	45893.22
563.26	44980.42
563.42	45549.17
563.59	45186.38
563.75	45198.09
563.92	46064.08
564.08	45511.72
564.24	45649.81
564.41	45780.88
564.57	45853.44
564.74	45619.38
564.90	45516.40
565.07	45495.33
565.23	45886.20
565.39	45720.02
565.56	45853.44
565.72	45329.16
565.88	45549.17
566.05	45413.41
566.21	45675.55
566.38	45511.72
566.54	46005.57
566.70	45914.29
566.87	45820.67
567.03	45956.42
567.19	46204.52
567.36	45890.88
567.52	46050.04
567.68	45930.67
567.85	46000.89
568.01	45755.13
568.17	45825.35
568.34	45991.53
568.50	45680.24
568.66	45661.51
568.83	45975.14
568.99	45394.69
569.15	45837.05
569.32	45511.72
569.48	45586.61
569.64	46244.30
569.81	46183.45
569.97	45441.50
570.13	45848.75
570.30	45900.25
570.46	45406.39
570.62	45883.86
570.78	45731.73
570.95	45895.56
571.11	45954.08
571.27	45748.11
571.43	45815.99
571.60	46078.13
571.76	45848.75
571.92	45928.33
572.09	45727.05
572.25	45703.64
572.41	45949.40
572.57	45942.38
572.74	46677.30
572.90	46094.51
573.06	46377.72
573.22	46045.36
573.38	45958.76
573.55	45914.29
573.71	46258.35
573.87	45610.02
574.03	45825.35
574.20	46312.18
574.36	45722.37
574.52	46120.26
574.68	46206.86
574.84	46183.45
575.01	46370.69
575.17	45808.96
575.33	45888.54
575.49	45677.90
575.65	46349.63
575.82	46272.39
575.98	45736.41
576.14	46309.84
576.30	46340.27
576.46	46033.66
576.62	46340.27
576.79	46267.71
576.95	45193.40
577.11	45668.53
577.27	46164.73
577.43	45815.99
577.59	46174.09
577.75	46274.73
577.92	45673.21
578.08	46010.25
578.24	45502.35
578.40	46061.74
578.56	46227.92
578.72	46167.07
578.88	46169.41
579.04	46209.20
579.21	46265.37
579.37	46059.40
579.53	46148.34
579.69	46129.62
579.85	46340.27
580.01	46344.95
580.17	46178.77
580.33	46136.64
580.49	46218.56
580.65	46483.04
580.82	45993.87
580.98	46185.79
581.14	45989.19
581.30	46019.61
581.46	46408.14
581.62	46323.88
581.78	46246.65
581.94	46295.80
582.10	45862.80
582.26	46492.40
582.42	46206.86
582.58	46466.66
582.74	46248.99
582.90	46408.14
583.06	46431.55
583.22	46047.70
583.38	46576.66
583.54	46859.87
583.70	46349.63
583.86	46293.46
584.02	46162.39
584.18	46412.82
584.34	46375.37
584.50	46337.93
584.66	46117.92
584.82	46033.66
584.98	46476.02
585.14	46387.08
585.30	46321.54
585.46	46403.46
585.62	45741.09
585.78	45790.24
585.94	46061.74
586.10	45804.28
586.26	46146.00
586.42	46630.49
586.58	46040.68
586.74	46295.80
586.90	46181.11
587.06	46153.02
587.22	46426.87
587.38	45993.87
587.54	46728.80
587.70	46396.44
587.86	46078.13
588.02	46370.69
588.18	46368.35
588.34	46220.90
588.49	46064.08
588.65	45773.86
588.81	45858.12
588.97	45954.08
589.13	46000.89
589.29	45979.82
589.45	45954.08
589.61	46461.97
589.77	46562.62
589.93	46344.95
590.08	46483.04
590.24	46263.03
590.40	46637.51
590.56	46689.01
590.72	46410.48
590.88	46326.22
591.04	46260.69
591.20	46810.71
591.35	46532.19
591.51	46890.29
591.67	46478.36
591.83	46487.72
591.99	46082.81
592.15	46368.35
592.31	46291.12
592.46	46220.90
592.62	46614.11
592.78	46562.62
592.94	46703.05
593.10	46045.36
593.26	46541.55
593.41	46759.22
593.57	46602.41
593.73	46218.56
593.89	46316.86
594.05	46227.92
594.20	46586.02
594.36	46836.46
594.52	46422.19
594.68	46220.90
594.84	46679.64
594.99	46848.16
595.15	46941.78
595.31	46361.33
595.47	46611.77
595.62	46377.72
595.78	46354.31
595.94	46639.86
596.10	46890.29
596.25	46574.32
596.41	46361.33
596.57	46930.08
596.73	46820.08
596.88	46513.47
597.04	46824.76
597.20	46548.57
597.36	46361.33
597.51	46628.15
597.67	46520.49
597.83	46405.80
597.99	46780.29
598.14	46417.50
598.30	46602.41
598.46	46258.35
598.61	46632.83
598.77	46274.73
598.93	46534.53
599.09	46380.06
599.24	47061.15
599.40	46728.80
599.56	46405.80
599.71	46256.01
599.87	46522.83
600.03	46696.03
600.18	46518.15
600.34	46337.93
600.50	46904.34
600.65	46347.29
600.81	46850.50
600.97	46876.25
601.12	47056.47
601.28	46827.10
601.44	46279.41
601.59	46326.22
601.75	46492.40
601.91	46567.30
602.06	46438.57
602.22	46880.93
602.37	46347.29
602.53	46550.91
602.69	46569.64
602.84	46876.25
603.00	46291.12
603.16	46204.52
603.31	46691.35
603.47	46305.16
603.62	46382.40
603.78	46291.12
603.94	46309.84
604.09	46738.16
604.25	46775.61
604.40	46670.28
604.56	46190.47
604.71	46534.53
604.87	46160.05
605.03	46845.82
605.18	46043.02
605.34	46361.33
605.49	45986.85
605.65	46351.97
605.80	46473.68
605.96	46742.84
606.12	46925.40
606.27	46614.11
606.43	46700.71
606.58	46487.72
606.74	46314.52
606.89	46553.26
607.05	46396.44
607.20	46401.12
607.36	46302.82
607.51	46700.71
607.67	46476.02
607.82	45963.44
607.98	46171.75
608.13	46183.45
608.29	45724.71
608.44	45509.38
608.60	45570.23
608.75	45930.67
608.91	45705.98
609.06	46354.31
609.22	46307.50
609.37	45773.86
609.53	46375.37
609.68	46192.81
609.84	45982.16
609.99	46000.89
610.15	46326.22
610.30	46300.48
610.46	45839.39
610.61	45942.38
610.76	45942.38
610.92	46106.21
611.07	45605.34
611.23	45979.82
611.38	45783.22
611.54	45930.67
611.69	45951.74
611.84	45464.91
612.00	45525.76
612.15	45661.51
612.31	46047.70
612.46	46054.72
612.62	45872.16
612.77	45691.94
612.92	45661.51
613.08	45593.64
613.23	45734.07
613.39	45219.15
613.54	45727.05
613.69	45151.27
613.85	45628.74
614.00	45436.82
614.15	45841.73
614.31	45705.98
614.46	45797.26
614.62	45523.42
614.77	45478.95
614.92	45368.94
615.08	45247.24
615.23	45394.69
615.38	45387.67
615.54	44938.29
615.69	45411.07
615.84	44790.83
616.00	45237.87
616.15	45343.20
616.30	45209.79
616.46	45085.74
616.61	44655.08
616.76	45202.77
616.92	44900.84
617.07	44973.39
617.22	45106.80
617.37	44914.88
617.53	45397.03
617.68	45378.31
617.83	45153.62
617.99	45085.74
618.14	45134.89
618.29	44519.33
618.45	44664.44
618.60	44931.26
618.75	44928.92
618.90	44877.43
619.06	44907.86
619.21	44863.39
619.36	45120.85
619.51	45085.74
619.67	44793.17
619.82	45055.31
619.97	45083.40
620.12	44247.83
620.28	44353.15
620.43	44355.49
620.58	44765.09
620.73	44629.34
620.89	44549.76
621.04	44968.71
621.19	44114.42
621.34	44343.79
621.49	44184.63
621.65	43938.88
621.80	44105.06
621.95	43995.05
622.10	43973.98
622.25	44484.22
622.41	43831.21
622.56	44130.80
622.71	44528.69
622.86	43718.87
623.01	44350.81
623.16	44341.45
623.32	44224.42
623.47	44814.24
623.62	44308.68
623.77	43430.98
623.92	43653.33
624.07	43812.49
624.23	43941.22
624.38	43466.09
624.53	43779.72
624.68	43725.89
624.83	44154.21
624.98	44018.46
625.13	43585.46
625.29	44163.57
625.44	43571.41
625.59	43716.53
625.74	43531.62
625.89	43393.53
626.04	43318.64
626.19	43695.46
626.34	43248.42
626.49	43269.48
626.65	43906.11
626.80	43629.93
626.95	43374.81
627.10	43452.05
627.25	43281.19
627.40	43157.14
627.55	42696.05
627.70	42532.22
627.85	42895.00
628.00	43222.67
628.15	43285.87
628.30	42913.72
628.45	43150.12
628.60	43119.69
628.76	43005.00
628.91	43182.88
629.06	43173.52
629.21	43042.45
629.36	42630.52
629.51	42651.58
629.66	42911.38
629.81	42609.45
629.96	42686.69
630.11	42974.58
630.26	42642.22
630.41	42927.77
630.56	42799.04
630.71	42384.76
630.86	42784.99
631.01	42859.89
631.16	42410.51
631.31	42492.43
631.46	41680.26
631.61	42745.20
631.76	42232.63
631.91	42787.33
632.06	43058.84
632.21	42281.78
632.36	43033.09
632.51	42424.55
632.66	42380.08
632.81	41846.44
632.96	42576.69
633.10	41951.76
633.25	41963.46
633.40	42139.00
633.55	42686.69
633.70	42347.31
633.85	41963.46
634.00	41900.27
634.15	41895.59
634.30	42005.59
634.45	42124.96
634.60	42162.41
634.75	42150.71
634.90	42082.83
635.05	41769.20
635.19	42017.30
635.34	41986.87
635.49	41968.15
635.64	41787.92
635.79	41663.88
635.94	41734.09
636.09	41794.95
636.24	41874.52
636.39	41684.94
636.53	41691.96
636.68	41338.54
636.83	41748.14
636.98	41968.15
637.13	40999.16
637.28	41521.10
637.43	41855.80
637.57	41865.16
637.72	41848.78
637.87	41942.40
638.02	41741.11
638.17	41455.57
638.32	41036.61
638.46	41036.61
638.61	41226.20
638.76	41221.52
638.91	41284.71
639.06	41006.19
639.20	41336.20
639.35	41404.08
639.50	41050.66
639.65	41574.94
639.80	41481.31
639.94	40896.18
640.09	40847.03
640.24	41024.91
640.39	40809.58
640.54	40425.73
640.68	40612.98
640.83	40942.99
640.98	40409.35
641.13	40449.14
641.27	40832.99
641.42	40378.92
641.57	40900.86
641.72	40514.67
641.86	40521.69
642.01	40360.20
642.16	40119.12
642.31	40091.04
642.45	40432.75
642.60	40168.27
642.75	40254.87
642.90	40582.55
643.04	40554.46
643.19	40608.29
643.34	40788.52
643.48	40231.47
643.63	40678.51
643.78	40453.82
643.93	40430.41
644.07	39871.03
644.22	39695.49
644.37	40069.97
644.51	39730.59
644.66	40364.88
644.81	40051.25
644.95	40657.45
645.10	39981.03
645.25	40376.58
645.39	40568.51
645.54	40210.40
645.69	40034.86
645.83	39735.27
645.98	40137.85
646.13	39934.22
646.27	39927.20
646.42	39662.72
646.57	39833.58
646.71	39714.21
646.86	40259.55
647.00	39878.05
647.15	39566.76
647.30	39716.55
647.44	39615.91
647.59	39730.59
647.74	39157.16
647.88	39426.32
648.03	39676.76
648.17	39318.66
648.32	39016.73
648.47	39660.38
648.61	39526.97
648.76	39871.03
648.90	39517.60
649.05	39751.66
649.20	39878.05
649.34	39536.33
649.49	39299.94
649.63	39447.39
649.78	39489.52
649.92	39606.55
650.07	39545.69
650.21	39033.11
650.36	39274.19
650.51	39248.44
650.65	39381.85
650.80	39297.59
650.94	39541.01
651.09	39126.74
651.23	39180.57
651.38	39103.33
651.52	38752.25
651.67	38824.81
651.81	39412.28
651.96	38967.58
652.10	39042.48
652.25	38731.18
652.39	38925.45
652.54	39131.42
652.68	39257.81
652.83	39325.68
652.97	39143.12
653.12	38658.63
653.26	38965.24
653.41	38560.33
653.55	38759.27
653.70	38014.98
653.84	38447.98
653.99	38679.69
654.13	38462.02
654.27	38806.08
654.42	38600.12
654.56	38401.17
654.71	38649.27
654.85	38431.60
655.00	38321.59
655.14	38270.10
655.29	37790.29
655.43	37766.88
655.57	37759.86
655.72	37699.01
655.86	37965.83
656.01	37589.00
656.15	37668.58
656.30	37605.39
656.44	38298.19
656.58	37673.26
656.73	37823.06
656.87	38171.80
657.01	37198.13
657.16	37731.78
657.30	37598.37
657.45	37565.60
657.59	37619.43
657.73	37663.90
657.88	37691.99
658.02	37074.09
658.16	37347.93
658.31	37996.26
658.45	37603.05
658.60	37926.04
658.74	37141.96
658.88	37694.33
659.03	37558.58
659.17	37191.11
659.31	37507.08
659.46	37317.50
659.60	37429.85
659.74	37563.26
659.89	36669.17
660.03	36671.51
660.17	37237.92
660.32	37226.22
660.46	37383.04
660.60	37563.26
660.74	37095.15
660.89	37067.06
661.03	36634.06
661.17	36715.98
661.32	36605.98
661.46	37127.92
661.60	36643.43
661.74	36514.70
661.89	36788.54
662.03	36261.92
662.17	36528.74
662.31	36133.19
662.46	36753.43
662.60	36407.03
662.74	36517.04
662.88	36233.83
663.03	36348.52
663.17	36170.64
663.31	36002.12
663.45	36449.16
663.60	36287.67
663.74	35667.42
663.88	35985.74
664.02	35775.09
664.17	35667.42
664.31	35988.08
664.45	35782.11
664.59	35810.20
664.73	35681.47
664.88	35716.58
665.02	35431.03
665.16	35468.48
665.30	35227.40
665.44	35817.22
665.59	35241.45
665.73	35264.85
665.87	35199.32
666.01	34932.50
666.15	34920.79
666.29	35054.20
666.44	35150.17
666.58	35042.50
666.72	34838.87
666.86	35047.18
667.00	35339.75
667.14	34609.50
667.28	34464.39
667.43	34639.93
667.57	34558.01
667.71	34359.06
667.85	34539.29
667.99	34469.07
668.13	34022.03
668.27	34281.83
668.41	34375.45
668.56	34061.82
668.70	34611.84
668.84	33909.68
668.98	33928.41
669.12	34239.70
669.26	34621.20
669.40	33893.30
669.54	33893.30
669.68	33617.11
669.82	33729.46
669.96	33851.17
670.10	33193.48
670.25	33677.97
670.39	33612.43
670.53	33179.43
670.67	33029.64
670.81	33507.11
670.95	33511.79
671.09	33589.03
671.23	33329.23
671.37	33467.32
671.51	33137.30
671.65	33057.73
671.79	32765.16
671.93	33099.86
672.07	33020.28
672.21	32783.88
672.35	32542.81
672.49	32006.83
672.63	32795.59
672.77	33010.92
672.91	32215.13
673.05	32439.82
673.19	32477.27
673.33	32252.58
673.47	31899.16
673.61	32093.43
673.75	32437.48
673.89	31552.76
674.03	31775.11
674.17	31782.13
674.31	31620.64
674.45	31922.57
674.59	31487.23
674.73	31548.08
674.87	31646.38
675.01	31955.33
675.15	31585.53
675.29	31695.53
675.43	31508.29
675.56	31257.85
675.70	31264.88
675.84	30824.86
675.98	29893.32
676.12	30551.01
676.26	30569.74
676.40	30710.17
676.54	30551.01
676.68	30548.67
676.82	30103.97
676.96	30579.10
677.10	29926.09
677.23	30213.98
677.37	29982.26
677.51	29944.81
677.65	29958.86
677.79	29525.86
677.93	29680.33
678.07	29467.34
678.21	29266.06
678.34	29549.26
678.48	29528.20
678.62	29530.54
678.76	29099.88
678.90	29242.65
679.04	29055.41
679.18	29172.44
679.31	28285.37
679.45	29113.92
679.59	28353.25
679.73	28744.12
679.87	28386.02
680.00	28336.87
680.14	28292.40
680.28	28254.95
680.42	28500.70
680.56	28156.64
680.70	28079.41
680.83	27861.74
680.97	27723.65
681.11	27599.60
681.25	27782.16
681.39	27447.46
681.52	27328.10
681.66	27550.45
681.80	27601.94
681.94	27370.22
682.07	27332.78
682.21	27131.49
682.35	26740.62
682.49	26857.65
682.62	27077.66
682.76	26382.52
682.90	26759.34
683.04	26686.79
683.17	26499.55
683.31	26244.43
683.45	26590.83
683.59	26015.05
683.72	25905.05
683.86	25930.80
684.00	25916.75
684.13	26068.89
684.27	26064.21
684.41	25710.78
684.55	25404.17
684.68	25500.14
684.82	25436.94
684.96	25387.79
685.09	25371.41
685.23	25212.25
685.37	24842.45
685.50	25146.72
685.64	24877.55
685.78	24828.40
685.91	24702.01
686.05	24996.92
686.19	24584.99
686.32	24467.96
686.46	24173.05
686.60	23529.41
686.73	23999.85
686.87	23580.90
687.01	23491.96
687.14	23449.83
687.28	23428.76
687.42	23587.92
687.55	23073.00
687.69	23255.56
687.82	23124.49
687.96	23379.61
688.10	22895.12
688.23	23318.76
688.37	22836.61
688.50	22693.83
688.64	22581.49
688.78	23080.02
688.91	22628.30
689.05	22909.16
689.18	22492.55
689.32	22274.88
689.46	22057.21
689.59	22623.62
689.73	22672.77
689.86	22239.77
690.00	22052.53
690.13	22356.80
690.27	22143.81
690.41	21982.31
690.54	21535.27
690.68	21792.73
690.81	21331.64
690.95	21376.11
691.08	21500.16
691.22	21535.27
691.35	21270.79
691.49	21209.93
691.62	21043.76
691.76	21350.37
691.89	21338.66
692.03	20985.24
692.16	21041.42
692.30	20954.82
692.43	20582.67
692.57	20465.64
692.70	20535.86
692.84	20968.86
692.97	20549.90
693.11	20210.53
693.24	20144.99
693.38	19927.32
693.51	19843.06
693.65	19899.23
693.78	20056.05
693.92	19723.69
694.05	19754.12
694.19	19648.80
694.32	19534.11
694.45	19697.95
694.59	19573.90
694.72	19236.86
694.86	19215.80
694.99	18916.21
695.13	19108.13
695.26	18553.43
695.39	18689.18
695.53	18965.36
695.66	18740.67
695.80	18728.97
695.93	18506.62
696.07	18401.29
696.20	18513.64
696.33	18443.42
696.47	18387.25
696.60	18562.79
696.73	18480.87
696.87	18279.58
697.00	18033.83
697.14	18078.30
697.27	17825.52
697.40	18094.68
697.54	17797.43
697.67	17453.37
697.80	17991.70
697.94	17392.52
698.07	17467.42
698.21	17404.22
698.34	17041.44
698.47	17270.81
698.61	16903.35
698.74	17216.98
698.87	17027.40
699.01	16570.99
699.14	16580.36
699.27	16699.72
699.40	16685.68
699.54	16460.99
699.67	16482.05
699.80	16484.39
699.94	16292.47
700.07	16374.39
700.20	16250.34
700.34	16042.03
700.47	16042.03
700.60	16058.42
700.73	16119.27
700.87	16161.40
701.00	15807.98
701.13	15833.72
701.26	15833.72
701.40	15747.12
701.53	15501.37
701.66	15751.81
701.79	15257.95
701.93	15293.06
702.06	15016.88
702.19	14958.36
702.32	15194.76
702.46	15044.96
702.59	15075.39
702.72	15187.74
702.85	14916.23
702.99	15133.90
703.12	14909.21
703.25	14981.77
703.38	14738.35
703.51	14785.16
703.65	14801.55
703.78	14649.41
703.91	14452.81
704.04	14263.22
704.17	14340.46
704.31	14251.52
704.44	14050.24
704.57	14022.15
704.70	13764.69
704.83	13872.36
704.96	14326.42
705.10	14143.86
705.23	14026.83
>>>>>End Processed Spectral Data<<<<<
