SpectraSuite Data File
++++++++++++++++++++++++++++++++++++
Date: Fri Oct 25 10:43:18 EDT 2013
User: price-jones
Dark Spectrum Present: No
Reference Spectrum Present: No
Number of Sampled Component Spectra: 1
Spectrometers: USB2+H05261
Integration Time (usec): 100000 (USB2+H05261)
Spectra Averaged: 1 (USB2+H05261)
Boxcar Smoothing: 0 (USB2+H05261)
Correct for Electrical Dark: No (USB2+H05261)
Strobe/Lamp Enabled: No (USB2+H05261)
Correct for Detector Non-linearity: No (USB2+H05261)
Correct for Stray Light: No (USB2+H05261)
Number of Pixels in Processed Spectrum: 2048
>>>>>Begin Processed Spectral Data<<<<<
365.73	131.07
365.92	131.07
366.12	131.07
366.32	46.81
366.52	7.02
366.72	84.26
366.91	42.13
367.11	56.17
367.31	37.45
367.51	42.13
367.70	39.79
367.90	25.75
368.10	0.00
368.30	0.00
368.49	0.00
368.69	51.49
368.89	16.38
369.09	44.47
369.28	77.24
369.48	39.79
369.68	58.51
369.87	117.03
370.07	105.32
370.27	79.58
370.47	152.13
370.66	369.80
370.86	463.43
371.06	493.85
371.25	430.66
371.45	442.36
371.65	461.09
371.84	400.23
372.04	437.68
372.24	395.55
372.44	498.53
372.63	550.03
372.83	489.17
373.03	444.70
373.22	514.92
373.42	526.62
373.62	550.03
373.81	461.09
374.01	505.56
374.21	519.60
374.40	540.66
374.60	578.11
374.79	547.69
374.99	545.34
375.19	592.16
375.38	559.39
375.58	566.41
375.78	667.05
375.97	643.65
376.17	638.97
376.37	543.00
376.56	627.26
376.76	578.11
376.95	648.33
377.15	585.13
377.35	589.82
377.54	681.10
377.74	629.60
377.93	585.13
378.13	634.29
378.33	657.69
378.52	634.29
378.72	688.12
378.91	617.90
379.11	711.52
379.31	653.01
379.50	624.92
379.70	622.58
379.89	636.63
380.09	678.76
380.28	573.43
380.48	711.52
380.68	608.54
380.87	636.63
381.07	685.78
381.26	713.86
381.46	617.90
381.65	723.23
381.85	676.41
382.04	770.04
382.24	688.12
382.43	739.61
382.63	690.46
382.83	690.46
383.02	730.25
383.22	685.78
383.41	655.35
383.61	648.33
383.80	655.35
384.00	833.23
384.19	720.88
384.39	781.74
384.58	875.36
384.78	788.76
384.97	802.80
385.17	737.27
385.36	858.98
385.56	779.40
385.75	753.65
385.95	840.25
386.14	828.55
386.34	873.02
386.53	849.61
386.72	851.96
386.92	823.87
387.11	819.19
387.31	917.49
387.50	812.17
387.70	847.27
387.89	851.96
388.09	887.06
388.28	851.96
388.48	870.68
388.67	917.49
388.86	858.98
389.06	887.06
389.25	940.90
389.45	901.11
389.64	896.43
389.84	997.07
390.03	1029.84
390.22	903.45
390.42	1006.43
390.61	1071.97
390.81	908.13
391.00	1078.99
391.19	1055.58
391.39	1095.37
391.58	1083.67
391.78	1025.15
391.97	1069.62
392.16	1109.41
392.36	1114.10
392.55	1020.47
392.75	1057.92
392.94	891.74
393.13	961.96
393.33	994.73
393.52	1015.79
393.71	1123.46
393.91	1151.54
394.10	1128.14
394.29	1163.25
394.49	1196.01
394.68	1214.74
394.88	1109.41
395.07	1217.08
395.26	1291.98
395.46	1212.40
395.65	1256.87
395.84	1104.73
396.04	1233.46
396.23	1196.01
396.42	1139.84
396.62	1174.95
396.81	1245.16
397.00	1191.33
397.19	1224.10
397.39	1331.76
397.58	1322.40
397.77	1420.71
397.97	1322.40
398.16	1413.68
398.35	1427.73
398.55	1493.26
398.74	1472.20
398.93	1650.08
399.12	1547.09
399.32	1521.35
399.51	1378.58
399.70	1638.38
399.90	1507.30
400.09	1493.26
400.28	1547.09
400.47	1533.05
400.67	1603.27
400.86	1586.88
401.05	1600.93
401.24	1636.03
401.44	1734.34
401.63	1696.89
401.82	1605.61
402.01	1643.06
402.21	1727.32
402.40	1727.32
402.59	1692.21
402.78	1799.87
402.97	1741.36
403.17	1811.57
403.36	1724.97
403.55	1863.07
403.74	1900.52
403.93	1872.43
404.13	1923.92
404.32	1846.68
404.51	1818.60
404.70	1930.94
404.89	1842.00
405.09	1928.60
405.28	1935.62
405.47	1942.64
405.66	1921.58
405.85	2008.18
406.05	1909.88
406.24	1982.43
406.43	1994.14
406.62	2150.95
406.81	2097.12
407.00	2008.18
407.20	1963.71
407.39	2015.20
407.58	2150.95
407.77	2136.91
407.96	2186.06
408.15	2275.00
408.34	2289.04
408.54	2225.85
408.73	2183.72
408.92	2260.96
409.11	2328.83
409.30	2183.72
409.49	2221.17
409.68	2394.37
409.87	2352.24
410.07	2359.26
410.26	2385.01
410.45	2480.97
410.64	2392.03
410.83	2555.86
411.02	2523.10
411.21	2429.48
411.40	2518.42
411.59	2537.14
411.78	2609.70
411.98	2527.78
412.17	2583.95
412.36	2626.08
412.55	2640.12
412.74	2668.21
412.93	2782.90
413.12	2726.72
413.31	2789.92
413.50	2750.13
413.69	2860.13
413.88	2942.05
414.07	2874.18
414.26	2832.05
414.45	3038.02
414.64	2998.23
414.83	2991.20
415.02	2944.39
415.22	3028.65
415.41	3068.44
415.60	3155.04
415.79	3239.30
415.98	3241.64
416.17	3279.09
416.36	3208.87
416.55	3325.90
416.74	3274.41
416.93	3201.85
417.12	3314.20
417.31	3267.39
417.50	3302.50
417.69	3389.10
417.88	3463.99
418.07	3435.91
418.26	3344.63
418.45	3445.27
418.64	3531.87
418.83	3524.85
419.02	3517.83
419.21	3559.95
419.39	3536.55
419.58	3536.55
419.77	3531.87
419.96	3515.48
420.15	3655.92
420.34	3676.98
420.53	3644.21
420.72	3798.69
420.91	3847.84
421.10	3798.69
421.29	3737.84
421.48	3798.69
421.67	3838.48
421.86	3737.84
422.05	3742.52
422.24	3641.87
422.43	3812.73
422.61	3700.39
422.80	3911.04
422.99	3955.51
423.18	3875.93
423.37	3815.07
423.56	3889.97
423.75	3789.33
423.94	3681.66
424.13	3566.98
424.32	3644.21
424.50	3934.44
424.69	3927.42
424.88	3927.42
425.07	3957.85
425.26	3939.12
425.45	3918.06
425.64	3894.65
425.83	3911.04
426.01	3913.38
426.20	3946.14
426.39	3981.25
426.58	3882.95
426.77	3880.61
426.96	3943.80
427.15	3971.89
427.33	4077.21
427.52	3997.64
427.71	4135.73
427.90	4067.85
428.09	4084.23
428.28	4086.58
428.46	3992.95
428.65	4121.68
428.84	4208.28
429.03	4138.07
429.22	4170.83
429.40	4149.77
429.59	4159.13
429.78	3925.08
429.97	3854.86
430.16	3843.16
430.34	4056.15
430.53	4051.47
430.72	4028.06
430.91	4219.99
431.10	4189.56
431.28	4353.40
431.47	4587.45
431.66	4645.96
431.85	4440.00
432.03	4451.70
432.22	4547.66
432.41	4732.56
432.60	4557.02
432.79	4559.36
432.97	4643.62
433.16	4807.46
433.35	4727.88
433.54	4437.66
433.72	4554.68
433.91	4589.79
434.10	4727.88
434.28	4695.11
434.47	4830.87
434.66	4814.48
434.85	4905.76
435.03	5060.24
435.22	4854.27
435.41	5071.94
435.59	4905.76
435.78	4975.98
435.97	5149.18
436.16	5128.11
436.34	5046.20
436.53	5011.09
436.72	5043.85
436.90	5067.26
437.09	5060.24
437.28	4880.02
437.46	5174.92
437.65	5130.45
437.84	5137.48
438.02	5083.64
438.21	5083.64
438.40	5022.79
438.58	5291.95
438.77	5329.40
438.96	5343.44
439.14	5521.32
439.33	5682.82
439.52	5631.33
439.70	5530.69
439.89	5804.53
440.08	5528.35
440.26	5654.73
440.45	5526.00
440.63	5626.65
440.82	5951.98
441.01	5631.33
441.19	5881.77
441.38	5893.47
441.57	6141.57
441.75	6085.39
441.94	6108.80
442.12	6169.65
442.31	6263.27
442.50	6200.08
442.68	6179.01
442.87	6328.81
443.05	6200.08
443.24	6361.58
443.43	6303.06
443.61	6401.37
443.80	6630.74
443.98	6373.28
444.17	6209.44
444.35	6480.94
444.54	6616.69
444.73	6450.52
444.91	6408.39
445.10	6445.84
445.28	6333.49
445.47	6394.34
445.65	6401.37
445.84	6539.46
446.02	6607.33
446.21	6602.65
446.39	6502.01
446.58	6637.76
446.77	6544.14
446.95	6539.46
447.14	6593.29
447.32	6677.55
447.51	6656.48
447.69	6696.27
447.88	6682.23
448.06	6518.39
448.25	6473.92
448.43	6637.76
448.62	6499.67
448.80	6684.57
448.99	6782.87
449.17	6942.03
449.36	6855.43
449.54	6953.73
449.73	6878.83
449.91	7115.23
450.10	6981.82
450.28	7087.14
450.46	7227.57
450.65	7281.41
450.83	7005.22
451.02	6988.84
451.20	7002.88
451.39	7159.70
451.57	7063.74
451.76	7101.19
451.94	7073.10
452.13	7225.23
452.31	7185.44
452.49	7103.53
452.68	7059.06
452.86	7171.40
453.05	7103.53
453.23	7290.77
453.42	7243.96
453.60	7323.54
453.78	7461.63
453.97	7365.67
454.15	7239.28
454.34	7290.77
454.52	7433.54
454.70	7449.93
454.89	7534.18
455.07	7442.90
455.26	7466.31
455.44	7644.19
455.62	7728.45
455.81	7716.75
455.99	7630.15
456.17	7815.05
456.36	7665.25
456.54	7772.92
456.73	7768.24
456.91	8135.70
457.09	8053.78
457.28	8124.00
457.46	8032.72
457.64	7894.63
457.83	7892.29
458.01	7875.90
458.19	8271.45
458.38	8053.78
458.56	8280.82
458.74	8140.38
458.93	8133.36
459.11	8037.40
459.29	8177.83
459.48	8285.50
459.66	8248.05
459.84	8339.33
460.03	8486.78
460.21	8297.20
460.39	8454.02
460.57	8409.54
460.76	8400.18
460.94	8566.36
461.12	8465.72
461.31	8627.21
461.49	8503.17
461.67	8430.61
461.85	8648.28
462.04	8554.66
462.22	9135.11
462.40	8667.00
462.59	8702.11
462.77	8936.17
462.95	8755.94
463.13	8849.57
463.32	9004.04
463.50	8901.06
463.68	8816.80
463.86	9034.47
464.05	8877.65
464.23	8760.63
464.41	8830.84
464.59	8922.12
464.78	9006.38
464.96	8648.28
465.14	8872.97
465.32	9146.81
465.50	9074.26
465.69	9188.94
465.87	8971.27
466.05	8945.53
466.23	9135.11
466.41	9053.19
466.60	9123.41
466.78	8908.08
466.96	9104.68
467.14	9090.64
467.32	9233.41
467.51	9224.05
467.69	8985.32
467.87	9247.46
468.05	9404.27
468.23	9291.93
468.41	9205.33
468.60	9263.84
468.78	9605.56
468.96	9394.91
469.14	9640.67
469.32	9643.01
469.50	9631.30
469.69	9549.39
469.87	9603.22
470.05	9624.28
470.23	9689.82
470.41	9547.05
470.59	9914.51
470.77	9699.18
470.95	9748.33
471.14	9977.70
471.32	9832.59
471.50	10099.41
471.68	9975.36
471.86	10265.59
472.04	10047.92
472.22	10534.75
472.40	10087.71
472.58	10176.65
472.77	10230.48
472.95	10487.94
473.13	10654.12
473.31	10457.51
473.49	10331.12
473.67	10499.64
473.85	10356.87
474.03	10750.08
474.21	10827.32
474.39	10965.41
474.57	10717.31
474.75	10738.38
474.93	11154.99
475.12	11054.35
475.30	11159.67
475.48	11054.35
475.66	11176.06
475.84	11302.45
476.02	11262.66
476.20	11178.40
476.38	11548.20
476.56	11623.10
476.74	11389.05
476.92	11494.37
477.10	11611.40
477.28	11957.80
477.46	12056.10
477.64	11948.43
477.82	12226.96
478.00	12400.16
478.18	12402.50
478.36	12271.43
478.54	12505.48
478.72	12547.61
478.90	12786.35
479.08	12886.99
479.26	12917.42
479.44	13022.74
479.62	13280.20
479.80	13118.70
479.98	13411.27
480.16	13238.07
480.34	13408.93
480.52	13661.71
480.70	13502.55
480.88	13469.78
481.06	13860.65
481.24	13834.91
481.41	14113.43
481.59	14380.25
481.77	14291.31
481.95	14061.94
482.13	14319.40
482.31	14310.04
482.49	14686.86
482.67	14822.61
482.85	14904.53
483.03	14848.36
483.21	15084.75
483.39	15449.88
483.57	15468.60
483.74	15307.10
483.92	15578.61
484.10	15356.25
484.28	15714.36
484.46	15751.81
484.64	15892.24
484.82	15999.90
485.00	15836.06
485.18	16189.49
485.35	16432.90
485.53	16065.44
485.71	15943.73
485.89	16348.64
486.07	16175.44
486.25	16308.85
486.43	16622.48
486.61	16629.51
486.78	17018.04
486.96	17319.96
487.14	17343.37
487.32	17528.27
487.50	17888.71
487.68	17923.82
487.85	17907.44
488.03	18480.87
488.21	18384.91
488.39	18153.20
488.57	18445.76
488.75	18464.49
488.92	18726.63
489.10	19030.90
489.28	19211.12
489.46	19576.24
489.64	19538.79
489.81	19894.55
489.99	19564.54
490.17	19779.87
490.35	20142.65
490.53	20215.21
490.70	20297.13
490.88	20264.36
491.06	20416.49
491.24	20641.18
491.41	20524.16
491.59	20685.65
491.77	20500.75
491.95	20924.39
492.13	21156.10
492.30	21406.54
492.48	21170.15
492.66	21666.34
492.84	21614.85
493.01	21783.37
493.19	21715.49
493.37	21921.46
493.54	21867.63
493.72	22260.84
493.90	22480.85
494.08	22670.43
494.25	22838.95
494.43	23133.86
494.61	23147.90
494.79	23192.37
494.96	23271.95
495.14	23339.82
495.32	23332.80
495.49	23356.21
495.67	23737.71
495.85	23803.25
496.02	23978.79
496.20	23859.42
496.38	24236.25
496.55	24180.07
496.73	24772.23
496.91	24601.37
497.09	24671.59
497.26	24723.08
497.44	24582.65
497.62	24622.44
497.79	25078.84
497.97	24716.06
498.14	25027.35
498.32	25123.31
498.50	25460.35
498.67	25720.15
498.85	25785.68
499.03	25703.76
499.20	25958.88
499.38	26305.28
499.56	26190.59
499.73	26511.25
499.91	26174.21
500.08	26218.68
500.26	26164.85
500.44	26443.37
500.61	26061.87
500.79	26445.71
500.97	26506.57
501.14	26654.02
501.32	26899.78
501.49	27068.30
501.67	26600.19
501.84	27337.46
502.02	27346.82
502.20	27475.55
502.37	27295.33
502.55	27587.89
502.72	27716.62
502.90	28004.51
503.07	27630.02
503.25	27627.68
503.43	27445.12
503.60	27824.29
503.78	27496.61
503.95	27725.99
504.13	28119.20
504.30	28561.56
504.48	28311.12
504.65	28313.46
504.83	28517.09
505.01	28425.81
505.18	28774.55
505.36	28865.83
505.53	29160.73
505.71	29291.80
505.88	29497.77
506.06	29050.73
506.23	29310.53
506.41	29350.32
506.58	29551.60
506.76	29280.10
506.93	29659.27
507.11	29783.32
507.28	29727.14
507.46	29853.53
507.63	29935.45
507.81	30096.95
507.98	29834.81
508.16	30000.99
508.33	29954.18
508.50	30616.55
508.68	30253.76
508.85	30696.13
509.03	30796.77
509.20	30820.17
509.38	30785.07
509.55	30677.40
509.73	30937.20
509.90	31054.23
510.08	31129.12
510.25	30953.58
510.42	31435.74
510.60	31297.64
510.77	31271.90
510.95	32013.85
511.12	31566.81
511.30	31454.46
511.47	32264.28
511.64	31929.59
511.82	31903.84
511.99	31431.05
512.17	31709.58
512.34	31819.58
512.51	32098.11
512.69	32329.82
512.86	32191.73
513.04	32533.45
513.21	32451.53
513.38	32662.18
513.56	32531.11
513.73	32608.34
513.90	32376.63
514.08	32823.67
514.25	32718.35
514.43	32865.80
514.60	32994.53
514.77	33048.36
514.95	33294.12
515.12	33160.71
515.29	32865.80
515.47	33427.53
515.64	33425.19
515.81	33523.49
515.99	33268.37
516.16	33450.94
516.33	33223.90
516.51	33338.59
516.68	33226.24
516.85	32582.60
517.03	33167.73
517.20	33809.04
517.37	33937.77
517.54	34141.39
517.72	33689.67
517.89	33521.15
518.06	33469.66
518.24	33584.35
518.41	34007.98
518.58	34464.39
518.75	34223.31
518.93	34527.58
519.10	34146.08
519.27	34752.27
519.45	34550.99
519.62	34998.03
519.79	35248.47
519.96	35351.45
520.14	35218.04
520.31	34967.60
520.48	35199.32
520.65	34745.25
520.83	35524.65
521.00	35639.34
521.17	34979.31
521.34	35414.65
521.52	36084.04
521.69	35873.39
521.86	35667.42
522.03	35892.12
522.20	36002.12
522.38	35857.01
522.55	35931.90
522.72	35786.79
522.89	36226.81
523.07	36137.87
523.24	36275.96
523.41	36947.70
523.58	36531.08
523.75	36818.97
523.92	36875.14
524.10	37067.06
524.27	36238.51
524.44	36891.52
524.61	37242.60
524.78	36538.10
524.96	37364.31
525.13	37331.54
525.30	37184.09
525.47	37029.62
525.64	37067.06
525.81	37277.71
525.98	37116.22
526.16	36952.38
526.33	37198.13
526.50	37280.05
526.67	36650.45
526.84	36882.16
527.01	37134.94
527.18	37486.02
527.36	37633.47
527.53	37666.24
527.70	37844.12
527.87	37694.33
528.04	37846.46
528.21	37818.38
528.38	38202.22
528.55	38693.74
528.72	38710.12
528.89	38431.60
529.07	38506.49
529.24	38466.70
529.41	38553.30
529.58	38698.42
529.75	38789.70
529.92	38223.29
530.09	38625.86
530.26	38785.02
530.43	39035.45
530.60	38691.40
530.77	38955.88
530.94	38789.70
531.11	39145.46
531.28	39463.77
531.46	39468.45
531.63	39257.81
531.80	38892.68
531.97	39117.37
532.14	38845.87
532.31	38525.22
532.48	39042.48
532.65	39505.90
532.82	39009.71
532.99	38934.81
533.16	39400.58
533.33	39246.10
533.50	39531.65
533.67	39615.91
533.84	39772.72
534.01	39236.74
534.18	39344.41
534.35	40032.52
534.52	39531.65
534.69	39728.25
534.86	40430.41
535.03	39749.32
535.20	40175.30
535.37	40252.53
535.54	40060.61
535.71	40325.09
535.88	40657.45
536.05	40158.91
536.22	40189.34
536.38	40318.07
536.55	40247.85
536.72	39936.56
536.89	40023.16
537.06	40091.04
537.23	40889.16
537.40	41020.23
537.57	40762.77
537.74	40425.73
537.91	40840.01
538.08	40591.91
538.25	40577.87
538.42	40858.73
538.59	41303.43
538.75	40437.44
538.92	40652.76
539.09	40931.29
539.26	41008.53
539.43	40758.09
539.60	41132.57
539.77	40823.62
539.94	40971.08
540.11	41151.30
540.28	41069.38
540.44	41060.02
540.61	41137.26
540.78	41064.70
540.95	41340.88
541.12	41048.32
541.29	41560.89
541.46	41687.28
541.62	41614.72
541.79	41076.40
541.96	41425.14
542.13	41556.21
542.30	41586.64
542.47	41432.16
542.63	41523.44
542.80	41567.91
542.97	41897.93
543.14	42305.18
543.31	42232.63
543.48	42050.06
543.64	42277.10
543.81	42052.41
543.98	42380.08
544.15	42000.91
544.32	42539.24
544.48	42525.19
544.65	42581.37
544.82	42754.57
544.99	42368.38
545.16	42677.33
545.32	42078.15
545.49	42677.33
545.66	42707.76
545.83	42895.00
546.00	42923.08
546.16	42810.74
546.33	42616.47
546.50	42246.67
546.67	43105.65
546.83	42735.84
547.00	43140.75
547.17	42862.23
547.34	42267.73
547.50	43023.73
547.67	43482.47
547.84	42876.27
548.00	43229.69
548.17	43505.88
548.34	42714.78
548.51	43423.96
548.67	43611.20
548.84	43559.71
549.01	43306.93
549.18	43346.72
549.34	43269.48
549.51	43192.25
549.68	43498.86
549.84	43077.56
550.01	43557.37
550.18	43503.54
550.34	43573.75
550.51	43845.26
550.68	43531.62
550.84	42974.58
551.01	43800.79
551.18	43667.37
551.34	43714.19
551.51	43838.23
551.68	44004.41
551.84	43910.79
552.01	43447.36
552.18	43739.93
552.34	43599.50
552.51	43854.62
552.68	44095.69
552.84	43625.25
553.01	44238.47
553.18	43903.77
553.34	43973.98
553.51	44058.24
553.67	43934.20
553.84	44416.35
554.01	44161.23
554.17	44236.12
554.34	44313.36
554.51	44287.62
554.67	43931.86
554.84	44156.55
555.00	43889.73
555.17	44477.20
555.33	44547.42
555.50	43983.35
555.67	44203.36
555.83	44060.58
556.00	44348.47
556.16	44701.89
556.33	44357.83
556.50	44346.13
556.66	44481.88
556.83	43917.81
556.99	44250.17
557.16	44327.41
557.32	44196.34
557.49	44369.54
557.65	44360.17
557.82	44533.37
557.98	44884.45
558.15	44598.91
558.32	44603.59
558.48	44219.74
558.65	44795.51
558.81	44395.28
558.98	44271.23
559.14	44917.22
559.31	44783.81
559.47	44807.22
559.64	44879.77
559.80	44931.26
559.97	44601.25
560.13	44657.42
560.30	44823.60
560.46	44664.44
560.63	44900.84
560.79	45254.26
560.96	44783.81
561.12	44821.26
561.29	44666.78
561.45	44720.62
561.61	44886.79
561.78	45415.76
561.94	44446.77
562.11	44973.39
562.27	45055.31
562.44	45078.72
562.60	45111.49
562.77	44898.50
562.93	45319.79
563.10	45258.94
563.26	44509.97
563.42	45015.52
563.59	45322.13
563.75	45020.20
563.92	45223.83
564.08	44839.98
564.24	44865.73
564.41	45181.70
564.57	45057.65
564.74	44926.58
564.90	45031.91
565.07	45024.89
565.23	45153.62
565.39	45324.47
565.56	45050.63
565.72	45251.92
565.88	44957.01
566.05	44830.62
566.21	44872.75
566.38	45141.91
566.54	45294.05
566.70	45441.50
566.87	45223.83
567.03	45628.74
567.19	45823.01
567.36	45109.14
567.52	45626.40
567.68	45366.60
567.85	45141.91
568.01	45399.37
568.17	45338.52
568.34	45247.24
568.50	45127.87
568.66	45333.84
568.83	45600.66
568.99	45268.30
569.15	45336.18
569.32	45345.54
569.48	45015.52
569.64	45734.07
569.81	45338.52
569.97	45343.20
570.13	45558.53
570.30	45226.17
570.46	45155.96
570.62	44907.86
570.78	44959.35
570.95	44933.60
571.11	45280.00
571.27	45062.33
571.43	45598.32
571.60	45649.81
571.76	45202.77
571.92	45450.86
572.09	45682.58
572.25	45638.11
572.41	45549.17
572.57	45694.28
572.74	46206.86
572.90	45638.11
573.06	45883.86
573.22	45647.47
573.38	45588.95
573.55	45647.47
573.71	45975.14
573.87	45689.60
574.03	45289.37
574.20	45628.74
574.36	45563.21
574.52	45343.20
574.68	46003.23
574.84	45380.65
575.01	45544.48
575.17	45301.07
575.33	45181.70
575.49	45214.47
575.65	45869.82
575.82	45830.03
575.98	45727.05
576.14	45797.26
576.30	45883.86
576.46	45455.54
576.62	45724.71
576.79	45633.42
576.95	45261.28
577.11	45670.87
577.27	45787.90
577.43	45228.51
577.59	45661.51
577.75	45294.05
577.92	45263.62
578.08	45319.79
578.24	45523.42
578.40	45296.39
578.56	45127.87
578.72	45361.92
578.88	45764.49
579.04	45532.78
579.21	45174.68
579.37	45598.32
579.53	45837.05
579.69	45205.11
579.85	45675.55
580.01	45572.57
580.17	45586.61
580.33	45528.10
580.49	45607.68
580.65	45827.69
580.82	45734.07
580.98	45516.40
581.14	45406.39
581.30	45605.34
581.46	45591.30
581.62	45832.37
581.78	45523.42
581.94	45673.21
582.10	45727.05
582.26	45963.44
582.42	45464.91
582.58	45497.67
582.74	45462.57
582.90	45724.71
583.06	45390.01
583.22	45970.46
583.38	45801.94
583.54	45715.34
583.70	45825.35
583.86	45965.78
584.02	45537.46
584.18	46031.32
584.34	45659.17
584.50	45811.31
584.66	45916.63
584.82	45691.94
584.98	45811.31
585.14	45947.06
585.30	45436.82
585.46	45139.57
585.62	45844.07
585.78	45415.76
585.94	45607.68
586.10	45677.90
586.26	45511.72
586.42	45701.30
586.58	45565.55
586.74	45876.84
586.90	45666.19
587.06	45666.19
587.22	45558.53
587.38	45911.95
587.54	45867.48
587.70	45617.04
587.86	45603.00
588.02	45553.85
588.18	45734.07
588.34	44919.56
588.49	45272.98
588.65	45055.31
588.81	45397.03
588.97	45787.90
589.13	45085.74
589.29	44996.80
589.45	45216.81
589.61	45289.37
589.77	46071.10
589.93	45752.79
590.08	45715.34
590.24	45961.10
590.40	46267.71
590.56	46131.96
590.72	45759.81
590.88	45268.30
591.04	45801.94
591.20	46253.67
591.35	46595.38
591.51	46183.45
591.67	45677.90
591.83	46021.95
591.99	45689.60
592.15	45703.64
592.31	46092.17
592.46	45853.44
592.62	46106.21
592.78	45727.05
592.94	46263.03
593.10	46096.85
593.26	46302.82
593.41	45855.78
593.57	45717.68
593.73	45783.22
593.89	46497.08
594.05	46003.23
594.20	45684.92
594.36	45539.80
594.52	45993.87
594.68	45790.24
594.84	45478.95
594.99	46050.04
595.15	45727.05
595.31	45958.76
595.47	45750.45
595.62	46195.15
595.78	46113.23
595.94	46036.00
596.10	45977.48
596.25	45815.99
596.41	45862.80
596.57	45460.23
596.73	45551.51
596.88	46110.89
597.04	45563.21
597.20	45698.96
597.36	45925.99
597.51	46328.56
597.67	45914.29
597.83	45984.51
597.99	46117.92
598.14	45694.28
598.30	46012.59
598.46	45720.02
598.61	46382.40
598.77	45895.56
598.93	45989.19
599.09	45848.75
599.24	46089.83
599.40	45907.27
599.56	46082.81
599.71	45729.39
599.87	45944.72
600.03	46099.19
600.18	45659.17
600.34	45911.95
600.50	45937.69
600.65	45776.20
600.81	45869.82
600.97	45930.67
601.12	46293.46
601.28	45837.05
601.44	46162.39
601.59	45989.19
601.75	45916.63
601.91	46092.17
602.06	45998.55
602.22	45806.62
602.37	45748.11
602.53	46506.44
602.69	45853.44
602.84	45876.84
603.00	45607.68
603.16	45710.66
603.31	45649.81
603.47	45928.33
603.62	45736.41
603.78	45727.05
603.94	45457.88
604.09	46007.91
604.25	45921.31
604.40	45890.88
604.56	45923.65
604.71	46033.66
604.87	45874.50
605.03	45785.56
605.18	45607.68
605.34	45708.32
605.49	45649.81
605.65	46094.51
605.80	45577.25
605.96	45705.98
606.12	45813.65
606.27	45855.78
606.43	45148.93
606.58	45787.90
606.74	45703.64
606.89	45694.28
607.05	45514.06
607.20	45979.82
607.36	45689.60
607.51	46251.33
607.67	45579.59
607.82	45703.64
607.98	45357.24
608.13	45294.05
608.29	45151.27
608.44	45432.14
608.60	45488.31
608.75	45408.73
608.91	45474.27
609.06	45167.66
609.22	45394.69
609.37	45301.07
609.53	45701.30
609.68	45612.36
609.84	45036.59
609.99	45397.03
610.15	45045.95
610.30	45003.82
610.46	44832.96
610.61	44781.47
610.76	45244.90
610.92	45581.93
611.07	45127.87
611.23	45354.90
611.38	45139.57
611.54	45081.06
611.69	45137.23
611.84	45083.40
612.00	44978.07
612.15	44940.63
612.31	45263.62
612.46	45017.86
612.62	45242.56
612.77	45408.73
612.92	45717.68
613.08	44828.28
613.23	44706.57
613.39	44994.46
613.54	44706.57
613.69	44655.08
613.85	44194.00
614.00	44715.93
614.15	44519.33
614.31	44783.81
614.46	44832.96
614.62	44629.34
614.77	44851.69
614.92	44392.94
615.08	44807.22
615.23	44491.24
615.38	44718.28
615.54	44259.53
615.69	44755.72
615.84	45083.40
616.00	44701.89
616.15	44715.93
616.30	44453.79
616.46	44329.75
616.61	44123.78
616.76	44247.83
616.92	43807.81
617.07	44245.49
617.22	44282.94
617.37	44170.59
617.53	44580.18
617.68	44734.66
617.83	44449.11
617.99	44123.78
618.14	44025.48
618.29	44093.35
618.45	44161.23
618.60	43578.43
618.75	43901.43
618.90	43508.22
619.06	43550.35
619.21	43789.08
619.36	44048.88
619.51	44224.42
619.67	44158.89
619.82	43573.75
619.97	43966.96
620.12	43407.58
620.28	43498.86
620.43	43559.71
620.58	43889.73
620.73	43753.97
620.89	43079.90
621.04	43756.32
621.19	43742.27
621.34	43817.17
621.49	43686.10
621.65	43246.08
621.80	43966.96
621.95	43779.72
622.10	43517.58
622.25	42972.24
622.41	43140.75
622.56	43447.36
622.71	43435.66
622.86	43686.10
623.01	43136.07
623.16	43548.01
623.32	43447.36
623.47	43145.44
623.62	43346.72
623.77	43007.34
623.92	43203.95
624.07	43138.41
624.23	42831.80
624.38	43084.58
624.53	43009.68
624.68	42789.67
624.83	42747.54
624.98	43225.01
625.13	42976.92
625.29	43168.84
625.44	42684.35
625.59	42476.04
625.74	42721.80
625.89	42747.54
626.04	42862.23
626.19	43016.71
626.34	42422.21
626.49	42557.96
626.65	42850.53
626.80	42714.78
626.95	42244.33
627.10	42588.39
627.25	42564.98
627.40	42396.46
627.55	41942.40
627.70	42036.02
627.85	42192.84
628.00	42651.58
628.15	42438.59
628.30	42195.18
628.45	42539.24
628.60	42443.27
628.76	42576.69
628.91	42403.49
629.06	42351.99
629.21	42164.75
629.36	42073.47
629.51	41907.29
629.66	41890.91
629.81	41897.93
629.96	41823.03
630.11	42270.08
630.26	42014.96
630.41	41926.02
630.56	41488.34
630.71	41986.87
630.86	42227.95
631.01	41612.38
631.16	42045.38
631.31	41324.50
631.46	41469.61
631.61	41710.69
631.76	41621.75
631.91	42249.01
632.06	42410.51
632.21	41104.49
632.36	41916.65
632.51	41504.72
632.66	41722.39
632.81	41015.55
632.96	41429.82
633.10	41694.30
633.25	41436.84
633.40	41390.03
633.55	41282.37
633.70	41291.73
633.85	41577.28
634.00	41338.54
634.15	41027.25
634.30	41146.62
634.45	41153.64
634.60	40816.60
634.75	41031.93
634.90	41001.50
635.05	41294.07
635.19	40484.25
635.34	41462.59
635.49	40694.89
635.64	40832.99
635.79	41006.19
635.94	41017.89
636.09	41071.72
636.24	40900.86
636.39	40091.04
636.53	40804.90
636.68	40547.44
636.83	40851.71
636.98	41045.97
637.13	40678.51
637.28	41193.43
637.43	41294.07
637.57	40502.97
637.72	40517.01
637.87	40818.94
638.02	40189.34
638.17	40797.88
638.32	40404.67
638.46	40098.06
638.61	40442.12
638.76	40699.58
638.91	40280.62
639.06	40765.11
639.20	40556.80
639.35	40610.64
639.50	40472.54
639.65	40428.07
639.80	40416.37
639.94	40282.96
640.09	40179.98
640.24	40079.33
640.39	39566.76
640.54	40493.61
640.68	39957.63
640.83	39842.94
640.98	39674.42
641.13	39496.54
641.27	39866.34
641.42	39716.55
641.57	40121.46
641.72	39641.65
641.86	39662.72
642.01	39498.88
642.16	39899.11
642.31	39431.01
642.45	40009.12
642.60	39236.74
642.75	40081.67
642.90	40025.50
643.04	39330.36
643.19	39496.54
643.34	39480.16
643.48	39686.12
643.63	39688.46
643.78	39292.91
643.93	39587.82
644.07	39145.46
644.22	39299.94
644.37	39201.63
644.51	39480.16
644.66	39297.59
644.81	39463.77
644.95	39536.33
645.10	39313.98
645.25	39374.83
645.39	39594.84
645.54	39222.70
645.69	39061.20
645.83	39419.30
645.98	39133.76
646.13	39297.59
646.27	38857.57
646.42	39082.27
646.57	38822.47
646.71	38686.71
646.86	39194.61
647.00	39058.86
647.15	38642.24
647.30	39133.76
647.44	38581.39
647.59	39005.03
647.74	38234.99
647.88	38667.99
648.03	38469.04
648.17	38576.71
648.32	38649.27
648.47	38679.69
648.61	38864.60
648.76	38890.34
648.90	38590.75
649.05	38726.50
649.20	38485.43
649.34	38614.16
649.49	38396.49
649.63	38246.69
649.78	38302.87
649.92	38637.56
650.07	38593.09
650.21	37993.92
650.36	38548.62
650.51	38445.64
650.65	39012.05
650.80	38897.36
650.94	38396.49
651.09	38134.35
651.23	38040.73
651.38	38010.30
651.52	38216.27
651.67	38054.77
651.81	37921.36
651.96	37593.68
652.10	38286.48
652.25	38209.25
652.39	38284.14
652.54	38054.77
652.68	38078.18
652.83	38141.37
652.97	38464.36
653.12	38288.82
653.26	37745.82
653.41	37956.47
653.55	37886.25
653.70	37904.98
653.84	38007.96
653.99	37457.93
654.13	37670.92
654.27	37797.31
654.42	37596.03
654.56	37823.06
654.71	38066.47
654.85	37619.43
655.00	37368.99
655.14	37673.26
655.29	37371.33
655.43	37368.99
655.57	37034.30
655.72	36861.10
655.86	37156.00
656.01	36477.25
656.15	36896.20
656.30	36924.29
656.44	36865.78
656.58	37160.69
656.73	37113.87
656.87	36678.54
657.01	37048.34
657.16	36833.01
657.30	36704.28
657.45	36657.47
657.59	37125.58
657.73	37062.38
657.88	36617.68
658.02	37055.36
658.16	37141.96
658.31	37055.36
658.45	37172.39
658.60	36797.90
658.74	36935.99
658.88	36816.63
659.03	36966.42
659.17	36645.77
659.31	36257.24
659.46	35786.79
659.60	36587.25
659.74	36285.33
659.89	36158.94
660.03	36128.51
660.17	36559.17
660.32	36439.80
660.46	36535.76
660.60	36009.14
660.74	36233.83
660.89	36140.21
661.03	36128.51
661.17	36013.82
661.32	35885.09
661.46	36065.31
661.60	35262.51
661.74	35599.55
661.89	35627.63
662.03	35885.09
662.17	36116.81
662.31	35543.38
662.46	36109.78
662.60	35739.98
662.74	35754.02
662.88	35239.11
663.03	35438.05
663.17	35351.45
663.31	35206.34
663.45	35138.46
663.60	35360.81
663.74	34677.38
663.88	34787.38
664.02	35108.04
664.17	35330.39
664.31	34759.30
664.45	34712.49
664.59	34946.54
664.73	34976.97
664.88	34630.57
665.02	34635.25
665.16	34403.53
665.30	34366.09
665.44	34314.59
665.59	33855.85
665.73	34476.09
665.87	33951.81
666.01	34483.11
666.15	34309.91
666.29	34476.09
666.44	34670.36
666.58	33993.94
666.72	33979.90
666.86	34075.86
667.00	33933.09
667.14	34017.35
667.28	33858.19
667.43	33841.81
667.57	33956.49
667.71	33535.20
667.85	33773.93
667.99	33799.68
668.13	33872.23
668.27	33804.36
668.41	33556.26
668.56	33270.72
668.70	32985.17
668.84	33242.63
668.98	33680.31
669.12	33467.32
669.26	33039.00
669.40	33046.02
669.54	33085.81
669.68	32910.27
669.82	32821.33
669.96	32865.80
670.10	32645.79
670.25	32774.52
670.39	32823.67
670.53	32044.27
670.67	32500.68
670.81	32891.55
670.95	32627.07
671.09	32297.05
671.23	32205.77
671.37	31819.58
671.51	32140.24
671.65	32065.34
671.79	32360.25
671.93	31885.12
672.07	32180.03
672.21	31585.53
672.35	31655.75
672.49	31929.59
672.63	31571.49
672.77	31475.52
672.91	31344.45
673.05	31594.89
673.19	31182.96
673.33	31440.42
673.47	31262.54
673.61	31225.09
673.75	31068.27
673.89	30953.58
674.03	31108.06
674.17	30637.61
674.31	30869.33
674.45	30857.62
674.59	30764.00
674.73	30590.80
674.87	30782.73
675.01	30431.65
675.15	30705.49
675.29	30618.89
675.43	30335.68
675.56	31014.44
675.70	30473.78
675.84	30405.90
675.98	29617.14
676.12	29876.94
676.26	29862.90
676.40	29736.51
676.54	30204.61
676.68	29769.27
676.82	29467.34
676.96	29834.81
677.10	29682.67
677.23	29329.25
677.37	29493.09
677.51	29230.95
677.65	28790.93
677.79	29081.16
677.93	28802.63
678.07	28538.15
678.21	28219.84
678.34	28617.73
678.48	28168.35
678.62	28332.18
678.76	28175.37
678.90	28297.08
679.04	28163.67
679.18	28219.84
679.31	27267.24
679.45	27756.41
679.59	27714.28
679.73	27627.68
679.87	27735.35
680.00	27812.59
680.14	27700.24
680.28	27410.01
680.42	27410.01
680.56	27215.75
680.70	27257.88
680.83	27185.32
680.97	26824.88
681.11	27012.12
681.25	26909.14
681.39	26815.52
681.52	26845.94
681.66	26536.99
681.80	26410.60
681.94	26164.85
682.07	26178.89
682.21	26651.68
682.35	26181.23
682.49	26228.04
682.62	25724.83
682.76	26176.55
682.90	25900.37
683.04	26267.83
683.17	25844.20
683.31	25479.07
683.45	25582.06
683.59	25340.98
683.72	25619.50
683.86	25577.37
684.00	25209.91
684.13	24723.08
684.27	24863.51
684.41	24760.53
684.55	24767.55
684.68	24847.13
684.82	24767.55
684.96	24512.43
685.09	24496.05
685.23	24629.46
685.37	24318.17
685.50	24547.54
685.64	24379.02
685.78	24348.59
685.91	23957.72
686.05	23791.55
686.19	23777.50
686.32	23639.41
686.46	23419.40
686.60	23002.78
686.73	22775.75
686.87	23229.82
687.01	22932.57
687.14	22735.96
687.28	22752.35
687.42	22806.18
687.55	22750.01
687.69	22979.38
687.82	22815.54
687.96	22679.79
688.10	22511.27
688.23	22092.32
688.37	22572.13
688.50	22321.69
688.64	22415.31
688.78	22267.86
688.91	21734.21
689.05	21785.71
689.18	21652.30
689.32	21797.41
689.46	21710.81
689.59	21919.12
689.73	21727.19
689.86	21668.68
690.00	21371.43
690.13	21392.50
690.27	21188.87
690.41	20835.45
690.54	20943.11
690.68	21111.63
690.81	21163.12
690.95	20915.03
691.08	21226.32
691.22	20823.75
691.35	20753.53
691.49	20840.13
691.62	20453.94
691.76	20526.50
691.89	20606.08
692.03	20388.41
692.16	20313.51
692.30	20245.63
692.43	20212.87
692.57	19899.23
692.70	19719.01
692.84	19733.06
692.97	19688.59
693.11	19709.65
693.24	19503.68
693.38	19442.83
693.51	19548.15
693.65	19426.45
693.78	19482.62
693.92	19253.25
694.05	19096.43
694.19	19108.13
694.32	19136.22
694.45	19204.10
694.59	18778.12
694.72	18951.32
694.86	18637.69
694.99	18452.78
695.13	18520.66
695.26	18455.12
695.39	18244.48
695.53	18270.22
695.66	18382.57
695.80	18260.86
695.93	17972.97
696.07	18253.84
696.20	18363.84
696.33	17933.18
696.47	17727.22
696.60	17752.96
696.73	17743.60
696.87	17750.62
697.00	17476.78
697.14	17462.74
697.27	17249.75
697.40	17083.57
697.54	17287.20
697.67	17200.60
697.80	17294.22
697.94	16992.29
698.07	17310.60
698.21	16931.44
698.34	17348.05
698.47	16791.00
698.61	16636.53
698.74	16673.98
698.87	16533.54
699.01	16243.32
699.14	16367.37
699.27	16030.33
699.40	15901.60
699.54	16180.12
699.67	16149.70
699.80	15793.94
699.94	15943.73
700.07	16201.19
700.20	15824.36
700.34	15812.66
700.47	15721.38
700.60	15571.58
700.73	15712.02
700.87	15510.73
701.00	15342.21
701.13	15410.09
701.26	15178.37
701.40	15042.62
701.53	15133.90
701.66	14693.88
701.79	15005.17
701.93	14710.27
702.06	14888.15
702.19	14857.72
702.32	14689.20
702.46	14885.81
702.59	14785.16
702.72	14677.50
702.85	14689.20
702.99	14443.45
703.12	14413.02
703.25	14235.14
703.38	14459.83
703.51	14497.28
703.65	13926.19
703.78	13982.36
703.91	13937.89
704.04	13788.10
704.17	13912.14
704.31	13727.24
704.44	13444.04
704.57	13448.72
704.70	13298.92
704.83	13392.55
704.96	13493.19
705.10	13523.62
705.23	13387.86
>>>>>End Processed Spectral Data<<<<<
