SpectraSuite Data File
++++++++++++++++++++++++++++++++++++
Date: Fri Oct 25 10:43:46 EDT 2013
User: price-jones
Dark Spectrum Present: No
Reference Spectrum Present: No
Number of Sampled Component Spectra: 1
Spectrometers: USB2+H05261
Integration Time (usec): 100000 (USB2+H05261)
Spectra Averaged: 1 (USB2+H05261)
Boxcar Smoothing: 0 (USB2+H05261)
Correct for Electrical Dark: No (USB2+H05261)
Strobe/Lamp Enabled: No (USB2+H05261)
Correct for Detector Non-linearity: No (USB2+H05261)
Correct for Stray Light: No (USB2+H05261)
Number of Pixels in Processed Spectrum: 2048
>>>>>Begin Processed Spectral Data<<<<<
365.73	131.07
365.92	131.07
366.12	131.07
366.32	4.68
366.52	14.04
366.72	0.00
366.91	0.00
367.11	0.00
367.31	0.00
367.51	25.75
367.70	70.22
367.90	79.58
368.10	0.00
368.30	0.00
368.49	30.43
368.69	11.70
368.89	56.17
369.09	0.00
369.28	84.26
369.48	0.00
369.68	60.85
369.87	51.49
370.07	58.51
370.27	161.50
370.47	250.44
370.66	475.13
370.86	395.55
371.06	428.32
371.25	433.00
371.45	400.23
371.65	477.47
371.84	461.09
372.04	437.68
372.24	390.87
372.44	482.15
372.63	458.74
372.83	521.94
373.03	496.19
373.22	517.26
373.42	465.77
373.62	468.11
373.81	545.34
374.01	578.11
374.21	578.11
374.40	589.82
374.60	589.82
374.79	540.66
374.99	580.45
375.19	550.03
375.38	573.43
375.58	608.54
375.78	669.39
375.97	667.05
376.17	629.60
376.37	573.43
376.56	578.11
376.76	557.05
376.95	650.67
377.15	664.71
377.35	648.33
377.54	622.58
377.74	594.50
377.93	636.63
378.13	601.52
378.33	671.73
378.52	564.07
378.72	685.78
378.91	603.86
379.11	624.92
379.31	606.20
379.50	657.69
379.70	662.37
379.89	690.46
380.09	634.29
380.28	664.71
380.48	697.48
380.68	685.78
380.87	681.10
381.07	786.42
381.26	730.25
381.46	695.14
381.65	688.12
381.85	664.71
382.04	753.65
382.24	725.57
382.43	631.94
382.63	718.54
382.83	746.63
383.02	777.06
383.22	667.05
383.41	702.16
383.61	779.40
383.80	795.78
384.00	737.27
384.19	753.65
384.39	746.63
384.58	802.80
384.78	788.76
384.97	716.20
385.17	751.31
385.36	854.30
385.56	786.42
385.75	767.70
385.95	830.89
386.14	793.44
386.34	802.80
386.53	779.40
386.72	823.87
386.92	887.06
387.11	854.30
387.31	875.36
387.50	896.43
387.70	844.93
387.89	837.91
388.09	842.59
388.28	898.77
388.48	833.23
388.67	905.79
388.86	814.51
389.06	910.47
389.25	926.85
389.45	931.53
389.64	1004.09
389.84	1011.11
390.03	1011.11
390.22	987.71
390.42	987.71
390.61	1025.15
390.81	1004.09
391.00	990.05
391.19	1074.31
391.39	1064.94
391.58	1071.97
391.78	1020.47
391.97	1060.26
392.16	1046.22
392.36	1132.82
392.55	898.77
392.75	987.71
392.94	971.32
393.13	994.73
393.33	987.71
393.52	1055.58
393.71	1060.26
393.91	1060.26
394.10	1121.12
394.29	1156.22
394.49	1144.52
394.68	1135.16
394.88	1259.21
395.07	1179.63
395.26	1249.85
395.46	1294.32
395.65	1247.51
395.84	1228.78
396.04	1174.95
396.23	1118.78
396.42	1050.90
396.62	1149.20
396.81	1170.27
397.00	1247.51
397.19	1256.87
397.39	1350.49
397.58	1306.02
397.77	1348.15
397.97	1387.94
398.16	1394.96
398.35	1490.92
398.55	1542.41
398.74	1434.75
398.93	1495.60
399.12	1460.49
399.32	1416.02
399.51	1411.34
399.70	1591.56
399.90	1432.41
400.09	1519.01
400.28	1589.22
400.47	1589.22
400.67	1596.25
400.86	1591.56
401.05	1631.35
401.24	1645.40
401.44	1657.10
401.63	1689.87
401.82	1699.23
402.01	1736.68
402.21	1708.59
402.40	1614.97
402.59	1703.91
402.78	1750.72
402.97	1790.51
403.17	1762.42
403.36	1717.95
403.55	1788.17
403.74	1865.41
403.93	1827.96
404.13	1816.26
404.32	1703.91
404.51	1914.56
404.70	1877.11
404.89	1858.39
405.09	1858.39
405.28	1884.13
405.47	1909.88
405.66	1872.43
405.85	1884.13
406.05	1947.33
406.24	1989.46
406.43	1956.69
406.62	2040.95
406.81	2094.78
407.00	2057.33
407.20	1952.01
407.39	1987.11
407.58	2057.33
407.77	2148.61
407.96	2134.57
408.15	2282.02
408.34	2174.36
408.54	2272.66
408.73	2265.64
408.92	2193.08
409.11	2232.87
409.30	2263.30
409.49	2160.31
409.68	2366.28
409.87	2387.35
410.07	2209.47
410.26	2389.69
410.45	2335.85
410.64	2392.03
410.83	2502.03
411.02	2480.97
411.21	2590.97
411.40	2518.42
411.59	2445.86
411.78	2640.12
411.98	2546.50
412.17	2593.31
412.36	2612.04
412.55	2764.17
412.74	2642.46
412.93	2729.06
413.12	2691.62
413.31	2801.62
413.50	2724.38
413.69	2785.24
413.88	2909.29
414.07	2754.81
414.26	2909.29
414.45	2923.33
414.64	2974.82
414.83	3028.65
415.02	2993.55
415.22	3066.10
415.41	3035.67
415.60	2963.12
415.79	3023.97
415.98	3126.96
416.17	3199.51
416.36	3227.60
416.55	3269.73
416.74	3229.94
416.93	3098.87
417.12	3246.32
417.31	3283.77
417.50	3335.26
417.69	3368.03
417.88	3353.99
418.07	3442.93
418.26	3438.25
418.45	3372.71
418.64	3501.44
418.83	3524.85
419.02	3456.97
419.21	3407.82
419.39	3510.80
419.58	3419.52
419.77	3428.88
419.96	3576.34
420.15	3604.42
420.34	3618.47
420.53	3679.32
420.72	3761.24
420.91	3730.81
421.10	3693.37
421.29	3728.47
421.48	3784.65
421.67	3822.09
421.86	3716.77
422.05	3658.26
422.24	3747.20
422.43	3761.24
422.61	3676.98
422.80	3801.03
422.99	3786.99
423.18	3964.87
423.37	3831.46
423.56	3733.15
423.75	3920.40
423.94	3772.94
424.13	3648.90
424.32	3934.44
424.50	3791.67
424.69	3941.46
424.88	3878.27
425.07	3913.38
425.26	3798.69
425.45	3911.04
425.64	3915.72
425.83	3960.19
426.01	3995.29
426.20	3981.25
426.39	4065.51
426.58	3854.86
426.77	3976.57
426.96	3810.39
427.15	3995.29
427.33	3911.04
427.52	3950.82
427.71	3988.27
427.90	4002.32
428.09	4002.32
428.28	4100.62
428.46	4072.53
428.65	4152.11
428.84	4219.99
429.03	4313.61
429.22	4264.46
429.40	4109.98
429.59	4114.66
429.78	3899.33
429.97	3845.50
430.16	3866.56
430.34	4044.45
430.53	4131.05
430.72	4142.75
430.91	4114.66
431.10	4327.65
431.28	4470.42
431.47	4451.70
431.66	4447.02
431.85	4365.10
432.03	4648.30
432.22	4643.62
432.41	4388.50
432.60	4641.28
432.79	4589.79
432.97	4645.96
433.16	4734.90
433.35	4503.19
433.54	4601.49
433.72	4657.67
433.91	4559.36
434.10	4601.49
434.28	4807.46
434.47	4718.52
434.66	4786.40
434.85	4938.53
435.03	4664.69
435.22	4929.17
435.41	5020.45
435.59	5018.11
435.78	5090.67
435.97	5006.41
436.16	5085.98
436.34	5013.43
436.53	5076.62
436.72	5100.03
436.90	5008.75
437.09	4880.02
437.28	4945.55
437.46	5053.22
437.65	5076.62
437.84	5111.73
438.02	5093.01
438.21	5114.07
438.40	5069.60
438.58	5298.97
438.77	5439.40
438.96	5392.59
439.14	5376.21
439.33	5554.09
439.52	5549.41
439.70	5458.13
439.89	5378.55
440.08	5481.53
440.26	5556.43
440.45	5694.52
440.63	5778.78
440.82	5959.00
441.01	5743.67
441.19	5928.58
441.38	6132.20
441.57	6078.37
441.75	6071.35
441.94	6216.46
442.12	6139.23
442.31	6143.91
442.50	6162.63
442.68	6251.57
442.87	6167.31
443.05	6321.79
443.24	6459.88
443.43	6160.29
443.61	6340.51
443.80	6443.49
443.98	6218.80
444.17	6094.76
444.35	6427.11
444.54	6487.96
444.73	6452.86
444.91	6289.02
445.10	6394.34
445.28	6349.87
445.47	6221.14
445.65	6246.89
445.84	6471.58
446.02	6469.24
446.21	6562.86
446.39	6452.86
446.58	6452.86
446.77	6633.08
446.95	6490.31
447.14	6637.76
447.32	6602.65
447.51	6541.80
447.69	6492.65
447.88	6700.95
448.06	6576.91
448.25	6457.54
448.43	6597.97
448.62	6803.94
448.80	6668.19
448.99	6621.38
449.17	6757.13
449.36	6731.38
449.54	6839.05
449.73	6993.52
449.91	7068.42
450.10	7035.65
450.28	7059.06
450.46	6988.84
450.65	7087.14
450.83	7068.42
451.02	6874.15
451.20	7283.75
451.39	6974.80
451.57	7239.28
451.76	7194.81
451.94	7026.29
452.13	7159.70
452.31	7108.21
452.49	7016.93
452.68	7054.37
452.86	7126.93
453.05	7222.89
453.23	7246.30
453.42	7166.72
453.60	7197.15
453.78	7279.07
453.97	7208.85
454.15	7349.28
454.34	7246.30
454.52	7372.69
454.70	7419.50
454.89	7520.14
455.07	7346.94
455.26	7393.75
455.44	7496.74
455.62	7517.80
455.81	7531.84
455.99	7688.66
456.17	7667.60
456.36	7681.64
456.54	7793.98
456.73	7826.75
456.91	8056.12
457.09	8154.43
457.28	7971.86
457.46	7826.75
457.64	7896.97
457.83	8077.19
458.01	7871.22
458.19	7976.55
458.38	7969.52
458.56	8133.36
458.74	8023.36
458.93	7957.82
459.11	8175.49
459.29	8035.06
459.48	8292.52
459.66	8229.32
459.84	8187.19
460.03	8463.38
460.21	8304.22
460.39	8168.47
460.57	8451.67
460.76	8517.21
460.94	8519.55
461.12	8585.08
461.31	8475.08
461.49	8418.91
461.67	8418.91
461.85	8652.96
462.04	8669.34
462.22	8994.68
462.40	8908.08
462.59	8746.58
462.77	8671.68
462.95	8793.39
463.13	8791.05
463.32	8727.86
463.50	8690.41
463.68	8891.70
463.86	8830.84
464.05	8697.43
464.23	8704.45
464.41	8931.48
464.59	8798.07
464.78	8968.93
464.96	8910.42
465.14	8903.40
465.32	9163.20
465.50	9116.39
465.69	9195.96
465.87	9046.17
466.05	8968.93
466.23	9011.06
466.41	9008.72
466.60	9481.51
466.78	9074.26
466.96	9057.87
467.14	9100.00
467.32	9193.62
467.51	9228.73
467.69	9137.45
467.87	9170.22
468.05	9312.99
468.23	9378.53
468.41	9348.10
468.60	9453.42
468.78	9514.28
468.96	9327.03
469.14	9394.91
469.32	9631.30
469.50	9341.08
469.69	9523.64
469.87	9596.20
470.05	9621.94
470.23	9635.99
470.41	9678.12
470.59	9661.73
470.77	9643.01
470.95	9650.03
471.14	10003.45
471.32	9755.35
471.50	10193.03
471.68	10094.73
471.86	10127.50
472.04	10071.33
472.22	10293.68
472.40	10230.48
472.58	10232.82
472.77	10256.23
472.95	10377.94
473.13	10787.53
473.31	10431.77
473.49	10296.02
473.67	10347.51
473.85	10551.14
474.03	10738.38
474.21	10773.49
474.39	10932.64
474.57	11049.67
474.75	10787.53
474.93	11162.01
475.12	10862.43
475.30	11129.25
475.48	10658.80
475.66	11009.88
475.84	10991.16
476.02	11265.00
476.20	11176.06
476.38	11386.71
476.56	11379.68
476.74	11641.82
476.92	11587.99
477.10	11545.86
477.28	11693.32
477.46	12058.44
477.64	12020.99
477.82	12325.26
478.00	12327.60
478.18	12067.80
478.36	12332.28
478.54	12489.10
478.72	12603.78
478.90	12776.98
479.08	12638.89
479.26	12894.01
479.44	12788.69
479.62	13144.45
479.80	13041.46
479.98	13252.11
480.16	13327.01
480.34	13331.69
480.52	13502.55
480.70	13535.32
480.88	13500.21
481.06	13680.43
481.24	13654.69
481.41	14024.49
481.59	14005.77
481.77	14223.44
481.95	13916.83
482.13	14335.78
482.31	14174.28
482.49	14693.88
482.67	14750.06
482.85	14785.16
483.03	14843.68
483.21	14736.01
483.39	15049.64
483.57	15342.21
483.74	15073.05
483.92	15386.68
484.10	15445.20
484.28	15665.21
484.46	16042.03
484.64	16224.59
484.82	15690.95
485.00	16060.76
485.18	16224.59
485.35	16421.20
485.53	15826.70
485.71	15999.90
485.89	16219.91
486.07	16152.04
486.25	16585.04
486.43	16594.40
486.61	16877.60
486.78	17090.59
486.96	16826.11
487.14	17247.41
487.32	17434.65
487.50	17507.21
487.68	17862.97
487.85	18490.23
488.03	18185.96
488.21	18480.87
488.39	18169.58
488.57	18295.97
488.75	18878.76
488.92	18827.27
489.10	19161.97
489.28	18895.14
489.46	19417.08
489.64	19431.13
489.81	19494.32
489.99	19833.70
490.17	19838.38
490.35	20056.05
490.53	20142.65
490.70	20299.47
490.88	20196.48
491.06	20287.76
491.24	20294.79
491.41	20311.17
491.59	20669.27
491.77	20620.12
491.95	20812.04
492.13	21029.71
492.30	20917.37
492.48	21490.80
492.66	21486.12
492.84	21553.99
493.01	21729.53
493.19	21752.94
493.37	22263.18
493.54	21806.77
493.72	21937.84
493.90	22317.01
494.08	22607.23
494.25	22649.36
494.43	23012.15
494.61	22925.55
494.79	22857.67
494.96	23073.00
495.14	23269.61
495.32	23426.42
495.49	23274.29
495.67	23789.20
495.85	23711.97
496.02	24222.20
496.20	23957.72
496.38	24135.60
496.55	24109.86
496.73	24922.02
496.91	24149.65
497.09	24697.33
497.26	24699.67
497.44	24683.29
497.62	24966.49
497.79	24896.28
497.97	25013.31
498.14	24961.81
498.32	25558.65
498.50	25511.84
498.67	25614.82
498.85	25647.59
499.03	25563.33
499.20	25982.29
499.38	25926.11
499.56	26096.97
499.73	25940.16
499.91	26354.43
500.08	25984.63
500.26	25991.65
500.44	25811.43
500.61	26738.28
500.79	26256.13
500.97	26221.02
501.14	26834.24
501.32	26396.56
501.49	27028.51
501.67	26412.95
501.84	26967.65
502.02	27084.68
502.20	27178.30
502.37	27133.83
502.55	27800.88
502.72	27679.18
502.90	27814.93
503.07	27407.67
503.25	27711.94
503.43	27379.59
503.60	27623.00
503.78	27857.06
503.95	27964.72
504.13	27936.63
504.30	28252.61
504.48	28070.04
504.65	28496.02
504.83	28474.96
505.01	28840.08
505.18	28421.13
505.36	28821.36
505.53	28910.30
505.71	28835.40
505.88	29390.11
506.06	28914.98
506.23	29043.71
506.41	29067.11
506.58	29333.93
506.76	29270.74
506.93	29450.96
507.11	29523.52
507.28	29296.49
507.46	29750.55
507.63	29696.72
507.81	29467.34
507.98	29825.45
508.16	29790.34
508.33	30106.31
508.50	30204.61
508.68	30754.64
508.85	30780.39
509.03	30452.71
509.20	30583.78
509.38	30719.53
509.55	30560.37
509.73	30738.26
509.90	31096.36
510.08	30883.37
510.25	31016.78
510.42	30801.45
510.60	31529.36
510.77	31564.46
510.95	31344.45
511.12	31260.20
511.30	31662.77
511.47	32027.89
511.64	32261.94
511.82	32112.15
511.99	31964.70
512.17	32109.81
512.34	31805.54
512.51	31845.33
512.69	32198.75
512.86	32013.85
513.04	32290.03
513.21	32517.06
513.38	32563.87
513.56	32311.10
513.73	32100.45
513.90	32727.71
514.08	32435.14
514.25	32690.26
514.43	32837.72
514.60	33076.45
514.77	32910.27
514.95	33095.18
515.12	32755.80
515.29	33099.86
515.47	33778.61
515.64	33464.98
515.81	33242.63
515.99	33289.44
516.16	32931.34
516.33	33151.35
516.51	33298.80
516.68	32636.43
516.85	32718.35
517.03	33223.90
517.20	33450.94
517.37	33619.46
517.54	34375.45
517.72	33586.69
517.89	33621.80
518.06	33542.22
518.24	33659.24
518.41	33802.02
518.58	34064.16
518.75	34412.90
518.93	34752.27
519.10	34534.60
519.27	34635.25
519.45	34808.45
519.62	34838.87
519.79	34925.47
519.96	35084.63
520.14	34756.96
520.31	35091.65
520.48	35105.70
520.65	34969.94
520.83	35166.55
521.00	35344.43
521.17	35576.14
521.34	35541.03
521.52	35749.34
521.69	35283.58
521.86	36252.56
522.03	36168.30
522.20	35796.15
522.38	35896.80
522.55	35576.14
522.72	35491.88
522.89	35763.39
523.07	36350.86
523.24	35800.83
523.41	36552.15
523.58	36332.14
523.75	36856.42
523.92	36617.68
524.10	37282.39
524.27	36718.32
524.44	36917.27
524.61	36744.07
524.78	36781.52
524.96	37209.84
525.13	36514.70
525.30	37067.06
525.47	37221.54
525.64	37198.13
525.81	36964.08
525.98	36816.63
526.16	36591.94
526.33	36587.25
526.50	36795.56
526.67	37055.36
526.84	37134.94
527.01	36889.18
527.18	37237.92
527.36	37530.49
527.53	37830.08
527.70	38017.32
527.87	37642.84
528.04	38014.98
528.21	37949.45
528.38	38169.46
528.55	38291.16
528.72	38038.39
528.89	38703.10
529.07	38387.13
529.24	38321.59
529.41	38373.08
529.58	38171.80
529.75	38394.15
529.92	38522.88
530.09	38576.71
530.26	38953.54
530.43	39051.84
530.60	38714.80
530.77	39335.04
530.94	39119.71
531.11	39140.78
531.28	39077.58
531.46	39089.29
531.63	39166.52
531.80	39079.92
531.97	39108.01
532.14	38604.80
532.31	38405.85
532.48	39145.46
532.65	38878.64
532.82	38995.67
532.99	39175.89
533.16	39166.52
533.33	39557.39
533.50	39421.64
533.67	39365.47
533.84	39328.02
534.01	40081.67
534.18	39725.91
534.35	39672.08
534.52	39842.94
534.69	39927.20
534.86	40137.85
535.03	39784.43
535.20	40282.96
535.37	40072.31
535.54	40683.19
535.71	40032.52
535.88	40439.78
536.05	40353.18
536.22	40062.95
536.38	40371.90
536.55	40318.07
536.72	40418.71
536.89	39892.09
537.06	40102.74
537.23	40582.55
537.40	40816.60
537.57	40498.29
537.74	40495.95
537.91	40481.91
538.08	40940.65
538.25	40414.03
538.42	41092.79
538.59	40942.99
538.75	40168.27
538.92	40582.55
539.09	41064.70
539.26	40996.82
539.43	41282.37
539.60	41024.91
539.77	41092.79
539.94	40652.76
540.11	41151.30
540.28	41141.94
540.44	41184.07
540.61	41076.40
540.78	41092.79
540.95	41036.61
541.12	40950.01
541.29	41109.17
541.46	41450.89
541.62	41848.78
541.79	41399.40
541.96	41368.97
542.13	41411.10
542.30	41591.32
542.47	41708.35
542.63	41354.93
542.80	41612.38
542.97	41893.25
543.14	41872.18
543.31	41881.55
543.48	42295.82
543.64	42305.18
543.81	42131.98
543.98	42309.86
544.15	42218.58
544.32	42344.97
544.48	43016.71
544.65	42349.65
544.82	42806.06
544.99	42557.96
545.16	42337.95
545.32	42349.65
545.49	42553.28
545.66	42742.86
545.83	42602.43
546.00	42990.96
546.16	42396.46
546.33	42789.67
546.50	42405.83
546.67	42869.25
546.83	42745.20
547.00	42391.78
547.17	42424.55
547.34	42902.02
547.50	42951.17
547.67	42902.02
547.84	43175.86
548.00	43093.94
548.17	43283.53
548.34	43285.87
548.51	43707.16
548.67	43161.82
548.84	43175.86
549.01	43068.20
549.18	43454.39
549.34	42927.77
549.51	43611.20
549.68	43777.38
549.84	43508.22
550.01	43772.70
550.18	43512.90
550.34	43363.11
550.51	43255.44
550.68	43564.39
550.84	42593.07
551.01	43648.65
551.18	43386.51
551.34	43515.24
551.51	43835.89
551.68	44144.84
551.84	43805.47
552.01	43636.95
552.18	43538.65
552.34	43931.86
552.51	43805.47
552.68	43871.00
552.84	44093.35
553.01	44030.16
553.18	43908.45
553.34	44018.46
553.51	44060.58
553.67	44154.21
553.84	44556.78
554.01	44664.44
554.17	44102.71
554.34	44472.52
554.51	44460.82
554.67	44020.80
554.84	43913.13
555.00	44516.99
555.17	44189.31
555.33	44334.43
555.50	44460.82
555.67	44634.02
555.83	44425.71
556.00	43950.58
556.16	44732.32
556.33	44037.18
556.50	44367.20
556.66	44168.25
556.83	44030.16
556.99	44729.98
557.16	44765.09
557.32	44664.44
557.49	44594.23
557.65	44360.17
557.82	44896.16
557.98	44507.63
558.15	44432.73
558.32	44832.96
558.48	44320.38
558.65	44538.05
558.81	44378.90
558.98	44732.32
559.14	44360.17
559.31	44643.38
559.47	44989.78
559.64	44472.52
559.80	44673.81
559.97	45174.68
560.13	44556.78
560.30	44795.51
560.46	45022.54
560.63	45013.18
560.79	45008.50
560.96	44875.09
561.12	44914.88
561.29	44711.25
561.45	45188.72
561.61	44626.99
561.78	44928.92
561.94	44804.88
562.11	44601.25
562.27	44690.19
562.44	44872.75
562.60	45008.50
562.77	45460.23
562.93	45106.80
563.10	45345.54
563.26	44818.92
563.42	45137.23
563.59	45031.91
563.75	44949.99
563.92	45078.72
564.08	45294.05
564.24	45530.44
564.41	45134.89
564.57	44947.65
564.74	45588.95
564.90	45212.13
565.07	45195.74
565.23	45537.46
565.39	45095.10
565.56	45160.64
565.72	44896.16
565.88	45617.04
566.05	44753.38
566.21	45340.86
566.38	45102.12
566.54	45074.04
566.70	45331.50
566.87	45832.37
567.03	45315.11
567.19	45565.55
567.36	45588.95
567.52	45191.06
567.68	45546.82
567.85	45162.98
568.01	45724.71
568.17	45317.45
568.34	45308.09
568.50	45738.75
568.66	45242.56
568.83	45366.60
568.99	44786.15
569.15	44961.69
569.32	45088.08
569.48	45603.00
569.64	45478.95
569.81	45731.73
569.97	45495.33
570.13	45851.09
570.30	45095.10
570.46	45254.26
570.62	44861.05
570.78	45081.06
570.95	45237.87
571.11	45436.82
571.27	45392.35
571.43	45015.52
571.60	45804.28
571.76	45530.44
571.92	45736.41
572.09	45691.94
572.25	45530.44
572.41	45450.86
572.57	45787.90
572.74	45876.84
572.90	45811.31
573.06	45600.66
573.22	45670.87
573.38	45652.15
573.55	45481.29
573.71	45858.12
573.87	45778.54
574.03	45347.88
574.20	45778.54
574.36	45717.68
574.52	45865.14
574.68	45745.77
574.84	45748.11
575.01	45668.53
575.17	45373.63
575.33	45237.87
575.49	45502.35
575.65	45893.22
575.82	45666.19
575.98	45406.39
576.14	45806.62
576.30	46010.25
576.46	45691.94
576.62	45911.95
576.79	45492.99
576.95	45490.65
577.11	46071.10
577.27	45680.24
577.43	45689.60
577.59	45584.27
577.75	45460.23
577.92	45249.58
578.08	45134.89
578.24	45088.08
578.40	45507.04
578.56	45811.31
578.72	45888.54
578.88	45610.02
579.04	45710.66
579.21	45588.95
579.37	45511.72
579.53	45965.78
579.69	45649.81
579.85	45624.06
580.01	46305.16
580.17	45275.32
580.33	46099.19
580.49	45530.44
580.65	45970.46
580.82	45453.20
580.98	45670.87
581.14	45507.04
581.30	46115.58
581.46	45745.77
581.62	46129.62
581.78	45418.10
581.94	46234.94
582.10	45853.44
582.26	45574.91
582.42	45612.36
582.58	45965.78
582.74	45925.99
582.90	45710.66
583.06	45951.74
583.22	45631.08
583.38	45996.21
583.54	46281.75
583.70	46232.60
583.86	46124.94
584.02	45626.40
584.18	46188.13
584.34	46031.32
584.50	45488.31
584.66	45764.49
584.82	45635.77
584.98	45979.82
585.14	45598.32
585.30	45649.81
585.46	45790.24
585.62	45312.77
585.78	46068.76
585.94	45680.24
586.10	45797.26
586.26	45443.84
586.42	46017.27
586.58	46038.34
586.74	46113.23
586.90	45544.48
587.06	45656.83
587.22	45741.09
587.38	45860.46
587.54	45743.43
587.70	45996.21
587.86	45656.83
588.02	45963.44
588.18	45752.79
588.34	45684.92
588.49	45212.13
588.65	45462.57
588.81	45556.19
588.97	45745.77
589.13	45556.19
589.29	45858.12
589.45	45525.76
589.61	45811.31
589.77	45764.49
589.93	45581.93
590.08	45865.14
590.24	46256.01
590.40	46326.22
590.56	46078.13
590.72	46265.37
590.88	45909.61
591.04	46354.31
591.20	45942.38
591.35	46153.02
591.51	46253.67
591.67	45537.46
591.83	45876.84
591.99	45841.73
592.15	46099.19
592.31	45918.97
592.46	45757.47
592.62	45631.08
592.78	46085.15
592.94	46368.35
593.10	45647.47
593.26	46050.04
593.41	45963.44
593.57	46031.32
593.73	45825.35
593.89	46010.25
594.05	45841.73
594.20	46277.07
594.36	45897.91
594.52	45895.56
594.68	45645.13
594.84	45865.14
594.99	45907.27
595.15	45968.12
595.31	46202.18
595.47	45881.52
595.62	46124.94
595.78	46230.26
595.94	45827.69
596.10	46064.08
596.25	46218.56
596.41	45886.20
596.57	45914.29
596.73	46181.11
596.88	45846.41
597.04	46204.52
597.20	46043.02
597.36	46110.89
597.51	46012.59
597.67	45998.55
597.83	46150.68
597.99	46284.09
598.14	46108.55
598.30	46164.73
598.46	46171.75
598.61	46043.02
598.77	46380.06
598.93	45727.05
599.09	45745.77
599.24	46323.88
599.40	46082.81
599.56	46089.83
599.71	45801.94
599.87	46082.81
600.03	46101.53
600.18	45918.97
600.34	45553.85
600.50	46181.11
600.65	46071.10
600.81	46082.81
600.97	46274.73
601.12	46141.32
601.28	46192.81
601.44	45710.66
601.59	45755.13
601.75	45418.10
601.91	45663.85
602.06	45500.01
602.22	46246.65
602.37	45855.78
602.53	45954.08
602.69	46131.96
602.84	46178.77
603.00	45556.19
603.16	46298.14
603.31	45963.44
603.47	46089.83
603.62	45668.53
603.78	45942.38
603.94	45600.66
604.09	46382.40
604.25	46068.76
604.40	45975.14
604.56	45626.40
604.71	46403.46
604.87	45485.97
605.03	45563.21
605.18	45900.25
605.34	45930.67
605.49	45876.84
605.65	45890.88
605.80	45415.76
605.96	45804.28
606.12	45855.78
606.27	45663.85
606.43	45860.46
606.58	45659.17
606.74	46089.83
606.89	45808.96
607.05	45830.03
607.20	45930.67
607.36	46148.34
607.51	45879.18
607.67	45820.67
607.82	45755.13
607.98	45635.77
608.13	45394.69
608.29	45134.89
608.44	45691.94
608.60	45015.52
608.75	45705.98
608.91	45794.92
609.06	45368.94
609.22	45584.27
609.37	45556.19
609.53	45448.52
609.68	45469.59
609.84	45148.93
609.99	45069.36
610.15	45453.20
610.30	45151.27
610.46	45045.95
610.61	45074.04
610.76	45254.26
610.92	45413.41
611.07	45773.86
611.23	45345.54
611.38	45261.28
611.54	45064.67
611.69	45020.20
611.84	45132.55
612.00	45270.64
612.15	45184.04
612.31	44893.82
612.46	44781.47
612.62	45553.85
612.77	45315.11
612.92	45511.72
613.08	44502.95
613.23	45041.27
613.39	44814.24
613.54	44488.90
613.69	45085.74
613.85	44519.33
614.00	45301.07
614.15	44814.24
614.31	45024.89
614.46	44856.37
614.62	45221.49
614.77	45008.50
614.92	44737.00
615.08	44470.18
615.23	44755.72
615.38	45022.54
615.54	44463.16
615.69	44802.53
615.84	44526.35
616.00	45043.61
616.15	44294.64
616.30	44645.72
616.46	44308.68
616.61	44711.25
616.76	44201.02
616.92	43744.61
617.07	44383.58
617.22	44566.14
617.37	44533.37
617.53	44783.81
617.68	44856.37
617.83	44659.76
617.99	44186.97
618.14	44105.06
618.29	44030.16
618.45	43866.32
618.60	44051.22
618.75	44151.87
618.90	44142.50
619.06	44065.27
619.21	44215.06
619.36	43868.66
619.51	43945.90
619.67	44205.70
619.82	43824.19
619.97	44247.83
620.12	43749.29
620.28	43655.67
620.43	43833.55
620.58	43819.51
620.73	44030.16
620.89	43688.44
621.04	43913.13
621.19	43789.08
621.34	43768.02
621.49	43892.07
621.65	44175.27
621.80	43955.26
621.95	43508.22
622.10	43871.00
622.25	43662.69
622.41	43620.56
622.56	43349.06
622.71	43768.02
622.86	43512.90
623.01	43374.81
623.16	43543.33
623.32	43416.94
623.47	43569.07
623.62	43873.34
623.77	43491.83
623.92	43540.99
624.07	43503.54
624.23	43033.09
624.38	43433.32
624.53	43400.55
624.68	43665.03
624.83	43033.09
624.98	43285.87
625.13	42944.15
625.29	42740.52
625.44	42817.76
625.59	42686.69
625.74	43330.34
625.89	42960.53
626.04	42646.90
626.19	42487.74
626.34	43009.68
626.49	42904.36
626.65	42848.19
626.80	43227.35
626.95	42611.79
627.10	42309.86
627.25	42859.89
627.40	42398.80
627.55	42511.15
627.70	42050.06
627.85	42291.14
628.00	42581.37
628.15	42696.05
628.30	42745.20
628.45	42618.81
628.60	42272.42
628.76	42515.83
628.91	42005.59
629.06	42323.91
629.21	42160.07
629.36	42279.44
629.51	42108.58
629.66	42480.72
629.81	41968.15
629.96	42361.36
630.11	42169.43
630.26	42356.67
630.41	42284.12
630.56	42057.09
630.71	42038.36
630.86	42061.77
631.01	42096.88
631.16	41743.45
631.31	41556.21
631.46	41104.49
631.61	41911.97
631.76	41556.21
631.91	41553.87
632.06	41921.34
632.21	41769.20
632.36	41837.08
632.51	41577.28
632.66	41429.82
632.81	41596.00
632.96	41565.57
633.10	41780.90
633.25	41846.44
633.40	41544.51
633.55	41633.45
633.70	41518.76
633.85	41415.78
634.00	41750.48
634.15	41324.50
634.30	41357.27
634.45	41139.60
634.60	41603.02
634.75	41242.58
634.90	40868.09
635.05	41280.03
635.19	41383.01
635.34	41675.58
635.49	41560.89
635.64	41069.38
635.79	41574.94
635.94	41092.79
636.09	40825.96
636.24	41038.95
636.39	40486.59
636.53	41237.90
636.68	41258.96
636.83	41146.62
636.98	40732.34
637.13	40926.61
637.28	41280.03
637.43	41242.58
637.57	41198.11
637.72	40783.83
637.87	40395.31
638.02	40975.76
638.17	40886.82
638.32	40811.92
638.46	40648.08
638.61	40744.05
638.76	40751.07
638.91	40781.49
639.06	40683.19
639.20	41036.61
639.35	40631.70
639.50	40659.79
639.65	40772.13
639.80	40299.34
639.94	40753.41
640.09	40315.73
640.24	40444.46
640.39	40030.18
640.54	39880.39
640.68	40444.46
640.83	40348.50
640.98	39779.74
641.13	39833.58
641.27	40392.97
641.42	40058.27
641.57	39952.94
641.72	40107.42
641.86	40020.82
642.01	39913.16
642.16	39835.92
642.31	39269.51
642.45	39601.86
642.60	39594.84
642.75	39945.92
642.90	39578.46
643.04	40325.09
643.19	39667.40
643.34	39615.91
643.48	39831.24
643.63	39859.32
643.78	39438.03
643.93	39854.64
644.07	40065.29
644.22	39433.35
644.37	39304.62
644.51	39400.58
644.66	39611.23
644.81	39241.42
644.95	39501.22
645.10	39524.63
645.25	39695.49
645.39	39700.17
645.54	39168.87
645.69	39569.10
645.83	39379.51
645.98	39278.87
646.13	39187.59
646.27	39594.84
646.42	39222.70
646.57	39168.87
646.71	39140.78
646.86	39358.45
647.00	39150.14
647.15	39227.38
647.30	38658.63
647.44	39316.32
647.59	38883.32
647.74	38602.46
647.88	38579.05
648.03	39229.72
648.17	38682.03
648.32	38740.55
648.47	38976.94
648.61	38595.43
648.76	38792.04
648.90	38621.18
649.05	38944.17
649.20	38820.13
649.34	38754.59
649.49	38298.19
649.63	38621.18
649.78	38843.53
649.92	38979.28
650.07	38916.09
650.21	39042.48
650.36	38384.79
650.51	38471.39
650.65	38995.67
650.80	38604.80
650.94	38766.29
651.09	38855.23
651.23	38768.63
651.38	38115.62
651.52	38340.32
651.67	38466.70
651.81	38101.58
651.96	38485.43
652.10	38426.92
652.25	37830.08
652.39	38206.90
652.54	38263.08
652.68	38253.72
652.83	38029.02
652.97	38621.18
653.12	38244.35
653.26	38199.88
653.41	37844.12
653.55	37841.78
653.70	38281.80
653.84	37975.19
653.99	37883.91
654.13	37848.80
654.27	37717.73
654.42	37813.70
654.56	37305.80
654.71	37811.35
654.85	37701.35
655.00	37900.29
655.14	37467.30
655.29	37530.49
655.43	37373.67
655.57	36928.97
655.72	36814.29
655.86	37015.57
656.01	36898.55
656.15	36348.52
656.30	36629.38
656.44	37284.73
656.58	37464.96
656.73	37118.56
656.87	37003.87
657.01	37256.65
657.16	36795.56
657.30	36765.14
657.45	36947.70
657.59	36943.02
657.73	36816.63
657.88	37106.85
658.02	37027.28
658.16	37113.87
658.31	37361.97
658.45	37457.93
658.60	36896.20
658.74	37385.38
658.88	36891.52
659.03	36573.21
659.17	37205.16
659.31	37017.91
659.46	36477.25
659.60	36739.39
659.74	36804.92
659.89	36463.21
660.03	36598.96
660.17	36793.22
660.32	36376.61
660.46	36760.45
660.60	36224.47
660.74	36109.78
660.89	36278.30
661.03	35831.26
661.17	36027.87
661.32	36231.49
661.46	36339.16
661.60	36201.07
661.74	36091.06
661.89	35838.28
662.03	36105.10
662.17	35534.01
662.31	36133.19
662.46	36346.18
662.60	35735.30
662.74	36065.31
662.88	35576.14
663.03	35735.30
663.17	35466.14
663.31	35562.10
663.45	35384.22
663.60	35468.48
663.74	35573.80
663.88	34883.34
664.02	35042.50
664.17	35508.27
664.31	34913.77
664.45	34897.39
664.59	34815.47
664.73	35131.44
664.88	35110.38
665.02	34529.92
665.16	34520.56
665.30	34408.22
665.44	34309.91
665.59	34668.02
665.73	34380.13
665.87	34607.16
666.01	34352.04
666.15	34618.86
666.29	34190.55
666.44	34993.35
666.58	34487.79
666.72	34232.68
666.86	34284.17
667.00	34550.99
667.14	33715.42
667.28	33970.54
667.43	34110.97
667.57	34387.15
667.71	33933.09
667.85	33759.89
667.99	34089.90
668.13	33809.04
668.27	34026.71
668.41	34265.44
668.56	33804.36
668.70	33507.11
668.84	33266.03
668.98	32975.81
669.12	33474.34
669.26	33607.75
669.40	33354.97
669.54	33464.98
669.68	33106.88
669.82	33003.89
669.96	33022.62
670.10	32687.92
670.25	33277.74
670.39	32620.05
670.53	32683.24
670.67	32542.81
670.81	32936.02
670.95	32697.28
671.09	32615.37
671.23	32285.35
671.37	32360.25
671.51	32161.30
671.65	32484.30
671.79	31835.97
671.93	32472.59
672.07	32273.65
672.21	32154.28
672.35	32327.48
672.49	32058.32
672.63	32032.57
672.77	31646.38
672.91	31583.19
673.05	31997.46
673.19	31747.03
673.33	31421.69
673.47	31552.76
673.61	31227.43
673.75	30981.67
673.89	31264.88
674.03	31005.08
674.17	31044.87
674.31	30885.71
674.45	30923.16
674.59	31269.56
674.73	31576.17
674.87	30874.01
675.01	30855.28
675.15	30733.57
675.29	30881.03
675.43	31005.08
675.56	30810.81
675.70	30719.53
675.84	30602.50
675.98	29474.37
676.12	30129.72
676.26	30349.73
676.40	30422.28
676.54	30445.69
676.68	30328.66
676.82	29432.24
676.96	29486.07
677.10	29741.19
677.23	29937.79
677.37	29317.55
677.51	29603.10
677.65	29294.14
677.79	28835.40
677.93	29324.57
678.07	28996.90
678.21	28519.43
678.34	28652.84
678.48	28800.29
678.62	28254.95
678.76	28535.81
678.90	28627.09
679.04	28088.77
679.18	28074.73
679.31	27878.12
679.45	27903.87
679.59	27929.61
679.73	28063.02
679.87	27484.91
680.00	27850.03
680.14	27707.26
680.28	27953.02
680.42	27803.22
680.56	27564.49
680.70	27220.43
680.83	27367.88
680.97	27417.04
681.11	27171.28
681.25	27061.27
681.39	27108.08
681.52	27206.39
681.66	26925.52
681.80	27061.27
681.94	26595.51
682.07	26581.46
682.21	26188.25
682.35	26125.06
682.49	26026.76
682.62	26127.40
682.76	25790.36
682.90	26040.80
683.04	26331.03
683.17	25855.90
683.31	25809.09
683.45	25617.16
683.59	25240.34
683.72	25383.11
683.86	25511.84
684.00	25612.48
684.13	25291.83
684.27	25067.14
684.41	24814.36
684.55	24828.40
684.68	24870.53
684.82	24844.79
684.96	24205.82
685.09	24837.76
685.23	24570.94
685.37	24683.29
685.50	24713.72
685.64	24566.26
685.78	24463.28
685.91	24147.31
686.05	23936.66
686.19	24072.41
686.32	24018.58
686.46	23697.92
686.60	23058.96
686.73	23239.18
686.87	22895.12
687.01	22607.23
687.14	22860.01
687.28	23164.28
687.42	22817.88
687.55	22782.77
687.69	23295.35
687.82	23002.78
687.96	22881.08
688.10	22642.34
688.23	22600.21
688.37	22394.25
688.50	22588.51
688.64	22068.91
688.78	22384.88
688.91	22412.97
689.05	21884.01
689.18	22204.66
689.32	21710.81
689.46	22050.19
689.59	22073.59
689.73	22317.01
689.86	21799.75
690.00	21645.27
690.13	21699.11
690.27	21226.32
690.41	21589.10
690.54	20922.05
690.68	21106.95
690.81	21301.22
690.95	21170.15
691.08	21177.17
691.22	21113.97
691.35	20908.01
691.49	20713.74
691.62	20812.04
691.76	20994.61
691.89	20851.83
692.03	20648.21
692.16	20315.85
692.30	20350.96
692.43	20306.49
692.57	20102.86
692.70	19814.98
692.84	19749.44
692.97	19829.02
693.11	19538.79
693.24	19672.20
693.38	19571.56
693.51	19468.58
693.65	19527.09
693.78	19396.02
693.92	19515.39
694.05	19461.55
694.19	19246.23
694.32	19262.61
694.45	19227.50
694.59	18925.57
694.72	18845.99
694.86	18717.26
694.99	18728.97
695.13	18654.07
695.26	18181.28
695.39	18581.51
695.53	18607.26
695.66	18436.40
695.80	18558.11
695.93	18115.75
696.07	18438.74
696.20	18396.61
696.33	18291.29
696.47	17984.68
696.60	17799.77
696.73	17614.87
696.87	17561.04
697.00	17804.46
697.14	17266.13
697.27	17631.26
697.40	17444.01
697.54	17326.99
697.67	17081.23
697.80	17226.34
697.94	16826.11
698.07	17188.89
698.21	17034.42
698.34	16851.86
698.47	16774.62
698.61	16912.71
698.74	16812.07
698.87	16830.79
699.01	16365.03
699.14	16456.31
699.27	16219.91
699.40	16444.60
699.54	15861.81
699.67	16107.57
699.80	16205.87
699.94	16170.76
700.07	15988.20
700.20	16084.16
700.34	15988.20
700.47	15693.29
700.60	15716.70
700.73	16018.63
700.87	15587.97
701.00	15744.78
701.13	15225.18
701.26	14988.79
701.40	15194.76
701.53	15119.86
701.66	15166.67
701.79	15185.40
701.93	14881.13
702.06	14932.62
702.19	14532.39
702.32	14721.97
702.46	14537.07
702.59	14551.11
702.72	14775.80
702.85	14857.72
702.99	14621.33
703.12	14551.11
703.25	14394.29
703.38	14310.04
703.51	14305.35
703.65	14361.53
703.78	13991.72
703.91	13879.38
704.04	13558.72
704.17	14019.81
704.31	14057.26
704.44	13666.39
704.57	13619.58
704.70	13584.47
704.83	13781.07
704.96	13748.31
705.10	13444.04
705.23	13305.95
>>>>>End Processed Spectral Data<<<<<
