SpectraSuite Data File
++++++++++++++++++++++++++++++++++++
Date: Fri Oct 25 10:48:16 EDT 2013
User: price-jones
Dark Spectrum Present: No
Reference Spectrum Present: No
Number of Sampled Component Spectra: 1
Spectrometers: USB2+H05261
Integration Time (usec): 100000 (USB2+H05261)
Spectra Averaged: 1 (USB2+H05261)
Boxcar Smoothing: 0 (USB2+H05261)
Correct for Electrical Dark: No (USB2+H05261)
Strobe/Lamp Enabled: No (USB2+H05261)
Correct for Detector Non-linearity: No (USB2+H05261)
Correct for Stray Light: No (USB2+H05261)
Number of Pixels in Processed Spectrum: 2048
>>>>>Begin Processed Spectral Data<<<<<
365.73	161.50
365.92	161.50
366.12	161.50
366.32	107.66
366.52	81.92
366.72	53.83
366.91	16.38
367.11	18.72
367.31	2.34
367.51	63.19
367.70	42.13
367.90	35.11
368.10	42.13
368.30	46.81
368.49	25.75
368.69	49.15
368.89	133.41
369.09	23.41
369.28	91.28
369.48	102.98
369.68	46.81
369.87	86.60
370.07	86.60
370.27	121.71
370.47	189.58
370.66	395.55
370.86	383.85
371.06	493.85
371.25	479.81
371.45	444.70
371.65	496.19
371.84	461.09
372.04	468.11
372.24	561.73
372.44	566.41
372.63	507.90
372.83	449.38
373.03	484.49
373.22	421.30
373.42	458.74
373.62	554.71
373.81	566.41
374.01	636.63
374.21	545.34
374.40	528.96
374.60	561.73
374.79	547.69
374.99	531.30
375.19	667.05
375.38	606.20
375.58	540.66
375.78	641.31
375.97	592.16
376.17	592.16
376.37	582.79
376.56	603.86
376.76	636.63
376.95	596.84
377.15	657.69
377.35	645.99
377.54	664.71
377.74	643.65
377.93	650.67
378.13	634.29
378.33	704.50
378.52	636.63
378.72	613.22
378.91	650.67
379.11	648.33
379.31	660.03
379.50	678.76
379.70	683.44
379.89	725.57
380.09	645.99
380.28	699.82
380.48	676.41
380.68	671.73
380.87	704.50
381.07	699.82
381.26	753.65
381.46	622.58
381.65	755.99
381.85	671.73
382.04	725.57
382.24	819.19
382.43	681.10
382.63	777.06
382.83	674.07
383.02	751.31
383.22	748.97
383.41	720.88
383.61	695.14
383.80	734.93
384.00	765.36
384.19	784.08
384.39	919.83
384.58	741.95
384.78	819.19
384.97	842.59
385.17	814.51
385.36	830.89
385.56	856.64
385.75	755.99
385.95	788.76
386.14	849.61
386.34	826.21
386.53	854.30
386.72	823.87
386.92	922.17
387.11	919.83
387.31	905.79
387.50	887.06
387.70	889.40
387.89	917.49
388.09	861.32
388.28	840.25
388.48	823.87
388.67	940.90
388.86	842.59
389.06	915.15
389.25	959.62
389.45	889.40
389.64	905.79
389.84	1039.20
390.03	999.41
390.22	901.11
390.42	945.58
390.61	978.34
390.81	1015.79
391.00	978.34
391.19	1078.99
391.39	1048.56
391.58	1008.77
391.78	990.05
391.97	966.64
392.16	952.60
392.36	1055.58
392.55	1001.75
392.75	971.32
392.94	1015.79
393.13	1011.11
393.33	983.02
393.52	1071.97
393.71	1149.20
393.91	1055.58
394.10	1048.56
394.29	1139.84
394.49	1093.03
394.68	1116.44
394.88	1172.61
395.07	1214.74
395.26	1177.29
395.46	1121.12
395.65	1231.12
395.84	1270.91
396.04	1205.38
396.23	1172.61
396.42	1123.46
396.62	1137.50
396.81	1210.06
397.00	1200.69
397.19	1317.72
397.39	1299.00
397.58	1303.68
397.77	1259.21
397.97	1411.34
398.16	1350.49
398.35	1235.80
398.55	1341.13
398.74	1401.98
398.93	1486.24
399.12	1324.74
399.32	1427.73
399.51	1467.52
399.70	1500.28
399.90	1416.02
400.09	1535.39
400.28	1490.92
400.47	1488.58
400.67	1593.90
400.86	1591.56
401.05	1504.96
401.24	1507.30
401.44	1621.99
401.63	1689.87
401.82	1654.76
402.01	1640.72
402.21	1621.99
402.40	1638.38
402.59	1701.57
402.78	1664.12
402.97	1614.97
403.17	1687.53
403.36	1673.48
403.55	1694.55
403.74	1797.53
403.93	1720.29
404.13	1809.23
404.32	1708.59
404.51	1825.62
404.70	1856.04
404.89	1708.59
405.09	1949.67
405.28	1762.42
405.47	1919.24
405.66	1912.22
405.85	1905.20
406.05	1877.11
406.24	1923.92
406.43	1877.11
406.62	1961.37
406.81	1989.46
407.00	1959.03
407.20	1966.05
407.39	1952.01
407.58	2026.90
407.77	2087.76
407.96	2029.24
408.15	2104.14
408.34	2017.54
408.54	2148.61
408.73	2115.84
408.92	2211.81
409.11	2209.47
409.30	2181.38
409.49	2134.57
409.68	2275.00
409.87	2139.25
410.07	2312.45
410.26	2235.21
410.45	2267.98
410.64	2291.38
410.83	2387.35
411.02	2314.79
411.21	2452.88
411.40	2314.79
411.59	2441.18
411.78	2490.33
411.98	2520.76
412.17	2478.63
412.36	2527.78
412.55	2495.01
412.74	2485.65
412.93	2672.89
413.12	2672.89
413.31	2792.26
413.50	2801.62
413.69	2689.28
413.88	2794.60
414.07	2855.45
414.26	2782.90
414.45	2818.00
414.64	2708.00
414.83	2860.13
415.02	2892.90
415.22	2899.92
415.41	2951.42
415.60	2988.86
415.79	3016.95
415.98	3098.87
416.17	3145.68
416.36	3157.38
416.55	3035.67
416.74	3138.66
416.93	3178.45
417.12	3047.38
417.31	3108.23
417.50	3325.90
417.69	3243.98
417.88	3229.94
418.07	3236.96
418.26	3251.00
418.45	3337.60
418.64	3309.52
418.83	3482.72
419.02	3431.23
419.21	3396.12
419.39	3485.06
419.58	3384.41
419.77	3290.79
419.96	3463.99
420.15	3531.87
420.34	3581.02
420.53	3566.98
420.72	3655.92
420.91	3496.76
421.10	3719.11
421.29	3517.83
421.48	3637.19
421.67	3662.94
421.86	3609.11
422.05	3536.55
422.24	3503.78
422.43	3688.68
422.61	3667.62
422.80	3700.39
422.99	3733.15
423.18	3662.94
423.37	3817.41
423.56	3749.54
423.75	3648.90
423.94	3691.02
424.13	3536.55
424.32	3576.34
424.50	3714.43
424.69	3803.37
424.88	3756.56
425.07	3712.09
425.26	3754.22
425.45	3805.71
425.64	3801.03
425.83	3866.56
426.01	3915.72
426.20	3939.12
426.39	3742.52
426.58	3833.80
426.77	3850.18
426.96	3770.60
427.15	3707.41
427.33	3934.44
427.52	3918.06
427.71	3871.25
427.90	3997.64
428.09	3948.48
428.28	3967.21
428.46	4107.64
428.65	4021.04
428.84	4093.60
429.03	4002.32
429.22	3943.80
429.40	3950.82
429.59	3976.57
429.78	3995.29
429.97	3901.67
430.16	3885.29
430.34	3915.72
430.53	4098.28
430.72	4124.02
430.91	4163.81
431.10	4194.24
431.28	4217.65
431.47	4479.79
431.66	4421.27
431.85	4379.14
432.03	4535.96
432.22	4454.04
432.41	4554.68
432.60	4376.80
432.79	4479.79
432.97	4547.66
433.16	4449.36
433.35	4435.32
433.54	4533.62
433.72	4592.13
433.91	4634.26
434.10	4599.15
434.28	4660.01
434.47	4507.87
434.66	4641.28
434.85	4723.20
435.03	4770.01
435.22	4711.50
435.41	4894.06
435.59	4842.57
435.78	4786.40
435.97	4964.28
436.16	4905.76
436.34	4805.12
436.53	4903.42
436.72	4938.53
436.90	4699.80
437.09	4849.59
437.28	4896.40
437.46	4994.70
437.65	5008.75
437.84	4975.98
438.02	4952.57
438.21	4980.66
438.40	4945.55
438.58	5078.96
438.77	5128.11
438.96	5102.37
439.14	5263.86
439.33	5469.83
439.52	5357.49
439.70	5516.64
439.89	5444.09
440.08	5540.05
440.26	5533.03
440.45	5427.70
440.63	5528.35
440.82	5769.42
441.01	5507.28
441.19	5776.44
441.38	5863.04
441.57	5947.30
441.75	5860.70
441.94	5944.96
442.12	5947.30
442.31	5940.28
442.50	5996.45
442.68	6146.25
442.87	6120.50
443.05	6090.07
443.24	6143.91
443.43	5998.79
443.61	6188.38
443.80	6174.33
443.98	5951.98
444.17	5961.34
444.35	6179.01
444.54	6321.79
444.73	6218.80
444.91	6115.82
445.10	6164.97
445.28	6054.97
445.47	6237.53
445.65	6143.91
445.84	6164.97
446.02	6223.48
446.21	6225.82
446.39	6258.59
446.58	6368.60
446.77	6370.94
446.95	6141.57
447.14	6186.04
447.32	6445.84
447.51	6342.85
447.69	6303.06
447.88	6394.34
448.06	6438.81
448.25	6340.51
448.43	6443.49
448.62	6539.46
448.80	6457.54
448.99	6384.98
449.17	6574.56
449.36	6492.65
449.54	6546.48
449.73	6518.39
449.91	6773.51
450.10	6855.43
450.28	6752.45
450.46	6846.07
450.65	6778.19
450.83	6729.04
451.02	6696.27
451.20	7007.56
451.39	6918.62
451.57	6956.07
451.76	6593.29
451.94	6883.52
452.13	6986.50
452.31	6848.41
452.49	6764.15
452.68	6874.15
452.86	6897.56
453.05	6836.70
453.23	6911.60
453.42	6759.47
453.60	6963.09
453.78	7197.15
453.97	7098.84
454.15	7033.31
454.34	7197.15
454.52	7091.82
454.70	7129.27
454.89	7059.06
455.07	7267.36
455.26	7316.51
455.44	7370.35
455.62	7276.73
455.81	7187.79
455.99	7438.22
456.17	7438.22
456.36	7592.70
456.54	7611.42
456.73	7581.00
456.91	7770.58
457.09	7758.88
457.28	7934.42
457.46	7445.24
457.64	7836.11
457.83	7646.53
458.01	7698.02
458.19	7943.78
458.38	7754.19
458.56	7756.54
458.74	7845.48
458.93	7786.96
459.11	7892.29
459.29	8044.42
459.48	8102.93
459.66	7784.62
459.84	7995.27
460.03	7990.59
460.21	8102.93
460.39	8252.73
460.57	8236.35
460.76	8081.87
460.94	8322.94
461.12	8402.52
461.31	8269.11
461.49	8259.75
461.67	8463.38
461.85	8454.02
462.04	8416.57
462.22	8973.61
462.40	8638.92
462.59	8264.43
462.77	8360.39
462.95	8524.23
463.13	8500.83
463.32	8535.93
463.50	8645.94
463.68	8454.02
463.86	8564.02
464.05	8315.92
464.23	8676.37
464.41	8641.26
464.59	8355.71
464.78	8678.71
464.96	8547.64
465.14	8669.34
465.32	8835.52
465.50	8861.27
465.69	8901.06
465.87	8746.58
466.05	8788.71
466.23	8842.54
466.41	8720.84
466.60	8903.40
466.78	8879.99
466.96	8805.10
467.14	8924.46
467.32	8938.51
467.51	9025.11
467.69	8833.18
467.87	8971.27
468.05	9205.33
468.23	8924.46
468.41	9137.45
468.60	8973.61
468.78	9214.69
468.96	9153.84
469.14	9371.50
469.32	9268.52
469.50	9151.49
469.69	9191.28
469.87	9366.82
470.05	9554.07
470.23	9376.19
470.41	9249.80
470.59	9500.23
470.77	9296.61
470.95	9561.09
471.14	9692.16
471.32	9668.75
471.50	9788.12
471.68	9874.72
471.86	9951.96
472.04	9991.75
472.22	10040.90
472.40	9919.19
472.58	9970.68
472.77	10031.54
472.95	10244.52
473.13	10459.85
473.31	10129.84
473.49	10071.33
473.67	10148.56
473.85	10249.21
474.03	10368.57
474.21	10602.63
474.39	10553.48
474.57	10616.67
474.75	10436.45
474.93	10729.02
475.12	10609.65
475.30	10890.51
475.48	10862.43
475.66	11047.33
475.84	10778.17
476.02	11037.97
476.20	10953.71
476.38	11157.33
476.56	11517.78
476.74	11360.96
476.92	11110.52
477.10	11571.61
477.28	11690.98
477.46	11501.39
477.64	11513.10
477.82	11735.45
478.00	11943.75
478.18	12133.34
478.36	11967.16
478.54	12138.02
478.72	12533.57
478.90	12369.73
479.08	12549.95
479.26	12526.55
479.44	12657.62
479.62	12648.26
479.80	12947.84
479.98	12779.32
480.16	13254.45
480.34	13046.15
480.52	12922.10
480.70	13170.19
480.88	13193.60
481.06	13411.27
481.24	13317.65
481.41	13568.09
481.59	13717.88
481.77	13554.04
481.95	14012.79
482.13	14176.62
482.31	13954.27
482.49	14008.11
482.67	14153.22
482.85	14562.81
483.03	14441.11
483.21	14778.14
483.39	14602.60
483.57	14970.07
483.74	14829.63
483.92	15091.77
484.10	14651.75
484.28	15192.42
484.46	15393.70
484.64	15557.54
484.82	15386.68
485.00	15637.12
485.18	15922.66
485.35	15896.92
485.53	15726.06
485.71	15585.63
485.89	15990.54
486.07	15850.11
486.25	16159.06
486.43	16372.05
486.61	16500.78
486.78	16489.07
486.96	16711.42
487.14	17224.00
487.32	16812.07
487.50	17179.53
487.68	17724.88
487.85	17598.49
488.03	17853.61
488.21	17818.50
488.39	17710.83
488.57	17919.14
488.75	18162.56
488.92	18441.08
489.10	18792.16
489.28	18892.80
489.46	18771.10
489.64	18977.06
489.81	19171.33
489.99	19236.86
490.17	19611.35
490.35	19775.19
490.53	19644.12
490.70	19524.75
490.88	19857.10
491.06	19901.58
491.24	20039.67
491.41	19845.40
491.59	20306.49
491.77	19927.32
491.95	20266.70
492.13	20484.37
492.30	20933.75
492.48	20936.09
492.66	20840.13
492.84	20989.92
493.01	21174.83
493.19	21310.58
493.37	21451.01
493.54	21532.93
493.72	21762.30
493.90	22136.79
494.08	22218.71
494.25	22422.33
494.43	22328.71
494.61	22623.62
494.79	22878.74
494.96	22410.63
495.14	22455.10
495.32	22747.67
495.49	22843.63
495.67	23122.15
495.85	23126.83
496.02	23529.41
496.20	23374.93
496.38	23529.41
496.55	23419.40
496.73	23896.87
496.91	23836.02
497.09	24203.48
497.26	24215.18
497.44	24056.03
497.62	24219.86
497.79	24290.08
497.97	24332.21
498.14	24517.11
498.32	24891.60
498.50	24898.62
498.67	24989.90
498.85	25212.25
499.03	25282.47
499.20	25284.81
499.38	25455.67
499.56	25247.36
499.73	25593.76
499.91	25420.56
500.08	25750.57
500.26	25291.83
500.44	25420.56
500.61	25563.33
500.79	25961.22
500.97	26057.18
501.14	26574.44
501.32	26331.03
501.49	26534.65
501.67	26574.44
501.84	26726.58
502.02	26595.51
502.20	26757.00
502.37	26888.07
502.55	26897.44
502.72	27260.22
502.90	27339.80
503.07	26920.84
503.25	27475.55
503.43	27428.74
503.60	27363.20
503.78	27494.27
503.95	27023.83
504.13	27442.78
504.30	27487.25
504.48	27648.75
504.65	28107.49
504.83	27871.10
505.01	28123.88
505.18	28315.80
505.36	28332.18
505.53	28322.82
505.71	28463.25
505.88	28982.85
506.06	28435.17
506.23	28409.42
506.41	28589.64
506.58	28964.13
506.76	28840.08
506.93	28891.57
507.11	29240.31
507.28	29083.50
507.46	29247.33
507.63	29317.55
507.81	29163.08
507.98	29242.65
508.16	29902.68
508.33	29425.22
508.50	30153.12
508.68	29965.88
508.85	30000.99
509.03	30099.29
509.20	30228.02
509.38	30338.02
509.55	30417.60
509.73	30314.62
509.90	30237.38
510.08	30164.82
510.25	30448.03
510.42	30415.26
510.60	30974.65
510.77	30909.11
510.95	31164.23
511.12	31084.65
511.30	30995.71
511.47	31409.99
511.64	31573.83
511.82	31489.57
511.99	31002.74
512.17	31515.31
512.34	31159.55
512.51	31522.34
512.69	31756.39
512.86	31861.71
513.04	31955.33
513.21	31707.24
513.38	31845.33
513.56	32020.87
513.73	31695.53
513.90	32067.68
514.08	32051.30
514.25	31929.59
514.43	32098.11
514.60	32503.02
514.77	32467.91
514.95	32636.43
515.12	32449.19
515.29	32818.99
515.47	33244.97
515.64	33097.52
515.81	32701.96
515.99	32861.12
516.16	33027.30
516.33	32837.72
516.51	33015.60
516.68	32505.36
516.85	32774.52
517.03	32980.49
517.20	33280.08
517.37	33605.41
517.54	33504.77
517.72	33558.60
517.89	33165.39
518.06	33467.32
518.24	33563.28
518.41	33495.41
518.58	33612.43
518.75	33530.51
518.93	33958.83
519.10	33731.80
519.27	33844.15
519.45	34616.52
519.62	34373.11
519.79	34504.18
519.96	34602.48
520.14	34440.98
520.31	34527.58
520.48	34621.20
520.65	34635.25
520.83	34780.36
521.00	35147.82
521.17	35016.75
521.34	34885.68
521.52	35079.95
521.69	35072.93
521.86	35138.46
522.03	35133.78
522.20	35477.84
522.38	35426.35
522.55	35931.90
522.72	35440.39
522.89	35311.66
523.07	35569.12
523.24	35594.87
523.41	35751.68
523.58	35775.09
523.75	36025.53
523.92	36311.07
524.10	35861.69
524.27	36222.13
524.44	36495.97
524.61	36304.05
524.78	36268.94
524.96	36563.85
525.13	36985.15
525.30	36865.78
525.47	37167.71
525.64	36575.55
525.81	36222.13
525.98	36928.97
526.16	36261.92
526.33	36559.17
526.50	36907.91
526.67	36343.84
526.84	36910.25
527.01	36692.58
527.18	36760.45
527.36	37481.34
527.53	36931.31
527.70	37343.25
527.87	37745.82
528.04	37333.89
528.21	37385.38
528.38	37619.43
528.55	38022.00
528.72	37708.37
528.89	37963.49
529.07	38066.47
529.24	37624.11
529.41	37811.35
529.58	37376.01
529.75	37759.86
529.92	37848.80
530.09	38206.90
530.26	38237.33
530.43	38115.62
530.60	38494.79
530.77	37968.17
530.94	38525.22
531.11	38309.89
531.28	38693.74
531.46	38703.10
531.63	38696.08
531.80	38944.17
531.97	38726.50
532.14	38562.67
532.31	38536.92
532.48	38941.83
532.65	38876.30
532.82	39021.41
532.99	39056.52
533.16	38651.61
533.33	39225.04
533.50	39246.10
533.67	39122.05
533.84	39021.41
534.01	39100.99
534.18	38930.13
534.35	40006.78
534.52	39236.74
534.69	39391.22
534.86	39199.29
535.03	39564.42
535.20	40048.91
535.37	39934.22
535.54	39920.18
535.71	40034.86
535.88	39777.40
536.05	39948.26
536.22	39849.96
536.38	40060.61
536.55	39985.71
536.72	40058.27
536.89	39770.38
537.06	40140.19
537.23	39899.11
537.40	40105.08
537.57	40289.98
537.74	40081.67
537.91	40502.97
538.08	40327.43
538.25	40524.04
538.42	40079.33
538.59	40950.01
538.75	40168.27
538.92	40582.55
539.09	40442.12
539.26	40233.81
539.43	40942.99
539.60	40378.92
539.77	40439.78
539.94	40730.00
540.11	40643.40
540.28	40486.59
540.44	40837.67
540.61	40910.22
540.78	40374.24
540.95	40428.07
541.12	40374.24
541.29	40760.43
541.46	40938.31
541.62	41013.21
541.79	41333.86
541.96	40765.11
542.13	40582.55
542.30	41163.00
542.47	41483.66
542.63	40851.71
542.80	41420.46
542.97	41776.22
543.14	41956.44
543.31	41642.81
543.48	41951.76
543.64	42000.91
543.81	42057.09
543.98	41949.42
544.15	41691.96
544.32	42171.77
544.48	42616.47
544.65	42050.06
544.82	42113.26
544.99	41598.34
545.16	42653.92
545.32	41984.53
545.49	42396.46
545.66	42848.19
545.83	42281.78
546.00	42714.78
546.16	42464.34
546.33	41869.84
546.50	41745.80
546.67	42607.11
546.83	41780.90
547.00	42672.65
547.17	42611.79
547.34	42452.64
547.50	42525.19
547.67	42834.14
547.84	42784.99
548.00	42997.98
548.17	42972.24
548.34	43377.15
548.51	42724.14
548.67	42934.79
548.84	43318.64
549.01	42780.31
549.18	42831.80
549.34	43136.07
549.51	42983.94
549.68	43166.50
549.84	43124.37
550.01	43061.18
550.18	43325.66
550.34	43033.09
550.51	43285.87
550.68	43225.01
550.84	43005.00
551.01	43473.11
551.18	43311.61
551.34	43459.07
551.51	43213.31
551.68	43393.53
551.84	43784.40
552.01	43328.00
552.18	43178.20
552.34	43438.00
552.51	43096.28
552.68	43510.56
552.84	43700.14
553.01	43824.19
553.18	43529.28
553.34	43449.70
553.51	44018.46
553.67	43878.02
553.84	44072.29
554.01	44074.63
554.17	44573.16
554.34	44025.48
554.51	44105.06
554.67	43894.41
554.84	44212.72
555.00	44009.09
555.17	43842.92
555.33	44074.63
555.50	44076.97
555.67	44191.65
555.83	44301.66
556.00	44320.38
556.16	44296.98
556.33	44252.51
556.50	44430.39
556.66	44168.25
556.83	44147.18
556.99	44144.84
557.16	44659.76
557.32	44444.43
557.49	44629.34
557.65	44264.21
557.82	44196.34
557.98	44519.33
558.15	44397.62
558.32	44116.76
558.48	44587.21
558.65	44830.62
558.81	44093.35
558.98	44875.09
559.14	44247.83
559.31	44339.11
559.47	44673.81
559.64	44748.70
559.80	44622.31
559.97	44781.47
560.13	44797.85
560.30	44502.95
560.46	44638.70
560.63	45015.52
560.79	44790.83
560.96	44680.83
561.12	45195.74
561.29	45170.00
561.45	44919.56
561.61	44793.17
561.78	44779.13
561.94	44800.19
562.11	45202.77
562.27	44837.64
562.44	44964.03
562.60	45223.83
562.77	44891.48
562.93	45003.82
563.10	45181.70
563.26	45308.09
563.42	45141.91
563.59	44779.13
563.75	44818.92
563.92	45504.70
564.08	45052.97
564.24	45214.47
564.41	45500.01
564.57	45022.54
564.74	45312.77
564.90	45179.36
565.07	44872.75
565.23	44783.81
565.39	45052.97
565.56	45488.31
565.72	44795.51
565.88	45525.76
566.05	45083.40
566.21	45130.21
566.38	44931.26
566.54	45242.56
566.70	45258.94
566.87	45549.17
567.03	45242.56
567.19	46068.76
567.36	45361.92
567.52	45034.25
567.68	45319.79
567.85	45158.30
568.01	45265.96
568.17	45001.48
568.34	45289.37
568.50	45577.25
568.66	45270.64
568.83	45450.86
568.99	45298.73
569.15	45361.92
569.32	45530.44
569.48	44982.76
569.64	45799.60
569.81	45631.08
569.97	45645.13
570.13	45436.82
570.30	45184.04
570.46	45024.89
570.62	45198.09
570.78	44872.75
570.95	45289.37
571.11	45429.80
571.27	45216.81
571.43	45560.87
571.60	45401.71
571.76	45563.21
571.92	45727.05
572.09	45167.66
572.25	45638.11
572.41	45593.64
572.57	45301.07
572.74	45872.16
572.90	45343.20
573.06	45504.70
573.22	45830.03
573.38	45453.20
573.55	45542.14
573.71	46150.68
573.87	45598.32
574.03	45434.48
574.20	44863.39
574.36	45668.53
574.52	45308.09
574.68	45518.74
574.84	45338.52
575.01	45975.14
575.17	45340.86
575.33	45387.67
575.49	45701.30
575.65	45628.74
575.82	45518.74
575.98	45553.85
576.14	45907.27
576.30	45600.66
576.46	45663.85
576.62	45429.80
576.79	45256.60
576.95	45146.59
577.11	45556.19
577.27	45584.27
577.43	45792.58
577.59	45364.26
577.75	45450.86
577.92	45078.72
578.08	45146.59
578.24	45247.24
578.40	45904.93
578.56	45701.30
578.72	45794.92
578.88	45965.78
579.04	45942.38
579.21	45455.54
579.37	45556.19
579.53	45294.05
579.69	45595.98
579.85	45471.93
580.01	45668.53
580.17	45804.28
580.33	45867.48
580.49	45755.13
580.65	45874.50
580.82	45577.25
580.98	45656.83
581.14	45741.09
581.30	45958.76
581.46	45542.14
581.62	45942.38
581.78	46028.98
581.94	46312.18
582.10	46358.99
582.26	46124.94
582.42	46000.89
582.58	45755.13
582.74	45851.09
582.90	45525.76
583.06	46085.15
583.22	45841.73
583.38	46417.50
583.54	45886.20
583.70	45956.42
583.86	45848.75
584.02	45357.24
584.18	45893.22
584.34	45734.07
584.50	46174.09
584.66	45830.03
584.82	45258.94
584.98	45979.82
585.14	45764.49
585.30	45715.34
585.46	45640.45
585.62	45509.38
585.78	45806.62
585.94	45574.91
586.10	45460.23
586.26	45525.76
586.42	45876.84
586.58	45736.41
586.74	46113.23
586.90	45504.70
587.06	45450.86
587.22	45703.64
587.38	45338.52
587.54	45998.55
587.70	46293.46
587.86	45738.75
588.02	45546.82
588.18	45652.15
588.34	45600.66
588.49	45687.26
588.65	45364.26
588.81	45523.42
588.97	44912.54
589.13	45666.19
589.29	45284.68
589.45	45549.17
589.61	45993.87
589.77	45731.73
589.93	45986.85
590.08	46323.88
590.24	46066.42
590.40	45858.12
590.56	45869.82
590.72	45862.80
590.88	45614.70
591.04	45595.98
591.20	46597.73
591.35	46026.63
591.51	46656.24
591.67	46469.00
591.83	46382.40
591.99	45986.85
592.15	45881.52
592.31	46033.66
592.46	45628.74
592.62	46134.30
592.78	46213.88
592.94	46344.95
593.10	45895.56
593.26	46066.42
593.41	45687.26
593.57	46190.47
593.73	45394.69
593.89	46101.53
594.05	45853.44
594.20	45762.15
594.36	46258.35
594.52	45853.44
594.68	45947.06
594.84	46461.97
594.99	45879.18
595.15	45883.86
595.31	46075.79
595.47	46075.79
595.62	46171.75
595.78	45914.29
595.94	46066.42
596.10	46218.56
596.25	46394.10
596.41	46321.54
596.57	46021.95
596.73	46192.81
596.88	45593.64
597.04	46419.84
597.20	46223.24
597.36	46043.02
597.51	46375.37
597.67	46344.95
597.83	46131.96
597.99	46504.10
598.14	46050.04
598.30	45993.87
598.46	46110.89
598.61	46164.73
598.77	45542.14
598.93	45729.39
599.09	45888.54
599.24	46534.53
599.40	46054.72
599.56	46265.37
599.71	46120.26
599.87	46920.72
600.03	45886.20
600.18	45961.10
600.34	46176.43
600.50	45942.38
600.65	45876.84
600.81	46160.05
600.97	46291.12
601.12	46476.02
601.28	45961.10
601.44	46028.98
601.59	46157.70
601.75	45886.20
601.91	46265.37
602.06	45914.29
602.22	46131.96
602.37	46028.98
602.53	46117.92
602.69	46300.48
602.84	46124.94
603.00	45956.42
603.16	46068.76
603.31	45972.80
603.47	45790.24
603.62	45909.61
603.78	46286.43
603.94	46316.86
604.09	46272.39
604.25	45984.51
604.40	46080.47
604.56	46050.04
604.71	46183.45
604.87	46082.81
605.03	46066.42
605.18	46005.57
605.34	45734.07
605.49	45848.75
605.65	46176.43
605.80	46066.42
605.96	46216.22
606.12	46377.72
606.27	46405.80
606.43	45914.29
606.58	46218.56
606.74	45390.01
606.89	45413.41
607.05	45972.80
607.20	45848.75
607.36	45954.08
607.51	46068.76
607.67	45958.76
607.82	45743.43
607.98	45853.44
608.13	45488.31
608.29	45572.57
608.44	45635.77
608.60	45289.37
608.75	45469.59
608.91	45329.16
609.06	45628.74
609.22	45497.67
609.37	45338.52
609.53	45715.34
609.68	45818.33
609.84	45366.60
609.99	45745.77
610.15	45469.59
610.30	46050.04
610.46	45640.45
610.61	45691.94
610.76	45235.53
610.92	45354.90
611.07	45312.77
611.23	45069.36
611.38	45844.07
611.54	45120.85
611.69	45359.58
611.84	45092.76
612.00	45167.66
612.15	45457.88
612.31	45184.04
612.46	45324.47
612.62	45771.52
612.77	45277.66
612.92	45179.36
613.08	45205.11
613.23	45516.40
613.39	45237.87
613.54	45024.89
613.69	44741.68
613.85	45350.22
614.00	45691.94
614.15	45331.50
614.31	45387.67
614.46	45418.10
614.62	45226.17
614.77	45502.35
614.92	45450.86
615.08	45024.89
615.23	44982.76
615.38	44921.90
615.54	44940.63
615.69	44847.00
615.84	44289.96
616.00	45144.25
616.15	45191.06
616.30	44945.31
616.46	44694.87
616.61	44350.81
616.76	44711.25
616.92	44348.47
617.07	44301.66
617.22	44430.39
617.37	44678.49
617.53	45057.65
617.68	44304.00
617.83	44596.57
617.99	45076.38
618.14	44718.28
618.29	44605.93
618.45	44280.60
618.60	44301.66
618.75	44385.92
618.90	44273.57
619.06	44282.94
619.21	44404.64
619.36	44341.45
619.51	44041.86
619.67	44332.09
619.82	44722.96
619.97	44636.36
620.12	44109.74
620.28	43686.10
620.43	44135.48
620.58	44161.23
620.73	44259.53
620.89	44299.32
621.04	44194.00
621.19	44261.87
621.34	44060.58
621.49	44083.99
621.65	43496.52
621.80	44425.71
621.95	43538.65
622.10	43878.02
622.25	43679.08
622.41	43709.50
622.56	43632.27
622.71	43831.21
622.86	43491.83
623.01	43667.37
623.16	43945.90
623.32	43557.37
623.47	43655.67
623.62	43943.56
623.77	43889.73
623.92	43910.79
624.07	43519.92
624.23	43501.20
624.38	43658.01
624.53	43562.05
624.68	43430.98
624.83	43686.10
624.98	43468.43
625.13	43681.42
625.29	43353.74
625.44	43323.32
625.59	43222.67
625.74	43210.97
625.89	42799.04
626.04	43161.82
626.19	43339.70
626.34	43058.84
626.49	43239.06
626.65	43086.92
626.80	42967.55
626.95	42848.19
627.10	42621.16
627.25	42529.87
627.40	42431.57
627.55	42326.25
627.70	42506.47
627.85	42859.89
628.00	42871.59
628.15	43103.31
628.30	42766.27
628.45	42841.17
628.60	42815.42
628.76	42927.77
628.91	43372.47
629.06	42983.94
629.21	42642.22
629.36	42323.91
629.51	42452.64
629.66	42426.89
629.81	42354.33
629.96	42319.23
630.11	42567.32
630.26	42960.53
630.41	42066.45
630.56	42038.36
630.71	42183.48
630.86	42284.12
631.01	42075.81
631.16	41869.84
631.31	42057.09
631.46	41727.07
631.61	42064.11
631.76	41970.49
631.91	42260.71
632.06	42258.37
632.21	42330.93
632.36	42504.13
632.51	42244.33
632.66	42361.36
632.81	41773.88
632.96	41769.20
633.10	41649.83
633.25	41624.09
633.40	42089.85
633.55	42249.01
633.70	41928.36
633.85	42160.07
634.00	41635.79
634.15	41446.21
634.30	41724.73
634.45	41841.76
634.60	41682.60
634.75	41900.27
634.90	41666.22
635.05	41397.06
635.19	41621.75
635.34	41963.46
635.49	41558.55
635.64	41258.96
635.79	41483.66
635.94	41998.57
636.09	41563.23
636.24	41483.66
636.39	41029.59
636.53	41240.24
636.68	41090.44
636.83	41034.27
636.98	41500.04
637.13	40893.84
637.28	41333.86
637.43	41347.90
637.57	41155.98
637.72	41476.63
637.87	41305.77
638.02	40809.58
638.17	40896.18
638.32	41151.30
638.46	40559.14
638.61	40814.26
638.76	41109.17
638.91	40928.95
639.06	40713.62
639.20	41701.32
639.35	41284.71
639.50	40802.56
639.65	40840.01
639.80	41256.62
639.94	40978.10
640.09	40285.30
640.24	40491.27
640.39	40481.91
640.54	40563.82
640.68	40566.16
640.83	40634.04
640.98	39917.84
641.13	40650.42
641.27	40414.03
641.42	40318.07
641.57	40498.29
641.72	40233.81
641.86	40381.26
642.01	40212.74
642.16	40100.40
642.31	39779.74
642.45	40404.67
642.60	39550.37
642.75	40140.19
642.90	40058.27
643.04	40371.90
643.19	40067.63
643.34	40086.36
643.48	40009.12
643.63	39620.59
643.78	39391.22
643.93	39819.53
644.07	40023.16
644.22	39622.93
644.37	40067.63
644.51	39709.53
644.66	40273.60
644.81	39653.36
644.95	40074.65
645.10	39864.00
645.25	39887.41
645.39	39856.98
645.54	39730.59
645.69	39597.18
645.83	39571.44
645.98	39660.38
646.13	39955.29
646.27	39658.04
646.42	39367.81
646.57	39480.16
646.71	39246.10
646.86	39672.08
647.00	39636.97
647.15	39676.76
647.30	39627.61
647.44	39519.95
647.59	39016.73
647.74	38873.96
647.88	39136.10
648.03	39409.94
648.17	39072.90
648.32	38424.57
648.47	38815.44
648.61	39086.95
648.76	39686.12
648.90	38815.44
649.05	39323.34
649.20	39339.72
649.34	39182.91
649.49	39108.01
649.63	38902.04
649.78	38789.70
649.92	38880.98
650.07	39222.70
650.21	38515.86
650.36	38855.23
650.51	38389.47
650.65	38972.26
650.80	39138.44
650.94	39243.76
651.09	39206.31
651.23	38820.13
651.38	38560.33
651.52	38766.29
651.67	38710.12
651.81	38466.70
651.96	38803.74
652.10	38546.28
652.25	38298.19
652.39	38721.82
652.54	38492.45
652.68	38782.68
652.83	38880.98
652.97	38747.57
653.12	38410.53
653.26	38473.73
653.41	38375.42
653.55	38443.30
653.70	38455.00
653.84	38501.81
653.99	38120.31
654.13	38012.64
654.27	38293.50
654.42	38555.64
654.56	37979.87
654.71	38410.53
654.85	37872.21
655.00	38061.79
655.14	37855.82
655.29	37874.55
655.43	37574.96
655.57	37345.59
655.72	37570.28
655.86	37771.57
656.01	37827.74
656.15	37586.66
656.30	37387.72
656.44	37904.98
656.58	37621.77
656.73	37088.13
656.87	37153.66
657.01	37471.98
657.16	37214.52
657.30	37003.87
657.45	37486.02
657.59	37677.94
657.73	37694.33
657.88	37366.65
658.02	37322.18
658.16	37537.51
658.31	37773.91
658.45	37474.32
658.60	37322.18
658.74	37661.56
658.88	37720.07
659.03	37336.23
659.17	36900.89
659.31	37008.55
659.46	36837.69
659.60	36526.40
659.74	36683.22
659.89	36795.56
660.03	36725.35
660.17	36638.75
660.32	36910.25
660.46	36741.73
660.60	36645.77
660.74	37376.01
660.89	37106.85
661.03	36292.35
661.17	36121.49
661.32	36023.19
661.46	36566.19
661.60	36465.55
661.74	36474.91
661.89	36285.33
662.03	36257.24
662.17	35936.59
662.31	36189.36
662.46	35992.76
662.60	36194.04
662.74	35732.96
662.88	36172.98
663.03	35924.88
663.17	35747.00
663.31	35796.15
663.45	36025.53
663.60	36140.21
663.74	35335.07
663.88	35590.19
664.02	35526.99
664.17	35606.57
664.31	35173.57
664.45	35126.76
664.59	35669.76
664.73	35622.95
664.88	35365.49
665.02	35075.27
665.16	35358.47
665.30	35173.57
665.44	35026.12
665.59	34885.68
665.73	35370.18
665.87	34728.87
666.01	34637.59
666.15	34696.10
666.29	34946.54
666.44	34960.58
666.58	34408.22
666.72	34642.27
666.86	35374.86
667.00	34937.18
667.14	34380.13
667.28	34534.60
667.43	34206.93
667.57	34426.94
667.71	33998.62
667.85	34078.20
667.99	34106.29
668.13	33834.78
668.27	33668.61
668.41	34209.27
668.56	33944.79
668.70	34216.29
668.84	33902.66
668.98	33556.26
669.12	33558.60
669.26	33701.37
669.40	33614.77
669.54	33752.87
669.68	33490.73
669.82	33542.22
669.96	32931.34
670.10	33347.95
670.25	33109.22
670.39	33425.19
670.53	33420.51
670.67	33008.58
670.81	33479.02
670.95	33273.06
671.09	33062.41
671.23	32795.59
671.37	32973.47
671.51	32840.06
671.65	33029.64
671.79	32584.94
671.93	32170.66
672.07	32577.92
672.21	32233.86
672.35	32491.32
672.49	32346.20
672.63	32491.32
672.77	32236.20
672.91	32608.34
673.05	31999.80
673.19	32116.83
673.33	32175.34
673.47	31842.99
673.61	31751.71
673.75	31625.32
673.89	31637.02
674.03	31204.02
674.17	31531.70
674.31	31339.77
674.45	31669.79
674.59	30988.69
674.73	31145.51
674.87	31398.29
675.01	31688.51
675.15	31316.37
675.29	31014.44
675.43	31220.41
675.56	31309.35
675.70	31009.76
675.84	30682.08
675.98	29764.59
676.12	30541.65
676.26	30567.40
676.40	30609.53
676.54	30630.59
676.68	30328.66
676.82	29825.45
676.96	30242.06
677.10	29862.90
677.23	29750.55
677.37	29965.88
677.51	29905.02
677.65	29876.94
677.79	29436.92
677.93	29434.58
678.07	29392.45
678.21	29139.67
678.34	29017.96
678.48	28903.28
678.62	29003.92
678.76	28636.45
678.90	28790.93
679.04	28276.01
679.18	28746.46
679.31	28313.46
679.45	28041.96
679.59	28252.61
679.73	28446.87
679.87	28243.24
680.00	28570.92
680.14	28144.94
680.28	27936.63
680.42	27845.35
680.56	27922.59
680.70	28126.22
680.83	28053.66
680.97	27660.45
681.11	27576.19
681.25	27171.28
681.39	27503.64
681.52	27119.79
681.66	27103.40
681.80	27119.79
681.94	27295.33
682.07	26941.91
682.21	26761.69
682.35	26539.33
682.49	26834.24
682.62	26960.63
682.76	26438.69
682.90	26347.41
683.04	26284.22
683.17	26497.20
683.31	26298.26
683.45	26005.69
683.59	26061.87
683.72	25984.63
683.86	25523.54
684.00	25839.51
684.13	25762.28
684.27	25788.02
684.41	25502.48
684.55	25275.45
684.68	25273.10
684.82	24947.77
684.96	25158.42
685.09	25331.62
685.23	24783.93
685.37	25039.05
685.50	24917.34
685.64	24982.88
685.78	24896.28
685.91	24865.85
686.05	24285.40
686.19	24362.64
686.32	23997.51
686.46	24016.24
686.60	23681.54
686.73	23648.77
686.87	23620.69
687.01	23365.57
687.14	23335.14
687.28	23194.71
687.42	23356.21
687.55	23185.35
687.69	23332.80
687.82	23152.58
687.96	22995.76
688.10	22979.38
688.23	22909.16
688.37	22757.03
688.50	22752.35
688.64	22480.85
688.78	22396.59
688.91	22417.65
689.05	22422.33
689.18	22272.54
689.32	21792.73
689.46	21951.88
689.59	22258.49
689.73	22115.72
689.86	22221.05
690.00	22122.74
690.13	22422.33
690.27	21928.48
690.41	22012.74
690.54	21568.04
690.68	21348.03
690.81	21240.36
690.95	21158.44
691.08	21418.24
691.22	21287.17
691.35	21268.45
691.49	21568.04
691.62	21153.76
691.76	21186.53
691.89	21118.65
692.03	20896.30
692.16	20545.22
692.30	20690.34
692.43	20678.63
692.57	20435.22
692.70	20105.20
692.84	20278.40
692.97	20191.80
693.11	20196.48
693.24	19735.40
693.38	19730.72
693.51	19625.39
693.65	20166.06
693.78	19866.47
693.92	19779.87
694.05	19695.61
694.19	19475.60
694.32	19520.07
694.45	19503.68
694.59	19410.06
694.72	19154.94
694.86	19204.10
694.99	18518.32
695.13	18850.67
695.26	18480.87
695.39	18754.71
695.53	18609.60
695.66	18789.82
695.80	18555.77
695.93	18101.70
696.07	18258.52
696.20	18412.99
696.33	18654.07
696.47	18532.36
696.60	18635.35
696.73	18136.81
696.87	18033.83
697.00	18115.75
697.14	17792.75
697.27	17514.23
697.40	17797.43
697.54	17465.08
697.67	17390.18
697.80	17336.35
697.94	17404.22
698.07	17277.83
698.21	17343.37
698.34	16999.31
698.47	17039.10
698.61	17106.98
698.74	16917.39
698.87	16669.30
699.01	16568.65
699.14	16533.54
699.27	16643.55
699.40	16772.28
699.54	16294.81
699.67	16308.85
699.80	16196.51
699.94	16063.10
700.07	16269.06
700.20	16222.25
700.34	15896.92
700.47	15995.22
700.60	15885.22
700.73	15967.13
700.87	15917.98
701.00	15873.51
701.13	15857.13
701.26	15784.57
701.40	15674.57
701.53	15513.07
701.66	15459.24
701.79	15426.47
701.93	15466.26
702.06	14958.36
702.19	15187.74
702.32	15157.31
702.46	14878.79
702.59	14867.08
702.72	14904.53
702.85	14878.79
702.99	15190.08
703.12	14956.02
703.25	14434.08
703.38	14766.44
703.51	14508.98
703.65	14396.64
703.78	14473.87
703.91	14642.39
704.04	14260.88
704.17	14235.14
704.31	14176.62
704.44	13713.20
704.57	13963.64
704.70	13870.01
704.83	13694.47
704.96	13998.74
705.10	13881.72
705.23	13755.33
>>>>>End Processed Spectral Data<<<<<
