SpectraSuite Data File
++++++++++++++++++++++++++++++++++++
Date: Fri Oct 25 10:43:20 EDT 2013
User: price-jones
Dark Spectrum Present: No
Reference Spectrum Present: No
Number of Sampled Component Spectra: 1
Spectrometers: USB2+H05261
Integration Time (usec): 100000 (USB2+H05261)
Spectra Averaged: 1 (USB2+H05261)
Boxcar Smoothing: 0 (USB2+H05261)
Correct for Electrical Dark: No (USB2+H05261)
Strobe/Lamp Enabled: No (USB2+H05261)
Correct for Detector Non-linearity: No (USB2+H05261)
Correct for Stray Light: No (USB2+H05261)
Number of Pixels in Processed Spectrum: 2048
>>>>>Begin Processed Spectral Data<<<<<
365.73	126.39
365.92	126.39
366.12	126.39
366.32	0.00
366.52	28.09
366.72	60.85
366.91	100.64
367.11	7.02
367.31	0.00
367.51	7.02
367.70	0.00
367.90	7.02
368.10	0.00
368.30	37.45
368.49	30.43
368.69	9.36
368.89	0.00
369.09	56.17
369.28	72.56
369.48	95.96
369.68	53.83
369.87	35.11
370.07	67.88
370.27	124.05
370.47	175.54
370.66	383.85
370.86	407.25
371.06	526.62
371.25	411.93
371.45	463.43
371.65	517.26
371.84	468.11
372.04	498.53
372.24	498.53
372.44	486.83
372.63	489.17
372.83	447.04
373.03	524.28
373.22	519.60
373.42	503.22
373.62	489.17
373.81	557.05
374.01	592.16
374.21	517.26
374.40	547.69
374.60	531.30
374.79	594.50
374.99	559.39
375.19	599.18
375.38	613.22
375.58	634.29
375.78	608.54
375.97	695.14
376.17	655.35
376.37	648.33
376.56	603.86
376.76	554.71
376.95	627.26
377.15	629.60
377.35	716.20
377.54	550.03
377.74	643.65
377.93	657.69
378.13	692.80
378.33	676.41
378.52	667.05
378.72	648.33
378.91	606.20
379.11	657.69
379.31	608.54
379.50	676.41
379.70	709.18
379.89	685.78
380.09	655.35
380.28	695.14
380.48	718.54
380.68	664.71
380.87	737.27
381.07	706.84
381.26	763.01
381.46	725.57
381.65	645.99
381.85	741.95
382.04	725.57
382.24	678.76
382.43	713.86
382.63	669.39
382.83	734.93
383.02	730.25
383.22	723.23
383.41	702.16
383.61	730.25
383.80	770.04
384.00	774.72
384.19	772.38
384.39	798.12
384.58	873.02
384.78	875.36
384.97	821.53
385.17	830.89
385.36	837.91
385.56	755.99
385.75	835.57
385.95	858.98
386.14	840.25
386.34	828.55
386.53	861.32
386.72	713.86
386.92	917.49
387.11	884.72
387.31	891.74
387.50	835.57
387.70	873.02
387.89	856.64
388.09	842.59
388.28	884.72
388.48	945.58
388.67	987.71
388.86	889.40
389.06	997.07
389.25	945.58
389.45	929.19
389.64	973.66
389.84	1102.39
390.03	917.49
390.22	973.66
390.42	943.24
390.61	1025.15
390.81	1020.47
391.00	1057.92
391.19	1027.50
391.39	1025.15
391.58	1125.80
391.78	1034.52
391.97	1071.97
392.16	987.71
392.36	1029.84
392.55	1013.45
392.75	1053.24
392.94	983.02
393.13	919.83
393.33	873.02
393.52	990.05
393.71	1081.33
393.91	1128.14
394.10	1083.67
394.29	1181.97
394.49	1191.33
394.68	1200.69
394.88	1179.63
395.07	1275.59
395.26	1306.02
395.46	1174.95
395.65	1270.91
395.84	1224.10
396.04	1256.87
396.23	1210.06
396.42	1125.80
396.62	1160.91
396.81	1123.46
397.00	1226.44
397.19	1238.14
397.39	1306.02
397.58	1387.94
397.77	1385.60
397.97	1387.94
398.16	1401.98
398.35	1472.20
398.55	1509.65
398.74	1483.90
398.93	1481.56
399.12	1469.86
399.32	1551.78
399.51	1551.78
399.70	1582.20
399.90	1577.52
400.09	1540.07
400.28	1633.69
400.47	1558.80
400.67	1647.74
400.86	1687.53
401.05	1675.82
401.24	1699.23
401.44	1703.91
401.63	1767.10
401.82	1678.16
402.01	1689.87
402.21	1771.79
402.40	1729.66
402.59	1715.61
402.78	1720.29
402.97	1734.34
403.17	1708.59
403.36	1795.19
403.55	1762.42
403.74	1975.41
403.93	1926.26
404.13	1872.43
404.32	1900.52
404.51	1907.54
404.70	1825.62
404.89	1802.21
405.09	1982.43
405.28	1970.73
405.47	1947.33
405.66	1947.33
405.85	1870.09
406.05	1973.07
406.24	1944.99
406.43	2019.88
406.62	2106.48
406.81	2115.84
407.00	2115.84
407.20	1947.33
407.39	2019.88
407.58	1989.46
407.77	2232.87
407.96	2101.80
408.15	2291.38
408.34	2183.72
408.54	2181.38
408.73	2286.70
408.92	2272.66
409.11	2328.83
409.30	2326.49
409.49	2291.38
409.68	2267.98
409.87	2263.30
410.07	2321.81
410.26	2324.15
410.45	2310.11
410.64	2443.52
410.83	2551.18
411.02	2516.08
411.21	2572.25
411.40	2462.24
411.59	2642.46
411.78	2600.34
411.98	2565.23
412.17	2682.25
412.36	2614.38
412.55	2717.36
412.74	2752.47
412.93	2717.36
413.12	2670.55
413.31	2693.96
413.50	2843.75
413.69	2815.66
413.88	2871.84
414.07	2803.96
414.26	2883.54
414.45	3002.91
414.64	3005.25
414.83	2932.69
415.02	3005.25
415.22	3045.04
415.41	2995.89
415.60	3052.06
415.79	3124.62
415.98	3218.24
416.17	3108.23
416.36	3145.68
416.55	3234.62
416.74	3290.79
416.93	3152.70
417.12	3197.17
417.31	3391.44
417.50	3293.13
417.69	3361.01
417.88	3389.10
418.07	3412.50
418.26	3361.01
418.45	3449.95
418.64	3515.48
418.83	3545.91
419.02	3571.66
419.21	3555.27
419.39	3616.13
419.58	3597.40
419.77	3489.74
419.96	3655.92
420.15	3789.33
420.34	3688.68
420.53	3705.07
420.72	3758.90
420.91	3730.81
421.10	3861.88
421.29	3691.02
421.48	3775.28
421.67	3817.41
421.86	3829.12
422.05	3728.47
422.24	3723.79
422.43	3817.41
422.61	3901.67
422.80	3925.08
422.99	3812.73
423.18	3899.33
423.37	4070.19
423.56	3911.04
423.75	3939.12
423.94	3927.42
424.13	3714.43
424.32	3712.09
424.50	3964.87
424.69	3911.04
424.88	4011.68
425.07	3784.65
425.26	3896.99
425.45	4007.00
425.64	3920.40
425.83	3861.88
426.01	3971.89
426.20	3969.55
426.39	3915.72
426.58	3868.91
426.77	3957.85
426.96	3850.18
427.15	4105.30
427.33	4088.92
427.52	4126.36
427.71	4035.08
427.90	4128.70
428.09	4044.45
428.28	4219.99
428.46	4173.18
428.65	4184.88
428.84	4142.75
429.03	4227.01
429.22	4086.58
429.40	4011.68
429.59	4056.15
429.78	3974.23
429.97	3838.48
430.16	4049.13
430.34	4147.43
430.53	4156.79
430.72	4217.65
430.91	4243.39
431.10	4372.12
431.28	4355.74
431.47	4650.64
431.66	4608.51
431.85	4444.68
432.03	4648.30
432.22	4578.09
432.41	4627.24
432.60	4674.05
432.79	4624.90
432.97	4784.06
433.16	4746.61
433.35	4667.03
433.54	4580.43
433.72	4601.49
433.91	4477.44
434.10	4746.61
434.28	4830.87
434.47	4910.44
434.66	4903.42
434.85	5060.24
435.03	5050.88
435.22	4947.89
435.41	5027.47
435.59	5022.79
435.78	5039.17
435.97	5081.30
436.16	5074.28
436.34	4999.38
436.53	5231.10
436.72	5270.89
436.90	5078.96
437.09	5146.84
437.28	5048.54
437.46	5144.50
437.65	5198.33
437.84	5296.63
438.02	5139.82
438.21	5093.01
438.40	5135.14
438.58	5434.72
438.77	5528.35
438.96	5380.89
439.14	5731.97
439.33	5664.10
439.52	5582.18
439.70	5643.03
439.89	5706.23
440.08	5654.73
440.26	5636.01
440.45	5830.27
440.63	5755.38
440.82	5966.03
441.01	6019.86
441.19	5778.78
441.38	6115.82
441.57	5987.09
441.75	6101.78
441.94	6347.53
442.12	6415.41
442.31	6328.81
442.50	6389.66
442.68	6223.48
442.87	6216.46
443.05	6375.62
443.24	6546.48
443.43	6452.86
443.61	6307.74
443.80	6586.27
443.98	6403.71
444.17	6202.42
444.35	6457.54
444.54	6691.59
444.73	6548.82
444.91	6532.44
445.10	6321.79
445.28	6436.47
445.47	6363.92
445.65	6340.51
445.84	6595.63
446.02	6663.51
446.21	6499.67
446.39	6637.76
446.58	6574.56
446.77	6487.96
446.95	6497.33
447.14	6731.38
447.32	6778.19
447.51	6546.48
447.69	6466.90
447.88	6633.08
448.06	6663.51
448.25	6626.06
448.43	6670.53
448.62	6691.59
448.80	6583.93
448.99	6663.51
449.17	6995.86
449.36	6619.04
449.54	6979.48
449.73	7122.25
449.91	7101.19
450.10	7155.02
450.28	7194.81
450.46	6937.35
450.65	7208.85
450.83	7126.93
451.02	7190.13
451.20	7185.44
451.39	7332.90
451.57	7311.83
451.76	7176.08
451.94	7173.74
452.13	7302.47
452.31	7110.55
452.49	7157.36
452.68	7265.02
452.86	7019.27
453.05	7164.38
453.23	7220.55
453.42	7377.37
453.60	7236.94
453.78	7466.31
453.97	7506.10
454.15	7449.93
454.34	7555.25
454.52	7435.88
454.70	7527.16
454.89	7545.89
455.07	7449.93
455.26	7824.41
455.44	7775.26
455.62	7735.47
455.81	7744.83
455.99	7903.99
456.17	7712.07
456.36	7791.64
456.54	7747.17
456.73	7929.74
456.91	7983.57
457.09	8161.45
457.28	8189.53
457.46	8159.11
457.64	8025.70
457.83	8086.55
458.01	8060.80
458.19	8205.92
458.38	8046.76
458.56	8238.69
458.74	8238.69
458.93	8126.34
459.11	8231.66
459.29	8390.82
459.48	8250.39
459.66	8229.32
459.84	8493.80
460.03	8571.04
460.21	8379.12
460.39	8528.91
460.57	8524.23
460.76	8538.27
460.94	8620.19
461.12	8514.87
461.31	8484.44
461.49	8561.68
461.67	8690.41
461.85	8865.95
462.04	8702.11
462.22	9404.27
462.40	9097.66
462.59	8784.03
462.77	8772.33
462.95	8990.00
463.13	8903.40
463.32	8943.19
463.50	9001.70
463.68	8943.19
463.86	9001.70
464.05	9186.60
464.23	8917.44
464.41	9004.04
464.59	8950.21
464.78	9060.21
464.96	8943.19
465.14	9081.28
465.32	9123.41
465.50	9163.20
465.69	9446.40
465.87	9081.28
466.05	9034.47
466.23	9252.14
466.41	9116.39
466.60	9355.12
466.78	9025.11
466.96	9104.68
467.14	9362.14
467.32	9135.11
467.51	9303.63
467.69	9170.22
467.87	9448.74
468.05	9617.26
468.23	9401.93
468.41	9355.12
468.60	9486.19
468.78	9570.45
468.96	9516.62
469.14	9434.70
469.32	9703.86
469.50	9481.51
469.69	9689.82
469.87	9680.46
470.05	9811.53
470.23	9577.47
470.41	9741.31
470.59	9958.98
470.77	9858.34
470.95	9963.66
471.14	9947.28
471.32	10038.56
471.50	10099.41
471.68	10251.55
471.86	10326.44
472.04	10279.63
472.22	10534.75
472.40	10150.90
472.58	10366.23
472.77	10656.46
472.95	10480.92
473.13	10707.95
473.31	10562.84
473.49	10466.88
473.67	10457.51
473.85	10799.23
474.03	11056.69
474.21	10822.64
474.39	11059.03
474.57	10972.43
474.75	11117.54
474.93	11101.16
475.12	10904.56
475.30	11173.72
475.48	11337.56
475.66	11414.79
475.84	11201.80
476.02	11587.99
476.20	11330.53
476.38	11587.99
476.56	11534.16
476.74	11726.08
476.92	11829.07
477.10	11709.70
477.28	12042.06
477.46	12091.21
477.64	12280.79
477.82	12393.14
478.00	12556.97
478.18	12477.40
478.36	12400.16
478.54	12819.11
478.72	12564.00
478.90	12826.14
479.08	12919.76
479.26	13060.19
479.44	13025.08
479.62	13198.28
479.80	13334.03
479.98	13486.17
480.16	13572.77
480.34	13708.52
480.52	13624.26
480.70	13518.93
480.88	13612.56
481.06	13940.23
481.24	13900.44
481.41	14010.45
481.59	14356.85
481.77	14354.51
481.95	14256.20
482.13	14539.41
482.31	14534.73
482.49	14855.38
482.67	14789.85
482.85	14991.13
483.03	15208.80
483.21	14932.62
483.39	15220.50
483.57	15356.25
483.74	15419.45
483.92	15501.37
484.10	15407.75
484.28	15901.60
484.46	15754.15
484.64	16233.96
484.82	15967.13
485.00	16334.60
485.18	16135.65
485.35	16444.60
485.53	16315.87
485.71	16203.53
485.89	16418.86
486.07	16465.67
486.25	16559.29
486.43	16641.21
486.61	16865.90
486.78	17247.41
486.96	17221.66
487.14	17654.66
487.32	17731.90
487.50	17956.59
487.68	17736.58
487.85	18389.59
488.03	18548.75
488.21	18647.05
488.39	18377.89
488.57	18523.00
488.75	18778.12
488.92	18874.08
489.10	19604.33
489.28	19012.17
489.46	19557.52
489.64	19199.41
489.81	19974.13
489.99	20229.25
490.17	20250.32
490.35	20074.77
490.53	19871.15
490.70	20400.11
490.88	20554.58
491.06	20755.87
491.24	20629.48
491.41	20334.57
491.59	21043.76
491.77	20409.47
491.95	21113.97
492.13	21247.38
492.30	21401.86
492.48	21577.40
492.66	21802.09
492.84	21462.71
493.01	21919.12
493.19	21874.65
493.37	22218.71
493.54	22052.53
493.72	22340.41
493.90	22356.80
494.08	22848.31
494.25	23239.18
494.43	23042.57
494.61	23271.95
494.79	23274.29
494.96	23183.01
495.14	23555.15
495.32	23700.26
495.49	23442.81
495.67	23754.10
495.85	23695.58
496.02	24353.27
496.20	24484.34
496.38	24245.61
496.55	24346.25
496.73	24952.45
496.91	24755.85
497.09	25088.20
497.26	24861.17
497.44	25242.68
497.62	24994.58
497.79	25282.47
497.97	25048.41
498.14	25067.14
498.32	25296.51
498.50	25542.27
498.67	26071.23
498.85	25750.57
499.03	26061.87
499.20	25970.58
499.38	26431.67
499.56	26209.32
499.73	25956.54
499.91	26155.49
500.08	26253.79
500.26	26066.55
500.44	26515.93
500.61	26314.64
500.79	26490.18
500.97	26668.06
501.14	27075.32
501.32	26885.73
501.49	27124.47
501.67	27253.20
501.84	27047.23
502.02	27314.05
502.20	27300.01
502.37	27854.72
502.55	27651.09
502.72	27805.56
502.90	28123.88
503.07	28135.58
503.25	27683.86
503.43	27908.55
503.60	27896.85
503.78	27971.74
503.95	28051.32
504.13	28285.37
504.30	28526.45
504.48	28510.07
504.65	28479.64
504.83	28732.42
505.01	28954.77
505.18	29287.12
505.36	29455.64
505.53	28709.01
505.71	29472.03
505.88	29390.11
506.06	29500.11
506.23	29776.30
506.41	29207.55
506.58	29748.21
506.76	29825.45
506.93	29755.23
507.11	29567.99
507.28	29951.84
507.46	29769.27
507.63	29954.18
507.81	30019.71
507.98	30305.26
508.16	30293.55
508.33	30331.00
508.50	30433.99
508.68	30279.51
508.85	30827.20
509.03	30836.56
509.20	31227.43
509.38	30955.93
509.55	31264.88
509.73	30829.54
509.90	31204.02
510.08	31557.44
510.25	30878.69
510.42	32025.55
510.60	31431.05
510.77	31681.49
510.95	31995.12
511.12	31482.55
511.30	31878.10
511.47	32067.68
511.64	32070.02
511.82	32716.01
511.99	32046.62
512.17	32147.26
512.34	31924.91
512.51	32751.12
512.69	32081.72
512.86	32219.81
513.04	33060.07
513.21	32851.76
513.38	32840.06
513.56	32526.42
513.73	32484.30
513.90	33092.83
514.08	32664.52
514.25	33027.30
514.43	33078.79
514.60	33034.32
514.77	33219.22
514.95	33907.34
515.12	33413.49
515.29	33373.70
515.47	33968.19
515.64	33731.80
515.81	33785.63
515.99	33324.55
516.16	33677.97
516.33	33448.60
516.51	33586.69
516.68	33305.82
516.85	33088.15
517.03	33415.83
517.20	33710.74
517.37	34075.86
517.54	33923.72
517.72	34164.80
517.89	33923.72
518.06	33574.98
518.24	34010.32
518.41	33886.28
518.58	34258.42
518.75	34389.49
518.93	34349.70
519.10	34771.00
519.27	35005.05
519.45	34677.38
519.62	35285.92
519.79	35194.64
519.96	35208.68
520.14	34478.43
520.31	35124.42
520.48	35405.28
520.65	35335.07
520.83	36013.82
521.00	35728.28
521.17	35613.59
521.34	35857.01
521.52	35871.05
521.69	35838.28
521.86	35976.37
522.03	36020.84
522.20	35941.27
522.38	36002.12
522.55	36116.81
522.72	35887.43
522.89	36208.09
523.07	36425.76
523.24	36397.67
523.41	36493.63
523.58	36290.01
523.75	37006.21
523.92	37193.45
524.10	37090.47
524.27	37062.38
524.44	37455.59
524.61	36627.04
524.78	37209.84
524.96	37130.26
525.13	37163.03
525.30	37525.81
525.47	37638.15
525.64	37141.96
525.81	37579.64
525.98	37244.94
526.16	37326.86
526.33	37266.01
526.50	37064.72
526.67	37118.56
526.84	37053.02
527.01	36622.36
527.18	37420.48
527.36	38167.12
527.53	37968.17
527.70	38195.20
527.87	38054.77
528.04	38099.24
528.21	38440.96
528.38	38609.48
528.55	38176.48
528.72	39166.52
528.89	38583.73
529.07	38597.77
529.24	38347.34
529.41	38251.38
529.58	38389.47
529.75	38649.27
529.92	38719.48
530.09	39077.58
530.26	39037.80
530.43	39140.78
530.60	39084.61
530.77	38918.43
530.94	39194.61
531.11	39229.72
531.28	39398.24
531.46	39746.98
531.63	39386.54
531.80	39285.89
531.97	39655.70
532.14	38995.67
532.31	38780.34
532.48	39412.28
532.65	39353.77
532.82	39096.31
532.99	39473.13
533.16	39304.62
533.33	39798.47
533.50	39852.30
533.67	39887.41
533.84	39978.69
534.01	39662.72
534.18	39618.25
534.35	40163.59
534.52	39978.69
534.69	40264.24
534.86	40383.60
535.03	40306.37
535.20	40341.47
535.37	40594.25
535.54	40966.40
535.71	40128.48
535.88	40631.70
536.05	40683.19
536.22	40407.01
536.38	40505.31
536.55	40367.22
536.72	40734.68
536.89	40364.88
537.06	40409.35
537.23	41006.19
537.40	40594.25
537.57	40835.33
537.74	41277.69
537.91	41153.64
538.08	41387.69
538.25	40744.05
538.42	40994.48
538.59	40931.29
538.75	40809.58
538.92	40989.80
539.09	41216.83
539.26	41598.34
539.43	40858.73
539.60	41151.30
539.77	40905.54
539.94	41624.09
540.11	40526.38
540.28	41338.54
540.44	41163.00
540.61	41031.93
540.78	41691.96
540.95	41181.73
541.12	41427.48
541.29	41216.83
541.46	41539.83
541.62	41617.07
541.79	41734.09
541.96	41326.84
542.13	41598.34
542.30	41993.89
542.47	41799.63
542.63	41895.59
542.80	42036.02
542.97	42120.28
543.14	42494.77
543.31	42202.20
543.48	42438.59
543.64	42433.91
543.81	42782.65
543.98	42611.79
544.15	42602.43
544.32	42721.80
544.48	43229.69
544.65	42614.13
544.82	42658.60
544.99	42689.03
545.16	42359.02
545.32	42450.30
545.49	43255.44
545.66	43267.14
545.83	42827.12
546.00	43194.59
546.16	42494.77
546.33	43014.37
546.50	42344.97
546.67	43157.14
546.83	42632.86
547.00	42653.92
547.17	42969.90
547.34	43096.28
547.50	43112.67
547.67	43232.04
547.84	43065.86
548.00	43920.15
548.17	43412.26
548.34	43274.16
548.51	43571.41
548.67	43786.74
548.84	43510.56
549.01	43454.39
549.18	43159.48
549.34	43360.76
549.51	43725.89
549.68	43646.31
549.84	43793.76
550.01	43662.69
550.18	43157.14
550.34	43669.72
550.51	43824.19
550.68	43515.24
550.84	43302.25
551.01	44245.49
551.18	43517.58
551.34	43601.84
551.51	44079.31
551.68	43952.92
551.84	44023.14
552.01	43569.07
552.18	43885.04
552.34	43739.93
552.51	44233.78
552.68	44048.88
552.84	44170.59
553.01	44245.49
553.18	43957.60
553.34	43981.01
553.51	44048.88
553.67	44516.99
553.84	44711.25
554.01	44505.29
554.17	44559.12
554.34	44437.41
554.51	44294.64
554.67	44538.05
554.84	44751.04
555.00	44315.70
555.17	44685.51
555.33	44460.82
555.50	44671.46
555.67	44669.12
555.83	44643.38
556.00	44694.87
556.16	44919.56
556.33	44177.61
556.50	44123.78
556.66	44870.41
556.83	44566.14
556.99	44631.68
557.16	44903.18
557.32	44996.80
557.49	44837.64
557.65	44528.69
557.82	44538.05
557.98	44823.60
558.15	45048.29
558.32	44868.07
558.48	44844.66
558.65	44907.86
558.81	44900.84
558.98	44966.37
559.14	44720.62
559.31	45017.86
559.47	44807.22
559.64	45158.30
559.80	45467.25
559.97	45127.87
560.13	44769.77
560.30	45071.70
560.46	45081.06
560.63	45113.83
560.79	45289.37
560.96	45511.72
561.12	45235.53
561.29	44828.28
561.45	44786.15
561.61	45242.56
561.78	45282.34
561.94	44704.23
562.11	44687.85
562.27	44921.90
562.44	45155.96
562.60	45172.34
562.77	45287.03
562.93	45062.33
563.10	45673.21
563.26	44886.79
563.42	45654.49
563.59	44694.87
563.75	45691.94
563.92	45177.02
564.08	45610.02
564.24	45731.73
564.41	45340.86
564.57	45284.68
564.74	45511.72
564.90	45357.24
565.07	45249.58
565.23	45879.18
565.39	45057.65
565.56	45329.16
565.72	45006.16
565.88	45371.28
566.05	45647.47
566.21	45502.35
566.38	45315.11
566.54	45633.42
566.70	45851.09
566.87	45762.15
567.03	45483.63
567.19	46099.19
567.36	45682.58
567.52	45294.05
567.68	45748.11
567.85	45329.16
568.01	45371.28
568.17	45331.50
568.34	45876.84
568.50	45500.01
568.66	45645.13
568.83	45750.45
568.99	45235.53
569.15	45750.45
569.32	45556.19
569.48	45249.58
569.64	46171.75
569.81	45808.96
569.97	45881.52
570.13	45397.03
570.30	45237.87
570.46	45485.97
570.62	45078.72
570.78	45567.89
570.95	45125.53
571.11	45750.45
571.27	45546.82
571.43	45418.10
571.60	45722.37
571.76	45703.64
571.92	45783.22
572.09	45703.64
572.25	45530.44
572.41	45773.86
572.57	45574.91
572.74	46024.29
572.90	45701.30
573.06	45949.40
573.22	45872.16
573.38	45757.47
573.55	45368.94
573.71	45792.58
573.87	45820.67
574.03	45563.21
574.20	45834.71
574.36	45663.85
574.52	45862.80
574.68	45518.74
574.84	46003.23
575.01	45778.54
575.17	45858.12
575.33	45551.51
575.49	45539.80
575.65	46005.57
575.82	46019.61
575.98	46356.65
576.14	45844.07
576.30	46216.22
576.46	45942.38
576.62	45551.51
576.79	45689.60
576.95	45345.54
577.11	45670.87
577.27	45771.52
577.43	45998.55
577.59	45656.83
577.75	45532.78
577.92	45715.34
578.08	45661.51
578.24	45249.58
578.40	45792.58
578.56	45766.84
578.72	45537.46
578.88	45827.69
579.04	45914.29
579.21	45404.05
579.37	45839.39
579.53	45977.48
579.69	45586.61
579.85	45617.04
580.01	45848.75
580.17	45883.86
580.33	46469.00
580.49	45689.60
580.65	45879.18
580.82	45876.84
580.98	45853.44
581.14	45581.93
581.30	45834.71
581.46	45972.80
581.62	46209.20
581.78	45937.69
581.94	46101.53
582.10	45998.55
582.26	45986.85
582.42	45492.99
582.58	45851.09
582.74	45682.58
582.90	46082.81
583.06	45965.78
583.22	45865.14
583.38	45914.29
583.54	46169.41
583.70	45963.44
583.86	46171.75
584.02	45827.69
584.18	45570.23
584.34	45958.76
584.50	46223.24
584.66	46202.18
584.82	45755.13
584.98	46162.39
585.14	45935.35
585.30	45998.55
585.46	45504.70
585.62	45624.06
585.78	45918.97
585.94	45549.17
586.10	45603.00
586.26	45769.18
586.42	46274.73
586.58	45813.65
586.74	45984.51
586.90	45989.19
587.06	45769.18
587.22	45853.44
587.38	45925.99
587.54	45965.78
587.70	46038.34
587.86	45640.45
588.02	46284.09
588.18	46391.76
588.34	46024.29
588.49	45268.30
588.65	45420.44
588.81	45361.92
588.97	45305.75
589.13	45261.28
589.29	45689.60
589.45	45764.49
589.61	45759.81
589.77	46234.94
589.93	45947.06
590.08	46260.69
590.24	46073.45
590.40	46033.66
590.56	46646.88
590.72	45993.87
590.88	46043.02
591.04	46232.60
591.20	46054.72
591.35	46307.50
591.51	46504.10
591.67	46136.64
591.83	45888.54
591.99	46124.94
592.15	46096.85
592.31	46124.94
592.46	46134.30
592.62	45869.82
592.78	45858.12
592.94	46520.49
593.10	46206.86
593.26	45937.69
593.41	45989.19
593.57	45937.69
593.73	46204.52
593.89	45914.29
594.05	45958.76
594.20	45928.33
594.36	46202.18
594.52	45925.99
594.68	45593.64
594.84	45918.97
594.99	46183.45
595.15	46012.59
595.31	46288.77
595.47	45996.21
595.62	46134.30
595.78	45890.88
595.94	46389.42
596.10	46134.30
596.25	45886.20
596.41	45881.52
596.57	46199.83
596.73	45853.44
596.88	46181.11
597.04	45694.28
597.20	45734.07
597.36	46124.94
597.51	46480.70
597.67	46124.94
597.83	46089.83
597.99	46513.47
598.14	46267.71
598.30	46396.44
598.46	46007.91
598.61	46213.88
598.77	45689.60
598.93	46197.49
599.09	46487.72
599.24	46417.50
599.40	46232.60
599.56	46501.76
599.71	45965.78
599.87	46380.06
600.03	46150.68
600.18	46391.76
600.34	46164.73
600.50	46021.95
600.65	45818.33
600.81	46340.27
600.97	46476.02
601.12	46417.50
601.28	45986.85
601.44	46246.65
601.59	46354.31
601.75	45612.36
601.91	45951.74
602.06	45801.94
602.22	45895.56
602.37	46043.02
602.53	46003.23
602.69	46031.32
602.84	45773.86
603.00	45617.04
603.16	46134.30
603.31	46078.13
603.47	45701.30
603.62	45745.77
603.78	46080.47
603.94	46122.60
604.09	45921.31
604.25	46192.81
604.40	45874.50
604.56	45900.25
604.71	46560.28
604.87	46248.99
605.03	45883.86
605.18	45715.34
605.34	45851.09
605.49	46045.36
605.65	45928.33
605.80	45385.33
605.96	45631.08
606.12	46040.68
606.27	46204.52
606.43	45918.97
606.58	45544.48
606.74	45385.33
606.89	45825.35
607.05	46185.79
607.20	46052.38
607.36	46087.49
607.51	46169.41
607.67	45617.04
607.82	45705.98
607.98	45610.02
608.13	45680.24
608.29	45284.68
608.44	45490.65
608.60	45235.53
608.75	45659.17
608.91	45605.34
609.06	45722.37
609.22	45783.22
609.37	45483.63
609.53	45537.46
609.68	45722.37
609.84	45357.24
609.99	45542.14
610.15	45839.39
610.30	45408.73
610.46	45542.14
610.61	44861.05
610.76	45272.98
610.92	45724.71
611.07	45654.49
611.23	45567.89
611.38	45757.47
611.54	45219.15
611.69	45064.67
611.84	45048.29
612.00	45263.62
612.15	45275.32
612.31	45542.14
612.46	45621.72
612.62	45385.33
612.77	45219.15
612.92	45436.82
613.08	44919.56
613.23	45132.55
613.39	44914.88
613.54	45132.55
613.69	44825.94
613.85	44694.87
614.00	45237.87
614.15	44516.99
614.31	44940.63
614.46	45244.90
614.62	44744.02
614.77	44612.95
614.92	44636.36
615.08	44961.69
615.23	44697.21
615.38	45008.50
615.54	44779.13
615.69	44912.54
615.84	44631.68
616.00	44488.90
616.15	44664.44
616.30	45015.52
616.46	44589.55
616.61	44435.07
616.76	44385.92
616.92	44062.93
617.07	44439.75
617.22	44037.18
617.37	44800.19
617.53	44673.81
617.68	44521.67
617.83	44020.80
617.99	44437.41
618.14	44568.48
618.29	44233.78
618.45	43931.86
618.60	44395.28
618.75	43964.62
618.90	43903.77
619.06	44254.85
619.21	44032.50
619.36	44343.79
619.51	44179.95
619.67	43655.67
619.82	44238.47
619.97	43861.64
620.12	43735.25
620.28	43622.90
620.43	43730.57
620.58	44147.18
620.73	43990.37
620.89	44102.71
621.04	44161.23
621.19	44126.12
621.34	44023.14
621.49	43688.44
621.65	43686.10
621.80	43641.63
621.95	43702.48
622.10	43819.51
622.25	43735.25
622.41	43739.93
622.56	43892.07
622.71	43571.41
622.86	43339.70
623.01	43522.26
623.16	43405.23
623.32	43482.47
623.47	43089.26
623.62	43201.61
623.77	43356.08
623.92	43735.25
624.07	43000.32
624.23	42862.23
624.38	43309.27
624.53	43023.73
624.68	43363.11
624.83	43356.08
624.98	43138.41
625.13	43016.71
625.29	42700.73
625.44	43302.25
625.59	42932.45
625.74	42808.40
625.89	43110.33
626.04	42674.99
626.19	43189.91
626.34	42859.89
626.49	43349.06
626.65	42656.26
626.80	42836.48
626.95	43000.32
627.10	42469.02
627.25	42852.87
627.40	42660.94
627.55	42553.28
627.70	41947.08
627.85	42148.37
628.00	42827.12
628.15	43119.69
628.30	42092.19
628.45	42836.48
628.60	42572.00
628.76	42597.75
628.91	42572.00
629.06	42099.22
629.21	42466.68
629.36	42237.31
629.51	42281.78
629.66	41986.87
629.81	41745.80
629.96	41965.81
630.11	42333.27
630.26	42096.88
630.41	41904.95
630.56	41940.06
630.71	41881.55
630.86	42155.39
631.01	41827.71
631.16	42181.13
631.31	41469.61
631.46	41390.03
631.61	41401.74
631.76	42204.54
631.91	42230.29
632.06	42422.21
632.21	42010.28
632.36	41724.73
632.51	41364.29
632.66	41963.46
632.81	41670.90
632.96	41759.84
633.10	41581.96
633.25	41518.76
633.40	41876.86
633.55	41914.31
633.70	41333.86
633.85	41495.36
634.00	41792.61
634.15	41518.76
634.30	41116.19
634.45	41368.97
634.60	41354.93
634.75	41682.60
634.90	41305.77
635.05	41448.55
635.19	40861.07
635.34	41588.98
635.49	41265.99
635.64	41242.58
635.79	41022.57
635.94	40556.80
636.09	40739.36
636.24	40697.24
636.39	40755.75
636.53	41394.71
636.68	41020.23
636.83	40842.35
636.98	40910.22
637.13	40587.23
637.28	41310.46
637.43	40942.99
637.57	40926.61
637.72	40519.35
637.87	41034.27
638.02	40521.69
638.17	40933.63
638.32	40545.10
638.46	40236.15
638.61	40226.79
638.76	40788.52
638.91	40851.71
639.06	40772.13
639.20	40711.28
639.35	40919.59
639.50	40362.54
639.65	40472.54
639.80	40643.40
639.94	40313.39
640.09	40140.19
640.24	40587.23
640.39	39854.64
640.54	39971.67
640.68	40060.61
640.83	39969.33
640.98	40062.95
641.13	40081.67
641.27	40278.28
641.42	40114.44
641.57	39903.79
641.72	40179.98
641.86	40011.46
642.01	39218.02
642.16	40084.01
642.31	39660.38
642.45	39739.96
642.60	39395.90
642.75	39807.83
642.90	40011.46
643.04	40275.94
643.19	39777.40
643.34	39849.96
643.48	39573.78
643.63	40123.80
643.78	39243.76
643.93	39828.90
644.07	39576.12
644.22	39321.00
644.37	39386.54
644.51	39285.89
644.66	39562.08
644.81	39313.98
644.95	39398.24
645.10	39562.08
645.25	39503.56
645.39	39505.90
645.54	39257.81
645.69	39498.88
645.83	39360.79
645.98	39328.02
646.13	39463.77
646.27	39124.40
646.42	39138.44
646.57	39122.05
646.71	39014.39
646.86	39339.72
647.00	39047.16
647.15	38873.96
647.30	39178.23
647.44	38822.47
647.59	39021.41
647.74	38639.90
647.88	38876.30
648.03	38799.06
648.17	38899.70
648.32	39000.35
648.47	38806.08
648.61	38714.80
648.76	38705.44
648.90	38796.72
649.05	38904.38
649.20	38913.75
649.34	38869.28
649.49	38087.54
649.63	38335.63
649.78	38766.29
649.92	38740.55
650.07	38618.84
650.21	38415.21
650.36	38604.80
650.51	39093.97
650.65	38930.13
650.80	39072.90
650.94	38380.10
651.09	38696.08
651.23	38052.43
651.38	38029.02
651.52	38139.03
651.67	37827.74
651.81	38232.65
651.96	38080.52
652.10	37764.54
652.25	38190.52
652.39	38396.49
652.54	38263.08
652.68	38536.92
652.83	37949.45
652.97	39129.08
653.12	38087.54
653.26	37975.19
653.41	38153.07
653.55	38120.31
653.70	38036.05
653.84	37986.89
653.99	37787.95
654.13	37701.35
654.27	37813.70
654.42	38066.47
654.56	37933.06
654.71	37635.81
654.85	37556.24
655.00	37834.76
655.14	37354.95
655.29	37429.85
655.43	37354.95
655.57	37167.71
655.72	37123.24
655.86	37076.43
656.01	36884.50
656.15	36788.54
656.30	37209.84
656.44	37233.24
656.58	37280.05
656.73	37565.60
656.87	37102.17
657.01	36823.65
657.16	37249.63
657.30	36903.23
657.45	36989.83
657.59	36800.24
657.73	37179.41
657.88	36809.61
658.02	36882.16
658.16	36694.92
658.31	37420.48
658.45	36985.15
658.60	36624.70
658.74	37148.98
658.88	37181.75
659.03	36598.96
659.17	36158.94
659.31	36671.51
659.46	36879.82
659.60	36945.36
659.74	36659.81
659.89	36404.69
660.03	36430.44
660.17	36870.46
660.32	36840.03
660.46	36746.41
660.60	35971.69
660.74	36343.84
660.89	36540.44
661.03	35861.69
661.17	36100.42
661.32	36170.64
661.46	36086.38
661.60	36023.19
661.74	35700.19
661.89	36320.43
662.03	36126.17
662.17	35737.64
662.31	35707.21
662.46	36180.00
662.60	35583.16
662.74	35959.99
662.88	35789.13
663.03	35828.92
663.17	35814.88
663.31	35452.09
663.45	35353.79
663.60	35295.28
663.74	35388.90
663.88	35379.54
664.02	35484.86
664.17	35290.60
664.31	35166.55
664.45	35182.93
664.59	34932.50
664.73	34857.60
664.88	35112.72
665.02	34630.57
665.16	34429.28
665.30	34529.92
665.44	34464.39
665.59	34085.22
665.73	34511.20
665.87	34342.68
666.01	34569.71
666.15	34455.03
666.29	34539.29
666.44	34462.05
666.58	34251.40
666.72	34363.75
666.86	34113.31
667.00	34148.42
667.14	34354.38
667.28	33848.83
667.43	34000.96
667.57	33968.19
667.71	34256.08
667.85	33783.29
667.99	33914.36
668.13	34073.52
668.27	33535.20
668.41	33862.87
668.56	33490.73
668.70	33376.04
668.84	33406.47
668.98	33415.83
669.12	33282.42
669.26	33301.14
669.40	33001.55
669.54	32964.10
669.68	33120.92
669.82	32818.99
669.96	32961.76
670.10	32992.19
670.25	33046.02
670.39	33027.30
670.53	32882.19
670.67	32753.46
670.81	32531.11
670.95	32584.94
671.09	32428.12
671.23	32945.38
671.37	32921.98
671.51	32184.71
671.65	32407.06
671.79	32013.85
671.93	31751.71
672.07	32105.13
672.21	31608.93
672.35	31952.99
672.49	32037.25
672.63	31929.59
672.77	31356.16
672.91	31751.71
673.05	31725.96
673.19	31253.17
673.33	31089.34
673.47	31358.50
673.61	31255.51
673.75	31716.60
673.89	30962.95
674.03	31536.38
674.17	31014.44
674.31	31152.53
674.45	30976.99
674.59	30525.27
674.73	31421.69
674.87	30754.64
675.01	30946.56
675.15	31082.31
675.29	30565.06
675.43	30433.99
675.56	30658.68
675.70	30448.03
675.84	30654.00
675.98	29514.16
676.12	30171.85
676.26	30384.83
676.40	29928.43
676.54	30223.34
676.68	29902.68
676.82	29167.76
676.96	29619.48
677.10	29638.20
677.23	29748.21
677.37	29443.94
677.51	29507.13
677.65	29160.73
677.79	28872.85
677.93	28793.27
678.07	29296.49
678.21	28664.54
678.34	28774.55
678.48	28638.80
678.62	28500.70
678.76	28254.95
678.90	28276.01
679.04	28287.71
679.18	28332.18
679.31	27969.40
679.45	27850.03
679.59	27915.57
679.73	28041.96
679.87	27833.65
680.00	27573.85
680.14	27861.74
680.28	27655.77
680.42	27531.72
680.56	27225.11
680.70	27047.23
680.83	27370.22
680.97	27344.48
681.11	27180.64
681.25	27065.96
681.39	27267.24
681.52	26775.73
681.66	26717.22
681.80	26923.18
681.94	26333.37
682.07	26480.82
682.21	26143.78
682.35	26342.73
682.49	26359.11
682.62	26185.91
682.76	25673.34
682.90	25816.11
683.04	25788.02
683.17	25792.70
683.31	25738.87
683.45	25509.50
683.59	25762.28
683.72	25362.04
683.86	25675.68
684.00	25177.14
684.13	25055.43
684.27	24666.91
684.41	24837.76
684.55	24896.28
684.68	24863.51
684.82	24863.51
684.96	24683.29
685.09	24779.25
685.23	24510.09
685.37	24493.71
685.50	24556.90
685.64	24517.11
685.78	24528.81
685.91	24224.54
686.05	23859.42
686.19	23468.55
686.32	23772.82
686.46	23304.71
686.60	23218.11
686.73	23307.05
686.87	23269.61
687.01	23393.65
687.14	22890.44
687.28	22927.89
687.42	22878.74
687.55	22984.06
687.69	22541.70
687.82	22635.32
687.96	22817.88
688.10	22499.57
688.23	22295.94
688.37	22565.10
688.50	22515.95
688.64	22295.94
688.78	22195.30
688.91	21785.71
689.05	21869.97
689.18	21909.75
689.32	21507.18
689.46	21792.73
689.59	22010.40
689.73	21909.75
689.86	21523.57
690.00	21685.06
690.13	21532.93
690.27	21336.32
690.41	21247.38
690.54	21415.90
690.68	21273.13
690.81	21160.78
690.95	21364.41
691.08	21235.68
691.22	20704.38
691.35	20858.85
691.49	20968.86
691.62	20809.70
691.76	20585.01
691.89	20900.98
692.03	20428.20
692.16	20491.39
692.30	20329.89
692.43	20212.87
692.57	20224.57
692.70	20102.86
692.84	19981.15
692.97	19477.94
693.11	19660.50
693.24	19641.78
693.38	19578.58
693.51	19424.11
693.65	19187.71
693.78	19293.04
693.92	19267.29
694.05	19274.31
694.19	19295.38
694.32	19206.44
694.45	19201.76
694.59	18857.70
694.72	18916.21
694.86	19000.47
694.99	18630.66
695.13	18448.10
695.26	18586.19
695.39	18185.96
695.53	18707.90
695.66	18567.47
695.80	18260.86
695.93	18300.65
696.07	18024.47
696.20	18277.24
696.33	18071.28
696.47	17921.48
696.60	17926.16
696.73	17764.67
696.87	17514.23
697.00	17661.68
697.14	17547.00
697.27	17434.65
697.40	17579.76
697.54	17235.70
697.67	16879.94
697.80	17083.57
697.94	17181.87
698.07	17364.43
698.21	17149.11
698.34	17013.35
698.47	16933.78
698.61	16570.99
698.74	16879.94
698.87	16491.41
699.01	16610.78
699.14	16531.20
699.27	16283.11
699.40	16442.26
699.54	16294.81
699.67	16292.47
699.80	15939.05
699.94	15566.90
700.07	15852.45
700.20	16016.29
700.34	15864.15
700.47	16065.44
700.60	15681.59
700.73	15597.33
700.87	15573.92
701.00	15470.94
701.13	15208.80
701.26	15482.64
701.40	15541.16
701.53	14951.34
701.66	15042.62
701.79	14888.15
701.93	14808.57
702.06	14721.97
702.19	14604.94
702.32	14738.35
702.46	14789.85
702.59	14862.40
702.72	14527.71
702.85	14677.50
702.99	14665.80
703.12	14459.83
703.25	14366.21
703.38	14333.44
703.51	14328.76
703.65	14015.13
703.78	13970.66
703.91	14019.81
704.04	14113.43
704.17	14094.71
704.31	14139.18
704.44	13809.16
704.57	13633.62
704.70	13664.05
704.83	13640.64
704.96	13401.91
705.10	13256.79
705.23	13425.31
>>>>>End Processed Spectral Data<<<<<
