SpectraSuite Data File
++++++++++++++++++++++++++++++++++++
Date: Fri Oct 25 10:48:02 EDT 2013
User: price-jones
Dark Spectrum Present: No
Reference Spectrum Present: No
Number of Sampled Component Spectra: 1
Spectrometers: USB2+H05261
Integration Time (usec): 100000 (USB2+H05261)
Spectra Averaged: 1 (USB2+H05261)
Boxcar Smoothing: 0 (USB2+H05261)
Correct for Electrical Dark: No (USB2+H05261)
Strobe/Lamp Enabled: No (USB2+H05261)
Correct for Detector Non-linearity: No (USB2+H05261)
Correct for Stray Light: No (USB2+H05261)
Number of Pixels in Processed Spectrum: 2048
>>>>>Begin Processed Spectral Data<<<<<
365.73	131.07
365.92	131.07
366.12	131.07
366.32	95.96
366.52	0.00
366.72	46.81
366.91	28.09
367.11	16.38
367.31	2.34
367.51	53.83
367.70	21.06
367.90	51.49
368.10	79.58
368.30	84.26
368.49	16.38
368.69	74.90
368.89	107.66
369.09	9.36
369.28	53.83
369.48	9.36
369.68	149.79
369.87	110.01
370.07	124.05
370.27	222.35
370.47	248.10
370.66	327.68
370.86	484.49
371.06	468.11
371.25	416.62
371.45	456.40
371.65	465.77
371.84	486.83
372.04	414.27
372.24	456.40
372.44	507.90
372.63	547.69
372.83	547.69
373.03	517.26
373.22	484.49
373.42	552.37
373.62	521.94
373.81	531.30
374.01	564.07
374.21	524.28
374.40	575.77
374.60	627.26
374.79	486.83
374.99	540.66
375.19	547.69
375.38	645.99
375.58	575.77
375.78	550.03
375.97	599.18
376.17	631.94
376.37	580.45
376.56	568.75
376.76	561.73
376.95	540.66
377.15	608.54
377.35	662.37
377.54	617.90
377.74	596.84
377.93	603.86
378.13	613.22
378.33	641.31
378.52	603.86
378.72	667.05
378.91	559.39
379.11	601.52
379.31	620.24
379.50	557.05
379.70	662.37
379.89	683.44
380.09	629.60
380.28	613.22
380.48	685.78
380.68	627.26
380.87	580.45
381.07	636.63
381.26	676.41
381.46	660.03
381.65	678.76
381.85	650.67
382.04	683.44
382.24	589.82
382.43	695.14
382.63	746.63
382.83	629.60
383.02	725.57
383.22	704.50
383.41	681.10
383.61	739.61
383.80	704.50
384.00	751.31
384.19	732.59
384.39	725.57
384.58	763.01
384.78	781.74
384.97	730.25
385.17	784.08
385.36	788.76
385.56	755.99
385.75	781.74
385.95	741.95
386.14	791.10
386.34	821.53
386.53	884.72
386.72	826.21
386.92	788.76
387.11	781.74
387.31	763.01
387.50	809.83
387.70	840.25
387.89	812.17
388.09	830.89
388.28	767.70
388.48	884.72
388.67	847.27
388.86	835.57
389.06	901.11
389.25	877.70
389.45	856.64
389.64	908.13
389.84	938.55
390.03	976.00
390.22	873.02
390.42	978.34
390.61	952.60
390.81	891.74
391.00	936.21
391.19	968.98
391.39	896.43
391.58	929.19
391.78	915.15
391.97	1018.13
392.16	919.83
392.36	938.55
392.55	858.98
392.75	950.26
392.94	922.17
393.13	992.39
393.33	945.58
393.52	1008.77
393.71	1062.60
393.91	1034.52
394.10	961.96
394.29	1118.78
394.49	1067.28
394.68	1144.52
394.88	1055.58
395.07	1224.10
395.26	1050.90
395.46	1118.78
395.65	1064.94
395.84	1067.28
396.04	1160.91
396.23	1090.69
396.42	1151.54
396.62	1071.97
396.81	1111.75
397.00	1111.75
397.19	1181.97
397.39	1219.42
397.58	1233.46
397.77	1200.69
397.97	1259.21
398.16	1261.55
398.35	1153.88
398.55	1226.44
398.74	1291.98
398.93	1366.87
399.12	1387.94
399.32	1355.17
399.51	1334.11
399.70	1387.94
399.90	1334.11
400.09	1275.59
400.28	1392.62
400.47	1336.45
400.67	1493.26
400.86	1455.81
401.05	1373.89
401.24	1387.94
401.44	1500.28
401.63	1547.09
401.82	1497.94
402.01	1511.99
402.21	1472.20
402.40	1511.99
402.59	1547.09
402.78	1589.22
402.97	1554.12
403.17	1589.22
403.36	1483.90
403.55	1568.16
403.74	1511.99
403.93	1640.72
404.13	1593.90
404.32	1666.46
404.51	1636.03
404.70	1748.38
404.89	1666.46
405.09	1760.08
405.28	1638.38
405.47	1736.68
405.66	1732.00
405.85	1832.64
406.05	1659.44
406.24	1753.06
406.43	1757.74
406.62	1771.79
406.81	1827.96
407.00	1790.51
407.20	1795.19
407.39	1795.19
407.58	1858.39
407.77	1884.13
407.96	1933.28
408.15	2015.20
408.34	2057.33
408.54	1909.88
408.73	1994.14
408.92	1973.07
409.11	2031.58
409.30	1994.14
409.49	2125.21
409.68	1973.07
409.87	1930.94
410.07	2038.61
410.26	2094.78
410.45	2031.58
410.64	2129.89
410.83	2160.31
411.02	2195.42
411.21	2235.21
411.40	2237.55
411.59	2174.36
411.78	2307.77
411.98	2242.23
412.17	2354.58
412.36	2363.94
412.55	2347.56
412.74	2368.62
412.93	2497.35
413.12	2438.84
413.31	2511.39
413.50	2424.80
413.69	2495.01
413.88	2530.12
414.07	2401.39
414.26	2487.99
414.45	2574.59
414.64	2677.57
414.83	2553.52
415.02	2649.49
415.22	2740.77
415.41	2698.64
415.60	2738.43
415.79	2754.81
415.98	2843.75
416.17	2832.05
416.36	2801.62
416.55	2782.90
416.74	2813.32
416.93	2925.67
417.12	2904.60
417.31	3033.33
417.50	2918.65
417.69	3033.33
417.88	3021.63
418.07	2874.18
418.26	2953.76
418.45	2984.18
418.64	3206.53
418.83	3176.11
419.02	3110.57
419.21	3115.25
419.39	3276.75
419.58	3054.40
419.77	3155.04
419.96	3096.53
420.15	3166.74
420.34	3185.47
420.53	3133.98
420.72	3330.58
420.91	3297.81
421.10	3365.69
421.29	3478.04
421.48	3478.04
421.67	3370.37
421.86	3459.31
422.05	3356.33
422.24	3361.01
422.43	3330.58
422.61	3442.93
422.80	3365.69
422.99	3447.61
423.18	3531.87
423.37	3372.71
423.56	3428.88
423.75	3494.42
423.94	3485.06
424.13	3204.19
424.32	3503.78
424.50	3459.31
424.69	3541.23
424.88	3606.77
425.07	3431.23
425.26	3475.70
425.45	3538.89
425.64	3471.01
425.83	3545.91
426.01	3543.57
426.20	3541.23
426.39	3592.72
426.58	3494.42
426.77	3581.02
426.96	3545.91
427.15	3468.67
427.33	3541.23
427.52	3599.74
427.71	3527.19
427.90	3559.95
428.09	3712.09
428.28	3658.26
428.46	3716.77
428.65	3740.18
428.84	3747.20
429.03	3976.57
429.22	3744.86
429.40	3779.97
429.59	3754.22
429.78	3592.72
429.97	3534.21
430.16	3756.56
430.34	3791.67
430.53	4025.72
430.72	3932.10
430.91	3782.31
431.10	3896.99
431.28	3974.23
431.47	4215.30
431.66	4107.64
431.85	3978.91
432.03	4182.54
432.22	4114.66
432.41	4128.70
432.60	4229.35
432.79	4142.75
432.97	4231.69
433.16	4156.79
433.35	4102.96
433.54	4219.99
433.72	4135.73
433.91	4208.28
434.10	4264.46
434.28	4306.59
434.47	4376.80
434.66	4376.80
434.85	4388.50
435.03	4395.53
435.22	4383.82
435.41	4514.89
435.59	4465.74
435.78	4500.85
435.97	4587.45
436.16	4505.53
436.34	4390.84
436.53	4468.08
436.72	4624.90
436.90	4566.39
437.09	4725.54
437.28	4463.40
437.46	4550.00
437.65	4564.04
437.84	4432.97
438.02	4676.39
438.21	4716.18
438.40	4610.86
438.58	4830.87
438.77	4774.69
438.96	4697.46
439.14	4821.50
439.33	4912.78
439.52	5008.75
439.70	4936.19
439.89	5027.47
440.08	5172.58
440.26	5177.26
440.45	5116.41
440.63	5139.82
440.82	5387.91
441.01	5186.63
441.19	5430.04
441.38	5404.30
441.57	5282.59
441.75	5362.17
441.94	5675.80
442.12	5469.83
442.31	5509.62
442.50	5614.95
442.68	5516.64
442.87	5558.77
443.05	5558.77
443.24	5769.42
443.43	5624.31
443.61	5673.46
443.80	5792.83
443.98	5687.50
444.17	5626.65
444.35	5680.48
444.54	5879.43
444.73	5790.49
444.91	5849.00
445.10	5713.25
445.28	5657.07
445.47	5722.61
445.65	5839.64
445.84	5919.21
446.02	5832.62
446.21	5951.98
446.39	5792.83
446.58	5921.56
446.77	5762.40
446.95	5701.54
447.14	5832.62
447.32	5825.59
447.51	6024.54
447.69	5781.12
447.88	5968.37
448.06	5977.73
448.25	5870.06
448.43	5879.43
448.62	5860.70
448.80	5893.47
448.99	5947.30
449.17	5989.43
449.36	5891.13
449.54	6085.39
449.73	6260.93
449.91	6298.38
450.10	6298.38
450.28	6359.24
450.46	6139.23
450.65	6317.11
450.83	6406.05
451.02	6260.93
451.20	6272.64
451.39	6319.45
451.57	6279.66
451.76	6427.11
451.94	6359.24
452.13	6363.92
452.31	6272.64
452.49	6136.88
452.68	6277.32
452.86	6338.17
453.05	6415.41
453.23	6511.37
453.42	6347.53
453.60	6382.64
453.78	6593.29
453.97	6548.82
454.15	6403.71
454.34	6499.67
454.52	6642.44
454.70	6782.87
454.89	6719.68
455.07	6759.47
455.26	6775.85
455.44	6930.33
455.62	6890.54
455.81	6927.99
455.99	6970.12
456.17	6977.14
456.36	7026.29
456.54	6946.71
456.73	7098.84
456.91	7265.02
457.09	7122.25
457.28	7201.83
457.46	7002.88
457.64	7035.65
457.83	7124.59
458.01	7145.66
458.19	7375.03
458.38	7344.60
458.56	7262.68
458.74	7166.72
458.93	7431.20
459.11	7332.90
459.29	7400.77
459.48	7398.43
459.66	7424.18
459.84	7520.14
460.03	7665.25
460.21	7424.18
460.39	7400.77
460.57	7482.69
460.76	7421.84
460.94	7873.56
461.12	7438.22
461.31	7749.51
461.49	7531.84
461.67	7585.68
461.85	7878.24
462.04	7803.35
462.22	8065.49
462.40	8063.15
462.59	7974.21
462.77	7698.02
462.95	7964.84
463.13	7988.25
463.32	7850.16
463.50	8222.30
463.68	8184.85
463.86	7906.33
464.05	7712.07
464.23	7997.61
464.41	8098.25
464.59	7988.25
464.78	8212.94
464.96	8290.18
465.14	8046.76
465.32	8051.44
465.50	8283.16
465.69	8290.18
465.87	8149.75
466.05	8285.50
466.23	8142.72
466.41	8035.06
466.60	8528.91
466.78	8290.18
466.96	8301.88
467.14	8285.50
467.32	8442.31
467.51	8734.88
467.69	8215.28
467.87	8325.29
468.05	8362.73
468.23	8320.60
468.41	8348.69
468.60	8517.21
468.78	8615.51
468.96	8631.90
469.14	8798.07
469.32	8507.85
469.50	8535.93
469.69	8676.37
469.87	8917.44
470.05	8793.39
470.23	8769.99
470.41	8805.10
470.59	9097.66
470.77	8908.08
470.95	8851.91
471.14	8943.19
471.32	8879.99
471.50	9394.91
471.68	9324.69
471.86	9317.67
472.04	9205.33
472.22	9303.63
472.40	9146.81
472.58	9212.35
472.77	9240.44
472.95	9493.21
473.13	9813.87
473.31	9600.88
473.49	9591.52
473.67	9561.09
473.85	9701.52
474.03	9703.86
474.21	9933.23
474.39	9886.42
474.57	9830.25
474.75	9886.42
474.93	10146.22
475.12	9961.32
475.30	10289.00
475.48	9823.23
475.66	10186.01
475.84	10101.75
476.02	10129.84
476.20	10303.04
476.38	10382.62
476.56	10607.31
476.74	10583.90
476.92	10640.08
477.10	10445.81
477.28	10927.96
477.46	10747.74
477.64	10953.71
477.82	10930.30
478.00	11269.68
478.18	11307.13
478.36	11265.00
478.54	11485.01
478.72	11297.77
478.90	11630.12
479.08	11880.56
479.26	11903.96
479.44	11644.17
479.62	11880.56
479.80	11950.78
479.98	11990.56
480.16	12255.04
480.34	12241.00
480.52	12379.09
480.70	12194.19
480.88	12325.26
481.06	12327.60
481.24	12327.60
481.41	12758.26
481.59	12732.51
481.77	12704.43
481.95	13001.68
482.13	13090.62
482.31	13025.08
482.49	13357.44
482.67	13472.12
482.85	13357.44
483.03	13645.32
483.21	13806.82
483.39	13930.87
483.57	13563.40
483.74	14012.79
483.92	14083.00
484.10	14132.15
484.28	14178.97
484.46	14513.66
484.64	14841.34
484.82	14539.41
485.00	14677.50
485.18	14890.49
485.35	15009.86
485.53	14562.81
485.71	14951.34
485.89	15449.88
486.07	15047.30
486.25	15150.29
486.43	15534.14
486.61	15442.85
486.78	15756.49
486.96	15836.06
487.14	15868.83
487.32	16402.47
487.50	16369.71
487.68	16294.81
487.85	16835.47
488.03	16643.55
488.21	16716.11
488.39	16779.30
488.57	16854.20
488.75	17144.42
488.92	17060.16
489.10	17436.99
489.28	17165.49
489.46	17781.05
489.64	18045.53
489.81	18256.18
489.99	18298.31
490.17	18164.90
490.35	18466.83
490.53	18345.12
490.70	18862.38
490.88	18658.75
491.06	18766.42
491.24	18794.50
491.41	18960.68
491.59	18998.13
491.77	19030.90
491.95	19349.21
492.13	19653.48
492.30	19592.62
492.48	19726.04
492.66	19538.79
492.84	19894.55
493.01	20032.65
493.19	20051.37
493.37	20451.60
493.54	20496.07
493.72	20414.15
493.90	20748.85
494.08	20826.09
494.25	21174.83
494.43	21102.27
494.61	21041.42
494.79	21446.33
494.96	21333.98
495.14	21411.22
495.32	21453.35
495.49	21631.23
495.67	21818.47
495.85	21975.29
496.02	22181.26
496.20	22207.00
496.38	22307.65
496.55	22595.53
496.73	22869.37
496.91	22527.66
497.09	22778.09
497.26	22916.19
497.44	22759.37
497.62	22738.30
497.79	22852.99
497.97	23274.29
498.14	23365.57
498.32	23639.41
498.50	23381.95
498.67	23597.28
498.85	23981.13
499.03	23826.65
499.20	24030.28
499.38	23784.52
499.56	24233.91
499.73	24053.69
499.91	23953.04
500.08	24519.45
500.26	24006.87
500.44	24554.56
500.61	24786.27
500.79	24287.74
500.97	24449.24
501.14	24996.92
501.32	24833.08
501.49	25095.22
501.67	24772.23
501.84	25565.67
502.02	25137.35
502.20	25397.15
502.37	25661.63
502.55	25752.91
502.72	25776.32
502.90	25876.96
503.07	25319.92
503.25	25874.62
503.43	25661.63
503.60	26195.28
503.78	25972.92
503.95	25930.80
504.13	26204.64
504.30	26469.12
504.48	26272.51
504.65	26415.29
504.83	26728.92
505.01	26534.65
505.18	26228.04
505.36	27126.81
505.53	26941.91
505.71	26934.88
505.88	27192.34
506.06	27182.98
506.23	27204.05
506.41	26911.48
506.58	27487.25
506.76	27463.85
506.93	27611.30
507.11	27690.88
507.28	27718.96
507.46	27613.64
507.63	28095.79
507.81	27742.37
507.98	27882.80
508.16	27967.06
508.33	28156.64
508.50	28182.39
508.68	28095.79
508.85	28526.45
509.03	28542.83
509.20	28774.55
509.38	28584.96
509.55	28699.65
509.73	28819.02
509.90	28460.91
510.08	28868.17
510.25	28833.06
510.42	29434.58
510.60	29530.54
510.77	29298.83
510.95	29312.87
511.12	29469.69
511.30	29434.58
511.47	29745.87
511.64	29670.97
511.82	29942.47
511.99	29570.33
512.17	30244.40
512.34	30019.71
512.51	30202.27
512.69	30307.60
512.86	30178.87
513.04	30410.58
513.21	30384.83
513.38	30452.71
513.56	30471.43
513.73	30513.56
513.90	31225.09
514.08	30597.82
514.25	30775.70
514.43	31009.76
514.60	30888.05
514.77	30405.90
514.95	31091.68
515.12	30911.46
515.29	31133.81
515.47	31257.85
515.64	31503.61
515.81	31576.17
515.99	31194.66
516.16	31253.17
516.33	31232.11
516.51	31782.13
516.68	31407.65
516.85	31615.96
517.03	31864.05
517.20	31466.16
517.37	31880.44
517.54	31777.45
517.72	31803.20
517.89	31936.61
518.06	32201.09
518.24	31908.52
518.41	32030.23
518.58	32191.73
518.75	32037.25
518.93	32404.72
519.10	32219.81
519.27	32439.82
519.45	32484.30
519.62	32968.79
519.79	32851.76
519.96	32943.04
520.14	32992.19
520.31	33001.55
520.48	33132.62
520.65	33158.37
520.83	33378.38
521.00	33170.07
521.17	33556.26
521.34	33411.15
521.52	33600.73
521.69	33996.28
521.86	33750.52
522.03	34012.66
522.20	33560.94
522.38	33872.23
522.55	34213.95
522.72	33949.47
522.89	34277.15
523.07	34476.09
523.24	33790.31
523.41	34316.93
523.58	34525.24
523.75	34932.50
523.92	34916.11
524.10	34803.77
524.27	34593.12
524.44	35026.12
524.61	34920.79
524.78	35117.40
524.96	34913.77
525.13	34827.17
525.30	35365.49
525.47	35559.76
525.64	35466.14
525.81	35536.35
525.98	35082.29
526.16	34951.22
526.33	35302.30
526.50	35559.76
526.67	35093.99
526.84	35309.32
527.01	35260.17
527.18	35206.34
527.36	35913.18
527.53	36058.29
527.70	36180.00
527.87	36311.07
528.04	35871.05
528.21	36280.64
528.38	36055.95
528.55	35955.31
528.72	36357.88
528.89	36350.86
529.07	36070.00
529.24	36563.85
529.41	36540.44
529.58	36137.87
529.75	35885.09
529.92	36748.75
530.09	36776.84
530.26	36964.08
530.43	37001.53
530.60	36423.42
530.77	36739.39
530.94	36751.09
531.11	37099.83
531.28	36620.02
531.46	36664.49
531.63	36992.17
531.80	36968.76
531.97	36898.55
532.14	37256.65
532.31	37296.44
532.48	37013.23
532.65	37514.11
532.82	37081.11
532.99	37432.19
533.16	37106.85
533.33	37092.81
533.50	38047.75
533.67	37837.10
533.84	37099.83
534.01	37530.49
534.18	37663.90
534.35	38014.98
534.52	37806.67
534.69	38003.28
534.86	37991.58
535.03	37689.65
535.20	37942.42
535.37	38061.79
535.54	38099.24
535.71	38050.09
535.88	38539.26
536.05	38366.06
536.22	38455.00
536.38	38298.19
536.55	38342.66
536.72	38410.53
536.89	38384.79
537.06	38532.24
537.23	38436.28
537.40	38455.00
537.57	38841.19
537.74	38497.13
537.91	38721.82
538.08	38677.35
538.25	38513.52
538.42	39049.50
538.59	39227.38
538.75	38377.76
538.92	38918.43
539.09	38873.96
539.26	38995.67
539.43	39604.20
539.60	39365.47
539.77	39084.61
539.94	39278.87
540.11	39016.73
540.28	39583.14
540.44	39140.78
540.61	39110.35
540.78	38995.67
540.95	39337.38
541.12	39449.73
541.29	39489.52
541.46	39541.01
541.62	39646.33
541.79	39915.50
541.96	39470.79
542.13	39627.61
542.30	39519.95
542.47	39908.47
542.63	39896.77
542.80	39800.81
542.97	40437.44
543.14	40348.50
543.31	40247.85
543.48	40711.28
543.64	40556.80
543.81	40182.32
543.98	40715.96
544.15	40526.38
544.32	40587.23
544.48	40692.55
544.65	40357.86
544.82	40315.73
544.99	40273.60
545.16	40854.05
545.32	40451.48
545.49	41111.51
545.66	41303.43
545.83	40879.80
546.00	41134.92
546.16	40671.49
546.33	40945.33
546.50	40584.89
546.67	41371.31
546.83	40360.20
547.00	41095.13
547.17	40765.11
547.34	41134.92
547.50	40804.90
547.67	41378.33
547.84	40765.11
548.00	41324.50
548.17	41193.43
548.34	41373.65
548.51	41698.98
548.67	41148.96
548.84	41504.72
549.01	41270.67
549.18	41392.37
549.34	41748.14
549.51	41911.97
549.68	41539.83
549.84	41820.69
550.01	41993.89
550.18	41336.20
550.34	41792.61
550.51	41965.81
550.68	41441.53
550.84	41537.49
551.01	42169.43
551.18	41813.67
551.34	41542.17
551.51	41844.10
551.68	41701.32
551.84	42274.76
552.01	41933.04
552.18	42092.19
552.34	41823.03
552.51	42375.40
552.68	42017.30
552.84	42354.33
553.01	42218.58
553.18	42169.43
553.34	42302.84
553.51	42139.00
553.67	42110.92
553.84	42543.92
554.01	42419.87
554.17	42806.06
554.34	42789.67
554.51	42466.68
554.67	42923.08
554.84	42412.85
555.00	42696.05
555.17	42829.46
555.33	42906.70
555.50	42674.99
555.67	42499.45
555.83	42532.22
556.00	42941.81
556.16	43058.84
556.33	42693.71
556.50	43150.12
556.66	42913.72
556.83	42761.59
556.99	43313.95
557.16	43012.02
557.32	43084.58
557.49	42878.61
557.65	43234.38
557.82	42653.92
557.98	42511.15
558.15	43264.80
558.32	43304.59
558.48	43166.50
558.65	43248.42
558.81	42611.79
558.98	42789.67
559.14	43215.65
559.31	43295.23
559.47	43667.37
559.64	43473.11
559.80	43522.26
559.97	43091.60
560.13	42953.51
560.30	43381.83
560.46	43498.86
560.63	43365.45
560.79	43416.94
560.96	43522.26
561.12	43533.96
561.29	43274.16
561.45	43590.14
561.61	43262.46
561.78	43311.61
561.94	43225.01
562.11	43407.58
562.27	43379.49
562.44	43498.86
562.60	43557.37
562.77	43988.03
562.93	43510.56
563.10	43676.74
563.26	43517.58
563.42	43468.43
563.59	43349.06
563.75	43955.26
563.92	44027.82
564.08	43765.68
564.24	43562.05
564.41	43948.24
564.57	43796.10
564.74	43924.83
564.90	43686.10
565.07	44041.86
565.23	43948.24
565.39	44041.86
565.56	43924.83
565.72	43913.13
565.88	43693.12
566.05	43985.69
566.21	44062.93
566.38	43950.58
566.54	43648.65
566.70	44205.70
566.87	44205.70
567.03	44067.61
567.19	44584.86
567.36	44240.81
567.52	44076.97
567.68	44095.69
567.85	44587.21
568.01	43721.21
568.17	44147.18
568.34	44264.21
568.50	44142.50
568.66	43962.28
568.83	44083.99
568.99	43936.54
569.15	43728.23
569.32	44062.93
569.48	44020.80
569.64	44521.67
569.81	44296.98
569.97	43922.49
570.13	44161.23
570.30	44224.42
570.46	44100.37
570.62	43990.37
570.78	43653.33
570.95	43831.21
571.11	43737.59
571.27	43992.71
571.43	44507.63
571.60	44411.67
571.76	44088.67
571.92	44371.88
572.09	44100.37
572.25	44390.60
572.41	44137.82
572.57	43978.67
572.74	44715.93
572.90	44304.00
573.06	44121.44
573.22	44261.87
573.38	44343.79
573.55	44037.18
573.71	44282.94
573.87	44631.68
574.03	43945.90
574.20	44208.04
574.36	43824.19
574.52	44641.04
574.68	44140.16
574.84	44355.49
575.01	44385.92
575.17	44449.11
575.33	44121.44
575.49	44280.60
575.65	44622.31
575.82	44495.92
575.98	44577.84
576.14	44470.18
576.30	44624.65
576.46	44350.81
576.62	44081.65
576.79	44823.60
576.95	43772.70
577.11	44350.81
577.27	44308.68
577.43	44545.08
577.59	43901.43
577.75	44561.46
577.92	44266.55
578.08	44313.36
578.24	43999.73
578.40	44516.99
578.56	43782.06
578.72	44519.33
578.88	44397.62
579.04	44772.11
579.21	44514.65
579.37	44053.56
579.53	44563.80
579.69	44205.70
579.85	44432.73
580.01	44371.88
580.17	44479.54
580.33	45020.20
580.49	44432.73
580.65	44261.87
580.82	44542.74
580.98	44917.22
581.14	44509.97
581.30	44467.84
581.46	44641.04
581.62	43976.33
581.78	44952.33
581.94	45214.47
582.10	44992.12
582.26	44797.85
582.42	44346.13
582.58	44884.45
582.74	44418.69
582.90	44708.91
583.06	44570.82
583.22	44872.75
583.38	44755.72
583.54	44825.94
583.70	44582.52
583.86	44477.20
584.02	44278.25
584.18	44877.43
584.34	44769.77
584.50	44535.71
584.66	44601.25
584.82	44395.28
584.98	44875.09
585.14	44744.02
585.30	44231.44
585.46	44842.32
585.62	44411.67
585.78	44629.34
585.94	44194.00
586.10	44500.61
586.26	44025.48
586.42	44514.65
586.58	44795.51
586.74	44402.30
586.90	44706.57
587.06	44161.23
587.22	44856.37
587.38	44676.15
587.54	45429.80
587.70	44795.51
587.86	44652.74
588.02	44533.37
588.18	44713.59
588.34	44383.58
588.49	44542.74
588.65	44168.25
588.81	44194.00
588.97	44547.42
589.13	44634.02
589.29	44680.83
589.45	44865.73
589.61	44715.93
589.77	45214.47
589.93	44748.70
590.08	44844.66
590.24	44650.40
590.40	44774.45
590.56	45291.71
590.72	44849.35
590.88	44718.28
591.04	44825.94
591.20	44989.78
591.35	45170.00
591.51	45226.17
591.67	44814.24
591.83	44889.13
591.99	44701.89
592.15	44626.99
592.31	44889.13
592.46	44655.08
592.62	45088.08
592.78	45064.67
592.94	45038.93
593.10	45240.21
593.26	45078.72
593.41	45085.74
593.57	44502.95
593.73	44858.71
593.89	44959.35
594.05	44847.00
594.20	45177.02
594.36	44655.08
594.52	45139.57
594.68	44947.65
594.84	45008.50
594.99	45640.45
595.15	44666.78
595.31	45249.58
595.47	44905.52
595.62	44889.13
595.78	44889.13
595.94	45277.66
596.10	45272.98
596.25	45261.28
596.41	45043.61
596.57	44935.95
596.73	45315.11
596.88	45074.04
597.04	44954.67
597.20	45453.20
597.36	45191.06
597.51	45581.93
597.67	45027.23
597.83	45226.17
597.99	45071.70
598.14	44751.04
598.30	45130.21
598.46	44617.63
598.61	45317.45
598.77	44954.67
598.93	44779.13
599.09	44549.76
599.24	45514.06
599.40	45518.74
599.56	45020.20
599.71	45174.68
599.87	45109.14
600.03	45029.57
600.18	45366.60
600.34	45130.21
600.50	44865.73
600.65	45092.76
600.81	45338.52
600.97	45298.73
601.12	45511.72
601.28	45207.45
601.44	45052.97
601.59	45036.59
601.75	44765.09
601.91	45308.09
602.06	44854.03
602.22	45312.77
602.37	45127.87
602.53	45205.11
602.69	45434.48
602.84	45113.83
603.00	44942.97
603.16	45371.28
603.31	45460.23
603.47	44662.10
603.62	44952.33
603.78	45411.07
603.94	45043.61
604.09	45104.46
604.25	45024.89
604.40	45146.59
604.56	44858.71
604.71	45029.57
604.87	45221.49
605.03	44957.01
605.18	44914.88
605.34	45069.36
605.49	44942.97
605.65	45172.34
605.80	44788.49
605.96	45191.06
606.12	45052.97
606.27	45029.57
606.43	44542.74
606.58	45322.13
606.74	44729.98
606.89	45003.82
607.05	45015.52
607.20	45125.53
607.36	44924.24
607.51	45031.91
607.67	44886.79
607.82	45165.32
607.98	45160.64
608.13	44641.04
608.29	44795.51
608.44	44556.78
608.60	44215.06
608.75	44605.93
608.91	44900.84
609.06	44662.10
609.22	44825.94
609.37	44783.81
609.53	44610.61
609.68	44964.03
609.84	44399.96
609.99	44683.17
610.15	44800.19
610.30	44369.54
610.46	44320.38
610.61	44296.98
610.76	44538.05
610.92	44786.15
611.07	44484.22
611.23	44404.64
611.38	44194.00
611.54	44680.83
611.69	44451.45
611.84	44257.19
612.00	44186.97
612.15	44095.69
612.31	44423.37
612.46	44636.36
612.62	44673.81
612.77	44233.78
612.92	44416.35
613.08	44488.90
613.23	44081.65
613.39	43777.38
613.54	43913.13
613.69	44250.17
613.85	43772.70
614.00	44205.70
614.15	44355.49
614.31	44329.75
614.46	44547.42
614.62	43817.17
614.77	44528.69
614.92	43812.49
615.08	43847.60
615.23	44083.99
615.38	44009.09
615.54	43482.47
615.69	44144.84
615.84	43711.84
616.00	44027.82
616.15	43997.39
616.30	43906.11
616.46	43395.87
616.61	43744.61
616.76	43962.28
616.92	43826.53
617.07	43440.34
617.22	43868.66
617.37	43400.55
617.53	43718.87
617.68	43845.26
617.83	44027.82
617.99	43992.71
618.14	43206.29
618.29	43597.16
618.45	43461.41
618.60	43377.15
618.75	43643.97
618.90	43402.89
619.06	43728.23
619.21	43576.09
619.36	43405.23
619.51	43360.76
619.67	43409.92
619.82	43412.26
619.97	44032.50
620.12	43704.82
620.28	42923.08
620.43	43274.16
620.58	43292.89
620.73	43339.70
620.89	43105.65
621.04	43140.75
621.19	43124.37
621.34	43091.60
621.49	43339.70
621.65	42532.22
621.80	43405.23
621.95	42862.23
622.10	43290.55
622.25	42834.14
622.41	42890.32
622.56	42527.53
622.71	43531.62
622.86	42953.51
623.01	42958.19
623.16	43194.59
623.32	43255.44
623.47	42993.30
623.62	43072.88
623.77	43143.09
623.92	42572.00
624.07	42822.44
624.23	42508.81
624.38	42583.71
624.53	42351.99
624.68	42611.79
624.83	42761.59
624.98	42939.47
625.13	42471.36
625.29	42639.88
625.44	42887.98
625.59	42216.24
625.74	41956.44
625.89	41694.30
626.04	42185.82
626.19	42417.53
626.34	42440.93
626.49	42293.48
626.65	41940.06
626.80	42068.79
626.95	42073.47
627.10	42466.68
627.25	42216.24
627.40	41830.05
627.55	41727.07
627.70	41514.08
627.85	41991.55
628.00	41855.80
628.15	42380.08
628.30	42050.06
628.45	42029.00
628.60	41581.96
628.76	41954.10
628.91	42256.03
629.06	41818.35
629.21	41603.02
629.36	41502.38
629.51	41596.00
629.66	41542.17
629.81	41593.66
629.96	41764.52
630.11	41202.79
630.26	41846.44
630.41	41619.41
630.56	41544.51
630.71	41493.02
630.86	41544.51
631.01	41247.26
631.16	41443.87
631.31	41352.58
631.46	40985.12
631.61	40954.69
631.76	40987.46
631.91	41233.22
632.06	41263.64
632.21	41359.61
632.36	41495.36
632.51	41429.82
632.66	41558.55
632.81	40905.54
632.96	41036.61
633.10	40959.38
633.25	40816.60
633.40	41195.77
633.55	41371.31
633.70	41207.47
633.85	41074.06
634.00	40830.65
634.15	40641.06
634.30	40701.92
634.45	40809.58
634.60	40919.59
634.75	40973.42
634.90	40755.75
635.05	40959.38
635.19	40849.37
635.34	41296.41
635.49	41132.57
635.64	40699.58
635.79	40137.85
635.94	40250.19
636.09	40297.00
636.24	40765.11
636.39	40542.76
636.53	40018.48
636.68	40268.92
636.83	39938.90
636.98	40715.96
637.13	40128.48
637.28	40399.99
637.43	40933.63
637.57	40582.55
637.72	40484.25
637.87	40477.22
638.02	40311.05
638.17	40418.71
638.32	39782.09
638.46	40051.25
638.61	40201.04
638.76	39541.01
638.91	40051.25
639.06	40456.16
639.20	40425.73
639.35	40133.17
639.50	40102.74
639.65	40664.47
639.80	40259.55
639.94	40383.60
640.09	39789.11
640.24	39576.12
640.39	39782.09
640.54	39730.59
640.68	39536.33
640.83	40130.83
640.98	39632.29
641.13	39536.33
641.27	39798.47
641.42	39473.13
641.57	39852.30
641.72	39283.55
641.86	39346.75
642.01	39393.56
642.16	39629.95
642.31	39131.42
642.45	39728.25
642.60	38969.92
642.75	38913.75
642.90	39000.35
643.04	39489.52
643.19	39524.63
643.34	39868.69
643.48	39384.19
643.63	39552.71
643.78	38808.42
643.93	38799.06
644.07	39100.99
644.22	39145.46
644.37	38773.31
644.51	38810.76
644.66	39358.45
644.81	39426.32
644.95	39632.29
645.10	39379.51
645.25	39105.67
645.39	38983.96
645.54	39445.05
645.69	39063.54
645.83	39030.77
645.98	38803.74
646.13	39152.48
646.27	39115.03
646.42	39225.04
646.57	39019.07
646.71	38693.74
646.86	38911.41
647.00	38778.00
647.15	38909.07
647.30	38892.68
647.44	39117.37
647.59	38852.89
647.74	38597.77
647.88	38522.88
648.03	38443.30
648.17	39105.67
648.32	38082.86
648.47	38841.19
648.61	38408.19
648.76	38719.48
648.90	38763.95
649.05	38710.12
649.20	38199.88
649.34	38513.52
649.49	38632.88
649.63	38735.87
649.78	38450.32
649.92	38211.59
650.07	38789.70
650.21	38293.50
650.36	38230.31
650.51	38352.02
650.65	38754.59
650.80	38349.68
650.94	38352.02
651.09	38356.70
651.23	37963.49
651.38	38431.60
651.52	37865.19
651.67	38073.49
651.81	38337.98
651.96	37811.35
652.10	38330.95
652.25	37308.14
652.39	38082.86
652.54	38249.03
652.68	38047.75
652.83	37722.41
652.97	37907.32
653.12	37951.79
653.26	38071.15
653.41	37928.38
653.55	37638.15
653.70	37350.27
653.84	37600.71
653.99	37893.27
654.13	37537.51
654.27	37862.85
654.42	37977.53
654.56	37233.24
654.71	37390.06
654.85	37738.80
655.00	37809.01
655.14	37710.71
655.29	36917.27
655.43	37425.17
655.57	37233.24
655.72	36861.10
655.86	36648.11
656.01	36870.46
656.15	36928.97
656.30	37146.64
656.44	36910.25
656.58	36917.27
656.73	36727.69
656.87	36699.60
657.01	36753.43
657.16	36847.05
657.30	36503.00
657.45	36655.13
657.59	36835.35
657.73	36847.05
657.88	36563.85
658.02	36711.30
658.16	36737.05
658.31	37046.00
658.45	36896.20
658.60	36692.58
658.74	36708.96
658.88	36671.51
659.03	36278.30
659.17	36392.99
659.31	36367.24
659.46	36315.75
659.60	36488.95
659.74	35714.23
659.89	35824.24
660.03	35587.85
660.17	36341.50
660.32	35732.96
660.46	36484.27
660.60	36755.77
660.74	36519.38
660.89	36140.21
661.03	35924.88
661.17	35747.00
661.32	35686.15
661.46	35943.61
661.60	35882.75
661.74	35910.84
661.89	35896.80
662.03	35449.75
662.17	35955.31
662.31	35718.92
662.46	35697.85
662.60	35796.15
662.74	35747.00
662.88	35484.86
663.03	35431.03
663.17	35433.37
663.31	35255.49
663.45	35229.74
663.60	35388.90
663.74	35309.32
663.88	35171.23
664.02	34836.53
664.17	35026.12
664.31	34450.35
664.45	34735.89
664.59	34616.52
664.73	34827.17
664.88	35129.10
665.02	34155.44
665.16	34471.41
665.30	34909.09
665.44	34426.94
665.59	34272.46
665.73	34284.17
665.87	34057.14
666.01	34284.17
666.15	34485.45
666.29	34436.30
666.44	34396.51
666.58	33827.76
666.72	34129.69
666.86	34415.24
667.00	34328.64
667.14	33839.47
667.28	33596.05
667.43	33867.55
667.57	33958.83
667.71	33750.52
667.85	33750.52
667.99	33401.79
668.13	33795.00
668.27	33212.20
668.41	33802.02
668.56	33413.49
668.70	33296.46
668.84	33036.66
668.98	33090.49
669.12	33020.28
669.26	33003.89
669.40	32938.36
669.54	33352.63
669.68	33432.21
669.82	32964.10
669.96	32833.04
670.10	32734.73
670.25	33062.41
670.39	32645.79
670.53	33010.92
670.67	32198.75
670.81	32753.46
670.95	32940.70
671.09	32587.28
671.23	32467.91
671.37	32758.14
671.51	32432.80
671.65	32168.32
671.79	31742.35
671.93	31777.45
672.07	32432.80
672.21	31864.05
672.35	31709.58
672.49	31866.39
672.63	31709.58
672.77	32060.66
672.91	31997.46
673.05	31468.50
673.19	31601.91
673.33	31768.09
673.47	31580.85
673.61	31393.61
673.75	31108.06
673.89	31007.42
674.03	30932.52
674.17	30937.20
674.31	30972.31
674.45	30686.76
674.59	30764.00
674.73	30857.62
674.87	31215.72
675.01	31194.66
675.15	30499.52
675.29	30984.01
675.43	30735.92
675.56	31005.08
675.70	30441.01
675.84	30490.16
675.98	29223.93
676.12	30103.97
676.26	29724.80
676.40	29830.13
676.54	29860.55
676.68	29722.46
676.82	29336.27
676.96	29834.81
677.10	29605.44
677.23	28936.04
677.37	29046.05
677.51	29160.73
677.65	29240.31
677.79	28889.23
677.93	29039.03
678.07	28762.84
678.21	28505.38
678.34	29252.02
678.48	28692.63
678.62	28390.70
678.76	28297.08
678.90	28472.62
679.04	28779.23
679.18	28481.98
679.31	28191.75
679.45	27936.63
679.59	27728.33
679.73	28327.50
679.87	27669.81
680.00	28051.32
680.14	27646.41
680.28	27641.73
680.42	27522.36
680.56	27342.14
680.70	27126.81
680.83	26836.58
680.97	27213.41
681.11	26965.31
681.25	27002.76
681.39	26897.44
681.52	27005.10
681.66	26714.87
681.80	26609.55
681.94	26490.18
682.07	26611.89
682.21	26321.66
682.35	26143.78
682.49	25972.92
682.62	26469.12
682.76	25883.98
682.90	25663.97
683.04	26118.04
683.17	25795.04
683.31	25642.91
683.45	25944.84
683.59	25507.16
683.72	25312.89
683.86	25151.40
684.00	25675.68
684.13	25479.07
684.27	25149.06
684.41	24945.43
684.55	24807.34
684.68	25025.01
684.82	24779.25
684.96	24767.55
685.09	24540.52
685.23	24402.43
685.37	24353.27
685.50	24732.44
685.64	24474.98
685.78	24437.53
685.91	24149.65
686.05	23955.38
686.19	23943.68
686.32	23807.93
686.46	23807.93
686.60	23723.67
686.73	23477.91
686.87	23339.82
687.01	23452.17
687.14	23180.67
687.28	23012.15
687.42	22834.27
687.55	22867.03
687.69	23110.45
687.82	22494.89
687.96	22726.60
688.10	22794.48
688.23	22661.07
688.37	22424.67
688.50	22279.56
688.64	22178.92
688.78	22314.67
688.91	22050.19
689.05	22078.27
689.18	22218.71
689.32	22005.72
689.46	22045.51
689.59	21979.97
689.73	21996.35
689.86	21675.70
690.00	21713.15
690.13	21532.93
690.27	21518.89
690.41	21593.78
690.54	21282.49
690.68	21032.05
690.81	21106.95
690.95	20903.32
691.08	21018.01
691.22	20624.80
691.35	20858.85
691.49	21076.52
691.62	21074.18
691.76	20924.39
691.89	20559.27
692.03	20659.91
692.16	20582.67
692.30	20453.94
692.43	20133.29
692.57	20400.11
692.70	19999.88
692.84	20362.66
692.97	19775.19
693.11	19950.73
693.24	19824.34
693.38	19590.28
693.51	19702.63
693.65	19681.56
693.78	19463.90
693.92	19487.30
694.05	19398.36
694.19	19201.76
694.32	18963.02
694.45	19414.74
694.59	19075.37
694.72	18721.95
694.86	18728.97
694.99	18752.37
695.13	18197.67
695.26	18183.62
695.39	18216.39
695.53	18551.09
695.66	18417.68
695.80	18476.19
695.93	18174.26
696.07	18188.30
696.20	18094.68
696.33	17951.91
696.47	18155.54
696.60	17937.87
696.73	18078.30
696.87	17750.62
697.00	17734.24
697.14	17547.00
697.27	17558.70
697.40	17493.16
697.54	17500.19
697.67	17493.16
697.80	17415.93
697.94	17348.05
698.07	17022.72
698.21	16922.07
698.34	17057.82
698.47	17036.76
698.61	16603.76
698.74	16290.13
698.87	16751.21
699.01	16379.07
699.14	16570.99
699.27	16325.24
699.40	16271.40
699.54	15894.58
699.67	16032.67
699.80	16065.44
699.94	15950.75
700.07	16056.08
700.20	16065.44
700.34	15651.16
700.47	15840.75
700.60	15967.13
700.73	15955.43
700.87	15566.90
701.00	15180.71
701.13	15688.61
701.26	15470.94
701.40	15438.17
701.53	15288.38
701.66	15082.41
701.79	15136.24
701.93	15234.55
702.06	14810.91
702.19	14733.67
702.32	15063.69
702.46	14831.97
702.59	14733.67
702.72	14504.30
702.85	14665.80
702.99	14654.09
703.12	14841.34
703.25	14640.05
703.38	14548.77
703.51	14291.31
703.65	14616.65
703.78	14326.42
703.91	13909.80
704.04	13862.99
704.17	14377.91
704.31	13921.51
704.44	13635.96
704.57	13582.13
704.70	13633.62
704.83	13685.11
704.96	13722.56
705.10	13610.22
705.23	13563.40
>>>>>End Processed Spectral Data<<<<<
