SpectraSuite Data File
++++++++++++++++++++++++++++++++++++
Date: Fri Oct 25 10:47:56 EDT 2013
User: price-jones
Dark Spectrum Present: No
Reference Spectrum Present: No
Number of Sampled Component Spectra: 1
Spectrometers: USB2+H05261
Integration Time (usec): 100000 (USB2+H05261)
Spectra Averaged: 1 (USB2+H05261)
Boxcar Smoothing: 0 (USB2+H05261)
Correct for Electrical Dark: No (USB2+H05261)
Strobe/Lamp Enabled: No (USB2+H05261)
Correct for Detector Non-linearity: No (USB2+H05261)
Correct for Stray Light: No (USB2+H05261)
Number of Pixels in Processed Spectrum: 2048
>>>>>Begin Processed Spectral Data<<<<<
365.73	161.50
365.92	161.50
366.12	161.50
366.32	4.68
366.52	21.06
366.72	39.79
366.91	0.00
367.11	0.00
367.31	86.60
367.51	88.94
367.70	65.54
367.90	28.09
368.10	0.00
368.30	2.34
368.49	65.54
368.69	145.11
368.89	70.22
369.09	91.28
369.28	91.28
369.48	63.19
369.68	117.03
369.87	117.03
370.07	110.01
370.27	110.01
370.47	248.10
370.66	374.49
370.86	404.91
371.06	411.93
371.25	468.11
371.45	472.79
371.65	472.79
371.84	430.66
372.04	505.56
372.24	493.85
372.44	486.83
372.63	503.22
372.83	538.32
373.03	416.62
373.22	451.72
373.42	491.51
373.62	477.47
373.81	510.24
374.01	479.81
374.21	545.34
374.40	594.50
374.60	557.05
374.79	564.07
374.99	550.03
375.19	589.82
375.38	601.52
375.58	533.64
375.78	608.54
375.97	575.77
376.17	594.50
376.37	617.90
376.56	627.26
376.76	578.11
376.95	535.98
377.15	620.24
377.35	662.37
377.54	645.99
377.74	594.50
377.93	528.96
378.13	566.41
378.33	645.99
378.52	608.54
378.72	634.29
378.91	671.73
379.11	615.56
379.31	470.45
379.50	617.90
379.70	648.33
379.89	664.71
380.09	650.67
380.28	580.45
380.48	690.46
380.68	606.20
380.87	575.77
381.07	613.22
381.26	655.35
381.46	648.33
381.65	638.97
381.85	608.54
382.04	690.46
382.24	692.80
382.43	688.12
382.63	671.73
382.83	662.37
383.02	657.69
383.22	650.67
383.41	732.59
383.61	725.57
383.80	746.63
384.00	791.10
384.19	636.63
384.39	763.01
384.58	688.12
384.78	709.18
384.97	744.29
385.17	770.04
385.36	725.57
385.56	833.23
385.75	737.27
385.95	763.01
386.14	798.12
386.34	751.31
386.53	748.97
386.72	835.57
386.92	784.08
387.11	779.40
387.31	830.89
387.50	791.10
387.70	805.14
387.89	819.19
388.09	732.59
388.28	880.04
388.48	828.55
388.67	889.40
388.86	866.00
389.06	898.77
389.25	926.85
389.45	908.13
389.64	800.46
389.84	966.64
390.03	940.90
390.22	887.06
390.42	908.13
390.61	896.43
390.81	912.81
391.00	929.19
391.19	971.32
391.39	950.26
391.58	985.37
391.78	997.07
391.97	959.62
392.16	940.90
392.36	971.32
392.55	1020.47
392.75	1015.79
392.94	990.05
393.13	945.58
393.33	929.19
393.52	926.85
393.71	1069.62
393.91	1020.47
394.10	945.58
394.29	978.34
394.49	990.05
394.68	1128.14
394.88	1090.69
395.07	1139.84
395.26	1130.48
395.46	1121.12
395.65	1177.29
395.84	1125.80
396.04	1217.08
396.23	1088.35
396.42	1109.41
396.62	1102.39
396.81	1053.24
397.00	1179.63
397.19	1198.35
397.39	1240.48
397.58	1198.35
397.77	1249.85
397.97	1165.59
398.16	1252.19
398.35	1221.76
398.55	1224.10
398.74	1439.43
398.93	1444.11
399.12	1366.87
399.32	1313.04
399.51	1392.62
399.70	1369.21
399.90	1352.83
400.09	1355.17
400.28	1334.11
400.47	1493.26
400.67	1479.22
400.86	1502.62
401.05	1427.73
401.24	1425.39
401.44	1481.56
401.63	1476.88
401.82	1549.43
402.01	1511.99
402.21	1448.79
402.40	1554.12
402.59	1549.43
402.78	1544.75
402.97	1490.92
403.17	1486.24
403.36	1568.16
403.55	1666.46
403.74	1647.74
403.93	1586.88
404.13	1586.88
404.32	1626.67
404.51	1645.40
404.70	1710.93
404.89	1638.38
405.09	1790.51
405.28	1764.76
405.47	1720.29
405.66	1755.40
405.85	1713.27
406.05	1671.14
406.24	1797.53
406.43	1874.77
406.62	1942.64
406.81	1916.90
407.00	1748.38
407.20	1804.55
407.39	1764.76
407.58	1968.39
407.77	1830.30
407.96	1877.11
408.15	1933.28
408.34	1909.88
408.54	2064.35
408.73	1963.71
408.92	2064.35
409.11	1961.37
409.30	2017.54
409.49	2087.76
409.68	2026.90
409.87	1994.14
410.07	2115.84
410.26	2111.16
410.45	2097.12
410.64	2083.08
410.83	2085.42
411.02	2197.76
411.21	2251.60
411.40	2223.51
411.59	2300.75
411.78	2186.06
411.98	2265.64
412.17	2373.30
412.36	2492.67
412.55	2352.24
412.74	2401.39
412.93	2480.97
413.12	2504.37
413.31	2537.14
413.50	2518.42
413.69	2476.29
413.88	2523.10
414.07	2466.92
414.26	2597.99
414.45	2621.40
414.64	2745.45
414.83	2600.34
415.02	2736.09
415.22	2649.49
415.41	2782.90
415.60	2740.77
415.79	2818.00
415.98	2960.78
416.17	2981.84
416.36	2846.09
416.55	2810.98
416.74	2909.29
416.93	2942.05
417.12	2928.01
417.31	3030.99
417.50	3103.55
417.69	3115.25
417.88	3150.36
418.07	3030.99
418.26	2998.23
418.45	3047.38
418.64	3183.13
418.83	3227.60
419.02	3159.72
419.21	3080.14
419.39	3272.07
419.58	3166.74
419.77	3302.50
419.96	3300.16
420.15	3412.50
420.34	3290.79
420.53	3255.69
420.72	3246.32
420.91	3316.54
421.10	3403.14
421.29	3548.25
421.48	3400.80
421.67	3410.16
421.86	3372.71
422.05	3442.93
422.24	3482.72
422.43	3344.63
422.61	3412.50
422.80	3421.86
422.99	3538.89
423.18	3487.40
423.37	3651.24
423.56	3358.67
423.75	3571.66
423.94	3361.01
424.13	3279.09
424.32	3330.58
424.50	3595.06
424.69	3602.08
424.88	3534.21
425.07	3604.42
425.26	3578.68
425.45	3485.06
425.64	3370.37
425.83	3566.98
426.01	3644.21
426.20	3426.54
426.39	3681.66
426.58	3592.72
426.77	3569.32
426.96	3625.49
427.15	3538.89
427.33	3681.66
427.52	3581.02
427.71	3618.47
427.90	3698.05
428.09	3674.64
428.28	3693.37
428.46	3861.88
428.65	3850.18
428.84	3871.25
429.03	3782.31
429.22	3686.34
429.40	3953.16
429.59	3815.07
429.78	3705.07
429.97	3667.62
430.16	3688.68
430.34	3747.20
430.53	3859.54
430.72	3815.07
430.91	3815.07
431.10	3868.91
431.28	4002.32
431.47	4058.49
431.66	4177.86
431.85	4074.87
432.03	4238.71
432.22	4194.24
432.41	4196.58
432.60	4219.99
432.79	4348.72
432.97	4337.01
433.16	4210.62
433.35	4222.33
433.54	4306.59
433.72	4269.14
433.91	4322.97
434.10	4280.84
434.28	4203.60
434.47	4334.67
434.66	4510.21
434.85	4444.68
435.03	4442.34
435.22	4390.84
435.41	4664.69
435.59	4383.82
435.78	4573.41
435.97	4603.83
436.16	4472.76
436.34	4627.24
436.53	4652.98
436.72	4709.16
436.90	4585.11
437.09	4753.63
437.28	4561.70
437.46	4449.36
437.65	4734.90
437.84	4772.35
438.02	4723.20
438.21	4727.88
438.40	4627.24
438.58	4837.89
438.77	4884.70
438.96	4870.65
439.14	4959.60
439.33	4908.10
439.52	5156.20
439.70	5146.84
439.89	4980.66
440.08	5128.11
440.26	5142.16
440.45	5247.48
440.63	5149.18
440.82	5366.85
441.01	5226.42
441.19	5352.81
441.38	5540.05
441.57	5394.93
441.75	5483.88
441.94	5547.07
442.12	5535.37
442.31	5664.10
442.50	5657.07
442.68	5549.41
442.87	5647.71
443.05	5572.82
443.24	5729.63
443.43	5769.42
443.61	5895.81
443.80	5980.07
443.98	5598.56
444.17	5483.88
444.35	5715.59
444.54	5982.41
444.73	5841.98
444.91	5736.65
445.10	5921.56
445.28	5809.21
445.47	5874.74
445.65	5867.72
445.84	5825.59
446.02	6003.47
446.21	5928.58
446.39	5893.47
446.58	6076.03
446.77	6148.59
446.95	5755.38
447.14	5907.51
447.32	5874.74
447.51	5996.45
447.69	6031.56
447.88	6129.86
448.06	6069.01
448.25	5919.21
448.43	6143.91
448.62	6200.08
448.80	5975.39
448.99	6150.93
449.17	6181.35
449.36	6073.69
449.54	6270.30
449.73	6277.32
449.91	6487.96
450.10	6267.95
450.28	6321.79
450.46	6312.42
450.65	6368.60
450.83	6363.92
451.02	6267.95
451.20	6448.18
451.39	6415.41
451.57	6480.94
451.76	6406.05
451.94	6352.21
452.13	6640.10
452.31	6420.09
452.49	6310.08
452.68	6502.01
452.86	6504.35
453.05	6576.91
453.23	6504.35
453.42	6670.53
453.60	6572.22
453.78	6525.41
453.97	6576.91
454.15	6796.92
454.34	6462.22
454.52	6810.96
454.70	6778.19
454.89	6946.71
455.07	6780.53
455.26	6883.52
455.44	6932.67
455.62	6869.47
455.81	6970.12
455.99	6930.33
456.17	7148.00
456.36	7145.66
456.54	7265.02
456.73	7166.72
456.91	7178.42
457.09	7208.85
457.28	7360.98
457.46	7318.86
457.64	7480.35
457.83	7192.47
458.01	7339.92
458.19	7449.93
458.38	7236.94
458.56	7396.09
458.74	7632.49
458.93	7368.01
459.11	7527.16
459.29	7421.84
459.48	7447.58
459.66	7370.35
459.84	7676.96
460.03	7810.37
460.21	7630.15
460.39	7770.58
460.57	7623.12
460.76	7702.70
460.94	7871.22
461.12	7847.82
461.31	7840.79
461.49	7625.47
461.67	7674.62
461.85	7857.18
462.04	8009.31
462.22	8439.97
462.40	7964.84
462.59	8037.40
462.77	7927.39
462.95	8028.04
463.13	7920.37
463.32	7822.07
463.50	8152.09
463.68	8245.71
463.86	8006.97
464.05	8072.51
464.23	8009.31
464.41	8248.05
464.59	8091.23
464.78	8283.16
464.96	8187.19
465.14	8142.72
465.32	8168.47
465.50	8374.44
465.69	8484.44
465.87	8287.84
466.05	8308.90
466.23	8402.52
466.41	8486.78
466.60	8372.10
466.78	8423.59
466.96	8430.61
467.14	8540.61
467.32	8526.57
467.51	8585.08
467.69	8283.16
467.87	8470.40
468.05	8615.51
468.23	8372.10
468.41	8531.25
468.60	8578.06
468.78	8659.98
468.96	8573.38
469.14	8638.92
469.32	8828.50
469.50	8517.21
469.69	8854.25
469.87	8837.86
470.05	8854.25
470.23	8844.88
470.41	8915.10
470.59	9060.21
470.77	9018.08
470.95	9097.66
471.14	9200.65
471.32	9032.13
471.50	9221.71
471.68	9404.27
471.86	9380.87
472.04	9224.05
472.22	9469.81
472.40	9317.67
472.58	9291.93
472.77	9605.56
472.95	9376.19
473.13	9870.04
473.31	9664.07
473.49	9727.27
473.67	9490.87
473.85	9666.41
474.03	9886.42
474.21	9909.83
474.39	9958.98
474.57	9905.15
474.75	10017.49
474.93	10139.20
475.12	10200.05
475.30	10413.04
475.48	10221.12
475.66	10356.87
475.84	10485.60
476.02	10387.30
476.20	10565.18
476.38	10560.50
476.56	10927.96
476.74	10867.11
476.92	10754.76
477.10	10523.05
477.28	10920.94
477.46	11140.95
477.64	11021.58
477.82	11206.48
478.00	11520.12
478.18	11349.26
478.36	11421.81
478.54	11426.50
478.72	11573.95
478.90	11688.64
479.08	11864.18
479.26	12025.67
479.44	11847.79
479.62	12231.64
479.80	12276.11
479.98	12135.68
480.16	12325.26
480.34	12358.03
480.52	12517.18
480.70	12437.61
480.88	12526.55
481.06	12549.95
481.24	12446.97
481.41	12833.16
481.59	12994.65
481.77	13018.06
481.95	13085.94
482.13	13317.65
482.31	13046.15
482.49	13350.42
482.67	13586.81
482.85	13429.99
483.03	13701.50
483.21	13769.37
483.39	13935.55
483.57	14064.28
483.74	14143.86
483.92	14333.44
484.10	14319.40
484.28	14406.00
484.46	14738.35
484.64	15147.95
484.82	14483.24
485.00	14726.65
485.18	15374.98
485.35	15192.42
485.53	14941.98
485.71	14991.13
485.89	15272.00
486.07	15164.33
486.25	15328.17
486.43	15543.50
486.61	15651.16
486.78	15892.24
486.96	16016.29
487.14	16217.57
487.32	16011.60
487.50	16599.08
487.68	16788.66
487.85	16823.77
488.03	16812.07
488.21	16964.20
488.39	17032.08
488.57	16968.88
488.75	17551.68
488.92	17156.13
489.10	17696.79
489.28	17769.35
489.46	18019.78
489.64	17862.97
489.81	18623.64
489.99	18394.27
490.17	18590.88
490.35	18469.17
490.53	18541.72
490.70	18974.72
490.88	18780.46
491.06	18909.19
491.24	18888.12
491.41	18946.64
491.59	19616.03
491.77	19302.40
491.95	19222.82
492.13	19782.21
492.30	20006.90
492.48	20210.53
492.66	20091.16
492.84	19960.09
493.01	20013.92
493.19	20173.08
493.37	20489.05
493.54	20540.54
493.72	20671.61
493.90	20706.72
494.08	20987.58
494.25	20877.58
494.43	21233.34
494.61	21422.92
494.79	21486.12
494.96	21415.90
495.14	21706.13
495.32	21951.88
495.49	21731.87
495.67	21919.12
495.85	21666.34
496.02	22436.38
496.20	22544.04
496.38	22352.12
496.55	22522.98
496.73	22764.05
496.91	22761.71
497.09	22838.95
497.26	23129.17
497.44	22792.14
497.62	22958.31
497.79	23213.43
497.97	23236.84
498.14	23583.24
498.32	23721.33
498.50	23623.03
498.67	23988.15
498.85	23686.22
499.03	24126.24
499.20	24294.76
499.38	24395.40
499.56	24025.60
499.73	24400.08
499.91	24507.75
500.08	24631.80
500.26	24397.74
500.44	24662.22
500.61	24938.41
500.79	24507.75
500.97	24992.24
501.14	25628.87
501.32	25170.12
501.49	25317.57
501.67	25151.40
501.84	25586.74
502.02	25228.63
502.20	25750.57
502.37	25640.57
502.55	25888.67
502.72	25905.05
502.90	25923.77
503.07	25752.91
503.25	26176.55
503.43	25935.48
503.60	26195.28
503.78	26054.84
503.95	26747.64
504.13	26331.03
504.30	26490.18
504.48	26515.93
504.65	26923.18
504.83	27026.17
505.01	27122.13
505.18	27049.57
505.36	27498.95
505.53	27016.80
505.71	27351.50
505.88	27356.18
506.06	27014.46
506.23	27377.25
506.41	27075.32
506.58	27222.77
506.76	27845.35
506.93	27756.41
507.11	27828.97
507.28	27953.02
507.46	28034.94
507.63	28016.21
507.81	28467.94
507.98	27976.42
508.16	28425.81
508.33	28402.40
508.50	28580.28
508.68	28716.03
508.85	28802.63
509.03	28903.28
509.20	28842.42
509.38	29167.76
509.55	28975.83
509.73	28912.64
509.90	29315.21
510.08	28957.11
510.25	29294.14
510.42	29525.86
510.60	29415.85
510.77	29603.10
510.95	29883.96
511.12	29455.64
511.30	29975.24
511.47	30089.93
511.64	30506.54
511.82	30174.19
511.99	30092.27
512.17	30169.51
512.34	30031.41
512.51	30309.94
512.69	30558.03
512.86	30895.07
513.04	30829.54
513.21	30321.64
513.38	30583.78
513.56	30874.01
513.73	30466.75
513.90	30756.98
514.08	30796.77
514.25	30890.39
514.43	30843.58
514.60	30876.35
514.77	31178.28
514.95	31304.67
515.12	31234.45
515.29	31419.35
515.47	31714.26
515.64	31976.40
515.81	31379.56
515.99	31821.92
516.16	31723.62
516.33	31700.22
516.51	31709.58
516.68	31751.71
516.85	31583.19
517.03	32063.00
517.20	32444.51
517.37	32322.80
517.54	32182.37
517.72	32341.52
517.89	31639.36
518.06	32428.12
518.24	32023.21
518.41	32170.66
518.58	32556.85
518.75	32655.15
518.93	32814.31
519.10	32465.57
519.27	33031.98
519.45	32622.39
519.62	33104.54
519.79	33031.98
519.96	33298.80
520.14	33441.57
520.31	33209.86
520.48	33521.15
520.65	33394.76
520.83	33558.60
521.00	34031.39
521.17	33528.17
521.34	33757.55
521.52	33598.39
521.69	33694.35
521.86	33879.25
522.03	34054.79
522.20	34153.10
522.38	34583.76
522.55	34260.76
522.72	34209.27
522.89	33696.69
523.07	34513.54
523.24	34101.61
523.41	34363.75
523.58	34740.57
523.75	34981.65
523.92	34899.73
524.10	34806.11
524.27	34796.74
524.44	34843.56
524.61	34693.76
524.78	34705.46
524.96	35103.35
525.13	35587.85
525.30	35416.99
525.47	35204.00
525.64	35054.20
525.81	35562.10
525.98	35374.86
526.16	35601.89
526.33	35491.88
526.50	35386.56
526.67	35318.68
526.84	35707.21
527.01	35185.27
527.18	35473.16
527.36	35791.47
527.53	35573.80
527.70	36156.60
527.87	36250.22
528.04	36470.23
528.21	36264.26
528.38	35807.86
528.55	36184.68
528.72	36781.52
528.89	36755.77
529.07	36437.46
529.24	36053.61
529.41	36610.66
529.58	36032.55
529.75	36678.54
529.92	36388.31
530.09	36772.16
530.26	36973.44
530.43	37205.16
530.60	36886.84
530.77	36566.19
530.94	37186.43
531.11	37120.90
531.28	37340.91
531.46	36898.55
531.63	37521.13
531.80	37036.64
531.97	37127.92
532.14	37411.12
532.31	37331.54
532.48	37322.18
532.65	37422.83
532.82	37495.38
532.99	37780.93
533.16	37565.60
533.33	37699.01
533.50	37579.64
533.67	38117.96
533.84	37989.24
534.01	37755.18
534.18	38099.24
534.35	38316.91
534.52	38005.62
534.69	38356.70
534.86	38169.46
535.03	38031.36
535.20	38057.11
535.37	38150.73
535.54	38721.82
535.71	38134.35
535.88	38799.06
536.05	38476.07
536.22	38354.36
536.38	38731.18
536.55	38670.33
536.72	38593.09
536.89	38572.03
537.06	38691.40
537.23	39068.22
537.40	38672.67
537.57	38953.54
537.74	38714.80
537.91	39016.73
538.08	39051.84
538.25	38422.23
538.42	38855.23
538.59	39133.76
538.75	38873.96
538.92	39278.87
539.09	38988.64
539.26	39379.51
539.43	39426.32
539.60	39150.14
539.77	38953.54
539.94	39182.91
540.11	39571.44
540.28	39356.11
540.44	39557.39
540.61	39342.06
540.78	39009.71
540.95	39810.17
541.12	39412.28
541.29	39599.52
541.46	39632.29
541.62	39611.23
541.79	39915.50
541.96	39658.04
542.13	40245.51
542.30	39976.35
542.47	40353.18
542.63	39608.89
542.80	40084.01
542.97	40629.36
543.14	41071.72
543.31	39842.94
543.48	40435.10
543.64	41132.57
543.81	40758.09
543.98	40636.38
544.15	40598.93
544.32	40751.07
544.48	40952.35
544.65	40945.33
544.82	40928.95
544.99	40638.72
545.16	40727.66
545.32	40802.56
545.49	40961.72
545.66	41045.97
545.83	41144.28
546.00	41493.02
546.16	40793.20
546.33	40854.05
546.50	40767.45
546.67	40935.97
546.83	40914.90
547.00	41071.72
547.17	41010.87
547.34	41280.03
547.50	41439.18
547.67	41656.85
547.84	41486.00
548.00	41720.05
548.17	41909.63
548.34	41481.31
548.51	41792.61
548.67	41610.04
548.84	41806.65
549.01	41624.09
549.18	41792.61
549.34	41528.13
549.51	42068.79
549.68	42225.60
549.84	41888.57
550.01	42096.88
550.18	41893.25
550.34	42251.35
550.51	41794.95
550.68	41654.51
550.84	41551.53
551.01	42543.92
551.18	42059.43
551.34	42157.73
551.51	42157.73
551.68	42192.84
551.84	42260.71
552.01	41998.57
552.18	42197.52
552.34	42136.66
552.51	42136.66
552.68	42417.53
552.84	42429.23
553.01	42628.18
553.18	42148.37
553.34	42337.95
553.51	42366.04
553.67	42506.47
553.84	42918.40
554.01	42787.33
554.17	42864.57
554.34	42784.99
554.51	42546.26
554.67	43012.02
554.84	42997.98
555.00	42534.56
555.17	42913.72
555.33	42986.28
555.50	42726.48
555.67	42953.51
555.83	43035.43
556.00	43058.84
556.16	43646.31
556.33	42981.60
556.50	43203.95
556.66	42712.44
556.83	43091.60
556.99	43377.15
557.16	43342.04
557.32	43068.20
557.49	43508.22
557.65	43166.50
557.82	43138.41
557.98	42916.06
558.15	43536.30
558.32	43185.22
558.48	43643.97
558.65	42923.08
558.81	43381.83
558.98	43358.42
559.14	43430.98
559.31	43292.89
559.47	43613.54
559.64	43775.04
559.80	43796.10
559.97	43412.26
560.13	43442.68
560.30	43515.24
560.46	43318.64
560.63	43388.85
560.79	43971.64
560.96	43889.73
561.12	43704.82
561.29	43419.28
561.45	43704.82
561.61	43559.71
561.78	43639.29
561.94	43463.75
562.11	43955.26
562.27	43688.44
562.44	43578.43
562.60	43943.56
562.77	43798.44
562.93	43936.54
563.10	44025.48
563.26	43337.36
563.42	44041.86
563.59	43674.40
563.75	43756.32
563.92	44062.93
564.08	44135.48
564.24	44259.53
564.41	44121.44
564.57	44060.58
564.74	43875.68
564.90	44116.76
565.07	43831.21
565.23	43550.35
565.39	44217.40
565.56	44252.51
565.72	44336.77
565.88	43863.98
566.05	43901.43
566.21	44055.90
566.38	43936.54
566.54	44032.50
566.70	43852.28
566.87	44655.08
567.03	44133.14
567.19	44931.26
567.36	44294.64
567.52	43838.23
567.68	44212.72
567.85	44304.00
568.01	44435.07
568.17	44044.20
568.34	44332.09
568.50	44381.24
568.66	44236.12
568.83	44247.83
568.99	44037.18
569.15	44289.96
569.32	44128.46
569.48	43927.17
569.64	44697.21
569.81	44772.11
569.97	44278.25
570.13	44208.04
570.30	43878.02
570.46	43992.71
570.62	44311.02
570.78	43892.07
570.95	44093.35
571.11	44554.44
571.27	44580.18
571.43	44421.03
571.60	44753.38
571.76	44299.32
571.92	44271.23
572.09	44538.05
572.25	44477.20
572.41	44156.55
572.57	44460.82
572.74	44907.86
572.90	44648.06
573.06	44722.96
573.22	44849.35
573.38	44526.35
573.55	44322.72
573.71	44552.10
573.87	44334.43
574.03	44374.22
574.20	44753.38
574.36	44280.60
574.52	44591.89
574.68	45010.84
574.84	44643.38
575.01	44584.86
575.17	44643.38
575.33	44392.94
575.49	44189.31
575.65	44776.79
575.82	45258.94
575.98	44238.47
576.14	44802.53
576.30	44748.70
576.46	44163.57
576.62	44128.46
576.79	44376.56
576.95	44135.48
577.11	44304.00
577.27	44626.99
577.43	44879.77
577.59	44708.91
577.75	44392.94
577.92	44327.41
578.08	44528.69
578.24	44439.75
578.40	44402.30
578.56	44601.25
578.72	44683.17
578.88	44875.09
579.04	44509.97
579.21	44130.80
579.37	44027.82
579.53	44493.58
579.69	44505.29
579.85	44514.65
580.01	45109.14
580.17	44397.62
580.33	44839.98
580.49	44762.75
580.65	44734.66
580.82	44713.59
580.98	44664.44
581.14	44514.65
581.30	44645.72
581.46	44493.58
581.62	44992.12
581.78	44329.75
581.94	45078.72
582.10	44641.04
582.26	44938.29
582.42	44619.97
582.58	44800.19
582.74	44837.64
582.90	44765.09
583.06	45048.29
583.22	45095.10
583.38	44779.13
583.54	44968.71
583.70	44612.95
583.86	44982.76
584.02	44362.51
584.18	44931.26
584.34	44683.17
584.50	44725.30
584.66	44795.51
584.82	44463.16
584.98	44772.11
585.14	44673.81
585.30	44444.43
585.46	44755.72
585.62	44423.37
585.78	44350.81
585.94	44238.47
586.10	44535.71
586.26	44547.42
586.42	44580.18
586.58	44629.34
586.74	44772.11
586.90	44587.21
587.06	44884.45
587.22	44910.20
587.38	44296.98
587.54	45125.53
587.70	45106.80
587.86	44861.05
588.02	45188.72
588.18	44987.44
588.34	44603.59
588.49	44816.58
588.65	44519.33
588.81	44245.49
588.97	44746.36
589.13	44973.39
589.29	44751.04
589.45	44727.64
589.61	45006.16
589.77	45289.37
589.93	45010.84
590.08	45525.76
590.24	45141.91
590.40	44966.37
590.56	44744.02
590.72	44987.44
590.88	44893.82
591.04	44882.11
591.20	45818.33
591.35	45464.91
591.51	45750.45
591.67	45319.79
591.83	45387.67
591.99	45074.04
592.15	45593.64
592.31	45160.64
592.46	45270.64
592.62	44858.71
592.78	44938.29
592.94	45432.14
593.10	45191.06
593.26	44982.76
593.41	44905.52
593.57	44882.11
593.73	44744.02
593.89	44837.64
594.05	44879.77
594.20	45137.23
594.36	45518.74
594.52	45024.89
594.68	45244.90
594.84	45165.32
594.99	45492.99
595.15	44648.06
595.31	44973.39
595.47	45263.62
595.62	45048.29
595.78	44856.37
595.94	45368.94
596.10	45397.03
596.25	45563.21
596.41	44942.97
596.57	45127.87
596.73	45539.80
596.88	44816.58
597.04	44975.73
597.20	44914.88
597.36	44856.37
597.51	45436.82
597.67	45081.06
597.83	45127.87
597.99	45691.94
598.14	45071.70
598.30	45338.52
598.46	44971.05
598.61	45022.54
598.77	44643.38
598.93	45081.06
599.09	45106.80
599.24	45661.51
599.40	45249.58
599.56	45478.95
599.71	44903.18
599.87	45347.88
600.03	45202.77
600.18	45268.30
600.34	45488.31
600.50	45338.52
600.65	45144.25
600.81	45523.42
600.97	45567.89
601.12	45570.23
601.28	45743.43
601.44	45134.89
601.59	45146.59
601.75	45170.00
601.91	45062.33
602.06	45338.52
602.22	45284.68
602.37	45106.80
602.53	45144.25
602.69	45436.82
602.84	45359.58
603.00	44917.22
603.16	45003.82
603.31	45244.90
603.47	45130.21
603.62	45612.36
603.78	45212.13
603.94	45134.89
604.09	45324.47
604.25	44825.94
604.40	45308.09
604.56	44992.12
604.71	45258.94
604.87	44821.26
605.03	45275.32
605.18	44652.74
605.34	45411.07
605.49	44507.63
605.65	45031.91
605.80	45277.66
605.96	45097.44
606.12	45200.43
606.27	45752.79
606.43	44821.26
606.58	44961.69
606.74	44545.08
606.89	45420.44
607.05	45233.19
607.20	45504.70
607.36	44971.05
607.51	45443.84
607.67	45059.99
607.82	44914.88
607.98	44989.78
608.13	44884.45
608.29	44762.75
608.44	44598.91
608.60	44636.36
608.75	44704.23
608.91	44879.77
609.06	44514.65
609.22	44821.26
609.37	44442.09
609.53	45244.90
609.68	44762.75
609.84	44987.44
609.99	44935.95
610.15	45055.31
610.30	44811.90
610.46	44116.76
610.61	44945.31
610.76	44545.08
610.92	44488.90
611.07	44357.83
611.23	44268.89
611.38	44664.44
611.54	44208.04
611.69	44341.45
611.84	44470.18
612.00	44236.12
612.15	44257.19
612.31	44769.77
612.46	44196.34
612.62	44711.25
612.77	44755.72
612.92	44931.26
613.08	44580.18
613.23	44582.52
613.39	44121.44
613.54	43592.48
613.69	44437.41
613.85	44254.85
614.00	44208.04
614.15	44376.56
614.31	44107.40
614.46	44474.86
614.62	43899.09
614.77	44212.72
614.92	44135.48
615.08	44123.78
615.23	44030.16
615.38	44053.56
615.54	43868.66
615.69	44013.77
615.84	43861.64
616.00	43899.09
616.15	43859.30
616.30	44170.59
616.46	44004.41
616.61	44048.88
616.76	43938.88
616.92	43690.78
617.07	43480.13
617.22	43786.74
617.37	43613.54
617.53	43791.42
617.68	44023.14
617.83	43587.80
617.99	43627.59
618.14	44013.77
618.29	43583.12
618.45	43562.05
618.60	43400.55
618.75	43849.94
618.90	43690.78
619.06	43849.94
619.21	43538.65
619.36	44032.50
619.51	43461.41
619.67	43358.42
619.82	43957.60
619.97	43821.85
620.12	43140.75
620.28	43201.61
620.43	43356.08
620.58	43304.59
620.73	43349.06
620.89	43281.19
621.04	43150.12
621.19	43248.42
621.34	43332.68
621.49	43192.25
621.65	42965.21
621.80	43459.07
621.95	43091.60
622.10	42981.60
622.25	42820.10
622.41	42646.90
622.56	43105.65
622.71	43309.27
622.86	42962.87
623.01	43168.84
623.16	43049.47
623.32	43634.61
623.47	43185.22
623.62	42745.20
623.77	42628.18
623.92	43311.61
624.07	42937.13
624.23	42555.62
624.38	42674.99
624.53	42792.01
624.68	42653.92
624.83	42595.41
624.98	43311.61
625.13	42700.73
625.29	42829.46
625.44	42155.39
625.59	42237.31
625.74	42298.16
625.89	42600.09
626.04	42183.48
626.19	42398.80
626.34	42792.01
626.49	42389.44
626.65	42398.80
626.80	42127.30
626.95	42412.85
627.10	42513.49
627.25	41947.08
627.40	41970.49
627.55	41593.66
627.70	41481.31
627.85	42038.36
628.00	42249.01
628.15	42417.53
628.30	41956.44
628.45	41982.19
628.60	42333.27
628.76	41839.42
628.91	42277.10
629.06	41588.98
629.21	41944.74
629.36	41710.69
629.51	41596.00
629.66	41675.58
629.81	41631.11
629.96	41584.30
630.11	41677.92
630.26	41633.45
630.41	41710.69
630.56	41588.98
630.71	42019.64
630.86	41364.29
631.01	41343.22
631.16	41495.36
631.31	40753.41
631.46	41242.58
631.61	41233.22
631.76	41127.89
631.91	41471.95
632.06	41509.40
632.21	41081.08
632.36	41598.34
632.51	41394.71
632.66	41312.80
632.81	41090.44
632.96	41237.90
633.10	40781.49
633.25	40666.81
633.40	41038.95
633.55	41858.14
633.70	41352.58
633.85	41027.25
634.00	41219.17
634.15	41280.03
634.30	41034.27
634.45	41158.32
634.60	41462.59
634.75	40994.48
634.90	40804.90
635.05	40886.82
635.19	40910.22
635.34	41057.68
635.49	40746.39
635.64	40697.24
635.79	40584.89
635.94	40212.74
636.09	40292.32
636.24	40371.90
636.39	40519.35
636.53	40636.38
636.68	40315.73
636.83	40294.66
636.98	40917.25
637.13	40245.51
637.28	40254.87
637.43	40840.01
637.57	40840.01
637.72	40786.18
637.87	40556.80
638.02	40409.35
638.17	40055.93
638.32	39985.71
638.46	39871.03
638.61	40657.45
638.76	40067.63
638.91	40009.12
639.06	40570.85
639.20	39985.71
639.35	40353.18
639.50	40095.72
639.65	40250.19
639.80	40430.41
639.94	40102.74
640.09	39966.99
640.24	39812.51
640.39	39679.10
640.54	40123.80
640.68	40011.46
640.83	40058.27
640.98	40016.14
641.13	39592.50
641.27	39763.36
641.42	39730.59
641.57	39992.73
641.72	39639.31
641.86	39290.57
642.01	39358.45
642.16	39667.40
642.31	39412.28
642.45	39739.96
642.60	39105.67
642.75	39040.14
642.90	39093.97
643.04	39431.01
643.19	39536.33
643.34	39592.50
643.48	39234.40
643.63	39416.96
643.78	39356.11
643.93	39035.45
644.07	39079.92
644.22	38742.89
644.37	39199.29
644.51	39072.90
644.66	39421.64
644.81	39620.59
644.95	39187.59
645.10	39070.56
645.25	39594.84
645.39	39239.08
645.54	39636.97
645.69	39339.72
645.83	38684.37
645.98	39309.30
646.13	39239.08
646.27	39037.80
646.42	39229.72
646.57	39332.70
646.71	39218.02
646.86	38892.68
647.00	38679.69
647.15	38710.12
647.30	39054.18
647.44	39014.39
647.59	38450.32
647.74	38792.04
647.88	38883.32
648.03	38108.60
648.17	38763.95
648.32	38855.23
648.47	38120.31
648.61	38761.61
648.76	38939.49
648.90	38710.12
649.05	38824.81
649.20	38485.43
649.34	38586.07
649.49	38340.32
649.63	38424.57
649.78	38440.96
649.92	38162.43
650.07	38742.89
650.21	38071.15
650.36	38284.14
650.51	38244.35
650.65	38768.63
650.80	38988.64
650.94	38740.55
651.09	38511.17
651.23	38160.09
651.38	37996.26
651.52	38286.48
651.67	38206.90
651.81	38555.64
651.96	38012.64
652.10	38124.99
652.25	37989.24
652.39	38171.80
652.54	38234.99
652.68	38162.43
652.83	37563.26
652.97	38181.16
653.12	38066.47
653.26	37888.59
653.41	37743.48
653.55	37722.41
653.70	37273.03
653.84	37848.80
653.99	37497.72
654.13	37668.58
654.27	37895.61
654.42	37684.97
654.56	37666.24
654.71	37876.89
654.85	38155.41
655.00	37701.35
655.14	37247.29
655.29	37118.56
655.43	37060.04
655.57	37172.39
655.72	36809.61
655.86	37200.47
656.01	36723.01
656.15	36879.82
656.30	36968.76
656.44	37415.80
656.58	37106.85
656.73	36854.08
656.87	36535.76
657.01	36629.38
657.16	36601.30
657.30	36758.11
657.45	36538.10
657.59	36474.91
657.73	36362.56
657.88	36657.47
658.02	37008.55
658.16	36753.43
658.31	36650.45
658.45	36863.44
658.60	36973.44
658.74	36776.84
658.88	36598.96
659.03	36528.74
659.17	36519.38
659.31	36350.86
659.46	36582.57
659.60	36505.34
659.74	36959.40
659.89	36046.59
660.03	36231.49
660.17	36266.60
660.32	36657.47
660.46	36559.17
660.60	36636.41
660.74	36484.27
660.89	36119.15
661.03	35999.78
661.17	35716.58
661.32	35758.70
661.46	36051.27
661.60	35796.15
661.74	35735.30
661.89	35681.47
662.03	36196.38
662.17	35517.63
662.31	35625.29
662.46	35669.76
662.60	35849.99
662.74	35789.13
662.88	35447.41
663.03	35023.78
663.17	35323.36
663.31	35152.51
663.45	35576.14
663.60	35576.14
663.74	35105.70
663.88	35182.93
664.02	34698.44
664.17	34986.33
664.31	34721.85
664.45	34625.89
664.59	34962.92
664.73	35143.14
664.88	35248.47
665.02	34586.10
665.16	34897.39
665.30	34574.39
665.44	34494.82
665.59	34356.72
665.73	34689.08
665.87	34113.31
666.01	34319.28
666.15	33982.24
666.29	34274.80
666.44	34288.85
666.58	34211.61
666.72	34408.22
666.86	34522.90
667.00	34670.36
667.14	33699.03
667.28	34195.23
667.43	33855.85
667.57	33886.28
667.71	33579.67
667.85	33818.40
667.99	33720.10
668.13	33563.28
668.27	33582.01
668.41	33628.82
668.56	33387.74
668.70	33535.20
668.84	33483.70
668.98	32954.74
669.12	33067.09
669.26	33436.89
669.40	33247.31
669.54	33031.98
669.68	32868.14
669.82	32996.87
669.96	32854.10
670.10	32851.76
670.25	32554.51
670.39	32676.22
670.53	32837.72
670.67	32521.74
670.81	32685.58
670.95	32870.48
671.09	32940.70
671.23	32683.24
671.37	32458.55
671.51	32570.90
671.65	32168.32
671.79	31857.03
671.93	32287.69
672.07	32322.80
672.21	32128.53
672.35	31704.90
672.49	31941.29
672.63	32222.16
672.77	31730.64
672.91	31653.40
673.05	31452.12
673.19	31522.34
673.33	31777.45
673.47	31274.24
673.61	31262.54
673.75	31442.76
673.89	31218.07
674.03	30677.40
674.17	31002.74
674.31	31358.50
674.45	30827.20
674.59	31122.10
674.73	31299.98
674.87	31101.04
675.01	30595.48
675.15	31232.11
675.29	30684.42
675.43	30766.34
675.56	30941.88
675.70	30665.70
675.84	30433.99
675.98	29401.81
676.12	30110.99
676.26	30206.95
676.40	29846.51
676.54	29937.79
676.68	29736.51
676.82	29275.42
676.96	29397.13
677.10	29460.32
677.23	29139.67
677.37	29071.79
677.51	29532.88
677.65	29118.60
677.79	29102.22
677.93	29170.10
678.07	29085.84
678.21	28776.89
678.34	28624.75
678.48	28549.85
678.62	28498.36
678.76	28554.54
678.90	28201.11
679.04	28280.69
679.18	28606.03
679.31	28414.10
679.45	28121.54
679.59	27606.62
679.73	28128.56
679.87	28140.26
680.00	27779.82
680.14	27431.08
680.28	27395.97
680.42	27435.76
680.56	27569.17
680.70	27534.06
680.83	27332.78
680.97	27122.13
681.11	27005.10
681.25	26642.32
681.39	26871.69
681.52	26909.14
681.66	26778.07
681.80	27030.85
681.94	26876.37
682.07	26611.89
682.21	26052.50
682.35	26422.31
682.49	26834.24
682.62	26216.34
682.76	25951.86
682.90	25825.47
683.04	26106.34
683.17	26085.27
683.31	25865.26
683.45	25792.70
683.59	25649.93
683.72	25172.46
683.86	25095.22
684.00	25345.66
684.13	25617.16
684.27	25247.36
684.41	24896.28
684.55	25083.52
684.68	24748.82
684.82	24809.68
684.96	24755.85
685.09	24982.88
685.23	24680.95
685.37	24390.72
685.50	24687.97
685.64	24034.96
685.78	24421.15
685.91	24357.96
686.05	24266.67
686.19	23840.70
686.32	24049.00
686.46	23770.48
686.60	23454.51
686.73	23651.11
686.87	23576.22
687.01	23374.93
687.14	23133.86
687.28	23026.19
687.42	22967.68
687.55	22717.24
687.69	22939.59
687.82	22897.46
687.96	22946.61
688.10	22574.47
688.23	22836.61
688.37	22640.00
688.50	21888.69
688.64	22448.08
688.78	22803.84
688.91	21979.97
689.05	22052.53
689.18	21699.11
689.32	21511.86
689.46	21958.91
689.59	22317.01
689.73	21895.71
689.86	21411.22
690.00	21656.98
690.13	21771.66
690.27	21649.96
690.41	21521.23
690.54	21092.91
690.68	21008.65
690.81	21385.47
690.95	20779.28
691.08	21132.70
691.22	21097.59
691.35	20863.54
691.49	20908.01
691.62	20891.62
691.76	20725.44
691.89	20570.97
692.03	20372.02
692.16	20231.59
692.30	20739.49
692.43	20409.47
692.57	20201.16
692.70	19978.81
692.84	20156.69
692.97	19967.11
693.11	19779.87
693.24	19992.86
693.38	19470.92
693.51	19791.57
693.65	19421.77
693.78	19688.59
693.92	19173.67
694.05	19307.08
694.19	19129.20
694.32	19058.98
694.45	18951.32
694.59	19131.54
694.72	18836.63
694.86	18934.93
694.99	18359.16
695.13	18572.15
695.26	18267.88
695.39	18317.03
695.53	18106.38
695.66	18438.74
695.80	18389.59
695.93	18108.72
696.07	18005.74
696.20	18188.30
696.33	18258.52
696.47	18024.47
696.60	18162.56
696.73	18015.10
696.87	17717.86
697.00	17577.42
697.14	17738.92
697.27	17256.77
697.40	17455.72
697.54	17214.64
697.67	17425.29
697.80	17249.75
697.94	17181.87
698.07	17081.23
698.21	16823.77
698.34	16982.93
698.47	16922.07
698.61	16734.83
698.74	16264.38
698.87	16482.05
699.01	16439.92
699.14	16233.96
699.27	16407.16
699.40	16325.24
699.54	16465.67
699.67	16037.35
699.80	16194.17
699.94	16063.10
700.07	16070.12
700.20	15700.31
700.34	16002.24
700.47	15822.02
700.60	15751.81
700.73	15524.77
700.87	15573.92
701.00	15721.38
701.13	15623.08
701.26	15293.06
701.40	15587.97
701.53	14988.79
701.66	15314.13
701.79	15059.01
701.93	14963.04
702.06	14714.95
702.19	14824.95
702.32	14686.86
702.46	14527.71
702.59	14836.66
702.72	14750.06
702.85	14576.86
702.99	14883.47
703.12	14768.78
703.25	14380.25
703.38	14441.11
703.51	14429.40
703.65	14312.38
703.78	14054.92
703.91	14317.06
704.04	14279.61
704.17	13900.44
704.31	14033.85
704.44	13682.77
704.57	13767.03
704.70	13437.02
704.83	13542.34
704.96	13783.41
705.10	13650.00
705.23	13633.62
>>>>>End Processed Spectral Data<<<<<
