SpectraSuite Data File
++++++++++++++++++++++++++++++++++++
Date: Fri Oct 25 11:34:06 EDT 2013
User: price-jones
Dark Spectrum Present: No
Reference Spectrum Present: No
Number of Sampled Component Spectra: 1
Spectrometers: USB2+H05261
Integration Time (usec): 100000 (USB2+H05261)
Spectra Averaged: 1 (USB2+H05261)
Boxcar Smoothing: 0 (USB2+H05261)
Correct for Electrical Dark: No (USB2+H05261)
Strobe/Lamp Enabled: No (USB2+H05261)
Correct for Detector Non-linearity: No (USB2+H05261)
Correct for Stray Light: No (USB2+H05261)
Number of Pixels in Processed Spectrum: 2048
>>>>>Begin Processed Spectral Data<<<<<
365.73	308.95
365.92	308.95
366.12	308.95
366.32	201.29
366.52	168.52
366.72	187.24
366.91	112.35
367.11	184.90
367.31	147.45
367.51	182.56
367.70	215.33
367.90	119.37
368.10	180.22
368.30	166.18
368.49	107.66
368.69	241.08
368.89	152.13
369.09	161.50
369.28	119.37
369.48	205.97
369.68	212.99
369.87	259.80
370.07	301.93
370.27	297.25
370.47	341.72
370.66	388.53
370.86	524.28
371.06	538.32
371.25	557.05
371.45	557.05
371.65	528.96
371.84	517.26
372.04	517.26
372.24	524.28
372.44	603.86
372.63	582.79
372.83	601.52
373.03	582.79
373.22	599.18
373.42	620.24
373.62	594.50
373.81	585.13
374.01	613.22
374.21	587.47
374.40	650.67
374.60	655.35
374.79	596.84
374.99	629.60
375.19	638.97
375.38	662.37
375.58	592.16
375.78	650.67
375.97	657.69
376.17	767.70
376.37	664.71
376.56	664.71
376.76	585.13
376.95	585.13
377.15	716.20
377.35	655.35
377.54	631.94
377.74	681.10
377.93	681.10
378.13	744.29
378.33	676.41
378.52	620.24
378.72	727.91
378.91	753.65
379.11	657.69
379.31	695.14
379.50	716.20
379.70	748.97
379.89	709.18
380.09	725.57
380.28	716.20
380.48	732.59
380.68	763.01
380.87	770.04
381.07	791.10
381.26	767.70
381.46	767.70
381.65	772.38
381.85	763.01
382.04	739.61
382.24	795.78
382.43	814.51
382.63	774.72
382.83	767.70
383.02	805.14
383.22	814.51
383.41	770.04
383.61	713.86
383.80	751.31
384.00	819.19
384.19	844.93
384.39	807.48
384.58	877.70
384.78	816.85
384.97	816.85
385.17	851.96
385.36	779.40
385.56	842.59
385.75	786.42
385.95	917.49
386.14	826.21
386.34	833.23
386.53	809.83
386.72	851.96
386.92	966.64
387.11	805.14
387.31	816.85
387.50	903.45
387.70	781.74
387.89	922.17
388.09	908.13
388.28	891.74
388.48	863.66
388.67	940.90
388.86	854.30
389.06	908.13
389.25	964.30
389.45	875.36
389.64	961.96
389.84	1001.75
390.03	903.45
390.22	929.19
390.42	992.39
390.61	933.87
390.81	926.85
391.00	950.26
391.19	976.00
391.39	961.96
391.58	1001.75
391.78	1011.11
391.97	1029.84
392.16	1025.15
392.36	976.00
392.55	1078.99
392.75	987.71
392.94	976.00
393.13	1050.90
393.33	1050.90
393.52	1057.92
393.71	1116.44
393.91	1053.24
394.10	1081.33
394.29	1057.92
394.49	1064.94
394.68	1132.82
394.88	1167.93
395.07	1217.08
395.26	1125.80
395.46	1093.03
395.65	1214.74
395.84	1128.14
396.04	1228.78
396.23	1221.76
396.42	1132.82
396.62	1256.87
396.81	1191.33
397.00	1252.19
397.19	1174.95
397.39	1156.22
397.58	1210.06
397.77	1210.06
397.97	1247.51
398.16	1217.08
398.35	1294.32
398.55	1247.51
398.74	1273.25
398.93	1329.42
399.12	1280.27
399.32	1270.91
399.51	1324.74
399.70	1401.98
399.90	1352.83
400.09	1296.66
400.28	1350.49
400.47	1357.51
400.67	1355.17
400.86	1324.74
401.05	1345.81
401.24	1362.19
401.44	1453.47
401.63	1448.79
401.82	1418.36
402.01	1425.39
402.21	1474.54
402.40	1495.60
402.59	1462.83
402.78	1507.30
402.97	1544.75
403.17	1416.02
403.36	1502.62
403.55	1533.05
403.74	1519.01
403.93	1521.35
404.13	1514.33
404.32	1493.26
404.51	1610.29
404.70	1554.12
404.89	1554.12
405.09	1736.68
405.28	1607.95
405.47	1640.72
405.66	1631.35
405.85	1631.35
406.05	1722.63
406.24	1713.27
406.43	1638.38
406.62	1788.17
406.81	1741.36
407.00	1682.85
407.20	1678.16
407.39	1743.70
407.58	1820.94
407.77	1769.44
407.96	1827.96
408.15	1846.68
408.34	1846.68
408.54	1863.07
408.73	2003.50
408.92	1905.20
409.11	1966.05
409.30	1973.07
409.49	1963.71
409.68	1947.33
409.87	1905.20
410.07	2094.78
410.26	1888.81
410.45	1984.77
410.64	1959.03
410.83	2115.84
411.02	2097.12
411.21	2050.31
411.40	2115.84
411.59	2146.27
411.78	2101.80
411.98	2139.25
412.17	2190.74
412.36	2293.72
412.55	2174.36
412.74	2296.07
412.93	2293.72
413.12	2310.11
413.31	2420.11
413.50	2363.94
413.69	2387.35
413.88	2431.82
414.07	2349.90
414.26	2487.99
414.45	2504.37
414.64	2478.63
414.83	2555.86
415.02	2576.93
415.22	2565.23
415.41	2633.10
415.60	2619.06
415.79	2677.57
415.98	2642.46
416.17	2623.74
416.36	2675.23
416.55	2656.51
416.74	2782.90
416.93	2775.88
417.12	2724.38
417.31	2832.05
417.50	2862.48
417.69	3028.65
417.88	2906.95
418.07	2892.90
418.26	2860.13
418.45	2892.90
418.64	2960.78
418.83	2869.50
419.02	2963.12
419.21	2972.48
419.39	3089.51
419.58	3052.06
419.77	3030.99
419.96	3059.08
420.15	3098.87
420.34	3007.59
420.53	3194.83
420.72	3241.64
420.91	3180.79
421.10	3145.68
421.29	3208.87
421.48	3173.77
421.67	3272.07
421.86	3279.09
422.05	3232.28
422.24	3328.24
422.43	3396.12
422.61	3262.71
422.80	3428.88
422.99	3428.88
423.18	3440.59
423.37	3330.58
423.56	3332.92
423.75	3382.07
423.94	3243.98
424.13	3159.72
424.32	3234.62
424.50	3471.01
424.69	3403.14
424.88	3487.40
425.07	3304.84
425.26	3412.50
425.45	3353.99
425.64	3377.39
425.83	3330.58
426.01	3424.20
426.20	3485.06
426.39	3412.50
426.58	3501.44
426.77	3494.42
426.96	3419.52
427.15	3536.55
427.33	3557.61
427.52	3618.47
427.71	3552.93
427.90	3473.36
428.09	3482.72
428.28	3758.90
428.46	3688.68
428.65	3662.94
428.84	3588.04
429.03	3604.42
429.22	3618.47
429.40	3653.58
429.59	3728.47
429.78	3644.21
429.97	3620.81
430.16	3730.81
430.34	3662.94
430.53	3775.28
430.72	3728.47
430.91	3875.93
431.10	3768.26
431.28	3983.59
431.47	3852.52
431.66	3817.41
431.85	3962.53
432.03	3894.65
432.22	4112.32
432.41	4056.15
432.60	4109.98
432.79	4049.13
432.97	4046.79
433.16	4086.58
433.35	4060.83
433.54	4198.92
433.72	4175.52
433.91	4091.26
434.10	4203.60
434.28	4182.54
434.47	4245.73
434.66	4065.51
434.85	4250.41
435.03	4224.67
435.22	4196.58
435.41	4411.91
435.59	4404.89
435.78	4266.80
435.97	4320.63
436.16	4369.78
436.34	4301.90
436.53	4414.25
436.72	4606.17
436.90	4339.35
437.09	4322.97
437.28	4365.10
437.46	4432.97
437.65	4587.45
437.84	4470.42
438.02	4636.60
438.21	4510.21
438.40	4517.23
438.58	4610.86
438.77	4643.62
438.96	4767.67
439.14	4744.27
439.33	4809.80
439.52	4858.95
439.70	4835.55
439.89	4959.60
440.08	4858.95
440.26	4732.56
440.45	4901.08
440.63	5104.71
440.82	5097.69
441.01	5013.43
441.19	5135.14
441.38	5085.98
441.57	5104.71
441.75	5121.09
441.94	5313.02
442.12	5357.49
442.31	5273.23
442.50	5322.38
442.68	5144.50
442.87	5280.25
443.05	5378.55
443.24	5261.52
443.43	5504.94
443.61	5441.75
443.80	5717.93
443.98	5352.81
444.17	5282.59
444.35	5284.93
444.54	5462.81
444.73	5521.32
444.91	5514.30
445.10	5338.76
445.28	5554.09
445.47	5537.71
445.65	5537.71
445.84	5575.16
446.02	5785.80
446.21	5446.43
446.39	5427.70
446.58	5596.22
446.77	5717.93
446.95	5511.96
447.14	5640.69
447.32	5638.35
447.51	5626.65
447.69	5760.06
447.88	5540.05
448.06	5509.62
448.25	5755.38
448.43	5558.77
448.62	5640.69
448.80	5907.51
448.99	5750.70
449.17	5774.10
449.36	5626.65
449.54	5994.11
449.73	5781.12
449.91	5984.75
450.10	5977.73
450.28	6092.41
450.46	5853.68
450.65	6253.91
450.83	5966.03
451.02	6078.37
451.20	6069.01
451.39	5984.75
451.57	5987.09
451.76	5909.85
451.94	6022.20
452.13	6207.10
452.31	6015.18
452.49	5951.98
452.68	6230.51
452.86	6143.91
453.05	6188.38
453.23	6221.14
453.42	6286.68
453.60	6246.89
453.78	6387.32
453.97	6333.49
454.15	6176.67
454.34	6307.74
454.52	6518.39
454.70	6300.72
454.89	6282.00
455.07	6422.43
455.26	6619.04
455.44	6626.06
455.62	6523.07
455.81	6612.01
455.99	6614.35
456.17	6609.67
456.36	6675.21
456.54	6665.85
456.73	6794.58
456.91	6918.62
457.09	6869.47
457.28	7035.65
457.46	6862.45
457.64	6869.47
457.83	6906.92
458.01	6923.30
458.19	7143.32
458.38	6956.07
458.56	6932.67
458.74	7133.95
458.93	6939.69
459.11	7073.10
459.29	6911.60
459.48	7098.84
459.66	7185.44
459.84	7183.10
460.03	7489.71
460.21	7185.44
460.39	7033.31
460.57	7239.28
460.76	7183.10
460.94	7353.96
461.12	7201.83
461.31	7424.18
461.49	7393.75
461.67	7417.16
461.85	7346.94
462.04	7494.40
462.22	8074.85
462.40	7791.64
462.59	7541.21
462.77	7658.23
462.95	7646.53
463.13	7634.83
463.32	7702.70
463.50	7896.97
463.68	7620.78
463.86	7683.98
464.05	7728.45
464.23	7559.93
464.41	7817.39
464.59	7744.83
464.78	7817.39
464.96	7737.81
465.14	7819.73
465.32	7845.48
465.50	8018.68
465.69	7887.61
465.87	7936.76
466.05	8063.15
466.23	8032.72
466.41	8262.09
466.60	8187.19
466.78	7983.57
466.96	8013.99
467.14	7988.25
467.32	8156.77
467.51	8163.79
467.69	7894.63
467.87	8147.40
468.05	8318.26
468.23	8116.98
468.41	8241.03
468.60	8189.53
468.78	8414.23
468.96	8353.37
469.14	8528.91
469.32	8493.80
469.50	8393.16
469.69	8503.17
469.87	8517.21
470.05	8465.72
470.23	8634.24
470.41	8629.56
470.59	8894.04
470.77	8430.61
470.95	8475.08
471.14	8805.10
471.32	8706.79
471.50	8809.78
471.68	8812.12
471.86	8929.14
472.04	8896.38
472.22	9186.60
472.40	9067.24
472.58	9130.43
472.77	9240.44
472.95	9111.71
473.13	9404.27
473.31	9282.56
473.49	9142.13
473.67	9252.14
473.85	9277.88
474.03	9596.20
474.21	9579.81
474.39	9678.12
474.57	9533.00
474.75	9778.76
474.93	9713.22
475.12	9820.89
475.30	9916.85
475.48	9767.06
475.66	9760.03
475.84	9916.85
476.02	10038.56
476.20	10125.16
476.38	10340.49
476.56	10492.62
476.74	10298.36
476.92	10555.82
477.10	10038.56
477.28	10464.54
477.46	10450.49
477.64	10380.28
477.82	10822.64
478.00	11119.89
478.18	10789.87
478.36	10853.06
478.54	10988.82
478.72	10895.19
478.90	11131.59
479.08	11339.90
479.26	11454.58
479.44	11356.28
479.62	11660.55
479.80	11431.18
479.98	11665.23
480.16	11761.19
480.34	11761.19
480.52	11873.54
480.70	12049.08
480.88	11910.99
481.06	11983.54
481.24	12304.20
481.41	12381.43
481.59	12374.41
481.77	12634.21
481.95	12636.55
482.13	12631.87
482.31	12795.71
482.49	13352.76
482.67	12952.52
482.85	12938.48
483.03	13046.15
483.21	13284.88
483.39	13605.53
483.57	13336.37
483.74	13596.17
483.92	13647.66
484.10	13413.61
484.28	14270.25
484.46	14225.78
484.64	14106.41
484.82	14146.20
485.00	14464.51
485.18	14654.09
485.35	14895.17
485.53	14684.52
485.71	15066.03
485.89	15143.27
486.07	15044.96
486.25	15222.84
486.43	15236.89
486.61	15323.49
486.78	15499.03
486.96	15550.52
487.14	16002.24
487.32	15660.52
487.50	16142.67
487.68	16056.08
487.85	16388.43
488.03	16446.94
488.21	16430.56
488.39	16772.28
488.57	16791.00
488.75	16826.11
488.92	17240.39
489.10	17319.96
489.28	17294.22
489.46	17504.87
489.64	17020.38
489.81	17902.76
489.99	17799.77
490.17	18003.40
490.35	18125.11
490.53	18087.66
490.70	18314.69
490.88	18239.79
491.06	18558.11
491.24	18455.12
491.41	18436.40
491.59	18808.54
491.77	18890.46
491.95	18951.32
492.13	19044.94
492.30	19204.10
492.48	19482.62
492.66	19363.25
492.84	19573.90
493.01	19655.82
493.19	19538.79
493.37	19941.36
493.54	19812.63
493.72	20070.09
493.90	20147.33
494.08	20313.51
494.25	20673.95
494.43	20456.28
494.61	20589.69
494.79	20870.56
494.96	20753.53
495.14	21125.68
495.32	21202.91
495.49	21348.03
495.67	21076.52
495.85	21488.46
496.02	21579.74
496.20	21834.86
496.38	21867.63
496.55	22178.92
496.73	22499.57
496.91	22181.26
497.09	22434.03
497.26	22663.41
497.44	22169.55
497.62	22775.75
497.79	22998.10
497.97	22815.54
498.14	23124.49
498.32	23236.84
498.50	23316.42
498.67	23494.30
498.85	23632.39
499.03	23730.69
499.20	23772.82
499.38	23594.94
499.56	24009.22
499.73	23810.27
499.91	24025.60
500.08	24046.66
500.26	24156.67
500.44	24208.16
500.61	24383.70
500.79	24566.26
500.97	24662.22
501.14	24900.96
501.32	24807.34
501.49	24758.19
501.67	24959.47
501.84	24957.13
502.02	24795.64
502.20	25020.33
502.37	25270.76
502.55	25369.07
502.72	25401.83
502.90	25298.85
503.07	24922.02
503.25	25605.46
503.43	25577.37
503.60	25862.92
503.78	25818.45
503.95	25481.41
504.13	25701.42
504.30	26398.90
504.48	26031.44
504.65	26082.93
504.83	26295.92
505.01	26270.17
505.18	26436.35
505.36	26717.22
505.53	27028.51
505.71	26768.71
505.88	26855.31
506.06	26946.59
506.23	26953.61
506.41	26792.11
506.58	27168.94
506.76	27175.96
506.93	27124.47
507.11	27454.48
507.28	27477.89
507.46	27477.89
507.63	27445.12
507.81	27850.03
507.98	27854.72
508.16	27721.30
508.33	28222.18
508.50	27924.93
508.68	28063.02
508.85	28348.57
509.03	28278.35
509.20	28006.85
509.38	28587.30
509.55	28704.33
509.73	28662.20
509.90	28416.44
510.08	28800.29
510.25	28847.10
510.42	29020.30
510.60	29202.86
510.77	29153.71
510.95	29453.30
511.12	29156.05
511.30	29460.32
511.47	29418.19
511.64	29397.13
511.82	29638.20
511.99	29921.41
512.17	29809.06
512.34	29876.94
512.51	30235.04
512.69	30209.29
512.86	30082.91
513.04	30543.99
513.21	30506.54
513.38	30181.21
513.56	30405.90
513.73	30487.82
513.90	30462.07
514.08	30794.43
514.25	30932.52
514.43	30836.56
514.60	31040.18
514.77	30855.28
514.95	30984.01
515.12	31019.12
515.29	31019.12
515.47	31328.07
515.64	31424.03
515.81	31295.30
515.99	31143.17
516.16	31674.47
516.33	31367.86
516.51	31791.50
516.68	31454.46
516.85	31868.73
517.03	31868.73
517.20	31566.81
517.37	32224.50
517.54	31779.79
517.72	32158.96
517.89	32215.13
518.06	32343.86
518.24	32629.41
518.41	32175.34
518.58	32151.94
518.75	32610.68
518.93	32524.08
519.10	32641.11
519.27	32835.38
519.45	32982.83
519.62	33008.58
519.79	32739.41
519.96	33029.64
520.14	32992.19
520.31	32940.70
520.48	33195.82
520.65	32921.98
520.83	33752.87
521.00	33851.17
521.17	33486.04
521.34	33443.91
521.52	33823.08
521.69	33233.27
521.86	33809.04
522.03	33745.84
522.20	34026.71
522.38	34415.24
522.55	34405.88
522.72	34543.97
522.89	34256.08
523.07	34740.57
523.24	34541.63
523.41	34284.17
523.58	34405.88
523.75	34923.13
523.92	34501.84
524.10	35126.76
524.27	34677.38
524.44	35086.97
524.61	35145.48
524.78	34944.20
524.96	35431.03
525.13	35646.36
525.30	35747.00
525.47	35543.38
525.64	35431.03
525.81	35318.68
525.98	35536.35
526.16	35548.06
526.33	35765.73
526.50	36121.49
526.67	35426.35
526.84	36006.80
527.01	35644.02
527.18	35983.40
527.36	35950.63
527.53	35812.54
527.70	36383.63
527.87	36093.40
528.04	36219.79
528.21	35810.20
528.38	36498.31
528.55	36165.96
528.72	36112.13
528.89	36636.41
529.07	36669.17
529.24	36023.19
529.41	36807.26
529.58	36495.97
529.75	36591.94
529.92	36776.84
530.09	37090.47
530.26	36788.54
530.43	37156.00
530.60	36765.14
530.77	36851.73
530.94	37053.02
531.11	37031.96
531.28	37120.90
531.46	37029.62
531.63	37277.71
531.80	37076.43
531.97	37186.43
532.14	37387.72
532.31	37060.04
532.48	37565.60
532.65	38068.81
532.82	37579.64
532.99	38036.05
533.16	37888.59
533.33	37832.42
533.50	38033.71
533.67	37722.41
533.84	37977.53
534.01	38120.31
534.18	38096.90
534.35	38213.93
534.52	38319.25
534.69	38698.42
534.86	38770.97
535.03	38628.20
535.20	38450.32
535.37	38799.06
535.54	38370.74
535.71	38642.24
535.88	38864.60
536.05	38955.88
536.22	39009.71
536.38	38801.40
536.55	39131.42
536.72	38834.17
536.89	38873.96
537.06	38927.79
537.23	39402.92
537.40	39035.45
537.57	39150.14
537.74	38976.94
537.91	39529.31
538.08	39391.22
538.25	38902.04
538.42	39203.97
538.59	39578.46
538.75	39063.54
538.92	39580.80
539.09	39934.22
539.26	39622.93
539.43	39498.88
539.60	39906.13
539.77	39482.50
539.94	39789.11
540.11	39875.71
540.28	40217.43
540.44	39995.07
540.61	39831.24
540.78	40098.06
540.95	40383.60
541.12	39882.73
541.29	40023.16
541.46	40102.74
541.62	40137.85
541.79	40395.31
541.96	39910.82
542.13	40278.28
542.30	40416.37
542.47	40041.88
542.63	40439.78
542.80	40737.02
542.97	40898.52
543.14	40985.12
543.31	40746.39
543.48	41228.54
543.64	41682.60
543.81	41137.26
543.98	40964.06
544.15	41581.96
544.32	40971.08
544.48	41900.27
544.65	41022.57
544.82	41830.05
544.99	41078.74
545.16	41387.69
545.32	40926.61
545.49	42010.28
545.66	42066.45
545.83	41832.39
546.00	41703.67
546.16	41296.41
546.33	41560.89
546.50	41455.57
546.67	41956.44
546.83	41387.69
547.00	41509.40
547.17	41556.21
547.34	41851.12
547.50	42146.03
547.67	42745.20
547.84	41881.55
548.00	41635.79
548.17	42424.55
548.34	42146.03
548.51	42101.56
548.67	42330.93
548.84	42019.64
549.01	42110.92
549.18	42139.00
549.34	42562.64
549.51	42527.53
549.68	42663.28
549.84	42796.70
550.01	42522.85
550.18	42171.77
550.34	42600.09
550.51	43234.38
550.68	42728.82
550.84	42412.85
551.01	43061.18
551.18	42749.88
551.34	42464.34
551.51	42698.39
551.68	43246.08
551.84	42646.90
552.01	42768.61
552.18	42501.79
552.34	42899.68
552.51	43313.95
552.68	42925.42
552.84	43126.71
553.01	43206.29
553.18	43199.27
553.34	43601.84
553.51	42965.21
553.67	43522.26
553.84	43154.80
554.01	43758.66
554.17	43456.73
554.34	43150.12
554.51	43384.17
554.67	43882.70
554.84	43693.12
555.00	43512.90
555.17	43690.78
555.33	44184.63
555.50	43416.94
555.67	43482.47
555.83	43459.07
556.00	43613.54
556.16	44502.95
556.33	44215.06
556.50	43805.47
556.66	43863.98
556.83	43648.65
556.99	43847.60
557.16	44472.52
557.32	43945.90
557.49	44617.63
557.65	43969.30
557.82	44184.63
557.98	44432.73
558.15	44570.82
558.32	44460.82
558.48	44219.74
558.65	44098.03
558.81	44446.77
558.98	44362.51
559.14	44477.20
559.31	44247.83
559.47	44385.92
559.64	44514.65
559.80	44383.58
559.97	44849.35
560.13	44198.68
560.30	44779.13
560.46	44999.14
560.63	44921.90
560.79	45057.65
560.96	44889.13
561.12	45043.61
561.29	44687.85
561.45	44849.35
561.61	44339.11
561.78	44751.04
561.94	44762.75
562.11	44608.27
562.27	44870.41
562.44	44786.15
562.60	44907.86
562.77	45207.45
562.93	44638.70
563.10	45034.25
563.26	45078.72
563.42	45050.63
563.59	45001.48
563.75	45244.90
563.92	45209.79
564.08	44954.67
564.24	45034.25
564.41	44783.81
564.57	45216.81
564.74	44875.09
564.90	44783.81
565.07	45345.54
565.23	45055.31
565.39	45347.88
565.56	45270.64
565.72	45177.02
565.88	45146.59
566.05	45333.84
566.21	45607.68
566.38	45588.95
566.54	45261.28
566.70	45439.16
566.87	45186.38
567.03	45626.40
567.19	45469.59
567.36	44968.71
567.52	45394.69
567.68	45258.94
567.85	45291.71
568.01	45439.16
568.17	45120.85
568.34	45462.57
568.50	45624.06
568.66	44830.62
568.83	45727.05
568.99	45326.81
569.15	45495.33
569.32	45801.94
569.48	45256.60
569.64	46099.19
569.81	46183.45
569.97	45715.34
570.13	46122.60
570.30	45368.94
570.46	45642.79
570.62	45935.35
570.78	45750.45
570.95	45776.20
571.11	45944.72
571.27	45813.65
571.43	45825.35
571.60	45911.95
571.76	45525.76
571.92	45659.17
572.09	45588.95
572.25	45682.58
572.41	45675.55
572.57	46174.09
572.74	45944.72
572.90	45984.51
573.06	45921.31
573.22	45862.80
573.38	46000.89
573.55	46148.34
573.71	46248.99
573.87	46110.89
574.03	45935.35
574.20	45872.16
574.36	45977.48
574.52	46330.90
574.68	45783.22
574.84	46169.41
575.01	46305.16
575.17	46190.47
575.33	45998.55
575.49	45708.32
575.65	46300.48
575.82	46293.46
575.98	45869.82
576.14	46138.98
576.30	46380.06
576.46	46050.04
576.62	46050.04
576.79	46279.41
576.95	46064.08
577.11	45942.38
577.27	46057.06
577.43	45848.75
577.59	46024.29
577.75	45911.95
577.92	45886.20
578.08	46209.20
578.24	46026.63
578.40	46281.75
578.56	46141.32
578.72	46176.43
578.88	46674.96
579.04	46541.55
579.21	46309.84
579.37	46476.02
579.53	46162.39
579.69	46162.39
579.85	45734.07
580.01	46045.36
580.17	45773.86
580.33	47084.56
580.49	46464.32
580.65	46026.63
580.82	46066.42
580.98	46223.24
581.14	45993.87
581.30	46078.13
581.46	46424.53
581.62	46478.36
581.78	46398.78
581.94	46232.60
582.10	46199.83
582.26	46508.79
582.42	46316.86
582.58	46036.00
582.74	46160.05
582.90	46047.70
583.06	46520.49
583.22	46176.43
583.38	46344.95
583.54	46642.20
583.70	46218.56
583.86	46248.99
584.02	46426.87
584.18	46597.73
584.34	46504.10
584.50	46429.21
584.66	46639.86
584.82	46609.43
584.98	46635.17
585.14	46579.00
585.30	46312.18
585.46	46485.38
585.62	46543.89
585.78	46541.55
585.94	46082.81
586.10	46508.79
586.26	46483.04
586.42	46396.44
586.58	46536.87
586.74	46197.49
586.90	46277.07
587.06	46412.82
587.22	46590.70
587.38	46499.42
587.54	46602.41
587.70	46885.61
587.86	46672.62
588.02	46302.82
588.18	46871.57
588.34	46731.14
588.49	46656.24
588.65	46522.83
588.81	46309.84
588.97	46497.08
589.13	46721.77
589.29	46349.63
589.45	46719.43
589.61	46614.11
589.77	46820.08
589.93	47171.16
590.08	46768.58
590.24	47536.28
590.40	46810.71
590.56	47269.46
590.72	47065.83
590.88	46487.72
591.04	46497.08
591.20	47105.62
591.35	46749.86
591.51	47468.40
591.67	47157.11
591.83	47250.74
591.99	46927.74
592.15	46934.76
592.31	46855.18
592.46	47019.02
592.62	46597.73
592.78	47517.56
592.94	47159.45
593.10	47360.74
593.26	47248.39
593.41	46789.65
593.57	47021.36
593.73	47468.40
593.89	47480.11
594.05	47632.24
594.20	47063.49
594.36	47407.55
594.52	47278.82
594.68	46653.90
594.84	46934.76
594.99	47421.59
595.15	47257.76
595.31	47281.16
595.47	47229.67
595.62	47393.51
595.78	47054.13
595.94	47283.50
596.10	47398.19
596.25	47346.70
596.41	46927.74
596.57	47004.98
596.73	47332.65
596.88	47358.40
597.04	47339.68
597.20	47290.52
597.36	47325.63
597.51	47044.77
597.67	47349.04
597.83	46899.65
597.99	47353.72
598.14	46588.36
598.30	47274.14
598.46	47114.98
598.61	47775.02
598.77	47543.30
598.93	47461.38
599.09	47257.76
599.24	47683.73
599.40	47114.98
599.56	47503.51
599.71	47304.57
599.87	47903.74
600.03	47281.16
600.18	47388.83
600.34	47599.47
600.50	47571.39
600.65	47409.89
600.81	47084.56
600.97	47571.39
601.12	47641.60
601.28	47491.81
601.44	47327.97
601.59	47543.30
601.75	47290.52
601.91	47686.07
602.06	47215.63
602.22	47393.51
602.37	47550.32
602.53	47297.55
602.69	47711.82
602.84	47487.13
603.00	47353.72
603.16	47021.36
603.31	47400.53
603.47	47508.19
603.62	47484.79
603.78	47524.58
603.94	47187.54
604.09	47531.60
604.25	47423.93
604.40	47426.28
604.56	47601.82
604.71	47929.49
604.87	47124.35
605.03	47468.40
605.18	47002.64
605.34	47536.28
605.49	47297.55
605.65	47044.77
605.80	47019.02
605.96	47456.70
606.12	47484.79
606.27	47323.29
606.43	46941.78
606.58	47725.86
606.74	47250.74
606.89	47255.42
607.05	47585.43
607.20	47224.99
607.36	47241.37
607.51	47407.55
607.67	46686.67
607.82	47241.37
607.98	47224.99
608.13	47269.46
608.29	46752.20
608.44	47285.84
608.60	47239.03
608.75	47222.65
608.91	47463.72
609.06	46625.81
609.22	47262.44
609.37	47075.19
609.53	47421.59
609.68	47004.98
609.84	47000.30
609.99	47206.26
610.15	46974.55
610.30	47278.82
610.46	46864.55
610.61	46733.48
610.76	47526.92
610.92	46871.57
611.07	46981.57
611.23	46621.13
611.38	47178.18
611.54	47168.82
611.69	46948.81
611.84	47100.94
612.00	47037.75
612.15	46639.86
612.31	47004.98
612.46	46319.20
612.62	47131.37
612.77	46710.07
612.92	47117.32
613.08	46789.65
613.23	47161.79
613.39	46728.80
613.54	46469.00
613.69	47206.26
613.85	46550.91
614.00	47107.96
614.15	46611.77
614.31	46323.88
614.46	46419.84
614.62	46377.72
614.77	46920.72
614.92	46738.16
615.08	46527.51
615.23	46824.76
615.38	46494.74
615.54	46454.95
615.69	46738.16
615.84	46256.01
616.00	46576.66
616.15	46824.76
616.30	46494.74
616.46	46307.50
616.61	46387.08
616.76	46878.59
616.92	46321.54
617.07	46518.15
617.22	46333.24
617.37	46295.80
617.53	46548.57
617.68	46003.23
617.83	46134.30
617.99	46726.46
618.14	46913.70
618.29	46017.27
618.45	46288.77
618.60	45982.16
618.75	46204.52
618.90	45965.78
619.06	46157.70
619.21	46204.52
619.36	46438.57
619.51	46536.87
619.67	45940.04
619.82	46026.63
619.97	45942.38
620.12	46012.59
620.28	45904.93
620.43	46300.48
620.58	45808.96
620.73	45928.33
620.89	46443.25
621.04	46092.17
621.19	46094.51
621.34	45811.31
621.49	45628.74
621.65	46171.75
621.80	46103.87
621.95	45853.44
622.10	45769.18
622.25	46057.06
622.41	45827.69
622.56	45584.27
622.71	46174.09
622.86	46190.47
623.01	45752.79
623.16	45982.16
623.32	45757.47
623.47	45708.32
623.62	45823.01
623.77	45773.86
623.92	45738.75
624.07	45708.32
624.23	45977.48
624.38	45581.93
624.53	45741.09
624.68	45331.50
624.83	45560.87
624.98	45497.67
625.13	45116.17
625.29	45422.78
625.44	45177.02
625.59	45184.04
625.74	45298.73
625.89	45048.29
626.04	45064.67
626.19	45724.71
626.34	45427.46
626.49	45057.65
626.65	45024.89
626.80	44961.69
626.95	44823.60
627.10	44886.79
627.25	45235.53
627.40	45453.20
627.55	44964.03
627.70	44832.96
627.85	45090.42
628.00	44673.81
628.15	44807.22
628.30	44699.55
628.45	44411.67
628.60	44790.83
628.76	44470.18
628.91	44456.14
629.06	44289.96
629.21	44329.75
629.36	44624.65
629.51	44828.28
629.66	44669.12
629.81	44547.42
629.96	44687.85
630.11	44690.19
630.26	44598.91
630.41	44556.78
630.56	44722.96
630.71	44404.64
630.86	44491.24
631.01	44105.06
631.16	44364.85
631.31	44250.17
631.46	44299.32
631.61	44186.97
631.76	44470.18
631.91	44678.49
632.06	44348.47
632.21	44311.02
632.36	44802.53
632.51	44196.34
632.66	44032.50
632.81	44039.52
632.96	44025.48
633.10	43838.23
633.25	43896.75
633.40	44467.84
633.55	44533.37
633.70	44208.04
633.85	43653.33
634.00	43849.94
634.15	44020.80
634.30	43800.79
634.45	43971.64
634.60	43433.32
634.75	44182.29
634.90	44280.60
635.05	43828.87
635.19	43772.70
635.34	43807.81
635.49	43885.04
635.64	43735.25
635.79	43831.21
635.94	43566.73
636.09	43723.55
636.24	43707.16
636.39	43683.76
636.53	43821.85
636.68	43421.62
636.83	43225.01
636.98	43311.61
637.13	43283.53
637.28	43395.87
637.43	42981.60
637.57	43438.00
637.72	42944.15
637.87	43381.83
638.02	43447.36
638.17	43548.01
638.32	43056.50
638.46	42997.98
638.61	43126.71
638.76	43100.97
638.91	43206.29
639.06	42766.27
639.20	42784.99
639.35	42569.66
639.50	42621.16
639.65	42890.32
639.80	43079.90
639.94	43250.76
640.09	42913.72
640.24	43222.67
640.39	42480.72
640.54	42588.39
640.68	43051.81
640.83	43042.45
640.98	42595.41
641.13	42572.00
641.27	43058.84
641.42	42536.90
641.57	42696.05
641.72	42553.28
641.86	42183.48
642.01	42426.89
642.16	42541.58
642.31	42059.43
642.45	42576.69
642.60	42749.88
642.75	42429.23
642.90	42637.54
643.04	42139.00
643.19	42653.92
643.34	42323.91
643.48	41958.78
643.63	42167.09
643.78	42522.85
643.93	42504.13
644.07	42122.62
644.22	42363.70
644.37	42417.53
644.51	42021.98
644.66	42356.67
644.81	42281.78
644.95	42373.06
645.10	42162.41
645.25	42080.49
645.39	41801.97
645.54	41703.67
645.69	41310.46
645.83	41701.32
645.98	41626.43
646.13	41750.48
646.27	41956.44
646.42	41680.26
646.57	41874.52
646.71	41682.60
646.86	41937.72
647.00	42021.98
647.15	42103.90
647.30	42183.48
647.44	41542.17
647.59	41923.68
647.74	41645.15
647.88	42101.56
648.03	41773.88
648.17	42422.21
648.32	41979.85
648.47	42227.95
648.61	41394.71
648.76	41647.49
648.90	41982.19
649.05	41689.62
649.20	41401.74
649.34	41209.81
649.49	41113.85
649.63	41546.85
649.78	41933.04
649.92	41563.23
650.07	41673.24
650.21	41801.97
650.36	41755.16
650.51	41500.04
650.65	41652.17
650.80	41509.40
650.94	41254.28
651.09	41598.34
651.23	40699.58
651.38	40718.30
651.52	40708.94
651.67	41130.23
651.81	41001.50
651.96	41118.53
652.10	41020.23
652.25	40758.09
652.39	40849.37
652.54	41179.39
652.68	41205.13
652.83	41031.93
652.97	41060.02
653.12	41139.60
653.26	40718.30
653.41	40840.01
653.55	40556.80
653.70	40605.95
653.84	41041.29
653.99	40786.18
654.13	40694.89
654.27	40540.42
654.42	40526.38
654.56	40369.56
654.71	40339.13
654.85	40184.66
655.00	40879.80
655.14	40793.20
655.29	40437.44
655.43	40722.98
655.57	40718.30
655.72	40390.62
655.86	40399.99
656.01	40275.94
656.15	40142.53
656.30	39917.84
656.44	40252.53
656.58	40163.59
656.73	40210.40
656.87	39943.58
657.01	39913.16
657.16	40222.11
657.30	40048.91
657.45	39669.74
657.59	40032.52
657.73	39880.39
657.88	40383.60
658.02	39861.66
658.16	40315.73
658.31	39971.67
658.45	39775.06
658.60	39866.34
658.74	39473.13
658.88	39992.73
659.03	39459.09
659.17	39269.51
659.31	39342.06
659.46	39531.65
659.60	40084.01
659.74	39613.57
659.89	38904.38
660.03	38972.26
660.17	39672.08
660.32	39159.50
660.46	39515.26
660.60	38749.91
660.74	39250.78
660.89	39000.35
661.03	39182.91
661.17	38653.95
661.32	38513.52
661.46	38993.32
661.60	38656.29
661.74	38913.75
661.89	39463.77
662.03	38628.20
662.17	38485.43
662.31	38445.64
662.46	38754.59
662.60	38085.20
662.74	38314.57
662.88	38230.31
663.03	38127.33
663.17	38092.22
663.31	37923.70
663.45	38267.76
663.60	38422.23
663.74	38251.38
663.88	38265.42
664.02	37986.89
664.17	38178.82
664.31	37755.18
664.45	38040.73
664.59	37448.57
664.73	37736.46
664.88	37514.11
665.02	37270.69
665.16	37565.60
665.30	37434.53
665.44	37347.93
665.59	36875.14
665.73	36938.33
665.87	37146.64
666.01	37118.56
666.15	37394.74
666.29	37167.71
666.44	37418.14
666.58	36928.97
666.72	36727.69
666.86	36713.64
667.00	36718.32
667.14	36694.92
667.28	36849.39
667.43	36800.24
667.57	36950.04
667.71	36652.79
667.85	36847.05
667.99	36659.81
668.13	36313.41
668.27	36416.40
668.41	36222.13
668.56	35990.42
668.70	36100.42
668.84	35241.45
668.98	35557.42
669.12	35789.13
669.26	36196.38
669.40	35976.37
669.54	35772.75
669.68	36194.04
669.82	35782.11
669.96	34946.54
670.10	35271.87
670.25	35594.87
670.39	35587.85
670.53	35316.34
670.67	35466.14
670.81	35737.64
670.95	35374.86
671.09	34983.99
671.23	35314.00
671.37	35072.93
671.51	34644.61
671.65	34703.12
671.79	34752.27
671.93	34883.34
672.07	35220.38
672.21	34609.50
672.35	34389.49
672.49	34527.58
672.63	34621.20
672.77	34717.17
672.91	34223.31
673.05	34319.28
673.19	34277.15
673.33	34057.14
673.47	33813.72
673.61	33516.47
673.75	33631.16
673.89	33979.90
674.03	33689.67
674.17	33163.05
674.31	33560.94
674.45	33214.54
674.59	33046.02
674.73	33046.02
674.87	32994.53
675.01	32912.61
675.15	32868.14
675.29	33034.32
675.43	32903.25
675.56	32851.76
675.70	32694.94
675.84	32383.65
675.98	31835.97
676.12	32290.03
676.26	32818.99
676.40	32364.93
676.54	32275.99
676.68	32109.81
676.82	31445.10
676.96	32165.98
677.10	32067.68
677.23	31679.15
677.37	31459.14
677.51	31379.56
677.65	31276.58
677.79	31335.09
677.93	31372.54
678.07	31515.31
678.21	30960.61
678.34	30881.03
678.48	30546.33
678.62	30735.92
678.76	30543.99
678.90	30462.07
679.04	30558.03
679.18	30359.09
679.31	30469.09
679.45	30038.44
679.59	29666.29
679.73	30057.16
679.87	29823.11
680.00	29930.77
680.14	29883.96
680.28	29919.07
680.42	29457.98
680.56	29722.46
680.70	29277.76
680.83	29233.29
680.97	29362.02
681.11	29432.24
681.25	28650.50
681.39	28669.22
681.52	28938.38
681.66	28512.41
681.80	27934.29
681.94	28142.60
682.07	28203.46
682.21	27824.29
682.35	28297.08
682.49	28072.39
682.62	27934.29
682.76	28294.74
682.90	28002.17
683.04	28067.70
683.17	27763.43
683.31	27033.19
683.45	26948.93
683.59	27080.00
683.72	26972.33
683.86	27159.58
684.00	27030.85
684.13	27065.96
684.27	26717.22
684.41	26630.62
684.55	26977.01
684.68	26459.76
684.82	26171.87
684.96	26551.04
685.09	26230.38
685.23	26253.79
685.37	26501.89
685.50	26485.50
685.64	26218.68
685.78	26036.12
685.91	25968.24
686.05	25427.58
686.19	25287.15
686.32	25701.42
686.46	25170.12
686.60	25123.31
686.73	25373.75
686.87	24912.66
687.01	25235.66
687.14	24907.98
687.28	24868.19
687.42	24821.38
687.55	24807.34
687.69	24549.88
687.82	24404.77
687.96	24575.62
688.10	24334.55
688.23	24350.93
688.37	23990.49
688.50	24362.64
688.64	23896.87
688.78	23754.10
688.91	23765.80
689.05	23859.42
689.18	23452.17
689.32	23129.17
689.46	23267.27
689.59	23091.73
689.73	23339.82
689.86	23630.05
690.00	23218.11
690.13	23260.24
690.27	22916.19
690.41	22881.08
690.54	22693.83
690.68	22689.15
690.81	22352.12
690.95	22448.08
691.08	22237.43
691.22	21783.37
691.35	22108.70
691.49	22267.86
691.62	22064.23
691.76	21722.51
691.89	21640.59
692.03	21624.21
692.16	21273.13
692.30	21888.69
692.43	21640.59
692.57	21233.34
692.70	21172.49
692.84	20823.75
692.97	20840.13
693.11	20767.57
693.24	20730.12
693.38	20648.21
693.51	20339.26
693.65	20606.08
693.78	20278.40
693.92	20149.67
694.05	20025.62
694.19	20545.22
694.32	20451.60
694.45	20418.83
694.59	20388.41
694.72	20210.53
694.86	20063.07
694.99	19543.47
695.13	19360.91
695.26	19267.29
695.39	19328.14
695.53	19421.77
695.66	19021.53
695.80	19042.60
695.93	19185.37
696.07	18911.53
696.20	18778.12
696.33	18527.68
696.47	18403.63
696.60	18398.95
696.73	18644.71
696.87	18658.75
697.00	18726.63
697.14	18164.90
697.27	17982.34
697.40	18188.30
697.54	18122.77
697.67	18279.58
697.80	18061.91
697.94	17980.00
698.07	17759.98
698.21	17666.36
698.34	17769.35
698.47	17404.22
698.61	17149.11
698.74	16919.73
698.87	17263.79
699.01	17242.73
699.14	17181.87
699.27	17015.69
699.40	16821.43
699.54	16783.98
699.67	16847.18
699.80	16758.24
699.94	16482.05
700.07	16837.81
700.20	16692.70
700.34	16491.41
700.47	16133.31
700.60	16437.58
700.73	16257.36
700.87	16072.46
701.00	15688.61
701.13	15889.90
701.26	15812.66
701.40	15847.77
701.53	15599.67
701.66	15850.11
701.79	15620.74
701.93	15426.47
702.06	15281.36
702.19	15370.30
702.32	15501.37
702.46	15393.70
702.59	15157.31
702.72	15246.25
702.85	15246.25
702.99	14867.08
703.12	14661.12
703.25	14665.80
703.38	14888.15
703.51	14782.82
703.65	14476.21
703.78	14516.00
703.91	14207.05
704.04	14092.37
704.17	14078.32
704.31	14310.04
704.44	14047.90
704.57	13809.16
704.70	14057.26
704.83	13923.85
704.96	13825.54
705.10	13738.94
705.23	13624.26
>>>>>End Processed Spectral Data<<<<<
