SpectraSuite Data File
++++++++++++++++++++++++++++++++++++
Date: Fri Oct 25 11:33:16 EDT 2013
User: price-jones
Dark Spectrum Present: No
Reference Spectrum Present: No
Number of Sampled Component Spectra: 1
Spectrometers: USB2+H05261
Integration Time (usec): 100000 (USB2+H05261)
Spectra Averaged: 1 (USB2+H05261)
Boxcar Smoothing: 0 (USB2+H05261)
Correct for Electrical Dark: No (USB2+H05261)
Strobe/Lamp Enabled: No (USB2+H05261)
Correct for Detector Non-linearity: No (USB2+H05261)
Correct for Stray Light: No (USB2+H05261)
Number of Pixels in Processed Spectrum: 2048
>>>>>Begin Processed Spectral Data<<<<<
365.73	294.91
365.92	294.91
366.12	294.91
366.32	229.37
366.52	196.60
366.72	198.95
366.91	142.77
367.11	180.22
367.31	163.84
367.51	100.64
367.70	208.31
367.90	121.71
368.10	128.73
368.30	138.09
368.49	198.95
368.69	170.86
368.89	212.99
369.09	128.73
369.28	212.99
369.48	222.35
369.68	231.71
369.87	269.16
370.07	245.76
370.27	222.35
370.47	325.33
370.66	437.68
370.86	465.77
371.06	557.05
371.25	599.18
371.45	510.24
371.65	592.16
371.84	603.86
372.04	575.77
372.24	601.52
372.44	601.52
372.63	486.83
372.83	613.22
373.03	564.07
373.22	606.20
373.42	528.96
373.62	653.01
373.81	650.67
374.01	631.94
374.21	638.97
374.40	660.03
374.60	704.50
374.79	692.80
374.99	543.00
375.19	610.88
375.38	634.29
375.58	580.45
375.78	662.37
375.97	688.12
376.17	739.61
376.37	617.90
376.56	685.78
376.76	727.91
376.95	585.13
377.15	664.71
377.35	655.35
377.54	758.33
377.74	695.14
377.93	664.71
378.13	683.44
378.33	755.99
378.52	711.52
378.72	709.18
378.91	748.97
379.11	692.80
379.31	718.54
379.50	706.84
379.70	660.03
379.89	802.80
380.09	702.16
380.28	730.25
380.48	732.59
380.68	723.23
380.87	798.12
381.07	755.99
381.26	706.84
381.46	777.06
381.65	695.14
381.85	798.12
382.04	856.64
382.24	863.66
382.43	774.72
382.63	812.17
382.83	751.31
383.02	786.42
383.22	791.10
383.41	791.10
383.61	755.99
383.80	870.68
384.00	760.67
384.19	805.14
384.39	795.78
384.58	851.96
384.78	905.79
384.97	823.87
385.17	807.48
385.36	828.55
385.56	849.61
385.75	746.63
385.95	858.98
386.14	926.85
386.34	922.17
386.53	861.32
386.72	959.62
386.92	894.08
387.11	870.68
387.31	896.43
387.50	926.85
387.70	870.68
387.89	830.89
388.09	915.15
388.28	931.53
388.48	884.72
388.67	889.40
388.86	1041.54
389.06	971.32
389.25	933.87
389.45	976.00
389.64	875.36
389.84	1039.20
390.03	1020.47
390.22	954.94
390.42	938.55
390.61	936.21
390.81	947.92
391.00	945.58
391.19	1011.11
391.39	1032.18
391.58	1034.52
391.78	1048.56
391.97	973.66
392.16	990.05
392.36	1093.03
392.55	1039.20
392.75	1062.60
392.94	1053.24
393.13	1069.62
393.33	1107.07
393.52	1039.20
393.71	1107.07
393.91	1149.20
394.10	987.71
394.29	1137.50
394.49	1095.37
394.68	1137.50
394.88	1116.44
395.07	1181.97
395.26	1111.75
395.46	1107.07
395.65	1184.31
395.84	1191.33
396.04	1287.29
396.23	1240.48
396.42	1198.35
396.62	1205.38
396.81	1200.69
397.00	1289.64
397.19	1174.95
397.39	1306.02
397.58	1249.85
397.77	1291.98
397.97	1254.53
398.16	1240.48
398.35	1261.55
398.55	1242.82
398.74	1270.91
398.93	1320.06
399.12	1331.76
399.32	1252.19
399.51	1338.79
399.70	1462.83
399.90	1404.32
400.09	1247.51
400.28	1434.75
400.47	1357.51
400.67	1401.98
400.86	1390.28
401.05	1380.92
401.24	1437.09
401.44	1401.98
401.63	1378.58
401.82	1490.92
402.01	1404.32
402.21	1544.75
402.40	1444.11
402.59	1493.26
402.78	1448.79
402.97	1432.41
403.17	1497.94
403.36	1561.14
403.55	1547.09
403.74	1547.09
403.93	1617.31
404.13	1610.29
404.32	1610.29
404.51	1685.19
404.70	1645.40
404.89	1577.52
405.09	1706.25
405.28	1593.90
405.47	1706.25
405.66	1720.29
405.85	1760.08
406.05	1741.36
406.24	1741.36
406.43	1720.29
406.62	1757.74
406.81	1877.11
407.00	1771.79
407.20	1734.34
407.39	1811.57
407.58	1802.21
407.77	1844.34
407.96	1916.90
408.15	1961.37
408.34	1923.92
408.54	2012.86
408.73	1937.96
408.92	2043.29
409.11	2057.33
409.30	1970.73
409.49	1928.60
409.68	1984.77
409.87	1879.45
410.07	1994.14
410.26	1970.73
410.45	2111.16
410.64	2139.25
410.83	2165.00
411.02	2085.42
411.21	2162.66
411.40	2216.49
411.59	2188.40
411.78	2190.74
411.98	2183.72
412.17	2307.77
412.36	2317.13
412.55	2291.38
412.74	2335.85
412.93	2370.96
413.12	2303.09
413.31	2422.45
413.50	2452.88
413.69	2417.77
413.88	2525.44
414.07	2427.14
414.26	2539.48
414.45	2532.46
414.64	2546.50
414.83	2642.46
415.02	2553.52
415.22	2647.15
415.41	2590.97
415.60	2679.91
415.79	2745.45
415.98	2759.49
416.17	2771.19
416.36	2771.19
416.55	2860.13
416.74	2773.53
416.93	2857.79
417.12	2920.99
417.31	2820.35
417.50	2913.97
417.69	2958.44
417.88	2991.20
418.07	2932.69
418.26	2946.73
418.45	2984.18
418.64	3159.72
418.83	3028.65
419.02	2979.50
419.21	3126.96
419.39	3251.00
419.58	3082.49
419.77	3110.57
419.96	3262.71
420.15	3143.34
420.34	3162.06
420.53	3166.74
420.72	3187.81
420.91	3272.07
421.10	3201.85
421.29	3375.05
421.48	3358.67
421.67	3361.01
421.86	3440.59
422.05	3314.20
422.24	3391.44
422.43	3197.17
422.61	3435.91
422.80	3496.76
422.99	3398.46
423.18	3391.44
423.37	3520.17
423.56	3515.48
423.75	3363.35
423.94	3332.92
424.13	3211.22
424.32	3361.01
424.50	3524.85
424.69	3438.25
424.88	3468.67
425.07	3555.27
425.26	3452.29
425.45	3482.72
425.64	3534.21
425.83	3421.86
426.01	3541.23
426.20	3562.30
426.39	3452.29
426.58	3421.86
426.77	3445.27
426.96	3515.48
427.15	3421.86
427.33	3552.93
427.52	3527.19
427.71	3676.98
427.90	3658.26
428.09	3772.94
428.28	3707.41
428.46	3655.92
428.65	3627.83
428.84	3772.94
429.03	3786.99
429.22	3772.94
429.40	3742.52
429.59	3847.84
429.78	3655.92
429.97	3747.20
430.16	3824.44
430.34	3794.01
430.53	3887.63
430.72	3817.41
430.91	3981.25
431.10	3859.54
431.28	3920.40
431.47	3889.97
431.66	4049.13
431.85	3932.10
432.03	3960.19
432.22	4091.26
432.41	4170.83
432.60	4109.98
432.79	3960.19
432.97	4306.59
433.16	4210.62
433.35	4208.28
433.54	4147.43
433.72	4196.58
433.91	3997.64
434.10	4269.14
434.28	4156.79
434.47	4299.56
434.66	4236.37
434.85	4365.10
435.03	4360.42
435.22	4255.09
435.41	4393.19
435.59	4397.87
435.78	4582.77
435.97	4283.18
436.16	4461.06
436.34	4535.96
436.53	4533.62
436.72	4610.86
436.90	4360.42
437.09	4557.02
437.28	4329.99
437.46	4533.62
437.65	4620.22
437.84	4709.16
438.02	4606.17
438.21	4674.05
438.40	4638.94
438.58	4798.10
438.77	4863.63
438.96	4873.00
439.14	4929.17
439.33	4966.62
439.52	4931.51
439.70	5013.43
439.89	5036.83
440.08	5050.88
440.26	4910.44
440.45	4992.36
440.63	5025.13
440.82	5186.63
441.01	5109.39
441.19	5233.44
441.38	5191.31
441.57	5179.61
441.75	5406.64
441.94	5427.70
442.12	5420.68
442.31	5465.15
442.50	5460.47
442.68	5446.43
442.87	5362.17
443.05	5472.17
443.24	5619.63
443.43	5568.13
443.61	5689.84
443.80	5774.10
443.98	5509.62
444.17	5397.28
444.35	5603.24
444.54	5771.76
444.73	5490.90
444.91	5722.61
445.10	5762.40
445.28	5589.20
445.47	5816.23
445.65	5643.03
445.84	5867.72
446.02	5638.35
446.21	5792.83
446.39	5781.12
446.58	5785.80
446.77	5797.51
446.95	5701.54
447.14	5827.93
447.32	5849.00
447.51	5820.91
447.69	5771.76
447.88	5652.39
448.06	5837.30
448.25	5937.94
448.43	6092.41
448.62	5865.38
448.80	5928.58
448.99	6047.94
449.17	5841.98
449.36	5921.56
449.54	6008.16
449.73	6017.52
449.91	6132.20
450.10	6094.76
450.28	6134.54
450.46	6078.37
450.65	6064.33
450.83	6284.34
451.02	6069.01
451.20	6305.40
451.39	6319.45
451.57	6171.99
451.76	6069.01
451.94	6272.64
452.13	6216.46
452.31	6312.42
452.49	6216.46
452.68	6356.90
452.86	6333.49
453.05	6445.84
453.23	6462.22
453.42	6420.09
453.60	6476.26
453.78	6663.51
453.97	6490.31
454.15	6380.30
454.34	6319.45
454.52	6607.33
454.70	6642.44
454.89	6628.40
455.07	6712.66
455.26	6682.23
455.44	6635.42
455.62	6670.53
455.81	6717.34
455.99	6593.29
456.17	6874.15
456.36	6764.15
456.54	6888.20
456.73	6867.13
456.91	6958.41
457.09	7035.65
457.28	7117.57
457.46	7040.33
457.64	7101.19
457.83	7145.66
458.01	7082.46
458.19	7478.01
458.38	7222.89
458.56	7112.89
458.74	7140.97
458.93	7236.94
459.11	7236.94
459.29	7330.56
459.48	7440.56
459.66	7400.77
459.84	7365.67
460.03	7452.27
460.21	7412.48
460.39	7328.22
460.57	7349.28
460.76	7573.97
460.94	7522.48
461.12	7688.66
461.31	7566.95
461.49	7625.47
461.67	7648.87
461.85	7840.79
462.04	7564.61
462.22	8084.21
462.40	7915.69
462.59	7843.14
462.77	7901.65
462.95	7889.95
463.13	7967.18
463.32	7878.24
463.50	7934.42
463.68	7875.90
463.86	7976.55
464.05	7765.90
464.23	8016.33
464.41	7953.14
464.59	7990.59
464.78	8114.64
464.96	8116.98
465.14	8046.76
465.32	8091.23
465.50	8091.23
465.69	8191.88
465.87	8049.10
466.05	8252.73
466.23	8219.96
466.41	8201.24
466.60	8489.12
466.78	8294.86
466.96	8030.38
467.14	8262.09
467.32	8446.99
467.51	8407.20
467.69	8416.57
467.87	8496.14
468.05	8528.91
468.23	8369.76
468.41	8376.78
468.60	8468.06
468.78	8475.08
468.96	8456.36
469.14	8500.83
469.32	8802.75
469.50	8608.49
469.69	8828.50
469.87	8952.55
470.05	8910.42
470.23	8830.84
470.41	8713.81
470.59	8938.51
470.77	8856.59
470.95	8863.61
471.14	9186.60
471.32	8952.55
471.50	9039.15
471.68	9090.64
471.86	9100.00
472.04	9081.28
472.22	9579.81
472.40	9036.81
472.58	9322.35
472.77	9320.01
472.95	9434.70
473.13	9867.70
473.31	9357.46
473.49	9476.83
473.67	9731.95
473.85	9533.00
474.03	9776.42
474.21	9542.36
474.39	9853.66
474.57	9989.41
474.75	9895.78
474.93	10076.01
475.12	10129.84
475.30	10022.17
475.48	10052.60
475.66	10246.87
475.84	10171.97
476.02	10277.29
476.20	10417.72
476.38	10485.60
476.56	10616.67
476.74	10462.19
476.92	10677.52
477.10	10494.96
477.28	10719.65
477.46	10785.19
477.64	10949.03
477.82	10984.13
478.00	11112.86
478.18	11199.46
478.36	11028.60
478.54	11337.56
478.72	11456.92
478.90	11712.04
479.08	11857.15
479.26	11789.28
479.44	11604.38
479.62	12070.14
479.80	12301.86
479.98	12020.99
480.16	12196.53
480.34	12156.74
480.52	12477.40
480.70	12315.90
480.88	12271.43
481.06	12554.63
481.24	12479.74
481.41	12674.00
481.59	13022.74
481.77	13247.43
481.95	13078.91
482.13	13156.15
482.31	12985.29
482.49	13490.85
482.67	13542.34
482.85	13411.27
483.03	13862.99
483.21	13652.34
483.39	14249.18
483.57	13776.39
483.74	14153.22
483.92	14291.31
484.10	14251.52
484.28	14277.27
484.46	14689.20
484.64	14822.61
484.82	14665.80
485.00	14703.25
485.18	15068.37
485.35	15239.23
485.53	15187.74
485.71	15269.66
485.89	15704.99
486.07	15578.61
486.25	15695.63
486.43	15667.55
486.61	16009.26
486.78	16128.63
486.96	16170.76
487.14	16271.40
487.32	15953.09
487.50	16643.55
487.68	16643.55
487.85	16748.87
488.03	16781.64
488.21	17252.09
488.39	17352.73
488.57	17334.01
488.75	17179.53
488.92	17483.80
489.10	17738.92
489.28	17619.55
489.46	17839.56
489.64	17823.18
489.81	18029.15
489.99	18398.95
490.17	18384.91
490.35	18609.60
490.53	18974.72
490.70	18710.24
490.88	18579.17
491.06	19229.84
491.24	18890.46
491.41	19297.72
491.59	19599.65
491.77	19421.77
491.95	19721.35
492.13	19784.55
492.30	20072.43
492.48	19927.32
492.66	20088.82
492.84	20243.29
493.01	20491.39
493.19	20446.92
493.37	20421.17
493.54	20561.61
493.72	20713.74
493.90	20805.02
494.08	21078.86
494.25	21085.89
494.43	21214.62
494.61	21338.66
494.79	21018.01
494.96	21432.29
495.14	21631.23
495.32	22237.43
495.49	22155.51
495.67	22155.51
495.85	22178.92
496.02	22518.29
496.20	22295.94
496.38	22841.29
496.55	22515.95
496.73	23075.34
496.91	22757.03
497.09	23028.53
497.26	23651.11
497.44	23435.78
497.62	23145.56
497.79	23477.91
497.97	23370.25
498.14	23845.38
498.32	23557.49
498.50	24287.74
498.67	24243.27
498.85	24065.39
499.03	24304.12
499.20	24229.23
499.38	24563.92
499.56	24687.97
499.73	24407.11
499.91	24978.20
500.08	25017.99
500.26	24582.65
500.44	24943.09
500.61	25090.54
500.79	24966.49
500.97	25315.23
501.14	25862.92
501.32	25605.46
501.49	25666.31
501.67	25759.94
501.84	26082.93
502.02	25696.74
502.20	26066.55
502.37	26080.59
502.55	25724.83
502.72	26284.22
502.90	25851.22
503.07	26293.58
503.25	26487.84
503.43	26225.70
503.60	26419.97
503.78	26773.39
503.95	26536.99
504.13	26654.02
504.30	26651.68
504.48	26890.41
504.65	27290.65
504.83	27255.54
505.01	27405.33
505.18	27321.07
505.36	27496.61
505.53	26923.18
505.71	27456.82
505.88	27847.69
506.06	27756.41
506.23	28224.52
506.41	28034.94
506.58	27857.06
506.76	27847.69
506.93	28140.26
507.11	28231.54
507.28	28444.53
507.46	28545.17
507.63	28713.69
507.81	28744.12
507.98	28582.62
508.16	28816.68
508.33	29223.93
508.50	29170.10
508.68	29315.21
508.85	29284.78
509.03	28987.53
509.20	28933.70
509.38	29603.10
509.55	29472.03
509.73	29788.00
509.90	29673.31
510.08	29539.90
510.25	29743.53
510.42	29759.91
510.60	30050.14
510.77	30284.19
510.95	30380.15
511.12	30288.87
511.30	30335.68
511.47	30548.67
511.64	30216.32
511.82	30471.43
511.99	30778.04
512.17	31005.08
512.34	30333.34
512.51	30953.58
512.69	31047.21
512.86	31171.25
513.04	31358.50
513.21	31433.39
513.38	31438.08
513.56	31337.43
513.73	31042.53
513.90	31440.42
514.08	31426.37
514.25	32072.36
514.43	31842.99
514.60	31875.76
514.77	31728.30
514.95	32226.84
515.12	31917.89
515.29	32229.18
515.47	32416.42
515.64	32294.71
515.81	32189.39
515.99	32329.82
516.16	32781.54
516.33	32318.12
516.51	33223.90
516.68	32453.87
516.85	33158.37
517.03	32477.27
517.20	32596.64
517.37	32786.22
517.54	32987.51
517.72	32884.53
517.89	33202.84
518.06	33177.09
518.24	33394.76
518.41	33572.64
518.58	33755.21
518.75	33509.45
518.93	34202.25
519.10	33633.50
519.27	34106.29
519.45	34094.58
519.62	33621.80
519.79	34281.83
519.96	33972.88
520.14	34148.42
520.31	33844.15
520.48	34628.23
520.65	34312.25
520.83	34827.17
521.00	34733.55
521.17	34455.03
521.34	34948.88
521.52	34719.51
521.69	34869.30
521.86	34822.49
522.03	35323.36
522.20	35470.82
522.38	35260.17
522.55	35571.46
522.72	35496.56
522.89	35384.22
523.07	35728.28
523.24	35480.18
523.41	35805.52
523.58	35470.82
523.75	35812.54
523.92	35534.01
524.10	35697.85
524.27	35817.22
524.44	35938.93
524.61	36313.41
524.78	36046.59
524.96	36088.72
525.13	35941.27
525.30	36282.98
525.47	36739.39
525.64	36634.06
525.81	36746.41
525.98	36854.08
526.16	36844.71
526.33	36589.59
526.50	37071.75
526.67	36837.69
526.84	37046.00
527.01	37092.81
527.18	36959.40
527.36	37352.61
527.53	37359.63
527.70	37268.35
527.87	37502.40
528.04	37656.88
528.21	37425.17
528.38	37474.32
528.55	37748.16
528.72	37722.41
528.89	37738.80
529.07	37626.45
529.24	37841.78
529.41	37736.46
529.58	38101.58
529.75	37631.13
529.92	37741.14
530.09	38108.60
530.26	37921.36
530.43	38321.59
530.60	38120.31
530.77	37872.21
530.94	38267.76
531.11	37851.14
531.28	38113.28
531.46	38518.20
531.63	38738.21
531.80	38518.20
531.97	38651.61
532.14	38780.34
532.31	39075.24
532.48	38923.11
532.65	38834.17
532.82	38925.45
532.99	38988.64
533.16	38960.56
533.33	39232.06
533.50	39196.95
533.67	38813.10
533.84	39143.12
534.01	39473.13
534.18	39864.00
534.35	39648.68
534.52	39484.84
534.69	39580.80
534.86	39426.32
535.03	39545.69
535.20	39709.53
535.37	39634.63
535.54	39552.71
535.71	40037.20
535.88	39590.16
536.05	40095.72
536.22	40257.21
536.38	40388.28
536.55	40058.27
536.72	40388.28
536.89	40275.94
537.06	40179.98
537.23	40594.25
537.40	40215.08
537.57	40329.77
537.74	40140.19
537.91	40610.64
538.08	40765.11
538.25	40367.22
538.42	40697.24
538.59	41045.97
538.75	40685.53
538.92	41151.30
539.09	40666.81
539.26	41001.50
539.43	40968.74
539.60	40872.78
539.77	41001.50
539.94	41535.15
540.11	40987.46
540.28	41074.06
540.44	41256.62
540.61	40987.46
540.78	41305.77
540.95	41443.87
541.12	41324.50
541.29	41071.72
541.46	41488.34
541.62	41787.92
541.79	41778.56
541.96	41406.42
542.13	41296.41
542.30	41713.03
542.47	41668.56
542.63	41635.79
542.80	41748.14
542.97	41942.40
543.14	42351.99
543.31	41787.92
543.48	42033.68
543.64	42862.23
543.81	42246.67
543.98	42443.27
544.15	42295.82
544.32	42899.68
544.48	43005.00
544.65	42588.39
544.82	42628.18
544.99	42616.47
545.16	42927.77
545.32	42799.04
545.49	43175.86
545.66	43250.76
545.83	42958.19
546.00	43215.65
546.16	42965.21
546.33	42745.20
546.50	42742.86
546.67	43119.69
546.83	42534.56
547.00	42995.64
547.17	42782.65
547.34	43363.11
547.50	42866.91
547.67	43798.44
547.84	43442.68
548.00	43543.33
548.17	43667.37
548.34	43620.56
548.51	43681.42
548.67	43674.40
548.84	43922.49
549.01	43402.89
549.18	43695.46
549.34	43711.84
549.51	43770.36
549.68	43768.02
549.84	43796.10
550.01	43889.73
550.18	43412.26
550.34	43981.01
550.51	44208.04
550.68	44039.52
550.84	43924.83
551.01	44713.59
551.18	44460.82
551.34	43999.73
551.51	44346.13
551.68	43889.73
551.84	44580.18
552.01	44430.39
552.18	44659.76
552.34	44079.31
552.51	44060.58
552.68	44411.67
552.84	44596.57
553.01	44935.95
553.18	44451.45
553.34	44896.16
553.51	44458.48
553.67	44882.11
553.84	44673.81
554.01	44949.99
554.17	44671.46
554.34	45020.20
554.51	44989.78
554.67	45216.81
554.84	45106.80
555.00	44765.09
555.17	44865.73
555.33	44935.95
555.50	44772.11
555.67	45280.00
555.83	45055.31
556.00	45106.80
556.16	45823.01
556.33	45317.45
556.50	45207.45
556.66	45319.79
556.83	45223.83
556.99	45659.17
557.16	45427.46
557.32	45298.73
557.49	45893.22
557.65	45514.06
557.82	45378.31
557.98	45373.63
558.15	45504.70
558.32	45652.15
558.48	45317.45
558.65	45799.60
558.81	45755.13
558.98	45858.12
559.14	45635.77
559.31	45867.48
559.47	45408.73
559.64	45928.33
559.80	45944.72
559.97	45998.55
560.13	45584.27
560.30	45600.66
560.46	45736.41
560.63	46085.15
560.79	45902.59
560.96	46295.80
561.12	46562.62
561.29	45680.24
561.45	46321.54
561.61	46064.08
561.78	45928.33
561.94	45806.62
562.11	46117.92
562.27	46415.16
562.44	46351.97
562.60	46316.86
562.77	46543.89
562.93	46155.36
563.10	46492.40
563.26	46298.14
563.42	46597.73
563.59	46169.41
563.75	46227.92
563.92	46356.65
564.08	46361.33
564.24	46354.31
564.41	46457.29
564.57	46600.07
564.74	46253.67
564.90	46211.54
565.07	46185.79
565.23	46398.78
565.39	46630.49
565.56	46806.03
565.72	46471.34
565.88	46405.80
566.05	46555.60
566.21	46815.40
566.38	46469.00
566.54	46504.10
566.70	46932.42
566.87	46579.00
567.03	46424.53
567.19	46703.05
567.36	46623.47
567.52	47093.92
567.68	46906.68
567.85	47091.58
568.01	47117.32
568.17	46541.55
568.34	46789.65
568.50	47173.50
568.66	46681.98
568.83	46834.12
568.99	47421.59
569.15	46791.99
569.32	46836.46
569.48	46838.80
569.64	47255.42
569.81	47096.26
569.97	47180.52
570.13	47594.79
570.30	47091.58
570.46	46883.27
570.62	47147.75
570.78	46990.94
570.95	47213.29
571.11	47550.32
571.27	46845.82
571.43	46981.57
571.60	46892.63
571.76	46845.82
571.92	47224.99
572.09	46843.48
572.25	47096.26
572.41	46885.61
572.57	46979.23
572.74	47433.30
572.90	46529.85
573.06	47571.39
573.22	47449.68
573.38	47475.43
573.55	47487.13
573.71	47503.51
573.87	47372.44
574.03	47253.08
574.20	47655.65
574.36	47456.70
574.52	47276.48
574.68	47278.82
574.84	47615.86
575.01	47751.61
575.17	47337.33
575.33	47547.98
575.49	47285.84
575.65	47529.26
575.82	47484.79
575.98	47070.51
576.14	47526.92
576.30	47615.86
576.46	47274.14
576.62	47786.72
576.79	47227.33
576.95	47040.09
577.11	47147.75
577.27	47159.45
577.43	47117.32
577.59	47342.02
577.75	47475.43
577.92	46972.21
578.08	47393.51
578.24	47559.69
578.40	47480.11
578.56	47419.25
578.72	47828.85
578.88	47922.47
579.04	47716.50
579.21	47552.66
579.37	47210.95
579.53	47922.47
579.69	47189.88
579.85	47545.64
580.01	47536.28
580.17	47847.57
580.33	47810.12
580.49	47735.23
580.65	47634.58
580.82	47758.63
580.98	47510.53
581.14	47821.83
581.30	47613.52
581.46	47423.93
581.62	47592.45
581.78	47154.77
581.94	47330.31
582.10	47833.53
582.26	47695.44
582.42	47423.93
582.58	47597.13
582.74	48058.22
582.90	47646.29
583.06	47934.17
583.22	47445.00
583.38	47473.09
583.54	47573.73
583.70	47718.84
583.86	47594.79
584.02	47615.86
584.18	47922.47
584.34	47828.85
584.50	48243.12
584.66	48306.32
584.82	47751.61
584.98	47800.76
585.14	47833.53
585.30	47765.65
585.46	47952.90
585.62	47849.91
585.78	48013.75
585.94	47725.86
586.10	48011.41
586.26	47318.61
586.42	47468.40
586.58	47828.85
586.74	47660.33
586.90	47360.74
587.06	47662.67
587.22	47962.26
587.38	47545.64
587.54	47854.59
587.70	48095.67
587.86	48039.50
588.02	47756.29
588.18	47597.13
588.34	48107.37
588.49	47866.30
588.65	47866.30
588.81	47878.00
588.97	48133.12
589.13	47849.91
589.29	47810.12
589.45	48114.39
589.61	48006.73
589.77	48053.54
589.93	47973.96
590.08	48177.59
590.24	48154.18
590.40	48355.47
590.56	48540.37
590.72	48388.24
590.88	48053.54
591.04	47868.64
591.20	48542.71
591.35	48095.67
591.51	48790.81
591.67	48306.32
591.83	48774.42
591.99	48388.24
592.15	47931.83
592.31	48203.33
592.46	48261.85
592.62	48086.31
592.78	48402.28
592.94	48645.69
593.10	48793.15
593.26	48509.94
593.41	48233.76
593.57	48196.31
593.73	48531.01
593.89	48545.05
594.05	48626.97
594.20	48486.54
594.36	48999.12
594.52	48521.65
594.68	48282.91
594.84	48189.29
594.99	48999.12
595.15	48715.91
595.31	48341.42
595.47	48243.12
595.62	48456.11
595.78	48158.86
595.94	48404.62
596.10	48362.49
596.25	48921.88
596.41	48598.88
596.57	48350.79
596.73	48774.42
596.88	48369.51
597.04	48460.79
597.20	48402.28
597.36	48687.82
597.51	48568.46
597.67	48341.42
597.83	48301.64
597.99	48523.99
598.14	48678.46
598.30	48619.95
598.46	48629.31
598.61	48804.85
598.77	48645.69
598.93	48804.85
599.09	48556.75
599.24	48734.63
599.40	49202.74
599.56	48952.30
599.71	48928.90
599.87	49345.51
600.03	49050.61
600.18	48879.75
600.34	48507.60
600.50	48844.64
600.65	48720.59
600.81	48905.49
600.97	48835.28
601.12	48825.92
601.28	48610.59
601.44	48325.04
601.59	48917.20
601.75	48582.50
601.91	48748.68
602.06	48652.72
602.22	48804.85
602.37	48949.96
602.53	48526.33
602.69	49104.44
602.84	48273.55
603.00	48617.61
603.16	48790.81
603.31	48942.94
603.47	48636.33
603.62	48624.63
603.78	49015.50
603.94	48664.42
604.09	48566.12
604.25	48669.10
604.40	48809.53
604.56	48591.86
604.71	48804.85
604.87	48793.15
605.03	48823.58
605.18	48889.11
605.34	48905.49
605.49	48418.66
605.65	48914.86
605.80	48643.35
605.96	48170.57
606.12	48334.40
606.27	48435.05
606.43	48505.26
606.58	48865.70
606.74	48573.14
606.89	48781.45
607.05	49048.27
607.20	49048.27
607.36	48659.74
607.51	48500.58
607.67	48797.83
607.82	48360.15
607.98	48547.39
608.13	48224.40
608.29	48596.54
608.44	48636.33
608.60	48369.51
608.75	48566.12
608.91	48758.04
609.06	48254.82
609.22	48563.78
609.37	48367.17
609.53	48711.23
609.68	48954.64
609.84	48353.13
609.99	48437.39
610.15	48580.16
610.30	48531.01
610.46	48402.28
610.61	48177.59
610.76	48381.21
610.92	47885.02
611.07	48098.01
611.23	48292.27
611.38	48133.12
611.54	48832.94
611.69	48531.01
611.84	48381.21
612.00	48282.91
612.15	48217.38
612.31	48135.46
612.46	48116.73
612.62	48032.47
612.77	48156.52
612.92	48746.34
613.08	47903.74
613.23	48055.88
613.39	48236.10
613.54	48144.82
613.69	48135.46
613.85	47852.25
614.00	48006.73
614.15	48020.77
614.31	48016.09
614.46	48332.06
614.62	47901.40
614.77	47711.82
614.92	47716.50
615.08	47948.21
615.23	48114.39
615.38	47999.71
615.54	47543.30
615.69	48025.45
615.84	47889.70
616.00	48200.99
616.15	47772.67
616.30	48034.81
616.46	47997.37
616.61	47910.77
616.76	48114.39
616.92	47973.96
617.07	48168.22
617.22	47655.65
617.37	47519.90
617.53	47887.36
617.68	47899.06
617.83	47943.53
617.99	48076.94
618.14	48217.38
618.29	47756.29
618.45	47447.34
618.60	47229.67
618.75	47377.12
618.90	47510.53
619.06	47704.80
619.21	47374.78
619.36	47997.37
619.51	47260.10
619.67	47260.10
619.82	47562.03
619.97	47454.36
620.12	47337.33
620.28	47477.77
620.43	47763.31
620.58	47365.42
620.73	47398.19
620.89	47496.49
621.04	47887.36
621.19	47269.46
621.34	47103.28
621.49	46700.71
621.65	47119.66
621.80	47557.35
621.95	47363.08
622.10	47276.48
622.25	46965.19
622.41	47217.97
622.56	47253.08
622.71	47608.84
622.86	47166.48
623.01	47716.50
623.16	47026.04
623.32	46848.16
623.47	46934.76
623.62	47295.21
623.77	46990.94
623.92	47234.35
624.07	46986.25
624.23	46859.87
624.38	46674.96
624.53	46665.60
624.68	46389.42
624.83	46740.50
624.98	46876.25
625.13	46604.75
625.29	46515.81
625.44	46754.54
625.59	46859.87
625.74	46609.43
625.89	46534.53
626.04	46724.11
626.19	46796.67
626.34	46567.30
626.49	46050.04
626.65	46424.53
626.80	46220.90
626.95	45867.48
627.10	45801.94
627.25	46248.99
627.40	46548.57
627.55	46258.35
627.70	46286.43
627.85	46586.02
628.00	46703.05
628.15	46092.17
628.30	46344.95
628.45	45773.86
628.60	45893.22
628.76	45933.01
628.91	45808.96
629.06	45890.88
629.21	45869.82
629.36	45846.41
629.51	45773.86
629.66	46284.09
629.81	45942.38
629.96	46234.94
630.11	45745.77
630.26	45312.77
630.41	45921.31
630.56	45935.35
630.71	45858.12
630.86	45865.14
631.01	45605.34
631.16	45378.31
631.31	45481.29
631.46	45577.25
631.61	45933.01
631.76	45603.00
631.91	45853.44
632.06	45858.12
632.21	45886.20
632.36	45895.56
632.51	45483.63
632.66	45670.87
632.81	45322.13
632.96	45382.99
633.10	44786.15
633.25	45411.07
633.40	45345.54
633.55	45603.00
633.70	45446.18
633.85	45118.51
634.00	45031.91
634.15	44940.63
634.30	45347.88
634.45	45088.08
634.60	45057.65
634.75	45399.37
634.90	45237.87
635.05	45490.65
635.19	45006.16
635.34	45296.39
635.49	44921.90
635.64	45095.10
635.79	45354.90
635.94	45317.45
636.09	45144.25
636.24	45064.67
636.39	44917.22
636.53	45397.03
636.68	44933.60
636.83	44893.82
636.98	44694.87
637.13	44655.08
637.28	44561.46
637.43	44610.61
637.57	44779.13
637.72	44697.21
637.87	44832.96
638.02	44746.36
638.17	44591.89
638.32	44622.31
638.46	44664.44
638.61	44858.71
638.76	44477.20
638.91	44617.63
639.06	43882.70
639.20	43789.08
639.35	44289.96
639.50	43676.74
639.65	44484.22
639.80	44561.46
639.94	44524.01
640.09	44477.20
640.24	44676.15
640.39	44416.35
640.54	43615.88
640.68	44191.65
640.83	44460.82
640.98	44236.12
641.13	43697.80
641.27	44210.38
641.42	44119.10
641.57	43880.36
641.72	44243.15
641.86	44215.06
642.01	43587.80
642.16	43915.47
642.31	43311.61
642.45	43903.77
642.60	43452.05
642.75	43578.43
642.90	43599.50
643.04	43917.81
643.19	43351.40
643.34	43810.15
643.48	43393.53
643.63	43524.60
643.78	43866.32
643.93	44121.44
644.07	43487.15
644.22	44069.95
644.37	43236.72
644.51	43737.59
644.66	43309.27
644.81	44039.52
644.95	43470.77
645.10	43672.06
645.25	43278.85
645.39	43264.80
645.54	43578.43
645.69	42822.44
645.83	42913.72
645.98	43217.99
646.13	42990.96
646.27	43299.91
646.42	43026.07
646.57	43065.86
646.71	43337.36
646.86	43531.62
647.00	43477.79
647.15	43274.16
647.30	43430.98
647.44	43124.37
647.59	43075.22
647.74	42721.80
647.88	43098.62
648.03	43271.82
648.17	43718.87
648.32	43044.79
648.47	43592.48
648.61	43012.02
648.76	43166.50
648.90	42564.98
649.05	43075.22
649.20	42810.74
649.34	43044.79
649.49	42770.95
649.63	42707.76
649.78	42990.96
649.92	42827.12
650.07	43023.73
650.21	42792.01
650.36	42951.17
650.51	43072.88
650.65	43138.41
650.80	42600.09
650.94	42726.48
651.09	42726.48
651.23	41947.08
651.38	42593.07
651.52	42277.10
651.67	42181.13
651.81	42230.29
651.96	42726.48
652.10	41886.23
652.25	42129.64
652.39	42380.08
652.54	42440.93
652.68	42075.81
652.83	42021.98
652.97	42141.35
653.12	42017.30
653.26	42279.44
653.41	41909.63
653.55	42260.71
653.70	42412.85
653.84	42085.17
653.99	42108.58
654.13	42139.00
654.27	42291.14
654.42	41975.17
654.56	41675.58
654.71	42057.09
654.85	41872.18
655.00	42146.03
655.14	42473.70
655.29	42398.80
655.43	41684.94
655.57	42155.39
655.72	41532.81
655.86	41406.42
656.01	41525.78
656.15	41724.73
656.30	41242.58
656.44	41546.85
656.58	41656.85
656.73	41968.15
656.87	41455.57
657.01	41752.82
657.16	41853.46
657.30	41177.04
657.45	41315.14
657.59	41251.94
657.73	41486.00
657.88	41490.68
658.02	41347.90
658.16	41258.96
658.31	40919.59
658.45	41635.79
658.60	40570.85
658.74	41411.10
658.88	41312.80
659.03	41045.97
659.17	40884.48
659.31	40708.94
659.46	40561.48
659.60	41017.89
659.74	40999.16
659.89	40542.76
660.03	40383.60
660.17	40982.78
660.32	40376.58
660.46	40451.48
660.60	39978.69
660.74	40900.86
660.89	40435.10
661.03	40273.60
661.17	40027.84
661.32	40025.50
661.46	39997.41
661.60	39938.90
661.74	39833.58
661.89	39625.27
662.03	40034.86
662.17	40013.80
662.31	39864.00
662.46	40037.20
662.60	39700.17
662.74	39505.90
662.88	39599.52
663.03	39388.88
663.17	39194.61
663.31	39243.76
663.45	38951.20
663.60	39641.65
663.74	39655.70
663.88	39494.20
664.02	38876.30
664.17	39903.79
664.31	39335.04
664.45	39108.01
664.59	39337.38
664.73	38983.96
664.88	39541.01
665.02	39042.48
665.16	38576.71
665.30	38749.91
665.44	38822.47
665.59	38508.83
665.73	38183.50
665.87	38345.00
666.01	38770.97
666.15	38670.33
666.29	38478.41
666.44	38703.10
666.58	38555.64
666.72	38005.62
666.86	37853.48
667.00	37780.93
667.14	38054.77
667.28	37865.19
667.43	37930.72
667.57	38099.24
667.71	38216.27
667.85	37691.99
667.99	38040.73
668.13	37287.07
668.27	37509.43
668.41	37364.31
668.56	37015.57
668.70	37160.69
668.84	37085.79
668.98	37230.90
669.12	37167.71
669.26	37240.26
669.40	37109.19
669.54	37273.03
669.68	36858.76
669.82	36975.78
669.96	36481.93
670.10	36474.91
670.25	36577.89
670.39	36875.14
670.53	36531.08
670.67	36748.75
670.81	36673.85
670.95	36631.72
671.09	36495.97
671.23	36385.97
671.37	36634.06
671.51	35943.61
671.65	36065.31
671.79	35927.22
671.93	36126.17
672.07	36048.93
672.21	36034.89
672.35	35522.31
672.49	35447.41
672.63	35271.87
672.77	35908.50
672.91	35557.42
673.05	35063.57
673.19	35379.54
673.33	34986.33
673.47	34843.56
673.61	34747.59
673.75	34801.43
673.89	34998.03
674.03	34780.36
674.17	34363.75
674.31	34075.86
674.45	34408.22
674.59	34328.64
674.73	34569.71
674.87	33965.85
675.01	34251.40
675.15	34103.95
675.29	33734.14
675.43	34047.77
675.56	34047.77
675.70	33883.94
675.84	33495.41
675.98	32704.31
676.12	33895.64
676.26	33823.08
676.40	33151.35
676.54	33385.40
676.68	33013.26
676.82	33020.28
676.96	33207.52
677.10	33095.18
677.23	32741.75
677.37	32521.74
677.51	32788.56
677.65	32521.74
677.79	32472.59
677.93	32114.49
678.07	32390.67
678.21	31995.12
678.34	32133.21
678.48	31761.07
678.62	31601.91
678.76	31475.52
678.90	31613.62
679.04	31269.56
679.18	31718.94
679.31	31384.24
679.45	30965.29
679.59	31061.25
679.73	31328.07
679.87	30850.60
680.00	31194.66
680.14	30955.93
680.28	31026.14
680.42	30560.37
680.56	30380.15
680.70	30576.76
680.83	30515.90
680.97	29888.64
681.11	30239.72
681.25	30331.00
681.39	29689.70
681.52	29869.92
681.66	29493.09
681.80	28594.32
681.94	29191.16
682.07	29221.59
682.21	28608.37
682.35	28741.78
682.49	28755.82
682.62	28943.06
682.76	29282.44
682.90	28889.23
683.04	28730.08
683.17	28463.25
683.31	28552.20
683.45	28327.50
683.59	28613.05
683.72	28397.72
683.86	28297.08
684.00	27487.25
684.13	28182.39
684.27	27934.29
684.41	27695.56
684.55	27821.95
684.68	27494.27
684.82	27175.96
684.96	27386.61
685.09	27604.28
685.23	27129.15
685.37	27473.21
685.50	27730.67
685.64	27154.90
685.78	27005.10
685.91	26595.51
686.05	26125.06
686.19	26363.79
686.32	26359.11
686.46	25919.09
686.60	25919.09
686.73	26167.19
686.87	25975.27
687.01	25830.15
687.14	25996.33
687.28	25619.50
687.42	25490.77
687.55	25359.70
687.69	25186.50
687.82	24943.09
687.96	25219.27
688.10	25301.19
688.23	24961.81
688.37	25090.54
688.50	25184.16
688.64	24945.43
688.78	24748.82
688.91	24650.52
689.05	24561.58
689.18	24154.33
689.32	23847.72
689.46	23573.88
689.59	24154.33
689.73	24276.04
689.86	24613.07
690.00	24393.06
690.13	23793.89
690.27	23730.69
690.41	23814.95
690.54	23257.90
690.68	23140.88
690.81	22881.08
690.95	22984.06
691.08	23175.98
691.22	22937.25
691.35	22710.22
691.49	23143.22
691.62	22689.15
691.76	22621.28
691.89	22600.21
692.03	22146.15
692.16	22038.48
692.30	21984.65
692.43	22312.33
692.57	22185.94
692.70	21720.17
692.84	21781.03
692.97	21743.58
693.11	21642.93
693.24	21598.46
693.38	21467.39
693.51	20905.66
693.65	21235.68
693.78	21013.33
693.92	21008.65
694.05	20882.26
694.19	20959.50
694.32	20697.36
694.45	21057.80
694.59	20830.77
694.72	20702.04
694.86	20685.65
694.99	20489.05
695.13	20114.56
695.26	19985.83
695.39	20009.24
695.53	20329.89
695.66	19924.98
695.80	19950.73
695.93	19857.10
696.07	19697.95
696.20	19672.20
696.33	18841.31
696.47	19096.43
696.60	19262.61
696.73	19180.69
696.87	19346.87
697.00	19281.33
697.14	18977.06
697.27	18876.42
697.40	18593.22
697.54	18820.25
697.67	18539.38
697.80	18881.10
697.94	18654.07
698.07	18223.41
698.21	18242.14
698.34	18272.56
698.47	17980.00
698.61	17759.98
698.74	17715.51
698.87	17525.93
699.01	17500.19
699.14	17626.57
699.27	17671.04
699.40	17406.56
699.54	17366.78
699.67	17497.84
699.80	17359.75
699.94	17156.13
700.07	17191.23
700.20	17160.81
700.34	16851.86
700.47	16788.66
700.60	17287.20
700.73	16765.26
700.87	16622.48
701.00	16608.44
701.13	16425.88
701.26	16517.16
701.40	16432.90
701.53	15969.48
701.66	16156.72
701.79	16128.63
701.93	15932.03
702.06	15831.38
702.19	15873.51
702.32	16004.58
702.46	15644.14
702.59	15709.68
702.72	15915.64
702.85	15688.61
702.99	15393.70
703.12	15466.26
703.25	15250.93
703.38	15190.08
703.51	15194.76
703.65	14918.57
703.78	14883.47
703.91	14796.87
704.04	14862.40
704.17	14621.33
704.31	14707.93
704.44	14483.24
704.57	14534.73
704.70	14614.30
704.83	14516.00
704.96	14258.54
705.10	14190.67
705.23	13923.85
>>>>>End Processed Spectral Data<<<<<
