SpectraSuite Data File
++++++++++++++++++++++++++++++++++++
Date: Fri Oct 25 10:48:24 EDT 2013
User: price-jones
Dark Spectrum Present: No
Reference Spectrum Present: No
Number of Sampled Component Spectra: 1
Spectrometers: USB2+H05261
Integration Time (usec): 100000 (USB2+H05261)
Spectra Averaged: 1 (USB2+H05261)
Boxcar Smoothing: 0 (USB2+H05261)
Correct for Electrical Dark: No (USB2+H05261)
Strobe/Lamp Enabled: No (USB2+H05261)
Correct for Detector Non-linearity: No (USB2+H05261)
Correct for Stray Light: No (USB2+H05261)
Number of Pixels in Processed Spectrum: 2048
>>>>>Begin Processed Spectral Data<<<<<
365.73	177.88
365.92	177.88
366.12	177.88
366.32	35.11
366.52	9.36
366.72	0.00
366.91	7.02
367.11	81.92
367.31	32.77
367.51	65.54
367.70	63.19
367.90	39.79
368.10	65.54
368.30	16.38
368.49	124.05
368.69	49.15
368.89	79.58
369.09	0.00
369.28	58.51
369.48	131.07
369.68	147.45
369.87	65.54
370.07	70.22
370.27	23.41
370.47	173.20
370.66	463.43
370.86	435.34
371.06	447.04
371.25	451.72
371.45	468.11
371.65	561.73
371.84	444.70
372.04	463.43
372.24	454.06
372.44	475.13
372.63	451.72
372.83	519.60
373.03	451.72
373.22	517.26
373.42	545.34
373.62	519.60
373.81	505.56
374.01	617.90
374.21	521.94
374.40	573.43
374.60	573.43
374.79	620.24
374.99	624.92
375.19	629.60
375.38	638.97
375.58	585.13
375.78	643.65
375.97	543.00
376.17	638.97
376.37	627.26
376.56	690.46
376.76	608.54
376.95	739.61
377.15	664.71
377.35	662.37
377.54	744.29
377.74	606.20
377.93	683.44
378.13	676.41
378.33	695.14
378.52	657.69
378.72	737.27
378.91	727.91
379.11	690.46
379.31	627.26
379.50	638.97
379.70	566.41
379.89	678.76
380.09	653.01
380.28	662.37
380.48	692.80
380.68	674.07
380.87	669.39
381.07	746.63
381.26	725.57
381.46	676.41
381.65	664.71
381.85	638.97
382.04	760.67
382.24	692.80
382.43	767.70
382.63	667.05
382.83	784.08
383.02	784.08
383.22	800.46
383.41	732.59
383.61	732.59
383.80	760.67
384.00	746.63
384.19	751.31
384.39	777.06
384.58	770.04
384.78	807.48
384.97	751.31
385.17	709.18
385.36	772.38
385.56	786.42
385.75	774.72
385.95	861.32
386.14	830.89
386.34	819.19
386.53	875.36
386.72	821.53
386.92	922.17
387.11	812.17
387.31	947.92
387.50	882.38
387.70	936.21
387.89	912.81
388.09	891.74
388.28	933.87
388.48	868.34
388.67	919.83
388.86	971.32
389.06	1018.13
389.25	976.00
389.45	1013.45
389.64	912.81
389.84	990.05
390.03	1067.28
390.22	919.83
390.42	994.73
390.61	1018.13
390.81	1090.69
391.00	1036.86
391.19	961.96
391.39	1053.24
391.58	1001.75
391.78	1032.18
391.97	1046.22
392.16	1100.05
392.36	1015.79
392.55	1050.90
392.75	1013.45
392.94	990.05
393.13	1039.20
393.33	1032.18
393.52	1060.26
393.71	1104.73
393.91	1160.91
394.10	1125.80
394.29	1142.18
394.49	1179.63
394.68	1228.78
394.88	1048.56
395.07	1210.06
395.26	1172.61
395.46	1111.75
395.65	1207.72
395.84	1256.87
396.04	1268.57
396.23	1093.03
396.42	1179.63
396.62	1158.57
396.81	1240.48
397.00	1210.06
397.19	1275.59
397.39	1378.58
397.58	1371.55
397.77	1341.13
397.97	1355.17
398.16	1399.64
398.35	1427.73
398.55	1373.89
398.74	1427.73
398.93	1462.83
399.12	1479.22
399.32	1413.68
399.51	1486.24
399.70	1521.35
399.90	1476.88
400.09	1472.20
400.28	1558.80
400.47	1570.50
400.67	1554.12
400.86	1680.50
401.05	1551.78
401.24	1528.37
401.44	1657.10
401.63	1600.93
401.82	1612.63
402.01	1598.59
402.21	1701.57
402.40	1708.59
402.59	1661.78
402.78	1650.08
402.97	1717.95
403.17	1708.59
403.36	1666.46
403.55	1781.15
403.74	1776.47
403.93	1823.28
404.13	1799.87
404.32	1832.64
404.51	1825.62
404.70	1846.68
404.89	1858.39
405.09	1905.20
405.28	2050.31
405.47	1832.64
405.66	1935.62
405.85	1846.68
406.05	1907.54
406.24	1844.34
406.43	1891.15
406.62	1982.43
406.81	2045.63
407.00	1996.48
407.20	2015.20
407.39	1949.67
407.58	2008.18
407.77	2040.95
407.96	2174.36
408.15	2179.04
408.34	2125.21
408.54	2162.66
408.73	2165.00
408.92	2146.27
409.11	2300.75
409.30	2200.10
409.49	2193.08
409.68	2214.15
409.87	2209.47
410.07	2239.89
410.26	2143.93
410.45	2207.13
410.64	2406.07
410.83	2314.79
411.02	2403.73
411.21	2502.03
411.40	2499.69
411.59	2612.04
411.78	2434.16
411.98	2396.71
412.17	2469.27
412.36	2513.74
412.55	2546.50
412.74	2511.39
412.93	2668.21
413.12	2588.63
413.31	2843.75
413.50	2700.98
413.69	2827.37
413.88	2764.17
414.07	2682.25
414.26	2780.56
414.45	2850.77
414.64	2705.66
414.83	2848.43
415.02	3061.42
415.22	2930.35
415.41	3019.29
415.60	3054.40
415.79	3162.06
415.98	3089.51
416.17	2981.84
416.36	3105.89
416.55	3103.55
416.74	3183.13
416.93	3014.61
417.12	3110.57
417.31	3131.64
417.50	3229.94
417.69	3428.88
417.88	3375.05
418.07	3241.64
418.26	3321.22
418.45	3361.01
418.64	3552.93
418.83	3365.69
419.02	3379.73
419.21	3468.67
419.39	3522.51
419.58	3344.63
419.77	3433.57
419.96	3541.23
420.15	3564.64
420.34	3534.21
420.53	3517.83
420.72	3796.35
420.91	3712.09
421.10	3705.07
421.29	3625.49
421.48	3632.51
421.67	3749.54
421.86	3688.68
422.05	3669.96
422.24	3660.60
422.43	3742.52
422.61	3688.68
422.80	3672.30
422.99	3742.52
423.18	3791.67
423.37	3922.74
423.56	3777.62
423.75	3772.94
423.94	3707.41
424.13	3595.06
424.32	3733.15
424.50	3829.12
424.69	3896.99
424.88	3953.16
425.07	3873.59
425.26	3798.69
425.45	3691.02
425.64	3859.54
425.83	3763.58
426.01	3922.74
426.20	3817.41
426.39	3843.16
426.58	3955.51
426.77	3735.50
426.96	3758.90
427.15	3906.35
427.33	4100.62
427.52	4042.11
427.71	3978.91
427.90	4067.85
428.09	4093.60
428.28	4042.11
428.46	3992.95
428.65	4009.34
428.84	4159.13
429.03	4210.62
429.22	3988.27
429.40	4070.19
429.59	4058.49
429.78	3845.50
429.97	3983.59
430.16	4077.21
430.34	4044.45
430.53	4002.32
430.72	4145.09
430.91	4222.33
431.10	4149.77
431.28	4505.53
431.47	4367.44
431.66	4505.53
431.85	4290.20
432.03	4482.13
432.22	4528.94
432.41	4510.21
432.60	4486.81
432.79	4470.42
432.97	4554.68
433.16	4514.89
433.35	4627.24
433.54	4528.94
433.72	4606.17
433.91	4557.02
434.10	4531.28
434.28	4650.64
434.47	4709.16
434.66	4905.76
434.85	4830.87
435.03	4732.56
435.22	4870.65
435.41	4990.02
435.59	4807.46
435.78	4940.87
435.97	4882.36
436.16	4964.28
436.34	4826.18
436.53	4971.30
436.72	5184.29
436.90	4791.08
437.09	4978.32
437.28	4877.68
437.46	5022.79
437.65	4971.30
437.84	4840.23
438.02	4954.91
438.21	5076.62
438.40	5041.51
438.58	5238.12
438.77	5303.65
438.96	5203.01
439.14	5338.76
439.33	5500.26
439.52	5451.11
439.70	5439.40
439.89	5451.11
440.08	5535.37
440.26	5404.30
440.45	5481.53
440.63	5636.01
440.82	5743.67
441.01	5617.29
441.19	5743.67
441.38	5746.02
441.57	5837.30
441.75	5844.32
441.94	5919.21
442.12	6008.16
442.31	6164.97
442.50	6162.63
442.68	6076.03
442.87	6113.48
443.05	5991.77
443.24	6251.57
443.43	6260.93
443.61	6202.42
443.80	6415.41
443.98	6225.82
444.17	6101.78
444.35	6253.91
444.54	6509.03
444.73	6328.81
444.91	6394.34
445.10	6171.99
445.28	6445.84
445.47	6289.02
445.65	6413.07
445.84	6307.74
446.02	6277.32
446.21	6399.02
446.39	6286.68
446.58	6347.53
446.77	6401.37
446.95	6345.19
447.14	6619.04
447.32	6588.61
447.51	6558.18
447.69	6427.11
447.88	6476.26
448.06	6490.31
448.25	6392.00
448.43	6530.09
448.62	6544.14
448.80	6485.62
448.99	6668.19
449.17	6663.51
449.36	6595.63
449.54	6565.20
449.73	6895.22
449.91	6820.32
450.10	6864.79
450.28	7173.74
450.46	6965.43
450.65	7091.82
450.83	6998.20
451.02	6960.75
451.20	7035.65
451.39	6993.52
451.57	6918.62
451.76	6771.17
451.94	7035.65
452.13	7019.27
452.31	7119.91
452.49	6949.05
452.68	7115.23
452.86	7054.37
453.05	7171.40
453.23	7019.27
453.42	7089.48
453.60	7059.06
453.78	7239.28
453.97	7152.68
454.15	7148.00
454.34	7045.01
454.52	7176.08
454.70	7262.68
454.89	7370.35
455.07	7309.49
455.26	7445.24
455.44	7456.95
455.62	7335.24
455.81	7501.42
455.99	7611.42
456.17	7433.54
456.36	7531.84
456.54	7566.95
456.73	7803.35
456.91	7950.80
457.09	7604.40
457.28	8009.31
457.46	7798.66
457.64	7981.23
457.83	7742.49
458.01	7824.41
458.19	8009.31
458.38	7852.50
458.56	7880.58
458.74	7990.59
458.93	8145.06
459.11	8011.65
459.29	8053.78
459.48	7915.69
459.66	7964.84
459.84	7880.58
460.03	8320.60
460.21	8166.13
460.39	8187.19
460.57	8236.35
460.76	8245.71
460.94	8339.33
461.12	8458.70
461.31	8327.63
461.49	8217.62
461.67	8234.00
461.85	8573.38
462.04	8423.59
462.22	9109.36
462.40	8671.68
462.59	8571.04
462.77	8402.52
462.95	8603.81
463.13	8706.79
463.32	8615.51
463.50	8868.29
463.68	8769.99
463.86	8964.25
464.05	8573.38
464.23	8667.00
464.41	8676.37
464.59	8648.28
464.78	8812.12
464.96	8854.25
465.14	8784.03
465.32	9100.00
465.50	8865.95
465.69	8940.85
465.87	8980.64
466.05	8992.34
466.23	9011.06
466.41	9008.72
466.60	8961.91
466.78	8826.16
466.96	8936.17
467.14	8945.53
467.32	9181.92
467.51	9191.28
467.69	8709.13
467.87	9137.45
468.05	9331.72
468.23	9074.26
468.41	9219.37
468.60	9235.75
468.78	9310.65
468.96	9415.98
469.14	9423.00
469.32	9362.14
469.50	9240.44
469.69	9305.97
469.87	9535.34
470.05	9467.47
470.23	9535.34
470.41	9708.54
470.59	9781.10
470.77	9458.10
470.95	9720.24
471.14	9914.51
471.32	9643.01
471.50	10195.37
471.68	9919.19
471.86	10064.30
472.04	9991.75
472.22	10181.33
472.40	10059.62
472.58	10052.60
472.77	10054.94
472.95	10197.71
473.13	10504.32
473.31	10223.46
473.49	10164.95
473.67	10277.29
473.85	10438.79
474.03	10387.30
474.21	10436.45
474.39	10736.04
474.57	10532.41
474.75	10532.41
474.93	10717.31
475.12	10719.65
475.30	10937.32
475.48	10815.62
475.66	10958.39
475.84	11073.07
476.02	11293.08
476.20	11112.86
476.38	11356.28
476.56	11538.84
476.74	11410.11
476.92	11248.61
477.10	11538.84
477.28	11683.95
477.46	11669.91
477.64	11875.88
477.82	12035.03
478.00	12376.75
478.18	12161.42
478.36	12372.07
478.54	12379.09
478.72	12002.27
478.90	12592.08
479.08	12596.76
479.26	12868.27
479.44	12830.82
479.62	12821.45
479.80	12922.10
479.98	12898.69
480.16	13310.63
480.34	13095.30
480.52	13392.55
480.70	13245.09
480.88	13184.24
481.06	13242.75
481.24	13575.11
481.41	13806.82
481.59	13905.12
481.77	14134.50
481.95	14043.21
482.13	14157.90
482.31	14148.54
482.49	14581.54
482.67	14333.44
482.85	14551.11
483.03	14757.08
483.21	14822.61
483.39	14932.62
483.57	14958.36
483.74	15293.06
483.92	15150.29
484.10	15124.54
484.28	15290.72
484.46	15688.61
484.64	16107.57
484.82	15791.59
485.00	15573.92
485.18	15992.88
485.35	16210.55
485.53	15740.10
485.71	16042.03
485.89	16170.76
486.07	16074.80
486.25	16226.93
486.43	16814.41
486.61	16664.61
486.78	16711.42
486.96	16854.20
487.14	17214.64
487.32	17259.11
487.50	17326.99
487.68	17537.63
487.85	17710.83
488.03	18111.07
488.21	18466.83
488.39	18288.95
488.57	18106.38
488.75	18232.77
488.92	18511.30
489.10	18869.40
489.28	18869.40
489.46	19070.68
489.64	19337.51
489.81	19447.51
489.99	19419.42
490.17	19592.62
490.35	19992.86
490.53	19620.71
490.70	20018.60
490.88	19695.61
491.06	20503.09
491.24	20292.44
491.41	20402.45
491.59	20334.57
491.77	20542.88
491.95	20734.81
492.13	20582.67
492.30	21170.15
492.48	21036.74
492.66	21371.43
492.84	21537.61
493.01	21642.93
493.19	21568.04
493.37	21820.81
493.54	21916.78
493.72	22073.59
493.90	22003.38
494.08	22478.50
494.25	22340.41
494.43	22679.79
494.61	22651.70
494.79	22658.73
494.96	22815.54
495.14	22970.02
495.32	23073.00
495.49	23218.11
495.67	23613.66
495.85	23323.44
496.02	23786.86
496.20	23716.65
496.38	23929.64
496.55	23770.48
496.73	24805.00
496.91	24044.32
497.09	24210.50
497.26	24669.25
497.44	24238.59
497.62	24264.33
497.79	24744.14
497.97	24482.00
498.14	25081.18
498.32	25092.88
498.50	25249.70
498.67	25188.85
498.85	25287.15
499.03	25607.80
499.20	25425.24
499.38	25888.67
499.56	25731.85
499.73	25678.02
499.91	25891.01
500.08	25956.54
500.26	25972.92
500.44	25860.58
500.61	26127.40
500.79	26111.02
500.97	26544.02
501.14	26628.27
501.32	26820.20
501.49	26600.19
501.67	26717.22
501.84	26497.20
502.02	27049.57
502.20	26974.67
502.37	27028.51
502.55	27321.07
502.72	27302.35
502.90	27608.96
503.07	27098.72
503.25	27634.71
503.43	27669.81
503.60	27529.38
503.78	27639.39
503.95	27630.02
504.13	27882.80
504.30	28123.88
504.48	28053.66
504.65	28170.69
504.83	28521.77
505.01	28444.53
505.18	28149.62
505.36	28510.07
505.53	28872.85
505.71	29174.78
505.88	29134.99
506.06	28561.56
506.23	28875.19
506.41	28830.72
506.58	29322.23
506.76	29411.17
506.93	29228.61
507.11	29399.47
507.28	29668.63
507.46	29394.79
507.63	29521.18
507.81	29727.14
507.98	29371.38
508.16	29750.55
508.33	29806.72
508.50	29984.60
508.68	30363.77
508.85	30703.15
509.03	30679.74
509.20	30359.09
509.38	30401.22
509.55	30609.53
509.73	30642.29
509.90	30691.44
510.08	30862.30
510.25	30974.65
510.42	30934.86
510.60	31454.46
510.77	31531.70
510.95	31311.69
511.12	31386.58
511.30	31744.69
511.47	31850.01
511.64	31735.32
511.82	32126.19
511.99	31672.13
512.17	31772.77
512.34	31648.72
512.51	32027.89
512.69	32189.39
512.86	31850.01
513.04	32301.73
513.21	32158.96
513.38	32142.58
513.56	32039.59
513.73	32210.45
513.90	32470.25
514.08	32231.52
514.25	32673.88
514.43	32776.86
514.60	32503.02
514.77	32556.85
514.95	32926.66
515.12	32921.98
515.29	32856.44
515.47	33570.30
515.64	33769.25
515.81	33385.40
515.99	33380.72
516.16	33195.82
516.33	33111.56
516.51	33277.74
516.68	33120.92
516.85	32823.67
517.03	33158.37
517.20	33755.21
517.37	33514.13
517.54	33724.78
517.72	33848.83
517.89	33759.89
518.06	33497.75
518.24	33418.17
518.41	33881.60
518.58	33935.43
518.75	34251.40
518.93	34356.72
519.10	34232.68
519.27	34682.06
519.45	34546.31
519.62	34686.74
519.79	35068.25
519.96	34866.96
520.14	35101.01
520.31	34672.70
520.48	35065.91
520.65	34841.21
520.83	35065.91
521.00	35566.78
521.17	35339.75
521.34	35859.35
521.52	35391.24
521.69	35597.21
521.86	35885.09
522.03	35845.30
522.20	36121.49
522.38	35522.31
522.55	36086.38
522.72	35639.34
522.89	35967.01
523.07	36009.14
523.24	35988.08
523.41	36208.09
523.58	36098.08
523.75	36540.44
523.92	36624.70
524.10	36547.47
524.27	37113.87
524.44	36577.89
524.61	36945.36
524.78	36793.22
524.96	37038.98
525.13	37251.97
525.30	37619.43
525.47	37057.70
525.64	37160.69
525.81	37202.82
525.98	37371.33
526.16	36968.76
526.33	36622.36
526.50	37195.79
526.67	36900.89
526.84	37256.65
527.01	36982.80
527.18	37226.22
527.36	37586.66
527.53	37427.51
527.70	38050.09
527.87	37916.68
528.04	37888.59
528.21	37699.01
528.38	37696.67
528.55	38274.78
528.72	38265.42
528.89	38508.83
529.07	38054.77
529.24	38087.54
529.41	38164.78
529.58	38422.23
529.75	38146.05
529.92	38326.27
530.09	38408.19
530.26	38548.62
530.43	38759.27
530.60	38501.81
530.77	38651.61
530.94	39225.04
531.11	38801.40
531.28	39124.40
531.46	38932.47
531.63	39250.78
531.80	38955.88
531.97	39021.41
532.14	39161.84
532.31	38569.69
532.48	39337.38
532.65	39445.05
532.82	39459.09
532.99	39438.03
533.16	39042.48
533.33	39620.59
533.50	39716.55
533.67	39555.05
533.84	39255.46
534.01	39737.62
534.18	39613.57
534.35	39847.62
534.52	39494.20
534.69	39997.41
534.86	40130.83
535.03	39957.63
535.20	40116.78
535.37	40425.73
535.54	40624.68
535.71	39938.90
535.88	40121.46
536.05	40430.41
536.22	40147.21
536.38	40678.51
536.55	39866.34
536.72	40224.45
536.89	40100.40
537.06	40231.47
537.23	40685.53
537.40	40715.96
537.57	40495.95
537.74	40371.90
537.91	40989.80
538.08	40823.62
538.25	40369.56
538.42	40641.06
538.59	40889.16
538.75	40491.27
538.92	40804.90
539.09	41364.29
539.26	40748.73
539.43	40985.12
539.60	40868.09
539.77	40774.47
539.94	41261.30
540.11	40758.09
540.28	41055.34
540.44	41041.29
540.61	40931.29
540.78	40928.95
540.95	40994.48
541.12	41055.34
541.29	41427.48
541.46	41413.44
541.62	41380.67
541.79	41603.02
541.96	41478.97
542.13	41490.68
542.30	41649.83
542.47	41448.55
542.63	41682.60
542.80	41935.38
542.97	41951.76
543.14	42267.73
543.31	42094.53
543.48	42124.96
543.64	42754.57
543.81	42380.08
543.98	42616.47
544.15	42211.56
544.32	42581.37
544.48	42665.63
544.65	42522.85
544.82	42572.00
544.99	41806.65
545.16	42642.22
545.32	41717.71
545.49	42878.61
545.66	42417.53
545.83	43100.97
546.00	43161.82
546.16	42583.71
546.33	42810.74
546.50	42284.12
546.67	42733.50
546.83	42543.92
547.00	42555.62
547.17	42700.73
547.34	42803.72
547.50	43084.58
547.67	43054.15
547.84	42522.85
548.00	42997.98
548.17	43199.27
548.34	42927.77
548.51	43304.59
548.67	43342.04
548.84	43468.43
549.01	43133.73
549.18	43164.16
549.34	43196.93
549.51	43552.69
549.68	43639.29
549.84	43700.14
550.01	43810.15
550.18	43269.48
550.34	43306.93
550.51	43803.13
550.68	43571.41
550.84	43377.15
551.01	43711.84
551.18	43517.58
551.34	43761.00
551.51	43704.82
551.68	44018.46
551.84	44034.84
552.01	43562.05
552.18	44069.95
552.34	44041.86
552.51	43777.38
552.68	43917.81
552.84	44126.12
553.01	44062.93
553.18	43835.89
553.34	44093.35
553.51	44425.71
553.67	44058.24
553.84	44095.69
554.01	44561.46
554.17	44088.67
554.34	44404.64
554.51	44854.03
554.67	44266.55
554.84	44161.23
555.00	44065.27
555.17	44313.36
555.33	44460.82
555.50	44343.79
555.67	44591.89
555.83	44741.68
556.00	44772.11
556.16	44900.84
556.33	44481.88
556.50	44533.37
556.66	44767.43
556.83	44559.12
556.99	44577.84
557.16	44814.24
557.32	44975.73
557.49	44570.82
557.65	44718.28
557.82	44680.83
557.98	45055.31
558.15	44638.70
558.32	44552.10
558.48	44533.37
558.65	44619.97
558.81	44631.68
558.98	45111.49
559.14	44601.25
559.31	44851.69
559.47	44947.65
559.64	45132.55
559.80	45380.65
559.97	45287.03
560.13	45050.63
560.30	45109.14
560.46	45160.64
560.63	45003.82
560.79	45179.36
560.96	45144.25
561.12	45235.53
561.29	45696.62
561.45	45291.71
561.61	44847.00
561.78	44964.03
561.94	44898.50
562.11	45111.49
562.27	45174.68
562.44	44912.54
562.60	45523.42
562.77	45705.98
562.93	45443.84
563.10	45581.93
563.26	44973.39
563.42	45261.28
563.59	45298.73
563.75	45359.58
563.92	45619.38
564.08	45497.67
564.24	45963.44
564.41	45581.93
564.57	45858.12
564.74	45390.01
564.90	45504.70
565.07	45530.44
565.23	45368.94
565.39	45329.16
565.56	45202.77
565.72	45464.91
565.88	45436.82
566.05	45778.54
566.21	45755.13
566.38	45574.91
566.54	45631.08
566.70	45996.21
566.87	46085.15
567.03	45413.41
567.19	45778.54
567.36	45872.16
567.52	45560.87
567.68	45572.57
567.85	45464.91
568.01	46071.10
568.17	45525.76
568.34	45514.06
568.50	45832.37
568.66	45085.74
568.83	45743.43
568.99	45670.87
569.15	45507.04
569.32	45647.47
569.48	45579.59
569.64	46096.85
569.81	45804.28
569.97	45750.45
570.13	45853.44
570.30	45441.50
570.46	45867.48
570.62	45640.45
570.78	45373.63
570.95	45495.33
571.11	46005.57
571.27	45900.25
571.43	45514.06
571.60	45874.50
571.76	46075.79
571.92	46237.28
572.09	45717.68
572.25	45677.90
572.41	46028.98
572.57	45830.03
572.74	46237.28
572.90	45705.98
573.06	45851.09
573.22	45680.24
573.38	45886.20
573.55	45668.53
573.71	46225.58
573.87	45511.72
574.03	45347.88
574.20	45914.29
574.36	46108.55
574.52	45886.20
574.68	46085.15
574.84	46047.70
575.01	45860.46
575.17	45603.00
575.33	45610.02
575.49	45808.96
575.65	45925.99
575.82	46124.94
575.98	46082.81
576.14	46195.15
576.30	46185.79
576.46	45610.02
576.62	45766.84
576.79	46007.91
576.95	45811.31
577.11	45900.25
577.27	45909.61
577.43	45570.23
577.59	45965.78
577.75	45940.04
577.92	45551.51
578.08	45607.68
578.24	45361.92
578.40	45790.24
578.56	46026.63
578.72	45911.95
578.88	46319.20
579.04	45881.52
579.21	45928.33
579.37	45897.91
579.53	45909.61
579.69	45844.07
579.85	45640.45
580.01	45921.31
580.17	45792.58
580.33	46291.12
580.49	46014.93
580.65	46028.98
580.82	45865.14
580.98	45680.24
581.14	45797.26
581.30	46237.28
581.46	46227.92
581.62	45921.31
581.78	45949.40
581.94	46447.93
582.10	46398.78
582.26	46061.74
582.42	46110.89
582.58	46485.38
582.74	45514.06
582.90	46351.97
583.06	46216.22
583.22	46485.38
583.38	46066.42
583.54	45883.86
583.70	46291.12
583.86	46270.05
584.02	46162.39
584.18	46293.46
584.34	45710.66
584.50	45958.76
584.66	46387.08
584.82	45666.19
584.98	46349.63
585.14	46344.95
585.30	46005.57
585.46	46031.32
585.62	45848.75
585.78	45579.59
585.94	45560.87
586.10	46223.24
586.26	45968.12
586.42	46260.69
586.58	46270.05
586.74	45918.97
586.90	45965.78
587.06	45745.77
587.22	46291.12
587.38	45645.13
587.54	46160.05
587.70	46206.86
587.86	45993.87
588.02	46000.89
588.18	46085.15
588.34	46148.34
588.49	45701.30
588.65	45738.75
588.81	45698.96
588.97	45572.57
589.13	45425.12
589.29	45823.01
589.45	46197.49
589.61	46073.45
589.77	46548.57
589.93	45949.40
590.08	46073.45
590.24	45991.53
590.40	46511.13
590.56	46583.68
590.72	46136.64
590.88	45710.66
591.04	46270.05
591.20	46368.35
591.35	46600.07
591.51	46513.47
591.67	46590.70
591.83	46258.35
591.99	46199.83
592.15	46396.44
592.31	46469.00
592.46	46237.28
592.62	46148.34
592.78	46401.12
592.94	46234.94
593.10	46681.98
593.26	46504.10
593.41	45984.51
593.57	46394.10
593.73	46635.17
593.89	46284.09
594.05	46220.90
594.20	46136.64
594.36	47253.08
594.52	46293.46
594.68	46108.55
594.84	46635.17
594.99	47255.42
595.15	46471.34
595.31	46777.95
595.47	46284.09
595.62	46314.52
595.78	46534.53
595.94	46117.92
596.10	46539.21
596.25	46752.20
596.41	46871.57
596.57	46801.35
596.73	46534.53
596.88	46564.96
597.04	46459.63
597.20	46747.52
597.36	46553.26
597.51	46440.91
597.67	46452.61
597.83	46513.47
597.99	46454.95
598.14	46733.48
598.30	46370.69
598.46	46150.68
598.61	46630.49
598.77	46281.75
598.93	46646.88
599.09	46351.97
599.24	46630.49
599.40	46485.38
599.56	46522.83
599.71	46534.53
599.87	46857.52
600.03	46529.85
600.18	46569.64
600.34	46361.33
600.50	46501.76
600.65	46555.60
600.81	46607.09
600.97	46602.41
601.12	47009.66
601.28	46384.74
601.44	46457.29
601.59	46258.35
601.75	46375.37
601.91	46286.43
602.06	46429.21
602.22	46759.22
602.37	46209.20
602.53	46600.07
602.69	46817.74
602.84	46377.72
603.00	46415.16
603.16	46148.34
603.31	45998.55
603.47	46241.96
603.62	46550.91
603.78	46504.10
603.94	46246.65
604.09	46440.91
604.25	46253.67
604.40	46466.66
604.56	46677.30
604.71	46129.62
604.87	46424.53
605.03	46031.32
605.18	46146.00
605.34	46234.94
605.49	46171.75
605.65	46288.77
605.80	46323.88
605.96	46579.00
606.12	46485.38
606.27	46185.79
606.43	45766.84
606.58	46382.40
606.74	45825.35
606.89	46094.51
607.05	46211.54
607.20	46099.19
607.36	46043.02
607.51	46192.81
607.67	46195.15
607.82	46490.06
607.98	45867.48
608.13	46204.52
608.29	45972.80
608.44	46000.89
608.60	45455.54
608.75	45940.04
608.91	45769.18
609.06	45935.35
609.22	46047.70
609.37	45902.59
609.53	46071.10
609.68	46078.13
609.84	45752.79
609.99	46066.42
610.15	46073.45
610.30	45715.34
610.46	45968.12
610.61	45624.06
610.76	45900.25
610.92	45689.60
611.07	46052.38
611.23	45694.28
611.38	45703.64
611.54	45518.74
611.69	45600.66
611.84	45595.98
612.00	45097.44
612.15	45385.33
612.31	45851.09
612.46	45631.08
612.62	45350.22
612.77	45670.87
612.92	45918.97
613.08	45256.60
613.23	45546.82
613.39	45425.12
613.54	45106.80
613.69	45102.12
613.85	45247.24
614.00	45921.31
614.15	45909.61
614.31	45366.60
614.46	45146.59
614.62	45282.34
614.77	45116.17
614.92	45500.01
615.08	45160.64
615.23	45083.40
615.38	45081.06
615.54	45041.27
615.69	45556.19
615.84	44758.06
616.00	45034.25
616.15	45174.68
616.30	45125.53
616.46	44495.92
616.61	44769.77
616.76	45294.05
616.92	44844.66
617.07	45130.21
617.22	44882.11
617.37	44924.24
617.53	45083.40
617.68	45359.58
617.83	45174.68
617.99	45132.55
618.14	44741.68
618.29	45151.27
618.45	44631.68
618.60	44884.45
618.75	44875.09
618.90	44470.18
619.06	44783.81
619.21	44313.36
619.36	45022.54
619.51	44711.25
619.67	44891.48
619.82	44505.29
619.97	45308.09
620.12	44329.75
620.28	44282.94
620.43	44233.78
620.58	44385.92
620.73	44336.77
620.89	44336.77
621.04	44449.11
621.19	44622.31
621.34	44301.66
621.49	43608.86
621.65	44505.29
621.80	44556.78
621.95	43922.49
622.10	43999.73
622.25	44268.89
622.41	43871.00
622.56	44109.74
622.71	44690.19
622.86	43962.28
623.01	44212.72
623.16	44311.02
623.32	44055.90
623.47	44514.65
623.62	44350.81
623.77	43999.73
623.92	44016.11
624.07	43803.13
624.23	43707.16
624.38	43388.85
624.53	43669.72
624.68	43988.03
624.83	43636.95
624.98	43634.61
625.13	43157.14
625.29	43604.18
625.44	43665.03
625.59	43384.17
625.74	43466.09
625.89	43098.62
626.04	43056.50
626.19	43419.28
626.34	43367.79
626.49	43030.75
626.65	43555.03
626.80	43835.89
626.95	42983.94
627.10	43391.19
627.25	43014.37
627.40	42808.40
627.55	43065.86
627.70	42394.12
627.85	42642.22
628.00	42932.45
628.15	43360.76
628.30	43079.90
628.45	42679.67
628.60	42972.24
628.76	43079.90
628.91	43040.11
629.06	43133.73
629.21	42536.90
629.36	42703.07
629.51	42511.15
629.66	42997.98
629.81	42930.11
629.96	42871.59
630.11	42780.31
630.26	42581.37
630.41	42740.52
630.56	42394.12
630.71	42487.74
630.86	42707.76
631.01	42595.41
631.16	42639.88
631.31	42536.90
631.46	41970.49
631.61	42733.50
631.76	42454.98
631.91	42562.64
632.06	42588.39
632.21	42384.76
632.36	42478.38
632.51	42047.72
632.66	42440.93
632.81	41588.98
632.96	42274.76
633.10	41565.57
633.25	41881.55
633.40	42316.89
633.55	42291.14
633.70	42071.13
633.85	42007.94
634.00	42108.58
634.15	41741.11
634.30	42019.64
634.45	42085.17
634.60	41799.63
634.75	41392.37
634.90	41886.23
635.05	42232.63
635.19	41844.10
635.34	42246.67
635.49	42021.98
635.64	41408.76
635.79	41202.79
635.94	41560.89
636.09	41979.85
636.24	41965.81
636.39	41530.47
636.53	41549.19
636.68	41322.16
636.83	41645.15
636.98	41635.79
637.13	41165.34
637.28	41830.05
637.43	41759.84
637.57	41661.54
637.72	41361.95
637.87	41371.31
638.02	41378.33
638.17	41242.58
638.32	41221.52
638.46	41345.56
638.61	41088.10
638.76	40896.18
638.91	41195.77
639.06	40783.83
639.20	41359.61
639.35	41691.96
639.50	40809.58
639.65	41165.34
639.80	41280.03
639.94	40844.69
640.09	40952.35
640.24	40512.33
640.39	40903.20
640.54	40638.72
640.68	40645.74
640.83	41207.47
640.98	40409.35
641.13	40734.68
641.27	41181.73
641.42	40575.53
641.57	40917.25
641.72	40404.67
641.86	40577.87
642.01	40657.45
642.16	40409.35
642.31	40346.15
642.45	40208.06
642.60	40191.68
642.75	39880.39
642.90	40201.04
643.04	40360.20
643.19	40147.21
643.34	40488.93
643.48	40194.02
643.63	40526.38
643.78	39599.52
643.93	39819.53
644.07	40039.54
644.22	40172.96
644.37	39604.20
644.51	39950.60
644.66	39896.77
644.81	39955.29
644.95	39955.29
645.10	40381.26
645.25	40076.99
645.39	39950.60
645.54	40030.18
645.69	40100.40
645.83	39966.99
645.98	40095.72
646.13	39959.97
646.27	40282.96
646.42	39658.04
646.57	39669.74
646.71	39943.58
646.86	39749.32
647.00	39199.29
647.15	39828.90
647.30	39999.76
647.44	39700.17
647.59	39585.48
647.74	39639.31
647.88	39384.19
648.03	39208.65
648.17	39505.90
648.32	39138.44
648.47	39309.30
648.61	39248.44
648.76	40109.76
648.90	39524.63
649.05	39765.70
649.20	39583.14
649.34	39452.07
649.49	39096.31
649.63	39016.73
649.78	39189.93
649.92	39290.57
650.07	38944.17
650.21	38932.47
650.36	38906.73
650.51	39063.54
650.65	39470.79
650.80	39515.26
650.94	39264.83
651.09	39145.46
651.23	38639.90
651.38	38747.57
651.52	38660.97
651.67	38951.20
651.81	38747.57
651.96	39012.05
652.10	38792.04
652.25	38490.11
652.39	38691.40
652.54	39061.20
652.68	38878.64
652.83	38841.19
652.97	39119.71
653.12	38974.60
653.26	38649.27
653.41	38733.53
653.55	38363.72
653.70	38487.77
653.84	38562.67
653.99	38511.17
654.13	38724.16
654.27	38518.20
654.42	38321.59
654.56	38550.96
654.71	38831.83
654.85	38359.04
655.00	38426.92
655.14	38010.30
655.29	38031.36
655.43	37741.14
655.57	37881.57
655.72	37621.77
655.86	37448.57
656.01	37689.65
656.15	37687.31
656.30	37148.98
656.44	37502.40
656.58	37935.40
656.73	37563.26
656.87	37539.85
657.01	37947.11
657.16	37670.92
657.30	37411.12
657.45	37322.18
657.59	37387.72
657.73	37219.20
657.88	37699.01
658.02	37230.90
658.16	37848.80
658.31	38075.84
658.45	37862.85
658.60	37397.08
658.74	37612.41
658.88	37408.78
659.03	37214.52
659.17	37296.44
659.31	37291.76
659.46	37153.66
659.60	37390.06
659.74	37134.94
659.89	36954.72
660.03	37050.68
660.17	37048.34
660.32	36966.42
660.46	37247.29
660.60	36952.38
660.74	37443.89
660.89	36844.71
661.03	36657.47
661.17	36456.18
661.32	36128.51
661.46	36924.29
661.60	36596.62
661.74	36573.21
661.89	36835.35
662.03	36362.56
662.17	36348.52
662.31	36238.51
662.46	36334.48
662.60	36926.63
662.74	36058.29
662.88	35927.22
663.03	35969.35
663.17	36046.59
663.31	35962.33
663.45	36236.17
663.60	36224.47
663.74	35573.80
663.88	35899.14
664.02	35545.72
664.17	35878.07
664.31	35557.42
664.45	35435.71
664.59	35782.11
664.73	35915.52
664.88	35622.95
665.02	35393.58
665.16	35538.69
665.30	35405.28
665.44	35627.63
665.59	35040.16
665.73	35597.21
665.87	34998.03
666.01	35133.78
666.15	35047.18
666.29	35232.08
666.44	35227.40
666.58	34731.21
666.72	34995.69
666.86	34763.98
667.00	35199.32
667.14	34740.57
667.28	34771.00
667.43	34679.72
667.57	34590.78
667.71	34361.40
667.85	34345.02
667.99	34550.99
668.13	34274.80
668.27	34246.72
668.41	34508.86
668.56	34122.67
668.70	34033.73
668.84	33839.47
668.98	33811.38
669.12	33795.00
669.26	34024.37
669.40	33467.32
669.54	33677.97
669.68	33923.72
669.82	33563.28
669.96	33675.63
670.10	33392.42
670.25	33600.73
670.39	33656.90
670.53	33479.02
670.67	33256.67
670.81	33900.32
670.95	33619.46
671.09	33263.69
671.23	33296.46
671.37	32872.82
671.51	33022.62
671.65	32858.78
671.79	32800.27
671.93	32500.68
672.07	32896.23
672.21	32378.97
672.35	32540.47
672.49	32268.97
672.63	32917.29
672.77	32739.41
672.91	32538.13
673.05	32336.84
673.19	32397.70
673.33	32395.35
673.47	32086.40
673.61	32020.87
673.75	31833.63
673.89	31386.58
674.03	31576.17
674.17	31665.11
674.31	31400.63
674.45	31545.74
674.59	31725.96
674.73	31536.38
674.87	31335.09
675.01	31384.24
675.15	31519.99
675.29	31491.91
675.43	31192.32
675.56	31189.98
675.70	30958.27
675.84	31229.77
675.98	30321.64
676.12	30806.13
676.26	30661.02
676.40	30380.15
676.54	30567.40
676.68	30455.05
676.82	30024.39
676.96	30000.99
677.10	30195.25
677.23	29820.77
677.37	29869.92
677.51	30082.91
677.65	29830.13
677.79	29525.86
677.93	29689.70
678.07	29654.59
678.21	29195.84
678.34	29090.52
678.48	29481.39
678.62	29130.31
678.76	29137.33
678.90	29167.76
679.04	29347.98
679.18	29467.34
679.31	28840.08
679.45	28334.53
679.59	28294.74
679.73	28287.71
679.87	28819.02
680.00	28437.51
680.14	28432.83
680.28	28287.71
680.42	28034.94
680.56	27843.01
680.70	27697.90
680.83	27850.03
680.97	27566.83
681.11	27405.33
681.25	27508.32
681.39	27323.41
681.52	27658.11
681.66	27651.09
681.80	27021.48
681.94	27243.84
682.07	27143.19
682.21	27087.02
682.35	26740.62
682.49	26700.83
682.62	26862.33
682.76	26457.42
682.90	26871.69
683.04	26218.68
683.17	26600.19
683.31	26576.78
683.45	26684.45
683.59	26171.87
683.72	25879.30
683.86	25956.54
684.00	25675.68
684.13	26033.78
684.27	25813.77
684.41	25874.62
684.55	25582.06
684.68	25376.09
684.82	25001.60
684.96	25275.45
685.09	25362.04
685.23	25001.60
685.37	25408.86
685.50	24748.82
685.64	24762.87
685.78	24624.78
685.91	24826.06
686.05	24662.22
686.19	24634.14
686.32	24306.46
686.46	24334.55
686.60	23482.59
686.73	23592.60
686.87	23447.49
687.01	23583.24
687.14	23410.04
687.28	23805.59
687.42	23424.08
687.55	23204.07
687.69	23391.31
687.82	23192.37
687.96	23365.57
688.10	23061.30
688.23	23377.27
688.37	23007.47
688.50	22780.43
688.64	22443.40
688.78	22668.09
688.91	22136.79
689.05	22635.32
689.18	22246.79
689.32	22347.44
689.46	22649.36
689.59	22537.02
689.73	22342.75
689.86	22005.72
690.00	21935.50
690.13	22429.35
690.27	21935.50
690.41	22019.76
690.54	21874.65
690.68	21392.50
690.81	21708.47
690.95	21135.04
691.08	21443.99
691.22	21348.03
691.35	21432.29
691.49	21338.66
691.62	21310.58
691.76	21226.32
691.89	20966.52
692.03	20978.22
692.16	20622.46
692.30	20755.87
692.43	20725.44
692.57	20496.07
692.70	20226.91
692.84	20540.54
692.97	20229.25
693.11	20290.10
693.24	19894.55
693.38	20269.04
693.51	19857.10
693.65	19992.86
693.78	20100.52
693.92	19943.70
694.05	19075.37
694.19	19627.73
694.32	19520.07
694.45	19286.01
694.59	19489.64
694.72	19566.88
694.86	19194.73
694.99	19058.98
695.13	18913.87
695.26	18747.69
695.39	18661.09
695.53	18869.40
695.66	18803.86
695.80	18913.87
695.93	18745.35
696.07	18354.48
696.20	18363.84
696.33	18412.99
696.47	18307.67
696.60	18171.92
696.73	18251.50
696.87	17869.99
697.00	18377.89
697.14	18113.41
697.27	17673.39
697.40	17930.84
697.54	17781.05
697.67	17853.61
697.80	17738.92
697.94	17343.37
698.07	17259.11
698.21	17486.14
698.34	17310.60
698.47	17488.48
698.61	16966.54
698.74	16798.02
698.87	16910.37
699.01	16582.70
699.14	16554.61
699.27	16650.57
699.40	16692.70
699.54	16367.37
699.67	16641.21
699.80	16683.34
699.94	16152.04
700.07	16315.87
700.20	16053.73
700.34	15803.30
700.47	15976.50
700.60	16137.99
700.73	16198.85
700.87	16116.93
701.00	15730.74
701.13	15772.87
701.26	15815.00
701.40	15639.46
701.53	15424.13
701.66	15721.38
701.79	15253.27
701.93	15129.22
702.06	15117.52
702.19	14972.41
702.32	15215.82
702.46	14815.59
702.59	15145.61
702.72	15143.27
702.85	15152.63
702.99	15000.49
703.12	14998.15
703.25	14799.21
703.38	14778.14
703.51	14780.48
703.65	14410.68
703.78	14640.05
703.91	14553.45
704.04	14466.85
704.17	14267.91
704.31	14160.24
704.44	13865.33
704.57	13893.42
704.70	13884.06
704.83	13935.55
704.96	13666.39
705.10	13797.46
705.23	13776.39
>>>>>End Processed Spectral Data<<<<<
