SpectraSuite Data File
++++++++++++++++++++++++++++++++++++
Date: Fri Oct 25 11:34:45 EDT 2013
User: price-jones
Dark Spectrum Present: No
Reference Spectrum Present: No
Number of Sampled Component Spectra: 1
Spectrometers: USB2+H05261
Integration Time (usec): 100000 (USB2+H05261)
Spectra Averaged: 1 (USB2+H05261)
Boxcar Smoothing: 0 (USB2+H05261)
Correct for Electrical Dark: No (USB2+H05261)
Strobe/Lamp Enabled: No (USB2+H05261)
Correct for Detector Non-linearity: No (USB2+H05261)
Correct for Stray Light: No (USB2+H05261)
Number of Pixels in Processed Spectrum: 2048
>>>>>Begin Processed Spectral Data<<<<<
365.73	299.59
365.92	299.59
366.12	299.59
366.32	241.08
366.52	208.31
366.72	252.78
366.91	156.82
367.11	135.75
367.31	170.86
367.51	198.95
367.70	231.71
367.90	161.50
368.10	166.18
368.30	215.33
368.49	168.52
368.69	189.58
368.89	201.29
369.09	208.31
369.28	238.73
369.48	236.39
369.68	198.95
369.87	255.12
370.07	269.16
370.27	257.46
370.47	341.72
370.66	503.22
370.86	484.49
371.06	486.83
371.25	475.13
371.45	538.32
371.65	498.53
371.84	517.26
372.04	531.30
372.24	561.73
372.44	559.39
372.63	594.50
372.83	688.12
373.03	608.54
373.22	552.37
373.42	545.34
373.62	613.22
373.81	615.56
374.01	685.78
374.21	657.69
374.40	596.84
374.60	638.97
374.79	617.90
374.99	653.01
375.19	620.24
375.38	594.50
375.58	643.65
375.78	690.46
375.97	664.71
376.17	688.12
376.37	655.35
376.56	688.12
376.76	681.10
376.95	711.52
377.15	624.92
377.35	702.16
377.54	720.88
377.74	690.46
377.93	664.71
378.13	671.73
378.33	678.76
378.52	641.31
378.72	716.20
378.91	716.20
379.11	699.82
379.31	690.46
379.50	702.16
379.70	695.14
379.89	697.48
380.09	704.50
380.28	645.99
380.48	704.50
380.68	737.27
380.87	704.50
381.07	727.91
381.26	753.65
381.46	732.59
381.65	725.57
381.85	763.01
382.04	763.01
382.24	716.20
382.43	763.01
382.63	746.63
382.83	697.48
383.02	779.40
383.22	849.61
383.41	765.36
383.61	770.04
383.80	772.38
384.00	793.44
384.19	779.40
384.39	765.36
384.58	823.87
384.78	880.04
384.97	835.57
385.17	755.99
385.36	807.48
385.56	828.55
385.75	826.21
385.95	840.25
386.14	866.00
386.34	851.96
386.53	854.30
386.72	802.80
386.92	856.64
387.11	800.46
387.31	943.24
387.50	898.77
387.70	854.30
387.89	873.02
388.09	837.91
388.28	875.36
388.48	851.96
388.67	936.21
388.86	980.68
389.06	828.55
389.25	863.66
389.45	1004.09
389.64	884.72
389.84	966.64
390.03	945.58
390.22	903.45
390.42	861.32
390.61	1013.45
390.81	936.21
391.00	947.92
391.19	959.62
391.39	964.30
391.58	870.68
391.78	954.94
391.97	931.53
392.16	1006.43
392.36	1029.84
392.55	1107.07
392.75	1039.20
392.94	994.73
393.13	1043.88
393.33	985.37
393.52	1011.11
393.71	1053.24
393.91	983.02
394.10	1036.86
394.29	1041.54
394.49	987.71
394.68	1144.52
394.88	1060.26
395.07	1151.54
395.26	1046.22
395.46	1041.54
395.65	1132.82
395.84	1048.56
396.04	1174.95
396.23	1144.52
396.42	1090.69
396.62	1221.76
396.81	1214.74
397.00	1177.29
397.19	1153.88
397.39	1153.88
397.58	1240.48
397.77	1210.06
397.97	1329.42
398.16	1200.69
398.35	1217.08
398.55	1254.53
398.74	1287.29
398.93	1259.21
399.12	1252.19
399.32	1299.00
399.51	1270.91
399.70	1191.33
399.90	1254.53
400.09	1296.66
400.28	1289.64
400.47	1343.47
400.67	1287.29
400.86	1320.06
401.05	1369.21
401.24	1448.79
401.44	1394.96
401.63	1373.89
401.82	1327.08
402.01	1481.56
402.21	1315.38
402.40	1465.18
402.59	1432.41
402.78	1495.60
402.97	1526.03
403.17	1479.22
403.36	1476.88
403.55	1416.02
403.74	1526.03
403.93	1488.58
404.13	1596.25
404.32	1586.88
404.51	1626.67
404.70	1556.46
404.89	1687.53
405.09	1603.27
405.28	1629.01
405.47	1598.59
405.66	1621.99
405.85	1603.27
406.05	1572.84
406.24	1645.40
406.43	1657.10
406.62	1680.50
406.81	1748.38
407.00	1689.87
407.20	1701.57
407.39	1788.17
407.58	1710.93
407.77	1809.23
407.96	1818.60
408.15	1743.70
408.34	1760.08
408.54	1898.17
408.73	1874.77
408.92	1856.04
409.11	1900.52
409.30	1839.66
409.49	1928.60
409.68	1982.43
409.87	1916.90
410.07	1902.86
410.26	1987.11
410.45	1970.73
410.64	1973.07
410.83	1989.46
411.02	2022.22
411.21	2148.61
411.40	2024.56
411.59	2101.80
411.78	2090.10
411.98	2085.42
412.17	2122.87
412.36	2073.71
412.55	2284.36
412.74	2296.07
412.93	2207.13
413.12	2179.04
413.31	2347.56
413.50	2258.62
413.69	2317.13
413.88	2394.37
414.07	2345.22
414.26	2382.67
414.45	2445.86
414.64	2450.54
414.83	2361.60
415.02	2490.33
415.22	2497.35
415.41	2581.61
415.60	2546.50
415.79	2534.80
415.98	2696.30
416.17	2569.91
416.36	2588.63
416.55	2558.21
416.74	2729.06
416.93	2668.21
417.12	2644.81
417.31	2609.70
417.50	2752.47
417.69	2834.39
417.88	2796.94
418.07	2682.25
418.26	2885.88
418.45	2850.77
418.64	2960.78
418.83	2846.09
419.02	2806.30
419.21	3045.04
419.39	3061.42
419.58	2892.90
419.77	2916.31
419.96	2953.76
420.15	2993.55
420.34	2963.12
420.53	2946.73
420.72	3089.51
420.91	3105.89
421.10	3108.23
421.29	3091.85
421.48	3150.36
421.67	3112.91
421.86	3129.30
422.05	3206.53
422.24	3180.79
422.43	3185.47
422.61	3155.04
422.80	3267.39
422.99	3187.81
423.18	3316.54
423.37	3267.39
423.56	3293.13
423.75	3164.40
423.94	3211.22
424.13	3047.38
424.32	3122.27
424.50	3148.02
424.69	3372.71
424.88	3295.47
425.07	3269.73
425.26	3176.11
425.45	3309.52
425.64	3283.77
425.83	3239.30
426.01	3361.01
426.20	3337.60
426.39	3290.79
426.58	3382.07
426.77	3403.14
426.96	3438.25
427.15	3503.78
427.33	3353.99
427.52	3353.99
427.71	3517.83
427.90	3365.69
428.09	3473.36
428.28	3620.81
428.46	3435.91
428.65	3513.14
428.84	3623.15
429.03	3688.68
429.22	3609.11
429.40	3709.75
429.59	3590.38
429.78	3506.12
429.97	3438.25
430.16	3684.00
430.34	3623.15
430.53	3712.09
430.72	3606.77
430.91	3691.02
431.10	3765.92
431.28	3784.65
431.47	3761.24
431.66	3950.82
431.85	3597.40
432.03	3676.98
432.22	3936.78
432.41	3840.82
432.60	3939.12
432.79	3941.46
432.97	3852.52
433.16	4028.06
433.35	4023.38
433.54	4018.70
433.72	4159.13
433.91	3976.57
434.10	3904.01
434.28	3892.31
434.47	4023.38
434.66	4163.81
434.85	4121.68
435.03	4114.66
435.22	4128.70
435.41	4227.01
435.59	4276.16
435.78	4119.34
435.97	4208.28
436.16	4222.33
436.34	4166.15
436.53	4252.75
436.72	4278.50
436.90	4145.09
437.09	4341.69
437.28	4159.13
437.46	4269.14
437.65	4461.06
437.84	4320.63
438.02	4454.04
438.21	4423.61
438.40	4458.72
438.58	4491.49
438.77	4517.23
438.96	4507.87
439.14	4542.98
439.33	4774.69
439.52	4760.65
439.70	4468.08
439.89	4802.78
440.08	4718.52
440.26	4805.12
440.45	4826.18
440.63	4798.10
440.82	5060.24
441.01	4861.29
441.19	4903.42
441.38	5008.75
441.57	4959.60
441.75	5172.58
441.94	5163.22
442.12	5128.11
442.31	5200.67
442.50	5142.16
442.68	5107.05
442.87	5240.46
443.05	5247.48
443.24	5280.25
443.43	5387.91
443.61	5287.27
443.80	5425.36
443.98	5338.76
444.17	5027.47
444.35	5221.74
444.54	5345.78
444.73	5252.16
444.91	5357.49
445.10	5399.62
445.28	5261.52
445.47	5371.53
445.65	5582.18
445.84	5518.98
446.02	5320.04
446.21	5327.06
446.39	5214.71
446.58	5364.51
446.77	5329.40
446.95	5453.45
447.14	5371.53
447.32	5551.75
447.51	5472.17
447.69	5488.56
447.88	5301.31
448.06	5511.96
448.25	5385.57
448.43	5488.56
448.62	5378.55
448.80	5444.09
448.99	5638.35
449.17	5579.84
449.36	5563.45
449.54	5636.01
449.73	5621.97
449.91	5804.53
450.10	5746.02
450.28	5963.68
450.46	5755.38
450.65	5741.33
450.83	5830.27
451.02	5851.34
451.20	5839.64
451.39	5872.40
451.57	5860.70
451.76	5872.40
451.94	5987.09
452.13	5856.02
452.31	5902.83
452.49	6033.90
452.68	5921.56
452.86	5891.13
453.05	6054.97
453.23	5923.90
453.42	6057.31
453.60	5987.09
453.78	6207.10
453.97	6134.54
454.15	6115.82
454.34	6078.37
454.52	6216.46
454.70	6010.50
454.89	6120.50
455.07	6284.34
455.26	6225.82
455.44	6370.94
455.62	6335.83
455.81	6342.85
455.99	6321.79
456.17	6487.96
456.36	6384.98
456.54	6396.68
456.73	6525.41
456.91	6691.59
457.09	6647.12
457.28	6637.76
457.46	6581.59
457.64	6576.91
457.83	6597.97
458.01	6623.72
458.19	6682.23
458.38	6796.92
458.56	6817.98
458.74	6920.96
458.93	6808.62
459.11	6771.17
459.29	6862.45
459.48	6871.81
459.66	7014.59
459.84	6911.60
460.03	6927.99
460.21	6998.20
460.39	7080.12
460.57	6904.58
460.76	7096.50
460.94	7110.55
461.12	7068.42
461.31	7026.29
461.49	7199.49
461.67	7225.23
461.85	7307.15
462.04	7213.53
462.22	7414.82
462.40	7456.95
462.59	7433.54
462.77	7466.31
462.95	7386.73
463.13	7265.02
463.32	7428.86
463.50	7438.22
463.68	7588.02
463.86	7599.72
464.05	7262.68
464.23	7515.46
464.41	7613.76
464.59	7330.56
464.78	7595.04
464.96	7672.28
465.14	7466.31
465.32	7737.81
465.50	7728.45
465.69	7726.11
465.87	7604.40
466.05	7873.56
466.23	7592.70
466.41	7616.10
466.60	7784.62
466.78	7529.50
466.96	7639.51
467.14	7740.15
467.32	7698.02
467.51	7976.55
467.69	7765.90
467.87	7754.19
468.05	8021.02
468.23	7705.04
468.41	7840.79
468.60	7967.18
468.78	8016.33
468.96	8168.47
469.14	8035.06
469.32	8208.26
469.50	7852.50
469.69	8287.84
469.87	8351.03
470.05	8252.73
470.23	8379.12
470.41	8255.07
470.59	8580.40
470.77	8285.50
470.95	8379.12
471.14	8589.77
471.32	8355.71
471.50	8418.91
471.68	8489.12
471.86	8718.50
472.04	8720.84
472.22	8809.78
472.40	8681.05
472.58	8741.90
472.77	8732.54
472.95	8788.71
473.13	9158.52
473.31	8915.10
473.49	8947.87
473.67	8889.35
473.85	8926.80
474.03	9399.59
474.21	9252.14
474.39	9085.96
474.57	9301.29
474.75	9327.03
474.93	9324.69
475.12	9205.33
475.30	9378.53
475.48	9483.85
475.66	9631.30
475.84	9488.53
476.02	9371.50
476.20	9769.40
476.38	9837.27
476.56	10303.04
476.74	10106.43
476.92	9853.66
477.10	9881.74
477.28	9949.62
477.46	10064.30
477.64	10160.27
477.82	10520.71
478.00	10747.74
478.18	10373.25
478.36	10499.64
478.54	10904.56
478.72	10824.98
478.90	10677.52
479.08	10949.03
479.26	10944.34
479.44	11056.69
479.62	10988.82
479.80	11208.83
479.98	11314.15
480.16	11421.81
480.34	11363.30
480.52	11609.06
480.70	11688.64
480.88	11592.67
481.06	11829.07
481.24	11632.46
481.41	12009.29
481.59	12091.21
481.77	12065.46
481.95	12091.21
482.13	12306.54
482.31	12362.71
482.49	12472.71
482.67	12500.80
482.85	12896.35
483.03	12753.58
483.21	12905.71
483.39	12961.89
483.57	12936.14
483.74	13186.58
483.92	13308.29
484.10	13195.94
484.28	13635.96
484.46	13554.04
484.64	13853.63
484.82	13675.75
485.00	13816.18
485.18	14143.86
485.35	14560.47
485.53	14101.73
485.71	14265.57
485.89	14558.13
486.07	14466.85
486.25	14670.48
486.43	14630.69
486.61	14848.36
486.78	14839.00
486.96	15016.88
487.14	15267.31
487.32	15379.66
487.50	15515.41
487.68	15721.38
487.85	15709.68
488.03	15992.88
488.21	15782.23
488.39	16311.19
488.57	16006.92
488.75	16154.38
488.92	16643.55
489.10	16519.50
489.28	16556.95
489.46	16643.55
489.64	16779.30
489.81	17158.47
489.99	16901.01
490.17	17287.20
490.35	17350.39
490.53	17497.84
490.70	17495.50
490.88	17547.00
491.06	17975.31
491.24	17745.94
491.41	17989.36
491.59	17954.25
491.77	17898.08
491.95	17991.70
492.13	18326.39
492.30	18368.52
492.48	18801.52
492.66	18569.81
492.84	18539.38
493.01	19012.17
493.19	19026.21
493.37	18967.70
493.54	19037.92
493.72	19585.60
493.90	19548.15
494.08	19655.82
494.25	19777.53
494.43	19807.95
494.61	19976.47
494.79	20095.84
494.96	19887.53
495.14	20198.82
495.32	20266.70
495.49	20734.81
495.67	20758.21
495.85	20549.90
496.02	21076.52
496.20	21345.69
496.38	20947.79
496.55	20877.58
496.73	21600.80
496.91	21525.91
497.09	21617.19
497.26	21757.62
497.44	21722.51
497.62	21774.00
497.79	21781.03
497.97	21865.28
498.14	22134.45
498.32	22244.45
498.50	22396.59
498.67	22679.79
498.85	22572.13
499.03	22867.03
499.20	22567.45
499.38	22658.73
499.56	23044.91
499.73	22932.57
499.91	23040.23
500.08	23344.50
500.26	23197.05
500.44	23215.77
500.61	23323.44
500.79	23012.15
500.97	23250.88
501.14	23821.97
501.32	23852.40
501.49	23920.28
501.67	23992.83
501.84	24318.17
502.02	24018.58
502.20	24166.03
502.37	24250.29
502.55	24182.42
502.72	24601.37
502.90	24465.62
503.07	24187.10
503.25	24570.94
503.43	24610.73
503.60	25003.94
503.78	24912.66
503.95	24975.86
504.13	24987.56
504.30	25366.73
504.48	25195.87
504.65	25184.16
504.83	25399.49
505.01	25614.82
505.18	25516.52
505.36	25715.47
505.53	25415.88
505.71	25893.35
505.88	25867.60
506.06	25720.15
506.23	26005.69
506.41	25720.15
506.58	26047.82
506.76	26352.09
506.93	26558.06
507.11	26429.33
507.28	26448.05
507.46	26611.89
507.63	26455.08
507.81	27091.70
507.98	26628.27
508.16	26639.98
508.33	27159.58
508.50	27077.66
508.68	27204.05
508.85	27410.01
509.03	27136.17
509.20	27566.83
509.38	27536.40
509.55	27625.34
509.73	27833.65
509.90	27377.25
510.08	27222.77
510.25	27704.92
510.42	28201.11
510.60	27714.28
510.77	28210.48
510.95	28657.52
511.12	27880.46
511.30	28158.99
511.47	28367.29
511.64	28383.68
511.82	28467.94
511.99	28458.57
512.17	28936.04
512.34	28573.26
512.51	28952.43
512.69	28896.25
512.86	28833.06
513.04	29563.31
513.21	29228.61
513.38	29385.43
513.56	29357.34
513.73	29406.49
513.90	29228.61
514.08	29294.14
514.25	29713.10
514.43	29806.72
514.60	29865.24
514.77	29467.34
514.95	30080.56
515.12	29841.83
515.29	29696.72
515.47	30017.37
515.64	30188.23
515.81	29986.94
515.99	30206.95
516.16	30562.72
516.33	30471.43
516.51	30422.28
516.68	30462.07
516.85	30834.22
517.03	30618.89
517.20	31084.65
517.37	30696.13
517.54	30916.14
517.72	30986.35
517.89	31042.53
518.06	31044.87
518.24	31229.77
518.41	30993.37
518.58	31246.15
518.75	31147.85
518.93	31150.19
519.10	31339.77
519.27	31517.65
519.45	31978.74
519.62	31566.81
519.79	31906.18
519.96	31892.14
520.14	31924.91
520.31	31782.13
520.48	31983.42
520.65	31606.59
520.83	32493.66
521.00	32371.95
521.17	32781.54
521.34	32692.60
521.52	32486.64
521.69	32329.82
521.86	32638.77
522.03	33015.60
522.20	32802.61
522.38	33013.26
522.55	33111.56
522.72	33083.47
522.89	33298.80
523.07	33385.40
523.24	32994.53
523.41	33399.44
523.58	33149.01
523.75	33450.94
523.92	33455.62
524.10	33493.07
524.27	33809.04
524.44	33406.47
524.61	33493.07
524.78	34036.07
524.96	34050.11
525.13	33956.49
525.30	34017.35
525.47	34218.63
525.64	34663.33
525.81	34040.75
525.98	34239.70
526.16	34045.43
526.33	34443.32
526.50	34433.96
526.67	34113.31
526.84	34445.66
527.01	34501.84
527.18	34031.39
527.36	34817.81
527.53	34759.30
527.70	34998.03
527.87	35009.73
528.04	34534.60
528.21	35187.61
528.38	35262.51
528.55	35014.41
528.72	34771.00
528.89	35225.06
529.07	35196.98
529.24	34567.37
529.41	35276.55
529.58	35119.74
529.75	35255.49
529.92	35496.56
530.09	35377.20
530.26	35498.91
530.43	35974.03
530.60	35562.10
530.77	35360.81
530.94	35747.00
531.11	35456.78
531.28	35634.66
531.46	36053.61
531.63	36142.55
531.80	35849.99
531.97	36100.42
532.14	35999.78
532.31	36037.23
532.48	36521.72
532.65	36652.79
532.82	35971.69
532.99	36280.64
533.16	36343.84
533.33	36837.69
533.50	36275.96
533.67	36575.55
533.84	36348.52
534.01	36732.37
534.18	36833.01
534.35	37301.12
534.52	36917.27
534.69	36987.49
534.86	37202.82
535.03	36938.33
535.20	37034.30
535.37	37064.72
535.54	37577.30
535.71	37134.94
535.88	37727.10
536.05	37677.94
536.22	37266.01
536.38	37345.59
536.55	37247.29
536.72	37642.84
536.89	37605.39
537.06	37888.59
537.23	37528.15
537.40	37598.37
537.57	37691.99
537.74	37294.10
537.91	37621.77
538.08	37792.63
538.25	37961.15
538.42	37792.63
538.59	38359.04
538.75	37249.63
538.92	38579.05
539.09	38005.62
539.26	37853.48
539.43	37928.38
539.60	38469.04
539.77	38345.00
539.94	38239.67
540.11	38555.64
540.28	38602.46
540.44	38534.58
540.61	38745.23
540.78	38199.88
540.95	38630.54
541.12	38593.09
541.29	38773.31
541.46	38146.05
541.62	39241.42
541.79	38923.11
541.96	38649.27
542.13	38817.78
542.30	38410.53
542.47	38888.00
542.63	39173.55
542.80	39201.63
542.97	39533.99
543.14	39229.72
543.31	39250.78
543.48	39344.41
543.64	39924.86
543.81	40004.44
543.98	39601.86
544.15	39636.97
544.32	39302.28
544.48	40245.51
544.65	39683.78
544.82	40093.38
544.99	39770.38
545.16	39632.29
545.32	39573.78
545.49	40175.30
545.66	40318.07
545.83	39978.69
546.00	40568.51
546.16	40416.37
546.33	39936.56
546.50	39826.56
546.67	40634.04
546.83	39882.73
547.00	40282.96
547.17	40130.83
547.34	40048.91
547.50	40350.84
547.67	40533.40
547.84	40313.39
548.00	40570.85
548.17	40690.21
548.34	41036.61
548.51	40875.12
548.67	40896.18
548.84	41008.53
549.01	40961.72
549.18	41036.61
549.34	40767.45
549.51	41235.56
549.68	41062.36
549.84	40744.05
550.01	41036.61
550.18	40741.71
550.34	41361.95
550.51	41172.36
550.68	41750.48
550.84	41336.20
551.01	41411.10
551.18	40830.65
551.34	41490.68
551.51	41401.74
551.68	41549.19
551.84	41273.01
552.01	41247.26
552.18	41638.13
552.34	41380.67
552.51	41474.29
552.68	41392.37
552.84	41624.09
553.01	41734.09
553.18	41659.20
553.34	41813.67
553.51	41663.88
553.67	41792.61
553.84	41916.65
554.01	41928.36
554.17	41750.48
554.34	42415.19
554.51	42017.30
554.67	42120.28
554.84	41961.12
555.00	41586.64
555.17	42314.55
555.33	42431.57
555.50	41883.89
555.67	42263.05
555.83	41771.54
556.00	42359.02
556.16	42586.05
556.33	42204.54
556.50	42356.67
556.66	42462.00
556.83	41951.76
556.99	42838.83
557.16	42918.40
557.32	43005.00
557.49	42522.85
557.65	42157.73
557.82	42492.43
557.98	42745.20
558.15	42543.92
558.32	42525.19
558.48	42895.00
558.65	42724.14
558.81	42749.88
558.98	42438.59
559.14	42326.25
559.31	42279.44
559.47	42810.74
559.64	43107.99
559.80	42792.01
559.97	43309.27
560.13	42773.29
560.30	42951.17
560.46	43353.74
560.63	42869.25
560.79	43351.40
560.96	42953.51
561.12	43529.28
561.29	42773.29
561.45	42918.40
561.61	43210.97
561.78	42801.38
561.94	42995.64
562.11	43349.06
562.27	43065.86
562.44	43718.87
562.60	43475.45
562.77	43559.71
562.93	43356.08
563.10	43386.51
563.26	42925.42
563.42	43489.49
563.59	43051.81
563.75	43009.68
563.92	43634.61
564.08	43475.45
564.24	43594.82
564.41	43166.50
564.57	43863.98
564.74	43456.73
564.90	43604.18
565.07	43267.14
565.23	43075.22
565.39	43302.25
565.56	43737.59
565.72	43548.01
565.88	43814.83
566.05	43573.75
566.21	43358.42
566.38	43594.82
566.54	43856.96
566.70	44044.20
566.87	43665.03
567.03	43772.70
567.19	43880.36
567.36	43447.36
567.52	44062.93
567.68	44189.31
567.85	44058.24
568.01	43962.28
568.17	43840.57
568.34	43838.23
568.50	44023.14
568.66	43777.38
568.83	43973.98
568.99	43910.79
569.15	43913.13
569.32	44140.16
569.48	44133.14
569.64	44205.70
569.81	44151.87
569.97	43821.85
570.13	44320.38
570.30	44161.23
570.46	43976.33
570.62	44598.91
570.78	43803.13
570.95	43796.10
571.11	44575.50
571.27	44095.69
571.43	43997.39
571.60	43868.66
571.76	44198.68
571.92	44261.87
572.09	43957.60
572.25	44142.50
572.41	44088.67
572.57	44212.72
572.74	44533.37
572.90	43985.69
573.06	44114.42
573.22	44404.64
573.38	44608.27
573.55	44119.10
573.71	44818.92
573.87	44231.44
574.03	44119.10
574.20	44533.37
574.36	44294.64
574.52	44140.16
574.68	44201.02
574.84	44570.82
575.01	44931.26
575.17	44357.83
575.33	44240.81
575.49	44069.95
575.65	44804.88
575.82	44568.48
575.98	44224.42
576.14	44933.60
576.30	44964.03
576.46	44893.82
576.62	44245.49
576.79	44619.97
576.95	44325.07
577.11	44332.09
577.27	44453.79
577.43	44154.21
577.59	44814.24
577.75	44516.99
577.92	44105.06
578.08	44556.78
578.24	44781.47
578.40	45113.83
578.56	44746.36
578.72	44479.54
578.88	44463.16
579.04	44708.91
579.21	44289.96
579.37	44804.88
579.53	45088.08
579.69	44404.64
579.85	44545.08
580.01	44685.51
580.17	44734.66
580.33	44959.35
580.49	44765.09
580.65	44516.99
580.82	44474.86
580.98	44701.89
581.14	44083.99
581.30	44657.42
581.46	44465.50
581.62	44130.80
581.78	44390.60
581.94	44907.86
582.10	44725.30
582.26	44758.06
582.42	44423.37
582.58	44839.98
582.74	44631.68
582.90	44308.68
583.06	44978.07
583.22	44545.08
583.38	44711.25
583.54	44790.83
583.70	44797.85
583.86	44832.96
584.02	44624.65
584.18	44854.03
584.34	44985.10
584.50	45132.55
584.66	44968.71
584.82	44945.31
584.98	45345.54
585.14	44928.92
585.30	44774.45
585.46	44727.64
585.62	44755.72
585.78	44610.61
585.94	44577.84
586.10	44919.56
586.26	44465.50
586.42	44725.30
586.58	44919.56
586.74	44800.19
586.90	44907.86
587.06	44584.86
587.22	45162.98
587.38	44617.63
587.54	45277.66
587.70	44903.18
587.86	45139.57
588.02	44959.35
588.18	45022.54
588.34	45319.79
588.49	44900.84
588.65	44608.27
588.81	44926.58
588.97	44870.41
589.13	45118.51
589.29	44907.86
589.45	45525.76
589.61	45385.33
589.77	45071.70
589.93	44966.37
590.08	45301.07
590.24	45551.51
590.40	45287.03
590.56	45354.90
590.72	45331.50
590.88	45081.06
591.04	45099.78
591.20	45691.94
591.35	45132.55
591.51	45572.57
591.67	45439.16
591.83	45338.52
591.99	45298.73
592.15	45446.18
592.31	45069.36
592.46	45427.46
592.62	45366.60
592.78	45507.04
592.94	45801.94
593.10	45705.98
593.26	45443.84
593.41	45542.14
593.57	45691.94
593.73	45958.76
593.89	45560.87
594.05	45338.52
594.20	45633.42
594.36	45827.69
594.52	45890.88
594.68	45413.41
594.84	45347.88
594.99	45724.71
595.15	45256.60
595.31	46052.38
595.47	45340.86
595.62	45722.37
595.78	45352.56
595.94	45846.41
596.10	45450.86
596.25	45734.07
596.41	45537.46
596.57	45408.73
596.73	45574.91
596.88	45209.79
597.04	45680.24
597.20	45713.00
597.36	45544.48
597.51	45621.72
597.67	45272.98
597.83	45579.59
597.99	45565.55
598.14	45516.40
598.30	45415.76
598.46	45565.55
598.61	45834.71
598.77	45490.65
598.93	46066.42
599.09	45280.00
599.24	46344.95
599.40	45530.44
599.56	45546.82
599.71	46202.18
599.87	46267.71
600.03	45752.79
600.18	46026.63
600.34	46036.00
600.50	45748.11
600.65	45359.58
600.81	46010.25
600.97	45713.00
601.12	45560.87
601.28	45607.68
601.44	45841.73
601.59	45853.44
601.75	45713.00
601.91	45834.71
602.06	45815.99
602.22	45528.10
602.37	45588.95
602.53	45755.13
602.69	45804.28
602.84	45801.94
603.00	45523.42
603.16	45801.94
603.31	45558.53
603.47	45937.69
603.62	45839.39
603.78	45691.94
603.94	45989.19
604.09	45904.93
604.25	45305.75
604.40	45668.53
604.56	45705.98
604.71	46141.32
604.87	45471.93
605.03	45595.98
605.18	45628.74
605.34	45661.51
605.49	45228.51
605.65	45294.05
605.80	45755.13
605.96	45574.91
606.12	45862.80
606.27	45771.52
606.43	45837.05
606.58	45698.96
606.74	45535.12
606.89	45450.86
607.05	45923.65
607.20	45832.37
607.36	45881.52
607.51	45942.38
607.67	45209.79
607.82	45710.66
607.98	45654.49
608.13	45394.69
608.29	45413.41
608.44	45914.29
608.60	45467.25
608.75	45694.28
608.91	45523.42
609.06	45078.72
609.22	45495.33
609.37	44987.44
609.53	45495.33
609.68	45207.45
609.84	45141.91
609.99	45572.57
610.15	45429.80
610.30	45621.72
610.46	44947.65
610.61	45565.55
610.76	45347.88
610.92	44985.10
611.07	45153.62
611.23	45097.44
611.38	44790.83
611.54	45411.07
611.69	45532.78
611.84	45443.84
612.00	45188.72
612.15	45102.12
612.31	45277.66
612.46	44575.50
612.62	45212.13
612.77	44615.29
612.92	45244.90
613.08	45310.43
613.23	45282.34
613.39	45062.33
613.54	44807.22
613.69	45394.69
613.85	45160.64
614.00	45359.58
614.15	45368.94
614.31	44931.26
614.46	44725.30
614.62	44669.12
614.77	44797.85
614.92	44868.07
615.08	44947.65
615.23	45315.11
615.38	45380.65
615.54	45041.27
615.69	44907.86
615.84	44964.03
616.00	44912.54
616.15	44495.92
616.30	45319.79
616.46	44818.92
616.61	44753.38
616.76	45015.52
616.92	44575.50
617.07	44636.36
617.22	44587.21
617.37	44713.59
617.53	44626.99
617.68	44685.51
617.83	44514.65
617.99	45113.83
618.14	45003.82
618.29	44285.28
618.45	44189.31
618.60	44320.38
618.75	44402.30
618.90	44683.17
619.06	44376.56
619.21	44947.65
619.36	45081.06
619.51	44184.63
619.67	44296.98
619.82	44671.46
619.97	44524.01
620.12	44622.31
620.28	44051.22
620.43	44376.56
620.58	43959.94
620.73	44524.01
620.89	44793.17
621.04	44287.62
621.19	44013.77
621.34	44282.94
621.49	44037.18
621.65	43894.41
621.80	44769.77
621.95	43985.69
622.10	44231.44
622.25	43887.39
622.41	44107.40
622.56	43842.92
622.71	43955.26
622.86	43796.10
623.01	44175.27
623.16	43882.70
623.32	43798.44
623.47	44184.63
623.62	43770.36
623.77	43896.75
623.92	44128.46
624.07	43924.83
624.23	44135.48
624.38	43990.37
624.53	44039.52
624.68	43920.15
624.83	43613.54
624.98	43749.29
625.13	43590.14
625.29	43943.56
625.44	43981.01
625.59	43667.37
625.74	43522.26
625.89	43002.66
626.04	43335.02
626.19	43313.95
626.34	43646.31
626.49	43253.10
626.65	43164.16
626.80	43517.58
626.95	43250.76
627.10	43075.22
627.25	43576.09
627.40	43047.13
627.55	43161.82
627.70	42918.40
627.85	43749.29
628.00	43599.50
628.15	43299.91
628.30	42593.07
628.45	42691.37
628.60	42752.23
628.76	43000.32
628.91	42986.28
629.06	42749.88
629.21	43145.44
629.36	42232.63
629.51	42583.71
629.66	42799.04
629.81	42663.28
629.96	43016.71
630.11	42862.23
630.26	42649.24
630.41	42469.02
630.56	42707.76
630.71	42864.57
630.86	42721.80
631.01	42684.35
631.16	42714.78
631.31	42768.61
631.46	42433.91
631.61	43117.35
631.76	42878.61
631.91	42773.29
632.06	43077.56
632.21	42845.85
632.36	42948.83
632.51	42293.48
632.66	42618.81
632.81	42534.56
632.96	42391.78
633.10	42277.10
633.25	42579.03
633.40	42541.58
633.55	42611.79
633.70	42316.89
633.85	42225.60
634.00	41811.33
634.15	42017.30
634.30	41584.30
634.45	42047.72
634.60	41963.46
634.75	42284.12
634.90	42412.85
635.05	42356.67
635.19	41895.59
635.34	42185.82
635.49	41706.01
635.64	41804.31
635.79	42085.17
635.94	42012.62
636.09	41986.87
636.24	41390.03
636.39	41804.31
636.53	42136.66
636.68	41605.36
636.83	41729.41
636.98	41298.75
637.13	41558.55
637.28	42068.79
637.43	41890.91
637.57	42092.19
637.72	41207.47
637.87	41691.96
638.02	41514.08
638.17	41621.75
638.32	41996.23
638.46	41127.89
638.61	41745.80
638.76	41214.49
638.91	41404.08
639.06	41027.25
639.20	41230.88
639.35	40914.90
639.50	40959.38
639.65	41291.73
639.80	41226.20
639.94	41900.27
640.09	41273.01
640.24	41270.67
640.39	41181.73
640.54	41017.89
640.68	41076.40
640.83	40921.93
640.98	41076.40
641.13	40526.38
641.27	41193.43
641.42	40975.76
641.57	41106.83
641.72	41104.49
641.86	40950.01
642.01	40790.86
642.16	40678.51
642.31	40491.27
642.45	40477.22
642.60	40863.41
642.75	40362.54
642.90	40783.83
643.04	40559.14
643.19	40449.14
643.34	40297.00
643.48	40240.83
643.63	40711.28
643.78	40645.74
643.93	40727.66
644.07	40622.34
644.22	40730.00
644.37	40676.17
644.51	40397.65
644.66	40507.65
644.81	40676.17
644.95	40500.63
645.10	40627.02
645.25	40318.07
645.39	40168.27
645.54	40147.21
645.69	39910.82
645.83	40128.48
645.98	40458.50
646.13	40540.42
646.27	39777.40
646.42	39775.06
646.57	39934.22
646.71	40322.75
646.86	40519.35
647.00	40273.60
647.15	40025.50
647.30	39723.57
647.44	39945.92
647.59	39856.98
647.74	40107.42
647.88	39835.92
648.03	40140.19
648.17	40067.63
648.32	39854.64
648.47	40226.79
648.61	39541.01
648.76	39789.11
648.90	39964.65
649.05	39627.61
649.20	39524.63
649.34	39646.33
649.49	39988.05
649.63	40203.38
649.78	39697.83
649.92	39655.70
650.07	40512.33
650.21	40034.86
650.36	40238.49
650.51	39791.45
650.65	39992.73
650.80	39784.43
650.94	39854.64
651.09	39824.22
651.23	39648.68
651.38	39613.57
651.52	38925.45
651.67	39519.95
651.81	39438.03
651.96	39108.01
652.10	39260.15
652.25	39112.69
652.39	39346.75
652.54	38930.13
652.68	39157.16
652.83	39201.63
652.97	39629.95
653.12	39033.11
653.26	39030.77
653.41	39210.99
653.55	38892.68
653.70	39138.44
653.84	39543.35
653.99	39398.24
654.13	39199.29
654.27	38986.30
654.42	39264.83
654.56	38721.82
654.71	39234.40
654.85	39119.71
655.00	39304.62
655.14	38948.85
655.29	39395.90
655.43	39140.78
655.57	38785.02
655.72	38611.82
655.86	38951.20
656.01	38485.43
656.15	38438.62
656.30	38440.96
656.44	38560.33
656.58	38955.88
656.73	38466.70
656.87	38237.33
657.01	38347.34
657.16	38712.46
657.30	37858.17
657.45	38623.52
657.59	38075.84
657.73	37951.79
657.88	38216.27
658.02	38494.79
658.16	38855.23
658.31	38263.08
658.45	38342.66
658.60	38394.15
658.74	38366.06
658.88	38293.50
659.03	37928.38
659.17	37937.74
659.31	37848.80
659.46	37715.39
659.60	38433.94
659.74	37642.84
659.89	37684.97
660.03	37834.76
660.17	37684.97
660.32	37532.83
660.46	37787.95
660.60	36952.38
660.74	37488.36
660.89	37764.54
661.03	37055.36
661.17	37202.82
661.32	37041.32
661.46	37273.03
661.60	37614.75
661.74	37127.92
661.89	37081.11
662.03	37628.79
662.17	37036.64
662.31	36985.15
662.46	36877.48
662.60	36629.38
662.74	36451.50
662.88	36439.80
663.03	36318.09
663.17	36655.13
663.31	36552.15
663.45	36610.66
663.60	36598.96
663.74	36921.95
663.88	36690.24
664.02	36573.21
664.17	37060.04
664.31	36208.09
664.45	35995.10
664.59	36091.06
664.73	36250.22
664.88	36037.23
665.02	35938.93
665.16	35739.98
665.30	35786.79
665.44	36177.66
665.59	35606.57
665.73	35667.42
665.87	35119.74
666.01	35871.05
666.15	35419.33
666.29	35557.42
666.44	35695.51
666.58	35501.25
666.72	35360.81
666.86	35330.39
667.00	35332.73
667.14	35576.14
667.28	35030.80
667.43	35012.07
667.57	35325.71
667.71	35117.40
667.85	35145.48
667.99	35372.52
668.13	34649.29
668.27	34391.83
668.41	34693.76
668.56	34405.88
668.70	34389.49
668.84	34656.31
668.98	34361.40
669.12	34106.29
669.26	34316.93
669.40	34572.05
669.54	34653.97
669.68	34354.38
669.82	33930.75
669.96	33397.10
670.10	33605.41
670.25	33565.62
670.39	33638.18
670.53	34015.01
670.67	33734.14
670.81	34216.29
670.95	33809.04
671.09	34017.35
671.23	33748.18
671.37	33509.45
671.51	33514.13
671.65	33401.79
671.79	33369.02
671.93	33497.75
672.07	33294.12
672.21	33301.14
672.35	32760.48
672.49	33207.52
672.63	32950.06
672.77	32716.01
672.91	32720.69
673.05	32758.14
673.19	32568.55
673.33	32547.49
673.47	32416.42
673.61	32416.42
673.75	32175.34
673.89	32318.12
674.03	32135.56
674.17	32229.18
674.31	32051.30
674.45	31810.22
674.59	31948.31
674.73	31541.06
674.87	31655.75
675.01	31747.03
675.15	31606.59
675.29	31428.71
675.43	30876.35
675.56	31332.75
675.70	31370.20
675.84	30986.35
675.98	30256.11
676.12	30948.90
676.26	31164.23
676.40	30822.51
676.54	30553.35
676.68	30422.28
676.82	29977.58
676.96	30661.02
677.10	30572.08
677.23	30412.92
677.37	30522.93
677.51	30103.97
677.65	30473.78
677.79	30155.46
677.93	29942.47
678.07	30026.73
678.21	29362.02
678.34	29434.58
678.48	29621.82
678.62	29237.97
678.76	29355.00
678.90	29120.95
679.04	29439.26
679.18	28987.53
679.31	29102.22
679.45	28725.39
679.59	28687.95
679.73	28664.54
679.87	28589.64
680.00	28334.53
680.14	28301.76
680.28	28264.31
680.42	28334.53
680.56	28170.69
680.70	27953.02
680.83	27360.86
680.97	27496.61
681.11	27805.56
681.25	27524.70
681.39	27520.02
681.52	27934.29
681.66	27278.94
681.80	26895.10
681.94	26717.22
682.07	27044.89
682.21	27154.90
682.35	27208.73
682.49	26749.98
682.62	26941.91
682.76	27103.40
682.90	26347.41
683.04	26602.53
683.17	26422.31
683.31	26398.90
683.45	26169.53
683.59	26075.91
683.72	26040.80
683.86	25675.68
684.00	25769.30
684.13	25518.86
684.27	25390.13
684.41	25692.06
684.55	25654.61
684.68	25572.69
684.82	25209.91
684.96	24938.41
685.09	24933.73
685.23	25088.20
685.37	25504.82
685.50	25366.73
685.64	24987.56
685.78	24985.22
685.91	24641.16
686.05	24418.81
686.19	23976.45
686.32	24526.47
686.46	23915.59
686.60	24006.87
686.73	23864.10
686.87	23981.13
687.01	24334.55
687.14	24109.86
687.28	23868.78
687.42	23789.20
687.55	23644.09
687.69	23388.97
687.82	23264.92
687.96	23419.40
688.10	23435.78
688.23	23351.52
688.37	23367.91
688.50	22955.97
688.64	23005.13
688.78	22799.16
688.91	22808.52
689.05	22824.90
689.18	22712.56
689.32	22185.94
689.46	21752.94
689.59	21797.41
689.73	22525.32
689.86	22309.99
690.00	22288.92
690.13	22164.87
690.27	21701.45
690.41	22122.74
690.54	21626.55
690.68	21537.61
690.81	21497.82
690.95	21617.19
691.08	21607.83
691.22	21212.28
691.35	21186.53
691.49	21291.85
691.62	21341.00
691.76	20702.04
691.89	20688.00
692.03	20620.12
692.16	20322.87
692.30	20807.36
692.43	20603.74
692.57	20063.07
692.70	20049.03
692.84	20109.88
692.97	19957.75
693.11	19763.48
693.24	19768.16
693.38	19648.80
693.51	19559.86
693.65	19550.49
693.78	19880.51
693.92	19300.06
694.05	19494.32
694.19	19321.12
694.32	19274.31
694.45	19564.54
694.59	19484.96
694.72	19220.48
694.86	19119.84
694.99	18869.40
695.13	18518.32
695.26	18637.69
695.39	18635.35
695.53	18455.12
695.66	18705.56
695.80	18270.22
695.93	18555.77
696.07	18188.30
696.20	17844.24
696.33	17767.01
696.47	17558.70
696.60	17848.93
696.73	17844.24
696.87	17891.06
697.00	17788.07
697.14	17614.87
697.27	17364.43
697.40	17188.89
697.54	17303.58
697.67	16985.27
697.80	17305.92
697.94	17235.70
698.07	17041.44
698.21	17046.12
698.34	16755.90
698.47	16442.26
698.61	16489.07
698.74	16327.58
698.87	16285.45
699.01	16147.36
699.14	16507.80
699.27	16320.56
699.40	16159.06
699.54	15875.85
699.67	15936.71
699.80	16042.03
699.94	16081.82
700.07	16194.17
700.20	15812.66
700.34	15566.90
700.47	15559.88
700.60	15667.55
700.73	15583.29
700.87	15405.41
701.00	15239.23
701.13	15164.33
701.26	14970.07
701.40	14829.63
701.53	15021.56
701.66	14932.62
701.79	14871.76
701.93	14630.69
702.06	14663.46
702.19	14583.88
702.32	14698.56
702.46	14569.83
702.59	14626.01
702.72	14345.14
702.85	14417.70
702.99	14134.50
703.12	14223.44
703.25	14340.46
703.38	13970.66
703.51	14127.47
703.65	13741.29
703.78	13682.77
703.91	13832.57
704.04	13544.68
704.17	13200.62
704.31	13366.80
704.44	13207.64
704.57	13570.43
704.70	13090.62
704.83	13235.73
704.96	13233.39
705.10	13050.83
705.23	13167.85
>>>>>End Processed Spectral Data<<<<<
