SpectraSuite Data File
++++++++++++++++++++++++++++++++++++
Date: Fri Oct 25 11:34:23 EDT 2013
User: price-jones
Dark Spectrum Present: No
Reference Spectrum Present: No
Number of Sampled Component Spectra: 1
Spectrometers: USB2+H05261
Integration Time (usec): 100000 (USB2+H05261)
Spectra Averaged: 1 (USB2+H05261)
Boxcar Smoothing: 0 (USB2+H05261)
Correct for Electrical Dark: No (USB2+H05261)
Strobe/Lamp Enabled: No (USB2+H05261)
Correct for Detector Non-linearity: No (USB2+H05261)
Correct for Stray Light: No (USB2+H05261)
Number of Pixels in Processed Spectrum: 2048
>>>>>Begin Processed Spectral Data<<<<<
365.73	304.27
365.92	304.27
366.12	304.27
366.32	222.35
366.52	189.58
366.72	259.80
366.91	147.45
367.11	255.12
367.31	180.22
367.51	187.24
367.70	194.26
367.90	184.90
368.10	166.18
368.30	133.41
368.49	163.84
368.69	231.71
368.89	147.45
369.09	140.43
369.28	252.78
369.48	168.52
369.68	215.33
369.87	222.35
370.07	283.20
370.27	290.23
370.47	252.78
370.66	440.02
370.86	526.62
371.06	587.47
371.25	589.82
371.45	533.64
371.65	510.24
371.84	557.05
372.04	578.11
372.24	580.45
372.44	554.71
372.63	589.82
372.83	606.20
373.03	552.37
373.22	657.69
373.42	596.84
373.62	592.16
373.81	662.37
374.01	617.90
374.21	587.47
374.40	620.24
374.60	664.71
374.79	582.79
374.99	603.86
375.19	681.10
375.38	676.41
375.58	713.86
375.78	645.99
375.97	683.44
376.17	669.39
376.37	615.56
376.56	645.99
376.76	662.37
376.95	660.03
377.15	653.01
377.35	622.58
377.54	699.82
377.74	685.78
377.93	732.59
378.13	631.94
378.33	704.50
378.52	702.16
378.72	788.76
378.91	664.71
379.11	753.65
379.31	713.86
379.50	798.12
379.70	763.01
379.89	730.25
380.09	706.84
380.28	671.73
380.48	636.63
380.68	648.33
380.87	716.20
381.07	739.61
381.26	772.38
381.46	711.52
381.65	650.67
381.85	812.17
382.04	763.01
382.24	802.80
382.43	758.33
382.63	720.88
382.83	681.10
383.02	802.80
383.22	823.87
383.41	751.31
383.61	732.59
383.80	753.65
384.00	901.11
384.19	760.67
384.39	830.89
384.58	816.85
384.78	753.65
384.97	837.91
385.17	807.48
385.36	847.27
385.56	840.25
385.75	851.96
385.95	903.45
386.14	793.44
386.34	812.17
386.53	917.49
386.72	837.91
386.92	828.55
387.11	753.65
387.31	830.89
387.50	788.76
387.70	805.14
387.89	858.98
388.09	835.57
388.28	858.98
388.48	866.00
388.67	912.81
388.86	908.13
389.06	922.17
389.25	875.36
389.45	877.70
389.64	880.04
389.84	887.06
390.03	931.53
390.22	1004.09
390.42	978.34
390.61	973.66
390.81	936.21
391.00	985.37
391.19	898.77
391.39	1015.79
391.58	947.92
391.78	980.68
391.97	1011.11
392.16	933.87
392.36	1071.97
392.55	1039.20
392.75	1036.86
392.94	1097.71
393.13	1078.99
393.33	978.34
393.52	1114.10
393.71	1137.50
393.91	985.37
394.10	1050.90
394.29	1102.39
394.49	1107.07
394.68	1111.75
394.88	1039.20
395.07	1104.73
395.26	1123.46
395.46	1097.71
395.65	1137.50
395.84	1167.93
396.04	1153.88
396.23	1153.88
396.42	1174.95
396.62	1256.87
396.81	1212.40
397.00	1142.18
397.19	1191.33
397.39	1158.57
397.58	1174.95
397.77	1203.04
397.97	1228.78
398.16	1200.69
398.35	1343.47
398.55	1282.61
398.74	1226.44
398.93	1418.36
399.12	1238.14
399.32	1324.74
399.51	1261.55
399.70	1303.68
399.90	1313.04
400.09	1355.17
400.28	1296.66
400.47	1334.11
400.67	1373.89
400.86	1306.02
401.05	1378.58
401.24	1371.55
401.44	1364.53
401.63	1355.17
401.82	1423.05
402.01	1423.05
402.21	1416.02
402.40	1418.36
402.59	1425.39
402.78	1465.18
402.97	1502.62
403.17	1516.67
403.36	1483.90
403.55	1626.67
403.74	1556.46
403.93	1537.73
404.13	1624.33
404.32	1591.56
404.51	1575.18
404.70	1582.20
404.89	1528.37
405.09	1708.59
405.28	1661.78
405.47	1577.52
405.66	1629.01
405.85	1771.79
406.05	1673.48
406.24	1682.85
406.43	1673.48
406.62	1694.55
406.81	1900.52
407.00	1729.66
407.20	1830.30
407.39	1732.00
407.58	1820.94
407.77	1863.07
407.96	1816.26
408.15	1788.17
408.34	1818.60
408.54	1856.04
408.73	1900.52
408.92	1940.30
409.11	1980.09
409.30	1902.86
409.49	1987.11
409.68	1959.03
409.87	1970.73
410.07	1919.24
410.26	1905.20
410.45	1888.81
410.64	1919.24
410.83	1994.14
411.02	2148.61
411.21	2141.59
411.40	2174.36
411.59	2071.37
411.78	2186.06
411.98	2033.93
412.17	2017.54
412.36	2174.36
412.55	2195.42
412.74	2420.11
412.93	2207.13
413.12	2251.60
413.31	2338.20
413.50	2270.32
413.69	2183.72
413.88	2410.75
414.07	2246.91
414.26	2354.58
414.45	2497.35
414.64	2408.41
414.83	2487.99
415.02	2530.12
415.22	2581.61
415.41	2581.61
415.60	2576.93
415.79	2651.83
415.98	2605.02
416.17	2665.87
416.36	2607.36
416.55	2630.76
416.74	2686.94
416.93	2649.49
417.12	2733.75
417.31	2658.85
417.50	2857.79
417.69	2881.20
417.88	2881.20
418.07	2745.45
418.26	2930.35
418.45	2846.09
418.64	2963.12
418.83	3000.57
419.02	3009.93
419.21	3047.38
419.39	3045.04
419.58	2958.44
419.77	2862.48
419.96	3119.93
420.15	3091.85
420.34	3023.97
420.53	3089.51
420.72	3131.64
420.91	3227.60
421.10	3073.12
421.29	3208.87
421.48	3108.23
421.67	3229.94
421.86	3171.43
422.05	3187.81
422.24	3192.49
422.43	3241.64
422.61	3232.28
422.80	3339.94
422.99	3236.96
423.18	3407.82
423.37	3426.54
423.56	3267.39
423.75	3290.79
423.94	3201.85
424.13	3171.43
424.32	3229.94
424.50	3288.45
424.69	3356.33
424.88	3351.65
425.07	3454.63
425.26	3262.71
425.45	3344.63
425.64	3204.19
425.83	3363.35
426.01	3339.94
426.20	3503.78
426.39	3419.52
426.58	3494.42
426.77	3309.52
426.96	3461.65
427.15	3473.36
427.33	3421.86
427.52	3382.07
427.71	3515.48
427.90	3524.85
428.09	3543.57
428.28	3489.74
428.46	3564.64
428.65	3557.61
428.84	3639.53
429.03	3700.39
429.22	3466.33
429.40	3559.95
429.59	3623.15
429.78	3510.80
429.97	3672.30
430.16	3653.58
430.34	3700.39
430.53	3609.11
430.72	3723.79
430.91	3784.65
431.10	3686.34
431.28	3826.78
431.47	3866.56
431.66	3836.14
431.85	3686.34
432.03	3861.88
432.22	4035.08
432.41	3964.87
432.60	3932.10
432.79	3943.80
432.97	3894.65
433.16	4135.73
433.35	4070.19
433.54	4147.43
433.72	4007.00
433.91	4152.11
434.10	4046.79
434.28	4131.05
434.47	4014.02
434.66	4170.83
434.85	4009.34
435.03	4133.39
435.22	4039.76
435.41	4255.09
435.59	4278.50
435.78	4187.22
435.97	4205.94
436.16	4175.52
436.34	4322.97
436.53	4348.72
436.72	4154.45
436.90	4217.65
437.09	4198.92
437.28	4205.94
437.46	4252.75
437.65	4238.71
437.84	4334.67
438.02	4355.74
438.21	4554.68
438.40	4430.63
438.58	4685.75
438.77	4601.49
438.96	4557.02
439.14	4688.09
439.33	4821.50
439.52	4765.33
439.70	4837.89
439.89	4931.51
440.08	4779.37
440.26	4802.78
440.45	4861.29
440.63	4858.95
440.82	4959.60
441.01	4987.68
441.19	4990.02
441.38	5020.45
441.57	5123.43
441.75	5109.39
441.94	5184.29
442.12	5235.78
442.31	5350.46
442.50	5252.16
442.68	5245.14
442.87	5327.06
443.05	5298.97
443.24	5373.87
443.43	5500.26
443.61	5184.29
443.80	5537.71
443.98	5301.31
444.17	5238.12
444.35	5437.06
444.54	5474.51
444.73	5401.96
444.91	5451.11
445.10	5497.92
445.28	5518.98
445.47	5446.43
445.65	5373.87
445.84	5479.19
446.02	5584.52
446.21	5343.44
446.39	5453.45
446.58	5528.35
446.77	5528.35
446.95	5413.66
447.14	5596.22
447.32	5664.10
447.51	5535.37
447.69	5556.43
447.88	5542.39
448.06	5570.48
448.25	5722.61
448.43	5685.16
448.62	5675.80
448.80	5528.35
448.99	5544.73
449.17	5806.87
449.36	5675.80
449.54	5858.36
449.73	5947.30
449.91	5764.74
450.10	5760.06
450.28	5923.90
450.46	5909.85
450.65	5788.14
450.83	5802.19
451.02	5867.72
451.20	6022.20
451.39	5928.58
451.57	5980.07
451.76	6054.97
451.94	6015.18
452.13	6033.90
452.31	6136.88
452.49	6003.47
452.68	6113.48
452.86	6179.01
453.05	6179.01
453.23	6274.98
453.42	6036.24
453.60	6083.05
453.78	6305.40
453.97	6005.81
454.15	6157.95
454.34	6022.20
454.52	6214.12
454.70	6349.87
454.89	6235.19
455.07	6345.19
455.26	6422.43
455.44	6553.50
455.62	6408.39
455.81	6525.41
455.99	6541.80
456.17	6445.84
456.36	6436.47
456.54	6630.74
456.73	6715.00
456.91	6696.27
457.09	6731.38
457.28	6724.36
457.46	6794.58
457.64	6888.20
457.83	6736.06
458.01	6628.40
458.19	6864.79
458.38	6853.09
458.56	6829.68
458.74	6719.68
458.93	6883.52
459.11	6979.48
459.29	6970.12
459.48	7084.80
459.66	6956.07
459.84	7215.87
460.03	7218.21
460.21	7119.91
460.39	7215.87
460.57	7124.59
460.76	7194.81
460.94	7281.41
461.12	7393.75
461.31	7087.14
461.49	7281.41
461.67	7052.03
461.85	7234.60
462.04	7318.86
462.22	7779.94
462.40	7513.12
462.59	7377.37
462.77	7602.06
462.95	7473.33
463.13	7501.42
463.32	7555.25
463.50	7779.94
463.68	7674.62
463.86	7620.78
464.05	7576.31
464.23	7777.60
464.41	7815.05
464.59	7463.97
464.78	7744.83
464.96	7669.94
465.14	7606.74
465.32	7779.94
465.50	7885.26
465.69	7922.71
465.87	7646.53
466.05	7838.45
466.23	7850.16
466.41	7859.52
466.60	8049.10
466.78	7887.61
466.96	7941.44
467.14	7990.59
467.32	8112.30
467.51	7962.50
467.69	7695.68
467.87	7896.97
468.05	8243.37
468.23	8070.17
468.41	7826.75
468.60	8215.28
468.78	8362.73
468.96	8051.44
469.14	8311.24
469.32	8219.96
469.50	8100.59
469.69	8402.52
469.87	8446.99
470.05	8318.26
470.23	8449.33
470.41	8379.12
470.59	8676.37
470.77	8489.12
470.95	8526.57
471.14	8697.43
471.32	8470.40
471.50	8730.20
471.68	8676.37
471.86	8821.48
472.04	8685.73
472.22	8877.65
472.40	8919.78
472.58	8805.10
472.77	9144.47
472.95	9020.42
473.13	9516.62
473.31	8910.42
473.49	9020.42
473.67	9076.60
473.85	9116.39
474.03	9280.22
474.21	9481.51
474.39	9455.76
474.57	9423.00
474.75	9352.78
474.93	9525.98
475.12	9427.68
475.30	9788.12
475.48	9518.96
475.66	9872.38
475.84	9881.74
476.02	9713.22
476.20	10010.47
476.38	9975.36
476.56	10188.35
476.74	10221.12
476.92	10202.40
477.10	10244.52
477.28	10387.30
477.46	10387.30
477.64	10434.11
477.82	10822.64
478.00	10885.83
478.18	10616.67
478.36	10794.55
478.54	10918.60
478.72	11044.99
478.90	11002.86
479.08	11213.51
479.26	11147.97
479.44	11063.71
479.62	11213.51
479.80	11587.99
479.98	11421.81
480.16	11868.86
480.34	11632.46
480.52	11716.72
480.70	11845.45
480.88	11812.68
481.06	11920.35
481.24	11927.37
481.41	11990.56
481.59	12355.69
481.77	12212.92
481.95	12386.12
482.13	12432.93
482.31	12430.59
482.49	12765.28
482.67	13006.36
482.85	12734.85
483.03	13231.05
483.21	13088.28
483.39	13064.87
483.57	13317.65
483.74	13540.00
483.92	13308.29
484.10	13420.63
484.28	13647.66
484.46	14080.66
484.64	14171.94
484.82	14111.09
485.00	14211.73
485.18	14345.14
485.35	14494.94
485.53	14420.04
485.71	14375.57
485.89	14705.59
486.07	14869.42
486.25	14850.70
486.43	15051.99
486.61	14930.28
486.78	15026.24
486.96	15192.42
487.14	15255.61
487.32	15384.34
487.50	15545.84
487.68	15836.06
487.85	15896.92
488.03	16084.16
488.21	16259.70
488.39	16233.96
488.57	16507.80
488.75	16592.06
488.92	16503.12
489.10	16812.07
489.28	16802.71
489.46	16987.61
489.64	16732.49
489.81	17418.27
489.99	17462.74
490.17	17399.54
490.35	18150.85
490.53	17586.79
490.70	18209.37
490.88	17830.20
491.06	17954.25
491.24	18288.95
491.41	18314.69
491.59	18225.75
491.77	18382.57
491.95	18705.56
492.13	18621.30
492.30	19117.50
492.48	18838.97
492.66	19000.47
492.84	19157.28
493.01	19798.59
493.19	19278.99
493.37	19363.25
493.54	19330.48
493.72	19611.35
493.90	19814.98
494.08	19864.13
494.25	20182.44
494.43	20692.68
494.61	20292.44
494.79	20505.43
494.96	20023.28
495.14	20336.91
495.32	20690.34
495.49	20910.35
495.67	20929.07
495.85	21116.31
496.02	21078.86
496.20	21231.00
496.38	21575.06
496.55	21568.04
496.73	22052.53
496.91	21830.18
497.09	22087.64
497.26	21986.99
497.44	21689.74
497.62	21846.56
497.79	22347.44
497.97	22207.00
498.14	22600.21
498.32	22569.79
498.50	22803.84
498.67	22745.33
498.85	22930.23
499.03	23520.04
499.20	23222.80
499.38	23180.67
499.56	23562.17
499.73	23461.53
499.91	23833.68
500.08	23920.28
500.26	23536.43
500.44	23618.35
500.61	23814.95
500.79	23510.68
500.97	24077.09
501.14	24245.61
501.32	24528.81
501.49	24451.58
501.67	24215.18
501.84	24615.41
502.02	24313.48
502.20	24678.61
502.37	24868.19
502.55	24664.57
502.72	24535.84
502.90	25120.97
503.07	25034.37
503.25	25298.85
503.43	24730.10
503.60	25282.47
503.78	25188.85
503.95	25291.83
504.13	25621.84
504.30	25710.78
504.48	25930.80
504.65	25886.32
504.83	25888.67
505.01	26031.44
505.18	26370.82
505.36	26258.47
505.53	26169.53
505.71	26169.53
505.88	26396.56
506.06	26331.03
506.23	26759.34
506.41	26286.56
506.58	26822.54
506.76	26810.84
506.93	26562.74
507.11	26789.77
507.28	26911.48
507.46	27105.74
507.63	27356.18
507.81	27049.57
507.98	27290.65
508.16	27117.45
508.33	27199.37
508.50	27866.42
508.68	27718.96
508.85	27861.74
509.03	27763.43
509.20	27983.44
509.38	28430.49
509.55	27948.34
509.73	28313.46
509.90	28388.36
510.08	28250.27
510.25	28472.62
510.42	28116.86
510.60	28587.30
510.77	28856.46
510.95	28868.17
511.12	28697.31
511.30	28589.64
511.47	28788.59
511.64	28856.46
511.82	28971.15
511.99	28926.68
512.17	29308.19
512.34	28882.21
512.51	29357.34
512.69	29727.14
512.86	29762.25
513.04	29799.70
513.21	29563.31
513.38	30008.01
513.56	29841.83
513.73	29687.36
513.90	29993.97
514.08	29912.05
514.25	30291.21
514.43	30506.54
514.60	30541.65
514.77	30103.97
514.95	30295.89
515.12	30574.42
515.29	30508.88
515.47	30731.23
515.64	30829.54
515.81	30429.30
515.99	30937.20
516.16	31159.55
516.33	31302.32
516.51	31204.02
516.68	30969.97
516.85	31147.85
517.03	31391.26
517.20	31307.01
517.37	31061.25
517.54	31665.11
517.72	31936.61
517.89	31747.03
518.06	31388.92
518.24	31667.45
518.41	31840.65
518.58	31995.12
518.75	31386.58
518.93	32121.51
519.10	31782.13
519.27	32264.28
519.45	32297.05
519.62	32388.33
519.79	32524.08
519.96	32334.50
520.14	32641.11
520.31	32407.06
520.48	32510.04
520.65	32638.77
520.83	32582.60
521.00	33188.80
521.17	33207.52
521.34	33102.20
521.52	33333.91
521.69	33181.77
521.86	33230.93
522.03	33338.59
522.20	33677.97
522.38	33654.56
522.55	34000.96
522.72	33787.97
522.89	33734.14
523.07	34263.10
523.24	33694.35
523.41	34148.42
523.58	33949.47
523.75	34108.63
523.92	33785.63
524.10	34230.33
524.27	34483.11
524.44	33991.60
524.61	34291.19
524.78	34466.73
524.96	34480.77
525.13	34499.50
525.30	35021.44
525.47	34806.11
525.64	34895.05
525.81	34916.11
525.98	34677.38
526.16	35098.67
526.33	35061.22
526.50	35346.77
526.67	34672.70
526.84	35021.44
527.01	35232.08
527.18	34995.69
527.36	35019.10
527.53	35065.91
527.70	35477.84
527.87	35868.71
528.04	35314.00
528.21	35725.94
528.38	35431.03
528.55	35611.25
528.72	35428.69
528.89	35917.86
529.07	35667.42
529.24	35749.34
529.41	36158.94
529.58	35707.21
529.75	36055.95
529.92	36140.21
530.09	36252.56
530.26	36231.49
530.43	36472.57
530.60	36205.75
530.77	36261.92
530.94	36268.94
531.11	36463.21
531.28	36371.92
531.46	36449.16
531.63	36662.15
531.80	36687.90
531.97	37069.40
532.14	36755.77
532.31	36931.31
532.48	37148.98
532.65	37195.79
532.82	36840.03
532.99	37186.43
533.16	37390.06
533.33	37701.35
533.50	37095.15
533.67	37088.13
533.84	37050.68
534.01	37556.24
534.18	37053.02
534.35	38000.94
534.52	37883.91
534.69	38143.71
534.86	37565.60
535.03	37467.30
535.20	37965.83
535.37	37551.56
535.54	37816.04
535.71	37710.71
535.88	37886.25
536.05	38106.26
536.22	38281.80
536.38	38124.99
536.55	38595.43
536.72	38401.17
536.89	37968.17
537.06	37778.59
537.23	38391.81
537.40	38572.03
537.57	37965.83
537.74	37989.24
537.91	38527.56
538.08	38550.96
538.25	38375.42
538.42	38349.68
538.59	38756.93
538.75	38293.50
538.92	38904.38
539.09	39096.31
539.26	38986.30
539.43	38831.83
539.60	38808.42
539.77	39070.56
539.94	39304.62
540.11	38983.96
540.28	39725.91
540.44	39538.67
540.61	39400.58
540.78	39407.60
540.95	39089.29
541.12	38951.20
541.29	39395.90
541.46	39431.01
541.62	39543.35
541.79	39842.94
541.96	39646.33
542.13	39852.30
542.30	39772.72
542.47	39419.30
542.63	39704.85
542.80	39683.78
542.97	40004.44
543.14	40268.92
543.31	40289.98
543.48	39943.58
543.64	40495.95
543.81	40519.35
543.98	40374.24
544.15	40376.58
544.32	40676.17
544.48	40959.38
544.65	40760.43
544.82	40793.20
544.99	40327.43
545.16	40563.82
545.32	40790.86
545.49	40751.07
545.66	41104.49
545.83	40992.14
546.00	40884.48
546.16	40662.13
546.33	41006.19
546.50	40893.84
546.67	40917.25
546.83	40886.82
547.00	40919.59
547.17	40776.81
547.34	40634.04
547.50	41476.63
547.67	41797.29
547.84	41111.51
548.00	41298.75
548.17	41720.05
548.34	41041.29
548.51	41504.72
548.67	41469.61
548.84	41921.34
549.01	41446.21
549.18	41621.75
549.34	41275.35
549.51	41787.92
549.68	41904.95
549.84	42394.12
550.01	41799.63
550.18	41500.04
550.34	42005.59
550.51	41762.18
550.68	42148.37
550.84	41893.25
551.01	42433.91
551.18	42265.39
551.34	42328.59
551.51	42291.14
551.68	42305.18
551.84	42190.50
552.01	41626.43
552.18	42286.46
552.34	42223.26
552.51	42459.66
552.68	42363.70
552.84	42218.58
553.01	42122.62
553.18	42335.61
553.34	42787.33
553.51	42417.53
553.67	42328.59
553.84	42714.78
554.01	42876.27
554.17	42611.79
554.34	43220.33
554.51	42852.87
554.67	43365.45
554.84	43213.31
555.00	42632.86
555.17	42820.10
555.33	42969.90
555.50	42574.34
555.67	43110.33
555.83	43107.99
556.00	43019.05
556.16	43618.22
556.33	43730.57
556.50	43065.86
556.66	43243.74
556.83	42817.76
556.99	43306.93
557.16	43358.42
557.32	43686.10
557.49	43557.37
557.65	43103.31
557.82	43484.81
557.98	43686.10
558.15	43346.72
558.32	43803.13
558.48	43367.79
558.65	43655.67
558.81	43716.53
558.98	43438.00
559.14	43430.98
559.31	43335.02
559.47	43571.41
559.64	43695.46
559.80	43695.46
559.97	44154.21
560.13	43264.80
560.30	43585.46
560.46	44268.89
560.63	44409.32
560.79	43756.32
560.96	43971.64
561.12	44135.48
561.29	44053.56
561.45	44133.14
561.61	43873.34
561.78	43573.75
561.94	43608.86
562.11	44044.20
562.27	44219.74
562.44	44355.49
562.60	44074.63
562.77	44481.88
562.93	43723.55
563.10	44481.88
563.26	43906.11
563.42	44367.20
563.59	44306.34
563.75	44320.38
563.92	43995.05
564.08	44091.01
564.24	44086.33
564.41	43938.88
564.57	44680.83
564.74	43913.13
564.90	44285.28
565.07	44619.97
565.23	43950.58
565.39	44378.90
565.56	44896.16
565.72	44596.57
565.88	44538.05
566.05	44336.77
566.21	45024.89
566.38	44479.54
566.54	44275.91
566.70	44657.42
566.87	44751.04
567.03	44430.39
567.19	44657.42
567.36	44779.13
567.52	44739.34
567.68	44863.39
567.85	44512.31
568.01	44713.59
568.17	44311.02
568.34	44816.58
568.50	44699.55
568.66	44542.74
568.83	44739.34
568.99	44996.80
569.15	44402.30
569.32	44722.96
569.48	44706.57
569.64	45315.11
569.81	44762.75
569.97	45022.54
570.13	44830.62
570.30	44685.51
570.46	45109.14
570.62	44837.64
570.78	44933.60
570.95	44959.35
571.11	44804.88
571.27	44985.10
571.43	45034.25
571.60	45099.78
571.76	44877.43
571.92	44741.68
572.09	44823.60
572.25	44877.43
572.41	45050.63
572.57	44821.26
572.74	45181.70
572.90	45296.39
573.06	45226.17
573.22	45284.68
573.38	45172.34
573.55	45099.78
573.71	45509.38
573.87	45008.50
574.03	44786.15
574.20	45364.26
574.36	44996.80
574.52	45347.88
574.68	45354.90
574.84	45301.07
575.01	45109.14
575.17	45186.38
575.33	45535.12
575.49	45656.83
575.65	45497.67
575.82	44935.95
575.98	45478.95
576.14	45467.25
576.30	45911.95
576.46	45170.00
576.62	45052.97
576.79	45434.48
576.95	45411.07
577.11	44591.89
577.27	44917.22
577.43	45333.84
577.59	44949.99
577.75	44837.64
577.92	44814.24
578.08	45378.31
578.24	45261.28
578.40	45738.75
578.56	45235.53
578.72	45268.30
578.88	45684.92
579.04	45258.94
579.21	45076.38
579.37	45151.27
579.53	45668.53
579.69	45532.78
579.85	44996.80
580.01	45923.65
580.17	45359.58
580.33	45394.69
580.49	45553.85
580.65	45102.12
580.82	44917.22
580.98	45406.39
581.14	45352.56
581.30	45425.12
581.46	44861.05
581.62	45280.00
581.78	45186.38
581.94	45460.23
582.10	45249.58
582.26	45801.94
582.42	45455.54
582.58	45872.16
582.74	45614.70
582.90	45399.37
583.06	45764.49
583.22	45375.97
583.38	45598.32
583.54	45668.53
583.70	45670.87
583.86	46012.59
584.02	45490.65
584.18	46019.61
584.34	45902.59
584.50	46209.20
584.66	45792.58
584.82	45729.39
584.98	45804.28
585.14	45703.64
585.30	45638.11
585.46	45886.20
585.62	45153.62
585.78	45638.11
585.94	45200.43
586.10	45811.31
586.26	45675.55
586.42	45612.36
586.58	45729.39
586.74	45177.02
586.90	45603.00
587.06	45673.21
587.22	46218.56
587.38	45677.90
587.54	45879.18
587.70	45860.46
587.86	46110.89
588.02	45668.53
588.18	45801.94
588.34	45404.05
588.49	45755.13
588.65	45750.45
588.81	45773.86
588.97	45762.15
589.13	45621.72
589.29	45825.35
589.45	46078.13
589.61	45874.50
589.77	46211.54
589.93	45916.63
590.08	46190.47
590.24	45710.66
590.40	46211.54
590.56	46178.77
590.72	46293.46
590.88	45586.61
591.04	46071.10
591.20	46155.36
591.35	46515.81
591.51	46457.29
591.67	46342.61
591.83	46279.41
591.99	45897.91
592.15	46333.24
592.31	46220.90
592.46	46040.68
592.62	45776.20
592.78	46272.39
592.94	46784.97
593.10	46412.82
593.26	46579.00
593.41	46330.90
593.57	46101.53
593.73	46745.18
593.89	46583.68
594.05	47028.38
594.20	46586.02
594.36	46248.99
594.52	46546.23
594.68	46281.75
594.84	46436.23
594.99	46569.64
595.15	46380.06
595.31	46560.28
595.47	46232.60
595.62	46225.58
595.78	46033.66
595.94	46251.33
596.10	46642.20
596.25	46361.33
596.41	46382.40
596.57	46286.43
596.73	46642.20
596.88	46445.59
597.04	46267.71
597.20	46534.53
597.36	46370.69
597.51	46033.66
597.67	46543.89
597.83	46314.52
597.99	46600.07
598.14	46108.55
598.30	46511.13
598.46	46426.87
598.61	46770.93
598.77	46546.23
598.93	46190.47
599.09	46358.99
599.24	46810.71
599.40	46281.75
599.56	46749.86
599.71	46962.85
599.87	47021.36
600.03	46873.91
600.18	46894.97
600.34	46518.15
600.50	46642.20
600.65	46630.49
600.81	46728.80
600.97	46508.79
601.12	46724.11
601.28	46735.82
601.44	46202.18
601.59	46550.91
601.75	46342.61
601.91	46813.05
602.06	46630.49
602.22	46923.06
602.37	46752.20
602.53	46487.72
602.69	46932.42
602.84	46625.81
603.00	46251.33
603.16	46490.06
603.31	46749.86
603.47	46672.62
603.62	46347.29
603.78	46990.94
603.94	46616.45
604.09	46323.88
604.25	46424.53
604.40	46373.03
604.56	46499.42
604.71	46930.08
604.87	46848.16
605.03	46246.65
605.18	46239.62
605.34	46576.66
605.49	46525.17
605.65	46717.09
605.80	46953.49
605.96	46679.64
606.12	46363.67
606.27	46497.08
606.43	46305.16
606.58	46583.68
606.74	46391.76
606.89	46253.67
607.05	46674.96
607.20	46859.87
607.36	46454.95
607.51	46576.66
607.67	46354.31
607.82	46443.25
607.98	46473.68
608.13	46387.08
608.29	46127.28
608.44	46560.28
608.60	46113.23
608.75	46483.04
608.91	46143.66
609.06	46106.21
609.22	46342.61
609.37	46136.64
609.53	46218.56
609.68	46309.84
609.84	46164.73
609.99	46429.21
610.15	46066.42
610.30	46433.89
610.46	46021.95
610.61	46710.07
610.76	46658.58
610.92	45787.90
611.07	45837.05
611.23	45759.81
611.38	45947.06
611.54	46494.74
611.69	46309.84
611.84	45928.33
612.00	45968.12
612.15	46316.86
612.31	46394.10
612.46	45675.55
612.62	46094.51
612.77	45762.15
612.92	45982.16
613.08	45998.55
613.23	45794.92
613.39	45783.22
613.54	45649.81
613.69	45818.33
613.85	45656.83
614.00	45762.15
614.15	46003.23
614.31	45701.30
614.46	46153.02
614.62	45668.53
614.77	45769.18
614.92	45970.46
615.08	45567.89
615.23	45750.45
615.38	45942.38
615.54	45951.74
615.69	46148.34
615.84	45998.55
616.00	45785.56
616.15	46052.38
616.30	45530.44
616.46	45748.11
616.61	45951.74
616.76	45731.73
616.92	45659.17
617.07	45996.21
617.22	45523.42
617.37	45420.44
617.53	45471.93
617.68	45137.23
617.83	45544.48
617.99	45956.42
618.14	45897.91
618.29	45738.75
618.45	45083.40
618.60	45368.94
618.75	45350.22
618.90	45069.36
619.06	45696.62
619.21	45364.26
619.36	45610.02
619.51	45408.73
619.67	45195.74
619.82	45074.04
619.97	45443.84
620.12	45287.03
620.28	45415.76
620.43	45441.50
620.58	45382.99
620.73	45081.06
620.89	45572.57
621.04	45624.06
621.19	45411.07
621.34	45165.32
621.49	44975.73
621.65	45310.43
621.80	45188.72
621.95	44861.05
622.10	45254.26
622.25	45069.36
622.41	44776.79
622.56	44526.35
622.71	45237.87
622.86	44767.43
623.01	44732.32
623.16	44697.21
623.32	44949.99
623.47	44669.12
623.62	44816.58
623.77	44828.28
623.92	44928.92
624.07	44793.17
624.23	45209.79
624.38	44893.82
624.53	44847.00
624.68	44507.63
624.83	44898.50
624.98	44708.91
625.13	44439.75
625.29	44191.65
625.44	44418.69
625.59	44982.76
625.74	44322.72
625.89	44037.18
626.04	44540.39
626.19	44123.78
626.34	43803.13
626.49	44327.41
626.65	43910.79
626.80	44114.42
626.95	43622.90
627.10	43650.99
627.25	44339.11
627.40	43896.75
627.55	44470.18
627.70	44179.95
627.85	44343.79
628.00	44198.68
628.15	44215.06
628.30	43882.70
628.45	43828.87
628.60	43695.46
628.76	44332.09
628.91	43753.97
629.06	43735.25
629.21	43430.98
629.36	43927.17
629.51	43641.63
629.66	44680.83
629.81	43611.20
629.96	43800.79
630.11	43793.76
630.26	43199.27
630.41	43580.78
630.56	43812.49
630.71	43934.20
630.86	43716.53
631.01	43168.84
631.16	43615.88
631.31	43732.91
631.46	43449.70
631.61	44002.07
631.76	43430.98
631.91	43526.94
632.06	43824.19
632.21	44053.56
632.36	44079.31
632.51	43140.75
632.66	43765.68
632.81	43585.46
632.96	42909.04
633.10	43049.47
633.25	43672.06
633.40	43419.28
633.55	43217.99
633.70	43157.14
633.85	42754.57
634.00	43023.73
634.15	43185.22
634.30	42763.93
634.45	43241.40
634.60	43028.41
634.75	43351.40
634.90	43009.68
635.05	43061.18
635.19	42831.80
635.34	42930.11
635.49	42834.14
635.64	42911.38
635.79	43405.23
635.94	43042.45
636.09	42817.76
636.24	42878.61
636.39	42480.72
636.53	42672.65
636.68	42995.64
636.83	42227.95
636.98	42391.78
637.13	42501.79
637.28	42487.74
637.43	42445.62
637.57	42850.53
637.72	42710.10
637.87	42218.58
638.02	42677.33
638.17	42319.23
638.32	42469.02
638.46	41989.21
638.61	42377.74
638.76	41984.53
638.91	42232.63
639.06	42249.01
639.20	41607.70
639.35	41876.86
639.50	41546.85
639.65	42597.75
639.80	42094.53
639.94	42302.84
640.09	42155.39
640.24	42555.62
640.39	42003.25
640.54	41638.13
640.68	42045.38
640.83	42057.09
640.98	41867.50
641.13	41818.35
641.27	42466.68
641.42	41872.18
641.57	42232.63
641.72	41486.00
641.86	41670.90
642.01	41848.78
642.16	41539.83
642.31	41474.29
642.45	41984.53
642.60	41464.93
642.75	41521.10
642.90	41937.72
643.04	41319.82
643.19	41153.64
643.34	41418.12
643.48	40989.80
643.63	41439.18
643.78	41258.96
643.93	41579.62
644.07	41544.51
644.22	41785.58
644.37	41200.45
644.51	42014.96
644.66	41333.86
644.81	41287.05
644.95	41095.13
645.10	41120.87
645.25	41511.74
645.39	40900.86
645.54	41165.34
645.69	40641.06
645.83	41095.13
645.98	41038.95
646.13	40952.35
646.27	40907.88
646.42	40701.92
646.57	40935.97
646.71	41338.54
646.86	41001.50
647.00	41408.76
647.15	41034.27
647.30	41167.68
647.44	40683.19
647.59	40847.03
647.74	40868.09
647.88	41165.34
648.03	41254.28
648.17	40865.75
648.32	40638.72
648.47	41247.26
648.61	40570.85
648.76	40779.15
648.90	40650.42
649.05	40301.68
649.20	40456.16
649.34	40620.00
649.49	40631.70
649.63	41008.53
649.78	40704.26
649.92	40669.15
650.07	41200.45
650.21	40861.07
650.36	40776.81
650.51	40313.39
650.65	41085.76
650.80	40879.80
650.94	40737.02
651.09	40357.86
651.23	39746.98
651.38	40425.73
651.52	39707.19
651.67	40025.50
651.81	40091.04
651.96	40112.10
652.10	39950.60
652.25	40119.12
652.39	40069.97
652.54	40165.93
652.68	39742.30
652.83	39976.35
652.97	40322.75
653.12	40187.00
653.26	39835.92
653.41	40280.62
653.55	40088.70
653.70	39871.03
653.84	40116.78
653.99	39941.24
654.13	40123.80
654.27	39332.70
654.42	40109.76
654.56	39250.78
654.71	39845.28
654.85	39887.41
655.00	39667.40
655.14	39632.29
655.29	39889.75
655.43	40018.48
655.57	39452.07
655.72	39241.42
655.86	39353.77
656.01	39269.51
656.15	39105.67
656.30	39590.16
656.44	39480.16
656.58	39325.68
656.73	39278.87
656.87	38939.49
657.01	39498.88
657.16	39449.73
657.30	39508.24
657.45	39033.11
657.59	39168.87
657.73	39124.40
657.88	38857.57
658.02	39143.12
658.16	39351.43
658.31	39131.42
658.45	38930.13
658.60	39295.25
658.74	39058.86
658.88	38895.02
659.03	38981.62
659.17	38937.15
659.31	38983.96
659.46	38649.27
659.60	38909.07
659.74	38389.47
659.89	38588.41
660.03	37701.35
660.17	38602.46
660.32	38653.95
660.46	38473.73
660.60	38043.07
660.74	38234.99
660.89	38129.67
661.03	38356.70
661.17	37544.53
661.32	37902.64
661.46	37820.72
661.60	38129.67
661.74	38085.20
661.89	37926.04
662.03	38085.20
662.17	37563.26
662.31	37745.82
662.46	37937.74
662.60	38000.94
662.74	37305.80
662.88	37497.72
663.03	37214.52
663.17	36971.10
663.31	37139.62
663.45	37303.46
663.60	37804.33
663.74	37497.72
663.88	37214.52
664.02	37038.98
664.17	37235.58
664.31	37420.48
664.45	36781.52
664.59	37034.30
664.73	36931.31
664.88	37013.23
665.02	36627.04
665.16	36629.38
665.30	36666.83
665.44	36495.97
665.59	36172.98
665.73	36629.38
665.87	36100.42
666.01	36484.27
666.15	36598.96
666.29	36378.95
666.44	36505.34
666.58	36503.00
666.72	36158.94
666.86	36030.21
667.00	36072.34
667.14	35828.92
667.28	36170.64
667.43	35770.41
667.57	36299.37
667.71	36023.19
667.85	35910.84
667.99	35662.74
668.13	35866.37
668.27	35611.25
668.41	35353.79
668.56	35150.17
668.70	35510.61
668.84	35353.79
668.98	35108.04
669.12	35232.08
669.26	35040.16
669.40	35447.41
669.54	35009.73
669.68	34824.83
669.82	34813.13
669.96	34480.77
670.10	34565.03
670.25	34841.21
670.39	35044.84
670.53	34878.66
670.67	34946.54
670.81	34555.67
670.95	34375.45
671.09	34438.64
671.23	34436.30
671.37	34408.22
671.51	34232.68
671.65	34389.49
671.79	34036.07
671.93	34171.82
672.07	34295.87
672.21	34223.31
672.35	33397.10
672.49	33965.85
672.63	33879.25
672.77	33572.64
672.91	33645.20
673.05	33266.03
673.19	33448.60
673.33	33305.82
673.47	32821.33
673.61	33069.43
673.75	32985.17
673.89	32985.17
674.03	32718.35
674.17	33010.92
674.31	32945.38
674.45	32671.54
674.59	32566.21
674.73	32418.76
674.87	32353.23
675.01	32187.05
675.15	32065.34
675.29	31751.71
675.43	31793.84
675.56	32189.39
675.70	32147.26
675.84	31943.63
675.98	30918.48
676.12	31693.19
676.26	31538.72
676.40	31342.11
676.54	31302.32
676.68	31325.73
676.82	31260.20
676.96	31342.11
677.10	31358.50
677.23	31264.88
677.37	31150.19
677.51	31173.60
677.65	30529.95
677.79	30834.22
677.93	30747.62
678.07	30534.63
678.21	30265.47
678.34	30188.23
678.48	30529.95
678.62	29942.47
678.76	29734.17
678.90	29895.66
679.04	29797.36
679.18	30089.93
679.31	30012.69
679.45	29628.84
679.59	29219.25
679.73	29207.55
679.87	29188.82
680.00	29453.30
680.14	28973.49
680.28	29266.06
680.42	28954.77
680.56	28985.19
680.70	28659.86
680.83	28615.39
680.97	28517.09
681.11	28554.54
681.25	28137.92
681.39	28123.88
681.52	28226.86
681.66	28112.17
681.80	27477.89
681.94	27356.18
682.07	27615.98
682.21	27894.50
682.35	27419.38
682.49	27105.74
682.62	27461.51
682.76	27300.01
682.90	27180.64
683.04	27012.12
683.17	27370.22
683.31	27234.47
683.45	26768.71
683.59	26366.13
683.72	26431.67
683.86	26480.82
684.00	26223.36
684.13	26625.93
684.27	26141.44
684.41	26359.11
684.55	26288.90
684.68	25879.30
684.82	25979.95
684.96	25589.08
685.09	25912.07
685.23	25717.81
685.37	25930.80
685.50	26068.89
685.64	25773.98
685.78	25343.32
685.91	25479.07
686.05	24980.54
686.19	24589.67
686.32	25017.99
686.46	24549.88
686.60	24615.41
686.73	24301.78
686.87	24102.84
687.01	24575.62
687.14	24184.76
687.28	24184.76
687.42	24350.93
687.55	24086.45
687.69	24095.82
687.82	23585.58
687.96	24086.45
688.10	23969.43
688.23	23601.96
688.37	23988.15
688.50	23559.83
688.64	23697.92
688.78	23555.15
688.91	23323.44
689.05	23374.93
689.18	22864.69
689.32	22647.02
689.46	22714.90
689.59	22845.97
689.73	22963.00
689.86	22913.84
690.00	22785.12
690.13	22445.74
690.27	22422.33
690.41	22600.21
690.54	22075.93
690.68	22267.86
690.81	21954.22
690.95	21846.56
691.08	22003.38
691.22	22085.30
691.35	21181.85
691.49	21469.73
691.62	21689.74
691.76	21207.59
691.89	21113.97
692.03	20842.47
692.16	20798.00
692.30	20835.45
692.43	20517.14
692.57	20669.27
692.70	20730.12
692.84	20760.55
692.97	20369.68
693.11	20498.41
693.24	20240.95
693.38	20067.75
693.51	20107.54
693.65	20159.03
693.78	19887.53
693.92	19971.79
694.05	19641.78
694.19	19520.07
694.32	19583.26
694.45	19782.21
694.59	19688.59
694.72	19906.26
694.86	19264.95
694.99	19176.01
695.13	19180.69
695.26	18960.68
695.39	18911.53
695.53	18883.44
695.66	18972.38
695.80	18831.95
695.93	18501.93
696.07	18602.58
696.20	18555.77
696.33	18279.58
696.47	18202.35
696.60	18054.89
696.73	18258.52
696.87	18155.54
697.00	18225.75
697.14	17930.84
697.27	18295.97
697.40	17935.53
697.54	17619.55
697.67	17528.27
697.80	17888.71
697.94	17532.95
698.07	17432.31
698.21	17420.61
698.34	17207.62
698.47	16938.46
698.61	16554.61
698.74	16919.73
698.87	16496.10
699.01	16734.83
699.14	16741.85
699.27	16561.63
699.40	16769.94
699.54	16460.99
699.67	16355.66
699.80	16425.88
699.94	16023.31
700.07	16130.97
700.20	16194.17
700.34	16067.78
700.47	15896.92
700.60	16084.16
700.73	15775.21
700.87	15903.94
701.00	15667.55
701.13	15452.22
701.26	15356.25
701.40	15356.25
701.53	15253.27
701.66	15435.83
701.79	15484.98
701.93	14972.41
702.06	14843.68
702.19	15138.58
702.32	15009.86
702.46	15063.69
702.59	14970.07
702.72	14960.70
702.85	14934.96
702.99	14658.78
703.12	14523.02
703.25	14223.44
703.38	14310.04
703.51	14190.67
703.65	14118.11
703.78	14094.71
703.91	13734.26
704.04	13977.68
704.17	13844.27
704.31	13755.33
704.44	13809.16
704.57	13675.75
704.70	13685.11
704.83	13717.88
704.96	13516.59
705.10	13392.55
705.23	13685.11
>>>>>End Processed Spectral Data<<<<<
