SpectraSuite Data File
++++++++++++++++++++++++++++++++++++
Date: Fri Oct 25 11:33:24 EDT 2013
User: price-jones
Dark Spectrum Present: No
Reference Spectrum Present: No
Number of Sampled Component Spectra: 1
Spectrometers: USB2+H05261
Integration Time (usec): 100000 (USB2+H05261)
Spectra Averaged: 1 (USB2+H05261)
Boxcar Smoothing: 0 (USB2+H05261)
Correct for Electrical Dark: No (USB2+H05261)
Strobe/Lamp Enabled: No (USB2+H05261)
Correct for Detector Non-linearity: No (USB2+H05261)
Correct for Stray Light: No (USB2+H05261)
Number of Pixels in Processed Spectrum: 2048
>>>>>Begin Processed Spectral Data<<<<<
365.73	271.50
365.92	271.50
366.12	271.50
366.32	191.92
366.52	205.97
366.72	205.97
366.91	117.03
367.11	177.88
367.31	215.33
367.51	222.35
367.70	234.05
367.90	191.92
368.10	163.84
368.30	248.10
368.49	182.56
368.69	201.29
368.89	212.99
369.09	128.73
369.28	177.88
369.48	184.90
369.68	241.08
369.87	238.73
370.07	255.12
370.27	320.65
370.47	283.20
370.66	456.40
370.86	552.37
371.06	505.56
371.25	498.53
371.45	521.94
371.65	594.50
371.84	561.73
372.04	566.41
372.24	641.31
372.44	631.94
372.63	594.50
372.83	653.01
373.03	585.13
373.22	608.54
373.42	592.16
373.62	660.03
373.81	655.35
374.01	645.99
374.21	620.24
374.40	636.63
374.60	688.12
374.79	716.20
374.99	580.45
375.19	699.82
375.38	655.35
375.58	608.54
375.78	653.01
375.97	615.56
376.17	795.78
376.37	622.58
376.56	695.14
376.76	660.03
376.95	662.37
377.15	664.71
377.35	732.59
377.54	645.99
377.74	706.84
377.93	702.16
378.13	741.95
378.33	690.46
378.52	653.01
378.72	641.31
378.91	753.65
379.11	704.50
379.31	681.10
379.50	706.84
379.70	734.93
379.89	725.57
380.09	772.38
380.28	737.27
380.48	770.04
380.68	732.59
380.87	674.07
381.07	777.06
381.26	725.57
381.46	770.04
381.65	718.54
381.85	861.32
382.04	800.46
382.24	727.91
382.43	812.17
382.63	807.48
382.83	837.91
383.02	781.74
383.22	849.61
383.41	819.19
383.61	753.65
383.80	847.27
384.00	851.96
384.19	786.42
384.39	847.27
384.58	812.17
384.78	814.51
384.97	861.32
385.17	767.70
385.36	891.74
385.56	887.06
385.75	884.72
385.95	837.91
386.14	795.78
386.34	833.23
386.53	866.00
386.72	866.00
386.92	945.58
387.11	952.60
387.31	875.36
387.50	966.64
387.70	786.42
387.89	870.68
388.09	891.74
388.28	912.81
388.48	903.45
388.67	964.30
388.86	959.62
389.06	952.60
389.25	887.06
389.45	919.83
389.64	997.07
389.84	926.85
390.03	961.96
390.22	901.11
390.42	933.87
390.61	999.41
390.81	891.74
391.00	1015.79
391.19	973.66
391.39	1088.35
391.58	1022.81
391.78	1062.60
391.97	1093.03
392.16	1020.47
392.36	1053.24
392.55	1055.58
392.75	1102.39
392.94	1102.39
393.13	1088.35
393.33	1114.10
393.52	1055.58
393.71	1125.80
393.91	1093.03
394.10	1107.07
394.29	1071.97
394.49	1069.62
394.68	1177.29
394.88	1118.78
395.07	1165.59
395.26	1151.54
395.46	1160.91
395.65	1240.48
395.84	1156.22
396.04	1181.97
396.23	1235.80
396.42	1207.72
396.62	1233.46
396.81	1205.38
397.00	1181.97
397.19	1205.38
397.39	1179.63
397.58	1303.68
397.77	1172.61
397.97	1308.36
398.16	1310.70
398.35	1235.80
398.55	1315.38
398.74	1359.85
398.93	1336.45
399.12	1266.23
399.32	1390.28
399.51	1306.02
399.70	1306.02
399.90	1329.42
400.09	1409.00
400.28	1474.54
400.47	1331.76
400.67	1420.71
400.86	1439.43
401.05	1394.96
401.24	1458.15
401.44	1504.96
401.63	1453.47
401.82	1458.15
402.01	1390.28
402.21	1462.83
402.40	1537.73
402.59	1406.66
402.78	1467.52
402.97	1500.28
403.17	1511.99
403.36	1598.59
403.55	1497.94
403.74	1570.50
403.93	1600.93
404.13	1605.61
404.32	1558.80
404.51	1652.42
404.70	1706.25
404.89	1643.06
405.09	1785.83
405.28	1664.12
405.47	1741.36
405.66	1732.00
405.85	1739.02
406.05	1694.55
406.24	1713.27
406.43	1736.68
406.62	1739.02
406.81	1860.73
407.00	1870.09
407.20	1652.42
407.39	1797.53
407.58	1902.86
407.77	1746.04
407.96	1853.70
408.15	1851.36
408.34	1884.13
408.54	1940.30
408.73	1947.33
408.92	1870.09
409.11	2050.31
409.30	1849.02
409.49	1952.01
409.68	2019.88
409.87	2033.93
410.07	2085.42
410.26	2202.44
410.45	2101.80
410.64	2040.95
410.83	2043.29
411.02	2062.01
411.21	2181.38
411.40	2167.34
411.59	2125.21
411.78	2211.81
411.98	2270.32
412.17	2183.72
412.36	2335.85
412.55	2289.04
412.74	2305.43
412.93	2342.88
413.12	2399.05
413.31	2483.31
413.50	2478.63
413.69	2289.04
413.88	2506.71
414.07	2485.65
414.26	2457.56
414.45	2464.58
414.64	2511.39
414.83	2665.87
415.02	2600.34
415.22	2665.87
415.41	2635.44
415.60	2658.85
415.79	2693.96
415.98	2775.88
416.17	2722.04
416.36	2808.64
416.55	2839.07
416.74	2850.77
416.93	2785.24
417.12	2846.09
417.31	2839.07
417.50	2883.54
417.69	2993.55
417.88	3059.08
418.07	2890.56
418.26	2888.22
418.45	3000.57
418.64	3019.29
418.83	3052.06
419.02	3009.93
419.21	3176.11
419.39	3077.80
419.58	2998.23
419.77	3110.57
419.96	3155.04
420.15	3187.81
420.34	3143.34
420.53	3021.63
420.72	3234.62
420.91	3283.77
421.10	3229.94
421.29	3344.63
421.48	3038.02
421.67	3236.96
421.86	3206.53
422.05	3272.07
422.24	3253.34
422.43	3487.40
422.61	3386.76
422.80	3389.10
422.99	3372.71
423.18	3400.80
423.37	3384.41
423.56	3405.48
423.75	3501.44
423.94	3321.22
424.13	3180.79
424.32	3337.60
424.50	3417.18
424.69	3419.52
424.88	3473.36
425.07	3342.28
425.26	3243.98
425.45	3534.21
425.64	3302.50
425.83	3382.07
426.01	3644.21
426.20	3414.84
426.39	3419.52
426.58	3442.93
426.77	3419.52
426.96	3452.29
427.15	3433.57
427.33	3515.48
427.52	3541.23
427.71	3634.85
427.90	3632.51
428.09	3648.90
428.28	3653.58
428.46	3782.31
428.65	3641.87
428.84	3768.26
429.03	3918.06
429.22	3777.62
429.40	3782.31
429.59	3812.73
429.78	3714.43
429.97	3581.02
430.16	3857.20
430.34	3847.84
430.53	4025.72
430.72	3871.25
430.91	3992.95
431.10	3906.35
431.28	3922.74
431.47	3955.51
431.66	3824.44
431.85	3971.89
432.03	4208.28
432.22	4201.26
432.41	4044.45
432.60	4112.32
432.79	4065.51
432.97	4224.67
433.16	4105.30
433.35	4159.13
433.54	4306.59
433.72	4170.83
433.91	4159.13
434.10	4177.86
434.28	4276.16
434.47	4262.12
434.66	4231.69
434.85	4339.35
435.03	4397.87
435.22	4320.63
435.41	4390.84
435.59	4318.29
435.78	4390.84
435.97	4236.37
436.16	4337.01
436.34	4311.27
436.53	4362.76
436.72	4535.96
436.90	4332.33
437.09	4531.28
437.28	4416.59
437.46	4538.30
437.65	4608.51
437.84	4526.60
438.02	4578.09
438.21	4737.24
438.40	4617.88
438.58	4725.54
438.77	4791.08
438.96	4805.12
439.14	4865.97
439.33	4891.72
439.52	4894.06
439.70	4985.34
439.89	5034.49
440.08	5128.11
440.26	5008.75
440.45	5032.15
440.63	4973.64
440.82	5263.86
441.01	5041.51
441.19	5156.20
441.38	5095.35
441.57	5261.52
441.75	5313.02
441.94	5380.89
442.12	5528.35
442.31	5547.07
442.50	5610.26
442.68	5535.37
442.87	5476.85
443.05	5401.96
443.24	5551.75
443.43	5643.03
443.61	5647.71
443.80	5703.89
443.98	5404.30
444.17	5390.25
444.35	5654.73
444.54	5668.78
444.73	5729.63
444.91	5607.92
445.10	5659.42
445.28	5591.54
445.47	5584.52
445.65	5858.36
445.84	5593.88
446.02	5628.99
446.21	5795.17
446.39	5659.42
446.58	5743.67
446.77	5760.06
446.95	5701.54
447.14	5654.73
447.32	5860.70
447.51	5713.25
447.69	5743.67
447.88	5724.95
448.06	5783.46
448.25	5872.40
448.43	5877.09
448.62	5799.85
448.80	5867.72
448.99	6017.52
449.17	6001.13
449.36	5685.16
449.54	5973.05
449.73	5921.56
449.91	6118.16
450.10	6106.46
450.28	6087.73
450.46	6150.93
450.65	6176.67
450.83	5996.45
451.02	6136.88
451.20	6291.36
451.39	6150.93
451.57	6197.74
451.76	6080.71
451.94	6211.78
452.13	6455.20
452.31	6370.94
452.49	6293.70
452.68	6207.10
452.86	6356.90
453.05	6487.96
453.23	6326.47
453.42	6232.85
453.60	6370.94
453.78	6525.41
453.97	6462.22
454.15	6324.13
454.34	6291.36
454.52	6520.73
454.70	6586.27
454.89	6672.87
455.07	6717.34
455.26	6628.40
455.44	6740.74
455.62	6597.97
455.81	6651.80
455.99	6672.87
456.17	6820.32
456.36	6745.42
456.54	6920.96
456.73	6953.73
456.91	6892.88
457.09	7096.50
457.28	7199.49
457.46	6913.94
457.64	7023.95
457.83	7176.08
458.01	6937.35
458.19	7302.47
458.38	6916.28
458.56	7218.21
458.74	7232.26
458.93	7084.80
459.11	7122.25
459.29	7070.76
459.48	7286.09
459.66	7548.23
459.84	7232.26
460.03	7548.23
460.21	7461.63
460.39	7407.80
460.57	7396.09
460.76	7410.14
460.94	7475.67
461.12	7602.06
461.31	7438.22
461.49	7637.17
461.67	7503.76
461.85	7686.32
462.04	7789.30
462.22	8016.33
462.40	7920.37
462.59	7641.85
462.77	7801.01
462.95	7896.97
463.13	7576.31
463.32	7779.94
463.50	7728.45
463.68	7845.48
463.86	7922.71
464.05	7985.91
464.23	7815.05
464.41	7911.01
464.59	7782.28
464.78	8131.02
464.96	8030.38
465.14	7969.52
465.32	8126.34
465.50	8177.83
465.69	8241.03
465.87	8084.21
466.05	8046.76
466.23	8173.15
466.41	8327.63
466.60	8201.24
466.78	8140.38
466.96	8152.09
467.14	8376.78
467.32	8409.54
467.51	8367.42
467.69	8184.85
467.87	8280.82
468.05	8278.47
468.23	8390.82
468.41	8498.49
468.60	8435.29
468.78	8718.50
468.96	8285.50
469.14	8645.94
469.32	8713.81
469.50	8521.89
469.69	8816.80
469.87	8723.18
470.05	8891.70
470.23	8561.68
470.41	8777.01
470.59	8889.35
470.77	8765.31
470.95	8894.04
471.14	9064.89
471.32	8812.12
471.50	9015.74
471.68	8755.94
471.86	9352.78
472.04	9261.50
472.22	9376.19
472.40	9083.62
472.58	9427.68
472.77	9345.76
472.95	9462.79
473.13	9514.28
473.31	9605.56
473.49	9483.85
473.67	9341.08
473.85	9408.95
474.03	9771.74
474.21	9980.04
474.39	9675.77
474.57	9788.12
474.75	10080.69
474.93	9902.81
475.12	10066.64
475.30	10033.88
475.48	10047.92
475.66	10174.31
475.84	10143.88
476.02	10408.36
476.20	10387.30
476.38	10422.41
476.56	10780.51
476.74	10836.68
476.92	10445.81
477.10	10466.88
477.28	10609.65
477.46	10731.36
477.64	10841.36
477.82	10946.69
478.00	11253.30
478.18	11166.70
478.36	11272.02
478.54	11475.65
478.72	11386.71
478.90	11625.44
479.08	11730.76
479.26	11829.07
479.44	11440.54
479.62	11789.28
479.80	11887.58
479.98	11983.54
480.16	12128.66
480.34	11983.54
480.52	12404.84
480.70	12198.87
480.88	12133.34
481.06	12400.16
481.24	12510.16
481.41	12755.92
481.59	12915.08
481.77	12791.03
481.95	12898.69
482.13	13123.38
482.31	12950.18
482.49	13273.18
482.67	13261.48
482.85	13493.19
483.03	13724.90
483.21	13909.80
483.39	13788.10
483.57	13933.21
483.74	13893.42
483.92	14038.53
484.10	14143.86
484.28	14317.06
484.46	14441.11
484.64	14771.12
484.82	14647.07
485.00	14647.07
485.18	15049.64
485.35	15323.49
485.53	15054.33
485.71	15414.77
485.89	15487.32
486.07	15454.56
486.25	15318.81
486.43	15367.96
486.61	15562.22
486.78	16065.44
486.96	15786.91
487.14	16107.57
487.32	16231.62
487.50	16334.60
487.68	16601.42
487.85	16856.54
488.03	16791.00
488.21	16889.31
488.39	16931.44
488.57	17081.23
488.75	17355.07
488.92	17642.96
489.10	17436.99
489.28	17455.72
489.46	18061.91
489.64	17617.21
489.81	18033.83
489.99	18279.58
490.17	18059.57
490.35	18572.15
490.53	18618.96
490.70	18602.58
490.88	18696.20
491.06	18892.80
491.24	19187.71
491.41	19157.28
491.59	19066.00
491.77	19330.48
491.95	19536.45
492.13	19585.60
492.30	19763.48
492.48	19805.61
492.66	19833.70
492.84	19868.81
493.01	20053.71
493.19	20168.40
493.37	20318.19
493.54	20524.16
493.72	20720.76
493.90	20779.28
494.08	20809.70
494.25	20929.07
494.43	21097.59
494.61	21144.40
494.79	21362.07
494.96	21495.48
495.14	21678.04
495.32	21724.85
495.49	21736.56
495.67	21902.73
495.85	21958.91
496.02	21928.48
496.20	22387.22
496.38	22478.50
496.55	22286.58
496.73	22906.82
496.91	22691.49
497.09	23040.23
497.26	22963.00
497.44	22775.75
497.62	23290.67
497.79	23510.68
497.97	23332.80
498.14	23679.20
498.32	23828.99
498.50	23653.45
498.67	24041.98
498.85	23939.00
499.03	23988.15
499.20	24102.84
499.38	24290.08
499.56	24304.12
499.73	24751.17
499.91	24538.18
500.08	24879.89
500.26	24814.36
500.44	24940.75
500.61	25029.69
500.79	24744.14
500.97	24943.09
501.14	25729.51
501.32	24987.56
501.49	25376.09
501.67	25289.49
501.84	25788.02
502.02	25701.42
502.20	25867.60
502.37	26068.89
502.55	25593.76
502.72	25865.26
502.90	26120.38
503.07	25928.45
503.25	26499.55
503.43	26127.40
503.60	26326.35
503.78	26560.40
503.95	26527.63
504.13	26527.63
504.30	27037.87
504.48	26899.78
504.65	26724.24
504.83	27054.25
505.01	27243.84
505.18	26899.78
505.36	27702.58
505.53	27449.80
505.71	27538.74
505.88	27222.77
506.06	27501.29
506.23	27674.49
506.41	27824.29
506.58	27861.74
506.76	28013.87
506.93	28229.20
507.11	28196.43
507.28	27981.10
507.46	27807.90
507.63	28273.67
507.81	28510.07
507.98	28182.39
508.16	28418.78
508.33	28678.58
508.50	28940.72
508.68	28725.39
508.85	29057.75
509.03	29017.96
509.20	29188.82
509.38	29530.54
509.55	29570.33
509.73	29352.66
509.90	29350.32
510.08	29390.11
510.25	29579.69
510.42	29619.48
510.60	29680.33
510.77	29727.14
510.95	30225.68
511.12	29928.43
511.30	30251.42
511.47	30326.32
511.64	30359.09
511.82	30841.24
511.99	30815.49
512.17	30824.86
512.34	30960.61
512.51	31019.12
512.69	30913.80
512.86	30834.22
513.04	31405.31
513.21	31105.72
513.38	31035.50
513.56	31208.70
513.73	31204.02
513.90	31393.61
514.08	31208.70
514.25	31721.28
514.43	31484.89
514.60	31424.03
514.77	31541.06
514.95	31807.88
515.12	31417.01
515.29	31997.46
515.47	32341.52
515.64	32140.24
515.81	32217.47
515.99	32458.55
516.16	32620.05
516.33	32376.63
516.51	32474.93
516.68	32407.06
516.85	32318.12
517.03	32638.77
517.20	32547.49
517.37	32652.81
517.54	32580.26
517.72	32971.13
517.89	32732.39
518.06	33347.95
518.24	32884.53
518.41	32884.53
518.58	33251.99
518.75	33163.05
518.93	33385.40
519.10	33479.02
519.27	33654.56
519.45	33577.33
519.62	33773.93
519.79	33689.67
519.96	33605.41
520.14	33996.28
520.31	33820.74
520.48	34616.52
520.65	34295.87
520.83	34305.23
521.00	34431.62
521.17	34347.36
521.34	34618.86
521.52	34719.51
521.69	34455.03
521.86	34703.12
522.03	35173.57
522.20	34892.71
522.38	35143.14
522.55	35393.58
522.72	35098.67
522.89	35557.42
523.07	35363.15
523.24	35555.08
523.41	35442.73
523.58	35164.21
523.75	35768.07
523.92	35629.98
524.10	35477.84
524.27	35772.75
524.44	35901.48
524.61	35695.51
524.78	35751.68
524.96	35758.70
525.13	36224.47
525.30	36437.46
525.47	36044.25
525.64	36254.90
525.81	36278.30
525.98	36533.42
526.16	36432.78
526.33	36528.74
526.50	36605.98
526.67	36126.17
526.84	36650.45
527.01	36905.57
527.18	36835.35
527.36	37102.17
527.53	37043.66
527.70	37401.76
527.87	37462.61
528.04	37092.81
528.21	37333.89
528.38	37146.64
528.55	37401.76
528.72	36964.08
528.89	37497.72
529.07	37605.39
529.24	37214.52
529.41	37603.05
529.58	37638.15
529.75	37579.64
529.92	37715.39
530.09	38029.02
530.26	37998.60
530.43	38057.11
530.60	37680.28
530.77	37516.45
530.94	38206.90
531.11	37525.81
531.28	38319.25
531.46	38675.01
531.63	37734.12
531.80	38256.06
531.97	38195.20
532.14	38878.64
532.31	38417.55
532.48	38675.01
532.65	38913.75
532.82	38536.92
532.99	38883.32
533.16	38534.58
533.33	39056.52
533.50	39131.42
533.67	39119.71
533.84	38799.06
534.01	38902.04
534.18	39103.33
534.35	39257.81
534.52	39201.63
534.69	39257.81
534.86	39681.44
535.03	39166.52
535.20	39470.79
535.37	39765.70
535.54	39672.08
535.71	39594.84
535.88	39873.37
536.05	39821.87
536.22	39913.16
536.38	39477.82
536.55	39700.17
536.72	40318.07
536.89	39545.69
537.06	39583.14
537.23	40196.36
537.40	39772.72
537.57	40105.08
537.74	39798.47
537.91	40306.37
538.08	39983.37
538.25	39852.30
538.42	39903.79
538.59	40559.14
538.75	40140.19
538.92	40648.08
539.09	40404.67
539.26	40739.36
539.43	40711.28
539.60	40755.75
539.77	40823.62
539.94	41153.64
540.11	41015.55
540.28	40741.71
540.44	40781.49
540.61	40809.58
540.78	40500.63
540.95	41553.87
541.12	40687.87
541.29	41029.59
541.46	41586.64
541.62	40924.27
541.79	41607.70
541.96	40851.71
542.13	41233.22
542.30	41048.32
542.47	41558.55
542.63	41457.91
542.80	41570.25
542.97	41818.35
543.14	41799.63
543.31	42202.20
543.48	41858.14
543.64	42403.49
543.81	42014.96
543.98	42195.18
544.15	42078.15
544.32	42171.77
544.48	42616.47
544.65	42108.58
544.82	42490.09
544.99	42319.23
545.16	42792.01
545.32	42270.08
545.49	42307.52
545.66	42593.07
545.83	42913.72
546.00	42941.81
546.16	42815.42
546.33	42583.71
546.50	42590.73
546.67	42920.74
546.83	42625.84
547.00	42759.25
547.17	42473.70
547.34	42391.78
547.50	43077.56
547.67	43594.82
547.84	42895.00
548.00	43028.41
548.17	43196.93
548.34	43377.15
548.51	43423.96
548.67	43433.32
548.84	43030.75
549.01	43377.15
549.18	43393.53
549.34	43679.08
549.51	44034.84
549.68	43585.46
549.84	43585.46
550.01	43873.34
550.18	43344.38
550.34	43786.74
550.51	43803.13
550.68	43882.70
550.84	43742.27
551.01	44016.11
551.18	43711.84
551.34	43817.17
551.51	44058.24
551.68	43854.62
551.84	43735.25
552.01	44243.15
552.18	44088.67
552.34	44233.78
552.51	43749.29
552.68	44051.22
552.84	44446.77
553.01	44102.71
553.18	44020.80
553.34	44315.70
553.51	44130.80
553.67	44411.67
553.84	44767.43
554.01	44570.82
554.17	44584.86
554.34	44767.43
554.51	44458.48
554.67	44631.68
554.84	44690.19
555.00	44568.48
555.17	44643.38
555.33	44875.09
555.50	44786.15
555.67	44790.83
555.83	44917.22
556.00	44807.22
556.16	45022.54
556.33	44741.68
556.50	44882.11
556.66	45177.02
556.83	45305.75
556.99	45502.35
557.16	45420.44
557.32	44996.80
557.49	45284.68
557.65	44811.90
557.82	45160.64
557.98	44940.63
558.15	44907.86
558.32	45415.76
558.48	45148.93
558.65	45123.19
558.81	45401.71
558.98	45249.58
559.14	45443.84
559.31	45165.32
559.47	45347.88
559.64	45429.80
559.80	45235.53
559.97	45963.44
560.13	45324.47
560.30	45900.25
560.46	45865.14
560.63	45530.44
560.79	45925.99
560.96	45820.67
561.12	45900.25
561.29	45462.57
561.45	46169.41
561.61	45776.20
561.78	45488.31
561.94	46103.87
562.11	46281.75
562.27	46071.10
562.44	46019.61
562.60	45698.96
562.77	45603.00
562.93	45914.29
563.10	46089.83
563.26	46120.26
563.42	46291.12
563.59	46017.27
563.75	45769.18
563.92	45993.87
564.08	46218.56
564.24	46279.41
564.41	45928.33
564.57	46583.68
564.74	45918.97
564.90	46342.61
565.07	46232.60
565.23	46429.21
565.39	46665.60
565.56	46689.01
565.72	46115.58
565.88	46279.41
566.05	46291.12
566.21	46525.17
566.38	46284.09
566.54	46609.43
566.70	46464.32
566.87	46461.97
567.03	46213.88
567.19	46944.12
567.36	46316.86
567.52	46457.29
567.68	46707.73
567.85	46749.86
568.01	46380.06
568.17	46796.67
568.34	46946.47
568.50	46794.33
568.66	46639.86
568.83	46789.65
568.99	46272.39
569.15	46859.87
569.32	46546.23
569.48	46391.76
569.64	47166.48
569.81	47098.60
569.97	46916.04
570.13	46939.44
570.30	46473.68
570.46	46822.42
570.62	46770.93
570.78	46766.24
570.95	46630.49
571.11	47297.55
571.27	46965.19
571.43	46501.76
571.60	46588.36
571.76	46862.21
571.92	46534.53
572.09	46796.67
572.25	46766.24
572.41	47086.90
572.57	46667.94
572.74	47201.58
572.90	47007.32
573.06	47168.82
573.22	47117.32
573.38	46990.94
573.55	47164.14
573.71	47409.89
573.87	46829.44
574.03	46944.12
574.20	47068.17
574.36	46820.08
574.52	47002.64
574.68	47131.37
574.84	47351.38
575.01	47629.90
575.17	47435.64
575.33	47201.58
575.49	46822.42
575.65	47576.07
575.82	47388.83
575.98	46773.27
576.14	47246.05
576.30	47391.17
576.46	47077.54
576.62	47334.99
576.79	47138.39
576.95	46742.84
577.11	47236.69
577.27	46937.10
577.43	47323.29
577.59	47416.91
577.75	46962.85
577.92	46721.77
578.08	46822.42
578.24	47297.55
578.40	47494.15
578.56	47089.24
578.72	47283.50
578.88	47171.16
579.04	47299.89
579.21	47054.13
579.37	47346.70
579.53	47217.97
579.69	46897.31
579.85	47030.72
580.01	47445.00
580.17	47054.13
580.33	47580.75
580.49	47131.37
580.65	47557.35
580.82	47232.01
580.98	47110.30
581.14	46883.27
581.30	47676.71
581.46	46990.94
581.62	47098.60
581.78	47150.09
581.94	47756.29
582.10	47100.94
582.26	47613.52
582.42	47576.07
582.58	47494.15
582.74	47655.65
582.90	47306.91
583.06	47634.58
583.22	47157.11
583.38	47697.78
583.54	47805.44
583.70	47650.97
583.86	47391.17
584.02	47487.13
584.18	47814.80
584.34	47988.00
584.50	47437.98
584.66	47716.50
584.82	47388.83
584.98	47854.59
585.14	47707.14
585.30	47192.22
585.46	47540.96
585.62	46983.91
585.78	47344.36
585.94	47126.69
586.10	47344.36
586.26	47463.72
586.42	47402.87
586.58	47578.41
586.74	47360.74
586.90	47283.50
587.06	47342.02
587.22	47550.32
587.38	47803.10
587.54	47971.62
587.70	47929.49
587.86	47924.81
588.02	47302.23
588.18	47777.36
588.34	47426.28
588.49	48161.20
588.65	47433.30
588.81	47948.21
588.97	47915.45
589.13	47470.75
589.29	47543.30
589.45	47737.57
589.61	47566.71
589.77	47547.98
589.93	47894.38
590.08	48151.84
590.24	48079.28
590.40	48076.94
590.56	48203.33
590.72	48119.07
590.88	47721.18
591.04	47838.21
591.20	48128.44
591.35	48041.84
591.51	48126.10
591.67	47988.00
591.83	48301.64
591.99	47980.98
592.15	48105.03
592.31	47625.22
592.46	47931.83
592.62	47758.63
592.78	48098.01
592.94	48439.73
593.10	48341.42
593.26	48140.14
593.41	48076.94
593.57	48266.53
593.73	47985.66
593.89	48189.29
594.05	48371.85
594.20	48250.14
594.36	48488.88
594.52	48545.05
594.68	48186.95
594.84	47852.25
594.99	48325.04
595.15	48147.16
595.31	48486.54
595.47	48151.84
595.62	48428.02
595.78	48315.68
595.94	48229.08
596.10	48105.03
596.25	48311.00
596.41	48591.86
596.57	48041.84
596.73	48425.68
596.88	48355.47
597.04	48430.36
597.20	48423.34
597.36	48301.64
597.51	48486.54
597.67	48367.17
597.83	48395.26
597.99	48252.48
598.14	48238.44
598.30	48608.25
598.46	48245.46
598.61	48458.45
598.77	48376.53
598.93	48526.33
599.09	48142.48
599.24	48774.42
599.40	48402.28
599.56	48470.15
599.71	48523.99
599.87	49020.18
600.03	48844.64
600.18	48495.90
600.34	48334.40
600.50	48364.83
600.65	48369.51
600.81	48690.16
600.97	48978.05
601.12	48538.03
601.28	48633.99
601.44	48594.20
601.59	48339.08
601.75	48439.73
601.91	48802.51
602.06	48254.82
602.22	48921.88
602.37	48507.60
602.53	48423.34
602.69	48521.65
602.84	48411.64
603.00	48357.81
603.16	48629.31
603.31	48610.59
603.47	48563.78
603.62	48704.21
603.78	48865.70
603.94	48753.36
604.09	48676.12
604.25	47901.40
604.40	48418.66
604.56	48542.71
604.71	48505.26
604.87	48090.99
605.03	48142.48
605.18	48212.70
605.34	48334.40
605.49	48474.84
605.65	48531.01
605.80	48275.89
605.96	48493.56
606.12	48383.55
606.27	48573.14
606.43	48020.77
606.58	48395.26
606.74	48219.72
606.89	48296.95
607.05	48531.01
607.20	48182.27
607.36	48252.48
607.51	48004.39
607.67	47870.98
607.82	48271.21
607.98	48079.28
608.13	48137.80
608.29	48252.48
608.44	48182.27
608.60	48025.45
608.75	48147.16
608.91	48296.95
609.06	48055.88
609.22	48233.76
609.37	48041.84
609.53	48144.82
609.68	48135.46
609.84	48135.46
609.99	47814.80
610.15	48076.94
610.30	48179.93
610.46	47966.94
610.61	48301.64
610.76	48404.62
610.92	48020.77
611.07	48072.26
611.23	48039.50
611.38	47945.87
611.54	47852.25
611.69	48112.05
611.84	47995.03
612.00	48177.59
612.15	47669.69
612.31	47922.47
612.46	47772.67
612.62	47917.79
612.77	47796.08
612.92	48325.04
613.08	47679.05
613.23	48018.43
613.39	47878.00
613.54	47906.08
613.69	47753.95
613.85	47625.22
614.00	47878.00
614.15	48142.48
614.31	47452.02
614.46	47765.65
614.62	47576.07
614.77	47756.29
614.92	47606.50
615.08	47718.84
615.23	47863.96
615.38	48175.25
615.54	47728.20
615.69	47948.21
615.84	47529.26
616.00	47952.90
616.15	47920.13
616.30	47620.54
616.46	47833.53
616.61	47569.05
616.76	47264.78
616.92	47437.98
617.07	47751.61
617.22	47674.37
617.37	47269.46
617.53	47318.61
617.68	47569.05
617.83	47381.80
617.99	47456.70
618.14	47718.84
618.29	46791.99
618.45	46817.74
618.60	47091.58
618.75	46944.12
618.90	47283.50
619.06	47365.42
619.21	47161.79
619.36	47065.83
619.51	46913.70
619.67	47229.67
619.82	46965.19
619.97	47543.30
620.12	47189.88
620.28	46988.60
620.43	47463.72
620.58	47428.62
620.73	46906.68
620.89	47398.19
621.04	47416.91
621.19	46684.33
621.34	46894.97
621.49	47019.02
621.65	47054.13
621.80	47178.18
621.95	46696.03
622.10	47189.88
622.25	47000.30
622.41	46583.68
622.56	47096.26
622.71	47112.64
622.86	46997.96
623.01	47166.48
623.16	47084.56
623.32	46906.68
623.47	46810.71
623.62	46651.56
623.77	46567.30
623.92	46820.08
624.07	46623.47
624.23	46829.44
624.38	46738.16
624.53	46740.50
624.68	46649.22
624.83	46731.14
624.98	46492.40
625.13	46478.36
625.29	46454.95
625.44	46373.03
625.59	46735.82
625.74	46291.12
625.89	46398.78
626.04	46129.62
626.19	46387.08
626.34	46092.17
626.49	45640.45
626.65	45804.28
626.80	46366.01
626.95	46167.07
627.10	45935.35
627.25	46389.42
627.40	45881.52
627.55	46761.56
627.70	45944.72
627.85	46480.70
628.00	46188.13
628.15	46459.63
628.30	45497.67
628.45	45605.34
628.60	45329.16
628.76	45713.00
628.91	45495.33
629.06	45705.98
629.21	45453.20
629.36	45661.51
629.51	45745.77
629.66	46028.98
629.81	45359.58
629.96	45572.57
630.11	45799.60
630.26	45102.12
630.41	45598.32
630.56	45624.06
630.71	45614.70
630.86	45640.45
631.01	45221.49
631.16	45570.23
631.31	45900.25
631.46	45514.06
631.61	45584.27
631.76	45638.11
631.91	45577.25
632.06	45764.49
632.21	45539.80
632.36	45345.54
632.51	44844.66
632.66	45364.26
632.81	44706.57
632.96	45289.37
633.10	45102.12
633.25	45401.71
633.40	45233.19
633.55	45572.57
633.70	45352.56
633.85	44692.53
634.00	44854.03
634.15	45247.24
634.30	45090.42
634.45	44624.65
634.60	45312.77
634.75	45450.86
634.90	45155.96
635.05	45420.44
635.19	45214.47
635.34	45120.85
635.49	45174.68
635.64	44933.60
635.79	44650.40
635.94	45375.97
636.09	45001.48
636.24	44669.12
636.39	44678.49
636.53	44652.74
636.68	44484.22
636.83	44437.41
636.98	44098.03
637.13	44332.09
637.28	44662.10
637.43	44435.07
637.57	44561.46
637.72	43997.39
637.87	44184.63
638.02	44865.73
638.17	44556.78
638.32	44409.32
638.46	43852.28
638.61	43915.47
638.76	44273.57
638.91	44404.64
639.06	44147.18
639.20	43814.83
639.35	43639.29
639.50	43653.33
639.65	44278.25
639.80	44294.64
639.94	44182.29
640.09	44645.72
640.24	44404.64
640.39	43540.99
640.54	43540.99
640.68	43728.23
640.83	44069.95
640.98	44294.64
641.13	44091.01
641.27	44194.00
641.42	43810.15
641.57	43927.17
641.72	43810.15
641.86	43791.42
642.01	43435.66
642.16	43349.06
642.31	43552.69
642.45	44430.39
642.60	43180.54
642.75	43171.18
642.90	43620.56
643.04	43058.84
643.19	43374.81
643.34	43246.08
643.48	43117.35
643.63	43466.09
643.78	43234.38
643.93	43709.50
644.07	43122.03
644.22	43264.80
644.37	42953.51
644.51	43704.82
644.66	43517.58
644.81	43260.12
644.95	43791.42
645.10	43262.46
645.25	43012.02
645.39	42974.58
645.54	42944.15
645.69	43068.20
645.83	42611.79
645.98	42951.17
646.13	43302.25
646.27	42756.91
646.42	42607.11
646.57	42878.61
646.71	43452.05
646.86	43187.56
647.00	42969.90
647.15	42845.85
647.30	43040.11
647.44	43150.12
647.59	42604.77
647.74	42670.31
647.88	42890.32
648.03	43058.84
648.17	43084.58
648.32	43051.81
648.47	42876.27
648.61	42689.03
648.76	42660.94
648.90	42457.32
649.05	42251.35
649.20	42763.93
649.34	42555.62
649.49	42326.25
649.63	43131.39
649.78	42817.76
649.92	42373.06
650.07	43129.05
650.21	42892.66
650.36	42799.04
650.51	42384.76
650.65	42724.14
650.80	42693.71
650.94	42501.79
651.09	42548.60
651.23	41689.62
651.38	41806.65
651.52	41848.78
651.67	42050.06
651.81	42057.09
651.96	42246.67
652.10	41406.42
652.25	41558.55
652.39	41911.97
652.54	42110.92
652.68	42036.02
652.83	41710.69
652.97	42122.62
653.12	41813.67
653.26	41759.84
653.41	41731.75
653.55	41909.63
653.70	42099.22
653.84	42129.64
653.99	41979.85
654.13	41528.13
654.27	41677.92
654.42	41942.40
654.56	41787.92
654.71	41958.78
654.85	41621.75
655.00	41689.62
655.14	41408.76
655.29	42057.09
655.43	41645.15
655.57	41518.76
655.72	41567.91
655.86	41361.95
656.01	41453.23
656.15	41249.60
656.30	41282.37
656.44	41556.21
656.58	41574.94
656.73	41340.88
656.87	40854.05
657.01	41041.29
657.16	41233.22
657.30	40872.78
657.45	41214.49
657.59	41057.68
657.73	40769.79
657.88	40877.46
658.02	41310.46
658.16	41258.96
658.31	41294.07
658.45	41378.33
658.60	40549.78
658.74	41060.02
658.88	40996.82
659.03	40893.84
659.17	40582.55
659.31	40879.80
659.46	39992.73
659.60	40720.64
659.74	40240.83
659.89	39950.60
660.03	40545.10
660.17	40521.69
660.32	40404.67
660.46	40086.36
660.60	39821.87
660.74	40231.47
660.89	40641.06
661.03	40144.87
661.17	39688.46
661.32	39725.91
661.46	39889.75
661.60	39533.99
661.74	39927.20
661.89	39702.51
662.03	39950.60
662.17	39723.57
662.31	39519.95
662.46	39686.12
662.60	39716.55
662.74	39089.29
662.88	39213.34
663.03	39236.74
663.17	39503.56
663.31	38883.32
663.45	39234.40
663.60	39203.97
663.74	39248.44
663.88	39213.34
664.02	38660.97
664.17	39440.37
664.31	38951.20
664.45	38845.87
664.59	39047.16
664.73	39035.45
664.88	38838.85
665.02	38157.75
665.16	38660.97
665.30	38817.78
665.44	38396.49
665.59	38337.98
665.73	38581.39
665.87	37567.94
666.01	38543.94
666.15	38225.63
666.29	38092.22
666.44	38305.21
666.58	38213.93
666.72	37902.64
666.86	37926.04
667.00	37682.62
667.14	37647.52
667.28	37886.25
667.43	37998.60
667.57	37947.11
667.71	38052.43
667.85	38078.18
667.99	37848.80
668.13	37029.62
668.27	37097.49
668.41	37214.52
668.56	37055.36
668.70	36863.44
668.84	36854.08
668.98	36697.26
669.12	37148.98
669.26	36966.42
669.40	36950.04
669.54	37071.75
669.68	36879.82
669.82	36968.76
669.96	36212.77
670.10	36357.88
670.25	36596.62
670.39	36495.97
670.53	37071.75
670.67	37034.30
670.81	36549.81
670.95	36095.74
671.09	36180.00
671.23	35622.95
671.37	36369.58
671.51	35864.03
671.65	35669.76
671.79	35669.76
671.93	36254.90
672.07	35955.31
672.21	35562.10
672.35	35033.14
672.49	35569.12
672.63	35524.65
672.77	35360.81
672.91	35559.76
673.05	35304.64
673.19	34838.87
673.33	35023.78
673.47	34515.88
673.61	34525.24
673.75	34541.63
673.89	34419.92
674.03	34300.55
674.17	34562.69
674.31	34611.84
674.45	33937.77
674.59	34146.08
674.73	34471.41
674.87	33968.19
675.01	33460.30
675.15	33755.21
675.29	33493.07
675.43	33811.38
675.56	34108.63
675.70	33633.50
675.84	33635.84
675.98	32369.61
676.12	33759.89
676.26	33317.53
676.40	33055.39
676.54	32762.82
676.68	33132.62
676.82	32381.31
676.96	33308.16
677.10	33006.23
677.23	32521.74
677.37	32683.24
677.51	32376.63
677.65	31995.12
677.79	32629.41
677.93	31922.57
678.07	32313.44
678.21	31889.80
678.34	31941.29
678.48	31824.26
678.62	31297.64
678.76	31625.32
678.90	31496.59
679.04	31796.18
679.18	31536.38
679.31	30871.67
679.45	30998.06
679.59	30972.31
679.73	30794.43
679.87	30841.24
680.00	30773.36
680.14	30464.41
680.28	30911.46
680.42	30675.06
680.56	30103.97
680.70	30012.69
680.83	30274.83
680.97	30094.61
681.11	29900.34
681.25	29675.65
681.39	29654.59
681.52	30040.78
681.66	29228.61
681.80	28919.66
681.94	28877.53
682.07	28877.53
682.21	29172.44
682.35	28662.20
682.49	28718.37
682.62	28683.27
682.76	28577.94
682.90	28643.48
683.04	28610.71
683.17	28575.60
683.31	28329.84
683.45	28037.28
683.59	27580.87
683.72	27854.72
683.86	27889.82
684.00	27922.59
684.13	27527.04
684.27	27573.85
684.41	27278.94
684.55	27250.86
684.68	27365.54
684.82	26897.44
684.96	26780.41
685.09	27168.94
685.23	27075.32
685.37	27501.29
685.50	27407.67
685.64	26930.20
685.78	26485.50
685.91	26618.91
686.05	26314.64
686.19	25993.99
686.32	26113.36
686.46	25816.11
686.60	25647.59
686.73	25848.88
686.87	25715.47
687.01	26031.44
687.14	25755.26
687.28	25385.45
687.42	25638.23
687.55	25207.57
687.69	25472.05
687.82	25252.04
687.96	24812.02
688.10	24950.11
688.23	25006.28
688.37	24978.20
688.50	25090.54
688.64	25032.03
688.78	24350.93
688.91	24458.60
689.05	24652.86
689.18	24297.10
689.32	23777.50
689.46	23957.72
689.59	23690.90
689.73	24233.91
689.86	24201.14
690.00	24018.58
690.13	23836.02
690.27	23681.54
690.41	23616.01
690.54	23159.60
690.68	23103.43
690.81	23033.21
690.95	22881.08
691.08	23042.57
691.22	22965.34
691.35	22654.05
691.49	22909.16
691.62	22478.50
691.76	22675.11
691.89	22429.35
692.03	21979.97
692.16	21886.35
692.30	22183.60
692.43	21916.78
692.57	21888.69
692.70	21638.25
692.84	21752.94
692.97	21305.90
693.11	21245.04
693.24	21223.98
693.38	21207.59
693.51	20798.00
693.65	21062.48
693.78	20868.22
693.92	20545.22
694.05	21027.37
694.19	20760.55
694.32	20512.46
694.45	20798.00
694.59	20400.11
694.72	20606.08
694.86	20393.09
694.99	20301.81
695.13	20203.50
695.26	19875.83
695.39	19662.84
695.53	19967.11
695.66	19920.30
695.80	19838.38
695.93	19601.99
696.07	19445.17
696.20	19012.17
696.33	18967.70
696.47	19506.02
696.60	18986.43
696.73	19515.39
696.87	19417.08
697.00	19000.47
697.14	18918.55
697.27	18670.45
697.40	18890.46
697.54	18665.77
697.67	18635.35
697.80	18726.63
697.94	18555.77
698.07	18298.31
698.21	18204.69
698.34	18520.66
698.47	18026.81
698.61	17518.91
698.74	17769.35
698.87	18026.81
699.01	17792.75
699.14	17717.86
699.27	17668.70
699.40	17444.01
699.54	17394.86
699.67	17444.01
699.80	17242.73
699.94	17205.28
700.07	17174.85
700.20	16868.24
700.34	16865.90
700.47	16683.34
700.60	16987.61
700.73	16472.69
700.87	16692.70
701.00	16198.85
701.13	16184.80
701.26	16350.98
701.40	16217.57
701.53	16245.66
701.66	16046.71
701.79	16173.10
701.93	15878.19
702.06	15583.29
702.19	15569.24
702.32	15648.82
702.46	15658.18
702.59	15730.74
702.72	15641.80
702.85	15805.64
702.99	15484.98
703.12	15337.53
703.25	15241.57
703.38	15147.95
703.51	14970.07
703.65	14810.91
703.78	14693.88
703.91	14633.03
704.04	14672.82
704.17	14469.19
704.31	14588.56
704.44	14579.20
704.57	14600.26
704.70	14195.35
704.83	14164.92
704.96	14188.33
705.10	13844.27
705.23	13860.65
>>>>>End Processed Spectral Data<<<<<
