SpectraSuite Data File
++++++++++++++++++++++++++++++++++++
Date: Fri Oct 25 10:44:08 EDT 2013
User: price-jones
Dark Spectrum Present: No
Reference Spectrum Present: No
Number of Sampled Component Spectra: 1
Spectrometers: USB2+H05261
Integration Time (usec): 100000 (USB2+H05261)
Spectra Averaged: 1 (USB2+H05261)
Boxcar Smoothing: 0 (USB2+H05261)
Correct for Electrical Dark: No (USB2+H05261)
Strobe/Lamp Enabled: No (USB2+H05261)
Correct for Detector Non-linearity: No (USB2+H05261)
Correct for Stray Light: No (USB2+H05261)
Number of Pixels in Processed Spectrum: 2048
>>>>>Begin Processed Spectral Data<<<<<
365.73	128.73
365.92	128.73
366.12	128.73
366.32	7.02
366.52	65.54
366.72	51.49
366.91	16.38
367.11	7.02
367.31	51.49
367.51	0.00
367.70	0.00
367.90	42.13
368.10	4.68
368.30	46.81
368.49	0.00
368.69	21.06
368.89	7.02
369.09	9.36
369.28	51.49
369.48	86.60
369.68	110.01
369.87	95.96
370.07	117.03
370.27	149.79
370.47	194.26
370.66	362.78
370.86	447.04
371.06	458.74
371.25	482.15
371.45	433.00
371.65	507.90
371.84	400.23
372.04	482.15
372.24	449.38
372.44	486.83
372.63	514.92
372.83	615.56
373.03	543.00
373.22	486.83
373.42	423.64
373.62	543.00
373.81	512.58
374.01	543.00
374.21	510.24
374.40	526.62
374.60	561.73
374.79	538.32
374.99	533.64
375.19	592.16
375.38	580.45
375.58	608.54
375.78	610.88
375.97	638.97
376.17	594.50
376.37	585.13
376.56	578.11
376.76	559.39
376.95	610.88
377.15	636.63
377.35	690.46
377.54	716.20
377.74	648.33
377.93	622.58
378.13	676.41
378.33	681.10
378.52	629.60
378.72	617.90
378.91	624.92
379.11	580.45
379.31	660.03
379.50	592.16
379.70	692.80
379.89	674.07
380.09	690.46
380.28	641.31
380.48	664.71
380.68	718.54
380.87	653.01
381.07	664.71
381.26	711.52
381.46	727.91
381.65	772.38
381.85	688.12
382.04	706.84
382.24	777.06
382.43	763.01
382.63	779.40
382.83	798.12
383.02	720.88
383.22	737.27
383.41	678.76
383.61	763.01
383.80	753.65
384.00	758.33
384.19	748.97
384.39	781.74
384.58	765.36
384.78	828.55
384.97	854.30
385.17	763.01
385.36	774.72
385.56	730.25
385.75	830.89
385.95	896.43
386.14	875.36
386.34	748.97
386.53	844.93
386.72	861.32
386.92	903.45
387.11	814.51
387.31	898.77
387.50	858.98
387.70	873.02
387.89	858.98
388.09	882.38
388.28	898.77
388.48	863.66
388.67	1025.15
388.86	882.38
389.06	931.53
389.25	1004.09
389.45	952.60
389.64	990.05
389.84	933.87
390.03	1029.84
390.22	959.62
390.42	1022.81
390.61	1043.88
390.81	980.68
391.00	1046.22
391.19	1095.37
391.39	1018.13
391.58	1041.54
391.78	1076.65
391.97	1121.12
392.16	1020.47
392.36	1076.65
392.55	1004.09
392.75	1043.88
392.94	1004.09
393.13	994.73
393.33	1011.11
393.52	1069.62
393.71	1046.22
393.91	1118.78
394.10	1142.18
394.29	1170.27
394.49	1130.48
394.68	1226.44
394.88	1205.38
395.07	1226.44
395.26	1196.01
395.46	1203.04
395.65	1224.10
395.84	1259.21
396.04	1226.44
396.23	1179.63
396.42	1146.86
396.62	1172.61
396.81	1282.61
397.00	1210.06
397.19	1217.08
397.39	1268.57
397.58	1324.74
397.77	1352.83
397.97	1352.83
398.16	1462.83
398.35	1418.36
398.55	1411.34
398.74	1483.90
398.93	1481.56
399.12	1488.58
399.32	1437.09
399.51	1451.13
399.70	1542.41
399.90	1575.18
400.09	1582.20
400.28	1542.41
400.47	1404.32
400.67	1591.56
400.86	1610.29
401.05	1610.29
401.24	1556.46
401.44	1753.06
401.63	1699.23
401.82	1736.68
402.01	1764.76
402.21	1678.16
402.40	1781.15
402.59	1685.19
402.78	1727.32
402.97	1748.38
403.17	1671.14
403.36	1680.50
403.55	1795.19
403.74	1863.07
403.93	1795.19
404.13	1790.51
404.32	1905.20
404.51	1921.58
404.70	2036.27
404.89	1884.13
405.09	1961.37
405.28	2022.22
405.47	2083.08
405.66	1923.92
405.85	1926.26
406.05	1982.43
406.24	2062.01
406.43	1937.96
406.62	1987.11
406.81	2113.50
407.00	2181.38
407.20	1987.11
407.39	2076.06
407.58	2101.80
407.77	2064.35
407.96	2155.63
408.15	2289.04
408.34	2146.27
408.54	2314.79
408.73	2279.68
408.92	2326.49
409.11	2422.45
409.30	2335.85
409.49	2394.37
409.68	2218.83
409.87	2317.13
410.07	2307.77
410.26	2289.04
410.45	2417.77
410.64	2289.04
410.83	2506.71
411.02	2523.10
411.21	2626.08
411.40	2518.42
411.59	2546.50
411.78	2518.42
411.98	2492.67
412.17	2490.33
412.36	2684.59
412.55	2628.42
412.74	2733.75
412.93	2726.72
413.12	2708.00
413.31	2906.95
413.50	2796.94
413.69	2864.82
413.88	2862.48
414.07	2803.96
414.26	2920.99
414.45	3075.46
414.64	2881.20
414.83	2958.44
415.02	3000.57
415.22	3028.65
415.41	3117.59
415.60	2942.05
415.79	3105.89
415.98	3150.36
416.17	3208.87
416.36	3260.37
416.55	3246.32
416.74	3262.71
416.93	3145.68
417.12	3157.38
417.31	3253.34
417.50	3321.22
417.69	3370.37
417.88	3541.23
418.07	3494.42
418.26	3513.14
418.45	3363.35
418.64	3681.66
418.83	3597.40
419.02	3524.85
419.21	3571.66
419.39	3534.21
419.58	3555.27
419.77	3503.78
419.96	3599.74
420.15	3667.62
420.34	3735.50
420.53	3545.91
420.72	3744.86
420.91	3810.39
421.10	3726.13
421.29	3838.48
421.48	3719.11
421.67	3852.52
421.86	3829.12
422.05	3838.48
422.24	3843.16
422.43	3695.71
422.61	3815.07
422.80	3899.33
422.99	3833.80
423.18	4065.51
423.37	4121.68
423.56	3882.95
423.75	4002.32
423.94	3906.35
424.13	3531.87
424.32	3782.31
424.50	3859.54
424.69	4004.66
424.88	3950.82
425.07	3779.97
425.26	3894.65
425.45	3782.31
425.64	3932.10
425.83	3985.93
426.01	4086.58
426.20	4002.32
426.39	4105.30
426.58	3913.38
426.77	3967.21
426.96	4021.04
427.15	3899.33
427.33	3969.55
427.52	3976.57
427.71	4037.42
427.90	4079.55
428.09	4042.11
428.28	4063.17
428.46	4112.32
428.65	4056.15
428.84	4109.98
429.03	4344.03
429.22	4145.09
429.40	4133.39
429.59	4138.07
429.78	3911.04
429.97	3784.65
430.16	3798.69
430.34	4152.11
430.53	4170.83
430.72	4313.61
430.91	4266.80
431.10	4414.25
431.28	4367.44
431.47	4510.21
431.66	4809.80
431.85	4402.55
432.03	4503.19
432.22	4592.13
432.41	4470.42
432.60	4734.90
432.79	4711.50
432.97	4826.18
433.16	4643.62
433.35	4716.18
433.54	4540.64
433.72	4664.69
433.91	4482.13
434.10	4645.96
434.28	4840.23
434.47	4823.84
434.66	4819.16
434.85	4896.40
435.03	4959.60
435.22	4887.04
435.41	5090.67
435.59	4943.21
435.78	4950.23
435.97	5247.48
436.16	4985.34
436.34	5060.24
436.53	5188.97
436.72	5296.63
436.90	5001.72
437.09	5270.89
437.28	5144.50
437.46	5116.41
437.65	5135.14
437.84	5104.71
438.02	4964.28
438.21	5184.29
438.40	5177.26
438.58	5291.95
438.77	5441.75
438.96	5500.26
439.14	5533.03
439.33	5547.07
439.52	5460.47
439.70	5572.82
439.89	5458.13
440.08	5659.42
440.26	5577.50
440.45	5699.20
440.63	5804.53
440.82	6050.28
441.01	5863.04
441.19	5895.81
441.38	6033.90
441.57	5998.79
441.75	6083.05
441.94	6380.30
442.12	6153.27
442.31	6300.72
442.50	6193.06
442.68	6239.87
442.87	6139.23
443.05	6162.63
443.24	6572.22
443.43	6394.34
443.61	6225.82
443.80	6476.26
443.98	6296.04
444.17	6134.54
444.35	6291.36
444.54	6530.09
444.73	6408.39
444.91	6429.45
445.10	6338.17
445.28	6300.72
445.47	6321.79
445.65	6256.25
445.84	6431.79
446.02	6537.12
446.21	6658.82
446.39	6441.15
446.58	6609.67
446.77	6565.20
446.95	6462.22
447.14	6668.19
447.32	6565.20
447.51	6612.01
447.69	6462.22
447.88	6621.38
448.06	6609.67
448.25	6623.72
448.43	6696.27
448.62	6651.80
448.80	6675.21
448.99	6773.51
449.17	6799.26
449.36	6750.10
449.54	7007.56
449.73	7049.69
449.91	6953.73
450.10	7173.74
450.28	7145.66
450.46	7129.27
450.65	7140.97
450.83	7115.23
451.02	7215.87
451.20	7215.87
451.39	7145.66
451.57	7045.01
451.76	7166.72
451.94	7325.88
452.13	7325.88
452.31	7253.32
452.49	6881.18
452.68	7096.50
452.86	7148.00
453.05	7276.73
453.23	7297.79
453.42	7059.06
453.60	7272.04
453.78	7576.31
453.97	7410.14
454.15	7290.77
454.34	7250.98
454.52	7386.73
454.70	7372.69
454.89	7449.93
455.07	7466.31
455.26	7552.91
455.44	7637.17
455.62	7620.78
455.81	7602.06
455.99	7676.96
456.17	7852.50
456.36	7770.58
456.54	7805.69
456.73	7903.99
456.91	8210.60
457.09	8070.17
457.28	8072.51
457.46	8002.29
457.64	8016.33
457.83	8095.91
458.01	8138.04
458.19	8243.37
458.38	8030.38
458.56	8280.82
458.74	8145.06
458.93	8250.39
459.11	8210.60
459.29	8091.23
459.48	8224.64
459.66	8180.17
459.84	8198.90
460.03	8446.99
460.21	8629.56
460.39	8409.54
460.57	8351.03
460.76	8461.04
460.94	8650.62
461.12	8592.11
461.31	8582.74
461.49	8650.62
461.67	8704.45
461.85	8751.26
462.04	8807.44
462.22	9151.49
462.40	8627.21
462.59	8816.80
462.77	8868.29
462.95	8826.16
463.13	8753.60
463.32	8826.16
463.50	8985.32
463.68	8940.85
463.86	9071.92
464.05	8648.28
464.23	8961.91
464.41	8997.02
464.59	8805.10
464.78	9151.49
464.96	8872.97
465.14	8943.19
465.32	8933.82
465.50	9289.59
465.69	9177.24
465.87	9121.07
466.05	9167.88
466.23	9027.45
466.41	9097.66
466.60	9312.99
466.78	9097.66
466.96	9291.93
467.14	9275.54
467.32	9572.79
467.51	9469.81
467.69	9324.69
467.87	9238.09
468.05	9420.66
468.23	9563.43
468.41	9439.38
468.60	9472.15
468.78	9533.00
468.96	9535.34
469.14	9703.86
469.32	9858.34
469.50	9458.10
469.69	9654.71
469.87	9537.68
470.05	9572.79
470.23	9844.29
470.41	9755.35
470.59	9851.31
470.77	9689.82
470.95	9884.08
471.14	9984.73
471.32	9708.54
471.50	10363.89
471.68	10040.90
471.86	10429.43
472.04	10216.44
472.22	10422.41
472.40	10162.61
472.58	10457.51
472.77	10202.40
472.95	10553.48
473.13	10628.37
473.31	10530.07
473.49	10497.30
473.67	10544.11
473.85	10544.11
474.03	10993.50
474.21	11110.52
474.39	11143.29
474.57	10799.23
474.75	10822.64
474.93	11328.19
475.12	11023.92
475.30	11126.91
475.48	11098.82
475.66	11145.63
475.84	11229.89
476.02	11461.60
476.20	11438.20
476.38	11564.59
476.56	11751.83
476.74	11630.12
476.92	11833.75
477.10	11676.93
477.28	12039.72
477.46	12131.00
477.64	12123.98
477.82	12322.92
478.00	12538.25
478.18	12482.08
478.36	12468.03
478.54	12547.61
478.72	12762.94
478.90	12734.85
479.08	13055.51
479.26	12945.50
479.44	13284.88
479.62	13071.89
479.80	13282.54
479.98	13324.67
480.16	13532.98
480.34	13268.50
480.52	13701.50
480.70	13584.47
480.88	13699.16
481.06	13561.06
481.24	13914.48
481.41	14270.25
481.59	14389.61
481.77	14443.45
481.95	14291.31
482.13	14310.04
482.31	14141.52
482.49	14759.42
482.67	14862.40
482.85	15044.96
483.03	15077.73
483.21	15269.66
483.39	15227.53
483.57	15295.40
483.74	15321.15
483.92	15321.15
484.10	15496.69
484.28	15765.85
484.46	16002.24
484.64	16556.95
484.82	15990.54
485.00	16035.01
485.18	16130.97
485.35	16329.92
485.53	16170.76
485.71	16109.91
485.89	16280.77
486.07	16224.59
486.25	16475.03
486.43	16931.44
486.61	17310.60
486.78	17104.64
486.96	17160.81
487.14	17523.59
487.32	17600.83
487.50	18047.87
487.68	18010.42
487.85	18300.65
488.03	18504.28
488.21	18630.66
488.39	18295.97
488.57	18450.44
488.75	18754.71
488.92	19049.62
489.10	19161.97
489.28	19220.48
489.46	19641.78
489.64	19557.52
489.81	19981.15
489.99	19903.92
490.17	20311.17
490.35	20552.24
490.53	20070.09
490.70	20638.84
490.88	20453.94
491.06	20634.16
491.24	20339.26
491.41	20861.19
491.59	20645.87
491.77	20439.90
491.95	20971.20
492.13	21102.27
492.30	21701.45
492.48	21476.76
492.66	21706.13
492.84	21902.73
493.01	21706.13
493.19	21813.79
493.37	22384.88
493.54	22246.79
493.72	22377.86
493.90	22431.69
494.08	22836.61
494.25	22836.61
494.43	22920.87
494.61	23337.48
494.79	22951.29
494.96	23578.56
495.14	23283.65
495.32	23623.03
495.49	23489.62
495.67	23899.21
495.85	24002.19
496.02	24280.72
496.20	24231.57
496.38	24114.54
496.55	24318.17
496.73	24793.29
496.91	24886.92
497.09	24613.07
497.26	24769.89
497.44	25017.99
497.62	25130.33
497.79	25703.76
497.97	25057.78
498.14	25373.75
498.32	25560.99
498.50	25668.66
498.67	25855.90
498.85	26150.81
499.03	25951.86
499.20	26127.40
499.38	26356.77
499.56	26160.17
499.73	26223.36
499.91	26185.91
500.08	26101.65
500.26	26045.48
500.44	26780.41
500.61	26773.39
500.79	26340.39
500.97	26466.78
501.14	26670.40
501.32	26810.84
501.49	26888.07
501.67	27061.27
501.84	27470.87
502.02	27089.36
502.20	27335.12
502.37	27985.79
502.55	27529.38
502.72	27772.80
502.90	27765.78
503.07	28086.43
503.25	28369.63
503.43	28219.84
503.60	27995.15
503.78	28196.43
503.95	28439.85
504.13	28507.72
504.30	28315.80
504.48	28622.41
504.65	28830.72
504.83	28746.46
505.01	29235.63
505.18	29167.76
505.36	29542.24
505.53	29305.85
505.71	29446.28
505.88	29509.47
506.06	29029.66
506.23	29731.83
506.41	29401.81
506.58	29652.25
506.76	29982.26
506.93	30122.69
507.11	29958.86
507.28	29827.79
507.46	29769.27
507.63	30171.85
507.81	30366.11
507.98	29558.63
508.16	30558.03
508.33	30441.01
508.50	30293.55
508.68	30700.81
508.85	31089.34
509.03	30625.91
509.20	30948.90
509.38	31054.23
509.55	31173.60
509.73	31269.56
509.90	31276.58
510.08	31316.37
510.25	31178.28
510.42	31424.03
510.60	31381.90
510.77	31725.96
510.95	31398.29
511.12	31948.31
511.30	31775.11
511.47	32133.21
511.64	32046.62
511.82	31936.61
511.99	32128.53
512.17	32472.59
512.34	32170.66
512.51	32294.71
512.69	32191.73
512.86	32652.81
513.04	32783.88
513.21	32739.41
513.38	32411.74
513.56	32788.56
513.73	32191.73
513.90	32762.82
514.08	32842.40
514.25	33188.80
514.43	33472.00
514.60	33181.77
514.77	33177.09
514.95	33273.06
515.12	33226.24
515.29	33464.98
515.47	33701.37
515.64	33830.10
515.81	33539.88
515.99	33752.87
516.16	33418.17
516.33	33446.26
516.51	33333.91
516.68	33024.96
516.85	33118.58
517.03	33577.33
517.20	34174.16
517.37	34319.28
517.54	34403.53
517.72	34265.44
517.89	34101.61
518.06	33596.05
518.24	34330.98
518.41	34190.55
518.58	35049.52
518.75	34515.88
518.93	34754.61
519.10	34841.21
519.27	35005.05
519.45	35173.57
519.62	35302.30
519.79	35211.02
519.96	35468.48
520.14	35283.58
520.31	34967.60
520.48	35129.10
520.65	35372.52
520.83	35543.38
521.00	36095.74
521.17	36105.10
521.34	35852.33
521.52	35660.40
521.69	35924.88
521.86	36404.69
522.03	36184.68
522.20	36355.54
522.38	36130.85
522.55	36374.27
522.72	35665.08
522.89	36245.54
523.07	36549.81
523.24	36348.52
523.41	36830.67
523.58	36327.45
523.75	37031.96
523.92	36662.15
524.10	37352.61
524.27	37151.32
524.44	36870.46
524.61	37752.84
524.78	37628.79
524.96	37296.44
525.13	37390.06
525.30	37649.86
525.47	37460.27
525.64	37769.22
525.81	37514.11
525.98	37404.10
526.16	37013.23
526.33	36769.82
526.50	37453.25
526.67	37085.79
526.84	37317.50
527.01	37427.51
527.18	37624.11
527.36	38094.56
527.53	37766.88
527.70	38550.96
527.87	38249.03
528.04	38003.28
528.21	38033.71
528.38	38401.17
528.55	38445.64
528.72	38808.42
528.89	38934.81
529.07	38536.92
529.24	38707.78
529.41	38670.33
529.58	38747.57
529.75	38473.73
529.92	38845.87
530.09	38976.94
530.26	39042.48
530.43	39122.05
530.60	38993.32
530.77	38911.41
530.94	39494.20
531.11	39159.50
531.28	39035.45
531.46	39466.11
531.63	39765.70
531.80	39154.82
531.97	39248.44
532.14	39086.95
532.31	39019.07
532.48	39550.37
532.65	39311.64
532.82	39435.69
532.99	40016.14
533.16	39292.91
533.33	39812.51
533.50	39864.00
533.67	40201.04
533.84	39643.99
534.01	39601.86
534.18	39658.04
534.35	40261.90
534.52	39915.50
534.69	40437.44
534.86	40437.44
535.03	40458.50
535.20	40968.74
535.37	40699.58
535.54	40950.01
535.71	40514.67
535.88	40498.29
536.05	40133.17
536.22	41144.28
536.38	40961.72
536.55	40563.82
536.72	40739.36
536.89	40732.34
537.06	40645.74
537.23	40910.22
537.40	40587.23
537.57	41282.37
537.74	41226.20
537.91	41074.06
538.08	40947.67
538.25	40978.10
538.42	40650.42
538.59	41439.18
538.75	40903.20
538.92	41195.77
539.09	41626.43
539.26	41102.15
539.43	41296.41
539.60	41219.17
539.77	41193.43
539.94	41610.04
540.11	41359.61
540.28	41263.64
540.44	41352.58
540.61	41418.12
540.78	41315.14
540.95	41497.70
541.12	41537.49
541.29	41811.33
541.46	41153.64
541.62	41888.57
541.79	42127.30
541.96	41406.42
542.13	41617.07
542.30	41984.53
542.47	41619.41
542.63	42047.72
542.80	42068.79
542.97	42735.84
543.14	42270.08
543.31	42682.01
543.48	42361.36
543.64	43447.36
543.81	43082.24
543.98	42803.72
544.15	42667.97
544.32	42628.18
544.48	42976.92
544.65	43154.80
544.82	42937.13
544.99	42609.45
545.16	42897.34
545.32	42618.81
545.49	43620.56
545.66	43489.49
545.83	42885.64
546.00	43297.57
546.16	42916.06
546.33	43014.37
546.50	43056.50
546.67	42930.11
546.83	42899.68
547.00	42990.96
547.17	43246.08
547.34	42967.55
547.50	43358.42
547.67	43489.49
547.84	43442.68
548.00	43700.14
548.17	43580.78
548.34	43838.23
548.51	43421.62
548.67	43873.34
548.84	43627.59
549.01	43662.69
549.18	43517.58
549.34	43665.03
549.51	43978.67
549.68	43648.65
549.84	43896.75
550.01	43931.86
550.18	43988.03
550.34	43997.39
550.51	43943.56
550.68	44231.44
550.84	43782.06
551.01	44318.04
551.18	44264.21
551.34	44105.06
551.51	44116.76
551.68	44552.10
551.84	44273.57
552.01	43915.47
552.18	44179.95
552.34	43892.07
552.51	44088.67
552.68	44664.44
552.84	44594.23
553.01	44460.82
553.18	44381.24
553.34	44292.30
553.51	43871.00
553.67	44652.74
553.84	45001.48
554.01	44699.55
554.17	44669.12
554.34	44631.68
554.51	44910.20
554.67	44966.37
554.84	44402.30
555.00	44594.23
555.17	44793.17
555.33	44671.46
555.50	44837.64
555.67	44367.20
555.83	44177.61
556.00	44662.10
556.16	45102.12
556.33	44722.96
556.50	44800.19
556.66	44765.09
556.83	44444.43
556.99	44577.84
557.16	44957.01
557.32	44978.07
557.49	45134.89
557.65	44690.19
557.82	45265.96
557.98	45303.41
558.15	44861.05
558.32	45099.78
558.48	45076.38
558.65	44502.95
558.81	44971.05
558.98	44924.24
559.14	45076.38
559.31	44945.31
559.47	45120.85
559.64	45118.51
559.80	44814.24
559.97	45619.38
560.13	45160.64
560.30	45029.57
560.46	45415.76
560.63	45167.66
560.79	45202.77
560.96	45071.70
561.12	45614.70
561.29	45165.32
561.45	45291.71
561.61	45537.46
561.78	45081.06
561.94	45544.48
562.11	45237.87
562.27	45200.43
562.44	45387.67
562.60	45794.92
562.77	45450.86
562.93	45492.99
563.10	45656.83
563.26	45181.70
563.42	45607.68
563.59	44933.60
563.75	45006.16
563.92	45455.54
564.08	45673.21
564.24	45848.75
564.41	45567.89
564.57	45640.45
564.74	45638.11
564.90	45624.06
565.07	45834.71
565.23	45633.42
565.39	45476.61
565.56	45588.95
565.72	45254.26
565.88	45537.46
566.05	45392.35
566.21	45757.47
566.38	45818.33
566.54	45621.72
566.70	46050.04
566.87	45989.19
567.03	46209.20
567.19	46174.09
567.36	45865.14
567.52	45895.56
567.68	45911.95
567.85	45855.78
568.01	45914.29
568.17	45825.35
568.34	45970.46
568.50	45944.72
568.66	45514.06
568.83	45928.33
568.99	45556.19
569.15	45736.41
569.32	45785.56
569.48	45518.74
569.64	46150.68
569.81	45860.46
569.97	45881.52
570.13	45937.69
570.30	45481.29
570.46	45453.20
570.62	45404.05
570.78	45914.29
570.95	45717.68
571.11	46094.51
571.27	45661.51
571.43	45736.41
571.60	46256.01
571.76	45757.47
571.92	45759.81
572.09	45673.21
572.25	45713.00
572.41	45738.75
572.57	46005.57
572.74	46234.94
572.90	45670.87
573.06	46117.92
573.22	46127.28
573.38	45771.52
573.55	45865.14
573.71	46000.89
573.87	46370.69
574.03	45787.90
574.20	45837.05
574.36	45734.07
574.52	46188.13
574.68	46351.97
574.84	46003.23
575.01	45846.41
575.17	45996.21
575.33	46103.87
575.49	45954.08
575.65	45925.99
575.82	45839.39
575.98	45848.75
576.14	45794.92
576.30	46024.29
576.46	45900.25
576.62	45904.93
576.79	45933.01
576.95	45832.37
577.11	46227.92
577.27	46047.70
577.43	45991.53
577.59	46314.52
577.75	45797.26
577.92	45780.88
578.08	45670.87
578.24	46197.49
578.40	45844.07
578.56	46202.18
578.72	45748.11
578.88	45956.42
579.04	46176.43
579.21	46389.42
579.37	46021.95
579.53	45989.19
579.69	45888.54
579.85	46422.19
580.01	46246.65
580.17	45954.08
580.33	46389.42
580.49	45888.54
580.65	46234.94
580.82	46340.27
580.98	46089.83
581.14	45827.69
581.30	46466.66
581.46	46478.36
581.62	46256.01
581.78	45961.10
581.94	46445.59
582.10	46349.63
582.26	45876.84
582.42	46274.73
582.58	45890.88
582.74	45743.43
582.90	46087.49
583.06	46305.16
583.22	45963.44
583.38	46316.86
583.54	46461.97
583.70	46234.94
583.86	46340.27
584.02	46199.83
584.18	46188.13
584.34	46213.88
584.50	46036.00
584.66	46036.00
584.82	46003.23
584.98	46396.44
585.14	46272.39
585.30	46033.66
585.46	46241.96
585.62	46162.39
585.78	46309.84
585.94	45834.71
586.10	46387.08
586.26	45638.11
586.42	46225.58
586.58	46731.14
586.74	46178.77
586.90	46206.86
587.06	46305.16
587.22	46178.77
587.38	46197.49
587.54	46190.47
587.70	46314.52
587.86	46115.58
588.02	46358.99
588.18	46199.83
588.34	45970.46
588.49	45705.98
588.65	45436.82
588.81	45738.75
588.97	45497.67
589.13	45890.88
589.29	45993.87
589.45	46473.68
589.61	46005.57
589.77	46543.89
589.93	45663.85
590.08	46611.77
590.24	46199.83
590.40	46429.21
590.56	46794.33
590.72	46017.27
590.88	46155.36
591.04	46211.54
591.20	46747.52
591.35	46658.58
591.51	46719.43
591.67	46153.02
591.83	46253.67
591.99	46073.45
592.15	46330.90
592.31	46602.41
592.46	46391.76
592.62	46138.98
592.78	46827.10
592.94	46611.77
593.10	46181.11
593.26	46368.35
593.41	46461.97
593.57	46344.95
593.73	46314.52
593.89	46124.94
594.05	46518.15
594.20	46363.67
594.36	46326.22
594.52	46501.76
594.68	45787.90
594.84	46246.65
594.99	46527.51
595.15	46429.21
595.31	46415.16
595.47	46459.63
595.62	46731.14
595.78	46466.66
595.94	46665.60
596.10	46813.05
596.25	46642.20
596.41	46525.17
596.57	46389.42
596.73	46471.34
596.88	46216.22
597.04	46635.17
597.20	46581.34
597.36	46752.20
597.51	46499.42
597.67	46665.60
597.83	46494.74
597.99	46693.69
598.14	46745.18
598.30	46644.54
598.46	46770.93
598.61	46183.45
598.77	46358.99
598.93	46115.58
599.09	46298.14
599.24	46787.31
599.40	46803.69
599.56	46550.91
599.71	46689.01
599.87	46546.23
600.03	46391.76
600.18	46511.13
600.34	46459.63
600.50	46604.75
600.65	46263.03
600.81	46656.24
600.97	46476.02
601.12	46504.10
601.28	46415.16
601.44	46340.27
601.59	46115.58
601.75	46101.53
601.91	46176.43
602.06	45989.19
602.22	46550.91
602.37	46167.07
602.53	46246.65
602.69	46679.64
602.84	46616.45
603.00	46160.05
603.16	46258.35
603.31	46583.68
603.47	45720.02
603.62	46611.77
603.78	46553.26
603.94	46239.62
604.09	46756.88
604.25	46110.89
604.40	46176.43
604.56	46534.53
604.71	46328.56
604.87	46279.41
605.03	46021.95
605.18	46122.60
605.34	46464.32
605.49	45682.58
605.65	46581.34
605.80	46153.02
605.96	46557.94
606.12	46635.17
606.27	46511.13
606.43	46178.77
606.58	46686.67
606.74	46218.56
606.89	46246.65
607.05	46244.30
607.20	46155.36
607.36	46171.75
607.51	46251.33
607.67	46401.12
607.82	46263.03
607.98	46113.23
608.13	46218.56
608.29	45900.25
608.44	45799.60
608.60	45738.75
608.75	45715.34
608.91	45947.06
609.06	45645.13
609.22	45715.34
609.37	45837.05
609.53	46251.33
609.68	45631.08
609.84	45549.17
609.99	45820.67
610.15	45282.34
610.30	45743.43
610.46	45476.61
610.61	45897.91
610.76	45773.86
610.92	45593.64
611.07	45923.65
611.23	45406.39
611.38	45780.88
611.54	45270.64
611.69	45324.47
611.84	45263.62
612.00	45233.19
612.15	45162.98
612.31	45860.46
612.46	45268.30
612.62	45560.87
612.77	45441.50
612.92	45813.65
613.08	45441.50
613.23	45532.78
613.39	45500.01
613.54	44753.38
613.69	45184.04
613.85	45357.24
614.00	45415.76
614.15	45668.53
614.31	45443.84
614.46	45645.13
614.62	45399.37
614.77	45076.38
614.92	45095.10
615.08	44657.42
615.23	45048.29
615.38	44907.86
615.54	44774.45
615.69	45261.28
615.84	44882.11
616.00	44912.54
616.15	45038.93
616.30	45401.71
616.46	44849.35
616.61	44889.13
616.76	44800.19
616.92	44217.40
617.07	44442.09
617.22	44505.29
617.37	44603.59
617.53	45120.85
617.68	45146.59
617.83	44832.96
617.99	45022.54
618.14	44629.34
618.29	44524.01
618.45	44233.78
618.60	44114.42
618.75	44877.43
618.90	44540.39
619.06	45139.57
619.21	44802.53
619.36	45083.40
619.51	44484.22
619.67	44378.90
619.82	44737.00
619.97	44790.83
620.12	44095.69
620.28	44378.90
620.43	44229.10
620.58	44203.36
620.73	44432.73
620.89	44013.77
621.04	44708.91
621.19	43964.62
621.34	44437.41
621.49	44285.28
621.65	43920.15
621.80	44004.41
621.95	43973.98
622.10	44034.84
622.25	43641.63
622.41	43484.81
622.56	44194.00
622.71	43978.67
622.86	43800.79
623.01	44203.36
623.16	43655.67
623.32	43569.07
623.47	44205.70
623.62	43803.13
623.77	44023.14
623.92	43920.15
624.07	43480.13
624.23	43690.78
624.38	43636.95
624.53	43281.19
624.68	43800.79
624.83	43210.97
624.98	43402.89
625.13	43075.22
625.29	43407.58
625.44	43112.67
625.59	43070.54
625.74	43061.18
625.89	42789.67
626.04	43166.50
626.19	43044.79
626.34	43423.96
626.49	43220.33
626.65	43246.08
626.80	43562.05
626.95	43246.08
627.10	42850.53
627.25	43187.56
627.40	42766.27
627.55	42340.29
627.70	42499.45
627.85	42773.29
628.00	42719.46
628.15	42895.00
628.30	42808.40
628.45	42787.33
628.60	42885.64
628.76	42586.05
628.91	42717.12
629.06	42279.44
629.21	42485.40
629.36	42314.55
629.51	42312.20
629.66	42216.24
629.81	42337.95
629.96	42564.98
630.11	42316.89
630.26	42532.22
630.41	42745.20
630.56	42232.63
630.71	42277.10
630.86	42316.89
631.01	42300.50
631.16	42230.29
631.31	42347.31
631.46	41755.16
631.61	42644.56
631.76	42323.91
631.91	42342.63
632.06	42375.40
632.21	42164.75
632.36	42597.75
632.51	41743.45
632.66	41717.71
632.81	41504.72
632.96	41825.37
633.10	41858.14
633.25	42139.00
633.40	42249.01
633.55	42195.18
633.70	42019.64
633.85	41539.83
634.00	42003.25
634.15	41947.08
634.30	41535.15
634.45	41769.20
634.60	41820.69
634.75	41951.76
634.90	41738.77
635.05	41371.31
635.19	41134.92
635.34	41694.30
635.49	41446.21
635.64	41277.69
635.79	41375.99
635.94	41343.22
636.09	41055.34
636.24	41436.84
636.39	41394.71
636.53	41074.06
636.68	41158.32
636.83	41280.03
636.98	41546.85
637.13	41060.02
637.28	41397.06
637.43	41481.31
637.57	41457.91
637.72	41352.58
637.87	40933.63
638.02	41013.21
638.17	41518.76
638.32	41244.92
638.46	41132.57
638.61	40891.50
638.76	40802.56
638.91	41205.13
639.06	40718.30
639.20	41003.85
639.35	40884.48
639.50	41364.29
639.65	40931.29
639.80	41109.17
639.94	40835.33
640.09	40514.67
640.24	40292.32
640.39	40292.32
640.54	40465.52
640.68	40196.36
640.83	40793.20
640.98	39990.39
641.13	40414.03
641.27	40671.49
641.42	40786.18
641.57	40531.06
641.72	40418.71
641.86	40091.04
642.01	40198.70
642.16	40376.58
642.31	39819.53
642.45	40587.23
642.60	40072.31
642.75	40107.42
642.90	39992.73
643.04	40479.57
643.19	40098.06
643.34	40240.83
643.48	39744.64
643.63	39707.19
643.78	40294.66
643.93	39990.39
644.07	40053.59
644.22	39915.50
644.37	40002.10
644.51	39608.89
644.66	39852.30
644.81	40062.95
644.95	39976.35
645.10	40091.04
645.25	40219.77
645.39	40027.84
645.54	39725.91
645.69	39615.91
645.83	39838.26
645.98	39718.89
646.13	39744.64
646.27	39702.51
646.42	39580.80
646.57	39281.21
646.71	39332.70
646.86	39409.94
647.00	39524.63
647.15	39421.64
647.30	39548.03
647.44	39604.20
647.59	39370.15
647.74	39218.02
647.88	39288.23
648.03	39143.12
648.17	39665.06
648.32	39267.17
648.47	39393.56
648.61	39173.55
648.76	39143.12
648.90	39292.91
649.05	39529.31
649.20	39452.07
649.34	38871.62
649.49	39035.45
649.63	38433.94
649.78	38628.20
649.92	38925.45
650.07	38920.77
650.21	39178.23
650.36	38827.15
650.51	38836.51
650.65	39487.18
650.80	39344.41
650.94	39253.12
651.09	38738.21
651.23	39026.09
651.38	38871.62
651.52	38698.42
651.67	38557.99
651.81	38749.91
651.96	38735.87
652.10	38567.35
652.25	38562.67
652.39	38693.74
652.54	38656.29
652.68	38534.58
652.83	38602.46
652.97	38761.61
653.12	38356.70
653.26	38335.63
653.41	38017.32
653.55	38080.52
653.70	38707.78
653.84	38328.61
653.99	38220.95
654.13	38141.37
654.27	38043.07
654.42	38174.14
654.56	37963.49
654.71	38038.39
654.85	38295.85
655.00	38057.11
655.14	37916.68
655.29	37701.35
655.43	38253.72
655.57	37694.33
655.72	37230.90
655.86	37460.27
656.01	37390.06
656.15	37062.38
656.30	37317.50
656.44	37364.31
656.58	37361.97
656.73	37130.26
656.87	38178.82
657.01	37315.16
657.16	37530.49
657.30	37509.43
657.45	37006.21
657.59	37294.10
657.73	37525.81
657.88	37736.46
658.02	37289.42
658.16	37682.62
658.31	37766.88
658.45	37399.42
658.60	37244.94
658.74	37495.38
658.88	37270.69
659.03	37127.92
659.17	36996.85
659.31	37081.11
659.46	36912.59
659.60	37109.19
659.74	36809.61
659.89	37046.00
660.03	36603.64
660.17	36517.04
660.32	36739.39
660.46	36928.97
660.60	36587.25
660.74	36769.82
660.89	36957.06
661.03	36470.23
661.17	36191.70
661.32	36107.44
661.46	36573.21
661.60	36182.34
661.74	36371.92
661.89	36231.49
662.03	35950.63
662.17	36320.43
662.31	35714.23
662.46	36575.55
662.60	36194.04
662.74	35887.43
662.88	35543.38
663.03	35945.95
663.17	35655.72
663.31	35412.31
663.45	35763.39
663.60	36224.47
663.74	35761.05
663.88	35321.02
664.02	35103.35
664.17	35283.58
664.31	35414.65
664.45	35339.75
664.59	35178.25
664.73	35241.45
664.88	35754.02
665.02	35021.44
665.16	35400.60
665.30	35304.64
665.44	35332.73
665.59	34916.11
665.73	34873.98
665.87	34824.83
666.01	35143.14
666.15	35093.99
666.29	35255.49
666.44	34628.23
666.58	34665.67
666.72	34719.51
666.86	34433.96
667.00	34583.76
667.14	34480.77
667.28	34232.68
667.43	34403.53
667.57	34515.88
667.71	33954.15
667.85	34047.77
667.99	34321.62
668.13	34117.99
668.27	34178.84
668.41	34256.08
668.56	33493.07
668.70	34099.26
668.84	33921.38
668.98	33390.08
669.12	33532.86
669.26	33809.04
669.40	33448.60
669.54	33504.77
669.68	33193.48
669.82	33331.57
669.96	32996.87
670.10	33141.99
670.25	33242.63
670.39	33310.50
670.53	33085.81
670.67	33064.75
670.81	32994.53
670.95	32987.51
671.09	32823.67
671.23	32891.55
671.37	32907.93
671.51	32957.08
671.65	32652.81
671.79	32559.19
671.93	32472.59
672.07	32510.04
672.21	32566.21
672.35	32594.30
672.49	32290.03
672.63	32238.54
672.77	32381.31
672.91	32180.03
673.05	32531.11
673.19	32051.30
673.33	32414.08
673.47	31810.22
673.61	31548.08
673.75	31466.16
673.89	31309.35
674.03	31255.51
674.17	31777.45
674.31	31522.34
674.45	31248.49
674.59	31159.55
674.73	31466.16
674.87	31608.93
675.01	31185.30
675.15	31192.32
675.29	30724.21
675.43	30857.62
675.56	31229.77
675.70	31150.19
675.84	30323.98
675.98	29898.00
676.12	30513.56
676.26	30740.60
676.40	30436.33
676.54	30455.05
676.68	30946.56
676.82	29975.24
676.96	30176.53
677.10	30029.07
677.23	29663.95
677.37	29713.10
677.51	29816.08
677.65	29518.84
677.79	29280.10
677.93	29209.89
678.07	29661.61
678.21	29118.60
678.34	29048.39
678.48	28400.06
678.62	28732.42
678.76	28823.70
678.90	28575.60
679.04	28816.68
679.18	28273.67
679.31	28187.07
679.45	28371.97
679.59	27995.15
679.73	28081.75
679.87	27960.04
680.00	27793.86
680.14	28187.07
680.28	27632.36
680.42	27751.73
680.56	28067.70
680.70	27714.28
680.83	27634.71
680.97	27370.22
681.11	27536.40
681.25	27220.43
681.39	27058.93
681.52	27449.80
681.66	27278.94
681.80	27239.15
681.94	26859.99
682.07	26628.27
682.21	26768.71
682.35	26621.25
682.49	26349.75
682.62	26471.46
682.76	26356.77
682.90	26307.62
683.04	26103.99
683.17	26001.01
683.31	26286.56
683.45	25802.07
683.59	25750.57
683.72	25685.04
683.86	25738.87
684.00	25858.24
684.13	25429.92
684.27	25708.44
684.41	25158.42
684.55	25504.82
684.68	25310.55
684.82	25245.02
684.96	25106.93
685.09	24924.36
685.23	24844.79
685.37	24776.91
685.50	24748.82
685.64	24582.65
685.78	24428.17
685.91	24350.93
686.05	24367.32
686.19	23885.17
686.32	24154.33
686.46	23590.26
686.60	23445.15
686.73	23515.36
686.87	23145.56
687.01	23281.31
687.14	23044.91
687.28	22981.72
687.42	23243.86
687.55	23042.57
687.69	23311.74
687.82	22752.35
687.96	23082.36
688.10	22899.80
688.23	22803.84
688.37	22476.16
688.50	22469.14
688.64	22539.36
688.78	22380.20
688.91	22616.60
689.05	22665.75
689.18	22476.16
689.32	21893.37
689.46	22040.82
689.59	22281.90
689.73	22223.39
689.86	21956.57
690.00	21816.13
690.13	22274.88
690.27	21872.31
690.41	21502.50
690.54	21146.74
690.68	21366.75
690.81	21216.96
690.95	21195.89
691.08	21179.51
691.22	21254.40
691.35	21319.94
691.49	21095.25
691.62	21060.14
691.76	20868.22
691.89	20596.71
692.03	20484.37
692.16	20692.68
692.30	20348.62
692.43	20147.33
692.57	20194.14
692.70	20198.82
692.84	20243.29
692.97	20018.60
693.11	19969.45
693.24	20184.78
693.38	19220.48
693.51	19793.91
693.65	19611.35
693.78	19604.33
693.92	19924.98
694.05	19700.29
694.19	19063.66
694.32	19342.19
694.45	19143.24
694.59	18960.68
694.72	19166.65
694.86	19192.39
694.99	18633.00
695.13	18633.00
695.26	18733.65
695.39	18546.40
695.53	19084.73
695.66	19000.47
695.80	18511.30
695.93	18579.17
696.07	18279.58
696.20	18391.93
696.33	18099.36
696.47	18045.53
696.60	18050.21
696.73	17965.95
696.87	17535.29
697.00	17717.86
697.14	17907.44
697.27	17710.83
697.40	17652.32
697.54	17551.68
697.67	17547.00
697.80	17472.10
697.94	17118.68
698.07	17284.86
698.21	17046.12
698.34	16961.86
698.47	16912.71
698.61	16580.36
698.74	16830.79
698.87	16783.98
699.01	16545.25
699.14	16402.47
699.27	16538.23
699.40	16332.26
699.54	16535.88
699.67	16166.08
699.80	16245.66
699.94	16100.55
700.07	16053.73
700.20	15948.41
700.34	15782.23
700.47	16051.39
700.60	16355.66
700.73	15807.98
700.87	15915.64
701.00	15719.04
701.13	15545.84
701.26	15286.04
701.40	15433.49
701.53	15447.54
701.66	15433.49
701.79	15412.43
701.93	14890.49
702.06	15344.55
702.19	15044.96
702.32	15075.39
702.46	14892.83
702.59	14902.19
702.72	14878.79
702.85	14794.53
702.99	14766.44
703.12	14616.65
703.25	14527.71
703.38	14544.09
703.51	14506.64
703.65	14221.10
703.78	14078.32
703.91	14153.22
704.04	14052.58
704.17	14097.05
704.31	14295.99
704.44	13823.20
704.57	13965.98
704.70	13844.27
704.83	14139.18
704.96	13870.01
705.10	13870.01
705.23	13659.37
>>>>>End Processed Spectral Data<<<<<
