SpectraSuite Data File
++++++++++++++++++++++++++++++++++++
Date: Fri Oct 25 10:48:05 EDT 2013
User: price-jones
Dark Spectrum Present: No
Reference Spectrum Present: No
Number of Sampled Component Spectra: 1
Spectrometers: USB2+H05261
Integration Time (usec): 100000 (USB2+H05261)
Spectra Averaged: 1 (USB2+H05261)
Boxcar Smoothing: 0 (USB2+H05261)
Correct for Electrical Dark: No (USB2+H05261)
Strobe/Lamp Enabled: No (USB2+H05261)
Correct for Detector Non-linearity: No (USB2+H05261)
Correct for Stray Light: No (USB2+H05261)
Number of Pixels in Processed Spectrum: 2048
>>>>>Begin Processed Spectral Data<<<<<
365.73	100.64
365.92	100.64
366.12	100.64
366.32	4.68
366.52	23.41
366.72	100.64
366.91	42.13
367.11	30.43
367.31	30.43
367.51	4.68
367.70	63.19
367.90	11.70
368.10	0.00
368.30	53.83
368.49	77.24
368.69	0.00
368.89	91.28
369.09	0.00
369.28	117.03
369.48	0.00
369.68	135.75
369.87	100.64
370.07	70.22
370.27	154.48
370.47	180.22
370.66	440.02
370.86	416.62
371.06	414.27
371.25	521.94
371.45	477.47
371.65	456.40
371.84	407.25
372.04	393.21
372.24	465.77
372.44	484.49
372.63	482.15
372.83	510.24
373.03	543.00
373.22	465.77
373.42	526.62
373.62	517.26
373.81	468.11
374.01	510.24
374.21	620.24
374.40	512.58
374.60	599.18
374.79	547.69
374.99	589.82
375.19	559.39
375.38	507.90
375.58	489.17
375.78	533.64
375.97	624.92
376.17	631.94
376.37	524.28
376.56	503.22
376.76	540.66
376.95	496.19
377.15	573.43
377.35	636.63
377.54	641.31
377.74	629.60
377.93	528.96
378.13	610.88
378.33	723.23
378.52	681.10
378.72	589.82
378.91	603.86
379.11	627.26
379.31	657.69
379.50	596.84
379.70	699.82
379.89	753.65
380.09	578.11
380.28	608.54
380.48	629.60
380.68	685.78
380.87	706.84
381.07	622.58
381.26	685.78
381.46	627.26
381.65	688.12
381.85	678.76
382.04	702.16
382.24	763.01
382.43	737.27
382.63	674.07
382.83	608.54
383.02	765.36
383.22	725.57
383.41	695.14
383.61	746.63
383.80	772.38
384.00	662.37
384.19	709.18
384.39	709.18
384.58	744.29
384.78	791.10
384.97	730.25
385.17	807.48
385.36	791.10
385.56	765.36
385.75	702.16
385.95	711.52
386.14	795.78
386.34	807.48
386.53	739.61
386.72	753.65
386.92	840.25
387.11	868.34
387.31	774.72
387.50	793.44
387.70	763.01
387.89	777.06
388.09	821.53
388.28	823.87
388.48	807.48
388.67	917.49
388.86	945.58
389.06	784.08
389.25	868.34
389.45	812.17
389.64	837.91
389.84	868.34
390.03	901.11
390.22	891.74
390.42	896.43
390.61	821.53
390.81	947.92
391.00	961.96
391.19	940.90
391.39	805.14
391.58	924.51
391.78	898.77
391.97	1050.90
392.16	950.26
392.36	1086.01
392.55	1043.88
392.75	985.37
392.94	1090.69
393.13	929.19
393.33	924.51
393.52	910.47
393.71	1034.52
393.91	1004.09
394.10	1036.86
394.29	1062.60
394.49	999.41
394.68	1043.88
394.88	1039.20
395.07	1198.35
395.26	1128.14
395.46	1020.47
395.65	1170.27
395.84	1125.80
396.04	1086.01
396.23	997.07
396.42	1165.59
396.62	1093.03
396.81	1109.41
397.00	1086.01
397.19	1226.44
397.39	1210.06
397.58	1226.44
397.77	1212.40
397.97	1118.78
398.16	1200.69
398.35	1233.46
398.55	1231.12
398.74	1270.91
398.93	1378.58
399.12	1320.06
399.32	1249.85
399.51	1270.91
399.70	1387.94
399.90	1413.68
400.09	1289.64
400.28	1397.30
400.47	1371.55
400.67	1404.32
400.86	1376.24
401.05	1427.73
401.24	1392.62
401.44	1497.94
401.63	1490.92
401.82	1542.41
402.01	1320.06
402.21	1507.30
402.40	1423.05
402.59	1460.49
402.78	1490.92
402.97	1493.26
403.17	1561.14
403.36	1605.61
403.55	1544.75
403.74	1528.37
403.93	1542.41
404.13	1722.63
404.32	1486.24
404.51	1596.25
404.70	1598.59
404.89	1533.05
405.09	1652.42
405.28	1589.22
405.47	1687.53
405.66	1692.21
405.85	1774.13
406.05	1696.89
406.24	1650.08
406.43	1743.70
406.62	1799.87
406.81	1834.98
407.00	1842.00
407.20	1834.98
407.39	1727.32
407.58	1783.49
407.77	1858.39
407.96	1853.70
408.15	1895.83
408.34	1898.17
408.54	1966.05
408.73	1867.75
408.92	1839.66
409.11	1928.60
409.30	1991.80
409.49	1956.69
409.68	2050.31
409.87	2069.03
410.07	2024.56
410.26	2062.01
410.45	1956.69
410.64	2036.27
410.83	2087.76
411.02	2174.36
411.21	2230.53
411.40	2218.83
411.59	2209.47
411.78	2172.02
411.98	2263.30
412.17	2277.34
412.36	2244.57
412.55	2359.26
412.74	2310.11
412.93	2483.31
413.12	2356.92
413.31	2581.61
413.50	2455.22
413.69	2373.30
413.88	2567.57
414.07	2436.50
414.26	2459.90
414.45	2499.69
414.64	2630.76
414.83	2595.65
415.02	2602.68
415.22	2649.49
415.41	2619.06
415.60	2708.00
415.79	2771.19
415.98	2780.56
416.17	2764.17
416.36	2717.36
416.55	2813.32
416.74	2787.58
416.93	2963.12
417.12	3019.29
417.31	2878.86
417.50	2946.73
417.69	3047.38
417.88	3101.21
418.07	2967.80
418.26	3028.65
418.45	3021.63
418.64	3073.12
418.83	3061.42
419.02	3077.80
419.21	3164.40
419.39	3141.00
419.58	3166.74
419.77	3089.51
419.96	3150.36
420.15	3281.43
420.34	3164.40
420.53	3222.92
420.72	3295.47
420.91	3356.33
421.10	3370.37
421.29	3328.24
421.48	3255.69
421.67	3384.41
421.86	3166.74
422.05	3262.71
422.24	3414.84
422.43	3353.99
422.61	3379.73
422.80	3424.20
422.99	3414.84
423.18	3363.35
423.37	3438.25
423.56	3449.95
423.75	3534.21
423.94	3555.27
424.13	3229.94
424.32	3164.40
424.50	3363.35
424.69	3571.66
424.88	3574.00
425.07	3410.16
425.26	3510.80
425.45	3515.48
425.64	3332.92
425.83	3473.36
426.01	3541.23
426.20	3515.48
426.39	3662.94
426.58	3501.44
426.77	3452.29
426.96	3545.91
427.15	3426.54
427.33	3660.60
427.52	3604.42
427.71	3515.48
427.90	3562.30
428.09	3681.66
428.28	3660.60
428.46	3634.85
428.65	3641.87
428.84	3667.62
429.03	3829.12
429.22	3524.85
429.40	3639.53
429.59	3611.45
429.78	3538.89
429.97	3559.95
430.16	3564.64
430.34	3829.12
430.53	3833.80
430.72	3812.73
430.91	3831.46
431.10	3889.97
431.28	3967.21
431.47	4098.28
431.66	3990.61
431.85	4002.32
432.03	3920.40
432.22	4100.62
432.41	3971.89
432.60	4105.30
432.79	4018.70
432.97	4217.65
433.16	4117.00
433.35	4203.60
433.54	4121.68
433.72	4205.94
433.91	4219.99
434.10	4215.30
434.28	4184.88
434.47	4224.67
434.66	4325.31
434.85	4217.65
435.03	4339.35
435.22	4381.48
435.41	4603.83
435.59	4344.03
435.78	4337.01
435.97	4461.06
436.16	4383.82
436.34	4418.93
436.53	4411.91
436.72	4727.88
436.90	4479.79
437.09	4582.77
437.28	4416.59
437.46	4542.98
437.65	4580.43
437.84	4725.54
438.02	4716.18
438.21	4678.73
438.40	4524.26
438.58	4648.30
438.77	4753.63
438.96	4774.69
439.14	4968.96
439.33	4898.74
439.52	4975.98
439.70	4875.34
439.89	4884.70
440.08	5085.98
440.26	5174.92
440.45	4938.53
440.63	5093.01
440.82	5224.08
441.01	5219.39
441.19	5289.61
441.38	5427.70
441.57	5336.42
441.75	5366.85
441.94	5488.56
442.12	5561.11
442.31	5362.17
442.50	5511.96
442.68	5401.96
442.87	5483.88
443.05	5558.77
443.24	5490.90
443.43	5638.35
443.61	5680.48
443.80	5774.10
443.98	5462.81
444.17	5434.72
444.35	5652.39
444.54	5675.80
444.73	5783.46
444.91	5673.46
445.10	5774.10
445.28	5612.60
445.47	5727.29
445.65	5600.90
445.84	5673.46
446.02	5895.81
446.21	5701.54
446.39	5713.25
446.58	5830.27
446.77	5776.44
446.95	5619.63
447.14	5849.00
447.32	5888.79
447.51	5853.68
447.69	5870.06
447.88	5804.53
448.06	5870.06
448.25	5937.94
448.43	6031.56
448.62	5849.00
448.80	6017.52
448.99	6059.65
449.17	6127.52
449.36	6099.44
449.54	6270.30
449.73	6134.54
449.91	6188.38
450.10	6104.12
450.28	6237.53
450.46	6237.53
450.65	6293.70
450.83	6267.95
451.02	6265.61
451.20	6289.02
451.39	6239.87
451.57	6270.30
451.76	6101.78
451.94	6298.38
452.13	6286.68
452.31	6394.34
452.49	6293.70
452.68	6490.31
452.86	6436.47
453.05	6354.55
453.23	6579.25
453.42	6406.05
453.60	6384.98
453.78	6527.75
453.97	6569.88
454.15	6483.28
454.34	6403.71
454.52	6780.53
454.70	6612.01
454.89	6637.76
455.07	6579.25
455.26	6656.48
455.44	6867.13
455.62	6712.66
455.81	6672.87
455.99	6958.41
456.17	6897.56
456.36	6853.09
456.54	6986.50
456.73	7110.55
456.91	7101.19
457.09	7124.59
457.28	7140.97
457.46	7033.31
457.64	7325.88
457.83	7227.57
458.01	7155.02
458.19	7356.30
458.38	6953.73
458.56	7339.92
458.74	7335.24
458.93	7197.15
459.11	7035.65
459.29	7122.25
459.48	7356.30
459.66	7269.70
459.84	7290.77
460.03	7442.90
460.21	7482.69
460.39	7555.25
460.57	7466.31
460.76	7454.61
460.94	7452.27
461.12	7630.15
461.31	7688.66
461.49	7707.38
461.67	7517.80
461.85	7686.32
462.04	7740.15
462.22	8098.25
462.40	7854.84
462.59	7964.84
462.77	7850.16
462.95	7894.63
463.13	7693.34
463.32	7943.78
463.50	7992.93
463.68	7990.59
463.86	7985.91
464.05	8088.89
464.23	7742.49
464.41	8212.94
464.59	7906.33
464.78	7999.95
464.96	8086.55
465.14	7859.52
465.32	8074.85
465.50	8180.17
465.69	8308.90
465.87	8133.36
466.05	8105.28
466.23	8112.30
466.41	8346.35
466.60	8325.29
466.78	8341.67
466.96	8058.46
467.14	8219.96
467.32	8266.77
467.51	8409.54
467.69	8159.11
467.87	8198.90
468.05	8294.86
468.23	8416.57
468.41	8468.06
468.60	8491.46
468.78	8528.91
468.96	8526.57
469.14	8465.72
469.32	8688.07
469.50	8594.45
469.69	8636.58
469.87	8547.64
470.05	8716.16
470.23	8840.20
470.41	8765.31
470.59	8760.63
470.77	8800.41
470.95	8802.75
471.14	9060.21
471.32	8774.67
471.50	8940.85
471.68	8898.72
471.86	9076.60
472.04	9032.13
472.22	9479.17
472.40	9060.21
472.58	9200.65
472.77	9149.15
472.95	9177.24
473.13	9598.54
473.31	9502.58
473.49	9481.51
473.67	9415.98
473.85	9530.66
474.03	9671.09
474.21	9638.33
474.39	9834.93
474.57	9668.75
474.75	9879.40
474.93	9984.73
475.12	9942.60
475.30	10108.77
475.48	9921.53
475.66	10012.81
475.84	10090.05
476.02	10146.22
476.20	9989.41
476.38	10399.00
476.56	10600.29
476.74	10438.79
476.92	10455.17
477.10	10499.64
477.28	10743.06
477.46	10675.18
477.64	10937.32
477.82	11035.63
478.00	11211.17
478.18	11281.38
478.36	11110.52
478.54	11482.67
478.72	11480.33
478.90	11646.51
479.08	11620.76
479.26	11477.99
479.44	11730.76
479.62	11702.68
479.80	11653.53
479.98	12233.98
480.16	12135.68
480.34	12145.04
480.52	12304.20
480.70	12093.55
480.88	12084.19
481.06	12360.37
481.24	12369.73
481.41	12432.93
481.59	12613.15
481.77	12947.84
481.95	12580.38
482.13	12856.56
482.31	12952.52
482.49	13085.94
482.67	13116.36
482.85	13179.56
483.03	13373.82
483.21	13563.40
483.39	13855.97
483.57	13757.67
483.74	13870.01
483.92	13977.68
484.10	13846.61
484.28	14164.92
484.46	14340.46
484.64	14553.45
484.82	14340.46
485.00	14537.07
485.18	14728.99
485.35	14839.00
485.53	14829.63
485.71	14944.32
485.89	15117.52
486.07	15087.09
486.25	15075.39
486.43	15126.88
486.61	15435.83
486.78	15370.30
486.96	15833.72
487.14	15943.73
487.32	15616.05
487.50	16093.52
487.68	16348.64
487.85	16512.48
488.03	16681.00
488.21	16800.37
488.39	16755.90
488.57	16849.52
488.75	16989.95
488.92	17404.22
489.10	17427.63
489.28	17369.12
489.46	17867.65
489.64	17621.89
489.81	18038.51
489.99	18307.67
490.17	18017.44
490.35	18340.44
490.53	18139.15
490.70	18225.75
490.88	18382.57
491.06	18909.19
491.24	18801.52
491.41	18850.67
491.59	18738.33
491.77	18902.17
491.95	19016.85
492.13	19316.44
492.30	19379.64
492.48	19447.51
492.66	19487.30
492.84	19681.56
493.01	19995.20
493.19	19885.19
493.37	20133.29
493.54	20109.88
493.72	20201.16
493.90	20470.33
494.08	20638.84
494.25	20823.75
494.43	20912.69
494.61	20678.63
494.79	21186.53
494.96	21252.06
495.14	21202.91
495.32	20877.58
495.49	21394.84
495.67	21607.83
495.85	21659.32
496.02	21846.56
496.20	21926.14
496.38	22082.95
496.55	22120.40
496.73	22579.15
496.91	22122.74
497.09	22141.47
497.26	22616.60
497.44	22647.02
497.62	22532.34
497.79	23143.22
497.97	22855.33
498.14	23098.75
498.32	23194.71
498.50	23374.93
498.67	23431.10
498.85	23583.24
499.03	23688.56
499.20	23702.61
499.38	23885.17
499.56	23953.04
499.73	23955.38
499.91	23978.79
500.08	24388.38
500.26	23992.83
500.44	24322.85
500.61	24332.21
500.79	24397.74
500.97	24566.26
501.14	24699.67
501.32	25191.19
501.49	24861.17
501.67	24912.66
501.84	25556.31
502.02	24620.10
502.20	24746.48
502.37	25345.66
502.55	25350.34
502.72	25495.46
502.90	25687.38
503.07	25259.06
503.25	25612.48
503.43	25448.64
503.60	25458.01
503.78	25813.77
503.95	25804.41
504.13	26111.02
504.30	26216.34
504.48	26256.13
504.65	26216.34
504.83	26183.57
505.01	26487.84
505.18	26518.27
505.36	26895.10
505.53	26572.10
505.71	27208.73
505.88	26951.27
506.06	26724.24
506.23	27110.43
506.41	26822.54
506.58	27445.12
506.76	26986.38
506.93	27524.70
507.11	27686.20
507.28	27599.60
507.46	27487.25
507.63	27590.24
507.81	27510.66
507.98	27536.40
508.16	27943.66
508.33	28112.17
508.50	27803.22
508.68	28006.85
508.85	28276.01
509.03	28353.25
509.20	28332.18
509.38	28549.85
509.55	29078.82
509.73	28376.66
509.90	28449.21
510.08	28889.23
510.25	28734.76
510.42	28868.17
510.60	28996.90
510.77	29170.10
510.95	29266.06
511.12	29149.03
511.30	29408.83
511.47	29493.09
511.64	29483.73
511.82	29919.07
511.99	29387.77
512.17	29764.59
512.34	29785.66
512.51	29991.62
512.69	30064.18
512.86	29823.11
513.04	30174.19
513.21	30195.25
513.38	30206.95
513.56	30125.04
513.73	29895.66
513.90	30279.51
514.08	29926.09
514.25	30581.44
514.43	30377.81
514.60	30230.36
514.77	30349.73
514.95	30728.89
515.12	30972.31
515.29	30988.69
515.47	31206.36
515.64	31159.55
515.81	30955.93
515.99	31438.08
516.16	31442.76
516.33	31351.48
516.51	31356.16
516.68	31180.62
516.85	31379.56
517.03	31480.21
517.20	31356.16
517.37	31857.03
517.54	31756.39
517.72	31779.79
517.89	31599.57
518.06	31803.20
518.24	31723.62
518.41	31716.60
518.58	31449.78
518.75	31936.61
518.93	32591.96
519.10	32130.87
519.27	32591.96
519.45	32542.81
519.62	32608.34
519.79	32690.26
519.96	32690.26
520.14	32807.29
520.31	32421.10
520.48	33067.09
520.65	33259.01
520.83	32905.59
521.00	33448.60
521.17	33289.44
521.34	33205.18
521.52	32851.76
521.69	33455.62
521.86	33514.13
522.03	33780.95
522.20	33551.58
522.38	33703.71
522.55	33750.52
522.72	34003.30
522.89	33844.15
523.07	33612.43
523.24	33937.77
523.41	34169.48
523.58	34113.31
523.75	34410.56
523.92	34361.40
524.10	34366.09
524.27	34618.86
524.44	34588.44
524.61	34986.33
524.78	34834.19
524.96	34396.51
525.13	34712.49
525.30	35278.89
525.47	35248.47
525.64	35065.91
525.81	34663.33
525.98	35122.08
526.16	34995.69
526.33	35000.37
526.50	35159.53
526.67	35267.19
526.84	35023.78
527.01	35159.53
527.18	35086.97
527.36	35260.17
527.53	35793.81
527.70	35744.66
527.87	35683.81
528.04	35658.06
528.21	35927.22
528.38	35482.52
528.55	35765.73
528.72	35875.73
528.89	36510.02
529.07	35910.84
529.24	35742.32
529.41	36479.59
529.58	35941.27
529.75	36168.30
529.92	36385.97
530.09	36278.30
530.26	36575.55
530.43	36144.89
530.60	36238.51
530.77	36994.51
530.94	36573.21
531.11	36266.60
531.28	36844.71
531.46	37130.26
531.63	36739.39
531.80	36935.99
531.97	36521.72
532.14	36877.48
532.31	37085.79
532.48	36512.36
532.65	36943.02
532.82	37127.92
532.99	37364.31
533.16	36561.51
533.33	37298.78
533.50	37518.79
533.67	37392.40
533.84	37071.75
534.01	37469.64
534.18	37460.27
534.35	37832.42
534.52	37801.99
534.69	37701.35
534.86	38139.03
535.03	37656.88
535.20	37862.85
535.37	37881.57
535.54	38349.68
535.71	37666.24
535.88	37923.70
536.05	37935.40
536.22	38061.79
536.38	37844.12
536.55	38157.75
536.72	38583.73
536.89	37890.93
537.06	38181.16
537.23	38419.89
537.40	37759.86
537.57	38401.17
537.74	38450.32
537.91	38848.21
538.08	38368.40
538.25	38426.92
538.42	38398.83
538.59	38880.98
538.75	38663.31
538.92	38843.53
539.09	38593.09
539.26	38913.75
539.43	38623.52
539.60	39358.45
539.77	38768.63
539.94	39091.63
540.11	38808.42
540.28	38672.67
540.44	39461.43
540.61	38803.74
540.78	38810.76
540.95	38897.36
541.12	38778.00
541.29	39491.86
541.46	38990.98
541.62	39517.60
541.79	39199.29
541.96	39124.40
542.13	39377.17
542.30	39590.16
542.47	39934.22
542.63	39526.97
542.80	39536.33
542.97	40004.44
543.14	39997.41
543.31	39997.41
543.48	40062.95
543.64	40669.15
543.81	40493.61
543.98	39978.69
544.15	40184.66
544.32	40779.15
544.48	40491.27
544.65	40528.72
544.82	40086.36
544.99	39852.30
545.16	40498.29
545.32	40084.01
545.49	40985.12
545.66	40680.85
545.83	40500.63
546.00	41069.38
546.16	40748.73
546.33	40343.81
546.50	40481.91
546.67	41181.73
546.83	40053.59
547.00	40774.47
547.17	41109.17
547.34	41069.38
547.50	41022.57
547.67	41081.08
547.84	40945.33
548.00	41163.00
548.17	41329.18
548.34	40802.56
548.51	41111.51
548.67	41500.04
548.84	41483.66
549.01	41230.88
549.18	41177.04
549.34	41340.88
549.51	41560.89
549.68	41476.63
549.84	41542.17
550.01	41839.42
550.18	41698.98
550.34	41413.44
550.51	41462.59
550.68	41371.31
550.84	41659.20
551.01	41663.88
551.18	41425.14
551.34	41787.92
551.51	41694.30
551.68	41930.70
551.84	41701.32
552.01	41736.43
552.18	41914.31
552.34	41392.37
552.51	41921.34
552.68	42117.94
552.84	42241.99
553.01	42094.53
553.18	41776.22
553.34	41890.91
553.51	41525.78
553.67	41710.69
553.84	42660.94
554.01	42293.48
554.17	42497.11
554.34	42539.24
554.51	42670.31
554.67	42485.40
554.84	42405.83
555.00	42040.70
555.17	41942.40
555.33	42094.53
555.50	42550.94
555.67	42515.83
555.83	42597.75
556.00	42525.19
556.16	42747.54
556.33	42845.85
556.50	42862.23
556.66	42693.71
556.83	42518.17
556.99	42981.60
557.16	43014.37
557.32	42806.06
557.49	42361.36
557.65	42590.73
557.82	42997.98
557.98	42644.56
558.15	42827.12
558.32	42852.87
558.48	42658.60
558.65	42595.41
558.81	42855.21
558.98	42623.50
559.14	43026.07
559.31	43009.68
559.47	43253.10
559.64	43505.88
559.80	43522.26
559.97	43187.56
560.13	42873.93
560.30	42808.40
560.46	43210.97
560.63	43047.13
560.79	43370.13
560.96	43367.79
561.12	43264.80
561.29	42808.40
561.45	43587.80
561.61	43573.75
561.78	43409.92
561.94	43253.10
562.11	43260.12
562.27	43021.39
562.44	43213.31
562.60	43540.99
562.77	43292.89
562.93	43012.02
563.10	43814.83
563.26	42747.54
563.42	43798.44
563.59	42990.96
563.75	43330.34
563.92	43594.82
564.08	43510.56
564.24	43438.00
564.41	43821.85
564.57	43650.99
564.74	43576.09
564.90	43578.43
565.07	44048.88
565.23	43440.34
565.39	43693.12
565.56	43878.02
565.72	43297.57
565.88	44027.82
566.05	43320.98
566.21	43157.14
566.38	43475.45
566.54	44112.08
566.70	44184.63
566.87	44217.40
567.03	44095.69
567.19	43983.35
567.36	43833.55
567.52	43440.34
567.68	44102.71
567.85	43835.89
568.01	43690.78
568.17	43777.38
568.34	44158.89
568.50	43667.37
568.66	43604.18
568.83	43997.39
568.99	43646.31
569.15	44016.11
569.32	44048.88
569.48	43505.88
569.64	44060.58
569.81	44004.41
569.97	43922.49
570.13	43819.51
570.30	43744.61
570.46	43658.01
570.62	43604.18
570.78	43667.37
570.95	44058.24
571.11	44037.18
571.27	44198.68
571.43	44147.18
571.60	43910.79
571.76	43789.08
571.92	44222.08
572.09	44004.41
572.25	43992.71
572.41	44135.48
572.57	44327.41
572.74	44566.14
572.90	44041.86
573.06	44369.54
573.22	44357.83
573.38	44385.92
573.55	43566.73
573.71	43950.58
573.87	43845.26
574.03	44137.82
574.20	44133.14
574.36	44208.04
574.52	44149.53
574.68	44406.98
574.84	44334.43
575.01	44381.24
575.17	44184.63
575.33	44196.34
575.49	44339.11
575.65	43941.22
575.82	43966.96
575.98	44163.57
576.14	44626.99
576.30	43775.04
576.46	43948.24
576.62	44065.27
576.79	43929.51
576.95	43878.02
577.11	44449.11
577.27	44137.82
577.43	44023.14
577.59	44416.35
577.75	44350.81
577.92	43878.02
578.08	44112.08
578.24	43856.96
578.40	44580.18
578.56	44311.02
578.72	43828.87
578.88	44315.70
579.04	44374.22
579.21	44086.33
579.37	44030.16
579.53	44079.31
579.69	44126.12
579.85	43849.94
580.01	44278.25
580.17	44060.58
580.33	44509.97
580.49	44484.22
580.65	44626.99
580.82	44397.62
580.98	44184.63
581.14	44034.84
581.30	44463.16
581.46	43938.88
581.62	44481.88
581.78	44039.52
581.94	44816.58
582.10	44402.30
582.26	44577.84
582.42	44659.76
582.58	44591.89
582.74	44432.73
582.90	44238.47
583.06	44205.70
583.22	44341.45
583.38	44732.32
583.54	44418.69
583.70	44470.18
583.86	44058.24
584.02	44332.09
584.18	44362.51
584.34	44318.04
584.50	44545.08
584.66	44437.41
584.82	44116.76
584.98	44755.72
585.14	44357.83
585.30	44470.18
585.46	44369.54
585.62	44556.78
585.78	44404.64
585.94	44231.44
586.10	43758.66
586.26	44699.55
586.42	44645.72
586.58	44603.59
586.74	44392.94
586.90	44374.22
587.06	44140.16
587.22	44507.63
587.38	44645.72
587.54	44713.59
587.70	44615.29
587.86	44304.00
588.02	44561.46
588.18	44636.36
588.34	44439.75
588.49	44353.15
588.65	43938.88
588.81	44334.43
588.97	44275.91
589.13	44182.29
589.29	44102.71
589.45	44381.24
589.61	44884.45
589.77	44816.58
589.93	44643.38
590.08	45010.84
590.24	44769.77
590.40	44987.44
590.56	45223.83
590.72	44184.63
590.88	44575.50
591.04	44603.59
591.20	44835.30
591.35	44978.07
591.51	45462.57
591.67	44477.20
591.83	44575.50
591.99	44435.07
592.15	44439.75
592.31	44582.52
592.46	44472.52
592.62	44549.76
592.78	44411.67
592.94	44582.52
593.10	44706.57
593.26	45057.65
593.41	44746.36
593.57	44547.42
593.73	44945.31
593.89	44666.78
594.05	44671.46
594.20	44847.00
594.36	45167.66
594.52	44411.67
594.68	45055.31
594.84	45436.82
594.99	45230.85
595.15	44938.29
595.31	44849.35
595.47	44863.39
595.62	44215.06
595.78	44957.01
595.94	45116.17
596.10	45111.49
596.25	45144.25
596.41	44926.58
596.57	45102.12
596.73	44957.01
596.88	44545.08
597.04	45055.31
597.20	44893.82
597.36	44437.41
597.51	45492.99
597.67	44767.43
597.83	44825.94
597.99	45062.33
598.14	45067.02
598.30	45151.27
598.46	44762.75
598.61	44575.50
598.77	44854.03
598.93	44774.45
599.09	45287.03
599.24	45345.54
599.40	45109.14
599.56	45212.13
599.71	45270.64
599.87	45483.63
600.03	44900.84
600.18	44832.96
600.34	44924.24
600.50	44968.71
600.65	44856.37
600.81	45127.87
600.97	45134.89
601.12	45322.13
601.28	45319.79
601.44	44882.11
601.59	45099.78
601.75	44704.23
601.91	44622.31
602.06	44996.80
602.22	44896.16
602.37	44650.40
602.53	44964.03
602.69	44896.16
602.84	45062.33
603.00	44669.12
603.16	44725.30
603.31	44650.40
603.47	44725.30
603.62	44898.50
603.78	44900.84
603.94	45041.27
604.09	45287.03
604.25	44711.25
604.40	45050.63
604.56	45027.23
604.71	44814.24
604.87	44767.43
605.03	44973.39
605.18	44765.09
605.34	45226.17
605.49	44519.33
605.65	44935.95
605.80	44872.75
605.96	44884.45
606.12	44987.44
606.27	45382.99
606.43	44762.75
606.58	44779.13
606.74	44547.42
606.89	45296.39
607.05	44959.35
607.20	44673.81
607.36	44975.73
607.51	44690.19
607.67	44823.60
607.82	44877.43
607.98	44669.12
608.13	44727.64
608.29	44432.73
608.44	44292.30
608.60	43988.03
608.75	44287.62
608.91	44404.64
609.06	44081.65
609.22	45034.25
609.37	44406.98
609.53	44252.51
609.68	44449.11
609.84	44032.50
609.99	44641.04
610.15	44802.53
610.30	44435.07
610.46	44191.65
610.61	44208.04
610.76	44378.90
610.92	44287.62
611.07	44416.35
611.23	44479.54
611.38	44720.62
611.54	44184.63
611.69	43906.11
611.84	43985.69
612.00	44140.16
612.15	43985.69
612.31	44027.82
612.46	44095.69
612.62	44348.47
612.77	44009.09
612.92	44692.53
613.08	44266.55
613.23	44191.65
613.39	43901.43
613.54	43725.89
613.69	44175.27
613.85	44079.31
614.00	44451.45
614.15	44112.08
614.31	44062.93
614.46	44055.90
614.62	43831.21
614.77	43840.57
614.92	43861.64
615.08	43501.20
615.23	43599.50
615.38	43772.70
615.54	43421.62
615.69	43438.00
615.84	43084.58
616.00	43505.88
616.15	43824.19
616.30	44025.48
616.46	43456.73
616.61	43428.64
616.76	43852.28
616.92	43367.79
617.07	43433.32
617.22	43690.78
617.37	43873.34
617.53	44114.42
617.68	43852.28
617.83	43758.66
617.99	43281.19
618.14	43716.53
618.29	43423.96
618.45	43023.73
618.60	43119.69
618.75	43297.57
618.90	43564.39
619.06	43643.97
619.21	43580.78
619.36	43746.95
619.51	43456.73
619.67	42759.25
619.82	43599.50
619.97	43150.12
620.12	43299.91
620.28	42621.16
620.43	43459.07
620.58	42871.59
620.73	42923.08
620.89	43304.59
621.04	43054.15
621.19	42990.96
621.34	42895.00
621.49	42937.13
621.65	42827.12
621.80	43302.25
621.95	42852.87
622.10	42930.11
622.25	42885.64
622.41	42366.04
622.56	42344.97
622.71	43182.88
622.86	42707.76
623.01	43112.67
623.16	42717.12
623.32	42974.58
623.47	43136.07
623.62	42892.66
623.77	42532.22
623.92	42590.73
624.07	42583.71
624.23	42213.90
624.38	42181.13
624.53	42263.05
624.68	42808.40
624.83	42347.31
624.98	42824.78
625.13	42300.50
625.29	42263.05
625.44	42572.00
625.59	42082.83
625.74	42014.96
625.89	42155.39
626.04	42012.62
626.19	42216.24
626.34	42066.45
626.49	41853.46
626.65	41902.61
626.80	42370.72
626.95	41764.52
627.10	41823.03
627.25	41890.91
627.40	41486.00
627.55	41551.53
627.70	41439.18
627.85	41701.32
628.00	41432.16
628.15	41668.56
628.30	41605.36
628.45	42190.50
628.60	41808.99
628.76	42043.04
628.91	41755.16
629.06	41790.27
629.21	41326.84
629.36	41331.52
629.51	41432.16
629.66	41586.64
629.81	41621.75
629.96	41521.10
630.11	41415.78
630.26	41806.65
630.41	41406.42
630.56	41258.96
630.71	41366.63
630.86	41179.39
631.01	41298.75
631.16	41294.07
631.31	40910.22
631.46	41055.34
631.61	41134.92
631.76	41045.97
631.91	41366.63
632.06	41394.71
632.21	41675.58
632.36	41233.22
632.51	41710.69
632.66	41317.48
632.81	40556.80
632.96	40982.78
633.10	40421.05
633.25	40414.03
633.40	40645.74
633.55	41127.89
633.70	40966.40
633.85	41017.89
634.00	40701.92
634.15	40779.15
634.30	40711.28
634.45	40907.88
634.60	40495.95
634.75	40844.69
634.90	40996.82
635.05	40865.75
635.19	40744.05
635.34	41017.89
635.49	40727.66
635.64	40587.23
635.79	40245.51
635.94	40456.16
636.09	40411.69
636.24	40292.32
636.39	40292.32
636.53	40123.80
636.68	40521.69
636.83	40329.77
636.98	40559.14
637.13	40107.42
637.28	40350.84
637.43	40842.35
637.57	40446.80
637.72	40009.12
637.87	40350.84
638.02	40304.02
638.17	39739.96
638.32	40280.62
638.46	39988.05
638.61	39838.26
638.76	39690.80
638.91	40091.04
639.06	40053.59
639.20	39730.59
639.35	40009.12
639.50	39810.17
639.65	39906.13
639.80	39709.53
639.94	39798.47
640.09	39955.29
640.24	39828.90
640.39	39643.99
640.54	39571.44
640.68	39948.26
640.83	39676.76
640.98	39154.82
641.13	39260.15
641.27	39543.35
641.42	39192.27
641.57	39807.83
641.72	39503.56
641.86	39112.69
642.01	39096.31
642.16	39370.15
642.31	39023.75
642.45	39459.09
642.60	39360.79
642.75	38660.97
642.90	39173.55
643.04	39321.00
643.19	39269.51
643.34	38946.51
643.48	38899.70
643.63	39302.28
643.78	39201.63
643.93	39082.27
644.07	39028.43
644.22	38869.28
644.37	38913.75
644.51	38614.16
644.66	38749.91
644.81	38958.22
644.95	39126.74
645.10	39002.69
645.25	39358.45
645.39	39349.09
645.54	39098.65
645.69	38642.24
645.83	38557.99
645.98	38864.60
646.13	39264.83
646.27	38859.91
646.42	38581.39
646.57	38813.10
646.71	38625.86
646.86	38752.25
647.00	38806.08
647.15	38445.64
647.30	38719.48
647.44	38609.48
647.59	38815.44
647.74	38342.66
647.88	38497.13
648.03	38356.70
648.17	38281.80
648.32	38270.10
648.47	38164.78
648.61	38464.36
648.76	38363.72
648.90	38366.06
649.05	38225.63
649.20	38651.61
649.34	38600.12
649.49	38611.82
649.63	38071.15
649.78	38108.60
649.92	38267.76
650.07	38075.84
650.21	37935.40
650.36	37909.66
650.51	37846.46
650.65	38202.22
650.80	38665.65
650.94	38352.02
651.09	38279.46
651.23	37848.80
651.38	37809.01
651.52	37797.31
651.67	37844.12
651.81	38288.82
651.96	37832.42
652.10	37635.81
652.25	37696.67
652.39	37752.84
652.54	37537.51
652.68	37553.90
652.83	38246.69
652.97	38031.36
653.12	38237.33
653.26	37862.85
653.41	37743.48
653.55	36964.08
653.70	37415.80
653.84	37329.20
653.99	37605.39
654.13	37132.60
654.27	37446.23
654.42	37144.30
654.56	37242.60
654.71	37146.64
654.85	37549.21
655.00	37422.83
655.14	37200.47
655.29	36914.93
655.43	37109.19
655.57	36636.41
655.72	37226.22
655.86	37074.09
656.01	36554.49
656.15	36849.39
656.30	36706.62
656.44	36641.09
656.58	36584.91
656.73	36945.36
656.87	36982.80
657.01	36442.14
657.16	36882.16
657.30	36783.86
657.45	36781.52
657.59	36165.96
657.73	36786.20
657.88	36769.82
658.02	36575.55
658.16	36809.61
658.31	36744.07
658.45	37230.90
658.60	36666.83
658.74	36575.55
658.88	36435.12
659.03	36503.00
659.17	36617.68
659.31	36545.12
659.46	36456.18
659.60	36154.26
659.74	35967.01
659.89	35917.86
660.03	36264.26
660.17	36037.23
660.32	35784.45
660.46	36137.87
660.60	35702.53
660.74	35562.10
660.89	35992.76
661.03	36065.31
661.17	35950.63
661.32	35508.27
661.46	35566.78
661.60	35559.76
661.74	36086.38
661.89	35777.43
662.03	35573.80
662.17	35037.82
662.31	35695.51
662.46	35117.40
662.60	35454.44
662.74	35234.42
662.88	35501.25
663.03	35445.07
663.17	35321.02
663.31	34719.51
663.45	35178.25
663.60	35161.87
663.74	34981.65
663.88	34918.45
664.02	34686.74
664.17	35281.24
664.31	34703.12
664.45	34850.58
664.59	34583.76
664.73	34885.68
664.88	34775.68
665.02	34146.08
665.16	34445.66
665.30	34773.34
665.44	34230.33
665.59	34394.17
665.73	34455.03
665.87	33837.12
666.01	34078.20
666.15	34141.39
666.29	34115.65
666.44	34370.77
666.58	33710.74
666.72	34380.13
666.86	34199.91
667.00	34080.54
667.14	33773.93
667.28	33703.71
667.43	33462.64
667.57	33806.70
667.71	33656.90
667.85	33572.64
667.99	33373.70
668.13	33092.83
668.27	33441.57
668.41	33542.22
668.56	33092.83
668.70	33127.94
668.84	33315.19
668.98	32687.92
669.12	32891.55
669.26	32746.44
669.40	32706.65
669.54	33071.77
669.68	33120.92
669.82	32985.17
669.96	32591.96
670.10	32294.71
670.25	32847.08
670.39	32545.15
670.53	32526.42
670.67	32643.45
670.81	32687.92
670.95	32650.47
671.09	32484.30
671.23	32463.23
671.37	32336.84
671.51	32070.02
671.65	31789.16
671.79	32055.98
671.93	32137.90
672.07	32020.87
672.21	31772.77
672.35	31798.52
672.49	31922.57
672.63	31812.56
672.77	31758.73
672.91	31721.28
673.05	31379.56
673.19	31428.71
673.33	31468.50
673.47	31187.64
673.61	31498.93
673.75	31187.64
673.89	30768.68
674.03	30944.22
674.17	30909.11
674.31	30656.34
674.45	30705.49
674.59	30969.97
674.73	30850.60
674.87	30462.07
675.01	30841.24
675.15	30595.48
675.29	30852.94
675.43	30389.52
675.56	30150.78
675.70	30302.92
675.84	30426.96
675.98	29415.85
676.12	30022.05
676.26	29755.23
676.40	29689.70
676.54	29647.57
676.68	29806.72
676.82	29064.77
676.96	29233.29
677.10	29174.78
677.23	29331.59
677.37	28879.87
677.51	29085.84
677.65	29160.73
677.79	28657.52
677.93	28823.70
678.07	28893.91
678.21	28596.67
678.34	28395.38
678.48	28807.31
678.62	28339.21
678.76	28418.78
678.90	28177.71
679.04	28140.26
679.18	28524.11
679.31	27924.93
679.45	27653.43
679.59	27793.86
679.73	28339.21
679.87	27929.61
680.00	28032.60
680.14	27197.02
680.28	27709.60
680.42	27569.17
680.56	27131.49
680.70	27225.11
680.83	27351.50
680.97	27147.87
681.11	26773.39
681.25	26878.71
681.39	26733.60
681.52	26621.25
681.66	26738.28
681.80	26759.34
681.94	26256.13
682.07	26551.04
682.21	26230.38
682.35	26008.03
682.49	26183.57
682.62	26221.02
682.76	26108.68
682.90	26075.91
683.04	25902.71
683.17	25523.54
683.31	25612.48
683.45	25563.33
683.59	25577.37
683.72	25109.27
683.86	25263.74
684.00	25198.21
684.13	25570.35
684.27	24802.66
684.41	25050.75
684.55	24631.80
684.68	24657.54
684.82	24687.97
684.96	24355.61
685.09	24133.26
685.23	24360.30
685.37	24599.03
685.50	24240.93
685.64	24210.50
685.78	24449.24
685.91	24224.54
686.05	23646.43
686.19	23850.06
686.32	24086.45
686.46	23419.40
686.60	23049.60
686.73	23491.96
686.87	23498.98
687.01	22824.90
687.14	23000.44
687.28	23386.63
687.42	23058.96
687.55	22682.13
687.69	22998.10
687.82	22747.67
687.96	22750.01
688.10	22555.74
688.23	22511.27
688.37	22298.28
688.50	22389.56
688.64	22345.09
688.78	22221.05
688.91	22258.49
689.05	21984.65
689.18	22150.83
689.32	21507.18
689.46	21680.38
689.59	21998.70
689.73	21951.88
689.86	21729.53
690.00	21703.79
690.13	21687.40
690.27	21586.76
690.41	21628.89
690.54	21214.62
690.68	20973.54
690.81	21099.93
690.95	21099.93
691.08	21151.42
691.22	21163.12
691.35	21025.03
691.49	20868.22
691.62	20739.49
691.76	20442.24
691.89	20821.41
692.03	20393.09
692.16	20500.75
692.30	20388.41
692.43	19812.63
692.57	20299.47
692.70	20027.96
692.84	19697.95
692.97	19597.31
693.11	19606.67
693.24	19672.20
693.38	19770.51
693.51	19456.87
693.65	19552.84
693.78	19386.66
693.92	19288.35
694.05	19316.44
694.19	19103.45
694.32	19286.01
694.45	19271.97
694.59	19084.73
694.72	18970.04
694.86	18609.60
694.99	18890.46
695.13	18464.49
695.26	18195.32
695.39	18340.44
695.53	18333.42
695.66	18499.59
695.80	18265.54
695.93	17947.23
696.07	17958.93
696.20	18302.99
696.33	18148.51
696.47	17682.75
696.60	17947.23
696.73	17750.62
696.87	17912.12
697.00	17584.44
697.14	17600.83
697.27	17259.11
697.40	17238.05
697.54	17268.47
697.67	17291.88
697.80	17301.24
697.94	17263.79
698.07	17254.43
698.21	16968.88
698.34	16805.05
698.47	16706.74
698.61	16830.79
698.74	16421.20
698.87	16383.75
699.01	16189.49
699.14	16552.27
699.27	16133.31
699.40	16060.76
699.54	16219.91
699.67	15955.43
699.80	16107.57
699.94	15920.32
700.07	15845.43
700.20	15838.41
700.34	15754.15
700.47	15644.14
700.60	15751.81
700.73	16086.50
700.87	15604.35
701.00	15690.95
701.13	15613.71
701.26	15391.36
701.40	15442.85
701.53	14848.36
701.66	15227.53
701.79	15239.23
701.93	14803.89
702.06	14754.74
702.19	14988.79
702.32	14796.87
702.46	14888.15
702.59	14501.96
702.72	14913.89
702.85	14647.07
702.99	14649.41
703.12	14422.38
703.25	14492.60
703.38	14340.46
703.51	14265.57
703.65	14279.61
703.78	14352.16
703.91	14214.07
704.04	14125.13
704.17	14029.17
704.31	13816.18
704.44	13713.20
704.57	13750.65
704.70	13525.96
704.83	13551.70
704.96	13521.27
705.10	13769.37
705.23	13516.59
>>>>>End Processed Spectral Data<<<<<
