SpectraSuite Data File
++++++++++++++++++++++++++++++++++++
Date: Fri Oct 25 11:33:47 EDT 2013
User: price-jones
Dark Spectrum Present: No
Reference Spectrum Present: No
Number of Sampled Component Spectra: 1
Spectrometers: USB2+H05261
Integration Time (usec): 100000 (USB2+H05261)
Spectra Averaged: 1 (USB2+H05261)
Boxcar Smoothing: 0 (USB2+H05261)
Correct for Electrical Dark: No (USB2+H05261)
Strobe/Lamp Enabled: No (USB2+H05261)
Correct for Detector Non-linearity: No (USB2+H05261)
Correct for Stray Light: No (USB2+H05261)
Number of Pixels in Processed Spectrum: 2048
>>>>>Begin Processed Spectral Data<<<<<
365.73	351.08
365.92	351.08
366.12	351.08
366.32	198.95
366.52	156.82
366.72	182.56
366.91	201.29
367.11	182.56
367.31	203.63
367.51	177.88
367.70	119.37
367.90	252.78
368.10	173.20
368.30	191.92
368.49	222.35
368.69	161.50
368.89	126.39
369.09	215.33
369.28	189.58
369.48	208.31
369.68	238.73
369.87	166.18
370.07	269.16
370.27	320.65
370.47	311.29
370.66	447.04
370.86	444.70
371.06	500.87
371.25	610.88
371.45	585.13
371.65	543.00
371.84	559.39
372.04	491.51
372.24	580.45
372.44	617.90
372.63	510.24
372.83	580.45
373.03	648.33
373.22	636.63
373.42	585.13
373.62	643.65
373.81	578.11
374.01	716.20
374.21	667.05
374.40	657.69
374.60	709.18
374.79	585.13
374.99	678.76
375.19	711.52
375.38	683.44
375.58	648.33
375.78	662.37
375.97	692.80
376.17	718.54
376.37	716.20
376.56	674.07
376.76	624.92
376.95	552.37
377.15	631.94
377.35	706.84
377.54	748.97
377.74	739.61
377.93	709.18
378.13	678.76
378.33	713.86
378.52	706.84
378.72	692.80
378.91	716.20
379.11	734.93
379.31	765.36
379.50	683.44
379.70	692.80
379.89	758.33
380.09	702.16
380.28	746.63
380.48	751.31
380.68	674.07
380.87	802.80
381.07	744.29
381.26	758.33
381.46	772.38
381.65	753.65
381.85	772.38
382.04	704.50
382.24	812.17
382.43	772.38
382.63	732.59
382.83	791.10
383.02	844.93
383.22	828.55
383.41	805.14
383.61	751.31
383.80	828.55
384.00	816.85
384.19	849.61
384.39	842.59
384.58	828.55
384.78	798.12
384.97	781.74
385.17	830.89
385.36	833.23
385.56	851.96
385.75	734.93
385.95	786.42
386.14	858.98
386.34	940.90
386.53	917.49
386.72	880.04
386.92	884.72
387.11	933.87
387.31	851.96
387.50	884.72
387.70	866.00
387.89	896.43
388.09	903.45
388.28	952.60
388.48	912.81
388.67	938.55
388.86	889.40
389.06	924.51
389.25	1022.81
389.45	915.15
389.64	966.64
389.84	1064.94
390.03	933.87
390.22	915.15
390.42	1022.81
390.61	983.02
390.81	973.66
391.00	985.37
391.19	1025.15
391.39	1078.99
391.58	1050.90
391.78	983.02
391.97	1090.69
392.16	1006.43
392.36	1053.24
392.55	1107.07
392.75	1057.92
392.94	1015.79
393.13	1128.14
393.33	1015.79
393.52	1020.47
393.71	1139.84
393.91	1046.22
394.10	1013.45
394.29	1081.33
394.49	1121.12
394.68	1158.57
394.88	1125.80
395.07	1203.04
395.26	1123.46
395.46	1139.84
395.65	1193.67
395.84	1242.82
396.04	1259.21
396.23	1291.98
396.42	1240.48
396.62	1193.67
396.81	1256.87
397.00	1210.06
397.19	1188.99
397.39	1196.01
397.58	1231.12
397.77	1226.44
397.97	1214.74
398.16	1254.53
398.35	1240.48
398.55	1198.35
398.74	1294.32
398.93	1362.19
399.12	1362.19
399.32	1306.02
399.51	1399.64
399.70	1397.30
399.90	1355.17
400.09	1334.11
400.28	1411.34
400.47	1401.98
400.67	1235.80
400.86	1427.73
401.05	1446.45
401.24	1378.58
401.44	1404.32
401.63	1439.43
401.82	1441.77
402.01	1467.52
402.21	1458.15
402.40	1544.75
402.59	1547.09
402.78	1418.36
402.97	1547.09
403.17	1556.46
403.36	1568.16
403.55	1589.22
403.74	1540.07
403.93	1519.01
404.13	1654.76
404.32	1619.65
404.51	1671.14
404.70	1654.76
404.89	1621.99
405.09	1689.87
405.28	1722.63
405.47	1645.40
405.66	1703.91
405.85	1734.34
406.05	1788.17
406.24	1769.44
406.43	1785.83
406.62	1732.00
406.81	1785.83
407.00	1858.39
407.20	1739.02
407.39	1762.42
407.58	1874.77
407.77	1874.77
407.96	1825.62
408.15	1881.79
408.34	1811.57
408.54	1909.88
408.73	1914.56
408.92	1813.92
409.11	1944.99
409.30	1954.35
409.49	1994.14
409.68	2019.88
409.87	2038.61
410.07	2106.48
410.26	2008.18
410.45	2066.69
410.64	2059.67
410.83	2120.53
411.02	2087.76
411.21	2136.91
411.40	2237.55
411.59	2200.10
411.78	2289.04
411.98	2167.34
412.17	2258.62
412.36	2406.07
412.55	2263.30
412.74	2293.72
412.93	2354.58
413.12	2310.11
413.31	2441.18
413.50	2345.22
413.69	2413.09
413.88	2473.95
414.07	2356.92
414.26	2520.76
414.45	2537.14
414.64	2499.69
414.83	2715.02
415.02	2684.59
415.22	2677.57
415.41	2644.81
415.60	2586.29
415.79	2705.66
415.98	2761.83
416.17	2764.17
416.36	2693.96
416.55	2752.47
416.74	2827.37
416.93	2815.66
417.12	2827.37
417.31	2878.86
417.50	2977.16
417.69	3009.93
417.88	2981.84
418.07	2911.63
418.26	2871.84
418.45	3052.06
418.64	3201.85
418.83	3089.51
419.02	3009.93
419.21	2944.39
419.39	3080.14
419.58	2974.82
419.77	3094.19
419.96	3267.39
420.15	3222.92
420.34	3136.32
420.53	3222.92
420.72	3325.90
420.91	3234.62
421.10	3272.07
421.29	3300.16
421.48	3211.22
421.67	3295.47
421.86	3258.03
422.05	3227.60
422.24	3370.37
422.43	3328.24
422.61	3283.77
422.80	3265.05
422.99	3410.16
423.18	3433.57
423.37	3431.23
423.56	3527.19
423.75	3328.24
423.94	3361.01
424.13	3279.09
424.32	3290.79
424.50	3368.03
424.69	3571.66
424.88	3426.54
425.07	3424.20
425.26	3370.37
425.45	3515.48
425.64	3494.42
425.83	3482.72
426.01	3487.40
426.20	3492.08
426.39	3417.18
426.58	3571.66
426.77	3609.11
426.96	3658.26
427.15	3571.66
427.33	3508.46
427.52	3538.89
427.71	3669.96
427.90	3494.42
428.09	3676.98
428.28	3810.39
428.46	3669.96
428.65	3672.30
428.84	3836.14
429.03	3838.48
429.22	3698.05
429.40	3782.31
429.59	3873.59
429.78	3653.58
429.97	3737.84
430.16	3808.05
430.34	3831.46
430.53	3957.85
430.72	3887.63
430.91	3943.80
431.10	3911.04
431.28	3857.20
431.47	3918.06
431.66	4009.34
431.85	3971.89
432.03	4084.23
432.22	3960.19
432.41	4093.60
432.60	4046.79
432.79	3929.76
432.97	4109.98
433.16	4098.28
433.35	4121.68
433.54	4133.39
433.72	4250.41
433.91	4142.75
434.10	4145.09
434.28	4128.70
434.47	4222.33
434.66	4421.27
434.85	4264.46
435.03	4379.14
435.22	4367.44
435.41	4631.92
435.59	4482.13
435.78	4400.21
435.97	4255.09
436.16	4451.70
436.34	4285.52
436.53	4535.96
436.72	4477.44
436.90	4451.70
437.09	4512.55
437.28	4428.29
437.46	4545.32
437.65	4477.44
437.84	4475.10
438.02	4704.48
438.21	4718.52
438.40	4507.87
438.58	4697.46
438.77	4851.93
438.96	4791.08
439.14	4870.65
439.33	4880.02
439.52	4915.12
439.70	4952.57
439.89	4929.17
440.08	5055.56
440.26	5177.26
440.45	5048.54
440.63	4983.00
440.82	5217.05
441.01	5261.52
441.19	5287.27
441.38	5334.08
441.57	5303.65
441.75	5221.74
441.94	5430.04
442.12	5259.18
442.31	5462.81
442.50	5542.39
442.68	5497.92
442.87	5514.30
443.05	5610.26
443.24	5408.98
443.43	5486.22
443.61	5645.37
443.80	5785.80
443.98	5430.04
444.17	5334.08
444.35	5696.86
444.54	5804.53
444.73	5727.29
444.91	5680.48
445.10	5785.80
445.28	5713.25
445.47	5727.29
445.65	5771.76
445.84	5788.14
446.02	5830.27
446.21	5661.76
446.39	5563.45
446.58	5870.06
446.77	5839.64
446.95	5563.45
447.14	5694.52
447.32	5998.79
447.51	5750.70
447.69	5605.58
447.88	5811.55
448.06	5816.23
448.25	5928.58
448.43	6010.50
448.62	5944.96
448.80	5853.68
448.99	5907.51
449.17	5841.98
449.36	5816.23
449.54	6101.78
449.73	6197.74
449.91	6157.95
450.10	5963.68
450.28	6146.25
450.46	6195.40
450.65	6232.85
450.83	6321.79
451.02	6012.84
451.20	6202.42
451.39	6120.50
451.57	6092.41
451.76	6186.04
451.94	6188.38
452.13	6410.73
452.31	6396.68
452.49	6265.61
452.68	6413.07
452.86	6303.06
453.05	6415.41
453.23	6375.62
453.42	6406.05
453.60	6349.87
453.78	6473.92
453.97	6483.28
454.15	6452.86
454.34	6499.67
454.52	6635.42
454.70	6576.91
454.89	6576.91
455.07	6841.39
455.26	6733.72
455.44	6581.59
455.62	6806.28
455.81	6640.10
455.99	6736.06
456.17	6747.76
456.36	6773.51
456.54	6909.26
456.73	6909.26
456.91	7101.19
457.09	6972.46
457.28	7187.79
457.46	6902.24
457.64	7059.06
457.83	7000.54
458.01	7108.21
458.19	7241.62
458.38	7166.72
458.56	7073.10
458.74	7183.10
458.93	7185.44
459.11	7166.72
459.29	7262.68
459.48	7351.62
459.66	7304.81
459.84	7344.60
460.03	7267.36
460.21	7616.10
460.39	7489.71
460.57	7562.27
460.76	7433.54
460.94	7545.89
461.12	7424.18
461.31	7496.74
461.49	7496.74
461.67	7431.20
461.85	7700.36
462.04	7478.01
462.22	8011.65
462.40	7707.38
462.59	7679.30
462.77	7728.45
462.95	7779.94
463.13	7681.64
463.32	7922.71
463.50	7892.29
463.68	7978.89
463.86	8105.28
464.05	7854.84
464.23	7896.97
464.41	7913.35
464.59	7934.42
464.78	8051.44
464.96	8009.31
465.14	8093.57
465.32	7915.69
465.50	8149.75
465.69	8077.19
465.87	8018.68
466.05	8215.28
466.23	8332.31
466.41	8138.04
466.60	8322.94
466.78	8131.02
466.96	8294.86
467.14	8107.62
467.32	8404.86
467.51	8468.06
467.69	8187.19
467.87	8311.24
468.05	8585.08
468.23	8381.46
468.41	8241.03
468.60	8418.91
468.78	8585.08
468.96	8411.89
469.14	8720.84
469.32	8709.13
469.50	8477.42
469.69	8610.83
469.87	8849.57
470.05	8765.31
470.23	8870.63
470.41	8851.91
470.59	8699.77
470.77	8861.27
470.95	8997.02
471.14	8975.95
471.32	8938.51
471.50	9107.02
471.68	9048.51
471.86	9102.34
472.04	9078.94
472.22	9200.65
472.40	9090.64
472.58	9177.24
472.77	9481.51
472.95	9275.54
473.13	9736.63
473.31	9371.50
473.49	9404.27
473.67	9338.74
473.85	9579.81
474.03	9722.59
474.21	9776.42
474.39	9799.82
474.57	10012.81
474.75	10003.45
474.93	10045.58
475.12	9914.51
475.30	9818.55
475.48	9802.16
475.66	9996.43
475.84	10022.17
476.02	10300.70
476.20	10403.68
476.38	10476.24
476.56	10621.35
476.74	10509.01
476.92	10602.63
477.10	10317.08
477.28	10614.33
477.46	10628.37
477.64	10590.92
477.82	11014.56
478.00	11288.40
478.18	11066.05
478.36	11089.46
478.54	11349.26
478.72	11311.81
478.90	11510.75
479.08	11719.06
479.26	11765.87
479.44	11592.67
479.62	11641.82
479.80	11899.28
479.98	11990.56
480.16	12308.88
480.34	12353.35
480.52	12245.68
480.70	12292.49
480.88	12152.06
481.06	12278.45
481.24	12369.73
481.41	12547.61
481.59	12573.36
481.77	12809.75
481.95	12833.16
482.13	13057.85
482.31	13018.06
482.49	13408.93
482.67	13284.88
482.85	13633.62
483.03	13528.30
483.21	13575.11
483.39	13816.18
483.57	13525.96
483.74	13809.16
483.92	14080.66
484.10	13776.39
484.28	14171.94
484.46	14492.60
484.64	14794.53
484.82	14696.22
485.00	14766.44
485.18	14932.62
485.35	15199.44
485.53	15131.56
485.71	15115.18
485.89	15625.42
486.07	15358.60
486.25	15407.75
486.43	15573.92
486.61	15878.19
486.78	15885.22
486.96	15789.25
487.14	16329.92
487.32	16217.57
487.50	16329.92
487.68	16805.05
487.85	16538.23
488.03	16638.87
488.21	17092.93
488.39	17156.13
488.57	17371.46
488.75	17252.09
488.92	17401.88
489.10	17544.66
489.28	17619.55
489.46	17680.41
489.64	17844.24
489.81	18347.46
489.99	17816.16
490.17	18029.15
490.35	18485.55
490.53	18466.83
490.70	18834.29
490.88	18803.86
491.06	19019.19
491.24	18909.19
491.41	18771.10
491.59	19061.32
491.77	19066.00
491.95	19358.57
492.13	19777.53
492.30	19644.12
492.48	19716.67
492.66	19960.09
492.84	19978.81
493.01	19941.36
493.19	20142.65
493.37	20365.00
493.54	20341.60
493.72	20540.54
493.90	20524.16
494.08	20877.58
494.25	20631.82
494.43	21317.60
494.61	21252.06
494.79	21184.19
494.96	21298.88
495.14	21586.76
495.32	22008.06
495.49	21528.25
495.67	22045.51
495.85	21923.80
496.02	22132.11
496.20	22143.81
496.38	22359.14
496.55	22682.13
496.73	23054.28
496.91	22544.04
497.09	22806.18
497.26	23108.11
497.44	23009.81
497.62	23192.37
497.79	23545.79
497.97	23297.69
498.14	23594.94
498.32	23688.56
498.50	23658.14
498.67	24072.41
498.85	23892.19
499.03	24039.64
499.20	23831.33
499.38	24254.97
499.56	24212.84
499.73	24823.72
499.91	24568.60
500.08	24484.34
500.26	24797.98
500.44	24769.89
500.61	24882.24
500.79	24912.66
500.97	25212.25
501.14	25401.83
501.32	25266.08
501.49	25474.39
501.67	25348.00
501.84	25813.77
502.02	25387.79
502.20	25680.36
502.37	26073.57
502.55	25762.28
502.72	25937.82
502.90	26214.00
503.07	26031.44
503.25	26347.41
503.43	26017.40
503.60	26541.68
503.78	26588.49
503.95	26431.67
504.13	26721.90
504.30	26714.87
504.48	26689.13
504.65	26911.48
504.83	26958.29
505.01	27164.26
505.18	27372.57
505.36	26913.82
505.53	27363.20
505.71	27566.83
505.88	27782.16
506.06	27487.25
506.23	27557.47
506.41	27559.81
506.58	27960.04
506.76	27974.08
506.93	28212.82
507.11	28030.26
507.28	28268.99
507.46	28011.53
507.63	28566.24
507.81	28744.12
507.98	28205.80
508.16	28194.09
508.33	28816.68
508.50	28720.71
508.68	28821.36
508.85	29186.48
509.03	28751.14
509.20	29504.79
509.38	29486.07
509.55	29455.64
509.73	29404.15
509.90	29326.91
510.08	29324.57
510.25	29750.55
510.42	30064.18
510.60	29776.30
510.77	30108.65
510.95	30504.20
511.12	29940.13
511.30	30136.74
511.47	30050.14
511.64	30492.50
511.82	30162.48
511.99	30799.11
512.17	30267.81
512.34	30426.96
512.51	31262.54
512.69	31292.96
512.86	30735.92
513.04	30857.62
513.21	31082.31
513.38	30902.09
513.56	31473.18
513.73	30869.33
513.90	31262.54
514.08	31819.58
514.25	31278.92
514.43	31583.19
514.60	31531.70
514.77	32055.98
514.95	31730.64
515.12	31784.48
515.29	32051.30
515.47	32196.41
515.64	32168.32
515.81	31800.86
515.99	32378.97
516.16	32397.70
516.33	32245.56
516.51	32533.45
516.68	31971.72
516.85	32680.90
517.03	32704.31
517.20	33163.05
517.37	32694.94
517.54	32947.72
517.72	32898.57
517.89	32987.51
518.06	33031.98
518.24	33053.05
518.41	32723.03
518.58	32964.10
518.75	33031.98
518.93	33472.00
519.10	33408.81
519.27	33752.87
519.45	33589.03
519.62	33956.49
519.79	33841.81
519.96	33977.56
520.14	33635.84
520.31	33603.07
520.48	33734.14
520.65	34092.24
520.83	34389.49
521.00	34579.07
521.17	34546.31
521.34	34522.90
521.52	34639.93
521.69	34635.25
521.86	34904.41
522.03	34632.91
522.20	34939.52
522.38	35122.08
522.55	35164.21
522.72	35037.82
522.89	35325.71
523.07	35517.63
523.24	35363.15
523.41	35218.04
523.58	35194.64
523.75	35522.31
523.92	35768.07
524.10	35541.03
524.27	35871.05
524.44	35590.19
524.61	35906.16
524.78	35842.96
524.96	36149.57
525.13	36032.55
525.30	36561.51
525.47	36257.24
525.64	36334.48
525.81	36390.65
525.98	36652.79
526.16	36187.02
526.33	36058.29
526.50	36765.14
526.67	35967.01
526.84	36589.59
527.01	36671.51
527.18	36542.78
527.36	36542.78
527.53	37235.58
527.70	37109.19
527.87	37530.49
528.04	36861.10
528.21	37635.81
528.38	37371.33
528.55	37322.18
528.72	37177.07
528.89	36980.46
529.07	37017.91
529.24	37294.10
529.41	37605.39
529.58	37574.96
529.75	37567.94
529.92	38136.69
530.09	37598.37
530.26	38190.52
530.43	37804.33
530.60	37392.40
530.77	37504.74
530.94	37635.81
531.11	37769.22
531.28	38066.47
531.46	38417.55
531.63	38480.75
531.80	38291.16
531.97	38506.49
532.14	38246.69
532.31	37703.69
532.48	38630.54
532.65	38576.71
532.82	38462.02
532.99	38740.55
533.16	38806.08
533.33	38890.34
533.50	38838.85
533.67	38904.38
533.84	38607.14
534.01	38766.29
534.18	38628.20
534.35	39133.76
534.52	39124.40
534.69	39384.19
534.86	39608.89
535.03	39103.33
535.20	39814.85
535.37	39856.98
535.54	39433.35
535.71	39196.95
535.88	39562.08
536.05	39468.45
536.22	40004.44
536.38	39618.25
536.55	39470.79
536.72	39718.89
536.89	39672.08
537.06	39651.02
537.23	40004.44
537.40	39859.32
537.57	40079.33
537.74	40322.75
537.91	40456.16
538.08	40383.60
538.25	39821.87
538.42	40093.38
538.59	40554.46
538.75	40053.59
538.92	40451.48
539.09	40725.32
539.26	40535.74
539.43	40287.64
539.60	40449.14
539.77	40776.81
539.94	41153.64
540.11	40947.67
540.28	40842.35
540.44	40629.36
540.61	40793.20
540.78	40942.99
540.95	41251.94
541.12	41361.95
541.29	41177.04
541.46	40982.78
541.62	40978.10
541.79	41095.13
541.96	40753.41
542.13	41265.99
542.30	41060.02
542.47	41434.50
542.63	41469.61
542.80	41734.09
542.97	41776.22
543.14	41614.72
543.31	41727.07
543.48	41717.71
543.64	41986.87
543.81	42211.56
543.98	42103.90
544.15	42113.26
544.32	42501.79
544.48	42604.77
544.65	41993.89
544.82	42405.83
544.99	42031.34
545.16	42485.40
545.32	42206.88
545.49	42794.36
545.66	42930.11
545.83	42827.12
546.00	42946.49
546.16	42726.48
546.33	42651.58
546.50	42307.52
546.67	42555.62
546.83	42169.43
547.00	43063.52
547.17	42436.25
547.34	42539.24
547.50	43353.74
547.67	43147.78
547.84	43037.77
548.00	43075.22
548.17	43129.05
548.34	43304.59
548.51	43739.93
548.67	43110.33
548.84	43196.93
549.01	43438.00
549.18	43248.42
549.34	43700.14
549.51	43232.04
549.68	43456.73
549.84	43660.35
550.01	43412.26
550.18	43154.80
550.34	43416.94
550.51	43753.97
550.68	43618.22
550.84	43395.87
551.01	43529.28
551.18	43686.10
551.34	43611.20
551.51	43735.25
551.68	43594.82
551.84	43894.41
552.01	43875.68
552.18	43847.60
552.34	44201.02
552.51	43945.90
552.68	43995.05
552.84	43875.68
553.01	44355.49
553.18	44098.03
553.34	44175.27
553.51	44280.60
553.67	43985.69
553.84	44561.46
554.01	44208.04
554.17	44423.37
554.34	44292.30
554.51	44573.16
554.67	44769.77
554.84	44589.55
555.00	44652.74
555.17	44774.45
555.33	44500.61
555.50	45165.32
555.67	44617.63
555.83	44327.41
556.00	44816.58
556.16	45413.41
556.33	45020.20
556.50	44591.89
556.66	44875.09
556.83	44449.11
556.99	45226.17
557.16	45446.18
557.32	45221.49
557.49	45401.71
557.65	44945.31
557.82	45177.02
557.98	45038.93
558.15	44940.63
558.32	45088.08
558.48	45467.25
558.65	45312.77
558.81	45155.96
558.98	45553.85
559.14	45085.74
559.31	45055.31
559.47	45404.05
559.64	45441.50
559.80	45500.01
559.97	45504.70
560.13	45045.95
560.30	45415.76
560.46	45851.09
560.63	45715.34
560.79	45794.92
560.96	45675.55
561.12	45984.51
561.29	45925.99
561.45	45612.36
561.61	45815.99
561.78	45783.22
561.94	45553.85
562.11	45745.77
562.27	45481.29
562.44	45769.18
562.60	45958.76
562.77	45832.37
562.93	45305.75
563.10	45858.12
563.26	45979.82
563.42	46134.30
563.59	46043.02
563.75	46241.96
563.92	45771.52
564.08	45490.65
564.24	46265.37
564.41	46073.45
564.57	46293.46
564.74	46562.62
564.90	45815.99
565.07	46073.45
565.23	45925.99
565.39	46270.05
565.56	46293.46
565.72	45811.31
565.88	46206.86
566.05	46050.04
566.21	46171.75
566.38	46375.37
566.54	46288.77
566.70	46492.40
566.87	46335.59
567.03	46232.60
567.19	46394.10
567.36	46295.80
567.52	46146.00
567.68	46752.20
567.85	46223.24
568.01	46829.44
568.17	46298.14
568.34	46363.67
568.50	46469.00
568.66	46501.76
568.83	46838.80
568.99	46288.77
569.15	46450.27
569.32	46733.48
569.48	46988.60
569.64	46953.49
569.81	46684.33
569.97	46333.24
570.13	46700.71
570.30	46246.65
570.46	46604.75
570.62	46824.76
570.78	46663.26
570.95	46831.78
571.11	47049.45
571.27	46595.38
571.43	46466.66
571.60	46670.28
571.76	46632.83
571.92	46728.80
572.09	46611.77
572.25	46569.64
572.41	46438.57
572.57	46815.40
572.74	47246.05
572.90	46677.30
573.06	47070.51
573.22	46897.31
573.38	46916.04
573.55	47171.16
573.71	47482.45
573.87	47035.41
574.03	46848.16
574.20	47061.15
574.36	46794.33
574.52	47180.52
574.68	47175.84
574.84	47295.21
575.01	47281.16
575.17	47232.01
575.33	47309.25
575.49	46981.57
575.65	47075.19
575.82	46990.94
575.98	47065.83
576.14	47414.57
576.30	47746.93
576.46	46724.11
576.62	46777.95
576.79	47285.84
576.95	46412.82
577.11	46515.81
577.27	47154.77
577.43	47119.66
577.59	46918.38
577.75	47000.30
577.92	46501.76
578.08	47215.63
578.24	46705.39
578.40	47229.67
578.56	47288.18
578.72	46852.84
578.88	47012.00
579.04	46932.42
579.21	46885.61
579.37	47473.09
579.53	47477.77
579.69	47126.69
579.85	46976.89
580.01	47192.22
580.17	47096.26
580.33	47217.97
580.49	47063.49
580.65	47393.51
580.82	47271.80
580.98	46951.15
581.14	46939.44
581.30	47372.44
581.46	47309.25
581.62	46560.28
581.78	46913.70
581.94	47543.30
582.10	47044.77
582.26	47508.19
582.42	47681.39
582.58	47716.50
582.74	47641.60
582.90	47143.07
583.06	47147.75
583.22	47311.59
583.38	47304.57
583.54	47473.09
583.70	47281.16
583.86	47098.60
584.02	47222.65
584.18	47475.43
584.34	47742.25
584.50	47782.04
584.66	47753.95
584.82	47573.73
584.98	47988.00
585.14	47606.50
585.30	47047.11
585.46	47716.50
585.62	47030.72
585.78	47442.66
585.94	47206.26
586.10	47035.41
586.26	47068.17
586.42	47569.05
586.58	47430.96
586.74	47363.08
586.90	47232.01
587.06	47056.47
587.22	47449.68
587.38	46965.19
587.54	47559.69
587.70	47711.82
587.86	47601.82
588.02	47487.13
588.18	47187.54
588.34	47414.57
588.49	47084.56
588.65	47395.85
588.81	47524.58
588.97	47517.56
589.13	47838.21
589.29	47224.99
589.45	47966.94
589.61	47461.38
589.77	47559.69
589.93	47662.67
590.08	47531.60
590.24	47910.77
590.40	47880.34
590.56	48264.19
590.72	48067.58
590.88	47346.70
591.04	47962.26
591.20	48231.42
591.35	47800.76
591.51	48318.02
591.67	48013.75
591.83	48413.98
591.99	48016.09
592.15	47793.74
592.31	47810.12
592.46	47814.80
592.62	47583.09
592.78	48149.50
592.94	48278.23
593.10	48009.07
593.26	48039.50
593.41	48090.99
593.57	47896.72
593.73	48238.44
593.89	48121.41
594.05	48341.42
594.20	48357.81
594.36	48507.60
594.52	48098.01
594.68	48318.02
594.84	48098.01
594.99	48507.60
595.15	47709.48
595.31	48236.10
595.47	48257.17
595.62	47931.83
595.78	47767.99
595.94	47988.00
596.10	47955.24
596.25	48095.67
596.41	48193.97
596.57	47985.66
596.73	48360.15
596.88	48053.54
597.04	48619.95
597.20	48332.06
597.36	48385.89
597.51	48095.67
597.67	48016.09
597.83	48261.85
597.99	48018.43
598.14	48170.57
598.30	48486.54
598.46	48301.64
598.61	48105.03
598.77	48336.74
598.93	48610.59
599.09	48184.61
599.24	48528.67
599.40	48147.16
599.56	48161.20
599.71	48360.15
599.87	48926.56
600.03	48563.78
600.18	48535.69
600.34	48301.64
600.50	48421.00
600.65	48343.77
600.81	48683.14
600.97	48423.34
601.12	48486.54
601.28	48114.39
601.44	48086.31
601.59	48516.96
601.75	48341.42
601.91	48725.27
602.06	48261.85
602.22	48624.63
602.37	48322.70
602.53	48451.43
602.69	48121.41
602.84	48573.14
603.00	48126.10
603.16	47901.40
603.31	48521.65
603.47	48477.18
603.62	48339.08
603.78	48617.61
603.94	48453.77
604.09	48432.71
604.25	48327.38
604.40	48320.36
604.56	48140.14
604.71	48692.50
604.87	48112.05
605.03	48311.00
605.18	47978.64
605.34	48119.07
605.49	47976.30
605.65	48591.86
605.80	48451.43
605.96	48144.82
606.12	48175.25
606.27	48598.88
606.43	48109.71
606.58	48112.05
606.74	48458.45
606.89	48191.63
607.05	48238.44
607.20	47966.94
607.36	47962.26
607.51	48217.38
607.67	48275.89
607.82	48044.18
607.98	48236.10
608.13	48320.36
608.29	47657.99
608.44	47842.89
608.60	47828.85
608.75	48261.85
608.91	48013.75
609.06	47826.51
609.22	48458.45
609.37	47826.51
609.53	48135.46
609.68	47938.85
609.84	47833.53
609.99	48397.60
610.15	48119.07
610.30	47735.23
610.46	47449.68
610.61	47775.02
610.76	48130.78
610.92	47892.04
611.07	48011.41
611.23	47765.65
611.38	47718.84
611.54	48023.11
611.69	47903.74
611.84	48004.39
612.00	47906.08
612.15	47777.36
612.31	47917.79
612.46	47292.86
612.62	47725.86
612.77	47489.47
612.92	47931.83
613.08	47634.58
613.23	47599.47
613.39	47379.46
613.54	47571.39
613.69	47854.59
613.85	47660.33
614.00	47810.12
614.15	47995.03
614.31	47704.80
614.46	47498.83
614.62	47388.83
614.77	48128.44
614.92	47517.56
615.08	47267.12
615.23	47327.97
615.38	47796.08
615.54	47089.24
615.69	47641.60
615.84	47737.57
616.00	47952.90
616.15	47775.02
616.30	47945.87
616.46	47473.09
616.61	47372.44
616.76	47693.10
616.92	47538.62
617.07	47302.23
617.22	47337.33
617.37	47105.62
617.53	47482.45
617.68	47164.14
617.83	47098.60
617.99	47571.39
618.14	47601.82
618.29	47016.68
618.45	47571.39
618.60	46820.08
618.75	46974.55
618.90	47054.13
619.06	47250.74
619.21	46728.80
619.36	47363.08
619.51	47290.52
619.67	46674.96
619.82	46728.80
619.97	47126.69
620.12	46726.46
620.28	47028.38
620.43	47421.59
620.58	47428.62
620.73	46920.72
620.89	47000.30
621.04	47306.91
621.19	47213.29
621.34	46571.98
621.49	46653.90
621.65	46810.71
621.80	47098.60
621.95	46351.97
622.10	46937.10
622.25	46630.49
622.41	46892.63
622.56	46777.95
622.71	46717.09
622.86	46724.11
623.01	46724.11
623.16	46731.14
623.32	46433.89
623.47	46384.74
623.62	46607.09
623.77	46382.40
623.92	46717.09
624.07	46679.64
624.23	47000.30
624.38	46614.11
624.53	46525.17
624.68	46106.21
624.83	46358.99
624.98	46576.66
625.13	46300.48
625.29	46176.43
625.44	45895.56
625.59	46440.91
625.74	46019.61
625.89	45448.52
626.04	46071.10
626.19	45989.19
626.34	46218.56
626.49	45998.55
626.65	45567.89
626.80	46171.75
626.95	45565.55
627.10	45528.10
627.25	46267.71
627.40	46143.66
627.55	45806.62
627.70	45928.33
627.85	45930.67
628.00	46412.82
628.15	46080.47
628.30	45588.95
628.45	45523.42
628.60	45345.54
628.76	45911.95
628.91	45460.23
629.06	45542.14
629.21	45478.95
629.36	45287.03
629.51	45333.84
629.66	45830.03
629.81	45474.27
629.96	45497.67
630.11	45682.58
630.26	45600.66
630.41	45652.15
630.56	45439.16
630.71	45310.43
630.86	45645.13
631.01	45565.55
631.16	45055.31
631.31	45230.85
631.46	45198.09
631.61	45783.22
631.76	45722.37
631.91	45441.50
632.06	45918.97
632.21	45434.48
632.36	45228.51
632.51	45008.50
632.66	45198.09
632.81	45357.24
632.96	45390.01
633.10	45067.02
633.25	45118.51
633.40	45031.91
633.55	44992.12
633.70	45155.96
633.85	44872.75
634.00	44708.91
634.15	44811.90
634.30	44875.09
634.45	44720.62
634.60	44830.62
634.75	45237.87
634.90	44563.80
635.05	45195.74
635.19	44673.81
635.34	44535.71
635.49	44421.03
635.64	44884.45
635.79	44891.48
635.94	44779.13
636.09	45116.17
636.24	44772.11
636.39	44502.95
636.53	44294.64
636.68	44484.22
636.83	44088.67
636.98	44250.17
637.13	44100.37
637.28	44149.53
637.43	44479.54
637.57	44383.58
637.72	44549.76
637.87	44378.90
638.02	44416.35
638.17	43896.75
638.32	44231.44
638.46	43550.35
638.61	44329.75
638.76	43913.13
638.91	44002.07
639.06	43749.29
639.20	43768.02
639.35	43594.82
639.50	43721.21
639.65	44032.50
639.80	44308.68
639.94	43981.01
640.09	44423.37
640.24	43749.29
640.39	43505.88
640.54	43304.59
640.68	43892.07
640.83	43992.71
640.98	43501.20
641.13	43995.05
641.27	43978.67
641.42	43700.14
641.57	43618.22
641.72	43339.70
641.86	43461.41
642.01	43260.12
642.16	43765.68
642.31	43473.11
642.45	43576.09
642.60	43810.15
642.75	42981.60
642.90	43517.58
643.04	43459.07
643.19	43009.68
643.34	43143.09
643.48	43276.51
643.63	43232.04
643.78	43583.12
643.93	43672.06
644.07	43302.25
644.22	43470.77
644.37	42576.69
644.51	43159.48
644.66	43220.33
644.81	43021.39
644.95	43643.97
645.10	43388.85
645.25	42682.01
645.39	42504.13
645.54	42492.43
645.69	42646.90
645.83	42611.79
645.98	42628.18
646.13	42817.76
646.27	42845.85
646.42	42237.31
646.57	42976.92
646.71	42976.92
646.86	42897.34
647.00	42394.12
647.15	42447.96
647.30	42342.63
647.44	42380.08
647.59	42703.07
647.74	42471.36
647.88	42663.28
648.03	42644.56
648.17	42953.51
648.32	42490.09
648.47	43089.26
648.61	42726.48
648.76	42534.56
648.90	41844.10
649.05	42422.21
649.20	42543.92
649.34	42831.80
649.49	42504.13
649.63	42447.96
649.78	42188.16
649.92	42410.51
650.07	42918.40
650.21	42614.13
650.36	42644.56
650.51	42094.53
650.65	42663.28
650.80	42555.62
650.94	42384.76
651.09	42450.30
651.23	41748.14
651.38	41872.18
651.52	41762.18
651.67	42082.83
651.81	42117.94
651.96	41855.80
652.10	41773.88
652.25	41659.20
652.39	42234.97
652.54	42052.41
652.68	41708.35
652.83	41954.10
652.97	41904.95
653.12	41757.50
653.26	41764.52
653.41	41890.91
653.55	41886.23
653.70	41907.29
653.84	41429.82
653.99	41649.83
654.13	41888.57
654.27	41350.24
654.42	41588.98
654.56	41654.51
654.71	41804.31
654.85	41525.78
655.00	41581.96
655.14	41619.41
655.29	41876.86
655.43	41628.77
655.57	41179.39
655.72	41022.57
655.86	41003.85
656.01	40973.42
656.15	40898.52
656.30	40905.54
656.44	41251.94
656.58	41116.19
656.73	40992.14
656.87	40601.27
657.01	40837.67
657.16	40957.03
657.30	41198.11
657.45	41481.31
657.59	41029.59
657.73	40825.96
657.88	40844.69
658.02	41170.02
658.16	41275.35
658.31	40837.67
658.45	40875.12
658.60	40442.12
658.74	40594.25
658.88	40582.55
659.03	40748.73
659.17	40573.19
659.31	40313.39
659.46	40198.70
659.60	40699.58
659.74	40278.28
659.89	40126.14
660.03	40020.82
660.17	40102.74
660.32	40079.33
660.46	40453.82
660.60	40023.16
660.74	40016.14
660.89	40261.90
661.03	39370.15
661.17	39515.26
661.32	39627.61
661.46	39728.25
661.60	39594.84
661.74	39835.92
661.89	39468.45
662.03	39585.48
662.17	39442.71
662.31	39321.00
662.46	39559.73
662.60	39248.44
662.74	39236.74
662.88	38869.28
663.03	38693.74
663.17	39136.10
663.31	39323.34
663.45	38864.60
663.60	38969.92
663.74	39082.27
663.88	39140.78
664.02	38824.81
664.17	39012.05
664.31	38646.93
664.45	38567.35
664.59	38721.82
664.73	38312.23
664.88	38309.89
665.02	38335.63
665.16	38174.14
665.30	38698.42
665.44	38370.74
665.59	38410.53
665.73	38249.03
665.87	37930.72
666.01	38473.73
666.15	38171.80
666.29	37909.66
666.44	38038.39
666.58	37951.79
666.72	37621.77
666.86	37633.47
667.00	37357.29
667.14	37727.10
667.28	37551.56
667.43	37663.90
667.57	37553.90
667.71	37771.57
667.85	37574.96
667.99	36982.80
668.13	37593.68
668.27	37214.52
668.41	37266.01
668.56	36861.10
668.70	36732.37
668.84	36346.18
668.98	36704.28
669.12	36624.70
669.26	36910.25
669.40	36966.42
669.54	36510.02
669.68	36865.78
669.82	36659.81
669.96	36018.50
670.10	35864.03
670.25	36346.18
670.39	36023.19
670.53	36336.82
670.67	36020.84
670.81	36872.80
670.95	35927.22
671.09	36002.12
671.23	35749.34
671.37	36212.77
671.51	35810.20
671.65	35414.65
671.79	35590.19
671.93	35505.93
672.07	35639.34
672.21	35353.79
672.35	35028.46
672.49	35346.77
672.63	35220.38
672.77	34918.45
672.91	34822.49
673.05	35185.27
673.19	35002.71
673.33	35213.36
673.47	34754.61
673.61	34635.25
673.75	34541.63
673.89	34403.53
674.03	34199.91
674.17	34029.05
674.31	34249.06
674.45	33944.79
674.59	33785.63
674.73	33968.19
674.87	34101.61
675.01	33556.26
675.15	33710.74
675.29	33558.60
675.43	33490.73
675.56	33738.82
675.70	33312.84
675.84	33556.26
675.98	32257.26
676.12	32989.85
676.26	33434.55
676.40	32840.06
676.54	32727.71
676.68	33085.81
676.82	32135.56
676.96	32769.84
677.10	32959.42
677.23	32294.71
677.37	32809.63
677.51	31960.02
677.65	32484.30
677.79	32037.25
677.93	31908.52
678.07	31585.53
678.21	31908.52
678.34	31531.70
678.48	31225.09
678.62	31154.87
678.76	31314.03
678.90	31510.63
679.04	31618.30
679.18	31147.85
679.31	31079.97
679.45	30937.20
679.59	30628.25
679.73	30810.81
679.87	30452.71
680.00	30307.60
680.14	30412.92
680.28	30543.99
680.42	30405.90
680.56	30258.45
680.70	30029.07
680.83	29998.65
680.97	29802.04
681.11	30054.82
681.25	29710.76
681.39	29448.62
681.52	29914.39
681.66	28931.36
681.80	28837.74
681.94	28526.45
682.07	28467.94
682.21	28655.18
682.35	28552.20
682.49	28657.52
682.62	28128.56
682.76	28821.36
682.90	28334.53
683.04	28575.60
683.17	28376.66
683.31	28095.79
683.45	28261.97
683.59	27543.42
683.72	27929.61
683.86	27644.07
684.00	27552.79
684.13	27711.94
684.27	27122.13
684.41	27365.54
684.55	27449.80
684.68	27393.63
684.82	27124.47
684.96	27321.07
685.09	26960.63
685.23	26766.37
685.37	27295.33
685.50	27208.73
685.64	26937.23
685.78	26555.72
685.91	26291.24
686.05	26061.87
686.19	25668.66
686.32	26101.65
686.46	25862.92
686.60	25490.77
686.73	25776.32
686.87	25549.29
687.01	25696.74
687.14	25640.57
687.28	25458.01
687.42	25483.75
687.55	25118.63
687.69	24978.20
687.82	24500.73
687.96	24664.57
688.10	24931.39
688.23	24781.59
688.37	25165.44
688.50	25127.99
688.64	24147.31
688.78	24203.48
688.91	24226.89
689.05	24460.94
689.18	24060.71
689.32	23552.81
689.46	23836.02
689.59	23424.08
689.73	24210.50
689.86	24060.71
690.00	24025.60
690.13	23695.58
690.27	23255.56
690.41	23344.50
690.54	23311.74
690.68	22822.56
690.81	22838.95
690.95	22799.16
691.08	22775.75
691.22	22761.71
691.35	22555.74
691.49	22780.43
691.62	22555.74
691.76	22403.61
691.89	22352.12
692.03	22008.06
692.16	21799.75
692.30	22012.74
692.43	21832.52
692.57	21607.83
692.70	21649.96
692.84	21387.82
692.97	21228.66
693.11	21575.06
693.24	21284.83
693.38	20912.69
693.51	20812.04
693.65	20903.32
693.78	20592.03
693.92	20638.84
694.05	20812.04
694.19	20428.20
694.32	20322.87
694.45	20751.19
694.59	20798.00
694.72	20676.29
694.86	20269.04
694.99	20102.86
695.13	19985.83
695.26	19620.71
695.39	19962.43
695.53	19667.52
695.66	19688.59
695.80	19573.90
695.93	19513.05
696.07	19335.17
696.20	18721.95
696.33	19005.15
696.47	18956.00
696.60	19145.58
696.73	18958.34
696.87	18960.68
697.00	19089.41
697.14	18541.72
697.27	18525.34
697.40	18644.71
697.54	18588.53
697.67	18728.97
697.80	18120.43
697.94	18281.92
698.07	18228.09
698.21	18157.88
698.34	17914.46
698.47	17792.75
698.61	17568.06
698.74	17743.60
698.87	17614.87
699.01	17153.79
699.14	17322.30
699.27	17502.53
699.40	17462.74
699.54	17083.57
699.67	17298.90
699.80	17111.66
699.94	17067.19
700.07	17001.65
700.20	17013.35
700.34	16542.91
700.47	16732.49
700.60	16807.39
700.73	16512.48
700.87	16538.23
701.00	16358.00
701.13	16135.65
701.26	16116.93
701.40	16215.23
701.53	16067.78
701.66	15927.35
701.79	16067.78
701.93	15489.67
702.06	15740.10
702.19	15735.42
702.32	15602.01
702.46	15733.08
702.59	15576.27
702.72	15613.71
702.85	15321.15
702.99	15335.19
703.12	15147.95
703.25	15250.93
703.38	14958.36
703.51	15068.37
703.65	14963.04
703.78	14738.35
703.91	14651.75
704.04	14427.06
704.17	14415.36
704.31	14494.94
704.44	14560.47
704.57	14232.80
704.70	14108.75
704.83	14136.84
704.96	14017.47
705.10	14193.01
705.23	14188.33
>>>>>End Processed Spectral Data<<<<<
