SpectraSuite Data File
++++++++++++++++++++++++++++++++++++
Date: Fri Oct 25 11:33:20 EDT 2013
User: price-jones
Dark Spectrum Present: No
Reference Spectrum Present: No
Number of Sampled Component Spectra: 1
Spectrometers: USB2+H05261
Integration Time (usec): 100000 (USB2+H05261)
Spectra Averaged: 1 (USB2+H05261)
Boxcar Smoothing: 0 (USB2+H05261)
Correct for Electrical Dark: No (USB2+H05261)
Strobe/Lamp Enabled: No (USB2+H05261)
Correct for Detector Non-linearity: No (USB2+H05261)
Correct for Stray Light: No (USB2+H05261)
Number of Pixels in Processed Spectrum: 2048
>>>>>Begin Processed Spectral Data<<<<<
365.73	271.50
365.92	271.50
366.12	271.50
366.32	278.52
366.52	187.24
366.72	189.58
366.91	203.63
367.11	208.31
367.31	147.45
367.51	168.52
367.70	182.56
367.90	187.24
368.10	166.18
368.30	145.11
368.49	166.18
368.69	234.05
368.89	245.76
369.09	292.57
369.28	205.97
369.48	191.92
369.68	205.97
369.87	241.08
370.07	255.12
370.27	266.82
370.47	306.61
370.66	472.79
370.86	559.39
371.06	575.77
371.25	594.50
371.45	524.28
371.65	550.03
371.84	554.71
372.04	559.39
372.24	596.84
372.44	573.43
372.63	559.39
372.83	550.03
373.03	592.16
373.22	622.58
373.42	575.77
373.62	664.71
373.81	671.73
374.01	709.18
374.21	748.97
374.40	627.26
374.60	690.46
374.79	716.20
374.99	603.86
375.19	697.48
375.38	690.46
375.58	664.71
375.78	709.18
375.97	676.41
376.17	685.78
376.37	645.99
376.56	777.06
376.76	657.69
376.95	692.80
377.15	683.44
377.35	681.10
377.54	692.80
377.74	685.78
377.93	723.23
378.13	674.07
378.33	704.50
378.52	706.84
378.72	704.50
378.91	748.97
379.11	716.20
379.31	805.14
379.50	765.36
379.70	786.42
379.89	807.48
380.09	763.01
380.28	704.50
380.48	758.33
380.68	732.59
380.87	744.29
381.07	709.18
381.26	755.99
381.46	781.74
381.65	763.01
381.85	718.54
382.04	772.38
382.24	781.74
382.43	854.30
382.63	739.61
382.83	816.85
383.02	781.74
383.22	795.78
383.41	791.10
383.61	744.29
383.80	835.57
384.00	809.83
384.19	800.46
384.39	828.55
384.58	727.91
384.78	821.53
384.97	828.55
385.17	884.72
385.36	821.53
385.56	812.17
385.75	795.78
385.95	854.30
386.14	905.79
386.34	840.25
386.53	842.59
386.72	807.48
386.92	940.90
387.11	851.96
387.31	873.02
387.50	905.79
387.70	926.85
387.89	973.66
388.09	912.81
388.28	926.85
388.48	936.21
388.67	973.66
388.86	950.26
389.06	868.34
389.25	919.83
389.45	884.72
389.64	901.11
389.84	1011.11
390.03	1011.11
390.22	842.59
390.42	973.66
390.61	994.73
390.81	985.37
391.00	1041.54
391.19	954.94
391.39	966.64
391.58	964.30
391.78	1034.52
391.97	994.73
392.16	966.64
392.36	1032.18
392.55	1048.56
392.75	1050.90
392.94	1039.20
393.13	1022.81
393.33	1062.60
393.52	1090.69
393.71	1097.71
393.91	1139.84
394.10	1128.14
394.29	1060.26
394.49	1198.35
394.68	1018.13
394.88	1093.03
395.07	1156.22
395.26	1139.84
395.46	1144.52
395.65	1177.29
395.84	1172.61
396.04	1219.42
396.23	1174.95
396.42	1299.00
396.62	1158.57
396.81	1207.72
397.00	1200.69
397.19	1263.89
397.39	1233.46
397.58	1247.51
397.77	1266.23
397.97	1212.40
398.16	1261.55
398.35	1294.32
398.55	1299.00
398.74	1362.19
398.93	1385.60
399.12	1373.89
399.32	1306.02
399.51	1329.42
399.70	1378.58
399.90	1392.62
400.09	1437.09
400.28	1366.87
400.47	1327.08
400.67	1392.62
400.86	1418.36
401.05	1357.51
401.24	1451.13
401.44	1488.58
401.63	1427.73
401.82	1420.71
402.01	1514.33
402.21	1474.54
402.40	1420.71
402.59	1514.33
402.78	1425.39
402.97	1537.73
403.17	1556.46
403.36	1563.48
403.55	1530.71
403.74	1556.46
403.93	1694.55
404.13	1617.31
404.32	1582.20
404.51	1614.97
404.70	1600.93
404.89	1598.59
405.09	1614.97
405.28	1689.87
405.47	1661.78
405.66	1633.69
405.85	1785.83
406.05	1696.89
406.24	1757.74
406.43	1750.72
406.62	1776.47
406.81	1823.28
407.00	1783.49
407.20	1771.79
407.39	1842.00
407.58	1863.07
407.77	1872.43
407.96	1933.28
408.15	2015.20
408.34	1902.86
408.54	1980.09
408.73	1839.66
408.92	1989.46
409.11	2040.95
409.30	1982.43
409.49	2064.35
409.68	2071.37
409.87	1963.71
410.07	2038.61
410.26	2022.22
410.45	2071.37
410.64	2078.40
410.83	2132.23
411.02	2066.69
411.21	2127.55
411.40	2076.06
411.59	2251.60
411.78	2181.38
411.98	2202.44
412.17	2232.87
412.36	2190.74
412.55	2314.79
412.74	2317.13
412.93	2392.03
413.12	2356.92
413.31	2422.45
413.50	2480.97
413.69	2380.32
413.88	2443.52
414.07	2546.50
414.26	2471.61
414.45	2614.38
414.64	2546.50
414.83	2586.29
415.02	2487.99
415.22	2658.85
415.41	2705.66
415.60	2698.64
415.79	2705.66
415.98	2750.13
416.17	2712.68
416.36	2691.62
416.55	2700.98
416.74	2752.47
416.93	2775.88
417.12	2925.67
417.31	2815.66
417.50	2951.42
417.69	3030.99
417.88	2923.33
418.07	2909.29
418.26	3080.14
418.45	2928.01
418.64	3087.17
418.83	3040.36
419.02	3124.62
419.21	3136.32
419.39	3101.21
419.58	3131.64
419.77	2979.50
419.96	3169.09
420.15	3133.98
420.34	3185.47
420.53	3169.09
420.72	3255.69
420.91	3251.00
421.10	3328.24
421.29	3311.86
421.48	3297.81
421.67	3393.78
421.86	3283.77
422.05	3344.63
422.24	3178.45
422.43	3358.67
422.61	3419.52
422.80	3531.87
422.99	3424.20
423.18	3365.69
423.37	3361.01
423.56	3417.18
423.75	3382.07
423.94	3398.46
424.13	3049.72
424.32	3330.58
424.50	3424.20
424.69	3559.95
424.88	3709.75
425.07	3424.20
425.26	3276.75
425.45	3475.70
425.64	3454.63
425.83	3274.41
426.01	3609.11
426.20	3562.30
426.39	3403.14
426.58	3576.34
426.77	3641.87
426.96	3611.45
427.15	3611.45
427.33	3524.85
427.52	3489.74
427.71	3688.68
427.90	3578.68
428.09	3744.86
428.28	3667.62
428.46	3712.09
428.65	3691.02
428.84	3758.90
429.03	3798.69
429.22	3840.82
429.40	3789.33
429.59	3700.39
429.78	3768.26
429.97	3655.92
430.16	3775.28
430.34	3878.27
430.53	3838.48
430.72	3946.14
430.91	3969.55
431.10	3817.41
431.28	3922.74
431.47	4044.45
431.66	4011.68
431.85	3964.87
432.03	4035.08
432.22	4301.90
432.41	3981.25
432.60	4049.13
432.79	3978.91
432.97	4203.60
433.16	4016.36
433.35	4283.18
433.54	4098.28
433.72	4262.12
433.91	4173.18
434.10	4124.02
434.28	4131.05
434.47	4322.97
434.66	4332.33
434.85	4402.55
435.03	4386.16
435.22	4395.53
435.41	4428.29
435.59	4454.04
435.78	4306.59
435.97	4498.51
436.16	4393.19
436.34	4514.89
436.53	4596.81
436.72	4617.88
436.90	4358.08
437.09	4470.42
437.28	4622.56
437.46	4477.44
437.65	4697.46
437.84	4681.07
438.02	4458.72
438.21	4638.94
438.40	4468.08
438.58	4678.73
438.77	4840.23
438.96	4875.34
439.14	4774.69
439.33	5116.41
439.52	4959.60
439.70	5048.54
439.89	5041.51
440.08	5076.62
440.26	5034.49
440.45	5111.73
440.63	5235.78
440.82	5268.55
441.01	5252.16
441.19	5224.08
441.38	5294.29
441.57	5287.27
441.75	5256.84
441.94	5423.02
442.12	5408.98
442.31	5542.39
442.50	5549.41
442.68	5427.70
442.87	5406.64
443.05	5495.58
443.24	5638.35
443.43	5614.95
443.61	5729.63
443.80	5781.12
443.98	5551.75
444.17	5343.44
444.35	5509.62
444.54	5497.92
444.73	5511.96
444.91	5636.01
445.10	5746.02
445.28	5767.08
445.47	5530.69
445.65	5521.32
445.84	5678.14
446.02	5696.86
446.21	5692.18
446.39	5762.40
446.58	5643.03
446.77	5734.31
446.95	5657.07
447.14	5853.68
447.32	5891.13
447.51	5804.53
447.69	5703.89
447.88	5795.17
448.06	5816.23
448.25	5757.72
448.43	5921.56
448.62	5982.41
448.80	5942.62
448.99	6026.88
449.17	6059.65
449.36	5919.21
449.54	6069.01
449.73	6188.38
449.91	6155.61
450.10	6118.16
450.28	6284.34
450.46	6272.64
450.65	6202.42
450.83	6132.20
451.02	6190.72
451.20	6204.76
451.39	6150.93
451.57	6195.40
451.76	6286.68
451.94	6179.01
452.13	6333.49
452.31	6389.66
452.49	6356.90
452.68	6239.87
452.86	6441.15
453.05	6359.24
453.23	6490.31
453.42	6448.18
453.60	6384.98
453.78	6630.74
453.97	6520.73
454.15	6527.75
454.34	6326.47
454.52	6682.23
454.70	6640.10
454.89	6740.74
455.07	6590.95
455.26	6785.21
455.44	6853.09
455.62	6715.00
455.81	6595.63
455.99	6787.55
456.17	6771.17
456.36	6918.62
456.54	6995.86
456.73	6651.80
456.91	7122.25
457.09	7124.59
457.28	7117.57
457.46	7068.42
457.64	7229.91
457.83	7150.34
458.01	7063.74
458.19	7283.75
458.38	7279.07
458.56	7222.89
458.74	7187.79
458.93	7358.64
459.11	7295.45
459.29	7236.94
459.48	7494.40
459.66	7349.28
459.84	7489.71
460.03	7644.19
460.21	7508.44
460.39	7412.48
460.57	7562.27
460.76	7716.75
460.94	7655.89
461.12	7438.22
461.31	7494.40
461.49	7712.07
461.67	7576.31
461.85	7665.25
462.04	7571.63
462.22	8030.38
462.40	7826.75
462.59	7915.69
462.77	7831.43
462.95	7971.86
463.13	7981.23
463.32	7819.73
463.50	7861.86
463.68	7906.33
463.86	8035.06
464.05	7801.01
464.23	7730.79
464.41	7885.26
464.59	7983.57
464.78	8051.44
464.96	8053.78
465.14	7880.58
465.32	8224.64
465.50	8273.79
465.69	8112.30
465.87	8116.98
466.05	8222.30
466.23	8336.99
466.41	8248.05
466.60	8379.12
466.78	8229.32
466.96	8229.32
467.14	8210.60
467.32	8439.97
467.51	8472.74
467.69	8159.11
467.87	8430.61
468.05	8608.49
468.23	8271.45
468.41	8318.26
468.60	8535.93
468.78	8587.43
468.96	8538.27
469.14	8573.38
469.32	8681.05
469.50	8709.13
469.69	8868.29
469.87	8702.11
470.05	8732.54
470.23	8737.22
470.41	8957.23
470.59	8964.25
470.77	8933.82
470.95	9095.32
471.14	9210.01
471.32	8835.52
471.50	9128.09
471.68	9088.30
471.86	9207.67
472.04	9254.48
472.22	9390.23
472.40	9275.54
472.58	9359.80
472.77	9284.91
472.95	9453.42
473.13	9675.77
473.31	9394.91
473.49	9430.02
473.67	9549.39
473.85	9701.52
474.03	9741.31
474.21	9675.77
474.39	9696.84
474.57	9851.31
474.75	9813.87
474.93	10031.54
475.12	9863.02
475.30	9966.00
475.48	10164.95
475.66	10214.10
475.84	10092.39
476.02	10366.23
476.20	10583.90
476.38	10443.47
476.56	10827.32
476.74	10534.75
476.92	10630.71
477.10	10588.58
477.28	10829.66
477.46	10778.17
477.64	11016.90
477.82	11042.65
478.00	11403.09
478.18	11318.83
478.36	11190.10
478.54	11494.37
478.72	11433.52
478.90	11419.47
479.08	11646.51
479.26	11992.90
479.44	11971.84
479.62	11836.09
479.80	11981.20
479.98	12138.02
480.16	12446.97
480.34	12123.98
480.52	12226.96
480.70	12620.17
480.88	12449.31
481.06	12578.04
481.24	12685.70
481.41	12884.65
481.59	13074.23
481.77	12767.62
481.95	12912.74
482.13	13247.43
482.31	13104.66
482.49	13657.03
482.67	13359.78
482.85	13525.96
483.03	13729.58
483.21	14005.77
483.39	13947.25
483.57	13867.67
483.74	14101.73
483.92	14286.63
484.10	13937.89
484.28	14576.86
484.46	14651.75
484.64	14920.92
484.82	14778.14
485.00	14862.40
485.18	14864.74
485.35	15180.71
485.53	15250.93
485.71	15169.01
485.89	15733.08
486.07	15627.76
486.25	15569.24
486.43	15775.21
486.61	15810.32
486.78	16135.65
486.96	16088.84
487.14	16095.86
487.32	16119.27
487.50	16325.24
487.68	16613.12
487.85	16748.87
488.03	16992.29
488.21	17062.51
488.39	17097.61
488.57	17167.83
488.75	17380.82
488.92	17530.61
489.10	17668.70
489.28	17661.68
489.46	17804.46
489.64	17975.31
489.81	18394.27
489.99	18218.73
490.17	18302.99
490.35	18523.00
490.53	18513.64
490.70	18981.74
490.88	19033.24
491.06	18995.79
491.24	19009.83
491.41	19005.15
491.59	19384.32
491.77	19342.19
491.95	19597.31
492.13	19716.67
492.30	19817.32
492.48	19887.53
492.66	20243.29
492.84	19988.18
493.01	20292.44
493.19	20240.95
493.37	20517.14
493.54	20613.10
493.72	20734.81
493.90	20938.43
494.08	21067.16
494.25	21109.29
494.43	21029.71
494.61	21441.65
494.79	21678.04
494.96	21521.23
495.14	21546.97
495.32	21809.11
495.49	21792.73
495.67	21834.86
495.85	22415.31
496.02	22169.55
496.20	22794.48
496.38	22712.56
496.55	22508.93
496.73	23159.60
496.91	22899.80
497.09	22923.21
497.26	22934.91
497.44	23047.26
497.62	23330.46
497.79	23363.23
497.97	23922.62
498.14	23601.96
498.32	23604.30
498.50	23768.14
498.67	23859.42
498.85	24297.10
499.03	24121.56
499.20	24123.90
499.38	24570.94
499.56	24765.21
499.73	24702.01
499.91	24957.13
500.08	24872.87
500.26	24919.68
500.44	24748.82
500.61	25123.31
500.79	25043.73
500.97	25263.74
501.14	25685.04
501.32	25280.13
501.49	25476.73
501.67	25741.21
501.84	25982.29
502.02	26148.46
502.20	25582.06
502.37	26019.74
502.55	25888.67
502.72	26050.16
502.90	26190.59
503.07	26134.42
503.25	26368.48
503.43	26092.29
503.60	26616.57
503.78	26630.62
503.95	26621.25
504.13	26724.24
504.30	26773.39
504.48	27173.62
504.65	26895.10
504.83	27168.94
505.01	27637.05
505.18	27482.57
505.36	27812.59
505.53	27538.74
505.71	27564.49
505.88	27929.61
506.06	27688.54
506.23	27992.81
506.41	27697.90
506.58	27653.43
506.76	27971.74
506.93	28423.47
507.11	28177.71
507.28	28559.22
507.46	28575.60
507.63	28652.84
507.81	28943.06
507.98	28690.29
508.16	28713.69
508.33	28809.65
508.50	28858.81
508.68	28891.57
508.85	29275.42
509.03	29312.87
509.20	29366.70
509.38	29687.36
509.55	29628.84
509.73	29605.44
509.90	29804.38
510.08	29596.07
510.25	29769.27
510.42	29703.74
510.60	30195.25
510.77	30106.31
510.95	30272.49
511.12	30274.83
511.30	29928.43
511.47	29996.31
511.64	30199.93
511.82	30565.06
511.99	30389.52
512.17	30941.88
512.34	30602.50
512.51	31129.12
512.69	31194.66
512.86	31138.49
513.04	31302.32
513.21	31428.71
513.38	31309.35
513.56	31447.44
513.73	31349.14
513.90	31398.29
514.08	31601.91
514.25	31630.00
514.43	31718.94
514.60	31910.86
514.77	32334.50
514.95	32095.77
515.12	31889.80
515.29	32084.06
515.47	32430.46
515.64	32465.57
515.81	32063.00
515.99	32481.95
516.16	32708.99
516.33	32648.13
516.51	33055.39
516.68	32795.59
516.85	32680.90
517.03	33053.05
517.20	32828.35
517.37	32907.93
517.54	33099.86
517.72	33191.14
517.89	33425.19
518.06	33523.49
518.24	33240.29
518.41	33139.65
518.58	33659.24
518.75	33064.75
518.93	33706.05
519.10	33792.65
519.27	34080.54
519.45	34061.82
519.62	34333.32
519.79	34321.62
519.96	33900.32
520.14	34459.71
520.31	34185.86
520.48	34279.49
520.65	34054.79
520.83	34925.47
521.00	34899.73
521.17	34677.38
521.34	34988.67
521.52	34611.84
521.69	34646.95
521.86	34998.03
522.03	34866.96
522.20	35297.62
522.38	35269.53
522.55	35377.20
522.72	35388.90
522.89	35700.19
523.07	35754.02
523.24	35938.93
523.41	35543.38
523.58	35314.00
523.75	35512.95
523.92	35768.07
524.10	36147.23
524.27	35917.86
524.44	35917.86
524.61	36051.27
524.78	36350.86
524.96	36418.74
525.13	36521.72
525.30	36355.54
525.47	36636.41
525.64	36549.81
525.81	36837.69
525.98	36458.52
526.16	36776.84
526.33	36891.52
526.50	36884.50
526.67	36500.65
526.84	36840.03
527.01	36905.57
527.18	37099.83
527.36	37336.23
527.53	37071.75
527.70	37820.72
527.87	37687.31
528.04	37429.85
528.21	37572.62
528.38	37043.66
528.55	37376.01
528.72	37645.18
528.89	37467.30
529.07	37308.14
529.24	37553.90
529.41	37811.35
529.58	38092.22
529.75	37816.04
529.92	38225.63
530.09	38026.68
530.26	38003.28
530.43	38391.81
530.60	37673.26
530.77	38155.41
530.94	38347.34
531.11	38293.50
531.28	38696.08
531.46	38337.98
531.63	38188.18
531.80	38527.56
531.97	38768.63
532.14	38665.65
532.31	38789.70
532.48	38998.01
532.65	39330.36
532.82	38824.81
532.99	39229.72
533.16	38848.21
533.33	39005.03
533.50	38845.87
533.67	39152.48
533.84	38366.06
534.01	39253.12
534.18	39416.96
534.35	39590.16
534.52	39580.80
534.69	39538.67
534.86	39552.71
535.03	39555.05
535.20	39770.38
535.37	39812.51
535.54	39896.77
535.71	39655.70
535.88	39854.64
536.05	40058.27
536.22	40107.42
536.38	40203.38
536.55	39957.63
536.72	39966.99
536.89	40254.87
537.06	40250.19
537.23	40568.51
537.40	40273.60
537.57	40381.26
537.74	40566.16
537.91	40678.51
538.08	40318.07
538.25	40474.88
538.42	40467.86
538.59	40678.51
538.75	40432.75
538.92	40961.72
539.09	40933.63
539.26	40947.67
539.43	40910.22
539.60	40556.80
539.77	41146.62
539.94	41193.43
540.11	41209.81
540.28	40847.03
540.44	40769.79
540.61	41237.90
540.78	40947.67
540.95	41486.00
541.12	41198.11
541.29	41191.09
541.46	41415.78
541.62	42029.00
541.79	41565.57
541.96	41172.36
542.13	41596.00
542.30	41631.11
542.47	42000.91
542.63	41478.97
542.80	41654.51
542.97	42087.51
543.14	42574.34
543.31	41865.16
543.48	42330.93
543.64	42616.47
543.81	42356.67
543.98	42644.56
544.15	42237.31
544.32	42487.74
544.48	42782.65
544.65	42609.45
544.82	42515.83
544.99	42511.15
545.16	42899.68
545.32	42539.24
545.49	42974.58
545.66	43601.84
545.83	43072.88
546.00	42801.38
546.16	42848.19
546.33	43093.94
546.50	42871.59
546.67	43288.21
546.83	42614.13
547.00	43110.33
547.17	42953.51
547.34	42899.68
547.50	43236.72
547.67	43831.21
547.84	43065.86
548.00	43707.16
548.17	43831.21
548.34	43459.07
548.51	43868.66
548.67	43945.90
548.84	43540.99
549.01	43409.92
549.18	43688.44
549.34	43903.77
549.51	43758.66
549.68	43882.70
549.84	43798.44
550.01	44060.58
550.18	44126.12
550.34	43681.42
550.51	43793.76
550.68	44315.70
550.84	43943.56
551.01	44390.60
551.18	43973.98
551.34	43810.15
551.51	43927.17
551.68	44264.21
551.84	44325.07
552.01	44126.12
552.18	44470.18
552.34	44245.49
552.51	44626.99
552.68	44201.02
552.84	44060.58
553.01	44629.34
553.18	44198.68
553.34	44849.35
553.51	44823.60
553.67	44435.07
553.84	44875.09
554.01	44725.30
554.17	44601.25
554.34	45102.12
554.51	44802.53
554.67	45118.51
554.84	44835.30
555.00	45118.51
555.17	44802.53
555.33	45045.95
555.50	45200.43
555.67	45336.18
555.83	45270.64
556.00	45504.70
556.16	45373.63
556.33	45387.67
556.50	45162.98
556.66	45081.06
556.83	45289.37
556.99	45209.79
557.16	45769.18
557.32	45551.51
557.49	45193.40
557.65	45345.54
557.82	45670.87
557.98	45509.38
558.15	45757.47
558.32	45556.19
558.48	45277.66
558.65	45710.66
558.81	45818.33
558.98	45722.37
559.14	45687.26
559.31	45607.68
559.47	45633.42
559.64	46045.36
559.80	45633.42
559.97	45879.18
560.13	45544.48
560.30	45886.20
560.46	46344.95
560.63	46176.43
560.79	45815.99
560.96	46211.54
561.12	45937.69
561.29	46068.76
561.45	45893.22
561.61	46256.01
561.78	46263.03
561.94	46223.24
562.11	46054.72
562.27	46024.29
562.44	46089.83
562.60	46520.49
562.77	46277.07
562.93	45851.09
563.10	46206.86
563.26	46476.02
563.42	46934.76
563.59	46564.96
563.75	46171.75
563.92	45970.46
564.08	46270.05
564.24	46227.92
564.41	46536.87
564.57	46532.19
564.74	46703.05
564.90	46621.13
565.07	46469.00
565.23	46710.07
565.39	46499.42
565.56	46972.21
565.72	46583.68
565.88	46705.39
566.05	46583.68
566.21	46553.26
566.38	46562.62
566.54	46681.98
566.70	46546.23
566.87	46564.96
567.03	46618.79
567.19	46752.20
567.36	46953.49
567.52	46700.71
567.68	47112.64
567.85	46597.73
568.01	47234.35
568.17	46703.05
568.34	47004.98
568.50	46937.10
568.66	46473.68
568.83	47306.91
568.99	46550.91
569.15	47150.09
569.32	46829.44
569.48	46927.74
569.64	47395.85
569.81	47215.63
569.97	46735.82
570.13	47248.39
570.30	46841.14
570.46	46777.95
570.62	47047.11
570.78	46969.87
570.95	46958.17
571.11	47138.39
571.27	47196.90
571.43	46529.85
571.60	47267.12
571.76	47208.61
571.92	47051.79
572.09	46850.50
572.25	47164.14
572.41	47201.58
572.57	46864.55
572.74	47622.88
572.90	46930.08
573.06	47023.70
573.22	47292.86
573.38	47777.36
573.55	47517.56
573.71	47840.55
573.87	47330.31
574.03	47318.61
574.20	47676.71
574.36	47246.05
574.52	47461.38
574.68	47526.92
574.84	47430.96
575.01	47688.42
575.17	47344.36
575.33	47311.59
575.49	47477.77
575.65	47512.88
575.82	47386.49
575.98	47063.49
576.14	47374.78
576.30	47992.68
576.46	47356.06
576.62	47220.31
576.79	47538.62
576.95	46857.52
577.11	47224.99
577.27	47416.91
577.43	47906.08
577.59	47611.18
577.75	47250.74
577.92	47297.55
578.08	47175.84
578.24	47466.06
578.40	47618.20
578.56	47751.61
578.72	47393.51
578.88	48020.77
579.04	47407.55
579.21	47344.36
579.37	47646.29
579.53	47402.87
579.69	47285.84
579.85	47566.71
580.01	47627.56
580.17	47370.10
580.33	48137.80
580.49	47538.62
580.65	47753.95
580.82	47742.25
580.98	47330.31
581.14	47540.96
581.30	47730.54
581.46	47480.11
581.62	47398.19
581.78	47496.49
581.94	47995.03
582.10	47463.72
582.26	48175.25
582.42	47533.94
582.58	47571.39
582.74	47672.03
582.90	47737.57
583.06	47758.63
583.22	47634.58
583.38	48004.39
583.54	48105.03
583.70	47746.93
583.86	47669.69
584.02	47775.02
584.18	47971.62
584.34	47866.30
584.50	47969.28
584.66	47693.10
584.82	47875.66
584.98	47777.36
585.14	47917.79
585.30	47611.18
585.46	47739.91
585.62	47702.46
585.78	48271.21
585.94	47674.37
586.10	47775.02
586.26	47484.79
586.42	47430.96
586.58	47938.85
586.74	48107.37
586.90	47695.44
587.06	47721.18
587.22	47943.53
587.38	47540.96
587.54	48086.31
587.70	48341.42
587.86	48320.36
588.02	47950.56
588.18	47835.87
588.34	47583.09
588.49	47819.49
588.65	47688.42
588.81	48060.56
588.97	47901.40
589.13	47887.36
589.29	47917.79
589.45	48009.07
589.61	48006.73
589.77	48172.91
589.93	48165.88
590.08	48083.97
590.24	48601.22
590.40	48327.38
590.56	48725.27
590.72	48367.17
590.88	48357.81
591.04	48142.48
591.20	48418.66
591.35	48374.19
591.51	48664.42
591.67	48191.63
591.83	48486.54
591.99	47767.99
592.15	48067.58
592.31	48137.80
592.46	48147.16
592.62	48215.04
592.78	48495.90
592.94	48690.16
593.10	48193.97
593.26	48608.25
593.41	48528.67
593.57	48566.12
593.73	48254.82
593.89	48619.95
594.05	48945.28
594.20	48596.54
594.36	48676.12
594.52	48865.70
594.68	48236.10
594.84	48137.80
594.99	48692.50
595.15	48662.08
595.31	48505.26
595.47	48423.34
595.62	48601.22
595.78	48315.68
595.94	48413.98
596.10	48547.39
596.25	49045.93
596.41	48200.99
596.57	48090.99
596.73	48854.00
596.88	48842.30
597.04	48325.04
597.20	48498.24
597.36	48308.66
597.51	48421.00
597.67	48409.30
597.83	48334.40
597.99	48751.02
598.14	48467.81
598.30	48545.05
598.46	48699.53
598.61	48928.90
598.77	49184.02
598.93	48664.42
599.09	48575.48
599.24	48566.12
599.40	48580.16
599.56	48891.45
599.71	49069.33
599.87	48882.09
600.03	48956.99
600.18	48989.75
600.34	48692.50
600.50	48708.89
600.65	48718.25
600.81	49116.14
600.97	49041.24
601.12	48814.21
601.28	48896.13
601.44	48835.28
601.59	48952.30
601.75	48751.02
601.91	49031.88
602.06	48921.88
602.22	48790.81
602.37	48741.66
602.53	48933.58
602.69	48800.17
602.84	48673.78
603.00	48678.46
603.16	48451.43
603.31	48189.29
603.47	49008.48
603.62	48559.09
603.78	48179.93
603.94	48758.04
604.09	48863.36
604.25	48612.93
604.40	48549.73
604.56	48643.35
604.71	49228.49
604.87	48350.79
605.03	48500.58
605.18	48556.75
605.34	48846.98
605.49	48765.06
605.65	48685.48
605.80	48699.53
605.96	48526.33
606.12	48547.39
606.27	48598.88
606.43	48790.81
606.58	48954.64
606.74	48631.65
606.89	48549.73
607.05	49045.93
607.20	48671.44
607.36	48399.94
607.51	48470.15
607.67	48449.09
607.82	48371.85
607.98	48502.92
608.13	48540.37
608.29	48369.51
608.44	48706.55
608.60	48842.30
608.75	48727.61
608.91	48477.18
609.06	48367.17
609.22	48650.38
609.37	48236.10
609.53	48940.60
609.68	48416.32
609.84	48158.86
609.99	48718.25
610.15	48289.93
610.30	48542.71
610.46	48072.26
610.61	48257.17
610.76	48734.63
610.92	48362.49
611.07	48465.47
611.23	48355.47
611.38	48229.08
611.54	48423.34
611.69	48289.93
611.84	48346.11
612.00	48081.63
612.15	48140.14
612.31	48100.35
612.46	48463.13
612.62	48128.44
612.77	48748.68
612.92	48346.11
613.08	47938.85
613.23	48090.99
613.39	47845.23
613.54	48009.07
613.69	48224.40
613.85	47615.86
614.00	48215.04
614.15	47971.62
614.31	47576.07
614.46	47814.80
614.62	47854.59
614.77	48009.07
614.92	47983.32
615.08	48212.70
615.23	47791.40
615.38	48004.39
615.54	48133.12
615.69	47672.03
615.84	48105.03
616.00	48236.10
616.15	48034.81
616.30	47915.45
616.46	47292.86
616.61	47753.95
616.76	48257.17
616.92	47679.05
617.07	47878.00
617.22	47789.06
617.37	47875.66
617.53	47772.67
617.68	47723.52
617.83	47452.02
617.99	47552.66
618.14	47962.26
618.29	47442.66
618.45	47555.00
618.60	47309.25
618.75	47030.72
618.90	47274.14
619.06	47276.48
619.21	47540.96
619.36	47449.68
619.51	47360.74
619.67	47220.31
619.82	47562.03
619.97	47796.08
620.12	47356.06
620.28	47274.14
620.43	47657.99
620.58	47313.93
620.73	47269.46
620.89	47503.51
621.04	47810.12
621.19	47400.53
621.34	47065.83
621.49	47227.33
621.65	47213.29
621.80	47466.06
621.95	46983.91
622.10	47395.85
622.25	47166.48
622.41	47033.07
622.56	47313.93
622.71	46990.94
622.86	47049.45
623.01	47349.04
623.16	47178.18
623.32	46859.87
623.47	46969.87
623.62	46586.02
623.77	47213.29
623.92	46986.25
624.07	46930.08
624.23	47058.81
624.38	47105.62
624.53	47189.88
624.68	46920.72
624.83	46440.91
624.98	46780.29
625.13	46370.69
625.29	46326.22
625.44	46483.04
625.59	46894.97
625.74	47056.47
625.89	46319.20
626.04	46433.89
626.19	46326.22
626.34	46328.56
626.49	46218.56
626.65	46199.83
626.80	46464.32
626.95	46007.91
627.10	46248.99
627.25	46604.75
627.40	46335.59
627.55	46824.76
627.70	46431.55
627.85	46653.90
628.00	46469.00
628.15	46267.71
628.30	45902.59
628.45	46071.10
628.60	45661.51
628.76	45911.95
628.91	46108.55
629.06	45769.18
629.21	45649.81
629.36	45752.79
629.51	45998.55
629.66	46113.23
629.81	45996.21
629.96	45958.76
630.11	45429.80
630.26	46160.05
630.41	45916.63
630.56	46099.19
630.71	45785.56
630.86	45776.20
631.01	45441.50
631.16	45652.15
631.31	45624.06
631.46	45408.73
631.61	45588.95
631.76	45673.21
631.91	46099.19
632.06	46267.71
632.21	45713.00
632.36	46026.63
632.51	45591.30
632.66	45434.48
632.81	45432.14
632.96	45780.88
633.10	45567.89
633.25	45694.28
633.40	45617.04
633.55	45698.96
633.70	45467.25
633.85	45523.42
634.00	45205.11
634.15	45567.89
634.30	45179.36
634.45	45170.00
634.60	45647.47
634.75	45448.52
634.90	45207.45
635.05	45521.08
635.19	45209.79
635.34	45359.58
635.49	44839.98
635.64	44715.93
635.79	45291.71
635.94	45106.80
636.09	45092.76
636.24	44741.68
636.39	45041.27
636.53	45081.06
636.68	44882.11
636.83	44383.58
636.98	44638.70
637.13	45031.91
637.28	44596.57
637.43	44729.98
637.57	44587.21
637.72	44732.32
637.87	44643.38
638.02	44947.65
638.17	44505.29
638.32	44371.88
638.46	44509.97
638.61	43964.62
638.76	44261.87
638.91	44619.97
639.06	43725.89
639.20	44222.08
639.35	43761.00
639.50	44102.71
639.65	44491.24
639.80	44706.57
639.94	44638.70
640.09	44385.92
640.24	44406.98
640.39	43985.69
640.54	43643.97
640.68	44231.44
640.83	44280.60
640.98	44231.44
641.13	43997.39
641.27	44353.15
641.42	44414.01
641.57	43995.05
641.72	44158.89
641.86	44039.52
642.01	43863.98
642.16	43761.00
642.31	43672.06
642.45	44271.23
642.60	43402.89
642.75	43878.02
642.90	43805.47
643.04	43824.19
643.19	43735.25
643.34	43557.37
643.48	43660.35
643.63	43213.31
643.78	43620.56
643.93	44062.93
644.07	43246.08
644.22	43901.43
644.37	43145.44
644.51	43763.34
644.66	43416.94
644.81	43484.81
644.95	43674.40
645.10	43653.33
645.25	43295.23
645.39	43157.14
645.54	43428.64
645.69	42953.51
645.83	43112.67
645.98	43171.18
646.13	42911.38
646.27	43089.26
646.42	43040.11
646.57	43517.58
646.71	43342.04
646.86	43304.59
647.00	43105.65
647.15	43522.26
647.30	43150.12
647.44	43278.85
647.59	43049.47
647.74	43061.18
647.88	43126.71
648.03	43271.82
648.17	43194.59
648.32	42707.76
648.47	43342.04
648.61	43021.39
648.76	42590.73
648.90	43292.89
649.05	42504.13
649.20	42759.25
649.34	42689.03
649.49	42714.78
649.63	43014.37
649.78	42639.88
649.92	42843.51
650.07	43339.70
650.21	43157.14
650.36	43016.71
650.51	42611.79
650.65	43344.38
650.80	42625.84
650.94	42698.39
651.09	42899.68
651.23	42143.69
651.38	42288.80
651.52	42162.41
651.67	42359.02
651.81	42595.41
651.96	42499.45
652.10	41837.08
652.25	42057.09
652.39	42366.04
652.54	42216.24
652.68	42031.34
652.83	42415.19
652.97	42555.62
653.12	42110.92
653.26	42209.22
653.41	42265.39
653.55	41874.52
653.70	42300.50
653.84	42157.73
653.99	42583.71
654.13	41982.19
654.27	41642.81
654.42	41935.38
654.56	41738.77
654.71	42265.39
654.85	42085.17
655.00	41764.52
655.14	42167.09
655.29	41928.36
655.43	42389.44
655.57	41888.57
655.72	41813.67
655.86	41691.96
656.01	41514.08
656.15	40868.09
656.30	41411.10
656.44	41427.48
656.58	41624.09
656.73	41790.27
656.87	41375.99
657.01	41118.53
657.16	41560.89
657.30	41420.46
657.45	41226.20
657.59	40985.12
657.73	41074.06
657.88	41223.86
658.02	41680.26
658.16	41177.04
658.31	41275.35
658.45	41514.08
658.60	41209.81
658.74	41134.92
658.88	41148.96
659.03	41125.55
659.17	40673.83
659.31	40809.58
659.46	40561.48
659.60	41200.45
659.74	40795.54
659.89	40395.31
660.03	40313.39
660.17	40821.28
660.32	40793.20
660.46	40533.40
660.60	40151.89
660.74	40229.13
660.89	40584.89
661.03	40229.13
661.17	40046.57
661.32	39861.66
661.46	40072.31
661.60	39992.73
661.74	40102.74
661.89	39758.68
662.03	40062.95
662.17	40357.86
662.31	39629.95
662.46	39660.38
662.60	39517.60
662.74	39611.23
662.88	39435.69
663.03	39330.36
663.17	39395.90
663.31	39215.68
663.45	38976.94
663.60	39828.90
663.74	39428.66
663.88	39206.31
664.02	38670.33
664.17	39934.22
664.31	38967.58
664.45	38885.66
664.59	39391.22
664.73	39030.77
664.88	38871.62
665.02	38827.15
665.16	38822.47
665.30	38838.85
665.44	38787.36
665.59	38141.37
665.73	38691.40
665.87	38368.40
666.01	38693.74
666.15	38459.68
666.29	38298.19
666.44	38429.26
666.58	38160.09
666.72	38000.94
666.86	38043.07
667.00	37996.26
667.14	38117.96
667.28	38099.24
667.43	37762.20
667.57	38225.63
667.71	38295.85
667.85	38288.82
667.99	37989.24
668.13	37127.92
668.27	37345.59
668.41	37251.97
668.56	36840.03
668.70	37357.29
668.84	37343.25
668.98	36971.10
669.12	37144.30
669.26	37684.97
669.40	37116.22
669.54	37160.69
669.68	36847.05
669.82	36746.41
669.96	36725.35
670.10	36360.22
670.25	36861.10
670.39	36435.12
670.53	36673.85
670.67	36610.66
670.81	36816.63
670.95	36414.05
671.09	36236.17
671.23	36395.33
671.37	36568.53
671.51	35936.59
671.65	36407.03
671.79	35800.83
671.93	36048.93
672.07	36172.98
672.21	35814.88
672.35	35641.68
672.49	35728.28
672.63	35704.87
672.77	35627.63
672.91	35283.58
673.05	35339.75
673.19	35494.22
673.33	34923.13
673.47	35154.85
673.61	34522.90
673.75	34955.90
673.89	34974.63
674.03	34567.37
674.17	34843.56
674.31	34583.76
674.45	34188.21
674.59	34618.86
674.73	34429.28
674.87	34450.35
675.01	34005.64
675.15	34106.29
675.29	33809.04
675.43	33750.52
675.56	33809.04
675.70	33914.36
675.84	33488.38
675.98	32622.39
676.12	33394.76
676.26	34019.69
676.40	33469.66
676.54	33118.58
676.68	32769.84
676.82	32687.92
676.96	32896.23
677.10	33305.82
677.23	32641.11
677.37	32774.52
677.51	32116.83
677.65	32606.00
677.79	32243.22
677.93	32535.79
678.07	32460.89
678.21	32091.09
678.34	31903.84
678.48	31454.46
678.62	31852.35
678.76	31395.95
678.90	31527.02
679.04	31630.00
679.18	31768.09
679.31	31194.66
679.45	31257.85
679.59	30934.86
679.73	30855.28
679.87	30813.15
680.00	30890.39
680.14	30728.89
680.28	31096.36
680.42	30621.23
680.56	30700.81
680.70	30258.45
680.83	30157.80
680.97	30183.55
681.11	30052.48
681.25	29780.98
681.39	29738.85
681.52	29956.52
681.66	29181.80
681.80	29027.32
681.94	28842.42
682.07	29142.01
682.21	29151.37
682.35	28966.47
682.49	28650.50
682.62	28662.20
682.76	28966.47
682.90	28863.49
683.04	28716.03
683.17	28933.70
683.31	28283.03
683.45	28411.76
683.59	27857.06
683.72	28451.55
683.86	27927.27
684.00	27852.38
684.13	27704.92
684.27	27969.40
684.41	27508.32
684.55	27826.63
684.68	27756.41
684.82	27292.99
684.96	27042.55
685.09	27489.59
685.23	27611.30
685.37	27702.58
685.50	27468.53
685.64	27178.30
685.78	27047.23
685.91	26789.77
686.05	26419.97
686.19	26576.78
686.32	25968.24
686.46	25947.18
686.60	26052.50
686.73	26253.79
686.87	26113.36
687.01	26024.42
687.14	26045.48
687.28	25804.41
687.42	25689.72
687.55	25209.91
687.69	25443.96
687.82	25252.04
687.96	25462.69
688.10	25291.83
688.23	24922.02
688.37	25160.76
688.50	25500.14
688.64	24922.02
688.78	24837.76
688.91	24830.74
689.05	24739.46
689.18	24437.53
689.32	24128.58
689.46	23763.46
689.59	23765.80
689.73	24208.16
689.86	24428.17
690.00	23913.25
690.13	24140.29
690.27	23613.66
690.41	23576.22
690.54	23625.37
690.68	23576.22
690.81	23042.57
690.95	23126.83
691.08	23274.29
691.22	22974.70
691.35	22960.66
691.49	22972.36
691.62	22789.80
691.76	22457.44
691.89	22239.77
692.03	22522.98
692.16	22143.81
692.30	22132.11
692.43	22335.73
692.57	21720.17
692.70	22080.61
692.84	21750.60
692.97	21706.13
693.11	21591.44
693.24	21434.63
693.38	21331.64
693.51	21254.40
693.65	21326.96
693.78	21291.85
693.92	20851.83
694.05	20842.47
694.19	20891.62
694.32	20554.58
694.45	21027.37
694.59	21020.35
694.72	21025.03
694.86	20493.73
694.99	20280.74
695.13	20196.48
695.26	19967.11
695.39	20039.67
695.53	19747.10
695.66	19850.08
695.80	19623.05
695.93	19417.08
696.07	19707.31
696.20	19105.79
696.33	19030.90
696.47	19222.82
696.60	19782.21
696.73	19370.27
696.87	19232.18
697.00	18920.89
697.14	19030.90
697.27	18609.60
697.40	18904.51
697.54	18864.72
697.67	18754.71
697.80	18614.28
697.94	18368.52
698.07	18422.36
698.21	18249.16
698.34	18436.40
698.47	18148.51
698.61	17652.32
698.74	17858.29
698.87	17729.56
699.01	17441.67
699.14	17703.81
699.27	17867.65
699.40	17568.06
699.54	17216.98
699.67	17729.56
699.80	17593.81
699.94	16971.22
700.07	17343.37
700.20	17116.34
700.34	16980.59
700.47	16753.55
700.60	17043.78
700.73	16826.11
700.87	16374.39
701.00	16166.08
701.13	16376.73
701.26	16472.69
701.40	16432.90
701.53	16266.72
701.66	16208.21
701.79	15969.48
701.93	15845.43
702.06	15861.81
702.19	15807.98
702.32	15913.30
702.46	15676.91
702.59	15573.92
702.72	15854.79
702.85	15999.90
702.99	15578.61
703.12	15480.30
703.25	15274.34
703.38	15103.48
703.51	15096.46
703.65	15119.86
703.78	14504.30
703.91	14801.55
704.04	14810.91
704.17	14693.88
704.31	14569.83
704.44	14743.03
704.57	14958.36
704.70	14361.53
704.83	14249.18
704.96	14274.93
705.10	14174.28
705.23	14387.27
>>>>>End Processed Spectral Data<<<<<
