SpectraSuite Data File
++++++++++++++++++++++++++++++++++++
Date: Fri Oct 25 10:48:08 EDT 2013
User: price-jones
Dark Spectrum Present: No
Reference Spectrum Present: No
Number of Sampled Component Spectra: 1
Spectrometers: USB2+H05261
Integration Time (usec): 100000 (USB2+H05261)
Spectra Averaged: 1 (USB2+H05261)
Boxcar Smoothing: 0 (USB2+H05261)
Correct for Electrical Dark: No (USB2+H05261)
Strobe/Lamp Enabled: No (USB2+H05261)
Correct for Detector Non-linearity: No (USB2+H05261)
Correct for Stray Light: No (USB2+H05261)
Number of Pixels in Processed Spectrum: 2048
>>>>>Begin Processed Spectral Data<<<<<
365.73	208.31
365.92	208.31
366.12	208.31
366.32	53.83
366.52	37.45
366.72	58.51
366.91	107.66
367.11	28.09
367.31	49.15
367.51	42.13
367.70	30.43
367.90	102.98
368.10	0.00
368.30	39.79
368.49	128.73
368.69	140.43
368.89	88.94
369.09	79.58
369.28	88.94
369.48	81.92
369.68	105.32
369.87	117.03
370.07	110.01
370.27	210.65
370.47	191.92
370.66	390.87
370.86	390.87
371.06	367.46
371.25	400.23
371.45	468.11
371.65	461.09
371.84	423.64
372.04	463.43
372.24	521.94
372.44	510.24
372.63	463.43
372.83	465.77
373.03	447.04
373.22	470.45
373.42	557.05
373.62	547.69
373.81	533.64
374.01	585.13
374.21	554.71
374.40	559.39
374.60	634.29
374.79	528.96
374.99	582.79
375.19	517.26
375.38	631.94
375.58	545.34
375.78	603.86
375.97	599.18
376.17	594.50
376.37	575.77
376.56	589.82
376.76	608.54
376.95	589.82
377.15	643.65
377.35	657.69
377.54	627.26
377.74	601.52
377.93	545.34
378.13	564.07
378.33	641.31
378.52	615.56
378.72	676.41
378.91	636.63
379.11	613.22
379.31	641.31
379.50	587.47
379.70	601.52
379.89	634.29
380.09	678.76
380.28	697.48
380.48	655.35
380.68	531.30
380.87	643.65
381.07	596.84
381.26	690.46
381.46	650.67
381.65	589.82
381.85	683.44
382.04	620.24
382.24	753.65
382.43	772.38
382.63	730.25
382.83	727.91
383.02	723.23
383.22	718.54
383.41	683.44
383.61	718.54
383.80	748.97
384.00	758.33
384.19	706.84
384.39	739.61
384.58	713.86
384.78	725.57
384.97	725.57
385.17	732.59
385.36	685.78
385.56	709.18
385.75	720.88
385.95	737.27
386.14	842.59
386.34	746.63
386.53	823.87
386.72	774.72
386.92	814.51
387.11	858.98
387.31	816.85
387.50	793.44
387.70	795.78
387.89	781.74
388.09	788.76
388.28	929.19
388.48	798.12
388.67	844.93
388.86	798.12
389.06	957.28
389.25	884.72
389.45	880.04
389.64	791.10
389.84	999.41
390.03	891.74
390.22	910.47
390.42	940.90
390.61	837.91
390.81	915.15
391.00	908.13
391.19	940.90
391.39	919.83
391.58	1034.52
391.78	936.21
391.97	912.81
392.16	929.19
392.36	992.39
392.55	1006.43
392.75	889.40
392.94	917.49
393.13	1060.26
393.33	844.93
393.52	959.62
393.71	1076.65
393.91	1025.15
394.10	1022.81
394.29	1041.54
394.49	1036.86
394.68	1076.65
394.88	1135.16
395.07	1200.69
395.26	1116.44
395.46	1104.73
395.65	1097.71
395.84	1156.22
396.04	1263.89
396.23	1181.97
396.42	1128.14
396.62	1055.58
396.81	1156.22
397.00	1158.57
397.19	1135.16
397.39	1121.12
397.58	1245.16
397.77	1266.23
397.97	1203.04
398.16	1214.74
398.35	1275.59
398.55	1214.74
398.74	1287.29
398.93	1352.83
399.12	1259.21
399.32	1341.13
399.51	1320.06
399.70	1364.53
399.90	1275.59
400.09	1357.51
400.28	1331.76
400.47	1416.02
400.67	1427.73
400.86	1535.39
401.05	1439.43
401.24	1423.05
401.44	1462.83
401.63	1458.15
401.82	1458.15
402.01	1451.13
402.21	1486.24
402.40	1451.13
402.59	1535.39
402.78	1547.09
402.97	1561.14
403.17	1565.82
403.36	1575.18
403.55	1603.27
403.74	1647.74
403.93	1643.06
404.13	1605.61
404.32	1643.06
404.51	1551.78
404.70	1664.12
404.89	1696.89
405.09	1729.66
405.28	1755.40
405.47	1685.19
405.66	1675.82
405.85	1668.80
406.05	1710.93
406.24	1813.92
406.43	1846.68
406.62	1771.79
406.81	1778.81
407.00	1722.63
407.20	1804.55
407.39	1755.40
407.58	1767.10
407.77	1853.70
407.96	1935.62
408.15	1863.07
408.34	1926.26
408.54	2024.56
408.73	1893.49
408.92	1982.43
409.11	2069.03
409.30	1921.58
409.49	2050.31
409.68	2033.93
409.87	1996.48
410.07	1987.11
410.26	1987.11
410.45	2012.86
410.64	2153.29
410.83	2047.97
411.02	2200.10
411.21	2328.83
411.40	2174.36
411.59	2319.47
411.78	2303.09
411.98	2249.25
412.17	2253.94
412.36	2272.66
412.55	2377.98
412.74	2370.96
412.93	2307.77
413.12	2321.81
413.31	2380.32
413.50	2375.64
413.69	2448.20
413.88	2483.31
414.07	2574.59
414.26	2506.71
414.45	2661.19
414.64	2658.85
414.83	2750.13
415.02	2600.34
415.22	2654.17
415.41	2771.19
415.60	2715.02
415.79	2764.17
415.98	2862.48
416.17	2761.83
416.36	2764.17
416.55	2775.88
416.74	2857.79
416.93	2932.69
417.12	2801.62
417.31	2768.85
417.50	2761.83
417.69	3115.25
417.88	2991.20
418.07	3131.64
418.26	2951.42
418.45	3052.06
418.64	3084.83
418.83	3005.25
419.02	3150.36
419.21	3101.21
419.39	3173.77
419.58	3211.22
419.77	3136.32
419.96	3166.74
420.15	3295.47
420.34	3241.64
420.53	3349.31
420.72	3396.12
420.91	3339.94
421.10	3300.16
421.29	3332.92
421.48	3157.38
421.67	3349.31
421.86	3417.18
422.05	3487.40
422.24	3407.82
422.43	3389.10
422.61	3393.78
422.80	3274.41
422.99	3417.18
423.18	3576.34
423.37	3442.93
423.56	3588.04
423.75	3501.44
423.94	3248.66
424.13	3269.73
424.32	3211.22
424.50	3534.21
424.69	3478.04
424.88	3569.32
425.07	3398.46
425.26	3508.46
425.45	3379.73
425.64	3426.54
425.83	3557.61
426.01	3566.98
426.20	3534.21
426.39	3508.46
426.58	3557.61
426.77	3536.55
426.96	3426.54
427.15	3508.46
427.33	3609.11
427.52	3510.80
427.71	3552.93
427.90	3719.11
428.09	3681.66
428.28	3541.23
428.46	3609.11
428.65	3644.21
428.84	3742.52
429.03	3843.16
429.22	3749.54
429.40	3702.73
429.59	3796.35
429.78	3499.10
429.97	3604.42
430.16	3681.66
430.34	3819.75
430.53	3786.99
430.72	3796.35
430.91	3761.24
431.10	3847.84
431.28	3988.27
431.47	3896.99
431.66	4067.85
431.85	3983.59
432.03	4201.26
432.22	4147.43
432.41	4121.68
432.60	4109.98
432.79	4084.23
432.97	4177.86
433.16	4042.11
433.35	4198.92
433.54	4222.33
433.72	4198.92
433.91	4177.86
434.10	4056.15
434.28	4227.01
434.47	4276.16
434.66	4262.12
434.85	4367.44
435.03	4409.57
435.22	4344.03
435.41	4528.94
435.59	4454.04
435.78	4381.48
435.97	4547.66
436.16	4461.06
436.34	4533.62
436.53	4423.61
436.72	4788.74
436.90	4500.85
437.09	4585.11
437.28	4454.04
437.46	4512.55
437.65	4386.16
437.84	4552.34
438.02	4645.96
438.21	4561.70
438.40	4613.20
438.58	4723.20
438.77	4826.18
438.96	4830.87
439.14	4873.00
439.33	5011.09
439.52	4887.04
439.70	4975.98
439.89	5090.67
440.08	5107.05
440.26	4943.21
440.45	5060.24
440.63	5174.92
440.82	5343.44
441.01	5289.61
441.19	5317.70
441.38	5348.12
441.57	5362.17
441.75	5210.03
441.94	5462.81
442.12	5556.43
442.31	5369.19
442.50	5516.64
442.68	5504.94
442.87	5612.60
443.05	5631.33
443.24	5792.83
443.43	5738.99
443.61	5816.23
443.80	5767.08
443.98	5490.90
444.17	5380.89
444.35	5783.46
444.54	5720.27
444.73	5776.44
444.91	5736.65
445.10	5628.99
445.28	5666.44
445.47	5738.99
445.65	5746.02
445.84	5748.36
446.02	5776.44
446.21	5792.83
446.39	5748.36
446.58	5919.21
446.77	5781.12
446.95	5762.40
447.14	5825.59
447.32	5944.96
447.51	5841.98
447.69	5799.85
447.88	5832.62
448.06	5797.51
448.25	5951.98
448.43	5982.41
448.62	5753.04
448.80	5912.19
448.99	5959.00
449.17	6001.13
449.36	5989.43
449.54	5994.11
449.73	6085.39
449.91	6132.20
450.10	6291.36
450.28	6291.36
450.46	6193.06
450.65	6167.31
450.83	6258.59
451.02	6127.52
451.20	6274.98
451.39	6427.11
451.57	6349.87
451.76	6267.95
451.94	6370.94
452.13	6277.32
452.31	6370.94
452.49	6253.91
452.68	6286.68
452.86	6509.03
453.05	6417.75
453.23	6445.84
453.42	6480.94
453.60	6441.15
453.78	6635.42
453.97	6462.22
454.15	6602.65
454.34	6317.11
454.52	6544.14
454.70	6504.35
454.89	6747.76
455.07	6567.54
455.26	6712.66
455.44	6799.26
455.62	6750.10
455.81	6813.30
455.99	6883.52
456.17	6853.09
456.36	6970.12
456.54	6927.99
456.73	6899.90
456.91	7089.48
457.09	7143.32
457.28	7288.43
457.46	7068.42
457.64	6932.67
457.83	7063.74
458.01	7063.74
458.19	7517.80
458.38	7260.34
458.56	7368.01
458.74	7199.49
458.93	7393.75
459.11	7185.44
459.29	7316.51
459.48	7375.03
459.66	7349.28
459.84	7508.44
460.03	7583.34
460.21	7360.98
460.39	7487.37
460.57	7562.27
460.76	7702.70
460.94	7466.31
461.12	7681.64
461.31	7648.87
461.49	7630.15
461.67	7595.04
461.85	7709.72
462.04	7646.53
462.22	8280.82
462.40	7925.05
462.59	7824.41
462.77	8021.02
462.95	8021.02
463.13	7786.96
463.32	7840.79
463.50	7927.39
463.68	8056.12
463.86	8051.44
464.05	7894.63
464.23	7859.52
464.41	8154.43
464.59	7819.73
464.78	7922.71
464.96	8109.96
465.14	7779.94
465.32	8044.42
465.50	8231.66
465.69	8142.72
465.87	8201.24
466.05	8140.38
466.23	8264.43
466.41	8351.03
466.60	8475.08
466.78	8152.09
466.96	8184.85
467.14	8322.94
467.32	8264.43
467.51	8552.32
467.69	8166.13
467.87	8344.01
468.05	8582.74
468.23	8454.02
468.41	8400.18
468.60	8360.39
468.78	8475.08
468.96	8484.44
469.14	8704.45
469.32	8751.26
469.50	8449.33
469.69	8634.24
469.87	8608.49
470.05	8711.47
470.23	8891.70
470.41	8868.29
470.59	8828.50
470.77	8688.07
470.95	8924.46
471.14	9001.70
471.32	8924.46
471.50	9034.47
471.68	9156.18
471.86	9095.32
472.04	9100.00
472.22	9423.00
472.40	9170.22
472.58	9242.78
472.77	9179.58
472.95	9411.29
473.13	9720.24
473.31	9397.25
473.49	9415.98
473.67	9497.89
473.85	9572.79
474.03	9652.37
474.21	9797.48
474.39	9731.95
474.57	9537.68
474.75	9839.61
474.93	9996.43
475.12	9884.08
475.30	10083.03
475.48	9994.09
475.66	10115.80
475.84	9958.98
476.02	10335.81
476.20	10380.28
476.38	10434.11
476.56	10637.73
476.74	10679.86
476.92	10546.45
477.10	10637.73
477.28	10642.42
477.46	10850.72
477.64	10923.28
477.82	11007.54
478.00	10944.34
478.18	11110.52
478.36	11178.40
478.54	11463.94
478.72	11417.13
478.90	11618.42
479.08	11496.71
479.26	11520.12
479.44	11756.51
479.62	11779.92
479.80	11985.88
479.98	11836.09
480.16	12315.90
480.34	12100.57
480.52	12325.26
480.70	12388.46
480.88	12135.68
481.06	12437.61
481.24	12334.62
481.41	12325.26
481.59	12732.51
481.77	12933.80
481.95	12596.76
482.13	12982.95
482.31	13102.32
482.49	13170.19
482.67	13270.84
482.85	13413.61
483.03	13383.18
483.21	13638.30
483.39	13729.58
483.57	13495.53
483.74	13958.96
483.92	13930.87
484.10	13848.95
484.28	14090.02
484.46	14452.81
484.64	14651.75
484.82	14263.22
485.00	14700.90
485.18	14661.12
485.35	14836.66
485.53	14848.36
485.71	14904.53
485.89	15012.20
486.07	15346.89
486.25	15367.96
486.43	15110.50
486.61	15410.09
486.78	15817.34
486.96	15932.03
487.14	15981.18
487.32	15810.32
487.50	16379.07
487.68	16315.87
487.85	16650.57
488.03	16631.85
488.21	16816.75
488.39	16451.63
488.57	16671.64
488.75	17216.98
488.92	17238.05
489.10	17343.37
489.28	17759.98
489.46	17579.76
489.64	17706.15
489.81	17975.31
489.99	18092.34
490.17	18047.87
490.35	18410.65
490.53	18228.09
490.70	18487.89
490.88	18551.09
491.06	18803.86
491.24	18853.02
491.41	18576.83
491.59	18824.93
491.77	18904.51
491.95	19335.17
492.13	19274.31
492.30	19620.71
492.48	19325.80
492.66	19543.47
492.84	19733.06
493.01	19908.60
493.19	19941.36
493.37	20250.32
493.54	20339.26
493.72	20259.68
493.90	20428.20
494.08	20423.51
494.25	20891.62
494.43	20994.61
494.61	20828.43
494.79	21111.63
494.96	21046.10
495.14	21380.79
495.32	21345.69
495.49	21699.11
495.67	21135.04
495.85	21912.10
496.02	21664.00
496.20	21947.20
496.38	22211.68
496.55	21977.63
496.73	22841.29
496.91	22209.34
497.09	22780.43
497.26	22801.50
497.44	22881.08
497.62	22684.47
497.79	23154.92
497.97	22874.06
498.14	22904.48
498.32	23246.20
498.50	23438.12
498.67	23620.69
498.85	23896.87
499.03	23349.18
499.20	23667.50
499.38	23754.10
499.56	23995.17
499.73	24039.64
499.91	24084.11
500.08	24240.93
500.26	24341.57
500.44	24222.20
500.61	24037.30
500.79	24142.63
500.97	24753.51
501.14	25034.37
501.32	24900.96
501.49	24795.64
501.67	24826.06
501.84	25104.59
502.02	24861.17
502.20	25046.07
502.37	25441.62
502.55	25287.15
502.72	25685.04
502.90	25685.04
503.07	25355.02
503.25	25474.39
503.43	25818.45
503.60	25549.29
503.78	25701.42
503.95	25947.18
504.13	25989.31
504.30	26256.13
504.48	26024.42
504.65	26206.98
504.83	26607.21
505.01	26923.18
505.18	26476.14
505.36	27297.67
505.53	26696.15
505.71	27138.51
505.88	27213.41
506.06	26405.92
506.23	27131.49
506.41	26850.63
506.58	27122.13
506.76	27309.37
506.93	27903.87
507.11	27426.40
507.28	27615.98
507.46	27529.38
507.63	27714.28
507.81	27131.49
507.98	27515.34
508.16	27810.25
508.33	28208.14
508.50	28325.16
508.68	28121.54
508.85	28346.23
509.03	28217.50
509.20	28325.16
509.38	28856.46
509.55	28575.60
509.73	28732.42
509.90	29050.73
510.08	28835.40
510.25	28999.24
510.42	29057.75
510.60	28966.47
510.77	29099.88
510.95	29202.86
511.12	29350.32
511.30	29310.53
511.47	29422.87
511.64	29898.00
511.82	29923.75
511.99	29677.99
512.17	29649.91
512.34	29783.32
512.51	30036.09
512.69	30228.02
512.86	30185.89
513.04	30478.46
513.21	30169.51
513.38	30108.65
513.56	30340.36
513.73	30160.14
513.90	30782.73
514.08	30579.10
514.25	31026.14
514.43	30644.63
514.60	30623.57
514.77	30476.12
514.95	30841.24
515.12	30953.58
515.29	31157.21
515.47	31519.99
515.64	31538.72
515.81	31131.47
515.99	31274.24
516.16	31370.20
516.33	31171.25
516.51	31297.64
516.68	31145.51
516.85	31166.57
517.03	31658.09
517.20	31466.16
517.37	31763.41
517.54	31772.77
517.72	31709.58
517.89	31758.73
518.06	31887.46
518.24	31838.31
518.41	31473.18
518.58	31892.14
518.75	32215.13
518.93	32723.03
519.10	32460.89
519.27	32393.01
519.45	32765.16
519.62	32659.84
519.79	32706.65
519.96	33198.16
520.14	33284.76
520.31	32954.74
520.48	32755.80
520.65	32744.09
520.83	33296.46
521.00	33298.80
521.17	33151.35
521.34	33352.63
521.52	33394.76
521.69	33542.22
521.86	33631.16
522.03	33553.92
522.20	33729.46
522.38	34134.37
522.55	33780.95
522.72	33682.65
522.89	33542.22
523.07	34017.35
523.24	33586.69
523.41	34099.26
523.58	33874.57
523.75	34778.02
523.92	34600.14
524.10	34277.15
524.27	34726.53
524.44	34623.54
524.61	34848.24
524.78	34693.76
524.96	34998.03
525.13	34735.89
525.30	35084.63
525.47	35093.99
525.64	35196.98
525.81	35105.70
525.98	35435.71
526.16	34808.45
526.33	34841.21
526.50	35531.67
526.67	35250.81
526.84	35239.11
527.01	34761.64
527.18	35117.40
527.36	35529.33
527.53	35679.13
527.70	36004.46
527.87	35777.43
528.04	35871.05
528.21	35356.13
528.38	35894.46
528.55	35988.08
528.72	35683.81
528.89	36032.55
529.07	36025.53
529.24	36074.68
529.41	36357.88
529.58	36491.29
529.75	36201.07
529.92	36217.45
530.09	36280.64
530.26	36631.72
530.43	36608.32
530.60	36339.16
530.77	36500.65
530.94	36582.57
531.11	36671.51
531.28	36418.74
531.46	37099.83
531.63	36535.76
531.80	37083.45
531.97	36627.04
532.14	36872.80
532.31	36814.29
532.48	36961.74
532.65	37251.97
532.82	37015.57
532.99	37542.19
533.16	37163.03
533.33	37457.93
533.50	37511.77
533.67	37511.77
533.84	37132.60
534.01	37471.98
534.18	37823.06
534.35	37972.85
534.52	37851.14
534.69	37310.48
534.86	37979.87
535.03	37539.85
535.20	38206.90
535.37	38476.07
535.54	37951.79
535.71	38136.69
535.88	37544.53
536.05	38094.56
536.22	38101.58
536.38	38157.75
536.55	38026.68
536.72	37764.54
536.89	37748.16
537.06	38508.83
537.23	38483.09
537.40	38396.49
537.57	38590.75
537.74	38560.33
537.91	38866.94
538.08	38604.80
538.25	38234.99
538.42	38513.52
538.59	38899.70
538.75	38136.69
538.92	38387.13
539.09	39105.67
539.26	38543.94
539.43	38726.50
539.60	38979.28
539.77	38478.41
539.94	39140.78
540.11	38871.62
540.28	38892.68
540.44	38993.32
540.61	39187.59
540.78	39246.10
540.95	38902.04
541.12	39049.50
541.29	39225.04
541.46	39145.46
541.62	39339.72
541.79	39421.64
541.96	39108.01
542.13	39222.70
542.30	40009.12
542.47	39185.25
542.63	39398.24
542.80	39763.36
542.97	40032.52
543.14	40254.87
543.31	40465.52
543.48	40376.58
543.64	40657.45
543.81	40477.22
543.98	40229.13
544.15	40362.54
544.32	40222.11
544.48	40542.76
544.65	40418.71
544.82	40306.37
544.99	39945.92
545.16	40620.00
545.32	40493.61
545.49	40612.98
545.66	40919.59
545.83	40535.74
546.00	41099.81
546.16	40343.81
546.33	40545.10
546.50	40353.18
546.67	40554.46
546.83	40062.95
547.00	40835.33
547.17	41010.87
547.34	40610.64
547.50	41289.39
547.67	41572.60
547.84	40809.58
548.00	40973.42
548.17	41500.04
548.34	41013.21
548.51	41364.29
548.67	41317.48
548.84	41706.01
549.01	41219.17
549.18	41022.57
549.34	41390.03
549.51	41158.32
549.68	41766.86
549.84	41797.29
550.01	41691.96
550.18	41516.42
550.34	41596.00
550.51	41387.69
550.68	41706.01
550.84	41191.09
551.01	41787.92
551.18	41895.59
551.34	41425.14
551.51	42206.88
551.68	42012.62
551.84	42141.35
552.01	41514.08
552.18	41921.34
552.34	41947.08
552.51	41947.08
552.68	42368.38
552.84	42436.25
553.01	42204.54
553.18	42347.31
553.34	42239.65
553.51	42057.09
553.67	41612.38
553.84	42464.34
554.01	42253.69
554.17	42866.91
554.34	42557.96
554.51	42623.50
554.67	42590.73
554.84	42492.43
555.00	42131.98
555.17	42089.85
555.33	42092.19
555.50	42361.36
555.67	42349.65
555.83	42520.51
556.00	42679.67
556.16	43430.98
556.33	42848.19
556.50	42628.18
556.66	42677.33
556.83	42305.18
556.99	43335.02
557.16	43075.22
557.32	42735.84
557.49	43365.45
557.65	42192.84
557.82	42822.44
557.98	42803.72
558.15	43133.73
558.32	42852.87
558.48	42672.65
558.65	43566.73
558.81	43292.89
558.98	43189.91
559.14	43012.02
559.31	42925.42
559.47	43157.14
559.64	43592.48
559.80	43557.37
559.97	43222.67
560.13	43426.30
560.30	43217.99
560.46	43217.99
560.63	43461.41
560.79	43061.18
560.96	43374.81
561.12	43262.46
561.29	43049.47
561.45	43409.92
561.61	43452.05
561.78	43124.37
561.94	43035.43
562.11	42845.85
562.27	43482.47
562.44	43351.40
562.60	43454.39
562.77	43332.68
562.93	43096.28
563.10	43566.73
563.26	43068.20
563.42	43735.25
563.59	43475.45
563.75	43290.55
563.92	44025.48
564.08	43388.85
564.24	43592.48
564.41	44156.55
564.57	43650.99
564.74	43782.06
564.90	43524.60
565.07	43594.82
565.23	43281.19
565.39	43445.02
565.56	43770.36
565.72	43723.55
565.88	43718.87
566.05	43447.36
566.21	44074.63
566.38	43910.79
566.54	43606.52
566.70	44336.77
566.87	44250.17
567.03	44037.18
567.19	44236.12
567.36	43824.19
567.52	43412.26
567.68	43868.66
567.85	43856.96
568.01	43871.00
568.17	44048.88
568.34	44095.69
568.50	43744.61
568.66	44023.14
568.83	44215.06
568.99	43775.04
569.15	43564.39
569.32	43524.60
569.48	43784.40
569.64	44144.84
569.81	44282.94
569.97	43395.87
570.13	43920.15
570.30	43838.23
570.46	44133.14
570.62	44025.48
570.78	43697.80
570.95	44130.80
571.11	44467.84
571.27	43922.49
571.43	43784.40
571.60	43889.73
571.76	43983.35
571.92	44184.63
572.09	43866.32
572.25	43777.38
572.41	44037.18
572.57	44147.18
572.74	44694.87
572.90	43936.54
573.06	43793.76
573.22	44594.23
573.38	44325.07
573.55	43882.70
573.71	44453.79
573.87	44039.52
574.03	43658.01
574.20	43973.98
574.36	43917.81
574.52	44306.34
574.68	44690.19
574.84	44046.54
575.01	43903.77
575.17	44098.03
575.33	43650.99
575.49	43976.33
575.65	44210.38
575.82	44556.78
575.98	44739.34
576.14	44519.33
576.30	44198.68
576.46	44229.10
576.62	43896.75
576.79	44023.14
576.95	43285.87
577.11	44332.09
577.27	43842.92
577.43	44259.53
577.59	43978.67
577.75	44128.46
577.92	43889.73
578.08	44048.88
578.24	43943.56
578.40	43725.89
578.56	44037.18
578.72	44289.96
578.88	44493.58
579.04	44554.44
579.21	43917.81
579.37	43861.64
579.53	44091.01
579.69	44065.27
579.85	44149.53
580.01	44568.48
580.17	44847.00
580.33	44472.52
580.49	44694.87
580.65	44226.76
580.82	44432.73
580.98	44470.18
581.14	44163.57
581.30	44690.19
581.46	44215.06
581.62	44428.05
581.78	44521.67
581.94	44814.24
582.10	43650.99
582.26	44119.10
582.42	44355.49
582.58	44531.03
582.74	44121.44
582.90	44980.42
583.06	44194.00
583.22	44961.69
583.38	44584.86
583.54	44767.43
583.70	44591.89
583.86	44708.91
584.02	44004.41
584.18	44336.77
584.34	44149.53
584.50	44390.60
584.66	44451.45
584.82	44210.38
584.98	44516.99
585.14	44507.63
585.30	44418.69
585.46	44706.57
585.62	44458.48
585.78	44444.43
585.94	43995.05
586.10	44528.69
586.26	44388.26
586.42	44690.19
586.58	44432.73
586.74	44751.04
586.90	44245.49
587.06	44472.52
587.22	44638.70
587.38	44018.46
587.54	44781.47
587.70	44804.88
587.86	44465.50
588.02	44458.48
588.18	44772.11
588.34	44374.22
588.49	44713.59
588.65	44259.53
588.81	44034.84
588.97	44378.90
589.13	44629.34
589.29	44421.03
589.45	44559.12
589.61	44308.68
589.77	44772.11
589.93	44835.30
590.08	44531.03
590.24	44545.08
590.40	44435.07
590.56	44896.16
590.72	44788.49
590.88	44474.86
591.04	44821.26
591.20	44692.53
591.35	45228.51
591.51	44982.76
591.67	44636.36
591.83	44722.96
591.99	44554.44
592.15	44755.72
592.31	44898.50
592.46	44528.69
592.62	44383.58
592.78	44692.53
592.94	44980.42
593.10	44783.81
593.26	44781.47
593.41	44652.74
593.57	44603.59
593.73	44563.80
593.89	44772.11
594.05	44765.09
594.20	45162.98
594.36	45045.95
594.52	44168.25
594.68	44409.32
594.84	44837.64
594.99	45212.13
595.15	44694.87
595.31	44973.39
595.47	44931.26
595.62	44849.35
595.78	44893.82
595.94	44973.39
596.10	44706.57
596.25	45167.66
596.41	45067.02
596.57	44718.28
596.73	45272.98
596.88	44882.11
597.04	45017.86
597.20	44545.08
597.36	44842.32
597.51	45165.32
597.67	44701.89
597.83	44886.79
597.99	45141.91
598.14	44737.00
598.30	44933.60
598.46	44830.62
598.61	44809.56
598.77	44678.49
598.93	44875.09
599.09	44652.74
599.24	45071.70
599.40	45193.40
599.56	44971.05
599.71	45092.76
599.87	44839.98
600.03	45071.70
600.18	44968.71
600.34	45336.18
600.50	44832.96
600.65	44163.57
600.81	45167.66
600.97	45436.82
601.12	45310.43
601.28	45160.64
601.44	45265.96
601.59	45244.90
601.75	44491.24
601.91	44968.71
602.06	44910.20
602.22	44893.82
602.37	44619.97
602.53	44891.48
602.69	45212.13
602.84	44959.35
603.00	44980.42
603.16	44638.70
603.31	45193.40
603.47	44861.05
603.62	44680.83
603.78	45034.25
603.94	44566.14
604.09	44959.35
604.25	45322.13
604.40	45048.29
604.56	45015.52
604.71	45057.65
604.87	45324.47
605.03	45186.38
605.18	44898.50
605.34	44872.75
605.49	44612.95
605.65	45045.95
605.80	44851.69
605.96	44849.35
606.12	45420.44
606.27	44610.61
606.43	44531.03
606.58	44596.57
606.74	44453.79
606.89	44762.75
607.05	44935.95
607.20	44612.95
607.36	44828.28
607.51	44994.46
607.67	44563.80
607.82	44711.25
607.98	44919.56
608.13	44369.54
608.29	44584.86
608.44	44027.82
608.60	44474.86
608.75	44360.17
608.91	44594.23
609.06	44217.40
609.22	44847.00
609.37	44156.55
609.53	44643.38
609.68	44325.07
609.84	44212.72
609.99	44371.88
610.15	44428.05
610.30	44706.57
610.46	44254.85
610.61	44470.18
610.76	44701.89
610.92	44341.45
611.07	43840.57
611.23	44210.38
611.38	44507.63
611.54	44091.01
611.69	43910.79
611.84	44222.08
612.00	44439.75
612.15	44343.79
612.31	44739.34
612.46	44322.72
612.62	44790.83
612.77	44133.14
612.92	44556.78
613.08	44264.21
613.23	44062.93
613.39	44128.46
613.54	43309.27
613.69	43973.98
613.85	43985.69
614.00	43969.30
614.15	44421.03
614.31	43929.51
614.46	44296.98
614.62	44002.07
614.77	43854.62
614.92	44151.87
615.08	44107.40
615.23	43531.62
615.38	43852.28
615.54	43346.72
615.69	43569.07
615.84	43643.97
616.00	43543.33
616.15	43559.71
616.30	43789.08
616.46	43964.62
616.61	43185.22
616.76	43292.89
616.92	43622.90
617.07	43161.82
617.22	43817.17
617.37	43697.80
617.53	43805.47
617.68	43653.33
617.83	43650.99
617.99	43803.13
618.14	43550.35
618.29	43456.73
618.45	42834.14
618.60	43222.67
618.75	43281.19
618.90	43309.27
619.06	43693.12
619.21	43295.23
619.36	43835.89
619.51	43555.03
619.67	43131.39
619.82	43533.96
619.97	43461.41
620.12	43084.58
620.28	42714.78
620.43	43065.86
620.58	43372.47
620.73	43178.20
620.89	42986.28
621.04	42663.28
621.19	43302.25
621.34	43007.34
621.49	42719.46
621.65	42997.98
621.80	42738.18
621.95	43107.99
622.10	43044.79
622.25	42424.55
622.41	42806.06
622.56	42974.58
622.71	43023.73
622.86	42962.87
623.01	42649.24
623.16	43054.15
623.32	42864.57
623.47	43084.58
623.62	42497.11
623.77	42913.72
623.92	42721.80
624.07	42429.23
624.23	42391.78
624.38	42377.74
624.53	42239.65
624.68	42986.28
624.83	42548.60
624.98	42213.90
625.13	42101.56
625.29	42326.25
625.44	42492.43
625.59	42246.67
625.74	42464.34
625.89	41701.32
626.04	41890.91
626.19	42206.88
626.34	42134.32
626.49	41893.25
626.65	42307.52
626.80	42232.63
626.95	42064.11
627.10	41949.42
627.25	41848.78
627.40	41635.79
627.55	41455.57
627.70	41350.24
627.85	41689.62
628.00	41907.29
628.15	42026.66
628.30	41755.16
628.45	41659.20
628.60	42043.04
628.76	41979.85
628.91	41954.10
629.06	42150.71
629.21	41638.13
629.36	41661.54
629.51	41371.31
629.66	41415.78
629.81	41174.70
629.96	41373.65
630.11	41399.40
630.26	41551.53
630.41	41542.17
630.56	41539.83
630.71	41144.28
630.86	41397.06
631.01	41434.50
631.16	41158.32
631.31	41102.15
631.46	40849.37
631.61	41050.66
631.76	41069.38
631.91	41067.04
632.06	41055.34
632.21	41141.94
632.36	41315.14
632.51	41249.60
632.66	40891.50
632.81	40645.74
632.96	41060.02
633.10	40802.56
633.25	40559.14
633.40	40870.43
633.55	41125.55
633.70	40959.38
633.85	41333.86
634.00	40697.24
634.15	41008.53
634.30	40512.33
634.45	40879.80
634.60	40680.85
634.75	41102.15
634.90	40823.62
635.05	40699.58
635.19	40517.01
635.34	41034.27
635.49	40631.70
635.64	40348.50
635.79	40259.55
635.94	40264.24
636.09	40542.76
636.24	40589.57
636.39	40488.93
636.53	40498.29
636.68	40119.12
636.83	40072.31
636.98	40570.85
637.13	40032.52
637.28	40568.51
637.43	40493.61
637.57	40308.71
637.72	40140.19
637.87	40060.61
638.02	40519.35
638.17	40423.39
638.32	39711.87
638.46	40088.70
638.61	39533.99
638.76	39653.36
638.91	40030.18
639.06	39831.24
639.20	39826.56
639.35	40350.84
639.50	39913.16
639.65	40018.48
639.80	40201.04
639.94	39856.98
640.09	39779.74
640.24	39667.40
640.39	39431.01
640.54	39454.41
640.68	39187.59
640.83	39426.32
640.98	39543.35
641.13	39349.09
641.27	39754.00
641.42	39445.05
641.57	40259.55
641.72	39676.76
641.86	39295.25
642.01	39239.08
642.16	39220.36
642.31	38953.54
642.45	39676.76
642.60	38717.14
642.75	38717.14
642.90	39070.56
643.04	39112.69
643.19	39386.54
643.34	39332.70
643.48	39166.52
643.63	39196.95
643.78	38883.32
643.93	38778.00
644.07	38726.50
644.22	39152.48
644.37	38546.28
644.51	38958.22
644.66	38960.56
644.81	39033.11
644.95	39147.80
645.10	39529.31
645.25	38834.17
645.39	39030.77
645.54	39182.91
645.69	39351.43
645.83	38742.89
645.98	39208.65
646.13	38939.49
646.27	38520.54
646.42	38511.17
646.57	38604.80
646.71	38897.36
646.86	38565.01
647.00	38848.21
647.15	38880.98
647.30	38742.89
647.44	38663.31
647.59	38653.95
647.74	38756.93
647.88	38410.53
648.03	38216.27
648.17	38171.80
648.32	38323.93
648.47	38504.15
648.61	37965.83
648.76	38707.78
648.90	38398.83
649.05	38452.66
649.20	38569.69
649.34	38714.80
649.49	38436.28
649.63	38209.25
649.78	38536.92
649.92	38190.52
650.07	38602.46
650.21	37914.34
650.36	37951.79
650.51	37869.87
650.65	38330.95
650.80	38164.78
650.94	38611.82
651.09	37902.64
651.23	37977.53
651.38	38181.16
651.52	37853.48
651.67	38092.22
651.81	37574.96
651.96	38003.28
652.10	37605.39
652.25	37947.11
652.39	38036.05
652.54	37809.01
652.68	37769.22
652.83	37998.60
652.97	38061.79
653.12	37392.40
653.26	37446.23
653.41	37308.14
653.55	37310.48
653.70	37298.78
653.84	37280.05
653.99	37329.20
654.13	37769.22
654.27	37645.18
654.42	37816.04
654.56	37429.85
654.71	37319.84
654.85	37591.34
655.00	37523.47
655.14	37331.54
655.29	36566.19
655.43	36882.16
655.57	37013.23
655.72	36802.58
655.86	36769.82
656.01	37113.87
656.15	37043.66
656.30	36769.82
656.44	36884.50
656.58	36938.33
656.73	36519.38
656.87	36727.69
657.01	36575.55
657.16	36655.13
657.30	36240.86
657.45	36341.50
657.59	36659.81
657.73	36397.67
657.88	36510.02
658.02	36685.56
658.16	36409.37
658.31	36830.67
658.45	37242.60
658.60	37057.70
658.74	36519.38
658.88	36465.55
659.03	36477.25
659.17	36259.58
659.31	36472.57
659.46	36395.33
659.60	36311.07
659.74	36313.41
659.89	35536.35
660.03	35957.65
660.17	36175.32
660.32	35683.81
660.46	36458.52
660.60	35789.13
660.74	36095.74
660.89	35821.90
661.03	35985.74
661.17	35505.93
661.32	34974.63
661.46	35496.56
661.60	35564.44
661.74	35393.58
661.89	35690.83
662.03	35601.89
662.17	35257.83
662.31	35318.68
662.46	35620.61
662.60	35370.18
662.74	35496.56
662.88	35370.18
663.03	35318.68
663.17	35150.17
663.31	35091.65
663.45	35196.98
663.60	35409.96
663.74	34593.12
663.88	34796.74
664.02	34918.45
664.17	35033.14
664.31	34785.04
664.45	34293.53
664.59	34771.00
664.73	34831.85
664.88	35171.23
665.02	34330.98
665.16	34946.54
665.30	34602.48
665.44	34553.33
665.59	34195.23
665.73	34508.86
665.87	34244.38
666.01	34455.03
666.15	34127.35
666.29	34323.96
666.44	34293.53
666.58	33876.91
666.72	34277.15
666.86	34213.95
667.00	34181.18
667.14	33848.83
667.28	33366.68
667.43	33549.24
667.57	33514.13
667.71	33514.13
667.85	33699.03
667.99	33516.47
668.13	32840.06
668.27	33385.40
668.41	33125.60
668.56	33270.72
668.70	33212.20
668.84	33193.48
668.98	33151.35
669.12	33024.96
669.26	33369.02
669.40	32704.31
669.54	33151.35
669.68	32954.74
669.82	32479.61
669.96	32528.77
670.10	32821.33
670.25	32746.44
670.39	32807.29
670.53	32339.18
670.67	32140.24
670.81	32793.25
670.95	32608.34
671.09	32783.88
671.23	32552.17
671.37	32538.13
671.51	32257.26
671.65	32353.23
671.79	32105.13
671.93	32086.40
672.07	32156.62
672.21	32294.71
672.35	31700.22
672.49	31908.52
672.63	31852.35
672.77	31957.67
672.91	31527.02
673.05	31187.64
673.19	31695.53
673.33	31599.57
673.47	31566.81
673.61	31307.01
673.75	31129.12
673.89	30843.58
674.03	30642.29
674.17	30607.19
674.31	30553.35
674.45	30654.00
674.59	30885.71
674.73	30796.77
674.87	30700.81
675.01	30965.29
675.15	30838.90
675.29	30450.37
675.43	30469.09
675.56	30426.96
675.70	30368.45
675.84	30242.06
675.98	29275.42
676.12	29881.62
676.26	29846.51
676.40	29710.76
676.54	29467.34
676.68	29366.70
676.82	29144.35
676.96	29741.19
677.10	29322.23
677.23	29233.29
677.37	29097.54
677.51	29514.16
677.65	28912.64
677.79	28802.63
677.93	28971.15
678.07	29404.15
678.21	28428.15
678.34	28907.96
678.48	28428.15
678.62	28568.58
678.76	28409.42
678.90	28386.02
679.04	28285.37
679.18	28613.05
679.31	27704.92
679.45	28114.52
679.59	27349.16
679.73	28002.17
679.87	28285.37
680.00	27927.27
680.14	27475.55
680.28	27424.06
680.42	27377.25
680.56	27491.93
680.70	27323.41
680.83	27435.76
680.97	26885.73
681.11	26852.97
681.25	26843.60
681.39	26497.20
681.52	26796.79
681.66	26827.22
681.80	26686.79
681.94	26096.97
682.07	26480.82
682.21	26485.50
682.35	26286.56
682.49	26244.43
682.62	26211.66
682.76	26211.66
682.90	25930.80
683.04	25764.62
683.17	25830.15
683.31	25617.16
683.45	25706.10
683.59	25518.86
683.72	25209.91
683.86	25193.53
684.00	25287.15
684.13	25252.04
684.27	25455.67
684.41	24992.24
684.55	24812.02
684.68	24603.71
684.82	24477.32
684.96	24781.59
685.09	24816.70
685.23	24278.38
685.37	24411.79
685.50	24194.12
685.64	24261.99
685.78	24362.64
685.91	24259.65
686.05	23962.40
686.19	23508.34
686.32	23950.70
686.46	23756.44
686.60	23386.63
686.73	23482.59
686.87	23342.16
687.01	23185.35
687.14	23105.77
687.28	23311.74
687.42	23047.26
687.55	22663.41
687.69	22916.19
687.82	22534.68
687.96	22691.49
688.10	22705.54
688.23	22398.93
688.37	22279.56
688.50	22253.81
688.64	22209.34
688.78	22146.15
688.91	21750.60
689.05	22057.21
689.18	21977.63
689.32	21717.83
689.46	21673.36
689.59	21970.61
689.73	21799.75
689.86	21692.08
690.00	21781.03
690.13	21668.68
690.27	21551.65
690.41	21188.87
690.54	21001.63
690.68	21102.27
690.81	21170.15
690.95	21125.68
691.08	21097.59
691.22	20692.68
691.35	20730.12
691.49	20945.45
691.62	20685.65
691.76	20549.90
691.89	20599.05
692.03	20327.55
692.16	20365.00
692.30	20397.77
692.43	20238.61
692.57	20102.86
692.70	20154.35
692.84	19826.68
692.97	19587.94
693.11	19719.01
693.24	19487.30
693.38	19360.91
693.51	19541.13
693.65	19609.01
693.78	19569.22
693.92	19520.07
694.05	19630.07
694.19	19147.92
694.32	19068.34
694.45	18857.70
694.59	19143.24
694.72	19023.87
694.86	18890.46
694.99	18871.74
695.13	18256.18
695.26	18359.16
695.39	18546.40
695.53	18249.16
695.66	18113.41
695.80	18169.58
695.93	18263.20
696.07	17806.80
696.20	17879.35
696.33	18010.42
696.47	18059.57
696.60	17841.90
696.73	18017.44
696.87	17668.70
697.00	17661.68
697.14	17310.60
697.27	17493.16
697.40	17406.56
697.54	17298.90
697.67	17331.67
697.80	17362.09
697.94	17224.00
698.07	16723.13
698.21	16957.18
698.34	17032.08
698.47	17008.67
698.61	16617.80
698.74	16528.86
698.87	16535.88
699.01	16437.58
699.14	16500.78
699.27	16226.93
699.40	16175.44
699.54	15845.43
699.67	15967.13
699.80	16114.59
699.94	15683.93
700.07	15777.55
700.20	15892.24
700.34	15690.95
700.47	15880.53
700.60	15709.68
700.73	15786.91
700.87	15580.95
701.00	15477.96
701.13	15197.10
701.26	15063.69
701.40	15468.60
701.53	15400.72
701.66	15391.36
701.79	15279.02
701.93	15002.83
702.06	15122.20
702.19	14656.43
702.32	14675.16
702.46	14511.32
702.59	14682.18
702.72	14560.47
702.85	14476.21
702.99	14794.53
703.12	14794.53
703.25	14494.94
703.38	14424.72
703.51	14183.65
703.65	14244.50
703.78	14085.34
703.91	14012.79
704.04	14097.05
704.17	13834.91
704.31	13710.86
704.44	13619.58
704.57	13652.34
704.70	13774.05
704.83	13774.05
704.96	13242.75
705.10	13738.94
705.23	13511.91
>>>>>End Processed Spectral Data<<<<<
