SpectraSuite Data File
++++++++++++++++++++++++++++++++++++
Date: Fri Oct 25 10:47:26 EDT 2013
User: price-jones
Dark Spectrum Present: No
Reference Spectrum Present: No
Number of Sampled Component Spectra: 1
Spectrometers: USB2+H05261
Integration Time (usec): 100000 (USB2+H05261)
Spectra Averaged: 1 (USB2+H05261)
Boxcar Smoothing: 0 (USB2+H05261)
Correct for Electrical Dark: No (USB2+H05261)
Strobe/Lamp Enabled: No (USB2+H05261)
Correct for Detector Non-linearity: No (USB2+H05261)
Correct for Stray Light: No (USB2+H05261)
Number of Pixels in Processed Spectrum: 2048
>>>>>Begin Processed Spectral Data<<<<<
365.73	161.50
365.92	161.50
366.12	161.50
366.32	51.49
366.52	0.00
366.72	72.56
366.91	42.13
367.11	91.28
367.31	0.00
367.51	25.75
367.70	35.11
367.90	25.75
368.10	37.45
368.30	46.81
368.49	4.68
368.69	28.09
368.89	44.47
369.09	14.04
369.28	74.90
369.48	39.79
369.68	58.51
369.87	114.69
370.07	107.66
370.27	166.18
370.47	222.35
370.66	376.83
370.86	362.78
371.06	493.85
371.25	451.72
371.45	414.27
371.65	484.49
371.84	416.62
372.04	390.87
372.24	437.68
372.44	547.69
372.63	514.92
372.83	411.93
373.03	564.07
373.22	507.90
373.42	514.92
373.62	526.62
373.81	543.00
374.01	547.69
374.21	601.52
374.40	552.37
374.60	547.69
374.79	489.17
374.99	582.79
375.19	528.96
375.38	493.85
375.58	582.79
375.78	568.75
375.97	587.47
376.17	617.90
376.37	622.58
376.56	615.56
376.76	585.13
376.95	603.86
377.15	622.58
377.35	587.47
377.54	674.07
377.74	629.60
377.93	624.92
378.13	573.43
378.33	674.07
378.52	667.05
378.72	657.69
378.91	653.01
379.11	622.58
379.31	643.65
379.50	594.50
379.70	615.56
379.89	697.48
380.09	573.43
380.28	608.54
380.48	596.84
380.68	648.33
380.87	615.56
381.07	634.29
381.26	758.33
381.46	718.54
381.65	716.20
381.85	615.56
382.04	664.71
382.24	704.50
382.43	643.65
382.63	695.14
382.83	697.48
383.02	669.39
383.22	807.48
383.41	723.23
383.61	709.18
383.80	732.59
384.00	662.37
384.19	720.88
384.39	767.70
384.58	716.20
384.78	753.65
384.97	748.97
385.17	772.38
385.36	809.83
385.56	751.31
385.75	763.01
385.95	716.20
386.14	751.31
386.34	739.61
386.53	739.61
386.72	732.59
386.92	835.57
387.11	821.53
387.31	851.96
387.50	828.55
387.70	849.61
387.89	800.46
388.09	758.33
388.28	809.83
388.48	814.51
388.67	887.06
388.86	926.85
389.06	910.47
389.25	821.53
389.45	875.36
389.64	931.53
389.84	936.21
390.03	903.45
390.22	961.96
390.42	826.21
390.61	976.00
390.81	847.27
391.00	866.00
391.19	1008.77
391.39	1004.09
391.58	1048.56
391.78	898.77
391.97	966.64
392.16	950.26
392.36	985.37
392.55	959.62
392.75	987.71
392.94	1001.75
393.13	922.17
393.33	976.00
393.52	985.37
393.71	1001.75
393.91	971.32
394.10	1053.24
394.29	1001.75
394.49	1018.13
394.68	1071.97
394.88	1118.78
395.07	1043.88
395.26	1203.04
395.46	1170.27
395.65	1165.59
395.84	1123.46
396.04	1104.73
396.23	1170.27
396.42	1022.81
396.62	1135.16
396.81	1062.60
397.00	1109.41
397.19	1191.33
397.39	1177.29
397.58	1242.82
397.77	1179.63
397.97	1294.32
398.16	1299.00
398.35	1270.91
398.55	1282.61
398.74	1317.72
398.93	1313.04
399.12	1331.76
399.32	1256.87
399.51	1348.15
399.70	1380.92
399.90	1322.40
400.09	1378.58
400.28	1439.43
400.47	1331.76
400.67	1383.26
400.86	1418.36
401.05	1387.94
401.24	1399.64
401.44	1519.01
401.63	1399.64
401.82	1439.43
402.01	1472.20
402.21	1495.60
402.40	1409.00
402.59	1406.66
402.78	1558.80
402.97	1551.78
403.17	1523.69
403.36	1514.33
403.55	1526.03
403.74	1614.97
403.93	1579.86
404.13	1607.95
404.32	1739.02
404.51	1584.54
404.70	1830.30
404.89	1685.19
405.09	1706.25
405.28	1755.40
405.47	1666.46
405.66	1753.06
405.85	1727.32
406.05	1743.70
406.24	1783.49
406.43	1783.49
406.62	1703.91
406.81	1872.43
407.00	1813.92
407.20	1825.62
407.39	1774.13
407.58	1837.32
407.77	1973.07
407.96	1881.79
408.15	1905.20
408.34	1912.22
408.54	2010.52
408.73	1928.60
408.92	1937.96
409.11	2003.50
409.30	2080.74
409.49	1952.01
409.68	2057.33
409.87	2043.29
410.07	2069.03
410.26	2024.56
410.45	2150.95
410.64	2174.36
410.83	2106.48
411.02	2239.89
411.21	2286.70
411.40	2148.61
411.59	2200.10
411.78	2263.30
411.98	2270.32
412.17	2293.72
412.36	2338.20
412.55	2385.01
412.74	2399.05
412.93	2485.65
413.12	2392.03
413.31	2420.11
413.50	2548.84
413.69	2520.76
413.88	2616.72
414.07	2541.82
414.26	2399.05
414.45	2630.76
414.64	2619.06
414.83	2661.19
415.02	2628.42
415.22	2663.53
415.41	2656.51
415.60	2745.45
415.79	2855.45
415.98	2801.62
416.17	2843.75
416.36	2708.00
416.55	2787.58
416.74	2972.48
416.93	2855.45
417.12	2792.26
417.31	2939.71
417.50	2841.41
417.69	3019.29
417.88	3012.27
418.07	3084.83
418.26	3007.59
418.45	3049.72
418.64	3019.29
418.83	3042.70
419.02	3033.33
419.21	3199.51
419.39	3297.81
419.58	3190.15
419.77	3066.10
419.96	3178.45
420.15	3290.79
420.34	3243.98
420.53	3265.05
420.72	3304.84
420.91	3318.88
421.10	3466.33
421.29	3433.57
421.48	3421.86
421.67	3328.24
421.86	3419.52
422.05	3227.60
422.24	3337.60
422.43	3368.03
422.61	3496.76
422.80	3461.65
422.99	3492.08
423.18	3508.46
423.37	3499.10
423.56	3529.53
423.75	3447.61
423.94	3452.29
424.13	3293.13
424.32	3389.10
424.50	3585.70
424.69	3485.06
424.88	3611.45
425.07	3503.78
425.26	3358.67
425.45	3538.89
425.64	3482.72
425.83	3396.12
426.01	3611.45
426.20	3489.74
426.39	3599.74
426.58	3524.85
426.77	3545.91
426.96	3644.21
427.15	3669.96
427.33	3644.21
427.52	3637.19
427.71	3707.41
427.90	3599.74
428.09	3672.30
428.28	3655.92
428.46	3843.16
428.65	3791.67
428.84	3941.46
429.03	3861.88
429.22	3721.45
429.40	3744.86
429.59	3852.52
429.78	3751.88
429.97	3756.56
430.16	3789.33
430.34	3662.94
430.53	3889.97
430.72	3784.65
430.91	3992.95
431.10	3735.50
431.28	3995.29
431.47	4138.07
431.66	4184.88
431.85	4088.92
432.03	4194.24
432.22	4180.20
432.41	4065.51
432.60	4107.64
432.79	4191.90
432.97	4011.68
433.16	4109.98
433.35	4126.36
433.54	4257.43
433.72	4243.39
433.91	4212.96
434.10	4245.73
434.28	4329.99
434.47	4224.67
434.66	4414.25
434.85	4379.14
435.03	4449.36
435.22	4292.54
435.41	4400.21
435.59	4430.63
435.78	4379.14
435.97	4554.68
436.16	4615.54
436.34	4587.45
436.53	4662.35
436.72	4697.46
436.90	4550.00
437.09	4550.00
437.28	4610.86
437.46	4535.96
437.65	4601.49
437.84	4671.71
438.02	4669.37
438.21	4758.31
438.40	4592.13
438.58	4744.27
438.77	4751.29
438.96	4835.55
439.14	4863.63
439.33	4994.70
439.52	5156.20
439.70	4990.02
439.89	5097.69
440.08	5015.77
440.26	5121.09
440.45	5085.98
440.63	5205.35
440.82	5303.65
441.01	5153.86
441.19	5305.99
441.38	5350.46
441.57	5458.13
441.75	5432.38
441.94	5713.25
442.12	5472.17
442.31	5584.52
442.50	5603.24
442.68	5710.91
442.87	5516.64
443.05	5598.56
443.24	5570.48
443.43	5617.29
443.61	5736.65
443.80	5853.68
443.98	5682.82
444.17	5495.58
444.35	5734.31
444.54	5877.09
444.73	5699.20
444.91	5753.04
445.10	5827.93
445.28	5731.97
445.47	5582.18
445.65	5657.07
445.84	5839.64
446.02	5706.23
446.21	5738.99
446.39	5717.93
446.58	5923.90
446.77	5736.65
446.95	5774.10
447.14	5823.25
447.32	6040.92
447.51	5853.68
447.69	5860.70
447.88	5900.49
448.06	5877.09
448.25	5930.92
448.43	5987.09
448.62	5893.47
448.80	5886.45
448.99	6052.63
449.17	6167.31
449.36	6132.20
449.54	6164.97
449.73	6127.52
449.91	6265.61
450.10	6162.63
450.28	6363.92
450.46	6239.87
450.65	6403.71
450.83	6373.28
451.02	6300.72
451.20	6127.52
451.39	6392.00
451.57	6258.59
451.76	6296.04
451.94	6392.00
452.13	6410.73
452.31	6434.13
452.49	6253.91
452.68	6567.54
452.86	6354.55
453.05	6429.45
453.23	6312.42
453.42	6413.07
453.60	6382.64
453.78	6576.91
453.97	6530.09
454.15	6415.41
454.34	6553.50
454.52	6649.46
454.70	6745.42
454.89	6715.00
455.07	6677.55
455.26	6946.71
455.44	6862.45
455.62	6794.58
455.81	6874.15
455.99	7045.01
456.17	6916.28
456.36	6862.45
456.54	7014.59
456.73	7059.06
456.91	7255.66
457.09	7110.55
457.28	7180.76
457.46	7152.68
457.64	7169.06
457.83	7199.49
458.01	7215.87
458.19	7138.63
458.38	7323.54
458.56	7363.33
458.74	7297.79
458.93	7316.51
459.11	7342.26
459.29	7428.86
459.48	7438.22
459.66	7393.75
459.84	7412.48
460.03	7733.13
460.21	7428.86
460.39	7382.05
460.57	7625.47
460.76	7524.82
460.94	7616.10
461.12	7597.38
461.31	7688.66
461.49	7602.06
461.67	7716.75
461.85	7829.09
462.04	7719.09
462.22	8339.33
462.40	7974.21
462.59	7929.74
462.77	7707.38
462.95	8035.06
463.13	7960.16
463.32	7885.26
463.50	8079.53
463.68	8187.19
463.86	8100.59
464.05	7955.48
464.23	8116.98
464.41	8257.41
464.59	7999.95
464.78	8344.01
464.96	8004.63
465.14	8086.55
465.32	8170.81
465.50	8072.51
465.69	8402.52
465.87	8205.92
466.05	8196.56
466.23	8313.58
466.41	8180.17
466.60	8435.29
466.78	8332.31
466.96	8266.77
467.14	8170.81
467.32	8435.29
467.51	8521.89
467.69	8168.47
467.87	8587.43
468.05	8737.22
468.23	8301.88
468.41	8491.46
468.60	8538.27
468.78	8606.15
468.96	8629.56
469.14	8755.94
469.32	8781.69
469.50	8456.36
469.69	8730.20
469.87	8762.97
470.05	9121.07
470.23	8865.95
470.41	9146.81
470.59	9078.94
470.77	9050.85
470.95	9008.72
471.14	8997.02
471.32	8901.06
471.50	9202.99
471.68	9153.84
471.86	9256.82
472.04	9401.93
472.22	9570.45
472.40	9205.33
472.58	9331.72
472.77	9577.47
472.95	9551.73
473.13	9715.56
473.31	9518.96
473.49	9324.69
473.67	9378.53
473.85	9654.71
474.03	9722.59
474.21	9795.14
474.39	9923.87
474.57	9834.93
474.75	9970.68
474.93	9968.34
475.12	9881.74
475.30	10101.75
475.48	10106.43
475.66	10125.16
475.84	10253.89
476.02	10136.86
476.20	10293.68
476.38	10647.10
476.56	10567.52
476.74	10485.60
476.92	10787.53
477.10	10506.66
477.28	10951.37
477.46	10904.56
477.64	11030.94
477.82	11019.24
478.00	11442.88
478.18	11192.44
478.36	11150.31
478.54	11515.44
478.72	11480.33
478.90	11522.46
479.08	11800.98
479.26	11698.00
479.44	11922.69
479.62	12039.72
479.80	12011.63
479.98	12020.99
480.16	12224.62
480.34	12121.63
480.52	12341.64
480.70	12428.24
480.88	12386.12
481.06	12334.62
481.24	12276.11
481.41	12765.28
481.59	12828.48
481.77	13001.68
481.95	12929.12
482.13	13193.60
482.31	13055.51
482.49	13287.22
482.67	13355.10
482.85	13476.80
483.03	13685.11
483.21	13975.34
483.39	13762.35
483.57	13645.32
483.74	14010.45
483.92	14167.26
484.10	14134.50
484.28	14319.40
484.46	14972.41
484.64	14600.26
484.82	14480.89
485.00	14651.75
485.18	14902.19
485.35	15021.56
485.53	14902.19
485.71	14871.76
485.89	15370.30
486.07	15267.31
486.25	15140.93
486.43	15407.75
486.61	15616.05
486.78	15843.09
486.96	15894.58
487.14	16013.95
487.32	15985.86
487.50	16322.90
487.68	16336.94
487.85	16617.80
488.03	16638.87
488.21	16837.81
488.39	16786.32
488.57	17097.61
488.75	17357.41
488.92	17078.89
489.10	17668.70
489.28	17731.90
489.46	17853.61
489.64	17823.18
489.81	18324.05
489.99	18338.10
490.17	18497.25
490.35	18464.49
490.53	18462.15
490.70	18963.02
490.88	18902.17
491.06	19143.24
491.24	18932.59
491.41	19316.44
491.59	18883.44
491.77	18895.14
491.95	19201.76
492.13	19257.93
492.30	19625.39
492.48	19786.89
492.66	19868.81
492.84	19779.87
493.01	20065.41
493.19	19974.13
493.37	20262.02
493.54	20325.21
493.72	20465.64
493.90	20844.81
494.08	20643.52
494.25	20987.58
494.43	21233.34
494.61	20945.45
494.79	21392.50
494.96	21523.57
495.14	21399.52
495.32	21383.13
495.49	21647.61
495.67	21626.55
495.85	22071.25
496.02	21664.00
496.20	22125.08
496.38	22281.90
496.55	22225.73
496.73	22883.42
496.91	22780.43
497.09	22618.94
497.26	22789.80
497.44	22686.81
497.62	22913.84
497.79	23620.69
497.97	23262.58
498.14	23248.54
498.32	23438.12
498.50	23248.54
498.67	23587.92
498.85	23646.43
499.03	24100.50
499.20	24156.67
499.38	23768.14
499.56	23910.91
499.73	24222.20
499.91	24304.12
500.08	24254.97
500.26	24203.48
500.44	24236.25
500.61	24706.70
500.79	24517.11
500.97	24889.26
501.14	24980.54
501.32	25296.51
501.49	24884.58
501.67	25041.39
501.84	25198.21
502.02	25329.28
502.20	25261.40
502.37	25830.15
502.55	25532.90
502.72	25731.85
502.90	25455.67
503.07	25467.37
503.25	25811.43
503.43	25715.47
503.60	26111.02
503.78	26232.72
503.95	26274.85
504.13	26249.11
504.30	26539.33
504.48	26251.45
504.65	26497.20
504.83	26579.12
505.01	26808.50
505.18	26431.67
505.36	27175.96
505.53	26890.41
505.71	27136.17
505.88	27080.00
506.06	26969.99
506.23	27400.65
506.41	27112.77
506.58	27686.20
506.76	27835.99
506.93	27953.02
507.11	27662.79
507.28	27428.74
507.46	27459.16
507.63	27646.41
507.81	27873.44
507.98	27981.10
508.16	28091.11
508.33	28032.60
508.50	28067.70
508.68	28250.27
508.85	28641.14
509.03	28545.17
509.20	28676.24
509.38	28177.71
509.55	28987.53
509.73	28706.67
509.90	28947.75
510.08	28929.02
510.25	28704.33
510.42	28779.23
510.60	29186.48
510.77	29427.56
510.95	29593.73
511.12	29397.13
511.30	29776.30
511.47	29907.37
511.64	29745.87
511.82	29944.81
511.99	29755.23
512.17	29958.86
512.34	29638.20
512.51	30132.06
512.69	30169.51
512.86	30380.15
513.04	30349.73
513.21	30520.59
513.38	30389.52
513.56	30410.58
513.73	29916.73
513.90	30703.15
514.08	30604.84
514.25	30927.84
514.43	30565.06
514.60	30906.77
514.77	30312.28
514.95	30874.01
515.12	30864.64
515.29	31494.25
515.47	31634.68
515.64	31419.35
515.81	31267.22
515.99	31388.92
516.16	31271.90
516.33	31491.91
516.51	31615.96
516.68	31754.05
516.85	31353.82
517.03	31798.52
517.20	31735.32
517.37	31763.41
517.54	32123.85
517.72	32437.48
517.89	31974.06
518.06	32074.70
518.24	31934.27
518.41	31751.71
518.58	32051.30
518.75	32418.76
518.93	32580.26
519.10	32435.14
519.27	33123.26
519.45	32608.34
519.62	33008.58
519.79	33230.93
519.96	32917.29
520.14	33235.61
520.31	32966.45
520.48	33284.76
520.65	33095.18
520.83	33631.16
521.00	33392.42
521.17	33919.04
521.34	33617.11
521.52	33778.61
521.69	33563.28
521.86	33944.79
522.03	33820.74
522.20	34326.30
522.38	33827.76
522.55	34167.14
522.72	33717.76
522.89	34085.22
523.07	34101.61
523.24	33860.53
523.41	34080.54
523.58	34490.13
523.75	34548.65
523.92	35105.70
524.10	35033.14
524.27	34733.55
524.44	34675.04
524.61	35164.21
524.78	34902.07
524.96	34827.17
525.13	34981.65
525.30	35367.84
525.47	35421.67
525.64	35021.44
525.81	34939.52
525.98	35372.52
526.16	35164.21
526.33	35218.04
526.50	35725.94
526.67	35213.36
526.84	35339.75
527.01	35484.86
527.18	35665.08
527.36	35866.37
527.53	35878.07
527.70	35992.76
527.87	35899.14
528.04	35974.03
528.21	36182.34
528.38	36231.49
528.55	36383.63
528.72	36046.59
528.89	36158.94
529.07	36371.92
529.24	35983.40
529.41	36503.00
529.58	36261.92
529.75	36486.61
529.92	36809.61
530.09	36893.86
530.26	36493.63
530.43	36547.47
530.60	36414.05
530.77	36348.52
530.94	36788.54
531.11	36570.87
531.28	36884.50
531.46	37113.87
531.63	36919.61
531.80	36804.92
531.97	36652.79
532.14	37046.00
532.31	36652.79
532.48	37280.05
532.65	37280.05
532.82	37666.24
532.99	37500.06
533.16	37163.03
533.33	37340.91
533.50	37670.92
533.67	37579.64
533.84	37717.73
534.01	37773.91
534.18	37558.58
534.35	37457.93
534.52	37776.25
534.69	37895.61
534.86	37876.89
535.03	37593.68
535.20	38249.03
535.37	38377.76
535.54	38403.51
535.71	38148.39
535.88	37846.46
536.05	38022.00
536.22	38185.84
536.38	38295.85
536.55	38183.50
536.72	38508.83
536.89	38080.52
537.06	38253.72
537.23	38925.45
537.40	38574.37
537.57	38864.60
537.74	38443.30
537.91	38838.85
538.08	38738.21
538.25	38492.45
538.42	39040.14
538.59	38876.30
538.75	38485.43
538.92	38686.71
539.09	39157.16
539.26	39255.46
539.43	38651.61
539.60	39264.83
539.77	39084.61
539.94	39093.97
540.11	38932.47
540.28	39321.00
540.44	39559.73
540.61	39363.13
540.78	39225.04
540.95	39482.50
541.12	39416.96
541.29	39374.83
541.46	39477.82
541.62	39786.77
541.79	39660.38
541.96	39248.44
542.13	39257.81
542.30	39882.73
542.47	39772.72
542.63	39826.56
542.80	40107.42
542.97	40194.02
543.14	40722.98
543.31	40320.41
543.48	40254.87
543.64	40374.24
543.81	40608.29
543.98	40325.09
544.15	40297.00
544.32	40460.84
544.48	41017.89
544.65	40229.13
544.82	40254.87
544.99	40163.59
545.16	40495.95
545.32	40755.75
545.49	40856.39
545.66	40886.82
545.83	40889.16
546.00	40856.39
546.16	41081.08
546.33	40547.44
546.50	40783.83
546.67	40444.46
546.83	40552.12
547.00	40786.18
547.17	41104.49
547.34	40940.65
547.50	41151.30
547.67	40968.74
547.84	41155.98
548.00	41244.92
548.17	41394.71
548.34	41324.50
548.51	41638.13
548.67	41806.65
548.84	41909.63
549.01	41357.27
549.18	41060.02
549.34	41256.62
549.51	41661.54
549.68	41626.43
549.84	41865.16
550.01	41668.56
550.18	41638.13
550.34	41729.41
550.51	41670.90
550.68	41509.40
550.84	40980.44
551.01	41741.11
551.18	41771.54
551.34	41907.29
551.51	41886.23
551.68	41766.86
551.84	42185.82
552.01	42038.36
552.18	41872.18
552.34	41996.23
552.51	42330.93
552.68	42157.73
552.84	42206.88
553.01	42670.31
553.18	41991.55
553.34	42284.12
553.51	42286.46
553.67	41918.99
553.84	42548.60
554.01	42543.92
554.17	42787.33
554.34	42857.55
554.51	42658.60
554.67	42569.66
554.84	42684.35
555.00	42195.18
555.17	42244.33
555.33	42321.57
555.50	42665.63
555.67	42829.46
555.83	42721.80
556.00	42799.04
556.16	43318.64
556.33	42679.67
556.50	42572.00
556.66	43005.00
556.83	42719.46
556.99	42993.30
557.16	43047.13
557.32	42703.07
557.49	43023.73
557.65	42834.14
557.82	42834.14
557.98	42766.27
558.15	42953.51
558.32	43072.88
558.48	42824.78
558.65	43028.41
558.81	42979.26
558.98	42618.81
559.14	43063.52
559.31	43103.31
559.47	43423.96
559.64	43555.03
559.80	43414.60
559.97	43536.30
560.13	43021.39
560.30	43000.32
560.46	43360.76
560.63	43229.69
560.79	43337.36
560.96	43480.13
561.12	43672.06
561.29	43723.55
561.45	43693.12
561.61	43564.39
561.78	43019.05
561.94	43807.81
562.11	43772.70
562.27	43454.39
562.44	43356.08
562.60	43613.54
562.77	43440.34
562.93	43569.07
563.10	43995.05
563.26	43110.33
563.42	43873.34
563.59	43274.16
563.75	43594.82
563.92	43744.61
564.08	43716.53
564.24	44163.57
564.41	43810.15
564.57	43622.90
564.74	44041.86
564.90	43356.08
565.07	44058.24
565.23	43866.32
565.39	43763.34
565.56	43587.80
565.72	44006.75
565.88	44301.66
566.05	43433.32
566.21	43936.54
566.38	43564.39
566.54	43679.08
566.70	44273.57
566.87	44746.36
567.03	44158.89
567.19	44069.95
567.36	43948.24
567.52	43800.79
567.68	44430.39
567.85	43887.39
568.01	43885.04
568.17	43620.56
568.34	44215.06
568.50	44259.53
568.66	43784.40
568.83	44226.76
568.99	43889.73
569.15	43906.11
569.32	44013.77
569.48	43849.94
569.64	44334.43
569.81	44044.20
569.97	44215.06
570.13	43997.39
570.30	44098.03
570.46	43735.25
570.62	44257.19
570.78	44006.75
570.95	43901.43
571.11	44044.20
571.27	43950.58
571.43	43966.96
571.60	43992.71
571.76	44151.87
571.92	44486.56
572.09	44205.70
572.25	44261.87
572.41	43704.82
572.57	43990.37
572.74	44451.45
572.90	44254.85
573.06	43992.71
573.22	44175.27
573.38	44259.53
573.55	44259.53
573.71	44449.11
573.87	44135.48
574.03	43849.94
574.20	44292.30
574.36	44252.51
574.52	44472.52
574.68	44502.95
574.84	44311.02
575.01	44278.25
575.17	44196.34
575.33	44364.85
575.49	44524.01
575.65	44807.22
575.82	44561.46
575.98	44657.42
576.14	44617.63
576.30	44535.71
576.46	44311.02
576.62	44210.38
576.79	44425.71
576.95	43981.01
577.11	44184.63
577.27	44500.61
577.43	44435.07
577.59	44280.60
577.75	44329.75
577.92	43945.90
578.08	44261.87
578.24	44116.76
578.40	44481.88
578.56	44626.99
578.72	44261.87
578.88	44561.46
579.04	44720.62
579.21	44470.18
579.37	44282.94
579.53	44156.55
579.69	44320.38
579.85	44102.71
580.01	44423.37
580.17	44573.16
580.33	44882.11
580.49	44669.12
580.65	44914.88
580.82	44275.91
580.98	44495.92
581.14	44325.07
581.30	44552.10
581.46	44591.89
581.62	44041.86
581.78	44425.71
581.94	44502.95
582.10	44217.40
582.26	44631.68
582.42	44411.67
582.58	44385.92
582.74	43997.39
582.90	44659.76
583.06	44580.18
583.22	44470.18
583.38	44847.00
583.54	44737.00
583.70	44367.20
583.86	44346.13
584.02	44271.23
584.18	44423.37
584.34	44774.45
584.50	44793.17
584.66	44626.99
584.82	44261.87
584.98	44809.56
585.14	44886.79
585.30	44336.77
585.46	44638.70
585.62	44357.83
585.78	44332.09
585.94	43971.64
586.10	44006.75
586.26	44275.91
586.42	44767.43
586.58	44751.04
586.74	44411.67
586.90	44491.24
587.06	44577.84
587.22	44711.25
587.38	44554.44
587.54	45036.59
587.70	45017.86
587.86	44657.42
588.02	44804.88
588.18	45214.47
588.34	44631.68
588.49	44451.45
588.65	43915.47
588.81	44240.81
588.97	44308.68
589.13	43950.58
589.29	44554.44
589.45	44245.49
589.61	44645.72
589.77	44879.77
589.93	44444.43
590.08	45001.48
590.24	44758.06
590.40	45104.46
590.56	44816.58
590.72	44603.59
590.88	44652.74
591.04	44886.79
591.20	45074.04
591.35	45085.74
591.51	45102.12
591.67	45158.30
591.83	44875.09
591.99	45104.46
592.15	44348.47
592.31	45036.59
592.46	44781.47
592.62	45118.51
592.78	44783.81
592.94	45394.69
593.10	45151.27
593.26	45050.63
593.41	44896.16
593.57	45013.18
593.73	44830.62
593.89	45462.57
594.05	45059.99
594.20	44797.85
594.36	45205.11
594.52	45291.71
594.68	44985.10
594.84	45083.40
594.99	45390.01
595.15	44872.75
595.31	45207.45
595.47	45380.65
595.62	44931.26
595.78	45132.55
595.94	44947.65
596.10	45272.98
596.25	45071.70
596.41	45006.16
596.57	45076.38
596.73	45120.85
596.88	44673.81
597.04	45090.42
597.20	44971.05
597.36	44823.60
597.51	45099.78
597.67	45338.52
597.83	45134.89
597.99	45345.54
598.14	45495.33
598.30	45017.86
598.46	45289.37
598.61	44942.97
598.77	44926.58
598.93	45017.86
599.09	45375.97
599.24	45198.09
599.40	45853.44
599.56	45235.53
599.71	44741.68
599.87	45219.15
600.03	44769.77
600.18	44896.16
600.34	45310.43
600.50	44987.44
600.65	45258.94
600.81	45593.64
600.97	45591.30
601.12	45546.82
601.28	45322.13
601.44	44837.64
601.59	45179.36
601.75	44856.37
601.91	45361.92
602.06	44573.16
602.22	45240.21
602.37	44928.92
602.53	44580.18
602.69	45254.26
602.84	45043.61
603.00	44818.92
603.16	44982.76
603.31	44802.53
603.47	44999.14
603.62	45095.10
603.78	45413.41
603.94	45272.98
604.09	45476.61
604.25	45509.38
604.40	45020.20
604.56	44942.97
604.71	45167.66
604.87	44521.67
605.03	44971.05
605.18	44605.93
605.34	44931.26
605.49	44828.28
605.65	44957.01
605.80	44945.31
605.96	45347.88
606.12	45390.01
606.27	45139.57
606.43	44619.97
606.58	44863.39
606.74	44725.30
606.89	44491.24
607.05	44875.09
607.20	44465.50
607.36	45198.09
607.51	45057.65
607.67	45233.19
607.82	44687.85
607.98	44685.51
608.13	45118.51
608.29	44741.68
608.44	44334.43
608.60	44058.24
608.75	44926.58
608.91	44624.65
609.06	44671.46
609.22	45287.03
609.37	44254.85
609.53	44430.39
609.68	44954.67
609.84	44872.75
609.99	44594.23
610.15	44830.62
610.30	44395.28
610.46	44126.12
610.61	44531.03
610.76	44690.19
610.92	44563.80
611.07	44535.71
611.23	43992.71
611.38	44311.02
611.54	44397.62
611.69	44535.71
611.84	44512.31
612.00	44437.41
612.15	43990.37
612.31	44402.30
612.46	44292.30
612.62	44364.85
612.77	44311.02
612.92	44491.24
613.08	43976.33
613.23	44367.20
613.39	44002.07
613.54	44011.43
613.69	43990.37
613.85	43938.88
614.00	44163.57
614.15	44196.34
614.31	44179.95
614.46	44425.71
614.62	43859.30
614.77	43981.01
614.92	44030.16
615.08	44418.69
615.23	44196.34
615.38	44229.10
615.54	43765.68
615.69	43622.90
615.84	44203.36
616.00	43648.65
616.15	43629.93
616.30	43927.17
616.46	43709.50
616.61	43674.40
616.76	43861.64
616.92	43732.91
617.07	43866.32
617.22	43421.62
617.37	43828.87
617.53	43683.76
617.68	43793.76
617.83	43910.79
617.99	43463.75
618.14	43634.61
618.29	43508.22
618.45	43440.34
618.60	43662.69
618.75	43966.96
618.90	44034.84
619.06	44002.07
619.21	43536.30
619.36	43643.97
619.51	42815.42
619.67	43007.34
619.82	43494.18
619.97	43391.19
620.12	42796.70
620.28	42611.79
620.43	43372.47
620.58	43402.89
620.73	42967.55
620.89	43091.60
621.04	43948.24
621.19	43189.91
621.34	42710.10
621.49	42639.88
621.65	43093.94
621.80	43253.10
621.95	42918.40
622.10	43065.86
622.25	42976.92
622.41	42670.31
622.56	42763.93
622.71	43124.37
622.86	42997.98
623.01	43047.13
623.16	42827.12
623.32	43082.24
623.47	43154.80
623.62	43033.09
623.77	42761.59
623.92	42876.27
624.07	42670.31
624.23	42766.27
624.38	42284.12
624.53	42230.29
624.68	42419.87
624.83	42574.34
624.98	42440.93
625.13	42328.59
625.29	42576.69
625.44	42457.32
625.59	41670.90
625.74	41998.57
625.89	41937.72
626.04	41684.94
626.19	42305.18
626.34	42195.18
626.49	42403.49
626.65	42040.70
626.80	42356.67
626.95	42096.88
627.10	42127.30
627.25	41827.71
627.40	41663.88
627.55	41823.03
627.70	41317.48
627.85	41584.30
628.00	41961.12
628.15	42204.54
628.30	41876.86
628.45	42293.48
628.60	42129.64
628.76	42089.85
628.91	41874.52
629.06	41806.65
629.21	41794.95
629.36	41647.49
629.51	41612.38
629.66	41427.48
629.81	41563.23
629.96	41794.95
630.11	41654.51
630.26	41586.64
630.41	41888.57
630.56	41221.52
630.71	41801.97
630.86	41394.71
631.01	41502.38
631.16	41205.13
631.31	41233.22
631.46	40624.68
631.61	41275.35
631.76	41174.70
631.91	41350.24
632.06	41249.60
632.21	41577.28
632.36	41170.02
632.51	40891.50
632.66	41177.04
632.81	40713.62
632.96	41275.35
633.10	40444.46
633.25	41043.63
633.40	40875.12
633.55	41366.63
633.70	40968.74
633.85	40830.65
634.00	40507.65
634.15	40905.54
634.30	40989.80
634.45	40945.33
634.60	40638.72
634.75	40975.76
634.90	41041.29
635.05	40512.33
635.19	40535.74
635.34	41621.75
635.49	40870.43
635.64	40432.75
635.79	40481.91
635.94	40727.66
636.09	40289.98
636.24	40418.71
636.39	40383.60
636.53	39936.56
636.68	40002.10
636.83	40322.75
636.98	40479.57
637.13	40353.18
637.28	40549.78
637.43	40589.57
637.57	40610.64
637.72	40467.86
637.87	40690.21
638.02	40062.95
638.17	40112.10
638.32	40142.53
638.46	40222.11
638.61	40301.68
638.76	39892.09
638.91	39882.73
639.06	39861.66
639.20	39903.79
639.35	40041.88
639.50	39938.90
639.65	40198.70
639.80	40236.15
639.94	40086.36
640.09	39749.32
640.24	39665.06
640.39	39739.96
640.54	39576.12
640.68	39658.04
640.83	39524.63
640.98	39758.68
641.13	39866.34
641.27	40184.66
641.42	39058.86
641.57	39828.90
641.72	40086.36
641.86	39337.38
642.01	39218.02
642.16	39192.27
642.31	38653.95
642.45	39409.94
642.60	38719.48
642.75	39292.91
642.90	39519.95
643.04	39098.65
643.19	39166.52
643.34	39398.24
643.48	39115.03
643.63	39524.63
643.78	39108.01
643.93	39526.97
644.07	39402.92
644.22	38918.43
644.37	38733.53
644.51	38698.42
644.66	39028.43
644.81	39421.64
644.95	39278.87
645.10	39267.17
645.25	39440.37
645.39	38759.27
645.54	38979.28
645.69	38785.02
645.83	38611.82
645.98	38983.96
646.13	38476.07
646.27	39299.94
646.42	38593.09
646.57	38703.10
646.71	38934.81
646.86	38946.51
647.00	39166.52
647.15	38665.65
647.30	38927.79
647.44	39093.97
647.59	38586.07
647.74	38810.76
647.88	38277.12
648.03	38436.28
648.17	38616.50
648.32	38595.43
648.47	38595.43
648.61	38258.40
648.76	38469.04
648.90	38174.14
649.05	38347.34
649.20	38354.36
649.34	38380.10
649.49	38178.82
649.63	38382.45
649.78	38124.99
649.92	38305.21
650.07	38726.50
650.21	37745.82
650.36	38272.44
650.51	38164.78
650.65	38576.71
650.80	38679.69
650.94	38625.86
651.09	38167.12
651.23	38143.71
651.38	38122.65
651.52	37794.97
651.67	38249.03
651.81	38103.92
651.96	37439.21
652.10	37986.89
652.25	37261.33
652.39	38075.84
652.54	37631.13
652.68	38096.90
652.83	37766.88
652.97	37904.98
653.12	37656.88
653.26	37902.64
653.41	37610.07
653.55	37890.93
653.70	37523.47
653.84	37663.90
653.99	37469.64
654.13	37518.79
654.27	37282.39
654.42	37502.40
654.56	37717.73
654.71	37706.03
654.85	37661.56
655.00	37317.50
655.14	37469.64
655.29	37024.93
655.43	37200.47
655.57	36432.78
655.72	36896.20
655.86	36954.72
656.01	37223.88
656.15	37038.98
656.30	37223.88
656.44	36959.40
656.58	37010.89
656.73	36833.01
656.87	36947.70
657.01	36620.02
657.16	36723.01
657.30	36514.70
657.45	36706.62
657.59	36877.48
657.73	36425.76
657.88	36964.08
658.02	36896.20
658.16	36737.05
658.31	36975.78
658.45	36952.38
658.60	36753.43
658.74	36762.79
658.88	36493.63
659.03	36268.94
659.17	36191.70
659.31	36191.70
659.46	36329.80
659.60	36135.53
659.74	35908.50
659.89	36294.69
660.03	35997.44
660.17	36346.18
660.32	36009.14
660.46	36620.02
660.60	36280.64
660.74	36552.15
660.89	36030.21
661.03	35735.30
661.17	35974.03
661.32	35690.83
661.46	35871.05
661.60	35264.85
661.74	35599.55
661.89	35526.99
662.03	35629.98
662.17	35686.15
662.31	35498.91
662.46	35555.08
662.60	35498.91
662.74	35454.44
662.88	35229.74
663.03	35302.30
663.17	35398.26
663.31	35072.93
663.45	35189.95
663.60	35093.99
663.74	35262.51
663.88	34932.50
664.02	34745.25
664.17	35084.63
664.31	34534.60
664.45	35033.14
664.59	34810.79
664.73	34675.04
664.88	34958.24
665.02	34492.47
665.16	34588.44
665.30	34359.06
665.44	34110.97
665.59	33944.79
665.73	33909.68
665.87	33883.94
666.01	34270.12
666.15	34319.28
666.29	34120.33
666.44	34256.08
666.58	34117.99
666.72	34202.25
666.86	34117.99
667.00	34244.38
667.14	33977.56
667.28	34043.09
667.43	33771.59
667.57	33764.57
667.71	33394.76
667.85	33532.86
667.99	33195.82
668.13	33675.63
668.27	33439.23
668.41	33603.07
668.56	33490.73
668.70	33862.87
668.84	33383.06
668.98	33326.89
669.12	33029.64
669.26	33046.02
669.40	32414.08
669.54	32596.64
669.68	32872.82
669.82	32797.93
669.96	32971.13
670.10	32484.30
670.25	32460.89
670.39	33017.94
670.53	32718.35
670.67	32655.15
670.81	32486.64
670.95	32477.27
671.09	32875.16
671.23	32385.99
671.37	32343.86
671.51	32208.11
671.65	32170.66
671.79	32180.03
671.93	32123.85
672.07	32421.10
672.21	32018.53
672.35	31192.32
672.49	31768.09
672.63	31784.48
672.77	31653.40
672.91	31747.03
673.05	31473.18
673.19	31201.68
673.33	31398.29
673.47	31295.30
673.61	30955.93
673.75	31414.67
673.89	31007.42
674.03	31014.44
674.17	30874.01
674.31	30869.33
674.45	30642.29
674.59	31110.40
674.73	31208.70
674.87	31023.80
675.01	30916.14
675.15	30583.78
675.29	30665.70
675.43	30693.79
675.56	30361.43
675.70	30382.49
675.84	30515.90
675.98	29280.10
676.12	30181.21
676.26	30162.48
676.40	29750.55
676.54	29860.55
676.68	29490.75
676.82	29322.23
676.96	29287.12
677.10	29460.32
677.23	29336.27
677.37	29048.39
677.51	29120.95
677.65	29062.43
677.79	28790.93
677.93	28727.74
678.07	28804.97
678.21	28769.86
678.34	28254.95
678.48	28264.31
678.62	28680.92
678.76	28549.85
678.90	28414.10
679.04	28173.03
679.18	28631.77
679.31	27969.40
679.45	27779.82
679.59	27868.76
679.73	27835.99
679.87	27974.08
680.00	27779.82
680.14	27381.93
680.28	27538.74
680.42	26710.19
680.56	27281.28
680.70	27424.06
680.83	27007.44
680.97	26913.82
681.11	27033.19
681.25	26838.92
681.39	26724.24
681.52	27154.90
681.66	26745.30
681.80	26672.74
681.94	26501.89
682.07	26745.30
682.21	26548.70
682.35	26387.20
682.49	26214.00
682.62	26209.32
682.76	26045.48
682.90	25916.75
683.04	25811.43
683.17	26347.41
683.31	25912.07
683.45	26089.95
683.59	25607.80
683.72	25165.44
683.86	25425.24
684.00	25071.82
684.13	25142.03
684.27	25219.27
684.41	25411.20
684.55	24975.86
684.68	24741.80
684.82	24875.21
684.96	24737.12
685.09	24671.59
685.23	24531.15
685.37	24627.12
685.50	24491.37
685.64	24444.56
685.78	24269.01
685.91	24416.47
686.05	23791.55
686.19	23941.34
686.32	23697.92
686.46	23639.41
686.60	23726.01
686.73	23225.14
686.87	23428.76
687.01	23524.72
687.14	23297.69
687.28	23042.57
687.42	23075.34
687.55	23035.55
687.69	22941.93
687.82	23047.26
687.96	22817.88
688.10	22780.43
688.23	22412.97
688.37	22319.35
688.50	22134.45
688.64	22419.99
688.78	22001.04
688.91	22307.65
689.05	22410.63
689.18	21970.61
689.32	21741.24
689.46	22237.43
689.59	21905.07
689.73	22104.02
689.86	21923.80
690.00	21839.54
690.13	21785.71
690.27	21216.96
690.41	21834.86
690.54	21116.31
690.68	21317.60
690.81	21296.53
690.95	21001.63
691.08	20926.73
691.22	20556.93
691.35	20915.03
691.49	20856.51
691.62	20638.84
691.76	20669.27
691.89	20397.77
692.03	20159.03
692.16	20353.30
692.30	20088.82
692.43	20273.72
692.57	19932.00
692.70	20084.14
692.84	19953.07
692.97	19896.89
693.11	19822.00
693.24	19655.82
693.38	19601.99
693.51	19473.26
693.65	19468.58
693.78	19344.53
693.92	19503.68
694.05	19101.11
694.19	19302.40
694.32	19381.98
694.45	18752.37
694.59	18696.20
694.72	18848.33
694.86	18871.74
694.99	18738.33
695.13	18590.88
695.26	18490.23
695.39	18286.61
695.53	18317.03
695.66	18455.12
695.80	17996.38
695.93	18298.31
696.07	17989.36
696.20	18064.25
696.33	18171.92
696.47	17694.45
696.60	17570.40
696.73	17591.47
696.87	18019.78
697.00	17621.89
697.14	17727.22
697.27	17781.05
697.40	17261.45
697.54	17476.78
697.67	17282.52
697.80	17404.22
697.94	17114.00
698.07	17144.42
698.21	16791.00
698.34	16999.31
698.47	17055.48
698.61	16540.57
698.74	16641.21
698.87	16816.75
699.01	16276.09
699.14	16395.45
699.27	16299.49
699.40	16482.05
699.54	16081.82
699.67	15936.71
699.80	15981.18
699.94	15882.88
700.07	16336.94
700.20	16070.12
700.34	15775.21
700.47	15833.72
700.60	15789.25
700.73	16105.23
700.87	15822.02
701.00	15382.00
701.13	15513.07
701.26	15087.09
701.40	15302.42
701.53	15213.48
701.66	15255.61
701.79	14970.07
701.93	15012.20
702.06	15082.41
702.19	14956.02
702.32	15063.69
702.46	14691.54
702.59	14906.87
702.72	14640.05
702.85	14717.29
702.99	14473.87
703.12	14843.68
703.25	14635.37
703.38	14434.08
703.51	14295.99
703.65	14047.90
703.78	14230.46
703.91	14031.51
704.04	13914.48
704.17	13855.97
704.31	13898.10
704.44	13645.32
704.57	13448.72
704.70	13528.30
704.83	13345.73
704.96	13942.57
705.10	13572.77
705.23	13584.47
>>>>>End Processed Spectral Data<<<<<
