SpectraSuite Data File
++++++++++++++++++++++++++++++++++++
Date: Fri Oct 25 10:47:11 EDT 2013
User: price-jones
Dark Spectrum Present: No
Reference Spectrum Present: No
Number of Sampled Component Spectra: 1
Spectrometers: USB2+H05261
Integration Time (usec): 100000 (USB2+H05261)
Spectra Averaged: 1 (USB2+H05261)
Boxcar Smoothing: 0 (USB2+H05261)
Correct for Electrical Dark: No (USB2+H05261)
Strobe/Lamp Enabled: No (USB2+H05261)
Correct for Detector Non-linearity: No (USB2+H05261)
Correct for Stray Light: No (USB2+H05261)
Number of Pixels in Processed Spectrum: 2048
>>>>>Begin Processed Spectral Data<<<<<
365.73	86.60
365.92	86.60
366.12	86.60
366.32	0.00
366.52	56.17
366.72	88.94
366.91	93.62
367.11	0.00
367.31	4.68
367.51	18.72
367.70	49.15
367.90	79.58
368.10	16.38
368.30	44.47
368.49	16.38
368.69	30.43
368.89	39.79
369.09	39.79
369.28	147.45
369.48	98.30
369.68	117.03
369.87	84.26
370.07	74.90
370.27	173.20
370.47	231.71
370.66	393.21
370.86	372.15
371.06	393.21
371.25	479.81
371.45	447.04
371.65	440.02
371.84	409.59
372.04	428.32
372.24	489.17
372.44	461.09
372.63	482.15
372.83	500.87
373.03	411.93
373.22	376.83
373.42	519.60
373.62	498.53
373.81	547.69
374.01	550.03
374.21	531.30
374.40	521.94
374.60	470.45
374.79	491.51
374.99	575.77
375.19	535.98
375.38	512.58
375.58	631.94
375.78	599.18
375.97	500.87
376.17	674.07
376.37	550.03
376.56	550.03
376.76	603.86
376.95	568.75
377.15	592.16
377.35	641.31
377.54	575.77
377.74	620.24
377.93	622.58
378.13	615.56
378.33	681.10
378.52	617.90
378.72	594.50
378.91	636.63
379.11	631.94
379.31	613.22
379.50	575.77
379.70	641.31
379.89	685.78
380.09	596.84
380.28	622.58
380.48	674.07
380.68	727.91
380.87	575.77
381.07	578.11
381.26	697.48
381.46	751.31
381.65	643.65
381.85	657.69
382.04	669.39
382.24	589.82
382.43	657.69
382.63	629.60
382.83	730.25
383.02	716.20
383.22	622.58
383.41	699.82
383.61	641.31
383.80	669.39
384.00	704.50
384.19	643.65
384.39	695.14
384.58	713.86
384.78	760.67
384.97	737.27
385.17	741.95
385.36	744.29
385.56	784.08
385.75	706.84
385.95	737.27
386.14	755.99
386.34	716.20
386.53	751.31
386.72	844.93
386.92	816.85
387.11	809.83
387.31	821.53
387.50	802.80
387.70	716.20
387.89	765.36
388.09	840.25
388.28	816.85
388.48	816.85
388.67	887.06
388.86	866.00
389.06	847.27
389.25	922.17
389.45	950.26
389.64	807.48
389.84	891.74
390.03	891.74
390.22	901.11
390.42	901.11
390.61	985.37
390.81	863.66
391.00	976.00
391.19	957.28
391.39	924.51
391.58	1008.77
391.78	938.55
391.97	901.11
392.16	917.49
392.36	929.19
392.55	1004.09
392.75	999.41
392.94	891.74
393.13	936.21
393.33	971.32
393.52	1013.45
393.71	1018.13
393.91	1039.20
394.10	1004.09
394.29	1011.11
394.49	980.68
394.68	990.05
394.88	1107.07
395.07	1081.33
395.26	1060.26
395.46	1074.31
395.65	1118.78
395.84	1050.90
396.04	1125.80
396.23	1032.18
396.42	1107.07
396.62	1125.80
396.81	1203.04
397.00	1123.46
397.19	1186.65
397.39	1205.38
397.58	1170.27
397.77	1238.14
397.97	1242.82
398.16	1261.55
398.35	1315.38
398.55	1280.27
398.74	1277.93
398.93	1331.76
399.12	1275.59
399.32	1231.12
399.51	1294.32
399.70	1378.58
399.90	1338.79
400.09	1352.83
400.28	1373.89
400.47	1322.40
400.67	1380.92
400.86	1453.47
401.05	1467.52
401.24	1390.28
401.44	1474.54
401.63	1467.52
401.82	1409.00
402.01	1434.75
402.21	1523.69
402.40	1516.67
402.59	1453.47
402.78	1509.65
402.97	1530.71
403.17	1542.41
403.36	1584.54
403.55	1521.35
403.74	1533.05
403.93	1544.75
404.13	1696.89
404.32	1746.04
404.51	1626.67
404.70	1682.85
404.89	1610.29
405.09	1736.68
405.28	1764.76
405.47	1685.19
405.66	1703.91
405.85	1788.17
406.05	1666.46
406.24	1762.42
406.43	1692.21
406.62	1811.57
406.81	1879.45
407.00	1891.15
407.20	1778.81
407.39	1863.07
407.58	1769.44
407.77	1886.47
407.96	1984.77
408.15	1856.04
408.34	1853.70
408.54	1933.28
408.73	1886.47
408.92	2031.58
409.11	1989.46
409.30	2071.37
409.49	2026.90
409.68	1980.09
409.87	1973.07
410.07	2043.29
410.26	2038.61
410.45	2092.44
410.64	2059.67
410.83	2223.51
411.02	2108.82
411.21	2305.43
411.40	2221.17
411.59	2277.34
411.78	2225.85
411.98	2195.42
412.17	2218.83
412.36	2340.54
412.55	2253.94
412.74	2349.90
412.93	2417.77
413.12	2422.45
413.31	2509.05
413.50	2359.26
413.69	2473.95
413.88	2576.93
414.07	2525.44
414.26	2509.05
414.45	2518.42
414.64	2541.82
414.83	2569.91
415.02	2626.08
415.22	2710.34
415.41	2747.79
415.60	2715.02
415.79	2682.25
415.98	2705.66
416.17	2822.69
416.36	2724.38
416.55	2717.36
416.74	2799.28
416.93	2717.36
417.12	2810.98
417.31	2801.62
417.50	2867.16
417.69	3077.80
417.88	2942.05
418.07	2970.14
418.26	3066.10
418.45	3028.65
418.64	3110.57
418.83	3028.65
419.02	2998.23
419.21	3105.89
419.39	3087.17
419.58	3222.92
419.77	3183.13
419.96	3098.87
420.15	3260.37
420.34	3208.87
420.53	3297.81
420.72	3311.86
420.91	3344.63
421.10	3363.35
421.29	3363.35
421.48	3328.24
421.67	3321.22
421.86	3473.36
422.05	3262.71
422.24	3323.56
422.43	3269.73
422.61	3414.84
422.80	3361.01
422.99	3438.25
423.18	3459.31
423.37	3529.53
423.56	3426.54
423.75	3410.16
423.94	3370.37
424.13	3122.27
424.32	3236.96
424.50	3431.23
424.69	3435.91
424.88	3492.08
425.07	3449.95
425.26	3487.40
425.45	3433.57
425.64	3487.40
425.83	3492.08
426.01	3461.65
426.20	3475.70
426.39	3487.40
426.58	3478.04
426.77	3478.04
426.96	3597.40
427.15	3529.53
427.33	3592.72
427.52	3639.53
427.71	3660.60
427.90	3695.71
428.09	3674.64
428.28	3669.96
428.46	3667.62
428.65	3747.20
428.84	3850.18
429.03	3854.86
429.22	3637.19
429.40	3655.92
429.59	3543.57
429.78	3562.30
429.97	3630.17
430.16	3686.34
430.34	3904.01
430.53	3747.20
430.72	3887.63
430.91	3920.40
431.10	3850.18
431.28	3981.25
431.47	3906.35
431.66	4084.23
431.85	3948.48
432.03	3955.51
432.22	4224.67
432.41	3995.29
432.60	4152.11
432.79	4173.18
432.97	4290.20
433.16	4156.79
433.35	4028.06
433.54	4198.92
433.72	4177.86
433.91	4191.90
434.10	4287.86
434.28	4124.02
434.47	4259.78
434.66	4339.35
434.85	4257.43
435.03	4407.23
435.22	4390.84
435.41	4638.94
435.59	4386.16
435.78	4411.91
435.97	4545.32
436.16	4491.49
436.34	4479.79
436.53	4472.76
436.72	4592.13
436.90	4498.51
437.09	4622.56
437.28	4421.27
437.46	4512.55
437.65	4615.54
437.84	4690.43
438.02	4734.90
438.21	4559.36
438.40	4498.51
438.58	4746.61
438.77	4755.97
438.96	4777.03
439.14	4908.10
439.33	4940.87
439.52	5041.51
439.70	5004.07
439.89	4975.98
440.08	5118.75
440.26	5011.09
440.45	5057.90
440.63	5130.45
440.82	5280.25
441.01	5233.44
441.19	5308.34
441.38	5387.91
441.57	5296.63
441.75	5352.81
441.94	5493.24
442.12	5507.28
442.31	5671.12
442.50	5556.43
442.68	5544.73
442.87	5493.24
443.05	5565.79
443.24	5774.10
443.43	5680.48
443.61	5657.07
443.80	5919.21
443.98	5568.13
444.17	5434.72
444.35	5549.41
444.54	5757.72
444.73	5666.44
444.91	5626.65
445.10	5743.67
445.28	5483.88
445.47	5619.63
445.65	5851.34
445.84	5802.19
446.02	5764.74
446.21	5612.60
446.39	5816.23
446.58	5804.53
446.77	5680.48
446.95	5713.25
447.14	5849.00
447.32	5879.43
447.51	5865.38
447.69	5762.40
447.88	5837.30
448.06	5834.96
448.25	5919.21
448.43	5919.21
448.62	5827.93
448.80	5813.89
448.99	5900.49
449.17	6029.22
449.36	5980.07
449.54	6162.63
449.73	6251.57
449.91	6176.67
450.10	6108.80
450.28	6375.62
450.46	6303.06
450.65	6258.59
450.83	6162.63
451.02	6265.61
451.20	6319.45
451.39	6174.33
451.57	6218.80
451.76	6181.35
451.94	6272.64
452.13	6377.96
452.31	6396.68
452.49	6115.82
452.68	6363.92
452.86	6356.90
453.05	6471.58
453.23	6499.67
453.42	6387.32
453.60	6312.42
453.78	6544.14
453.97	6469.24
454.15	6509.03
454.34	6532.44
454.52	6670.53
454.70	6612.01
454.89	6630.74
455.07	6443.49
455.26	6715.00
455.44	6829.68
455.62	6754.79
455.81	6855.43
455.99	6839.05
456.17	6733.72
456.36	7068.42
456.54	6984.16
456.73	6965.43
456.91	6949.05
457.09	6892.88
457.28	7295.45
457.46	6937.35
457.64	7307.15
457.83	7391.41
458.01	7016.93
458.19	7309.49
458.38	7211.19
458.56	7258.00
458.74	7054.37
458.93	7321.20
459.11	7227.57
459.29	7428.86
459.48	7393.75
459.66	7365.67
459.84	7283.75
460.03	7501.42
460.21	7513.12
460.39	7414.82
460.57	7323.54
460.76	7716.75
460.94	7489.71
461.12	7667.60
461.31	7496.74
461.49	7700.36
461.67	7665.25
461.85	7929.74
462.04	7712.07
462.22	8210.60
462.40	7737.81
462.59	7817.39
462.77	7873.56
462.95	7892.29
463.13	7686.32
463.32	7960.16
463.50	7960.16
463.68	8056.12
463.86	7901.65
464.05	7911.01
464.23	8042.08
464.41	8049.10
464.59	7791.64
464.78	8044.42
464.96	8070.17
465.14	8161.45
465.32	8226.98
465.50	8163.79
465.69	8231.66
465.87	8152.09
466.05	8079.53
466.23	8168.47
466.41	8182.51
466.60	8290.18
466.78	8070.17
466.96	8196.56
467.14	8189.53
467.32	8241.03
467.51	8353.37
467.69	8290.18
467.87	8390.82
468.05	8568.70
468.23	8379.12
468.41	8432.95
468.60	8545.30
468.78	8564.02
468.96	8503.17
469.14	8863.61
469.32	8681.05
469.50	8404.86
469.69	8477.42
469.87	8730.20
470.05	8940.85
470.23	8830.84
470.41	8774.67
470.59	8896.38
470.77	8760.63
470.95	8795.73
471.14	8978.30
471.32	8755.94
471.50	9118.73
471.68	8964.25
471.86	9104.68
472.04	9369.16
472.22	9362.14
472.40	9156.18
472.58	9202.99
472.77	9305.97
472.95	9343.42
473.13	9727.27
473.31	9219.37
473.49	9493.21
473.67	9483.85
473.85	9682.80
474.03	9720.24
474.21	9589.17
474.39	9806.84
474.57	9643.01
474.75	9767.06
474.93	9902.81
475.12	10017.49
475.30	10176.65
475.48	9930.89
475.66	10022.17
475.84	9895.78
476.02	10010.47
476.20	10251.55
476.38	10551.14
476.56	10633.05
476.74	10703.27
476.92	10525.39
477.10	10537.09
477.28	10848.38
477.46	10654.12
477.64	11012.22
477.82	10920.94
478.00	11246.27
478.18	11159.67
478.36	11115.20
478.54	11445.22
478.72	11389.05
478.90	11360.96
479.08	11531.82
479.26	11716.72
479.44	11817.36
479.62	11892.26
479.80	11997.59
479.98	12030.35
480.16	12379.09
480.34	12072.48
480.52	12299.52
480.70	12112.27
480.88	11983.54
481.06	12519.53
481.24	12285.47
481.41	12620.17
481.59	12755.92
481.77	12788.69
481.95	12582.72
482.13	12872.95
482.31	12898.69
482.49	13188.92
482.67	13418.29
482.85	13467.44
483.03	13362.12
483.21	13631.28
483.39	13790.44
483.57	13802.14
483.74	14094.71
483.92	13940.23
484.10	14064.28
484.28	14335.78
484.46	14370.89
484.64	14618.99
484.82	14352.16
485.00	14544.09
485.18	14731.33
485.35	14841.34
485.53	14628.35
485.71	14780.48
485.89	14890.49
486.07	15110.50
486.25	15119.86
486.43	15463.92
486.61	15372.64
486.78	15609.03
486.96	15786.91
487.14	15810.32
487.32	15878.19
487.50	16163.74
487.68	16248.00
487.85	16489.07
488.03	16758.24
488.21	16856.54
488.39	16751.21
488.57	16910.37
488.75	17074.21
488.92	17195.92
489.10	17399.54
489.28	17334.01
489.46	17451.03
489.64	17628.92
489.81	17951.91
489.99	17909.78
490.17	17886.37
490.35	18192.98
490.53	18295.97
490.70	18263.20
490.88	18494.91
491.06	18740.67
491.24	18796.84
491.41	18834.29
491.59	18981.74
491.77	18993.45
491.95	18913.87
492.13	19274.31
492.30	19557.52
492.48	19616.03
492.66	19604.33
492.84	19508.37
493.01	19793.91
493.19	19697.95
493.37	20039.67
493.54	20360.32
493.72	20816.72
493.90	20409.47
494.08	20657.57
494.25	20985.24
494.43	21142.06
494.61	21046.10
494.79	21305.90
494.96	21149.08
495.14	21003.97
495.32	21558.67
495.49	21490.80
495.67	21860.60
495.85	21774.00
496.02	21804.43
496.20	22279.56
496.38	22024.44
496.55	22024.44
496.73	22405.95
496.91	22214.02
497.09	22658.73
497.26	22443.40
497.44	22869.37
497.62	22738.30
497.79	23124.49
497.97	23201.73
498.14	23026.19
498.32	23246.20
498.50	23012.15
498.67	23878.15
498.85	23447.49
499.03	24126.24
499.20	23889.85
499.38	23913.25
499.56	23845.38
499.73	24053.69
499.91	23922.62
500.08	24205.82
500.26	24065.39
500.44	24463.28
500.61	24521.79
500.79	24259.65
500.97	24833.08
501.14	24945.43
501.32	24851.81
501.49	25322.26
501.67	24893.94
501.84	24964.15
502.02	25329.28
502.20	25502.48
502.37	25406.52
502.55	25530.56
502.72	25127.99
502.90	25605.46
503.07	25694.40
503.25	25406.52
503.43	25390.13
503.60	25958.88
503.78	25989.31
503.95	25839.51
504.13	25947.18
504.30	26338.05
504.48	25977.61
504.65	26115.70
504.83	26551.04
505.01	26492.52
505.18	26321.66
505.36	26857.65
505.53	26909.14
505.71	26799.13
505.88	26934.88
506.06	26618.91
506.23	27110.43
506.41	26745.30
506.58	27143.19
506.76	26951.27
506.93	27101.06
507.11	27346.82
507.28	27482.57
507.46	27283.62
507.63	27548.11
507.81	27791.52
507.98	27751.73
508.16	27833.65
508.33	28142.60
508.50	28297.08
508.68	28212.82
508.85	28811.99
509.03	28098.13
509.20	28191.75
509.38	28662.20
509.55	28540.49
509.73	28591.98
509.90	28982.85
510.08	28524.11
510.25	28638.80
510.42	29003.92
510.60	29081.16
510.77	29343.30
510.95	29481.39
511.12	29127.97
511.30	29350.32
511.47	29518.84
511.64	29680.33
511.82	29649.91
511.99	29214.57
512.17	29647.57
512.34	29481.39
512.51	29846.51
512.69	30087.59
512.86	30050.14
513.04	30089.93
513.21	30429.30
513.38	30038.44
513.56	30242.06
513.73	29989.28
513.90	30237.38
514.08	30586.12
514.25	30384.83
514.43	30136.74
514.60	30689.10
514.77	30913.80
514.95	30934.86
515.12	30829.54
515.29	31199.34
515.47	31040.18
515.64	31524.68
515.81	31201.68
515.99	31084.65
516.16	31754.05
516.33	31487.23
516.51	31281.26
516.68	31239.13
516.85	31082.31
517.03	31498.93
517.20	31564.46
517.37	31566.81
517.54	32053.64
517.72	31583.19
517.89	31695.53
518.06	31323.39
518.24	32060.66
518.41	31477.86
518.58	32004.49
518.75	31768.09
518.93	32493.66
519.10	32250.24
519.27	33034.32
519.45	32575.58
519.62	32631.75
519.79	32847.08
519.96	32748.78
520.14	33010.92
520.31	32690.26
520.48	33083.47
520.65	32606.00
520.83	33380.72
521.00	33551.58
521.17	33406.47
521.34	33083.47
521.52	33455.62
521.69	33366.68
521.86	33755.21
522.03	33289.44
522.20	33291.78
522.38	33874.57
522.55	33902.66
522.72	33738.82
522.89	34082.88
523.07	34141.39
523.24	33998.62
523.41	33954.15
523.58	33670.95
523.75	34185.86
523.92	34504.18
524.10	34366.09
524.27	34616.52
524.44	34747.59
524.61	34490.13
524.78	34925.47
524.96	34803.77
525.13	34705.46
525.30	34895.05
525.47	35250.81
525.64	34932.50
525.81	34976.97
525.98	34998.03
526.16	34934.84
526.33	34366.09
526.50	35243.79
526.67	35189.95
526.84	34742.91
527.01	35117.40
527.18	35597.21
527.36	35306.98
527.53	35262.51
527.70	35894.46
527.87	35810.20
528.04	35709.55
528.21	35920.20
528.38	35629.98
528.55	36388.31
528.72	36144.89
528.89	36077.02
529.07	36165.96
529.24	36198.73
529.41	36161.28
529.58	35894.46
529.75	35976.37
529.92	36720.66
530.09	36308.73
530.26	36687.90
530.43	36624.70
530.60	36264.26
530.77	36322.77
530.94	36973.44
531.11	36353.20
531.28	36481.93
531.46	36858.76
531.63	37209.84
531.80	37015.57
531.97	36973.44
532.14	37097.49
532.31	36652.79
532.48	36788.54
532.65	37097.49
532.82	36999.19
532.99	37003.87
533.16	37083.45
533.33	37228.56
533.50	37518.79
533.67	37525.81
533.84	37088.13
534.01	37076.43
534.18	37373.67
534.35	37823.06
534.52	37397.08
534.69	37715.39
534.86	37858.17
535.03	37553.90
535.20	37989.24
535.37	38012.64
535.54	37745.82
535.71	37986.89
535.88	38064.13
536.05	37738.80
536.22	37912.00
536.38	38124.99
536.55	38246.69
536.72	38293.50
536.89	37897.95
537.06	38274.78
537.23	38169.46
537.40	38017.32
537.57	38213.93
537.74	38567.35
537.91	38663.31
538.08	38766.29
538.25	38635.22
538.42	38401.17
538.59	38682.03
538.75	38560.33
538.92	38567.35
539.09	39105.67
539.26	38719.48
539.43	39168.87
539.60	38721.82
539.77	38806.08
539.94	39241.42
540.11	38850.55
540.28	39133.76
540.44	38761.61
540.61	39166.52
540.78	39035.45
540.95	39374.83
541.12	38866.94
541.29	39321.00
541.46	39281.21
541.62	39309.30
541.79	39634.63
541.96	39335.04
542.13	39414.62
542.30	39599.52
542.47	39791.45
542.63	39433.35
542.80	39824.22
542.97	40107.42
543.14	40065.29
543.31	39833.58
543.48	40112.10
543.64	40432.75
543.81	40650.42
543.98	40362.54
544.15	40175.30
544.32	40687.87
544.48	40687.87
544.65	40348.50
544.82	40479.57
544.99	40081.67
545.16	40720.64
545.32	40524.04
545.49	40978.10
545.66	40622.34
545.83	39812.51
546.00	40332.11
546.16	40790.86
546.33	40575.53
546.50	40474.88
546.67	40980.44
546.83	40149.55
547.00	40840.01
547.17	40905.54
547.34	40624.68
547.50	40673.83
547.67	41244.92
547.84	41160.66
548.00	41095.13
548.17	41429.82
548.34	41251.94
548.51	41401.74
548.67	41717.71
548.84	41483.66
549.01	41500.04
549.18	41406.42
549.34	41581.96
549.51	41483.66
549.68	41476.63
549.84	41696.64
550.01	42197.52
550.18	41546.85
550.34	41455.57
550.51	41329.18
550.68	42047.72
550.84	41296.41
551.01	41982.19
551.18	41731.75
551.34	41233.22
551.51	41808.99
551.68	41853.46
551.84	42277.10
552.01	41724.73
552.18	42036.02
552.34	41553.87
552.51	41387.69
552.68	41935.38
552.84	42080.49
553.01	41811.33
553.18	41923.68
553.34	42148.37
553.51	41979.85
553.67	42052.41
553.84	42300.50
554.01	41944.74
554.17	42536.90
554.34	42412.85
554.51	42738.18
554.67	42614.13
554.84	42590.73
555.00	42167.09
555.17	42305.18
555.33	42866.91
555.50	42080.49
555.67	42806.06
555.83	42656.26
556.00	42759.25
556.16	43175.86
556.33	42784.99
556.50	42689.03
556.66	43152.46
556.83	42412.85
556.99	42656.26
557.16	42454.98
557.32	43091.60
557.49	42866.91
557.65	42382.42
557.82	42843.51
557.98	42677.33
558.15	42646.90
558.32	42817.76
558.48	43023.73
558.65	43168.84
558.81	43306.93
558.98	43056.50
559.14	42614.13
559.31	43044.79
559.47	43100.97
559.64	43445.02
559.80	43058.84
559.97	43175.86
560.13	42958.19
560.30	43702.48
560.46	42674.99
560.63	42990.96
560.79	43103.31
560.96	43716.53
561.12	43234.38
561.29	43126.71
561.45	43234.38
561.61	43615.88
561.78	43203.95
561.94	43246.08
562.11	43075.22
562.27	43365.45
562.44	43316.29
562.60	43232.04
562.77	43538.65
562.93	43374.81
563.10	43344.38
563.26	43449.70
563.42	43377.15
563.59	43112.67
563.75	43707.16
563.92	43627.59
564.08	43440.34
564.24	43531.62
564.41	43730.57
564.57	43730.57
564.74	43564.39
564.90	43800.79
565.07	43679.08
565.23	43421.62
565.39	43543.33
565.56	44025.48
565.72	43611.20
565.88	43459.07
566.05	43440.34
566.21	43388.85
566.38	43627.59
566.54	43594.82
566.70	43899.09
566.87	44280.60
567.03	44186.97
567.19	44240.81
567.36	43868.66
567.52	43782.06
567.68	43475.45
567.85	43625.25
568.01	43826.53
568.17	43871.00
568.34	43945.90
568.50	44086.33
568.66	43674.40
568.83	44357.83
568.99	43761.00
569.15	44306.34
569.32	43983.35
569.48	43342.04
569.64	43948.24
569.81	44175.27
569.97	43866.32
570.13	43716.53
570.30	43580.78
570.46	43704.82
570.62	43632.27
570.78	43578.43
570.95	43686.10
571.11	44208.04
571.27	44158.89
571.43	43985.69
571.60	44158.89
571.76	44079.31
571.92	43723.55
572.09	44013.77
572.25	44304.00
572.41	43985.69
572.57	43730.57
572.74	44252.51
572.90	44088.67
573.06	44203.36
573.22	44215.06
573.38	44212.72
573.55	43966.96
573.71	44289.96
573.87	44060.58
574.03	43681.42
574.20	44271.23
574.36	43927.17
574.52	44334.43
574.68	44699.55
574.84	44076.97
575.01	44083.99
575.17	44198.68
575.33	44161.23
575.49	43959.94
575.65	44437.41
575.82	44376.56
575.98	44638.70
576.14	44587.21
576.30	44271.23
576.46	44161.23
576.62	43737.59
576.79	44100.37
576.95	43807.81
577.11	44016.11
577.27	44355.49
577.43	44304.00
577.59	44168.25
577.75	44130.80
577.92	43758.66
578.08	44025.48
578.24	44107.40
578.40	44205.70
578.56	44041.86
578.72	44203.36
578.88	44041.86
579.04	44449.11
579.21	44205.70
579.37	44168.25
579.53	44296.98
579.69	44203.36
579.85	44278.25
580.01	44196.34
580.17	44116.76
580.33	44706.57
580.49	44282.94
580.65	44472.52
580.82	44488.90
580.98	44402.30
581.14	44201.02
581.30	44385.92
581.46	44388.26
581.62	44538.05
581.78	44437.41
581.94	44425.71
582.10	44437.41
582.26	44126.12
582.42	44547.42
582.58	44538.05
582.74	44210.38
582.90	44350.81
583.06	44254.85
583.22	44428.05
583.38	44348.47
583.54	44186.97
583.70	44257.19
583.86	44158.89
584.02	44069.95
584.18	44624.65
584.34	44392.94
584.50	44718.28
584.66	44086.33
584.82	44095.69
584.98	44615.29
585.14	44657.42
585.30	43915.47
585.46	44023.14
585.62	43929.51
585.78	44217.40
585.94	44219.74
586.10	44308.68
586.26	44175.27
586.42	44378.90
586.58	44683.17
586.74	44643.38
586.90	43957.60
587.06	44360.17
587.22	44102.71
587.38	44034.84
587.54	44907.86
587.70	44996.80
587.86	44638.70
588.02	44645.72
588.18	44938.29
588.34	44577.84
588.49	44245.49
588.65	44397.62
588.81	44067.61
588.97	44184.63
589.13	44435.07
589.29	44444.43
589.45	44404.64
589.61	44371.88
589.77	44816.58
589.93	44741.68
590.08	44718.28
590.24	44575.50
590.40	44610.61
590.56	44994.46
590.72	44067.61
590.88	44399.96
591.04	44289.96
591.20	45088.08
591.35	44428.05
591.51	45446.18
591.67	44839.98
591.83	44800.19
591.99	44584.86
592.15	44472.52
592.31	44598.91
592.46	44603.59
592.62	44477.20
592.78	45188.72
592.94	44964.03
593.10	44533.37
593.26	44617.63
593.41	44570.82
593.57	44683.17
593.73	45251.92
593.89	44837.64
594.05	44479.54
594.20	44603.59
594.36	44807.22
594.52	45160.64
594.68	45027.23
594.84	44739.34
594.99	44928.92
595.15	44769.77
595.31	44910.20
595.47	44575.50
595.62	44886.79
595.78	44868.07
595.94	44886.79
596.10	45265.96
596.25	45336.18
596.41	44629.34
596.57	44608.27
596.73	45006.16
596.88	44779.13
597.04	44807.22
597.20	44832.96
597.36	44776.79
597.51	45256.60
597.67	45254.26
597.83	44961.69
597.99	45076.38
598.14	44882.11
598.30	44818.92
598.46	44940.63
598.61	44589.55
598.77	44472.52
598.93	45109.14
599.09	44591.89
599.24	44760.40
599.40	45380.65
599.56	45191.06
599.71	44935.95
599.87	44952.33
600.03	44804.88
600.18	45067.02
600.34	44835.30
600.50	44430.39
600.65	44776.79
600.81	44868.07
600.97	45382.99
601.12	45289.37
601.28	45102.12
601.44	44882.11
601.59	44772.11
601.75	44636.36
601.91	45095.10
602.06	44971.05
602.22	45027.23
602.37	44622.31
602.53	45003.82
602.69	45258.94
602.84	44781.47
603.00	44912.54
603.16	44678.49
603.31	44811.90
603.47	44699.55
603.62	44650.40
603.78	45024.89
603.94	44992.12
604.09	44893.82
604.25	45226.17
604.40	45202.77
604.56	44980.42
604.71	44772.11
604.87	44701.89
605.03	45006.16
605.18	44561.46
605.34	44903.18
605.49	44404.64
605.65	45134.89
605.80	44563.80
605.96	45050.63
606.12	44973.39
606.27	45048.29
606.43	44566.14
606.58	44568.48
606.74	44718.28
606.89	44542.74
607.05	44847.00
607.20	44301.66
607.36	44449.11
607.51	45350.22
607.67	44657.42
607.82	44793.17
607.98	44219.74
608.13	44671.46
608.29	44294.64
608.44	44648.06
608.60	44222.08
608.75	43789.08
608.91	44556.78
609.06	44348.47
609.22	44835.30
609.37	43824.19
609.53	44362.51
609.68	44203.36
609.84	44584.86
609.99	44648.06
610.15	44470.18
610.30	44151.87
610.46	44076.97
610.61	44287.62
610.76	44505.29
610.92	44229.10
611.07	44535.71
611.23	43983.35
611.38	44554.44
611.54	43983.35
611.69	44006.75
611.84	44215.06
612.00	44137.82
612.15	44093.35
612.31	44100.37
612.46	44051.22
612.62	44453.79
612.77	44023.14
612.92	44509.97
613.08	44128.46
613.23	44271.23
613.39	44261.87
613.54	43779.72
613.69	43978.67
613.85	43793.76
614.00	44170.59
614.15	44074.63
614.31	44287.62
614.46	44100.37
614.62	43861.64
614.77	43887.39
614.92	44032.50
615.08	44172.93
615.23	43538.65
615.38	43971.64
615.54	42974.58
615.69	43559.71
615.84	43548.01
616.00	43613.54
616.15	43847.60
616.30	44161.23
616.46	43344.38
616.61	42911.38
616.76	43592.48
616.92	42904.36
617.07	43723.55
617.22	43484.81
617.37	43367.79
617.53	43833.55
617.68	43608.86
617.83	43442.68
617.99	43646.31
618.14	43442.68
618.29	43505.88
618.45	43192.25
618.60	43540.99
618.75	43241.40
618.90	43299.91
619.06	43440.34
619.21	43459.07
619.36	43257.78
619.51	43236.72
619.67	43306.93
619.82	43353.74
619.97	43313.95
620.12	43159.48
620.28	42714.78
620.43	43040.11
620.58	42703.07
620.73	42780.31
620.89	43278.85
621.04	43367.79
621.19	42941.81
621.34	43009.68
621.49	42637.54
621.65	42682.01
621.80	42962.87
621.95	42857.55
622.10	42960.53
622.25	42529.87
622.41	42546.26
622.56	42564.98
622.71	42663.28
622.86	42780.31
623.01	42562.64
623.16	42784.99
623.32	42440.93
623.47	42398.80
623.62	42827.12
623.77	42494.77
623.92	42784.99
624.07	42784.99
624.23	42373.06
624.38	42473.70
624.53	42141.35
624.68	42546.26
624.83	42387.10
624.98	42525.19
625.13	41872.18
625.29	42213.90
625.44	42410.51
625.59	41998.57
625.74	41811.33
625.89	42052.41
626.04	42195.18
626.19	41984.53
626.34	42157.73
626.49	42249.01
626.65	42033.68
626.80	42646.90
626.95	41928.36
627.10	41977.51
627.25	41626.43
627.40	41869.84
627.55	41258.96
627.70	41209.81
627.85	41694.30
628.00	41785.58
628.15	41804.31
628.30	41911.97
628.45	42038.36
628.60	41474.29
628.76	41654.51
628.91	41675.58
629.06	41462.59
629.21	41537.49
629.36	41359.61
629.51	41055.34
629.66	41574.94
629.81	41146.62
629.96	41586.64
630.11	41385.35
630.26	41792.61
630.41	41607.70
630.56	41338.54
630.71	41420.46
630.86	41174.70
631.01	41315.14
631.16	41315.14
631.31	41085.76
631.46	40615.32
631.61	41265.99
631.76	41390.03
631.91	41083.42
632.06	40898.52
632.21	41057.68
632.36	41085.76
632.51	40858.73
632.66	40957.03
632.81	40783.83
632.96	40432.75
633.10	40732.34
633.25	40734.68
633.40	40910.22
633.55	40758.09
633.70	40699.58
633.85	40549.78
634.00	40725.32
634.15	40924.27
634.30	40151.89
634.45	40598.93
634.60	41003.85
634.75	40624.68
634.90	40975.76
635.05	40746.39
635.19	40423.39
635.34	40825.96
635.49	40809.58
635.64	40313.39
635.79	40084.01
635.94	40266.58
636.09	40341.47
636.24	40126.14
636.39	40128.48
636.53	39732.93
636.68	40044.23
636.83	40100.40
636.98	40210.40
637.13	39845.28
637.28	39873.37
637.43	40177.64
637.57	40238.49
637.72	40203.38
637.87	40201.04
638.02	40320.41
638.17	39789.11
638.32	40023.16
638.46	40121.46
638.61	39784.43
638.76	39707.19
638.91	39826.56
639.06	39871.03
639.20	39810.17
639.35	40135.51
639.50	39793.79
639.65	40299.34
639.80	40116.78
639.94	39697.83
640.09	39573.78
640.24	39854.64
640.39	39313.98
640.54	39793.79
640.68	39463.77
640.83	39765.70
640.98	39463.77
641.13	39388.88
641.27	39618.25
641.42	39124.40
641.57	39814.85
641.72	39665.06
641.86	39306.96
642.01	39487.18
642.16	39384.19
642.31	39288.23
642.45	39023.75
642.60	39096.31
642.75	39033.11
642.90	39049.50
643.04	38836.51
643.19	38785.02
643.34	39367.81
643.48	39168.87
643.63	39028.43
643.78	39210.99
643.93	39285.89
644.07	38813.10
644.22	38983.96
644.37	38728.84
644.51	38714.80
644.66	38726.50
644.81	39295.25
644.95	38876.30
645.10	38740.55
645.25	38885.66
645.39	38635.22
645.54	38766.29
645.69	38682.03
645.83	38801.40
645.98	38969.92
646.13	38799.06
646.27	39108.01
646.42	38759.27
646.57	38979.28
646.71	38586.07
646.86	38471.39
647.00	38651.61
647.15	38972.26
647.30	38986.30
647.44	38850.55
647.59	38625.86
647.74	38232.65
647.88	38242.01
648.03	38370.74
648.17	38550.96
648.32	37865.19
648.47	38337.98
648.61	38150.73
648.76	38443.30
648.90	38387.13
649.05	38150.73
649.20	38557.99
649.34	38403.51
649.49	38349.68
649.63	38148.39
649.78	38251.38
649.92	37792.63
650.07	38204.56
650.21	38122.65
650.36	38651.61
650.51	37907.32
650.65	38117.96
650.80	38522.88
650.94	37963.49
651.09	37776.25
651.23	38139.03
651.38	37481.34
651.52	37907.32
651.67	38054.77
651.81	37956.47
651.96	37762.20
652.10	37579.64
652.25	37322.18
652.39	37701.35
652.54	37661.56
652.68	37687.31
652.83	37699.01
652.97	37694.33
653.12	37787.95
653.26	37591.34
653.41	37757.52
653.55	37408.78
653.70	37839.44
653.84	37230.90
653.99	37661.56
654.13	37509.43
654.27	37748.16
654.42	36863.44
654.56	37380.70
654.71	37490.70
654.85	37514.11
655.00	37294.10
655.14	36701.94
655.29	37483.68
655.43	36851.73
655.57	37277.71
655.72	36893.86
655.86	36833.01
656.01	36825.99
656.15	36755.77
656.30	36613.00
656.44	37036.64
656.58	36629.38
656.73	36701.94
656.87	36687.90
657.01	37151.32
657.16	36650.45
657.30	36849.39
657.45	36123.83
657.59	36374.27
657.73	36432.78
657.88	36692.58
658.02	36713.64
658.16	36533.42
658.31	36547.47
658.45	36648.11
658.60	36613.00
658.74	36802.58
658.88	36172.98
659.03	36807.26
659.17	35936.59
659.31	36144.89
659.46	35761.05
659.60	36116.81
659.74	36074.68
659.89	36315.75
660.03	35878.07
660.17	35866.37
660.32	35892.12
660.46	36484.27
660.60	36191.70
660.74	36023.19
660.89	35901.48
661.03	35489.54
661.17	35421.67
661.32	35435.71
661.46	35459.12
661.60	35431.03
661.74	35529.33
661.89	35594.87
662.03	35531.67
662.17	35117.40
662.31	35278.89
662.46	35709.55
662.60	35618.27
662.74	35218.04
662.88	35360.81
663.03	35421.67
663.17	35096.33
663.31	35161.87
663.45	34955.90
663.60	35145.48
663.74	34897.39
663.88	34614.18
664.02	34845.90
664.17	34719.51
664.31	34497.16
664.45	34471.41
664.59	34635.25
664.73	34991.01
664.88	34881.00
665.02	34293.53
665.16	34494.82
665.30	34536.94
665.44	34361.40
665.59	34054.79
665.73	33846.49
665.87	33504.77
666.01	34499.50
666.15	33935.43
666.29	33766.91
666.44	34230.33
666.58	34192.89
666.72	34012.66
666.86	33958.83
667.00	34230.33
667.14	33748.18
667.28	33848.83
667.43	33710.74
667.57	33474.34
667.71	33333.91
667.85	33443.91
667.99	33668.61
668.13	33369.02
668.27	33226.24
668.41	33354.97
668.56	33275.40
668.70	33649.88
668.84	33039.00
668.98	32926.66
669.12	33181.77
669.26	33055.39
669.40	32744.09
669.54	32610.68
669.68	32875.16
669.82	33240.29
669.96	32594.30
670.10	32538.13
670.25	32730.05
670.39	33022.62
670.53	33053.05
670.67	32467.91
670.81	32936.02
670.95	32481.95
671.09	32285.35
671.23	32437.48
671.37	32334.50
671.51	32313.44
671.65	32187.05
671.79	32278.33
671.93	31878.10
672.07	32041.93
672.21	32414.08
672.35	31894.48
672.49	31779.79
672.63	31606.59
672.77	31604.25
672.91	31686.17
673.05	30948.90
673.19	31365.52
673.33	31054.23
673.47	31592.55
673.61	31178.28
673.75	31012.10
673.89	30785.07
674.03	30831.88
674.17	30834.22
674.31	31054.23
674.45	30829.54
674.59	30752.30
674.73	30609.53
674.87	30668.04
675.01	30845.92
675.15	30649.32
675.29	30754.64
675.43	30483.14
675.56	30204.61
675.70	30504.20
675.84	30129.72
675.98	29085.84
676.12	30272.49
676.26	30026.73
676.40	29663.95
676.54	29659.27
676.68	29972.90
676.82	29209.89
676.96	29120.95
677.10	29802.04
677.23	29268.40
677.37	29362.02
677.51	28950.09
677.65	29383.09
677.79	28652.84
677.93	28638.80
678.07	28556.88
678.21	28615.39
678.34	28753.48
678.48	28545.17
678.62	28259.63
678.76	28093.45
678.90	28339.21
679.04	28107.49
679.18	28259.63
679.31	27814.93
679.45	27646.41
679.59	27498.95
679.73	27372.57
679.87	27583.21
680.00	27690.88
680.14	27789.18
680.28	27094.04
680.42	27328.10
680.56	27391.29
680.70	27094.04
680.83	27182.98
680.97	26951.27
681.11	27182.98
681.25	26761.69
681.39	26654.02
681.52	26902.12
681.66	26721.90
681.80	26548.70
681.94	26829.56
682.07	26621.25
682.21	26361.45
682.35	26314.64
682.49	26242.09
682.62	26225.70
682.76	25671.00
682.90	25642.91
683.04	25921.43
683.17	26108.68
683.31	25577.37
683.45	25823.13
683.59	25387.79
683.72	25163.10
683.86	25289.49
684.00	24723.08
684.13	25172.46
684.27	24907.98
684.41	24938.41
684.55	24823.72
684.68	24720.74
684.82	24606.05
684.96	24896.28
685.09	24964.15
685.23	24346.25
685.37	24325.19
685.50	24105.18
685.64	24222.20
685.78	23999.85
685.91	24269.01
686.05	23976.45
686.19	23941.34
686.32	23744.73
686.46	23711.97
686.60	23433.44
686.73	23440.47
686.87	23220.45
687.01	23206.41
687.14	23400.68
687.28	23183.01
687.42	22895.12
687.55	23096.41
687.69	23049.60
687.82	22948.95
687.96	22948.95
688.10	22705.54
688.23	22670.43
688.37	22094.66
688.50	21661.66
688.64	22623.62
688.78	22267.86
688.91	22597.87
689.05	22211.68
689.18	22059.55
689.32	21820.81
689.46	21741.24
689.59	21916.78
689.73	21797.41
689.86	21722.51
690.00	21401.86
690.13	21745.92
690.27	21493.14
690.41	21326.96
690.54	20971.20
690.68	21074.18
690.81	21099.93
690.95	20952.48
691.08	20814.38
691.22	20695.02
691.35	20938.43
691.49	20987.58
691.62	20847.15
691.76	20381.38
691.89	20325.21
692.03	20367.34
692.16	20393.09
692.30	20152.01
692.43	20184.78
692.57	20112.22
692.70	20072.43
692.84	19915.62
692.97	19690.93
693.11	19295.38
693.24	19597.31
693.38	19311.76
693.51	19363.25
693.65	19365.59
693.78	19281.33
693.92	19108.13
694.05	19302.40
694.19	19407.72
694.32	19056.64
694.45	19091.75
694.59	18600.24
694.72	18913.87
694.86	18541.72
694.99	18778.12
695.13	18785.14
695.26	18335.76
695.39	18333.42
695.53	18230.43
695.66	18368.52
695.80	18417.68
695.93	17846.58
696.07	17958.93
696.20	17994.04
696.33	17841.90
696.47	17956.59
696.60	17649.98
696.73	17900.42
696.87	17701.47
697.00	17701.47
697.14	17366.78
697.27	17729.56
697.40	17568.06
697.54	17539.97
697.67	17383.16
697.80	17146.76
697.94	17380.82
698.07	16910.37
698.21	16917.39
698.34	17106.98
698.47	16772.28
698.61	16500.78
698.74	16418.86
698.87	16578.01
699.01	16430.56
699.14	16163.74
699.27	16435.24
699.40	16346.30
699.54	16175.44
699.67	15824.36
699.80	15817.34
699.94	16088.84
700.07	15859.47
700.20	15796.28
700.34	15662.86
700.47	15807.98
700.60	15712.02
700.73	15854.79
700.87	15576.27
701.00	15707.34
701.13	15522.43
701.26	15311.78
701.40	15295.40
701.53	15264.97
701.66	15274.34
701.79	15321.15
701.93	15049.64
702.06	15070.71
702.19	14871.76
702.32	14572.18
702.46	14661.12
702.59	14712.61
702.72	14349.82
702.85	14949.00
702.99	14682.18
703.12	14609.62
703.25	14134.50
703.38	14408.34
703.51	14188.33
703.65	14370.89
703.78	14057.26
703.91	14059.60
704.04	13860.65
704.17	13982.36
704.31	13797.46
704.44	13640.64
704.57	13657.03
704.70	13357.44
704.83	13469.78
704.96	13668.73
705.10	13776.39
705.23	13790.44
>>>>>End Processed Spectral Data<<<<<
