SpectraSuite Data File
++++++++++++++++++++++++++++++++++++
Date: Fri Oct 25 10:47:18 EDT 2013
User: price-jones
Dark Spectrum Present: No
Reference Spectrum Present: No
Number of Sampled Component Spectra: 1
Spectrometers: USB2+H05261
Integration Time (usec): 100000 (USB2+H05261)
Spectra Averaged: 1 (USB2+H05261)
Boxcar Smoothing: 0 (USB2+H05261)
Correct for Electrical Dark: No (USB2+H05261)
Strobe/Lamp Enabled: No (USB2+H05261)
Correct for Detector Non-linearity: No (USB2+H05261)
Correct for Stray Light: No (USB2+H05261)
Number of Pixels in Processed Spectrum: 2048
>>>>>Begin Processed Spectral Data<<<<<
365.73	149.79
365.92	149.79
366.12	149.79
366.32	84.26
366.52	25.75
366.72	4.68
366.91	14.04
367.11	105.32
367.31	42.13
367.51	32.77
367.70	0.00
367.90	53.83
368.10	46.81
368.30	72.56
368.49	11.70
368.69	44.47
368.89	58.51
369.09	44.47
369.28	37.45
369.48	49.15
369.68	72.56
369.87	117.03
370.07	86.60
370.27	215.33
370.47	177.88
370.66	390.87
370.86	397.89
371.06	463.43
371.25	433.00
371.45	470.45
371.65	535.98
371.84	458.74
372.04	468.11
372.24	402.57
372.44	428.32
372.63	507.90
372.83	442.36
373.03	428.32
373.22	468.11
373.42	461.09
373.62	440.02
373.81	538.32
374.01	564.07
374.21	594.50
374.40	517.26
374.60	638.97
374.79	528.96
374.99	500.87
375.19	528.96
375.38	587.47
375.58	578.11
375.78	491.51
375.97	596.84
376.17	641.31
376.37	620.24
376.56	547.69
376.76	526.62
376.95	561.73
377.15	613.22
377.35	645.99
377.54	601.52
377.74	496.19
377.93	564.07
378.13	557.05
378.33	645.99
378.52	543.00
378.72	615.56
378.91	566.41
379.11	582.79
379.31	627.26
379.50	526.62
379.70	585.13
379.89	627.26
380.09	702.16
380.28	599.18
380.48	566.41
380.68	641.31
380.87	592.16
381.07	643.65
381.26	664.71
381.46	585.13
381.65	650.67
381.85	720.88
382.04	627.26
382.24	671.73
382.43	683.44
382.63	676.41
382.83	678.76
383.02	718.54
383.22	751.31
383.41	763.01
383.61	669.39
383.80	777.06
384.00	706.84
384.19	662.37
384.39	674.07
384.58	798.12
384.78	697.48
384.97	725.57
385.17	678.76
385.36	660.03
385.56	730.25
385.75	809.83
385.95	751.31
386.14	737.27
386.34	753.65
386.53	744.29
386.72	784.08
386.92	875.36
387.11	791.10
387.31	734.93
387.50	805.14
387.70	856.64
387.89	800.46
388.09	821.53
388.28	814.51
388.48	823.87
388.67	863.66
388.86	765.36
389.06	823.87
389.25	837.91
389.45	875.36
389.64	915.15
389.84	837.91
390.03	976.00
390.22	847.27
390.42	856.64
390.61	938.55
390.81	880.04
391.00	833.23
391.19	898.77
391.39	898.77
391.58	959.62
391.78	903.45
391.97	887.06
392.16	863.66
392.36	1015.79
392.55	919.83
392.75	898.77
392.94	882.38
393.13	915.15
393.33	828.55
393.52	945.58
393.71	943.24
393.91	1067.28
394.10	987.71
394.29	1013.45
394.49	1076.65
394.68	1022.81
394.88	1001.75
395.07	1034.52
395.26	1055.58
395.46	1074.31
395.65	1048.56
395.84	1174.95
396.04	1132.82
396.23	1006.43
396.42	1043.88
396.62	1123.46
396.81	1097.71
397.00	1097.71
397.19	1151.54
397.39	1214.74
397.58	1137.50
397.77	1132.82
397.97	1139.84
398.16	1123.46
398.35	1146.86
398.55	1275.59
398.74	1252.19
398.93	1266.23
399.12	1263.89
399.32	1294.32
399.51	1362.19
399.70	1268.57
399.90	1296.66
400.09	1308.36
400.28	1348.15
400.47	1343.47
400.67	1406.66
400.86	1322.40
401.05	1334.11
401.24	1413.68
401.44	1392.62
401.63	1392.62
401.82	1404.32
402.01	1289.64
402.21	1444.11
402.40	1565.82
402.59	1397.30
402.78	1430.07
402.97	1439.43
403.17	1523.69
403.36	1460.49
403.55	1514.33
403.74	1490.92
403.93	1530.71
404.13	1500.28
404.32	1458.15
404.51	1575.18
404.70	1650.08
404.89	1612.63
405.09	1713.27
405.28	1621.99
405.47	1612.63
405.66	1598.59
405.85	1589.22
406.05	1685.19
406.24	1724.97
406.43	1788.17
406.62	1713.27
406.81	1827.96
407.00	1771.79
407.20	1629.01
407.39	1818.60
407.58	1872.43
407.77	1799.87
407.96	1764.76
408.15	1762.42
408.34	1856.04
408.54	1842.00
408.73	1900.52
408.92	1987.11
409.11	1914.56
409.30	1877.11
409.49	1942.64
409.68	1909.88
409.87	1921.58
410.07	2064.35
410.26	1937.96
410.45	1994.14
410.64	1959.03
410.83	2150.95
411.02	2139.25
411.21	2066.69
411.40	2115.84
411.59	2136.91
411.78	2122.87
411.98	2136.91
412.17	2045.63
412.36	2202.44
412.55	2298.41
412.74	2342.88
412.93	2277.34
413.12	2321.81
413.31	2356.92
413.50	2335.85
413.69	2338.20
413.88	2525.44
414.07	2415.43
414.26	2534.80
414.45	2448.20
414.64	2590.97
414.83	2593.31
415.02	2679.91
415.22	2623.74
415.41	2597.99
415.60	2558.21
415.79	2764.17
415.98	2747.79
416.17	2789.92
416.36	2576.93
416.55	2747.79
416.74	2698.64
416.93	2862.48
417.12	2731.41
417.31	2670.55
417.50	2876.52
417.69	2855.45
417.88	2977.16
418.07	2895.24
418.26	2892.90
418.45	2956.10
418.64	3094.19
418.83	3049.72
419.02	2977.16
419.21	2937.37
419.39	3077.80
419.58	3070.78
419.77	2942.05
419.96	3145.68
420.15	3033.33
420.34	3108.23
420.53	3229.94
420.72	3164.40
420.91	3241.64
421.10	3286.11
421.29	3133.98
421.48	3155.04
421.67	3276.75
421.86	3300.16
422.05	3187.81
422.24	3180.79
422.43	3269.73
422.61	3255.69
422.80	3335.26
422.99	3281.43
423.18	3363.35
423.37	3417.18
423.56	3225.26
423.75	3375.05
423.94	3281.43
424.13	3183.13
424.32	3328.24
424.50	3396.12
424.69	3494.42
424.88	3431.23
425.07	3365.69
425.26	3304.84
425.45	3353.99
425.64	3314.20
425.83	3440.59
426.01	3466.33
426.20	3445.27
426.39	3379.73
426.58	3400.80
426.77	3459.31
426.96	3403.14
427.15	3382.07
427.33	3564.64
427.52	3482.72
427.71	3508.46
427.90	3541.23
428.09	3459.31
428.28	3620.81
428.46	3623.15
428.65	3595.06
428.84	3658.26
429.03	3705.07
429.22	3721.45
429.40	3599.74
429.59	3632.51
429.78	3445.27
429.97	3501.44
430.16	3676.98
430.34	3740.18
430.53	3700.39
430.72	3700.39
430.91	3613.79
431.10	3707.41
431.28	3957.85
431.47	3892.31
431.66	3941.46
431.85	3936.78
432.03	4028.06
432.22	3969.55
432.41	3962.53
432.60	4009.34
432.79	4065.51
432.97	4032.74
433.16	4030.40
433.35	3971.89
433.54	4093.60
433.72	3953.16
433.91	4002.32
434.10	4152.11
434.28	4058.49
434.47	4135.73
434.66	4245.73
434.85	4252.75
435.03	4236.37
435.22	4299.56
435.41	4393.19
435.59	4313.61
435.78	4297.22
435.97	4355.74
436.16	4397.87
436.34	4376.80
436.53	4318.29
436.72	4482.13
436.90	4334.67
437.09	4444.68
437.28	4381.48
437.46	4472.76
437.65	4463.40
437.84	4456.38
438.02	4542.98
438.21	4528.94
438.40	4418.93
438.58	4622.56
438.77	4697.46
438.96	4660.01
439.14	4788.74
439.33	4685.75
439.52	4912.78
439.70	4952.57
439.89	4802.78
440.08	4968.96
440.26	4849.59
440.45	4908.10
440.63	4994.70
440.82	5071.94
441.01	5088.32
441.19	5121.09
441.38	5210.03
441.57	5142.16
441.75	5193.65
441.94	5439.40
442.12	5383.23
442.31	5369.19
442.50	5432.38
442.68	5240.46
442.87	5458.13
443.05	5462.81
443.24	5514.30
443.43	5575.16
443.61	5439.40
443.80	5617.29
443.98	5467.49
444.17	5109.39
444.35	5598.56
444.54	5603.24
444.73	5481.53
444.91	5570.48
445.10	5563.45
445.28	5490.90
445.47	5472.17
445.65	5549.41
445.84	5603.24
446.02	5605.58
446.21	5645.37
446.39	5533.03
446.58	5628.99
446.77	5741.33
446.95	5476.85
447.14	5624.31
447.32	5643.03
447.51	5731.97
447.69	5598.56
447.88	5633.67
448.06	5680.48
448.25	5668.78
448.43	5699.20
448.62	5844.32
448.80	5619.63
448.99	5937.94
449.17	6057.31
449.36	5881.77
449.54	5895.81
449.73	6069.01
449.91	6050.28
450.10	5996.45
450.28	5926.24
450.46	6050.28
450.65	6122.84
450.83	5996.45
451.02	6019.86
451.20	6115.82
451.39	5998.79
451.57	6085.39
451.76	6054.97
451.94	6090.07
452.13	6282.00
452.31	6204.76
452.49	6059.65
452.68	6010.50
452.86	6176.67
453.05	6118.16
453.23	6202.42
453.42	6214.12
453.60	6200.08
453.78	6377.96
453.97	6179.01
454.15	6373.28
454.34	6284.34
454.52	6384.98
454.70	6551.16
454.89	6377.96
455.07	6637.76
455.26	6434.13
455.44	6640.10
455.62	6707.98
455.81	6689.25
455.99	6700.95
456.17	6537.12
456.36	6705.63
456.54	6745.42
456.73	6738.40
456.91	6937.35
457.09	6860.11
457.28	6932.67
457.46	6860.11
457.64	7016.93
457.83	6967.77
458.01	6956.07
458.19	7070.76
458.38	7026.29
458.56	7012.24
458.74	7047.35
458.93	6972.46
459.11	7054.37
459.29	7045.01
459.48	7269.70
459.66	7171.40
459.84	7166.72
460.03	7281.41
460.21	7377.37
460.39	7314.17
460.57	7194.81
460.76	7307.15
460.94	7349.28
461.12	7403.11
461.31	7356.30
461.49	7468.65
461.67	7325.88
461.85	7569.29
462.04	7489.71
462.22	8102.93
462.40	7562.27
462.59	7473.33
462.77	7735.47
462.95	7573.97
463.13	7674.62
463.32	7648.87
463.50	7847.82
463.68	7581.00
463.86	7808.03
464.05	7627.81
464.23	7798.66
464.41	7878.24
464.59	7566.95
464.78	7918.03
464.96	7686.32
465.14	7723.77
465.32	7831.43
465.50	7990.59
465.69	7915.69
465.87	8028.04
466.05	8135.70
466.23	8060.80
466.41	8065.49
466.60	8138.04
466.78	7793.98
466.96	7880.58
467.14	7997.61
467.32	8072.51
467.51	8039.74
467.69	7836.11
467.87	8086.55
468.05	8290.18
468.23	8044.42
468.41	8145.06
468.60	8219.96
468.78	8173.15
468.96	8212.94
469.14	8332.31
469.32	8344.01
469.50	8091.23
469.69	8409.54
469.87	8411.89
470.05	8603.81
470.23	8575.72
470.41	8528.91
470.59	8676.37
470.77	8697.43
470.95	8713.81
471.14	8931.48
471.32	8594.45
471.50	8968.93
471.68	8821.48
471.86	8891.70
472.04	8833.18
472.22	9109.36
472.40	9032.13
472.58	9015.74
472.77	9092.98
472.95	9242.78
473.13	9352.78
473.31	9404.27
473.49	9210.01
473.67	9268.52
473.85	9404.27
474.03	9465.13
474.21	9394.91
474.39	9586.83
474.57	9479.17
474.75	9645.35
474.93	9734.29
475.12	9753.01
475.30	9792.80
475.48	9551.73
475.66	9912.17
475.84	9841.95
476.02	10001.11
476.20	9944.94
476.38	9975.36
476.56	10303.04
476.74	10274.95
476.92	10235.16
477.10	10331.12
477.28	10487.94
477.46	10544.11
477.64	10773.49
477.82	10958.39
478.00	10979.45
478.18	10958.39
478.36	10750.08
478.54	11059.03
478.72	10991.16
478.90	11077.76
479.08	11309.47
479.26	11286.06
479.44	11349.26
479.62	11454.58
479.80	11562.25
479.98	11777.58
480.16	12072.48
480.34	11939.07
480.52	12154.40
480.70	12044.40
480.88	12006.95
481.06	12154.40
481.24	12049.08
481.41	12477.40
481.59	12507.82
481.77	12531.23
481.95	12697.41
482.13	12751.24
482.31	12681.02
482.49	12908.05
482.67	13181.90
482.85	12989.97
483.03	13401.91
483.21	13336.37
483.39	13589.15
483.57	13525.96
483.74	13357.44
483.92	13652.34
484.10	13500.21
484.28	13940.23
484.46	14188.33
484.64	14396.64
484.82	14162.58
485.00	14113.43
485.18	14487.92
485.35	14773.46
485.53	14698.56
485.71	14579.20
485.89	14792.19
486.07	15033.26
486.25	14979.43
486.43	14960.70
486.61	15351.57
486.78	15213.48
486.96	15417.11
487.14	15826.70
487.32	15611.37
487.50	15857.13
487.68	15866.49
487.85	15953.09
488.03	16301.83
488.21	16465.67
488.39	16451.63
488.57	16617.80
488.75	16561.63
488.92	16868.24
489.10	16994.63
489.28	17022.72
489.46	17214.64
489.64	17256.77
489.81	17661.68
489.99	17923.82
490.17	17720.20
490.35	18183.62
490.53	18223.41
490.70	18132.13
490.88	18085.32
491.06	18314.69
491.24	18235.11
491.41	18480.87
491.59	18663.43
491.77	18487.89
491.95	18754.71
492.13	19070.68
492.30	18813.23
492.48	18801.52
492.66	19126.86
492.84	19180.69
493.01	19592.62
493.19	19566.88
493.37	19707.31
493.54	19892.21
493.72	20065.41
493.90	20056.05
494.08	20421.17
494.25	20409.47
494.43	20793.32
494.61	20870.56
494.79	20755.87
494.96	20547.56
495.14	20599.05
495.32	21184.19
495.49	20856.51
495.67	21158.44
495.85	21198.23
496.02	21420.58
496.20	21116.31
496.38	21535.27
496.55	21783.37
496.73	22218.71
496.91	21654.64
497.09	21853.58
497.26	22307.65
497.44	22120.40
497.62	22291.26
497.79	22675.11
497.97	22572.13
498.14	22349.78
498.32	22682.13
498.50	23084.70
498.67	23065.98
498.85	23035.55
499.03	23342.16
499.20	23178.33
499.38	23342.16
499.56	23496.64
499.73	23365.57
499.91	23513.02
500.08	23758.78
500.26	23683.88
500.44	23931.98
500.61	23889.85
500.79	23955.38
500.97	24049.00
501.14	24105.18
501.32	24348.59
501.49	24383.70
501.67	24472.64
501.84	24439.87
502.02	24652.86
502.20	24833.08
502.37	24844.79
502.55	24821.38
502.72	25062.46
502.90	25223.95
503.07	25055.43
503.25	25177.14
503.43	24968.84
503.60	25390.13
503.78	25504.82
503.95	25570.35
504.13	25605.46
504.30	25809.09
504.48	25673.34
504.65	25703.76
504.83	26225.70
505.01	26183.57
505.18	25816.11
505.36	26108.68
505.53	26239.75
505.71	26164.85
505.88	26438.69
506.06	26487.84
506.23	26398.90
506.41	26410.60
506.58	26719.56
506.76	26841.26
506.93	26768.71
507.11	26572.10
507.28	26911.48
507.46	26955.95
507.63	27255.54
507.81	27246.18
507.98	27211.07
508.16	27218.09
508.33	27812.59
508.50	27662.79
508.68	27461.51
508.85	27896.85
509.03	27814.93
509.20	28119.20
509.38	27852.38
509.55	28154.30
509.73	28465.60
509.90	28212.82
510.08	28222.18
510.25	27833.65
510.42	28250.27
510.60	28460.91
510.77	28617.73
510.95	28669.22
511.12	28753.48
511.30	28807.31
511.47	29050.73
511.64	28704.33
511.82	29191.16
511.99	28491.34
512.17	29387.77
512.34	29057.75
512.51	29254.36
512.69	29792.68
512.86	29764.59
513.04	29488.41
513.21	29799.70
513.38	29455.64
513.56	29809.06
513.73	29656.93
513.90	30150.78
514.08	29572.67
514.25	29893.32
514.43	30335.68
514.60	30246.74
514.77	30118.01
514.95	30410.58
515.12	30628.25
515.29	30588.46
515.47	30705.49
515.64	30726.55
515.81	30520.59
515.99	30609.53
516.16	30700.81
516.33	30724.21
516.51	30892.73
516.68	30541.65
516.85	30766.34
517.03	30885.71
517.20	30916.14
517.37	30778.04
517.54	31356.16
517.72	31103.38
517.89	31351.48
518.06	31344.45
518.24	31229.77
518.41	31370.20
518.58	31508.29
518.75	31491.91
518.93	32205.77
519.10	31566.81
519.27	31805.54
519.45	32327.48
519.62	32215.13
519.79	32034.91
519.96	31978.74
520.14	32435.14
520.31	32173.00
520.48	32315.78
520.65	32376.63
520.83	32802.61
521.00	32598.98
521.17	32641.11
521.34	32814.31
521.52	32493.66
521.69	32573.24
521.86	33179.43
522.03	32835.38
522.20	33137.30
522.38	33345.61
522.55	33104.54
522.72	33008.58
522.89	33085.81
523.07	33350.29
523.24	33460.30
523.41	33656.90
523.58	33769.25
523.75	33893.30
523.92	33542.22
524.10	33909.68
524.27	33876.91
524.44	33635.84
524.61	34003.30
524.78	34171.82
524.96	34417.58
525.13	34424.60
525.30	34684.40
525.47	34326.30
525.64	34646.95
525.81	34553.33
525.98	34368.43
526.16	34536.94
526.33	34649.29
526.50	34808.45
526.67	34377.79
526.84	34555.67
527.01	34527.58
527.18	34415.24
527.36	34759.30
527.53	34815.47
527.70	35641.68
527.87	35323.36
528.04	34986.33
528.21	34810.79
528.38	34862.28
528.55	35257.83
528.72	35161.87
528.89	35461.46
529.07	35175.91
529.24	35576.14
529.41	35136.12
529.58	35639.34
529.75	35562.10
529.92	35534.01
530.09	35857.01
530.26	35742.32
530.43	35852.33
530.60	35702.53
530.77	36077.02
530.94	36077.02
531.11	36086.38
531.28	36142.55
531.46	36119.15
531.63	36327.45
531.80	36027.87
531.97	36290.01
532.14	36163.62
532.31	35894.46
532.48	36421.08
532.65	36446.82
532.82	36308.73
532.99	36526.40
533.16	36486.61
533.33	36505.34
533.50	36996.85
533.67	36821.31
533.84	36439.80
534.01	37160.69
534.18	36828.33
534.35	37141.96
534.52	36659.81
534.69	36975.78
534.86	37078.77
535.03	37404.10
535.20	37713.05
535.37	37759.86
535.54	37579.64
535.71	37586.66
535.88	37333.89
536.05	37759.86
536.22	37170.05
536.38	37212.18
536.55	37364.31
536.72	37357.29
536.89	37975.19
537.06	37439.21
537.23	37614.75
537.40	37546.87
537.57	37944.76
537.74	38005.62
537.91	37949.45
538.08	37839.44
538.25	37738.80
538.42	38124.99
538.59	38024.34
538.75	37612.41
538.92	38466.70
539.09	38443.30
539.26	38361.38
539.43	38419.89
539.60	37879.23
539.77	37958.81
539.94	38398.83
540.11	38342.66
540.28	38464.36
540.44	38810.76
540.61	38452.66
540.78	38396.49
540.95	38260.74
541.12	38440.96
541.29	38958.22
541.46	38717.14
541.62	38745.23
541.79	39061.20
541.96	38527.56
542.13	38855.23
542.30	38911.41
542.47	38955.88
542.63	39133.76
542.80	38890.34
542.97	39758.68
543.14	39966.99
543.31	39351.43
543.48	39409.94
543.64	40076.99
543.81	39744.64
543.98	39475.48
544.15	39412.28
544.32	39512.92
544.48	39985.71
544.65	39295.25
544.82	39592.50
544.99	39573.78
545.16	39786.77
545.32	39545.69
545.49	39564.42
545.66	40203.38
545.83	39814.85
546.00	40432.75
546.16	40034.86
546.33	40088.70
546.50	39962.31
546.67	40285.30
546.83	39491.86
547.00	40266.58
547.17	40112.10
547.34	40275.94
547.50	40423.39
547.67	41010.87
547.84	40418.71
548.00	40634.04
548.17	40793.20
548.34	40734.68
548.51	40980.44
548.67	40788.52
548.84	40568.51
549.01	40755.75
549.18	40570.85
549.34	41158.32
549.51	40655.11
549.68	40751.07
549.84	41148.96
550.01	40957.03
550.18	40821.28
550.34	40533.40
550.51	40985.12
550.68	41013.21
550.84	40605.95
551.01	40832.99
551.18	41036.61
551.34	40837.67
551.51	41614.72
551.68	41310.46
551.84	41233.22
552.01	41322.16
552.18	41476.63
552.34	41184.07
552.51	41530.47
552.68	41373.65
552.84	41689.62
553.01	41694.30
553.18	41544.51
553.34	41734.09
553.51	41202.79
553.67	41406.42
553.84	41916.65
554.01	41528.13
554.17	42052.41
554.34	42068.79
554.51	42122.62
554.67	41610.04
554.84	41771.54
555.00	41593.66
555.17	41741.11
555.33	42066.45
555.50	41558.55
555.67	42005.59
555.83	41612.38
556.00	42003.25
556.16	42223.26
556.33	42366.04
556.50	41998.57
556.66	42043.04
556.83	41687.28
556.99	42462.00
557.16	42471.36
557.32	42302.84
557.49	42129.64
557.65	42148.37
557.82	42012.62
557.98	42213.90
558.15	42366.04
558.32	42639.88
558.48	42487.74
558.65	42305.18
558.81	42253.69
558.98	42792.01
559.14	42586.05
559.31	42438.59
559.47	42438.59
559.64	42930.11
559.80	42960.53
559.97	42756.91
560.13	42761.59
560.30	42366.04
560.46	42670.31
560.63	42436.25
560.79	42557.96
560.96	42796.70
561.12	42443.27
561.29	42422.21
561.45	42703.07
561.61	42588.39
561.78	42492.43
561.94	42426.89
562.11	43089.26
562.27	42883.30
562.44	43086.92
562.60	42946.49
562.77	42995.64
562.93	42880.95
563.10	43079.90
563.26	42602.43
563.42	43445.02
563.59	43126.71
563.75	42944.15
563.92	43133.73
564.08	43091.60
564.24	42988.62
564.41	42815.42
564.57	43079.90
564.74	43477.79
564.90	42939.47
565.07	43225.01
565.23	43166.50
565.39	42721.80
565.56	43091.60
565.72	42780.31
565.88	43037.77
566.05	42824.78
566.21	42684.35
566.38	42738.18
566.54	43452.05
566.70	43416.94
566.87	43166.50
567.03	43178.20
567.19	43627.59
567.36	43089.26
567.52	43264.80
567.68	43522.26
567.85	43122.03
568.01	43159.48
568.17	42927.77
568.34	43426.30
568.50	43049.47
568.66	43529.28
568.83	43435.66
568.99	43185.22
569.15	43159.48
569.32	43248.42
569.48	43442.68
569.64	43838.23
569.81	43161.82
569.97	43407.58
570.13	43590.14
570.30	43070.54
570.46	43241.40
570.62	43290.55
570.78	43145.44
570.95	43091.60
571.11	43775.04
571.27	42962.87
571.43	43470.77
571.60	43751.63
571.76	43817.17
571.92	43604.18
572.09	43264.80
572.25	43353.74
572.41	44016.11
572.57	43627.59
572.74	43636.95
572.90	43494.18
573.06	43704.82
573.22	43344.38
573.38	43384.17
573.55	43328.00
573.71	44123.78
573.87	43569.07
574.03	43187.56
574.20	43522.26
574.36	43597.16
574.52	43943.56
574.68	43337.36
574.84	43363.11
575.01	43611.20
575.17	43480.13
575.33	43676.74
575.49	43454.39
575.65	43931.86
575.82	44039.52
575.98	43957.60
576.14	43709.50
576.30	43643.97
576.46	43423.96
576.62	43302.25
576.79	43646.31
576.95	43555.03
577.11	43580.78
577.27	43955.26
577.43	43257.78
577.59	43880.36
577.75	43873.34
577.92	43608.86
578.08	43569.07
578.24	43611.20
578.40	43779.72
578.56	43416.94
578.72	43573.75
578.88	43981.01
579.04	43824.19
579.21	43660.35
579.37	44004.41
579.53	43622.90
579.69	43414.60
579.85	43693.12
580.01	43819.51
580.17	43992.71
580.33	44072.29
580.49	44083.99
580.65	44002.07
580.82	44135.48
580.98	43716.53
581.14	43608.86
581.30	44032.50
581.46	43873.34
581.62	44168.25
581.78	43908.45
581.94	44304.00
582.10	43761.00
582.26	44018.46
582.42	43531.62
582.58	43580.78
582.74	43714.19
582.90	43882.70
583.06	44083.99
583.22	44245.49
583.38	44027.82
583.54	43894.41
583.70	43810.15
583.86	43587.80
584.02	43606.52
584.18	43899.09
584.34	43512.90
584.50	44041.86
584.66	43929.51
584.82	43903.77
584.98	44343.79
585.14	44009.09
585.30	43814.83
585.46	43817.17
585.62	43742.27
585.78	43739.93
585.94	43842.92
586.10	43676.74
586.26	43849.94
586.42	44222.08
586.58	43929.51
586.74	44261.87
586.90	43779.72
587.06	43922.49
587.22	44011.43
587.38	43959.94
587.54	44428.05
587.70	43838.23
587.86	43770.36
588.02	43988.03
588.18	44409.32
588.34	44439.75
588.49	43842.92
588.65	43660.35
588.81	43580.78
588.97	44107.40
589.13	43894.41
589.29	43819.51
589.45	44055.90
589.61	44189.31
589.77	44559.12
589.93	44465.50
590.08	44360.17
590.24	44540.39
590.40	44339.11
590.56	44472.52
590.72	44266.55
590.88	43990.37
591.04	44423.37
591.20	44217.40
591.35	43772.70
591.51	44573.16
591.67	43950.58
591.83	44112.08
591.99	44233.78
592.15	44119.10
592.31	43840.57
592.46	44313.36
592.62	44233.78
592.78	44378.90
592.94	44495.92
593.10	44126.12
593.26	44563.80
593.41	44306.34
593.57	43945.90
593.73	44074.63
593.89	44437.41
594.05	44238.47
594.20	44430.39
594.36	44287.62
594.52	44294.64
594.68	44725.30
594.84	43374.81
594.99	44767.43
595.15	44364.85
595.31	44634.02
595.47	44598.91
595.62	44505.29
595.78	44741.68
595.94	44701.89
596.10	44545.08
596.25	44559.12
596.41	44893.82
596.57	44086.33
596.73	44605.93
596.88	44233.78
597.04	44406.98
597.20	44133.14
597.36	44519.33
597.51	44524.01
597.67	44348.47
597.83	44603.59
597.99	44844.66
598.14	44521.67
598.30	44318.04
598.46	44601.25
598.61	44474.86
598.77	44144.84
598.93	44392.94
599.09	44385.92
599.24	44762.75
599.40	44746.36
599.56	44699.55
599.71	44699.55
599.87	44746.36
600.03	44589.55
600.18	44282.94
600.34	44748.70
600.50	44231.44
600.65	44847.00
600.81	44481.88
600.97	44158.89
601.12	44842.32
601.28	44825.94
601.44	44458.48
601.59	44390.60
601.75	44442.09
601.91	44299.32
602.06	44402.30
602.22	44673.81
602.37	44034.84
602.53	44304.00
602.69	45015.52
602.84	44137.82
603.00	44179.95
603.16	44481.88
603.31	44065.27
603.47	44088.67
603.62	44114.42
603.78	44486.56
603.94	44744.02
604.09	44545.08
604.25	44603.59
604.40	44467.84
604.56	44847.00
604.71	44678.49
604.87	44533.37
605.03	44399.96
605.18	44140.16
605.34	43868.66
605.49	44238.47
605.65	44238.47
605.80	44437.41
605.96	44355.49
606.12	44041.86
606.27	44404.64
606.43	44526.35
606.58	44369.54
606.74	44320.38
606.89	44114.42
607.05	44201.02
607.20	44446.77
607.36	44776.79
607.51	44758.06
607.67	44273.57
607.82	44264.21
607.98	44289.96
608.13	44589.55
608.29	44264.21
608.44	43599.50
608.60	44039.52
608.75	43533.96
608.91	43995.05
609.06	43763.34
609.22	44568.48
609.37	44123.78
609.53	43995.05
609.68	44388.26
609.84	44037.18
609.99	44208.04
610.15	43763.34
610.30	43931.86
610.46	43646.31
610.61	43992.71
610.76	43964.62
610.92	43688.44
611.07	43728.23
611.23	43976.33
611.38	44212.72
611.54	43409.92
611.69	43793.76
611.84	43770.36
612.00	43667.37
612.15	43793.76
612.31	43896.75
612.46	43620.56
612.62	44278.25
612.77	43480.13
612.92	44224.42
613.08	43662.69
613.23	43765.68
613.39	43796.10
613.54	43433.32
613.69	43805.47
613.85	43491.83
614.00	43548.01
614.15	43761.00
614.31	43526.94
614.46	43573.75
614.62	43281.19
614.77	43562.05
614.92	43147.78
615.08	43725.89
615.23	43496.52
615.38	43545.67
615.54	42850.53
615.69	42792.01
615.84	43414.60
616.00	43281.19
616.15	43356.08
616.30	43409.92
616.46	43063.52
616.61	42885.64
616.76	43168.84
616.92	43002.66
617.07	43332.68
617.22	42557.96
617.37	42937.13
617.53	43660.35
617.68	42794.36
617.83	43133.73
617.99	43276.51
618.14	43182.88
618.29	43220.33
618.45	42564.98
618.60	42775.63
618.75	42820.10
618.90	42766.27
619.06	43016.71
619.21	42621.16
619.36	43349.06
619.51	43016.71
619.67	42719.46
619.82	42916.06
619.97	42845.85
620.12	42588.39
620.28	42417.53
620.43	42583.71
620.58	42766.27
620.73	42782.65
620.89	42391.78
621.04	42806.06
621.19	42501.79
621.34	42436.25
621.49	42131.98
621.65	42464.34
621.80	42574.34
621.95	41881.55
622.10	42979.26
622.25	42169.43
622.41	42351.99
622.56	41844.10
622.71	42843.51
622.86	42366.04
623.01	42527.53
623.16	42752.23
623.32	42036.02
623.47	42784.99
623.62	42415.19
623.77	42089.85
623.92	42054.75
624.07	42597.75
624.23	41841.76
624.38	41581.96
624.53	42195.18
624.68	42237.31
624.83	41956.44
624.98	41975.17
625.13	41944.74
625.29	42068.79
625.44	41825.37
625.59	41652.17
625.74	41429.82
625.89	41717.71
626.04	41350.24
626.19	41387.69
626.34	41846.44
626.49	41326.84
626.65	41773.88
626.80	42188.16
626.95	41481.31
627.10	41387.69
627.25	41579.62
627.40	41301.09
627.55	41483.66
627.70	40844.69
627.85	40938.31
628.00	41057.68
628.15	41801.97
628.30	41488.34
628.45	41483.66
628.60	41053.00
628.76	41448.55
628.91	41074.06
629.06	41333.86
629.21	41364.29
629.36	40882.14
629.51	40849.37
629.66	40989.80
629.81	41247.26
629.96	41017.89
630.11	41298.75
630.26	41518.76
630.41	41064.70
630.56	40870.43
630.71	41317.48
630.86	41006.19
631.01	41354.93
631.16	40924.27
631.31	40697.24
631.46	40437.44
631.61	40795.54
631.76	40980.44
631.91	41020.23
632.06	40828.30
632.21	40753.41
632.36	40938.31
632.51	40844.69
632.66	40629.36
632.81	40512.33
632.96	41029.59
633.10	40622.34
633.25	40360.20
633.40	40638.72
633.55	40713.62
633.70	40650.42
633.85	40411.69
634.00	40325.09
634.15	40149.55
634.30	40205.72
634.45	40257.21
634.60	40224.45
634.75	40301.68
634.90	40060.61
635.05	39922.52
635.19	40109.76
635.34	40582.55
635.49	40472.54
635.64	40236.15
635.79	39810.17
635.94	39793.79
636.09	39796.13
636.24	39784.43
636.39	39271.85
636.53	39831.24
636.68	39861.66
636.83	40041.88
636.98	39988.05
637.13	39849.96
637.28	39817.19
637.43	40020.82
637.57	40217.43
637.72	39856.98
637.87	39349.09
638.02	39714.21
638.17	39798.47
638.32	39541.01
638.46	39496.54
638.61	39779.74
638.76	39562.08
638.91	39723.57
639.06	39253.12
639.20	39374.83
639.35	39487.18
639.50	39309.30
639.65	39903.79
639.80	39908.47
639.94	39777.40
640.09	39178.23
640.24	39409.94
640.39	39115.03
640.54	39040.14
640.68	39346.75
640.83	39185.25
640.98	39133.76
641.13	38801.40
641.27	39728.25
641.42	39187.59
641.57	39264.83
641.72	39330.36
641.86	39136.10
642.01	38981.62
642.16	38953.54
642.31	38586.07
642.45	39208.65
642.60	38581.39
642.75	38614.16
642.90	38944.17
643.04	38976.94
643.19	38785.02
643.34	39021.41
643.48	38817.78
643.63	38672.67
643.78	38129.67
643.93	38508.83
644.07	38625.86
644.22	38569.69
644.37	38300.53
644.51	38492.45
644.66	38574.37
644.81	38740.55
644.95	38930.13
645.10	38962.90
645.25	38625.86
645.39	38506.49
645.54	38965.24
645.69	38572.03
645.83	38148.39
645.98	38223.29
646.13	38211.59
646.27	38639.90
646.42	38363.72
646.57	38565.01
646.71	38410.53
646.86	38373.08
647.00	38827.15
647.15	38368.40
647.30	38089.88
647.44	38710.12
647.59	38260.74
647.74	37844.12
647.88	37771.57
648.03	37752.84
648.17	38146.05
648.32	38103.92
648.47	37827.74
648.61	37954.13
648.76	38000.94
648.90	37766.88
649.05	37944.76
649.20	38024.34
649.34	38183.50
649.49	37720.07
649.63	37813.70
649.78	37766.88
649.92	37832.42
650.07	37804.33
650.21	37787.95
650.36	37893.27
650.51	37794.97
650.65	38337.98
650.80	38209.25
650.94	38302.87
651.09	38129.67
651.23	37521.13
651.38	37607.73
651.52	37488.36
651.67	37464.96
651.81	37542.19
651.96	37448.57
652.10	37525.81
652.25	37832.42
652.39	37247.29
652.54	37125.58
652.68	37633.47
652.83	37324.52
652.97	37715.39
653.12	37354.95
653.26	37406.44
653.41	37319.84
653.55	37010.89
653.70	37120.90
653.84	37123.24
653.99	36882.16
654.13	37453.25
654.27	37097.49
654.42	37368.99
654.56	36704.28
654.71	37301.12
654.85	37113.87
655.00	36961.74
655.14	36723.01
655.29	36957.06
655.43	36889.18
655.57	36669.17
655.72	36456.18
655.86	36481.93
656.01	36854.08
656.15	36748.75
656.30	36659.81
656.44	36425.76
656.58	36392.99
656.73	36573.21
656.87	36690.24
657.01	36130.85
657.16	36402.35
657.30	36308.73
657.45	36224.47
657.59	36290.01
657.73	36292.35
657.88	36521.72
658.02	36376.61
658.16	35831.26
658.31	36016.16
658.45	36465.55
658.60	36524.06
658.74	35985.74
658.88	36479.59
659.03	36107.44
659.17	35452.09
659.31	35608.91
659.46	35842.96
659.60	35791.47
659.74	35288.26
659.89	35445.07
660.03	35299.96
660.17	35992.76
660.32	35821.90
660.46	36041.91
660.60	35416.99
660.74	36055.95
660.89	35821.90
661.03	35421.67
661.17	35484.86
661.32	34958.24
661.46	34546.31
661.60	34967.60
661.74	34775.68
661.89	35309.32
662.03	35213.36
662.17	35318.68
662.31	35033.14
662.46	34635.25
662.60	34948.88
662.74	35222.72
662.88	35241.45
663.03	34560.35
663.17	35115.06
663.31	34864.62
663.45	34574.39
663.60	35084.63
663.74	34785.04
663.88	34464.39
664.02	34501.84
664.17	34707.80
664.31	34565.03
664.45	34340.34
664.59	34330.98
664.73	34321.62
664.88	34583.76
665.02	33961.17
665.16	34099.26
665.30	33734.14
665.44	33900.32
665.59	33736.48
665.73	33764.57
665.87	33675.63
666.01	34071.18
666.15	33640.52
666.29	33792.65
666.44	33701.37
666.58	33631.16
666.72	33631.16
666.86	33809.04
667.00	33893.30
667.14	33521.15
667.28	33387.74
667.43	33268.37
667.57	33425.19
667.71	33125.60
667.85	32954.74
667.99	33207.52
668.13	33439.23
668.27	32917.29
668.41	33228.59
668.56	32737.07
668.70	33263.69
668.84	32898.57
668.98	32538.13
669.12	32858.78
669.26	32961.76
669.40	32746.44
669.54	32765.16
669.68	32699.62
669.82	32758.14
669.96	32465.57
670.10	32414.08
670.25	32259.60
670.39	32795.59
670.53	32470.25
670.67	32306.41
670.81	32264.28
670.95	32297.05
671.09	32105.13
671.23	32292.37
671.37	32343.86
671.51	32032.57
671.65	32016.19
671.79	31847.67
671.93	31456.80
672.07	31824.26
672.21	31449.78
672.35	31463.82
672.49	31529.36
672.63	31831.29
672.77	31456.80
672.91	31239.13
673.05	30998.06
673.19	30955.93
673.33	30668.04
673.47	30824.86
673.61	31037.84
673.75	30696.13
673.89	30831.88
674.03	30658.68
674.17	30628.25
674.31	30504.20
674.45	30630.59
674.59	30452.71
674.73	30820.17
674.87	30532.29
675.01	30352.07
675.15	30630.59
675.29	30831.88
675.43	30319.30
675.56	30415.26
675.70	29905.02
675.84	30295.89
675.98	28912.64
676.12	29937.79
676.26	29556.28
676.40	29795.02
676.54	29729.48
676.68	29415.85
676.82	29067.11
676.96	28891.57
677.10	29256.70
677.23	28786.25
677.37	29102.22
677.51	29090.52
677.65	28952.43
677.79	28479.64
677.93	28549.85
678.07	28481.98
678.21	28393.04
678.34	28278.35
678.48	28453.89
678.62	28254.95
678.76	28037.28
678.90	27934.29
679.04	27693.22
679.18	28304.10
679.31	27625.34
679.45	27618.32
679.59	27154.90
679.73	27576.19
679.87	27269.58
680.00	27344.48
680.14	27204.05
680.28	27234.47
680.42	27030.85
680.56	27529.38
680.70	26925.52
680.83	27159.58
680.97	26366.13
681.11	26684.45
681.25	26735.94
681.39	26822.54
681.52	26850.63
681.66	26345.07
681.80	26291.24
681.94	26178.89
682.07	26326.35
682.21	26010.37
682.35	25916.75
682.49	25743.55
682.62	26022.08
682.76	25888.67
682.90	25675.68
683.04	25446.30
683.17	25654.61
683.31	25626.53
683.45	25479.07
683.59	25186.50
683.72	24915.00
683.86	24945.43
684.00	24884.58
684.13	25130.33
684.27	24900.96
684.41	24971.18
684.55	24737.12
684.68	24858.83
684.82	24610.73
684.96	24381.36
685.09	24533.50
685.23	24301.78
685.37	23992.83
685.50	24166.03
685.64	24313.48
685.78	23962.40
685.91	23983.47
686.05	24002.19
686.19	23482.59
686.32	23777.50
686.46	23407.70
686.60	23550.47
686.73	23491.96
686.87	22899.80
687.01	23353.87
687.14	23239.18
687.28	22923.21
687.42	23035.55
687.55	22635.32
687.69	22731.28
687.82	22590.85
687.96	22508.93
688.10	22719.58
688.23	22466.80
688.37	22295.94
688.50	21766.98
688.64	22106.36
688.78	22118.06
688.91	21989.33
689.05	22181.26
689.18	21977.63
689.32	21504.84
689.46	21703.79
689.59	22031.46
689.73	21752.94
689.86	21785.71
690.00	21341.00
690.13	21434.63
690.27	21287.17
690.41	21013.33
690.54	20940.77
690.68	21259.09
690.81	20622.46
690.95	20893.96
691.08	20680.97
691.22	20547.56
691.35	20835.45
691.49	20603.74
691.62	21036.74
691.76	20383.73
691.89	20294.79
692.03	20105.20
692.16	19920.30
692.30	20025.62
692.43	19974.13
692.57	20053.71
692.70	19915.62
692.84	19852.42
692.97	19875.83
693.11	19377.30
693.24	19637.09
693.38	19358.57
693.51	19431.13
693.65	19286.01
693.78	19016.85
693.92	19077.71
694.05	19157.28
694.19	19222.82
694.32	18618.96
694.45	18799.18
694.59	18757.05
694.72	18569.81
694.86	19026.21
694.99	18387.25
695.13	18429.38
695.26	18501.93
695.39	18185.96
695.53	18125.11
695.66	18075.96
695.80	17963.61
695.93	18310.01
696.07	17771.69
696.20	17909.78
696.33	17888.71
696.47	17661.68
696.60	17455.72
696.73	17678.07
696.87	17579.76
697.00	17621.89
697.14	17483.80
697.27	17191.23
697.40	17359.75
697.54	17401.88
697.67	16805.05
697.80	17039.10
697.94	17132.72
698.07	17041.44
698.21	16828.45
698.34	16893.99
698.47	16676.32
698.61	16217.57
698.74	16187.14
698.87	16498.44
699.01	16299.49
699.14	15955.43
699.27	16145.02
699.40	16208.21
699.54	15709.68
699.67	16180.12
699.80	16030.33
699.94	15826.70
700.07	15985.86
700.20	15674.57
700.34	15386.68
700.47	15499.03
700.60	15845.43
700.73	15513.07
700.87	15800.96
701.00	15545.84
701.13	15501.37
701.26	15061.35
701.40	15342.21
701.53	15218.16
701.66	14895.17
701.79	14853.04
701.93	14778.14
702.06	14721.97
702.19	14731.33
702.32	14572.18
702.46	14562.81
702.59	14576.86
702.72	14640.05
702.85	14452.81
702.99	14476.21
703.12	14572.18
703.25	14104.07
703.38	14712.61
703.51	14164.92
703.65	14314.72
703.78	14073.64
703.91	14050.24
704.04	13790.44
704.17	13769.37
704.31	13785.76
704.44	13429.99
704.57	13511.91
704.70	13317.65
704.83	13448.72
704.96	13441.70
705.10	13626.60
705.23	13516.59
>>>>>End Processed Spectral Data<<<<<
