SpectraSuite Data File
++++++++++++++++++++++++++++++++++++
Date: Fri Oct 25 10:44:47 EDT 2013
User: price-jones
Dark Spectrum Present: No
Reference Spectrum Present: No
Number of Sampled Component Spectra: 1
Spectrometers: USB2+H05261
Integration Time (usec): 100000 (USB2+H05261)
Spectra Averaged: 1 (USB2+H05261)
Boxcar Smoothing: 0 (USB2+H05261)
Correct for Electrical Dark: No (USB2+H05261)
Strobe/Lamp Enabled: No (USB2+H05261)
Correct for Detector Non-linearity: No (USB2+H05261)
Correct for Stray Light: No (USB2+H05261)
Number of Pixels in Processed Spectrum: 2048
>>>>>Begin Processed Spectral Data<<<<<
365.73	140.43
365.92	140.43
366.12	140.43
366.32	63.19
366.52	60.85
366.72	112.35
366.91	0.00
367.11	9.36
367.31	49.15
367.51	0.00
367.70	58.51
367.90	98.30
368.10	30.43
368.30	23.41
368.49	7.02
368.69	23.41
368.89	79.58
369.09	0.00
369.28	4.68
369.48	14.04
369.68	100.64
369.87	91.28
370.07	91.28
370.27	163.84
370.47	159.16
370.66	395.55
370.86	339.38
371.06	390.87
371.25	514.92
371.45	458.74
371.65	482.15
371.84	425.98
372.04	465.77
372.24	503.22
372.44	437.68
372.63	479.81
372.83	500.87
373.03	486.83
373.22	498.53
373.42	468.11
373.62	531.30
373.81	521.94
374.01	538.32
374.21	592.16
374.40	568.75
374.60	543.00
374.79	491.51
374.99	498.53
375.19	489.17
375.38	624.92
375.58	596.84
375.78	603.86
375.97	547.69
376.17	596.84
376.37	526.62
376.56	613.22
376.76	491.51
376.95	573.43
377.15	587.47
377.35	582.79
377.54	641.31
377.74	634.29
377.93	589.82
378.13	580.45
378.33	697.48
378.52	615.56
378.72	645.99
378.91	662.37
379.11	559.39
379.31	617.90
379.50	552.37
379.70	662.37
379.89	718.54
380.09	664.71
380.28	617.90
380.48	671.73
380.68	610.88
380.87	606.20
381.07	683.44
381.26	702.16
381.46	624.92
381.65	692.80
381.85	645.99
382.04	573.43
382.24	631.94
382.43	657.69
382.63	695.14
382.83	690.46
383.02	709.18
383.22	638.97
383.41	592.16
383.61	664.71
383.80	805.14
384.00	662.37
384.19	690.46
384.39	746.63
384.58	795.78
384.78	755.99
384.97	788.76
385.17	699.82
385.36	784.08
385.56	774.72
385.75	727.91
385.95	753.65
386.14	784.08
386.34	725.57
386.53	805.14
386.72	737.27
386.92	856.64
387.11	896.43
387.31	798.12
387.50	835.57
387.70	847.27
387.89	866.00
388.09	887.06
388.28	814.51
388.48	774.72
388.67	777.06
388.86	814.51
389.06	877.70
389.25	800.46
389.45	835.57
389.64	901.11
389.84	896.43
390.03	922.17
390.22	896.43
390.42	908.13
390.61	933.87
390.81	908.13
391.00	926.85
391.19	999.41
391.39	912.81
391.58	954.94
391.78	905.79
391.97	912.81
392.16	938.55
392.36	919.83
392.55	940.90
392.75	1057.92
392.94	971.32
393.13	968.98
393.33	945.58
393.52	973.66
393.71	1123.46
393.91	926.85
394.10	957.28
394.29	1034.52
394.49	994.73
394.68	1034.52
394.88	1076.65
395.07	1093.03
395.26	1135.16
395.46	1088.35
395.65	1111.75
395.84	1104.73
396.04	1174.95
396.23	1097.71
396.42	1027.50
396.62	1015.79
396.81	1174.95
397.00	1081.33
397.19	1188.99
397.39	1095.37
397.58	1184.31
397.77	1170.27
397.97	1277.93
398.16	1331.76
398.35	1277.93
398.55	1245.16
398.74	1231.12
398.93	1390.28
399.12	1289.64
399.32	1313.04
399.51	1291.98
399.70	1453.47
399.90	1406.66
400.09	1399.64
400.28	1467.52
400.47	1406.66
400.67	1401.98
400.86	1399.64
401.05	1432.41
401.24	1479.22
401.44	1486.24
401.63	1614.97
401.82	1596.25
402.01	1549.43
402.21	1474.54
402.40	1530.71
402.59	1504.96
402.78	1612.63
402.97	1614.97
403.17	1526.03
403.36	1596.25
403.55	1540.07
403.74	1645.40
403.93	1685.19
404.13	1647.74
404.32	1640.72
404.51	1586.88
404.70	1713.27
404.89	1694.55
405.09	1743.70
405.28	1809.23
405.47	1706.25
405.66	1795.19
405.85	1643.06
406.05	1783.49
406.24	1853.70
406.43	1879.45
406.62	1762.42
406.81	1865.41
407.00	1806.89
407.20	1783.49
407.39	1902.86
407.58	1928.60
407.77	1856.04
407.96	1785.83
408.15	1942.64
408.34	1879.45
408.54	1996.48
408.73	1851.36
408.92	2017.54
409.11	2057.33
409.30	1987.11
409.49	2057.33
409.68	2087.76
409.87	2106.48
410.07	2223.51
410.26	2047.97
410.45	2139.25
410.64	2087.76
410.83	2221.17
411.02	2237.55
411.21	2408.41
411.40	2429.48
411.59	2321.81
411.78	2394.37
411.98	2319.47
412.17	2377.98
412.36	2410.75
412.55	2382.67
412.74	2434.16
412.93	2480.97
413.12	2352.24
413.31	2518.42
413.50	2396.71
413.69	2548.84
413.88	2642.46
414.07	2581.61
414.26	2665.87
414.45	2579.27
414.64	2738.43
414.83	2630.76
415.02	2644.81
415.22	2836.73
415.41	2754.81
415.60	2766.51
415.79	2862.48
415.98	2715.02
416.17	2862.48
416.36	2834.39
416.55	2864.82
416.74	2928.01
416.93	2883.54
417.12	2904.60
417.31	2888.22
417.50	2942.05
417.69	3084.83
417.88	3066.10
418.07	3073.12
418.26	3047.38
418.45	3047.38
418.64	3199.51
418.83	3213.56
419.02	3143.34
419.21	3119.93
419.39	3218.24
419.58	3070.78
419.77	3297.81
419.96	3379.73
420.15	3265.05
420.34	3243.98
420.53	3421.86
420.72	3456.97
420.91	3335.26
421.10	3391.44
421.29	3463.99
421.48	3414.84
421.67	3412.50
421.86	3424.20
422.05	3459.31
422.24	3435.91
422.43	3426.54
422.61	3442.93
422.80	3620.81
422.99	3557.61
423.18	3487.40
423.37	3531.87
423.56	3473.36
423.75	3510.80
423.94	3419.52
424.13	3318.88
424.32	3445.27
424.50	3578.68
424.69	3716.77
424.88	3625.49
425.07	3613.79
425.26	3463.99
425.45	3499.10
425.64	3487.40
425.83	3562.30
426.01	3531.87
426.20	3613.79
426.39	3494.42
426.58	3674.64
426.77	3428.88
426.96	3609.11
427.15	3630.17
427.33	3723.79
427.52	3475.70
427.71	3721.45
427.90	3660.60
428.09	3889.97
428.28	3859.54
428.46	3756.56
428.65	3817.41
428.84	3829.12
429.03	3887.63
429.22	3695.71
429.40	3803.37
429.59	3822.09
429.78	3534.21
429.97	3606.77
430.16	3742.52
430.34	3772.94
430.53	3798.69
430.72	3810.39
430.91	3911.04
431.10	3957.85
431.28	4084.23
431.47	4124.02
431.66	4184.88
431.85	4030.40
432.03	4131.05
432.22	4210.62
432.41	4259.78
432.60	4278.50
432.79	4299.56
432.97	4322.97
433.16	4344.03
433.35	4264.46
433.54	4262.12
433.72	4217.65
433.91	4241.05
434.10	4189.56
434.28	4404.89
434.47	4477.44
434.66	4430.63
434.85	4409.57
435.03	4533.62
435.22	4337.01
435.41	4702.14
435.59	4655.33
435.78	4613.20
435.97	4674.05
436.16	4589.79
436.34	4599.15
436.53	4678.73
436.72	4713.84
436.90	4533.62
437.09	4688.09
437.28	4409.57
437.46	4634.26
437.65	4877.68
437.84	4910.44
438.02	4830.87
438.21	4699.80
438.40	4805.12
438.58	4812.14
438.77	4828.53
438.96	4903.42
439.14	4959.60
439.33	5041.51
439.52	4954.91
439.70	4997.04
439.89	5336.42
440.08	5093.01
440.26	5205.35
440.45	5130.45
440.63	5238.12
440.82	5378.55
441.01	5448.77
441.19	5446.43
441.38	5502.60
441.57	5558.77
441.75	5497.92
441.94	5603.24
442.12	5715.59
442.31	5626.65
442.50	5783.46
442.68	5731.97
442.87	5535.37
443.05	5837.30
443.24	5881.77
443.43	5776.44
443.61	5856.02
443.80	5942.62
443.98	5640.69
444.17	5603.24
444.35	5746.02
444.54	5881.77
444.73	5926.24
444.91	5856.02
445.10	5729.63
445.28	5902.83
445.47	5748.36
445.65	5923.90
445.84	5937.94
446.02	5940.28
446.21	5820.91
446.39	5928.58
446.58	6092.41
446.77	6134.54
446.95	5867.72
447.14	5921.56
447.32	6069.01
447.51	5879.43
447.69	6012.84
447.88	6015.18
448.06	6134.54
448.25	6071.35
448.43	6169.65
448.62	6045.60
448.80	5944.96
448.99	6097.10
449.17	6169.65
449.36	5998.79
449.54	6387.32
449.73	6314.77
449.91	6340.51
450.10	6235.19
450.28	6445.84
450.46	6410.73
450.65	6394.34
450.83	6509.03
451.02	6455.20
451.20	6333.49
451.39	6455.20
451.57	6502.01
451.76	6394.34
451.94	6560.52
452.13	6583.93
452.31	6399.02
452.49	6476.26
452.68	6595.63
452.86	6413.07
453.05	6530.09
453.23	6604.99
453.42	6677.55
453.60	6686.91
453.78	6686.91
453.97	6626.06
454.15	6668.19
454.34	6626.06
454.52	6729.04
454.70	6745.42
454.89	6675.21
455.07	6616.69
455.26	7112.89
455.44	6848.41
455.62	7021.61
455.81	6995.86
455.99	7140.97
456.17	7166.72
456.36	7012.24
456.54	7122.25
456.73	7169.06
456.91	7183.10
457.09	7047.35
457.28	7386.73
457.46	7342.26
457.64	7463.97
457.83	7332.90
458.01	7342.26
458.19	7389.07
458.38	7520.14
458.56	7459.29
458.74	7651.21
458.93	7620.78
459.11	7339.92
459.29	7438.22
459.48	7522.48
459.66	7375.03
459.84	7545.89
460.03	7681.64
460.21	7634.83
460.39	7667.60
460.57	7662.91
460.76	7779.94
460.94	7768.24
461.12	7882.92
461.31	7829.09
461.49	7850.16
461.67	7730.79
461.85	7859.52
462.04	7915.69
462.22	8021.02
462.40	7941.44
462.59	8189.53
462.77	8077.19
462.95	8154.43
463.13	8028.04
463.32	8224.64
463.50	8168.47
463.68	8112.30
463.86	7985.91
464.05	8100.59
464.23	8006.97
464.41	8215.28
464.59	8004.63
464.78	8381.46
464.96	8208.26
465.14	8166.13
465.32	8379.12
465.50	8304.22
465.69	8493.80
465.87	8465.72
466.05	8332.31
466.23	8128.68
466.41	8327.63
466.60	8388.48
466.78	8287.84
466.96	8564.02
467.14	8320.60
467.32	8395.50
467.51	8652.96
467.69	8234.00
467.87	8643.60
468.05	8606.15
468.23	8507.85
468.41	8430.61
468.60	8507.85
468.78	8826.16
468.96	8814.46
469.14	8746.58
469.32	9039.15
469.50	8638.92
469.69	8784.03
469.87	8779.35
470.05	8784.03
470.23	8982.98
470.41	8856.59
470.59	9111.71
470.77	8959.57
470.95	9146.81
471.14	9317.67
471.32	9132.77
471.50	9430.02
471.68	9291.93
471.86	9312.99
472.04	9322.35
472.22	9544.70
472.40	9224.05
472.58	9434.70
472.77	9518.96
472.95	9547.05
473.13	9947.28
473.31	9563.43
473.49	9493.21
473.67	9647.69
473.85	9586.83
474.03	9937.91
474.21	10033.88
474.39	10148.56
474.57	10230.48
474.75	9834.93
474.93	10129.84
475.12	10216.44
475.30	10076.01
475.48	10235.16
475.66	10303.04
475.84	10377.94
476.02	10321.76
476.20	10434.11
476.38	10485.60
476.56	10995.84
476.74	10707.95
476.92	10768.80
477.10	10743.06
477.28	11098.82
477.46	11000.52
477.64	11040.31
477.82	11197.12
478.00	11445.22
478.18	11499.05
478.36	11688.64
478.54	11580.97
478.72	11637.14
478.90	11808.00
479.08	12018.65
479.26	12063.12
479.44	11976.52
479.62	11983.54
479.80	12177.81
479.98	11983.54
480.16	12166.10
480.34	12243.34
480.52	12451.65
480.70	12737.20
480.88	12374.41
481.06	12606.13
481.24	12575.70
481.41	13006.36
481.59	13212.32
481.77	13219.35
481.95	13067.21
482.13	13373.82
482.31	13142.11
482.49	13832.57
482.67	13809.16
482.85	13891.08
483.03	14183.65
483.21	13804.48
483.39	14015.13
483.57	14022.15
483.74	14267.91
483.92	14207.05
484.10	14036.19
484.28	14445.79
484.46	14761.76
484.64	14960.70
484.82	14518.34
485.00	15101.14
485.18	15126.88
485.35	15428.81
485.53	14857.72
485.71	15211.14
485.89	15527.11
486.07	15255.61
486.25	15346.89
486.43	15674.57
486.61	15688.61
486.78	15971.82
486.96	15878.19
487.14	16168.42
487.32	16545.25
487.50	16554.61
487.68	16723.13
487.85	16908.03
488.03	16943.14
488.21	17205.28
488.39	17085.91
488.57	17062.51
488.75	17247.41
488.92	17291.88
489.10	17633.60
489.28	17750.62
489.46	17755.30
489.64	18164.90
489.81	18452.78
489.99	18420.02
490.17	18808.54
490.35	18583.85
490.53	18567.47
490.70	18831.95
490.88	18740.67
491.06	18967.70
491.24	19051.96
491.41	19192.39
491.59	18974.72
491.77	19131.54
491.95	19391.34
492.13	19763.48
492.30	19936.68
492.48	19957.75
492.66	20088.82
492.84	19800.93
493.01	20414.15
493.19	20435.22
493.37	20577.99
493.54	21008.65
493.72	20886.94
493.90	20685.65
494.08	21322.28
494.25	21305.90
494.43	21453.35
494.61	21329.30
494.79	21462.71
494.96	21689.74
495.14	21762.30
495.32	21830.18
495.49	21778.68
495.67	22134.45
495.85	22118.06
496.02	22436.38
496.20	22104.02
496.38	22628.30
496.55	22689.15
496.73	23019.17
496.91	22532.34
497.09	22970.02
497.26	23351.52
497.44	23403.02
497.62	23091.73
497.79	23498.98
497.97	23566.85
498.14	23730.69
498.32	23477.91
498.50	23728.35
498.67	24142.63
498.85	24189.44
499.03	24374.34
499.20	24329.87
499.38	23960.06
499.56	24147.31
499.73	24615.41
499.91	24346.25
500.08	24870.53
500.26	24322.85
500.44	24673.93
500.61	24795.64
500.79	24517.11
500.97	24877.55
501.14	24957.13
501.32	25130.33
501.49	24996.92
501.67	25191.19
501.84	25245.02
502.02	25619.50
502.20	25465.03
502.37	25891.01
502.55	25862.92
502.72	25539.93
502.90	26094.63
503.07	25930.80
503.25	26274.85
503.43	25699.08
503.60	26312.30
503.78	26466.78
503.95	26529.97
504.13	26532.31
504.30	26544.02
504.48	26642.32
504.65	26759.34
504.83	27033.19
505.01	27077.66
505.18	27300.01
505.36	27044.89
505.53	27173.62
505.71	27461.51
505.88	27468.53
506.06	27082.34
506.23	27646.41
506.41	27410.01
506.58	27878.12
506.76	27866.42
506.93	27805.56
507.11	27901.53
507.28	27683.86
507.46	27896.85
507.63	28105.15
507.81	28166.01
507.98	28081.75
508.16	28196.43
508.33	28444.53
508.50	28170.69
508.68	28826.04
508.85	28673.90
509.03	28723.05
509.20	28655.18
509.38	28870.51
509.55	28971.15
509.73	28954.77
509.90	28989.88
510.08	29336.27
510.25	29252.02
510.42	29261.38
510.60	29261.38
510.77	29593.73
510.95	29771.61
511.12	29560.97
511.30	29972.90
511.47	30331.00
511.64	30298.23
511.82	30082.91
511.99	30080.56
512.17	30403.56
512.34	30277.17
512.51	30415.26
512.69	30394.20
512.86	30323.98
513.04	31117.42
513.21	30792.09
513.38	30581.44
513.56	30583.78
513.73	30703.15
513.90	30841.24
514.08	30995.71
514.25	30979.33
514.43	31051.89
514.60	31349.14
514.77	31454.46
514.95	31414.67
515.12	31470.84
515.29	31608.93
515.47	31711.92
515.64	31580.85
515.81	31363.18
515.99	31604.25
516.16	32004.49
516.33	31534.04
516.51	31573.83
516.68	31414.67
516.85	31351.48
517.03	31777.45
517.20	32196.41
517.37	32257.26
517.54	32180.03
517.72	32290.03
517.89	32063.00
518.06	32357.91
518.24	31901.50
518.41	32582.60
518.58	32849.42
518.75	32294.71
518.93	32634.09
519.10	32608.34
519.27	32797.93
519.45	32673.88
519.62	33111.56
519.79	33144.33
519.96	33305.82
520.14	33666.27
520.31	33315.19
520.48	33357.32
520.65	33010.92
520.83	33673.29
521.00	33926.07
521.17	33633.50
521.34	34162.46
521.52	33792.65
521.69	34106.29
521.86	33837.12
522.03	33701.37
522.20	33956.49
522.38	34099.26
522.55	34162.46
522.72	34089.90
522.89	34246.72
523.07	34780.36
523.24	34426.94
523.41	34632.91
523.58	34167.14
523.75	34754.61
523.92	34881.00
524.10	35239.11
524.27	34976.97
524.44	34738.23
524.61	35435.71
524.78	35093.99
524.96	35431.03
525.13	35531.67
525.30	35339.75
525.47	35438.05
525.64	35367.84
525.81	35285.92
525.98	35512.95
526.16	35274.21
526.33	35346.77
526.50	35365.49
526.67	35576.14
526.84	35487.20
527.01	35105.70
527.18	35489.54
527.36	36203.41
527.53	35885.09
527.70	36198.73
527.87	36400.01
528.04	35831.26
528.21	36474.91
528.38	36325.11
528.55	36594.28
528.72	36299.37
528.89	36671.51
529.07	36360.22
529.24	36053.61
529.41	36170.64
529.58	36477.25
529.75	36187.02
529.92	36847.05
530.09	36690.24
530.26	36669.17
530.43	36982.80
530.60	36753.43
530.77	36886.84
530.94	37294.10
531.11	37027.28
531.28	37177.07
531.46	37406.44
531.63	37214.52
531.80	37081.11
531.97	37071.75
532.14	37132.60
532.31	37184.09
532.48	37277.71
532.65	37736.46
532.82	37504.74
532.99	37507.08
533.16	37649.86
533.33	37567.94
533.50	38096.90
533.67	37778.59
533.84	37633.47
534.01	37694.33
534.18	37771.57
534.35	38237.33
534.52	38024.34
534.69	38190.52
534.86	37895.61
535.03	37855.82
535.20	38279.46
535.37	38616.50
535.54	38721.82
535.71	38745.23
535.88	38534.58
536.05	38204.56
536.22	38672.67
536.38	38948.85
536.55	38375.42
536.72	38211.59
536.89	38284.14
537.06	38534.58
537.23	38534.58
537.40	38534.58
537.57	38703.10
537.74	38597.77
537.91	39423.98
538.08	39098.65
538.25	38370.74
538.42	38639.90
538.59	39325.68
538.75	38628.20
538.92	39129.08
539.09	39325.68
539.26	39150.14
539.43	39138.44
539.60	39482.50
539.77	39122.05
539.94	39290.57
540.11	39232.06
540.28	39735.27
540.44	39255.46
540.61	39405.26
540.78	39545.69
540.95	39388.88
541.12	39339.72
541.29	39667.40
541.46	39536.33
541.62	39587.82
541.79	40002.10
541.96	39552.71
542.13	39414.62
542.30	39613.57
542.47	39976.35
542.63	40212.74
542.80	40201.04
542.97	40751.07
543.14	40907.88
543.31	40577.87
543.48	40343.81
543.64	40921.93
543.81	40832.99
543.98	41034.27
544.15	40671.49
544.32	40999.16
544.48	40975.76
544.65	40533.40
544.82	40910.22
544.99	40259.55
545.16	40982.78
545.32	40886.82
545.49	41053.00
545.66	41186.41
545.83	40870.43
546.00	41654.51
546.16	41165.34
546.33	40942.99
546.50	40687.87
546.67	41146.62
546.83	41179.39
547.00	41486.00
547.17	41200.45
547.34	41020.23
547.50	41280.03
547.67	41830.05
547.84	42075.81
548.00	41605.36
548.17	41696.64
548.34	41542.17
548.51	41879.21
548.67	41841.76
548.84	41998.57
549.01	41390.03
549.18	41663.88
549.34	41736.43
549.51	41574.94
549.68	41689.62
549.84	41736.43
550.01	42052.41
550.18	41769.20
550.34	42036.02
550.51	42029.00
550.68	41986.87
550.84	41453.23
551.01	42026.66
551.18	41907.29
551.34	42157.73
551.51	41949.42
551.68	42204.54
551.84	42139.00
552.01	41858.14
552.18	42136.66
552.34	42223.26
552.51	42146.03
552.68	42000.91
552.84	42674.99
553.01	42370.72
553.18	41792.61
553.34	42534.56
553.51	42160.07
553.67	42274.76
553.84	42471.36
554.01	42787.33
554.17	42960.53
554.34	42789.67
554.51	42714.78
554.67	42862.23
554.84	42810.74
555.00	42511.15
555.17	42279.44
555.33	42801.38
555.50	42356.67
555.67	42492.43
555.83	42529.87
556.00	42677.33
556.16	43049.47
556.33	43264.80
556.50	42768.61
556.66	42969.90
556.83	42789.67
556.99	43145.44
557.16	43171.18
557.32	42937.13
557.49	43349.06
557.65	43185.22
557.82	43040.11
557.98	43274.16
558.15	43316.29
558.32	43152.46
558.48	42539.24
558.65	42733.50
558.81	43098.62
558.98	42883.30
559.14	43323.32
559.31	43281.19
559.47	43636.95
559.64	43690.78
559.80	43498.86
559.97	43180.54
560.13	43206.29
560.30	42747.54
560.46	43751.63
560.63	43508.22
560.79	43615.88
560.96	43917.81
561.12	43632.27
561.29	43264.80
561.45	43187.56
561.61	43337.36
561.78	43587.80
561.94	43246.08
562.11	43665.03
562.27	43491.83
562.44	43690.78
562.60	43646.31
562.77	43676.74
562.93	43246.08
563.10	44088.67
563.26	42904.36
563.42	43599.50
563.59	43873.34
563.75	43737.59
563.92	43856.96
564.08	44076.97
564.24	44121.44
564.41	44081.65
564.57	43466.09
564.74	43896.75
564.90	43936.54
565.07	43786.74
565.23	43484.81
565.39	43662.69
565.56	43833.55
565.72	43571.41
565.88	44144.84
566.05	43676.74
566.21	44378.90
566.38	43892.07
566.54	43423.96
566.70	44271.23
566.87	44683.17
567.03	43973.98
567.19	44205.70
567.36	44388.26
567.52	43997.39
567.68	44313.36
567.85	44308.68
568.01	44135.48
568.17	44236.12
568.34	44051.22
568.50	43985.69
568.66	43709.50
568.83	44357.83
568.99	43419.28
569.15	44044.20
569.32	43885.04
569.48	43868.66
569.64	44470.18
569.81	44659.76
569.97	44346.13
570.13	44449.11
570.30	43887.39
570.46	43997.39
570.62	43878.02
570.78	43761.00
570.95	43828.87
571.11	44622.31
571.27	43770.36
571.43	44304.00
571.60	43948.24
571.76	44161.23
571.92	44341.45
572.09	44425.71
572.25	43704.82
572.41	44189.31
572.57	44236.12
572.74	44385.92
572.90	43896.75
573.06	44086.33
573.22	44217.40
573.38	44332.09
573.55	43983.35
573.71	44678.49
573.87	44212.72
574.03	44275.91
574.20	44065.27
574.36	44238.47
574.52	44053.56
574.68	44128.46
574.84	44343.79
575.01	44451.45
575.17	44477.20
575.33	44051.22
575.49	44678.49
575.65	44299.32
575.82	44360.17
575.98	44261.87
576.14	44737.00
576.30	44814.24
576.46	44172.93
576.62	44238.47
576.79	43917.81
576.95	44208.04
577.11	44219.74
577.27	44655.08
577.43	44514.65
577.59	44308.68
577.75	44346.13
577.92	43714.19
578.08	44126.12
578.24	44041.86
578.40	44285.28
578.56	44261.87
578.72	44231.44
578.88	45067.02
579.04	44446.77
579.21	44477.20
579.37	44046.54
579.53	44641.04
579.69	44563.80
579.85	44435.07
580.01	44959.35
580.17	44294.64
580.33	44538.05
580.49	44718.28
580.65	44411.67
580.82	44687.85
580.98	44154.21
581.14	44563.80
581.30	44854.03
581.46	44261.87
581.62	44229.10
581.78	44509.97
581.94	44542.74
582.10	44488.90
582.26	44985.10
582.42	44343.79
582.58	44477.20
582.74	44247.83
582.90	44435.07
583.06	44465.50
583.22	44746.36
583.38	44605.93
583.54	45317.45
583.70	44982.76
583.86	44509.97
584.02	44603.59
584.18	44570.82
584.34	44666.78
584.50	44313.36
584.66	44470.18
584.82	44280.60
584.98	45008.50
585.14	44629.34
585.30	44725.30
585.46	44184.63
585.62	44369.54
585.78	44722.96
585.94	44484.22
586.10	44163.57
586.26	44737.00
586.42	44648.06
586.58	44704.23
586.74	44744.02
586.90	44928.92
587.06	44861.05
587.22	45151.27
587.38	44210.38
587.54	44481.88
587.70	44938.29
587.86	44919.56
588.02	44882.11
588.18	44746.36
588.34	44898.50
588.49	44095.69
588.65	44119.10
588.81	44325.07
588.97	44526.35
589.13	44556.78
589.29	44301.66
589.45	44797.85
589.61	44435.07
589.77	44816.58
589.93	44898.50
590.08	45345.54
590.24	44898.50
590.40	44875.09
590.56	44828.28
590.72	45055.31
590.88	44921.90
591.04	44608.27
591.20	45258.94
591.35	44765.09
591.51	44994.46
591.67	45003.82
591.83	44486.56
591.99	45329.16
592.15	44790.83
592.31	44851.69
592.46	44713.59
592.62	44692.53
592.78	44851.69
592.94	44727.64
593.10	44800.19
593.26	45181.70
593.41	44905.52
593.57	44940.63
593.73	44839.98
593.89	44449.11
594.05	44919.56
594.20	45158.30
594.36	45059.99
594.52	44945.31
594.68	44919.56
594.84	44781.47
594.99	45193.40
595.15	44889.13
595.31	45027.23
595.47	44832.96
595.62	45408.73
595.78	44938.29
595.94	45230.85
596.10	45081.06
596.25	44928.92
596.41	45310.43
596.57	44856.37
596.73	45272.98
596.88	44589.55
597.04	45003.82
597.20	44769.77
597.36	44868.07
597.51	45385.33
597.67	45600.66
597.83	45162.98
597.99	45022.54
598.14	45160.64
598.30	45095.10
598.46	44732.32
598.61	45226.17
598.77	44825.94
598.93	44699.55
599.09	44856.37
599.24	45567.89
599.40	45317.45
599.56	45064.67
599.71	44935.95
599.87	44954.67
600.03	45146.59
600.18	45249.58
600.34	45298.73
600.50	44669.12
600.65	44465.50
600.81	45041.27
600.97	45338.52
601.12	45141.91
601.28	45265.96
601.44	44961.69
601.59	44987.44
601.75	44779.13
601.91	44687.85
602.06	44793.17
602.22	44996.80
602.37	45038.93
602.53	45247.24
602.69	44975.73
602.84	45062.33
603.00	44779.13
603.16	44992.12
603.31	44985.10
603.47	44947.65
603.62	44725.30
603.78	45294.05
603.94	44699.55
604.09	45462.57
604.25	44828.28
604.40	45170.00
604.56	45146.59
604.71	44727.64
604.87	44704.23
605.03	44849.35
605.18	44713.59
605.34	44603.59
605.49	44519.33
605.65	45097.44
605.80	44788.49
605.96	45326.81
606.12	44776.79
606.27	45345.54
606.43	44809.56
606.58	44559.12
606.74	44790.83
606.89	44982.76
607.05	44311.02
607.20	44835.30
607.36	44781.47
607.51	44491.24
607.67	44460.82
607.82	44823.60
607.98	44814.24
608.13	44769.77
608.29	44814.24
608.44	44329.75
608.60	44425.71
608.75	44566.14
608.91	44062.93
609.06	44304.00
609.22	44708.91
609.37	44411.67
609.53	44774.45
609.68	44484.22
609.84	44502.95
609.99	44261.87
610.15	44367.20
610.30	44659.76
610.46	43908.45
610.61	44196.34
610.76	44093.35
610.92	45184.04
611.07	44318.04
611.23	44196.34
611.38	44287.62
611.54	44591.89
611.69	44729.98
611.84	43835.89
612.00	44257.19
612.15	43871.00
612.31	43962.28
612.46	44325.07
612.62	43957.60
612.77	43863.98
612.92	44322.72
613.08	43976.33
613.23	44428.05
613.39	44079.31
613.54	43828.87
613.69	44175.27
613.85	43746.95
614.00	44006.75
614.15	44009.09
614.31	44135.48
614.46	44643.38
614.62	44105.06
614.77	43971.64
614.92	43917.81
615.08	44130.80
615.23	43100.97
615.38	43517.58
615.54	43468.43
615.69	43548.01
615.84	43810.15
616.00	43679.08
616.15	43709.50
616.30	43955.26
616.46	43505.88
616.61	43615.88
616.76	43239.06
616.92	43140.75
617.07	43440.34
617.22	43824.19
617.37	43089.26
617.53	43964.62
617.68	43562.05
617.83	43648.65
617.99	43257.78
618.14	43349.06
618.29	43676.74
618.45	43601.84
618.60	43234.38
618.75	43098.62
618.90	43328.00
619.06	43543.33
619.21	43690.78
619.36	43772.70
619.51	43559.71
619.67	43107.99
619.82	43435.66
619.97	43672.06
620.12	43356.08
620.28	42824.78
620.43	43152.46
620.58	43320.98
620.73	42749.88
620.89	43009.68
621.04	43077.56
621.19	42904.36
621.34	43180.54
621.49	42562.64
621.65	42637.54
621.80	43040.11
621.95	42717.12
622.10	42934.79
622.25	42223.26
622.41	42731.16
622.56	42396.46
622.71	43084.58
622.86	42845.85
623.01	42887.98
623.16	42983.94
623.32	42192.84
623.47	42586.05
623.62	42609.45
623.77	42602.43
623.92	42237.31
624.07	42295.82
624.23	42557.96
624.38	42450.30
624.53	42134.32
624.68	42344.97
624.83	42637.54
624.98	42349.65
625.13	42312.20
625.29	42483.06
625.44	42363.70
625.59	41668.56
625.74	41851.12
625.89	41846.44
626.04	41567.91
626.19	41703.67
626.34	42136.66
626.49	42122.62
626.65	42103.90
626.80	42337.95
626.95	42171.77
627.10	42050.06
627.25	41757.50
627.40	41710.69
627.55	41373.65
627.70	41434.50
627.85	41546.85
628.00	41563.23
628.15	41764.52
628.30	41427.48
628.45	42073.47
628.60	41509.40
628.76	41621.75
628.91	41769.20
629.06	41511.74
629.21	41551.53
629.36	41464.93
629.51	41762.18
629.66	41130.23
629.81	41698.98
629.96	41439.18
630.11	41478.97
630.26	41338.54
630.41	41937.72
630.56	41776.22
630.71	41556.21
630.86	41151.30
631.01	41008.53
631.16	41111.51
631.31	40924.27
631.46	41062.36
631.61	40872.78
631.76	40910.22
631.91	41322.16
632.06	41277.69
632.21	41432.16
632.36	41354.93
632.51	40800.22
632.66	40744.05
632.81	40470.20
632.96	40535.74
633.10	40718.30
633.25	40737.02
633.40	40835.33
633.55	41167.68
633.70	40795.54
633.85	40392.97
634.00	40673.83
634.15	40837.67
634.30	41020.23
634.45	40573.19
634.60	40301.68
634.75	40514.67
634.90	40755.75
635.05	40095.72
635.19	40360.20
635.34	40978.10
635.49	40737.02
635.64	40495.95
635.79	40282.96
635.94	40062.95
636.09	40472.54
636.24	40243.17
636.39	40219.77
636.53	40093.38
636.68	40357.86
636.83	40292.32
636.98	40254.87
637.13	40147.21
637.28	40081.67
637.43	40210.40
637.57	40402.33
637.72	40107.42
637.87	40423.39
638.02	39828.90
638.17	40329.77
638.32	39910.82
638.46	40109.76
638.61	40044.23
638.76	40072.31
638.91	40121.46
639.06	39803.15
639.20	39688.46
639.35	39805.49
639.50	39674.42
639.65	39908.47
639.80	40105.08
639.94	39419.30
640.09	39576.12
640.24	39541.01
640.39	39260.15
640.54	39583.14
640.68	39763.36
640.83	39571.44
640.98	39419.30
641.13	39213.34
641.27	39793.79
641.42	39622.93
641.57	39515.26
641.72	39098.65
641.86	39140.78
642.01	38780.34
642.16	38927.79
642.31	38906.73
642.45	39526.97
642.60	39159.50
642.75	39164.18
642.90	39051.84
643.04	39112.69
643.19	38799.06
643.34	39431.01
643.48	38773.31
643.63	39023.75
643.78	39182.91
643.93	38829.49
644.07	38675.01
644.22	38628.20
644.37	38506.49
644.51	38803.74
644.66	38770.97
644.81	38866.94
644.95	39288.23
645.10	38611.82
645.25	39070.56
645.39	39154.82
645.54	39342.06
645.69	38684.37
645.83	38525.22
645.98	39257.81
646.13	38766.29
646.27	38745.23
646.42	39056.52
646.57	38672.67
646.71	38778.00
646.86	38675.01
647.00	39192.27
647.15	39159.50
647.30	38398.83
647.44	38349.68
647.59	38501.81
647.74	38218.61
647.88	38150.73
648.03	38595.43
648.17	38340.32
648.32	38204.56
648.47	38663.31
648.61	37596.03
648.76	39007.37
648.90	38337.98
649.05	38082.86
649.20	38146.05
649.34	38136.69
649.49	38204.56
649.63	37961.15
649.78	38108.60
649.92	37928.38
650.07	38302.87
650.21	37411.12
650.36	37816.04
650.51	37792.63
650.65	38169.46
650.80	38256.06
650.94	38122.65
651.09	37771.57
651.23	38181.16
651.38	38204.56
651.52	37771.57
651.67	37689.65
651.81	37579.64
651.96	38045.41
652.10	37827.74
652.25	37422.83
652.39	37366.65
652.54	37792.63
652.68	37572.62
652.83	37919.02
652.97	37579.64
653.12	37977.53
653.26	37570.28
653.41	37605.39
653.55	37284.73
653.70	36893.86
653.84	37399.42
653.99	37614.75
654.13	37413.46
654.27	37242.60
654.42	37301.12
654.56	37212.18
654.71	37368.99
654.85	37280.05
655.00	37387.72
655.14	37151.32
655.29	37153.66
655.43	36982.80
655.57	36636.41
655.72	36582.57
655.86	36769.82
656.01	36746.41
656.15	36671.51
656.30	36500.65
656.44	37010.89
656.58	36521.72
656.73	36531.08
656.87	36886.84
657.01	36416.40
657.16	36690.24
657.30	36547.47
657.45	36217.45
657.59	36685.56
657.73	36610.66
657.88	36807.26
658.02	36545.12
658.16	36634.06
658.31	37060.04
658.45	36706.62
658.60	36432.78
658.74	36067.66
658.88	36573.21
659.03	36458.52
659.17	35849.99
659.31	36350.86
659.46	36030.21
659.60	36620.02
659.74	36285.33
659.89	35864.03
660.03	36039.57
660.17	36229.15
660.32	36041.91
660.46	35955.31
660.60	36163.62
660.74	36261.92
660.89	35922.54
661.03	35405.28
661.17	35552.74
661.32	35068.25
661.46	35473.16
661.60	35655.72
661.74	35510.61
661.89	35440.39
662.03	35608.91
662.17	35622.95
662.31	35005.05
662.46	35267.19
662.60	35494.22
662.74	35503.59
662.88	34988.67
663.03	35051.86
663.17	34820.15
663.31	34731.21
663.45	34817.81
663.60	35119.74
663.74	34698.44
663.88	34944.20
664.02	34595.46
664.17	34939.52
664.31	34660.99
664.45	34822.49
664.59	34412.90
664.73	34185.86
664.88	34616.52
665.02	34190.55
665.16	34230.33
665.30	34258.42
665.44	34380.13
665.59	34192.89
665.73	33881.60
665.87	34101.61
666.01	33993.94
666.15	33975.22
666.29	34213.95
666.44	34263.10
666.58	33783.29
666.72	33844.15
666.86	33907.34
667.00	33961.17
667.14	33895.64
667.28	33638.18
667.43	33673.29
667.57	33914.36
667.71	33167.73
667.85	33502.43
667.99	33326.89
668.13	32790.91
668.27	33287.10
668.41	33734.14
668.56	33462.64
668.70	33455.62
668.84	33118.58
668.98	32788.56
669.12	32463.23
669.26	32470.25
669.40	32421.10
669.54	32430.46
669.68	32788.56
669.82	32313.44
669.96	32624.73
670.10	32793.25
670.25	32889.21
670.39	32854.10
670.53	32575.58
670.67	32032.57
670.81	32306.41
670.95	32161.30
671.09	32294.71
671.23	32257.26
671.37	32196.41
671.51	31824.26
671.65	31906.18
671.79	31878.10
671.93	31648.72
672.07	31906.18
672.21	32210.45
672.35	31456.80
672.49	31641.70
672.63	31777.45
672.77	31585.53
672.91	31555.10
673.05	31218.07
673.19	30675.06
673.33	31248.49
673.47	31267.22
673.61	31072.95
673.75	30754.64
673.89	30813.15
674.03	30443.35
674.17	30684.42
674.31	30670.38
674.45	30878.69
674.59	30883.37
674.73	30857.62
674.87	30607.19
675.01	30473.78
675.15	30595.48
675.29	30576.76
675.43	30202.27
675.56	30331.00
675.70	29900.34
675.84	29982.26
675.98	29125.63
676.12	29876.94
676.26	29771.61
676.40	29727.14
676.54	29788.00
676.68	29701.40
676.82	29120.95
676.96	29247.33
677.10	29216.91
677.23	29790.34
677.37	29446.28
677.51	28931.36
677.65	28858.81
677.79	28638.80
677.93	28624.75
678.07	28453.89
678.21	28472.62
678.34	28254.95
678.48	28243.24
678.62	28079.41
678.76	28156.64
678.90	27803.22
679.04	28084.09
679.18	27901.53
679.31	28002.17
679.45	27501.29
679.59	27222.77
679.73	27538.74
679.87	27173.62
680.00	27578.53
680.14	27339.80
680.28	27536.40
680.42	27096.38
680.56	27370.22
680.70	27051.91
680.83	27140.85
680.97	27065.96
681.11	26955.95
681.25	26864.67
681.39	26401.24
681.52	26815.52
681.66	26593.17
681.80	26459.76
681.94	26249.11
682.07	25928.45
682.21	26185.91
682.35	26127.40
682.49	25991.65
682.62	26050.16
682.76	26125.06
682.90	25876.96
683.04	25586.74
683.17	25404.17
683.31	25326.94
683.45	25261.40
683.59	25198.21
683.72	24982.88
683.86	24978.20
684.00	25015.65
684.13	24814.36
684.27	24383.70
684.41	24692.65
684.55	24741.80
684.68	24737.12
684.82	24570.94
684.96	24507.75
685.09	24437.53
685.23	24467.96
685.37	24304.12
685.50	24421.15
685.64	24194.12
685.78	24336.89
685.91	24198.80
686.05	23686.22
686.19	23749.42
686.32	23590.26
686.46	22902.14
686.60	23161.94
686.73	23285.99
686.87	23178.33
687.01	22970.02
687.14	22860.01
687.28	22960.66
687.42	23103.43
687.55	23070.66
687.69	23171.30
687.82	22817.88
687.96	22607.23
688.10	22522.98
688.23	22394.25
688.37	22361.48
688.50	21944.86
688.64	22438.72
688.78	22225.73
688.91	22164.87
689.05	22347.44
689.18	21862.94
689.32	21706.13
689.46	21633.57
689.59	21958.91
689.73	21652.30
689.86	21961.25
690.00	21724.85
690.13	21259.09
690.27	21392.50
690.41	21125.68
690.54	21092.91
690.68	21036.74
690.81	20711.40
690.95	20716.08
691.08	20999.29
691.22	21010.99
691.35	20844.81
691.49	20875.24
691.62	20865.88
691.76	20566.29
691.89	20409.47
692.03	20112.22
692.16	20500.75
692.30	20187.12
692.43	19981.15
692.57	19807.95
692.70	20079.46
692.84	19700.29
692.97	19932.00
693.11	19814.98
693.24	19419.42
693.38	19473.26
693.51	19506.02
693.65	19545.81
693.78	19688.59
693.92	19447.51
694.05	19283.67
694.19	19012.17
694.32	19047.28
694.45	18813.23
694.59	18733.65
694.72	18487.89
694.86	18724.29
694.99	18752.37
695.13	18539.38
695.26	18412.99
695.39	18232.77
695.53	18361.50
695.66	18506.62
695.80	18237.45
695.93	18050.21
696.07	18038.51
696.20	18319.37
696.33	17652.32
696.47	17923.82
696.60	17820.84
696.73	17551.68
696.87	17575.08
697.00	17668.70
697.14	17472.10
697.27	17345.71
697.40	17479.12
697.54	17322.30
697.67	17476.78
697.80	17015.69
697.94	17032.08
698.07	17200.60
698.21	16666.95
698.34	16767.60
698.47	16877.60
698.61	16645.89
698.74	16306.51
698.87	16226.93
699.01	16147.36
699.14	15988.20
699.27	16027.99
699.40	16112.25
699.54	15985.86
699.67	15974.16
699.80	15915.64
699.94	15950.75
700.07	16065.44
700.20	15843.09
700.34	15784.57
700.47	15765.85
700.60	15730.74
700.73	15658.18
700.87	15592.65
701.00	15360.94
701.13	15501.37
701.26	15307.10
701.40	15274.34
701.53	14869.42
701.66	15056.67
701.79	14913.89
701.93	14958.36
702.06	14670.48
702.19	14370.89
702.32	14740.69
702.46	14668.14
702.59	14726.65
702.72	14478.55
702.85	14590.90
702.99	14401.32
703.12	14476.21
703.25	14005.77
703.38	14148.54
703.51	14008.11
703.65	14153.22
703.78	14085.34
703.91	14160.24
704.04	13771.71
704.17	13961.30
704.31	13783.41
704.44	13729.58
704.57	13837.25
704.70	13479.15
704.83	13729.58
704.96	13631.28
705.10	13486.17
705.23	13806.82
>>>>>End Processed Spectral Data<<<<<
