SpectraSuite Data File
++++++++++++++++++++++++++++++++++++
Date: Fri Oct 25 10:43:27 EDT 2013
User: price-jones
Dark Spectrum Present: No
Reference Spectrum Present: No
Number of Sampled Component Spectra: 1
Spectrometers: USB2+H05261
Integration Time (usec): 100000 (USB2+H05261)
Spectra Averaged: 1 (USB2+H05261)
Boxcar Smoothing: 0 (USB2+H05261)
Correct for Electrical Dark: No (USB2+H05261)
Strobe/Lamp Enabled: No (USB2+H05261)
Correct for Detector Non-linearity: No (USB2+H05261)
Correct for Stray Light: No (USB2+H05261)
Number of Pixels in Processed Spectrum: 2048
>>>>>Begin Processed Spectral Data<<<<<
365.73	93.62
365.92	93.62
366.12	93.62
366.32	72.56
366.52	51.49
366.72	72.56
366.91	25.75
367.11	39.79
367.31	0.00
367.51	84.26
367.70	53.83
367.90	0.00
368.10	25.75
368.30	0.00
368.49	18.72
368.69	14.04
368.89	16.38
369.09	0.00
369.28	51.49
369.48	77.24
369.68	117.03
369.87	117.03
370.07	86.60
370.27	152.13
370.47	105.32
370.66	381.51
370.86	447.04
371.06	451.72
371.25	498.53
371.45	456.40
371.65	510.24
371.84	498.53
372.04	435.34
372.24	463.43
372.44	454.06
372.63	465.77
372.83	451.72
373.03	472.79
373.22	484.49
373.42	510.24
373.62	528.96
373.81	566.41
374.01	594.50
374.21	608.54
374.40	557.05
374.60	535.98
374.79	489.17
374.99	557.05
375.19	568.75
375.38	578.11
375.58	573.43
375.78	594.50
375.97	634.29
376.17	594.50
376.37	547.69
376.56	599.18
376.76	564.07
376.95	622.58
377.15	627.26
377.35	610.88
377.54	634.29
377.74	606.20
377.93	667.05
378.13	648.33
378.33	678.76
378.52	615.56
378.72	683.44
378.91	641.31
379.11	615.56
379.31	709.18
379.50	676.41
379.70	741.95
379.89	702.16
380.09	699.82
380.28	699.82
380.48	575.77
380.68	585.13
380.87	746.63
381.07	676.41
381.26	737.27
381.46	594.50
381.65	744.29
381.85	755.99
382.04	667.05
382.24	734.93
382.43	692.80
382.63	610.88
382.83	678.76
383.02	748.97
383.22	755.99
383.41	643.65
383.61	697.48
383.80	718.54
384.00	718.54
384.19	821.53
384.39	786.42
384.58	681.10
384.78	816.85
384.97	798.12
385.17	830.89
385.36	758.33
385.56	807.48
385.75	837.91
385.95	774.72
386.14	812.17
386.34	809.83
386.53	891.74
386.72	870.68
386.92	903.45
387.11	823.87
387.31	889.40
387.50	856.64
387.70	959.62
387.89	809.83
388.09	814.51
388.28	854.30
388.48	908.13
388.67	924.51
388.86	931.53
389.06	828.55
389.25	964.30
389.45	980.68
389.64	922.17
389.84	997.07
390.03	1025.15
390.22	1050.90
390.42	994.73
390.61	1029.84
390.81	1020.47
391.00	994.73
391.19	1116.44
391.39	1001.75
391.58	978.34
391.78	997.07
391.97	1060.26
392.16	947.92
392.36	1036.86
392.55	994.73
392.75	987.71
392.94	992.39
393.13	1088.35
393.33	983.02
393.52	1083.67
393.71	1093.03
393.91	1118.78
394.10	1130.48
394.29	1123.46
394.49	1114.10
394.68	1205.38
394.88	1102.39
395.07	1228.78
395.26	1252.19
395.46	1303.68
395.65	1160.91
395.84	1245.16
396.04	1240.48
396.23	1142.18
396.42	1116.44
396.62	1177.29
396.81	1174.95
397.00	1174.95
397.19	1156.22
397.39	1270.91
397.58	1352.83
397.77	1301.34
397.97	1352.83
398.16	1502.62
398.35	1451.13
398.55	1380.92
398.74	1357.51
398.93	1432.41
399.12	1458.15
399.32	1465.18
399.51	1394.96
399.70	1568.16
399.90	1547.09
400.09	1488.58
400.28	1607.95
400.47	1455.81
400.67	1535.39
400.86	1612.63
401.05	1792.85
401.24	1619.65
401.44	1706.25
401.63	1659.44
401.82	1664.12
402.01	1708.59
402.21	1746.04
402.40	1629.01
402.59	1586.88
402.78	1579.86
402.97	1638.38
403.17	1699.23
403.36	1813.92
403.55	1769.44
403.74	1788.17
403.93	1856.04
404.13	1872.43
404.32	1830.30
404.51	1867.75
404.70	1884.13
404.89	1877.11
405.09	1909.88
405.28	2012.86
405.47	1898.17
405.66	2062.01
405.85	1966.05
406.05	1914.56
406.24	1994.14
406.43	1923.92
406.62	2031.58
406.81	2090.10
407.00	1942.64
407.20	2038.61
407.39	2062.01
407.58	2094.78
407.77	2160.31
407.96	2040.95
408.15	2157.97
408.34	2270.32
408.54	2179.04
408.73	2193.08
408.92	2221.17
409.11	2286.70
409.30	2284.36
409.49	2181.38
409.68	2235.21
409.87	2174.36
410.07	2436.50
410.26	2420.11
410.45	2392.03
410.64	2370.96
410.83	2441.18
411.02	2452.88
411.21	2525.44
411.40	2504.37
411.59	2511.39
411.78	2436.50
411.98	2448.20
412.17	2612.04
412.36	2569.91
412.55	2588.63
412.74	2668.21
412.93	2661.19
413.12	2635.44
413.31	2733.75
413.50	2813.32
413.69	2787.58
413.88	2820.35
414.07	2906.95
414.26	2708.00
414.45	2925.67
414.64	2818.00
414.83	3056.74
415.02	2965.46
415.22	3084.83
415.41	3063.76
415.60	2949.08
415.79	3152.70
415.98	3190.15
416.17	3126.96
416.36	3243.98
416.55	3126.96
416.74	3187.81
416.93	3222.92
417.12	3293.13
417.31	3307.18
417.50	3328.24
417.69	3243.98
417.88	3302.50
418.07	3346.97
418.26	3187.81
418.45	3295.47
418.64	3545.91
418.83	3466.33
419.02	3466.33
419.21	3440.59
419.39	3557.61
419.58	3644.21
419.77	3379.73
419.96	3522.51
420.15	3625.49
420.34	3499.10
420.53	3606.77
420.72	3728.47
420.91	3716.77
421.10	3829.12
421.29	3915.72
421.48	3803.37
421.67	3934.44
421.86	3700.39
422.05	3655.92
422.24	3756.56
422.43	3665.28
422.61	3712.09
422.80	3857.20
422.99	3822.09
423.18	3873.59
423.37	3918.06
423.56	3922.74
423.75	3866.56
423.94	3744.86
424.13	3588.04
424.32	3728.47
424.50	3854.86
424.69	3887.63
424.88	4014.02
425.07	3794.01
425.26	3859.54
425.45	3857.20
425.64	3854.86
425.83	3936.78
426.01	3824.44
426.20	3868.91
426.39	3852.52
426.58	4009.34
426.77	3779.97
426.96	3927.42
427.15	3866.56
427.33	3983.59
427.52	3946.14
427.71	4112.32
427.90	4093.60
428.09	4072.53
428.28	4002.32
428.46	3992.95
428.65	4051.47
428.84	4168.49
429.03	4203.60
429.22	4060.83
429.40	4098.28
429.59	4028.06
429.78	3871.25
429.97	3822.09
430.16	4009.34
430.34	3999.98
430.53	3985.93
430.72	4107.64
430.91	4051.47
431.10	4217.65
431.28	4514.89
431.47	4475.10
431.66	4704.48
431.85	4400.21
432.03	4444.68
432.22	4657.67
432.41	4395.53
432.60	4678.73
432.79	4545.32
432.97	4542.98
433.16	4674.05
433.35	4568.73
433.54	4601.49
433.72	4521.92
433.91	4475.10
434.10	4608.51
434.28	4713.84
434.47	4620.22
434.66	4760.65
434.85	4847.25
435.03	4882.36
435.22	4880.02
435.41	5027.47
435.59	5069.60
435.78	4922.15
435.97	5046.20
436.16	5053.22
436.34	5032.15
436.53	5156.20
436.72	5146.84
436.90	4931.51
437.09	5142.16
437.28	5074.28
437.46	5015.77
437.65	5116.41
437.84	5320.04
438.02	4933.85
438.21	5158.54
438.40	4933.85
438.58	5401.96
438.77	5289.61
438.96	5273.23
439.14	5451.11
439.33	5600.90
439.52	5605.58
439.70	5462.81
439.89	5558.77
440.08	5507.28
440.26	5591.54
440.45	5699.20
440.63	5795.17
440.82	5813.89
441.01	5729.63
441.19	5865.38
441.38	5937.94
441.57	5879.43
441.75	5928.58
441.94	6012.84
442.12	6134.54
442.31	6249.23
442.50	6139.23
442.68	6169.65
442.87	6225.82
443.05	6087.73
443.24	6319.45
443.43	6232.85
443.61	6408.39
443.80	6633.08
443.98	6256.25
444.17	6232.85
444.35	6392.00
444.54	6448.18
444.73	6380.30
444.91	6307.74
445.10	6406.05
445.28	6319.45
445.47	6319.45
445.65	6242.21
445.84	6373.28
446.02	6471.58
446.21	6523.07
446.39	6502.01
446.58	6509.03
446.77	6525.41
446.95	6614.35
447.14	6459.88
447.32	6516.05
447.51	6487.96
447.69	6366.26
447.88	6670.53
448.06	6485.62
448.25	6722.02
448.43	6445.84
448.62	6586.27
448.80	6693.93
448.99	6644.78
449.17	6581.59
449.36	6661.16
449.54	6878.83
449.73	6792.23
449.91	7005.22
450.10	7023.95
450.28	7094.16
450.46	6944.37
450.65	7030.97
450.83	6956.07
451.02	6923.30
451.20	7040.33
451.39	7082.46
451.57	6920.96
451.76	7033.31
451.94	7045.01
452.13	7302.47
452.31	7108.21
452.49	7028.63
452.68	7103.53
452.86	7290.77
453.05	7229.91
453.23	7150.34
453.42	7061.40
453.60	7276.73
453.78	7253.32
453.97	7325.88
454.15	7229.91
454.34	7176.08
454.52	7445.24
454.70	7358.64
454.89	7330.56
455.07	7260.34
455.26	7478.01
455.44	7566.95
455.62	7583.34
455.81	7714.41
455.99	7658.23
456.17	7730.79
456.36	7531.84
456.54	7639.51
456.73	7672.28
456.91	7903.99
457.09	8243.37
457.28	8051.44
457.46	7908.67
457.64	8070.17
457.83	7974.21
458.01	7789.30
458.19	8219.96
458.38	7885.26
458.56	8088.89
458.74	8182.51
458.93	8142.72
459.11	8168.47
459.29	8072.51
459.48	8152.09
459.66	8273.79
459.84	8346.35
460.03	8355.71
460.21	8346.35
460.39	8290.18
460.57	8269.11
460.76	8486.78
460.94	8521.89
461.12	8482.10
461.31	8334.65
461.49	8449.33
461.67	8608.49
461.85	8695.09
462.04	8697.43
462.22	8987.66
462.40	8716.16
462.59	8655.30
462.77	8791.05
462.95	8863.61
463.13	8746.58
463.32	8683.39
463.50	8786.37
463.68	8725.52
463.86	8917.44
464.05	8730.20
464.23	8762.97
464.41	8931.48
464.59	8683.39
464.78	8931.48
464.96	8971.27
465.14	8791.05
465.32	9114.05
465.50	9174.90
465.69	9029.79
465.87	9132.77
466.05	9181.92
466.23	8887.01
466.41	9034.47
466.60	9296.61
466.78	9053.19
466.96	9111.71
467.14	9226.39
467.32	9355.12
467.51	9320.01
467.69	8950.21
467.87	9385.55
468.05	9355.12
468.23	9369.16
468.41	9273.20
468.60	9324.69
468.78	9242.78
468.96	9289.59
469.14	9554.07
469.32	9547.05
469.50	9357.46
469.69	9570.45
469.87	9619.60
470.05	9582.15
470.23	9605.56
470.41	9563.43
470.59	9717.90
470.77	9785.78
470.95	9788.12
471.14	9919.19
471.32	9769.40
471.50	10223.46
471.68	10122.82
471.86	10136.86
472.04	10160.27
472.22	10312.40
472.40	10129.84
472.58	10143.88
472.77	10200.05
472.95	10270.27
473.13	10642.42
473.31	10406.02
473.49	10382.62
473.67	10501.98
473.85	10700.93
474.03	10771.15
474.21	10677.52
474.39	10796.89
474.57	10743.06
474.75	10787.53
474.93	11037.97
475.12	10827.32
475.30	11246.27
475.48	10832.00
475.66	11255.64
475.84	10885.83
476.02	11346.92
476.20	11066.05
476.38	11332.87
476.56	11826.73
476.74	11620.76
476.92	11461.60
477.10	11590.33
477.28	11964.82
477.46	11789.28
477.64	11976.52
477.82	12023.33
478.00	12456.33
478.18	12292.49
478.36	12308.88
478.54	12299.52
478.72	12248.02
478.90	12886.99
479.08	12648.26
479.26	12582.72
479.44	12938.48
479.62	13074.23
479.80	13008.70
479.98	13254.45
480.16	13544.68
480.34	13380.84
480.52	13708.52
480.70	13235.73
480.88	13373.82
481.06	13605.53
481.24	13743.63
481.41	13982.36
481.59	14033.85
481.77	14246.84
481.95	14087.68
482.13	14169.60
482.31	14298.33
482.49	14567.49
482.67	14923.26
482.85	14888.15
483.03	14824.95
483.21	14768.78
483.39	15290.72
483.57	15063.69
483.74	14949.00
483.92	15531.80
484.10	15365.62
484.28	15730.74
484.46	15908.62
484.64	16161.40
484.82	15714.36
485.00	15833.72
485.18	16327.58
485.35	16210.55
485.53	16123.95
485.71	15648.82
485.89	16098.20
486.07	16262.04
486.25	16308.85
486.43	16608.44
486.61	16673.98
486.78	16915.05
486.96	17006.33
487.14	17355.07
487.32	17233.36
487.50	17717.86
487.68	17972.97
487.85	17968.29
488.03	18157.88
488.21	18410.65
488.39	18251.50
488.57	18380.23
488.75	18150.85
488.92	18792.16
489.10	19089.41
489.28	19103.45
489.46	19168.99
489.64	19494.32
489.81	19644.12
489.99	19772.85
490.17	19957.75
490.35	19838.38
490.53	19791.57
490.70	20093.50
490.88	20072.43
491.06	20451.60
491.24	20311.17
491.41	20465.64
491.59	20627.14
491.77	20524.16
491.95	20985.24
492.13	20980.56
492.30	20865.88
492.48	21139.72
492.66	21254.40
492.84	21617.19
493.01	21394.84
493.19	21570.38
493.37	22005.72
493.54	21944.86
493.72	22050.19
493.90	22272.54
494.08	22490.21
494.25	22719.58
494.43	22354.46
494.61	23295.35
494.79	22923.21
494.96	23112.79
495.14	23112.79
495.32	23293.01
495.49	23360.89
495.67	23566.85
495.85	23442.81
496.02	23723.67
496.20	23868.78
496.38	24306.46
496.55	23960.06
496.73	24374.34
496.91	24563.92
497.09	24657.54
497.26	25003.94
497.44	24634.14
497.62	24779.25
497.79	25125.65
497.97	24603.71
498.14	24889.26
498.32	25254.38
498.50	25221.61
498.67	25415.88
498.85	25591.42
499.03	25729.51
499.20	25872.28
499.38	25806.75
499.56	26195.28
499.73	26045.48
499.91	25638.23
500.08	26520.61
500.26	25806.75
500.44	26625.93
500.61	26525.29
500.79	26274.85
500.97	26387.20
501.14	26672.74
501.32	26536.99
501.49	26651.68
501.67	26497.20
501.84	26766.37
502.02	27204.05
502.20	26742.96
502.37	27159.58
502.55	27459.16
502.72	28177.71
502.90	27459.16
503.07	27641.73
503.25	27583.21
503.43	28095.79
503.60	27929.61
503.78	27765.78
503.95	27770.46
504.13	28126.22
504.30	28261.97
504.48	28327.50
504.65	28446.87
504.83	28411.76
505.01	29163.08
505.18	28367.29
505.36	29022.64
505.53	28645.82
505.71	29111.58
505.88	29661.61
506.06	28966.47
506.23	28933.70
506.41	29139.67
506.58	29497.77
506.76	29507.13
506.93	29598.41
507.11	29263.72
507.28	29392.45
507.46	29467.34
507.63	29610.12
507.81	29926.09
507.98	29652.25
508.16	30029.07
508.33	30331.00
508.50	30003.33
508.68	30094.61
508.85	30476.12
509.03	30651.66
509.20	30558.03
509.38	30752.30
509.55	30558.03
509.73	30911.46
509.90	30459.73
510.08	30792.09
510.25	31014.44
510.42	31260.20
510.60	31187.64
510.77	31517.65
510.95	31370.20
511.12	31328.07
511.30	31377.22
511.47	31262.54
511.64	32100.45
511.82	32306.41
511.99	31417.01
512.17	31878.10
512.34	31826.60
512.51	31936.61
512.69	32350.88
512.86	32147.26
513.04	32369.61
513.21	32385.99
513.38	32306.41
513.56	32081.72
513.73	32245.56
513.90	32751.12
514.08	32486.64
514.25	32767.50
514.43	32929.00
514.60	33048.36
514.77	32418.76
514.95	33680.31
515.12	33097.52
515.29	33046.02
515.47	33565.62
515.64	33280.08
515.81	33352.63
515.99	33457.96
516.16	33324.55
516.33	32711.33
516.51	33369.02
516.68	32945.38
516.85	32510.04
517.03	33509.45
517.20	33635.84
517.37	33474.34
517.54	34185.86
517.72	33776.27
517.89	33694.35
518.06	33734.14
518.24	33619.46
518.41	34356.72
518.58	33912.02
518.75	34237.36
518.93	34003.30
519.10	34387.15
519.27	34448.00
519.45	34422.26
519.62	34920.79
519.79	34635.25
519.96	34660.99
520.14	34834.19
520.31	35178.25
520.48	35096.33
520.65	34745.25
520.83	35370.18
521.00	35487.20
521.17	35335.07
521.34	35454.44
521.52	35498.91
521.69	35475.50
521.86	35646.36
522.03	36077.02
522.20	35838.28
522.38	35964.67
522.55	35957.65
522.72	36072.34
522.89	35952.97
523.07	36212.77
523.24	35761.05
523.41	36364.90
523.58	36114.47
523.75	36610.66
523.92	37003.87
524.10	36807.26
524.27	36613.00
524.44	36357.88
524.61	36620.02
524.78	37247.29
524.96	36947.70
525.13	36849.39
525.30	37223.88
525.47	36795.56
525.64	37219.20
525.81	37287.07
525.98	36961.74
526.16	36809.61
526.33	37294.10
526.50	37111.53
526.67	36814.29
526.84	37376.01
527.01	36830.67
527.18	37223.88
527.36	37731.78
527.53	37699.01
527.70	38103.92
527.87	37893.27
528.04	37493.04
528.21	37766.88
528.38	37780.93
528.55	38312.23
528.72	38157.75
528.89	38223.29
529.07	37991.58
529.24	38061.79
529.41	38415.21
529.58	38623.52
529.75	38148.39
529.92	38354.36
530.09	38422.23
530.26	38609.48
530.43	38787.36
530.60	38476.07
530.77	38562.67
530.94	39138.44
531.11	39192.27
531.28	38710.12
531.46	39292.91
531.63	39061.20
531.80	39171.21
531.97	39100.99
532.14	39227.38
532.31	38902.04
532.48	39014.39
532.65	38946.51
532.82	39131.42
532.99	39037.80
533.16	39210.99
533.33	39161.84
533.50	39482.50
533.67	38958.22
533.84	39302.28
534.01	39559.73
534.18	39229.72
534.35	39536.33
534.52	39643.99
534.69	39847.62
534.86	39885.07
535.03	40161.25
535.20	40325.09
535.37	40224.45
535.54	40311.05
535.71	39803.15
535.88	40093.38
536.05	39896.77
536.22	40439.78
536.38	40421.05
536.55	40011.46
536.72	40037.20
536.89	39838.26
537.06	40212.74
537.23	40612.98
537.40	40517.01
537.57	40648.08
537.74	40250.19
537.91	41184.07
538.08	40851.71
538.25	40451.48
538.42	40739.36
538.59	40545.10
538.75	40500.63
538.92	40507.65
539.09	40952.35
539.26	40893.84
539.43	40507.65
539.60	40940.65
539.77	40662.13
539.94	40907.88
540.11	41038.95
540.28	41244.92
540.44	41060.02
540.61	40802.56
540.78	40917.25
540.95	40847.03
541.12	40971.08
541.29	40854.05
541.46	41226.20
541.62	41654.51
541.79	41486.00
541.96	40678.51
542.13	41076.40
542.30	41296.41
542.47	41638.13
542.63	41387.69
542.80	41879.21
542.97	41862.82
543.14	42258.37
543.31	42136.66
543.48	42497.11
543.64	42244.33
543.81	42450.30
543.98	42272.42
544.15	42190.50
544.32	42494.77
544.48	42522.85
544.65	42087.51
544.82	43070.54
544.99	42106.24
545.16	42244.33
545.32	41883.89
545.49	42529.87
545.66	42834.14
545.83	42735.84
546.00	42288.80
546.16	42958.19
546.33	42543.92
546.50	42307.52
546.67	43105.65
546.83	42284.12
547.00	42754.57
547.17	42710.10
547.34	42237.31
547.50	43154.80
547.67	43026.07
547.84	42454.98
548.00	43049.47
548.17	43009.68
548.34	43459.07
548.51	43526.94
548.67	43194.59
548.84	43650.99
549.01	42976.92
549.18	42866.91
549.34	43009.68
549.51	43302.25
549.68	43412.26
549.84	43290.55
550.01	43704.82
550.18	43360.76
550.34	43545.67
550.51	43452.05
550.68	43569.07
550.84	42990.96
551.01	43723.55
551.18	43171.18
551.34	43512.90
551.51	43473.11
551.68	43407.58
551.84	43737.59
552.01	43702.48
552.18	43662.69
552.34	43669.72
552.51	43798.44
552.68	43555.03
552.84	43643.97
553.01	44343.79
553.18	43805.47
553.34	43847.60
553.51	43831.21
553.67	43971.64
553.84	44271.23
554.01	44301.66
554.17	44289.96
554.34	44624.65
554.51	43978.67
554.67	44568.48
554.84	44425.71
555.00	43681.42
555.17	44133.14
555.33	44275.91
555.50	44243.15
555.67	44374.22
555.83	44252.51
556.00	44105.06
556.16	44650.40
556.33	44231.44
556.50	44364.85
556.66	44219.74
556.83	44383.58
556.99	44402.30
557.16	44509.97
557.32	44451.45
557.49	44744.02
557.65	44112.08
557.82	44624.65
557.98	44404.64
558.15	44643.38
558.32	44460.82
558.48	44334.43
558.65	44432.73
558.81	44535.71
558.98	44336.77
559.14	44376.56
559.31	44980.42
559.47	44392.94
559.64	44966.37
559.80	44863.39
559.97	44797.85
560.13	44594.23
560.30	44779.13
560.46	44652.74
560.63	45481.29
560.79	44891.48
560.96	45118.51
561.12	45319.79
561.29	44245.49
561.45	44985.10
561.61	45212.13
561.78	44329.75
561.94	44619.97
562.11	45130.21
562.27	44985.10
562.44	44982.76
562.60	45294.05
562.77	45045.95
562.93	44971.05
563.10	45551.51
563.26	44896.16
563.42	45170.00
563.59	44989.78
563.75	45216.81
563.92	45268.30
564.08	45160.64
564.24	45530.44
564.41	44926.58
564.57	44722.96
564.74	44987.44
564.90	45202.77
565.07	45338.52
565.23	45457.88
565.39	45193.40
565.56	45237.87
565.72	44947.65
565.88	44931.26
566.05	44729.98
566.21	45104.46
566.38	44828.28
566.54	44933.60
566.70	45413.41
566.87	45722.37
567.03	45457.88
567.19	45904.93
567.36	45420.44
567.52	45015.52
567.68	45399.37
567.85	45038.93
568.01	45090.42
568.17	45605.34
568.34	45509.38
568.50	45064.67
568.66	45425.12
568.83	45202.77
568.99	45029.57
569.15	44926.58
569.32	45319.79
569.48	45146.59
569.64	45352.56
569.81	45492.99
569.97	44828.28
570.13	45703.64
570.30	45041.27
570.46	44926.58
570.62	44968.71
570.78	44971.05
570.95	45146.59
571.11	45450.86
571.27	45387.67
571.43	45338.52
571.60	44985.10
571.76	45186.38
571.92	45439.16
572.09	45563.21
572.25	45516.40
572.41	45647.47
572.57	45558.53
572.74	45862.80
572.90	45277.66
573.06	45792.58
573.22	45563.21
573.38	45567.89
573.55	45591.30
573.71	45811.31
573.87	45977.48
574.03	45408.73
574.20	45748.11
574.36	45235.53
574.52	45429.80
574.68	45535.12
574.84	45551.51
575.01	45752.79
575.17	45443.84
575.33	45429.80
575.49	45287.03
575.65	45392.35
575.82	45553.85
575.98	45558.53
576.14	46330.90
576.30	45558.53
576.46	45209.79
576.62	45148.93
576.79	45228.51
576.95	45673.21
577.11	45567.89
577.27	45450.86
577.43	45539.80
577.59	45769.18
577.75	45265.96
577.92	45179.36
578.08	45195.74
578.24	45277.66
578.40	45652.15
578.56	45418.10
578.72	45429.80
578.88	45511.72
579.04	45556.19
579.21	45186.38
579.37	45162.98
579.53	45500.01
579.69	45364.26
579.85	45586.61
580.01	45378.31
580.17	45600.66
580.33	45413.41
580.49	45766.84
580.65	45855.78
580.82	45902.59
580.98	45490.65
581.14	45577.25
581.30	45661.51
581.46	45631.08
581.62	46237.28
581.78	45743.43
581.94	46036.00
582.10	45617.04
582.26	45455.54
582.42	45687.26
582.58	46162.39
582.74	45509.38
582.90	46064.08
583.06	45673.21
583.22	45724.71
583.38	45897.91
583.54	45759.81
583.70	45326.81
583.86	45654.49
584.02	45261.28
584.18	46120.26
584.34	45495.33
584.50	45682.58
584.66	45521.08
584.82	45811.31
584.98	45911.95
585.14	45799.60
585.30	45528.10
585.46	45595.98
585.62	45607.68
585.78	45682.58
585.94	45675.55
586.10	45343.20
586.26	45446.18
586.42	45801.94
586.58	45778.54
586.74	45443.84
586.90	45467.25
587.06	45607.68
587.22	45603.00
587.38	45481.29
587.54	45762.15
587.70	45682.58
587.86	45574.91
588.02	45720.02
588.18	45528.10
588.34	45397.03
588.49	45415.76
588.65	45001.48
588.81	45125.53
588.97	45390.01
589.13	44947.65
589.29	45282.34
589.45	45570.23
589.61	45347.88
589.77	45626.40
589.93	45862.80
590.08	45717.68
590.24	45769.18
590.40	46099.19
590.56	46059.40
590.72	46043.02
590.88	45940.04
591.04	46129.62
591.20	46080.47
591.35	45916.63
591.51	46363.67
591.67	45404.05
591.83	45511.72
591.99	45492.99
592.15	45771.52
592.31	45947.06
592.46	45823.01
592.62	45698.96
592.78	45900.25
592.94	45911.95
593.10	46094.51
593.26	46492.40
593.41	46204.52
593.57	45595.98
593.73	45673.21
593.89	45577.25
594.05	46068.76
594.20	45736.41
594.36	45776.20
594.52	45471.93
594.68	45663.85
594.84	45722.37
594.99	45799.60
595.15	45916.63
595.31	46080.47
595.47	45937.69
595.62	45984.51
595.78	46258.35
595.94	46337.93
596.10	46094.51
596.25	46092.17
596.41	46129.62
596.57	45450.86
596.73	45715.34
596.88	45551.51
597.04	46017.27
597.20	45940.04
597.36	45729.39
597.51	45949.40
597.67	45626.40
597.83	45787.90
597.99	46050.04
598.14	45935.35
598.30	45923.65
598.46	45776.20
598.61	45895.56
598.77	45727.05
598.93	45933.01
599.09	46134.30
599.24	46447.93
599.40	46567.30
599.56	46019.61
599.71	46134.30
599.87	46155.36
600.03	45839.39
600.18	45696.62
600.34	46073.45
600.50	45738.75
600.65	45937.69
600.81	45916.63
600.97	45818.33
601.12	46281.75
601.28	45947.06
601.44	46061.74
601.59	45909.61
601.75	45638.11
601.91	46043.02
602.06	45588.95
602.22	45507.04
602.37	45893.22
602.53	45886.20
602.69	46136.64
602.84	45647.47
603.00	45787.90
603.16	45947.06
603.31	45525.76
603.47	45956.42
603.62	45937.69
603.78	45879.18
603.94	45848.75
604.09	45975.14
604.25	45815.99
604.40	45930.67
604.56	45918.97
604.71	46052.38
604.87	45642.79
605.03	45610.02
605.18	45970.46
605.34	45551.51
605.49	45366.60
605.65	46040.68
605.80	45495.33
605.96	45537.46
606.12	45780.88
606.27	45755.13
606.43	45584.27
606.58	45968.12
606.74	45940.04
606.89	45305.75
607.05	46028.98
607.20	45720.02
607.36	45727.05
607.51	45621.72
607.67	45815.99
607.82	45322.13
607.98	45720.02
608.13	45434.48
608.29	45773.86
608.44	45205.11
608.60	45233.19
608.75	45329.16
608.91	45715.34
609.06	45357.24
609.22	45567.89
609.37	45006.16
609.53	45783.22
609.68	45254.26
609.84	45574.91
609.99	45492.99
610.15	44753.38
610.30	45120.85
610.46	45324.47
610.61	45003.82
610.76	45340.86
610.92	45628.74
611.07	45408.73
611.23	44985.10
611.38	45450.86
611.54	45102.12
611.69	44973.39
611.84	44744.02
612.00	45144.25
612.15	45006.16
612.31	44832.96
612.46	45249.58
612.62	45247.24
612.77	44755.72
612.92	45380.65
613.08	44781.47
613.23	44980.42
613.39	44463.16
613.54	44175.27
613.69	44601.25
613.85	44662.10
614.00	44655.08
614.15	44622.31
614.31	45020.20
614.46	44718.28
614.62	45151.27
614.77	44683.17
614.92	44568.48
615.08	44458.48
615.23	44624.65
615.38	44369.54
615.54	44341.45
615.69	44556.78
615.84	44486.56
616.00	44467.84
616.15	44484.22
616.30	44776.79
616.46	44257.19
616.61	44191.65
616.76	43889.73
616.92	43957.60
617.07	44009.09
617.22	44282.94
617.37	43990.37
617.53	44704.23
617.68	44486.56
617.83	44128.46
617.99	44486.56
618.14	43964.62
618.29	44229.10
618.45	44091.01
618.60	43885.04
618.75	43660.35
618.90	43711.84
619.06	43768.02
619.21	43948.24
619.36	43690.78
619.51	43999.73
619.67	43810.15
619.82	44151.87
619.97	44273.57
620.12	43679.08
620.28	43363.11
620.43	43908.45
620.58	43587.80
620.73	43634.61
620.89	43700.14
621.04	44048.88
621.19	43831.21
621.34	43992.71
621.49	43452.05
621.65	43735.25
621.80	44196.34
621.95	43473.11
622.10	43426.30
622.25	44016.11
622.41	43686.10
622.56	43655.67
622.71	43955.26
622.86	43290.55
623.01	43143.09
623.16	43585.46
623.32	43157.14
623.47	43557.37
623.62	43433.32
623.77	43335.02
623.92	43763.34
624.07	42712.44
624.23	43019.05
624.38	43171.18
624.53	43564.39
624.68	43028.41
624.83	43070.54
624.98	43131.39
625.13	42572.00
625.29	43161.82
625.44	43047.13
625.59	42464.34
625.74	42843.51
625.89	42220.92
626.04	42564.98
626.19	42534.56
626.34	42895.00
626.49	43143.09
626.65	42492.43
626.80	42433.91
626.95	42387.10
627.10	42831.80
627.25	42621.16
627.40	41944.74
627.55	41991.55
627.70	42288.80
627.85	42361.36
628.00	42476.04
628.15	42522.85
628.30	42595.41
628.45	43021.39
628.60	42398.80
628.76	42410.51
628.91	42302.84
629.06	41911.97
629.21	42031.34
629.36	42239.65
629.51	41640.47
629.66	41970.49
629.81	42328.59
629.96	41731.75
630.11	41984.53
630.26	41773.88
630.41	42124.96
630.56	41956.44
630.71	41738.77
630.86	41921.34
631.01	41937.72
631.16	41874.52
631.31	41816.01
631.46	41397.06
631.61	41462.59
631.76	41614.72
631.91	41956.44
632.06	41677.92
632.21	41897.93
632.36	41851.12
632.51	41872.18
632.66	41588.98
632.81	41305.77
632.96	41301.09
633.10	41684.94
633.25	41455.57
633.40	41818.35
633.55	41832.39
633.70	40811.92
633.85	41340.88
634.00	41640.47
634.15	41134.92
634.30	40968.74
634.45	41064.70
634.60	40917.25
634.75	41275.35
634.90	40968.74
635.05	41474.29
635.19	40957.03
635.34	41422.80
635.49	41200.45
635.64	40954.69
635.79	40439.78
635.94	40603.61
636.09	40879.80
636.24	40814.26
636.39	41095.13
636.53	40940.65
636.68	40472.54
636.83	40556.80
636.98	40786.18
637.13	40910.22
637.28	40802.56
637.43	41022.57
637.57	41305.77
637.72	40580.21
637.87	40425.73
638.02	40722.98
638.17	40907.88
638.32	40472.54
638.46	40678.51
638.61	40392.97
638.76	40095.72
638.91	40514.67
639.06	40875.12
639.20	40751.07
639.35	40591.91
639.50	40245.51
639.65	40451.48
639.80	40481.91
639.94	40315.73
640.09	40465.52
640.24	39749.32
640.39	40128.48
640.54	40563.82
640.68	40172.96
640.83	39978.69
640.98	39587.82
641.13	39779.74
641.27	40289.98
641.42	39419.30
641.57	40161.25
641.72	40329.77
641.86	39892.09
642.01	39342.06
642.16	39807.83
642.31	39583.14
642.45	39796.13
642.60	39679.10
642.75	40048.91
642.90	39784.43
643.04	39611.23
643.19	39861.66
643.34	39782.09
643.48	40074.65
643.63	39487.18
643.78	39306.96
643.93	39749.32
644.07	39365.47
644.22	39269.51
644.37	38998.01
644.51	39440.37
644.66	39592.50
644.81	40051.25
644.95	39487.18
645.10	39290.57
645.25	39468.45
645.39	38967.58
645.54	38880.98
645.69	38986.30
645.83	39161.84
645.98	39049.50
646.13	39079.92
646.27	39276.53
646.42	39093.97
646.57	38969.92
646.71	38665.65
646.86	39164.18
647.00	39119.71
647.15	39344.41
647.30	39409.94
647.44	38841.19
647.59	38621.18
647.74	38916.09
647.88	38742.89
648.03	38623.52
648.17	38892.68
648.32	38672.67
648.47	38614.16
648.61	38628.20
648.76	39381.85
648.90	38569.69
649.05	38574.37
649.20	38740.55
649.34	38469.04
649.49	38312.23
649.63	38405.85
649.78	38918.43
649.92	38752.25
650.07	38691.40
650.21	38197.54
650.36	38218.61
650.51	38492.45
650.65	39117.37
650.80	38962.90
650.94	38520.54
651.09	38352.02
651.23	37921.36
651.38	38415.21
651.52	38110.94
651.67	38059.45
651.81	37848.80
651.96	38003.28
652.10	38295.85
652.25	37825.40
652.39	38192.86
652.54	38101.58
652.68	37897.95
652.83	38080.52
652.97	38305.21
653.12	37865.19
653.26	37682.62
653.41	37579.64
653.55	37837.10
653.70	37516.45
653.84	37687.31
653.99	37809.01
654.13	37989.24
654.27	37949.45
654.42	37750.50
654.56	37736.46
654.71	37635.81
654.85	37610.07
655.00	38307.55
655.14	37432.19
655.29	37153.66
655.43	37469.64
655.57	37022.59
655.72	36999.19
655.86	36648.11
656.01	37078.77
656.15	36378.95
656.30	36755.77
656.44	37418.14
656.58	37184.09
656.73	36985.15
656.87	37141.96
657.01	36666.83
657.16	37207.50
657.30	36400.01
657.45	37083.45
657.59	36767.48
657.73	37347.93
657.88	36741.73
658.02	37380.70
658.16	37120.90
658.31	37258.99
658.45	37544.53
658.60	36924.29
658.74	37460.27
658.88	37170.05
659.03	36133.19
659.17	36250.22
659.31	36517.04
659.46	36617.68
659.60	36601.30
659.74	36240.86
659.89	35896.80
660.03	36339.16
660.17	36137.87
660.32	36292.35
660.46	36617.68
660.60	36077.02
660.74	36060.63
660.89	36126.17
661.03	36055.95
661.17	36236.17
661.32	35770.41
661.46	35817.22
661.60	35587.85
661.74	35637.00
661.89	35222.72
662.03	35945.95
662.17	36070.00
662.31	35892.12
662.46	36488.95
662.60	35744.66
662.74	35555.08
662.88	35330.39
663.03	35306.98
663.17	35409.96
663.31	35173.57
663.45	35442.73
663.60	35379.54
663.74	35136.12
663.88	35269.53
664.02	35321.02
664.17	35168.89
664.31	34895.05
664.45	35002.71
664.59	34745.25
664.73	35051.86
664.88	34719.51
665.02	33844.15
665.16	34675.04
665.30	34110.97
665.44	34391.83
665.59	34211.61
665.73	34438.64
665.87	34492.47
666.01	34583.76
666.15	34508.86
666.29	34120.33
666.44	34696.10
666.58	34204.59
666.72	34143.74
666.86	34164.80
667.00	34183.52
667.14	33806.70
667.28	33802.02
667.43	33876.91
667.57	33865.21
667.71	34127.35
667.85	33663.93
667.99	34206.93
668.13	34183.52
668.27	33947.13
668.41	33750.52
668.56	33329.23
668.70	33338.59
668.84	33596.05
668.98	33490.73
669.12	33326.89
669.26	33474.34
669.40	32877.51
669.54	33254.33
669.68	33181.77
669.82	32753.46
669.96	32725.37
670.10	32669.20
670.25	33195.82
670.39	32903.25
670.53	32360.25
670.67	32549.83
670.81	32603.66
670.95	32547.49
671.09	32011.51
671.23	31952.99
671.37	32840.06
671.51	32355.57
671.65	32161.30
671.79	32217.47
671.93	32334.50
672.07	32187.05
672.21	31985.76
672.35	31496.59
672.49	31854.69
672.63	31950.65
672.77	31171.25
672.91	31662.77
673.05	31580.85
673.19	31358.50
673.33	31260.20
673.47	31307.01
673.61	31211.04
673.75	31346.79
673.89	30845.92
674.03	31264.88
674.17	30995.71
674.31	30948.90
674.45	31297.64
674.59	31028.48
674.73	31058.91
674.87	30836.56
675.01	30665.70
675.15	30380.15
675.29	30672.72
675.43	30621.23
675.56	30625.91
675.70	30480.80
675.84	30710.17
675.98	29408.83
676.12	30199.93
676.26	30359.09
676.40	30064.18
676.54	30073.54
676.68	29972.90
676.82	29523.52
676.96	29556.28
677.10	29570.33
677.23	29834.81
677.37	29558.63
677.51	29673.31
677.65	29071.79
677.79	28694.97
677.93	28732.42
678.07	28641.14
678.21	28477.30
678.34	28367.29
678.48	28257.29
678.62	28369.63
678.76	28196.43
678.90	28254.95
679.04	28102.81
679.18	28481.98
679.31	27690.88
679.45	27747.05
679.59	28056.00
679.73	27828.97
679.87	27578.53
680.00	27725.99
680.14	27838.33
680.28	27875.78
680.42	27651.09
680.56	27417.04
680.70	27211.07
680.83	27410.01
680.97	27215.75
681.11	27234.47
681.25	27138.51
681.39	27173.62
681.52	27171.28
681.66	26529.97
681.80	26712.53
681.94	26506.57
682.07	26558.06
682.21	26169.53
682.35	25961.22
682.49	26038.46
682.62	25797.38
682.76	26005.69
682.90	26230.38
683.04	26005.69
683.17	25898.03
683.31	25284.81
683.45	25617.16
683.59	25626.53
683.72	25212.25
683.86	25364.39
684.00	25181.82
684.13	25020.33
684.27	24772.23
684.41	24788.61
684.55	25062.46
684.68	24840.11
684.82	24856.49
684.96	24816.70
685.09	24397.74
685.23	24355.61
685.37	24238.59
685.50	24547.54
685.64	24765.21
685.78	24133.26
685.91	23812.61
686.05	23941.34
686.19	23728.35
686.32	23726.01
686.46	23482.59
686.60	23073.00
686.73	23105.77
686.87	22745.33
687.01	22845.97
687.14	22874.06
687.28	22485.53
687.42	22869.37
687.55	23019.17
687.69	23042.57
687.82	23009.81
687.96	22752.35
688.10	22885.76
688.23	22286.58
688.37	22733.62
688.50	22246.79
688.64	22530.00
688.78	22417.65
688.91	21827.84
689.05	21823.16
689.18	21841.88
689.32	21661.66
689.46	21970.61
689.59	22033.80
689.73	22010.40
689.86	21706.13
690.00	21537.61
690.13	21465.05
690.27	21146.74
690.41	21010.99
690.54	21062.48
690.68	21057.80
690.81	21425.26
690.95	20875.24
691.08	20924.39
691.22	21034.39
691.35	20975.88
691.49	20837.79
691.62	20631.82
691.76	20559.27
691.89	20318.19
692.03	20470.33
692.16	20456.28
692.30	19997.54
692.43	20067.75
692.57	19800.93
692.70	19585.60
692.84	19590.28
692.97	19676.88
693.11	19400.70
693.24	19552.84
693.38	19477.94
693.51	19576.24
693.65	19304.74
693.78	19335.17
693.92	19330.48
694.05	19236.86
694.19	19384.32
694.32	19150.26
694.45	19222.82
694.59	18831.95
694.72	19007.49
694.86	18586.19
694.99	18527.68
695.13	18483.21
695.26	18333.42
695.39	18314.69
695.53	18750.03
695.66	18471.51
695.80	18284.26
695.93	18270.22
696.07	18141.49
696.20	18197.67
696.33	18118.09
696.47	17888.71
696.60	18082.98
696.73	17671.04
696.87	17678.07
697.00	17652.32
697.14	17319.96
697.27	17326.99
697.40	17296.56
697.54	17184.21
697.67	17041.44
697.80	16957.18
697.94	16891.65
698.07	17074.21
698.21	16938.46
698.34	16812.07
698.47	16959.52
698.61	16861.22
698.74	16753.55
698.87	16744.19
699.01	16182.46
699.14	15946.07
699.27	16065.44
699.40	16294.81
699.54	16018.63
699.67	16126.29
699.80	15880.53
699.94	15744.78
700.07	16011.60
700.20	15815.00
700.34	15925.00
700.47	15775.21
700.60	15566.90
700.73	15562.22
700.87	15594.99
701.00	15316.47
701.13	15426.47
701.26	15300.08
701.40	15286.04
701.53	15157.31
701.66	15295.40
701.79	14707.93
701.93	14995.81
702.06	14817.93
702.19	14633.03
702.32	14932.62
702.46	14703.25
702.59	14904.53
702.72	14665.80
702.85	14541.75
702.99	14523.02
703.12	14499.62
703.25	14401.32
703.38	14506.64
703.51	14363.87
703.65	14291.31
703.78	13973.00
703.91	13949.59
704.04	14024.49
704.17	13987.04
704.31	13795.12
704.44	13708.52
704.57	13547.02
704.70	13563.40
704.83	13633.62
704.96	13397.23
705.10	13631.28
705.23	13331.69
>>>>>End Processed Spectral Data<<<<<
