SpectraSuite Data File
++++++++++++++++++++++++++++++++++++
Date: Fri Oct 25 11:34:28 EDT 2013
User: price-jones
Dark Spectrum Present: No
Reference Spectrum Present: No
Number of Sampled Component Spectra: 1
Spectrometers: USB2+H05261
Integration Time (usec): 100000 (USB2+H05261)
Spectra Averaged: 1 (USB2+H05261)
Boxcar Smoothing: 0 (USB2+H05261)
Correct for Electrical Dark: No (USB2+H05261)
Strobe/Lamp Enabled: No (USB2+H05261)
Correct for Detector Non-linearity: No (USB2+H05261)
Correct for Stray Light: No (USB2+H05261)
Number of Pixels in Processed Spectrum: 2048
>>>>>Begin Processed Spectral Data<<<<<
365.73	266.82
365.92	266.82
366.12	266.82
366.32	201.29
366.52	210.65
366.72	196.60
366.91	236.39
367.11	191.92
367.31	198.95
367.51	208.31
367.70	212.99
367.90	187.24
368.10	212.99
368.30	203.63
368.49	175.54
368.69	229.37
368.89	201.29
369.09	212.99
369.28	163.84
369.48	198.95
369.68	201.29
369.87	184.90
370.07	294.91
370.27	348.74
370.47	341.72
370.66	491.51
370.86	498.53
371.06	617.90
371.25	582.79
371.45	500.87
371.65	571.09
371.84	524.28
372.04	557.05
372.24	641.31
372.44	592.16
372.63	589.82
372.83	547.69
373.03	634.29
373.22	627.26
373.42	634.29
373.62	578.11
373.81	571.09
374.01	575.77
374.21	615.56
374.40	664.71
374.60	643.65
374.79	550.03
374.99	650.67
375.19	589.82
375.38	580.45
375.58	653.01
375.78	620.24
375.97	610.88
376.17	641.31
376.37	674.07
376.56	683.44
376.76	676.41
376.95	636.63
377.15	681.10
377.35	580.45
377.54	657.69
377.74	697.48
377.93	671.73
378.13	585.13
378.33	760.67
378.52	631.94
378.72	730.25
378.91	685.78
379.11	594.50
379.31	685.78
379.50	702.16
379.70	753.65
379.89	727.91
380.09	779.40
380.28	732.59
380.48	744.29
380.68	753.65
380.87	713.86
381.07	739.61
381.26	770.04
381.46	727.91
381.65	748.97
381.85	748.97
382.04	711.52
382.24	777.06
382.43	695.14
382.63	725.57
382.83	697.48
383.02	779.40
383.22	861.32
383.41	788.76
383.61	744.29
383.80	772.38
384.00	755.99
384.19	849.61
384.39	809.83
384.58	751.31
384.78	812.17
384.97	805.14
385.17	791.10
385.36	781.74
385.56	842.59
385.75	821.53
385.95	847.27
386.14	823.87
386.34	842.59
386.53	891.74
386.72	837.91
386.92	919.83
387.11	936.21
387.31	910.47
387.50	891.74
387.70	877.70
387.89	882.38
388.09	884.72
388.28	851.96
388.48	919.83
388.67	873.02
388.86	851.96
389.06	847.27
389.25	968.98
389.45	912.81
389.64	947.92
389.84	933.87
390.03	940.90
390.22	947.92
390.42	971.32
390.61	866.00
390.81	912.81
391.00	959.62
391.19	1027.50
391.39	924.51
391.58	887.06
391.78	1018.13
391.97	968.98
392.16	1011.11
392.36	1001.75
392.55	999.41
392.75	1034.52
392.94	1100.05
393.13	1114.10
393.33	1008.77
393.52	1006.43
393.71	1006.43
393.91	1107.07
394.10	1053.24
394.29	1121.12
394.49	1083.67
394.68	1093.03
394.88	1088.35
395.07	1125.80
395.26	1076.65
395.46	1093.03
395.65	1153.88
395.84	1139.84
396.04	1205.38
396.23	1128.14
396.42	1165.59
396.62	1184.31
396.81	1177.29
397.00	1193.67
397.19	1193.67
397.39	1188.99
397.58	1254.53
397.77	1210.06
397.97	1301.34
398.16	1111.75
398.35	1149.20
398.55	1226.44
398.74	1245.16
398.93	1303.68
399.12	1221.76
399.32	1254.53
399.51	1364.53
399.70	1369.21
399.90	1338.79
400.09	1373.89
400.28	1315.38
400.47	1270.91
400.67	1341.13
400.86	1387.94
401.05	1327.08
401.24	1378.58
401.44	1397.30
401.63	1341.13
401.82	1334.11
402.01	1320.06
402.21	1411.34
402.40	1465.18
402.59	1486.24
402.78	1540.07
402.97	1392.62
403.17	1446.45
403.36	1397.30
403.55	1526.03
403.74	1516.67
403.93	1547.09
404.13	1556.46
404.32	1561.14
404.51	1467.52
404.70	1561.14
404.89	1603.27
405.09	1685.19
405.28	1600.93
405.47	1678.16
405.66	1652.42
405.85	1659.44
406.05	1633.69
406.24	1617.31
406.43	1664.12
406.62	1689.87
406.81	1755.40
407.00	1614.97
407.20	1706.25
407.39	1760.08
407.58	1755.40
407.77	1743.70
407.96	1916.90
408.15	1884.13
408.34	1799.87
408.54	1739.02
408.73	1769.44
408.92	1872.43
409.11	1886.47
409.30	1867.75
409.49	1980.09
409.68	1898.17
409.87	1877.11
410.07	1898.17
410.26	1989.46
410.45	1998.82
410.64	1982.43
410.83	2085.42
411.02	2010.52
411.21	2108.82
411.40	2043.29
411.59	2092.44
411.78	2101.80
411.98	2071.37
412.17	2211.81
412.36	2139.25
412.55	2197.76
412.74	2235.21
412.93	2155.63
413.12	2251.60
413.31	2385.01
413.50	2359.26
413.69	2345.22
413.88	2359.26
414.07	2396.71
414.26	2427.14
414.45	2471.61
414.64	2464.58
414.83	2420.11
415.02	2436.50
415.22	2600.34
415.41	2633.10
415.60	2511.39
415.79	2537.14
415.98	2633.10
416.17	2605.02
416.36	2750.13
416.55	2682.25
416.74	2691.62
416.93	2679.91
417.12	2679.91
417.31	2792.26
417.50	2733.75
417.69	2855.45
417.88	2890.56
418.07	2867.16
418.26	2820.35
418.45	2764.17
418.64	3047.38
418.83	2810.98
419.02	2841.41
419.21	2946.73
419.39	2923.33
419.58	2834.39
419.77	2771.19
419.96	3026.31
420.15	3038.02
420.34	2939.71
420.53	3070.78
420.72	3112.91
420.91	3131.64
421.10	3185.47
421.29	3220.58
421.48	3112.91
421.67	3122.27
421.86	3227.60
422.05	3138.66
422.24	3075.46
422.43	3225.26
422.61	3297.81
422.80	3365.69
422.99	3194.83
423.18	3344.63
423.37	3353.99
423.56	3206.53
423.75	3274.41
423.94	3185.47
424.13	3033.33
424.32	3208.87
424.50	3311.86
424.69	3314.20
424.88	3454.63
425.07	3356.33
425.26	3321.22
425.45	3361.01
425.64	3232.28
425.83	3262.71
426.01	3463.99
426.20	3342.28
426.39	3398.46
426.58	3349.31
426.77	3328.24
426.96	3403.14
427.15	3386.76
427.33	3358.67
427.52	3478.04
427.71	3548.25
427.90	3396.12
428.09	3435.91
428.28	3548.25
428.46	3475.70
428.65	3588.04
428.84	3684.00
429.03	3662.94
429.22	3480.38
429.40	3541.23
429.59	3588.04
429.78	3520.17
429.97	3398.46
430.16	3655.92
430.34	3744.86
430.53	3712.09
430.72	3728.47
430.91	3688.68
431.10	3674.64
431.28	3801.03
431.47	3740.18
431.66	3913.38
431.85	3786.99
432.03	3840.82
432.22	3929.76
432.41	3943.80
432.60	3899.33
432.79	3871.25
432.97	3868.91
433.16	3861.88
433.35	3854.86
433.54	3936.78
433.72	4072.53
433.91	3932.10
434.10	3838.48
434.28	4102.96
434.47	4074.87
434.66	4140.41
434.85	4135.73
435.03	4131.05
435.22	4093.60
435.41	4322.97
435.59	4201.26
435.78	4236.37
435.97	4250.41
436.16	4348.72
436.34	4250.41
436.53	4248.07
436.72	4465.74
436.90	4266.80
437.09	4290.20
437.28	4093.60
437.46	4297.22
437.65	4334.67
437.84	4287.86
438.02	4402.55
438.21	4334.67
438.40	4418.93
438.58	4566.39
438.77	4638.94
438.96	4542.98
439.14	4610.86
439.33	4582.77
439.52	4624.90
439.70	4681.07
439.89	4802.78
440.08	4697.46
440.26	4837.89
440.45	4887.04
440.63	4863.63
440.82	4915.12
441.01	4908.10
441.19	4985.34
441.38	5027.47
441.57	4830.87
441.75	5011.09
441.94	5067.26
442.12	5067.26
442.31	5104.71
442.50	5184.29
442.68	5188.97
442.87	5172.58
443.05	5282.59
443.24	5359.83
443.43	5348.12
443.61	5181.95
443.80	5460.47
443.98	5350.46
444.17	5195.99
444.35	5411.32
444.54	5289.61
444.73	5317.70
444.91	5420.68
445.10	5308.34
445.28	5385.57
445.47	5427.70
445.65	5432.38
445.84	5390.25
446.02	5589.20
446.21	5420.68
446.39	5348.12
446.58	5563.45
446.77	5481.53
446.95	5451.11
447.14	5469.83
447.32	5518.98
447.51	5397.28
447.69	5378.55
447.88	5514.30
448.06	5542.39
448.25	5416.00
448.43	5523.66
448.62	5619.63
448.80	5401.96
448.99	5767.08
449.17	5598.56
449.36	5720.27
449.54	5664.10
449.73	5741.33
449.91	5771.76
450.10	5832.62
450.28	5781.12
450.46	5837.30
450.65	5771.76
450.83	5881.77
451.02	5877.09
451.20	5989.43
451.39	6106.46
451.57	5870.06
451.76	5956.66
451.94	5832.62
452.13	6097.10
452.31	5867.72
452.49	5930.92
452.68	6179.01
452.86	5928.58
453.05	6202.42
453.23	6197.74
453.42	6097.10
453.60	5996.45
453.78	6155.61
453.97	6157.95
454.15	5954.32
454.34	6164.97
454.52	6169.65
454.70	6195.40
454.89	6242.21
455.07	6221.14
455.26	6242.21
455.44	6427.11
455.62	6420.09
455.81	6314.77
455.99	6389.66
456.17	6562.86
456.36	6602.65
456.54	6499.67
456.73	6352.21
456.91	6764.15
457.09	6738.40
457.28	6595.63
457.46	6525.41
457.64	6794.58
457.83	6780.53
458.01	6642.44
458.19	6764.15
458.38	6890.54
458.56	6888.20
458.74	6951.39
458.93	7070.76
459.11	7000.54
459.29	6895.22
459.48	6832.02
459.66	6977.14
459.84	6967.77
460.03	7056.72
460.21	7000.54
460.39	7047.35
460.57	7094.16
460.76	7122.25
460.94	7178.42
461.12	7267.36
461.31	7063.74
461.49	7194.81
461.67	7115.23
461.85	7365.67
462.04	7248.64
462.22	7662.91
462.40	7494.40
462.59	7461.63
462.77	7351.62
462.95	7489.71
463.13	7433.54
463.32	7520.14
463.50	7417.16
463.68	7524.82
463.86	7590.36
464.05	7375.03
464.23	7389.07
464.41	7648.87
464.59	7623.12
464.78	7864.20
464.96	7775.26
465.14	7569.29
465.32	7707.38
465.50	7648.87
465.69	7599.72
465.87	7791.64
466.05	7836.11
466.23	7925.05
466.41	7756.54
466.60	7932.08
466.78	7936.76
466.96	7620.78
467.14	7997.61
467.32	8046.76
467.51	8049.10
467.69	7962.50
467.87	8006.97
468.05	8016.33
468.23	8067.83
468.41	7953.14
468.60	8121.66
468.78	8238.69
468.96	8079.53
469.14	8182.51
469.32	8065.49
469.50	7988.25
469.69	8056.12
469.87	8336.99
470.05	8461.04
470.23	8547.64
470.41	8374.44
470.59	8493.80
470.77	8290.18
470.95	8454.02
471.14	8627.21
471.32	8498.49
471.50	8739.56
471.68	8629.56
471.86	8606.15
472.04	8688.07
472.22	8798.07
472.40	8732.54
472.58	9004.04
472.77	9078.94
472.95	8929.14
473.13	9055.53
473.31	9046.17
473.49	8903.40
473.67	9064.89
473.85	9085.96
474.03	9144.47
474.21	9198.31
474.39	9252.14
474.57	9308.31
474.75	9483.85
474.93	9432.36
475.12	9458.10
475.30	9495.55
475.48	9385.55
475.66	9415.98
475.84	9767.06
476.02	9727.27
476.20	9820.89
476.38	9975.36
476.56	10073.67
476.74	10061.96
476.92	10010.47
477.10	10188.35
477.28	10178.99
477.46	10321.76
477.64	10136.86
477.82	10691.57
478.00	10649.44
478.18	10387.30
478.36	10553.48
478.54	10661.14
478.72	10834.34
478.90	10869.45
479.08	11133.93
479.26	11250.96
479.44	11042.65
479.62	11190.10
479.80	11351.60
479.98	11328.19
480.16	11822.05
480.34	11503.73
480.52	11599.70
480.70	11782.26
480.88	11651.19
481.06	11815.02
481.24	11894.60
481.41	12035.03
481.59	11976.52
481.77	12233.98
481.95	12327.60
482.13	12519.53
482.31	12355.69
482.49	12503.14
482.67	12521.87
482.85	12865.92
483.03	12800.39
483.21	12954.87
483.39	12896.35
483.57	13186.58
483.74	13123.38
483.92	13479.15
484.10	13235.73
484.28	13605.53
484.46	13802.14
484.64	13886.40
484.82	13532.98
485.00	14190.67
485.18	14190.67
485.35	14368.55
485.53	14394.29
485.71	14618.99
485.89	14693.88
486.07	14864.74
486.25	14860.06
486.43	14920.92
486.61	14897.51
486.78	15070.71
486.96	15255.61
487.14	15667.55
487.32	15330.51
487.50	15445.20
487.68	15786.91
487.85	15775.21
488.03	15957.77
488.21	15955.43
488.39	15779.89
488.57	16397.79
488.75	16339.28
488.92	16505.46
489.10	16844.84
489.28	17011.01
489.46	17238.05
489.64	16950.16
489.81	17163.15
489.99	17081.23
490.17	17380.82
490.35	17572.74
490.53	17378.48
490.70	17617.21
490.88	17811.48
491.06	17961.27
491.24	18061.91
491.41	18218.73
491.59	18178.94
491.77	18202.35
491.95	18462.15
492.13	18352.14
492.30	18658.75
492.48	18480.87
492.66	19136.22
492.84	19131.54
493.01	19016.85
493.19	18977.06
493.37	19358.57
493.54	19360.91
493.72	19372.61
493.90	19470.92
494.08	19957.75
494.25	19784.55
494.43	19864.13
494.61	20161.37
494.79	20049.03
494.96	20313.51
495.14	20170.74
495.32	20805.02
495.49	20577.99
495.67	20765.23
495.85	20727.78
496.02	20994.61
496.20	21081.21
496.38	21434.63
496.55	21195.89
496.73	21825.50
496.91	21436.97
497.09	21851.24
497.26	21486.12
497.44	21619.53
497.62	21820.81
497.79	22125.08
497.97	22115.72
498.14	22335.73
498.32	22478.50
498.50	22546.38
498.67	22813.20
498.85	22471.48
499.03	22944.27
499.20	22759.37
499.38	22754.69
499.56	23124.49
499.73	22967.68
499.91	23489.62
500.08	23864.10
500.26	23412.38
500.44	23454.51
500.61	23559.83
500.79	23529.41
500.97	23793.89
501.14	24343.91
501.32	24056.03
501.49	24156.67
501.67	23974.11
501.84	24456.26
502.02	24439.87
502.20	24341.57
502.37	23992.83
502.55	24575.62
502.72	24741.80
502.90	24989.90
503.07	24762.87
503.25	25160.76
503.43	25001.60
503.60	25085.86
503.78	25268.42
503.95	24912.66
504.13	25357.36
504.30	25488.43
504.48	25333.96
504.65	25799.73
504.83	25687.38
505.01	25923.77
505.18	25792.70
505.36	26164.85
505.53	25879.30
505.71	26033.78
505.88	26059.52
506.06	25771.64
506.23	26214.00
506.41	26197.62
506.58	26532.31
506.76	26431.67
506.93	26817.86
507.11	26459.76
507.28	26864.67
507.46	26647.00
507.63	26796.79
507.81	26998.08
507.98	26822.54
508.16	27381.93
508.33	27133.83
508.50	27578.53
508.68	27466.19
508.85	27349.16
509.03	27517.68
509.20	27531.72
509.38	27758.75
509.55	27672.15
509.73	28041.96
509.90	28107.49
510.08	27864.08
510.25	28128.56
510.42	28404.74
510.60	28081.75
510.77	28414.10
510.95	28580.28
511.12	28704.33
511.30	28594.32
511.47	28849.44
511.64	28643.48
511.82	28804.97
511.99	28701.99
512.17	29261.38
512.34	28861.15
512.51	29329.25
512.69	29137.33
512.86	29186.48
513.04	29369.04
513.21	29233.29
513.38	29788.00
513.56	30029.07
513.73	29406.49
513.90	29483.73
514.08	29848.85
514.25	29942.47
514.43	29666.29
514.60	29893.32
514.77	30246.74
514.95	30260.79
515.12	30632.93
515.29	30057.16
515.47	30361.43
515.64	30363.77
515.81	30127.38
515.99	30817.83
516.16	30979.33
516.33	30789.75
516.51	30771.02
516.68	30717.19
516.85	30967.63
517.03	31433.39
517.20	31126.78
517.37	31325.73
517.54	31117.42
517.72	31330.41
517.89	31529.36
518.06	31594.89
518.24	31597.23
518.41	31105.72
518.58	31150.19
518.75	31508.29
518.93	31936.61
519.10	31922.57
519.27	31779.79
519.45	32002.14
519.62	32212.79
519.79	32215.13
519.96	32219.81
520.14	32341.52
520.31	32023.21
520.48	31840.65
520.65	32151.94
520.83	32547.49
521.00	32720.69
521.17	32835.38
521.34	33193.48
521.52	33237.95
521.69	32671.54
521.86	33067.09
522.03	32833.04
522.20	33406.47
522.38	33448.60
522.55	33511.79
522.72	33284.76
522.89	33486.04
523.07	33909.68
523.24	33432.21
523.41	33928.41
523.58	33364.34
523.75	33963.51
523.92	33385.40
524.10	33830.10
524.27	34057.14
524.44	34167.14
524.61	34148.42
524.78	34361.40
524.96	34125.01
525.13	34094.58
525.30	34410.56
525.47	34663.33
525.64	34597.80
525.81	34497.16
525.98	34632.91
526.16	34466.73
526.33	34403.53
526.50	34710.14
526.67	34345.02
526.84	34965.26
527.01	34698.44
527.18	34761.64
527.36	34579.07
527.53	35131.44
527.70	35550.40
527.87	35681.47
528.04	35019.10
528.21	35030.80
528.38	35124.42
528.55	35295.28
528.72	35206.34
528.89	35124.42
529.07	35330.39
529.24	35571.46
529.41	35669.76
529.58	35409.96
529.75	35634.66
529.92	35625.29
530.09	35524.65
530.26	35931.90
530.43	36161.28
530.60	35763.39
530.77	35894.46
530.94	36318.09
531.11	36067.66
531.28	36177.66
531.46	36102.76
531.63	36135.53
531.80	36282.98
531.97	36297.03
532.14	36477.25
532.31	36568.53
532.48	36732.37
532.65	36400.01
532.82	36629.38
532.99	36774.50
533.16	36411.71
533.33	36556.83
533.50	36840.03
533.67	36582.57
533.84	36758.11
534.01	37432.19
534.18	36664.49
534.35	37394.74
534.52	37474.32
534.69	37535.17
534.86	37537.51
535.03	37383.04
535.20	37577.30
535.37	37256.65
535.54	37979.87
535.71	36893.86
535.88	37551.56
536.05	37848.80
536.22	37937.74
536.38	38059.45
536.55	37715.39
536.72	38012.64
536.89	37507.08
537.06	37883.91
537.23	38155.41
537.40	38225.63
537.57	37677.94
537.74	37727.10
537.91	38059.45
538.08	38433.94
538.25	37675.60
538.42	38136.69
538.59	38550.96
538.75	38199.88
538.92	38761.61
539.09	38295.85
539.26	38682.03
539.43	38707.78
539.60	38885.66
539.77	39033.11
539.94	39585.48
540.11	38623.52
540.28	38890.34
540.44	38974.60
540.61	39000.35
540.78	38691.40
540.95	38487.77
541.12	38916.09
541.29	38923.11
541.46	39140.78
541.62	39154.82
541.79	39140.78
541.96	39124.40
542.13	39030.77
542.30	39290.57
542.47	39316.32
542.63	39524.63
542.80	39711.87
542.97	39608.89
543.14	39463.77
543.31	39756.34
543.48	39779.74
543.64	40041.88
543.81	39803.15
543.98	40123.80
544.15	40065.29
544.32	40287.64
544.48	40821.28
544.65	40198.70
544.82	40395.31
544.99	40051.25
545.16	40535.74
545.32	39892.09
545.49	40769.79
545.66	40718.30
545.83	40601.27
546.00	40921.93
546.16	40397.65
546.33	40397.65
546.50	40559.14
546.67	40753.41
546.83	40112.10
547.00	40488.93
547.17	40528.72
547.34	40797.88
547.50	41137.26
547.67	41408.76
547.84	41008.53
548.00	41200.45
548.17	41556.21
548.34	41390.03
548.51	41237.90
548.67	41280.03
548.84	41216.83
549.01	41184.07
549.18	41141.94
549.34	41603.02
549.51	41251.94
549.68	41628.77
549.84	41153.64
550.01	41429.82
550.18	41251.94
550.34	41319.82
550.51	41415.78
550.68	41649.83
550.84	41450.89
551.01	41813.67
551.18	41834.74
551.34	41418.12
551.51	41865.16
551.68	41593.66
551.84	41504.72
552.01	41743.45
552.18	41696.64
552.34	41645.15
552.51	42307.52
552.68	41666.22
552.84	42052.41
553.01	42555.62
553.18	41989.21
553.34	41993.89
553.51	42050.06
553.67	42513.49
553.84	42511.15
554.01	42223.26
554.17	42651.58
554.34	42611.79
554.51	42298.16
554.67	42700.73
554.84	42391.78
555.00	42232.63
555.17	42527.53
555.33	42813.08
555.50	42258.37
555.67	42319.23
555.83	42087.51
556.00	42738.18
556.16	43531.62
556.33	42946.49
556.50	42674.99
556.66	42700.73
556.83	42286.46
556.99	43012.02
557.16	43309.27
557.32	43065.86
557.49	43012.02
557.65	42880.95
557.82	43100.97
557.98	42904.36
558.15	43203.95
558.32	43442.68
558.48	42806.06
558.65	42941.81
558.81	43281.19
558.98	43569.07
559.14	42663.28
559.31	42937.13
559.47	43328.00
559.64	43793.76
559.80	43175.86
559.97	43468.43
560.13	43248.42
560.30	43309.27
560.46	43250.76
560.63	43861.64
560.79	43899.09
560.96	44069.95
561.12	43854.62
561.29	43423.96
561.45	43854.62
561.61	43445.02
561.78	43543.33
561.94	43494.18
562.11	43821.85
562.27	43562.05
562.44	43599.50
562.60	43515.24
562.77	43548.01
562.93	43220.33
563.10	44156.55
563.26	43873.34
563.42	44168.25
563.59	43648.65
563.75	43758.66
563.92	44151.87
564.08	44030.16
564.24	43924.83
564.41	43913.13
564.57	43789.08
564.74	44095.69
564.90	43622.90
565.07	43983.35
565.23	44135.48
565.39	43676.74
565.56	44369.54
565.72	43920.15
565.88	44271.23
566.05	44140.16
566.21	44107.40
566.38	44481.88
566.54	44423.37
566.70	44350.81
566.87	44669.12
567.03	44102.71
567.19	44645.72
567.36	44098.03
567.52	44182.29
567.68	44524.01
567.85	43866.32
568.01	44531.03
568.17	44247.83
568.34	44416.35
568.50	44320.38
568.66	44273.57
568.83	44158.89
568.99	44435.07
569.15	44519.33
569.32	44538.05
569.48	44060.58
569.64	44720.62
569.81	44320.38
569.97	44357.83
570.13	45162.98
570.30	44252.51
570.46	44446.77
570.62	44671.46
570.78	44622.31
570.95	44498.26
571.11	44975.73
571.27	45116.17
571.43	44491.24
571.60	44172.93
571.76	44591.89
571.92	44488.90
572.09	44793.17
572.25	44055.90
572.41	44421.03
572.57	44938.29
572.74	45139.57
572.90	44474.86
573.06	44928.92
573.22	44634.02
573.38	44755.72
573.55	45013.18
573.71	45345.54
573.87	44619.97
574.03	44921.90
574.20	44851.69
574.36	44589.55
574.52	44987.44
574.68	45158.30
574.84	44905.52
575.01	44971.05
575.17	44800.19
575.33	45125.53
575.49	45099.78
575.65	45015.52
575.82	45088.08
575.98	44849.35
576.14	45647.47
576.30	45120.85
576.46	44877.43
576.62	44818.92
576.79	45036.59
576.95	44549.76
577.11	44940.63
577.27	45015.52
577.43	44584.86
577.59	45104.46
577.75	44594.23
577.92	44851.69
578.08	44624.65
578.24	45120.85
578.40	45333.84
578.56	45240.21
578.72	45228.51
578.88	45268.30
579.04	45162.98
579.21	44669.12
579.37	45450.86
579.53	45034.25
579.69	44854.03
579.85	44882.11
580.01	44818.92
580.17	45092.76
580.33	45247.24
580.49	44987.44
580.65	45256.60
580.82	45034.25
580.98	44985.10
581.14	44634.02
581.30	45137.23
581.46	44858.71
581.62	45378.31
581.78	44982.76
581.94	45193.40
582.10	44987.44
582.26	45017.86
582.42	45244.90
582.58	45184.04
582.74	45483.63
582.90	45003.82
583.06	45165.32
583.22	44636.36
583.38	45378.31
583.54	45525.76
583.70	44811.90
583.86	45301.07
584.02	45216.81
584.18	46099.19
584.34	45530.44
584.50	45263.62
584.66	45390.01
584.82	45207.45
584.98	45317.45
585.14	45673.21
585.30	45059.99
585.46	45352.56
585.62	45270.64
585.78	45481.29
585.94	44940.63
586.10	45411.07
586.26	45027.23
586.42	45160.64
586.58	45254.26
586.74	45069.36
586.90	45485.97
587.06	45202.77
587.22	45492.99
587.38	45059.99
587.54	45347.88
587.70	45694.28
587.86	45174.68
588.02	45366.60
588.18	45504.70
588.34	45062.33
588.49	45502.35
588.65	45214.47
588.81	45375.97
588.97	45752.79
589.13	45268.30
589.29	45373.63
589.45	45769.18
589.61	45249.58
589.77	45439.16
589.93	45523.42
590.08	45827.69
590.24	46146.00
590.40	46078.13
590.56	45921.31
590.72	45979.82
590.88	45757.47
591.04	45808.96
591.20	45825.35
591.35	45647.47
591.51	45893.22
591.67	45713.00
591.83	45940.04
591.99	45923.65
592.15	45811.31
592.31	45808.96
592.46	45703.64
592.62	45738.75
592.78	45848.75
592.94	45663.85
593.10	46202.18
593.26	45914.29
593.41	45846.41
593.57	46099.19
593.73	46305.16
593.89	46216.22
594.05	46209.20
594.20	45785.56
594.36	46333.24
594.52	46263.03
594.68	46054.72
594.84	45680.24
594.99	46536.87
595.15	45865.14
595.31	45823.01
595.47	45717.68
595.62	45893.22
595.78	45925.99
595.94	45813.65
596.10	45780.88
596.25	46085.15
596.41	46548.57
596.57	46045.36
596.73	46270.05
596.88	46260.69
597.04	45916.63
597.20	46293.46
597.36	46361.33
597.51	46150.68
597.67	45738.75
597.83	45928.33
597.99	46429.21
598.14	45947.06
598.30	46237.28
598.46	45780.88
598.61	46117.92
598.77	46401.12
598.93	46068.76
599.09	46284.09
599.24	46632.83
599.40	46295.80
599.56	46225.58
599.71	46213.88
599.87	46693.69
600.03	46349.63
600.18	46438.57
600.34	46078.13
600.50	45907.27
600.65	46164.73
600.81	46607.09
600.97	46586.02
601.12	46211.54
601.28	46248.99
601.44	46391.76
601.59	46120.26
601.75	45879.18
601.91	46267.71
602.06	46373.03
602.22	46445.59
602.37	46457.29
602.53	46363.67
602.69	46326.22
602.84	46258.35
603.00	46078.13
603.16	46363.67
603.31	46101.53
603.47	46356.65
603.62	46382.40
603.78	46141.32
603.94	46335.59
604.09	46277.07
604.25	46127.28
604.40	46026.63
604.56	46337.93
604.71	46452.61
604.87	46319.20
605.03	46045.36
605.18	45897.91
605.34	45961.10
605.49	45743.43
605.65	45984.51
605.80	46181.11
605.96	46017.27
606.12	45907.27
606.27	45998.55
606.43	45872.16
606.58	46160.05
606.74	46323.88
606.89	46232.60
607.05	46431.55
607.20	46368.35
607.36	46351.97
607.51	46298.14
607.67	46075.79
607.82	45764.49
607.98	45687.26
608.13	45691.94
608.29	45729.39
608.44	45963.44
608.60	45865.14
608.75	46349.63
608.91	45628.74
609.06	45556.19
609.22	45911.95
609.37	45605.34
609.53	46190.47
609.68	45972.80
609.84	46220.90
609.99	46059.40
610.15	46244.30
610.30	45818.33
610.46	45792.58
610.61	45598.32
610.76	45736.41
610.92	45509.38
611.07	45261.28
611.23	45511.72
611.38	46007.91
611.54	45979.82
611.69	46068.76
611.84	45925.99
612.00	45654.49
612.15	45020.20
612.31	45996.21
612.46	45668.53
612.62	45621.72
612.77	45598.32
612.92	46059.40
613.08	45425.12
613.23	45631.08
613.39	45680.24
613.54	45359.58
613.69	45429.80
613.85	45390.01
614.00	45439.16
614.15	45853.44
614.31	45469.59
614.46	45670.87
614.62	45291.71
614.77	45584.27
614.92	45177.02
615.08	45244.90
615.23	45698.96
615.38	45736.41
615.54	45432.14
615.69	45181.70
615.84	45492.99
616.00	45382.99
616.15	45446.18
616.30	45413.41
616.46	45247.24
616.61	45556.19
616.76	45542.14
616.92	44982.76
617.07	45375.97
617.22	44875.09
617.37	44512.31
617.53	45235.53
617.68	44800.19
617.83	44868.07
617.99	45769.18
618.14	45624.06
618.29	44900.84
618.45	44701.89
618.60	45071.70
618.75	44194.00
618.90	45153.62
619.06	44697.21
619.21	44900.84
619.36	45146.59
619.51	44949.99
619.67	44924.24
619.82	45294.05
619.97	44947.65
620.12	44879.77
620.28	44942.97
620.43	45237.87
620.58	45038.93
620.73	44783.81
620.89	44999.14
621.04	44971.05
621.19	45064.67
621.34	44811.90
621.49	44657.42
621.65	44708.91
621.80	44971.05
621.95	44779.13
622.10	44734.66
622.25	44491.24
622.41	44680.83
622.56	44332.09
622.71	44650.40
622.86	44533.37
623.01	44725.30
623.16	44516.99
623.32	44584.86
623.47	44598.91
623.62	44339.11
623.77	44629.34
623.92	44488.90
624.07	44683.17
624.23	44570.82
624.38	44687.85
624.53	44596.57
624.68	44414.01
624.83	44343.79
624.98	44205.70
625.13	44151.87
625.29	43929.51
625.44	44343.79
625.59	44055.90
625.74	44444.43
625.89	44030.16
626.04	44177.61
626.19	44025.48
626.34	43625.25
626.49	43910.79
626.65	43552.69
626.80	44191.65
626.95	43622.90
627.10	43594.82
627.25	43812.49
627.40	44116.76
627.55	43758.66
627.70	43365.45
627.85	43856.96
628.00	43594.82
628.15	43695.46
628.30	43306.93
628.45	43187.56
628.60	43117.35
628.76	43555.03
628.91	43466.09
629.06	43220.33
629.21	43180.54
629.36	43119.69
629.51	43185.22
629.66	43487.15
629.81	43423.96
629.96	43290.55
630.11	43136.07
630.26	43459.07
630.41	43250.76
630.56	43367.79
630.71	43264.80
630.86	43112.67
631.01	43051.81
631.16	43061.18
631.31	43529.28
631.46	42997.98
631.61	43344.38
631.76	43154.80
631.91	43597.16
632.06	43840.57
632.21	43105.65
632.36	43276.51
632.51	42883.30
632.66	42885.64
632.81	42981.60
632.96	43103.31
633.10	43100.97
633.25	43136.07
633.40	42639.88
633.55	43019.05
633.70	42588.39
633.85	42389.44
634.00	42419.87
634.15	42574.34
634.30	42691.37
634.45	42782.65
634.60	42782.65
634.75	42721.80
634.90	42586.05
635.05	43040.11
635.19	42532.22
635.34	42794.36
635.49	42546.26
635.64	42277.10
635.79	42703.07
635.94	42508.81
636.09	42698.39
636.24	42375.40
636.39	42564.98
636.53	42588.39
636.68	41706.01
636.83	41984.53
636.98	42124.96
637.13	41706.01
637.28	42281.78
637.43	41930.70
637.57	42024.32
637.72	42014.96
637.87	41743.45
638.02	41886.23
638.17	42249.01
638.32	41429.82
638.46	41469.61
638.61	41497.70
638.76	42096.88
638.91	41722.39
639.06	42019.64
639.20	41263.64
639.35	42010.28
639.50	42003.25
639.65	41581.96
639.80	41984.53
639.94	41907.29
640.09	41706.01
640.24	41631.11
640.39	41572.60
640.54	41546.85
640.68	41717.71
640.83	41481.31
640.98	41701.32
641.13	41308.11
641.27	41720.05
641.42	41525.78
641.57	41504.72
641.72	41619.41
641.86	41808.99
642.01	41268.33
642.16	41064.70
642.31	40837.67
642.45	41539.83
642.60	41265.99
642.75	41251.94
642.90	41586.64
643.04	41060.02
643.19	40910.22
643.34	41181.73
643.48	40751.07
643.63	41223.86
643.78	41408.76
643.93	41514.08
644.07	41158.32
644.22	41078.74
644.37	40907.88
644.51	41060.02
644.66	40856.39
644.81	41186.41
644.95	41539.83
645.10	40903.20
645.25	40699.58
645.39	40666.81
645.54	40615.32
645.69	40430.41
645.83	40786.18
645.98	40491.27
646.13	40587.23
646.27	40395.31
646.42	40109.76
646.57	40624.68
646.71	40774.47
646.86	41174.70
647.00	40849.37
647.15	40573.19
647.30	41102.15
647.44	40629.36
647.59	40414.03
647.74	40208.06
647.88	40718.30
648.03	40517.01
648.17	40781.49
648.32	40673.83
648.47	41045.97
648.61	40318.07
648.76	39988.05
648.90	40404.67
649.05	40727.66
649.20	40399.99
649.34	40509.99
649.49	40409.35
649.63	40062.95
649.78	40112.10
649.92	40107.42
650.07	40767.45
650.21	40488.93
650.36	40219.77
650.51	40575.53
650.65	40271.26
650.80	40397.65
650.94	40079.33
651.09	39917.84
651.23	40034.86
651.38	39962.31
651.52	39590.16
651.67	39409.94
651.81	39746.98
651.96	39931.88
652.10	39646.33
652.25	39613.57
652.39	39835.92
652.54	39990.39
652.68	39414.62
652.83	39629.95
652.97	39770.38
653.12	39569.10
653.26	39655.70
653.41	39648.68
653.55	39777.40
653.70	40048.91
653.84	39674.42
653.99	39948.26
654.13	39739.96
654.27	39182.91
654.42	39522.29
654.56	39285.89
654.71	39199.29
654.85	39622.93
655.00	39786.77
655.14	39620.59
655.29	39789.11
655.43	39454.41
655.57	38721.82
655.72	39108.01
655.86	38824.81
656.01	39161.84
656.15	39313.98
656.30	39295.25
656.44	39009.71
656.58	39196.95
656.73	38941.83
656.87	39115.03
657.01	38707.78
657.16	39093.97
657.30	39253.12
657.45	38721.82
657.59	38773.31
657.73	38817.78
657.88	38785.02
658.02	38955.88
658.16	39115.03
658.31	39091.63
658.45	39208.65
658.60	38398.83
658.74	38820.13
658.88	38972.26
659.03	38735.87
659.17	38295.85
659.31	38071.15
659.46	37972.85
659.60	38410.53
659.74	37963.49
659.89	38316.91
660.03	38146.05
660.17	38232.65
660.32	38068.81
660.46	38029.02
660.60	37968.17
660.74	38047.75
660.89	37734.12
661.03	37940.08
661.17	37668.58
661.32	37628.79
661.46	38234.99
661.60	37619.43
661.74	37619.43
661.89	37766.88
662.03	37605.39
662.17	37579.64
662.31	37294.10
662.46	37177.07
662.60	37261.33
662.74	36889.18
662.88	37537.51
663.03	37099.83
663.17	37097.49
663.31	36968.76
663.45	37247.29
663.60	37528.15
663.74	37046.00
663.88	37064.72
664.02	36652.79
664.17	36954.72
664.31	37078.77
664.45	36727.69
664.59	36795.56
664.73	36395.33
664.88	36734.71
665.02	36079.36
665.16	36652.79
665.30	36369.58
665.44	36467.89
665.59	36233.83
665.73	36077.02
665.87	35529.33
666.01	36243.20
666.15	36346.18
666.29	35751.68
666.44	36318.09
666.58	36079.36
666.72	36011.48
666.86	36116.81
667.00	35981.06
667.14	35440.39
667.28	35676.79
667.43	35969.35
667.57	35924.88
667.71	35791.47
667.85	36189.36
667.99	35674.45
668.13	35248.47
668.27	35051.86
668.41	35395.92
668.56	34967.60
668.70	34511.20
668.84	34618.86
668.98	34883.34
669.12	34806.11
669.26	35072.93
669.40	34658.65
669.54	34857.60
669.68	34752.27
669.82	34738.23
669.96	34326.30
670.10	34218.63
670.25	34426.94
670.39	34146.08
670.53	34293.53
670.67	33986.92
670.81	34691.42
670.95	34218.63
671.09	34195.23
671.23	34043.09
671.37	34625.89
671.51	33907.34
671.65	33886.28
671.79	33785.63
671.93	33865.21
672.07	33734.14
672.21	33535.20
672.35	33659.24
672.49	33338.59
672.63	33567.96
672.77	32973.47
672.91	33659.24
673.05	33195.82
673.19	33301.14
673.33	32865.80
673.47	33235.61
673.61	32748.78
673.75	32643.45
673.89	32830.69
674.03	32847.08
674.17	32568.55
674.31	32175.34
674.45	31950.65
674.59	32545.15
674.73	32013.85
674.87	31964.70
675.01	32189.39
675.15	31606.59
675.29	31777.45
675.43	32018.53
675.56	31831.29
675.70	31831.29
675.84	31564.46
675.98	30698.47
676.12	31168.91
676.26	31566.81
676.40	31072.95
676.54	31187.64
676.68	31110.40
676.82	30525.27
676.96	31405.31
677.10	31131.47
677.23	30431.65
677.37	30546.33
677.51	30635.27
677.65	30670.38
677.79	30630.59
677.93	30436.33
678.07	30050.14
678.21	29860.55
678.34	29769.27
678.48	29607.78
678.62	29668.63
678.76	29633.52
678.90	29572.67
679.04	30052.48
679.18	30298.23
679.31	29406.49
679.45	29418.19
679.59	29172.44
679.73	29163.08
679.87	28964.13
680.00	29099.88
680.14	28802.63
680.28	28816.68
680.42	28706.67
680.56	28692.63
680.70	28187.07
680.83	28215.16
680.97	28247.93
681.11	28149.62
681.25	28173.03
681.39	28147.28
681.52	27892.16
681.66	27529.38
681.80	27534.06
681.94	27407.67
682.07	27463.85
682.21	27087.02
682.35	27199.37
682.49	26991.06
682.62	27192.34
682.76	27152.55
682.90	27414.69
683.04	27021.48
683.17	26565.08
683.31	26691.47
683.45	26574.44
683.59	26375.50
683.72	26417.63
683.86	26600.19
684.00	26195.28
684.13	26073.57
684.27	26136.76
684.41	25771.64
684.55	25839.51
684.68	25809.09
684.82	25376.09
684.96	25476.73
685.09	25640.57
685.23	25579.71
685.37	25947.18
685.50	25633.55
685.64	25638.23
685.78	25223.95
685.91	25188.85
686.05	24856.49
686.19	24531.15
686.32	24390.72
686.46	24290.08
686.60	24177.73
686.73	24353.27
686.87	24130.92
687.01	24201.14
687.14	24236.25
687.28	24297.10
687.42	23983.47
687.55	23735.37
687.69	24177.73
687.82	23786.86
687.96	23805.59
688.10	23634.73
688.23	23323.44
688.37	23613.66
688.50	23644.09
688.64	23257.90
688.78	23388.97
688.91	22948.95
689.05	23269.61
689.18	22965.34
689.32	22434.03
689.46	22682.13
689.59	22518.29
689.73	22771.07
689.86	22789.80
690.00	22387.22
690.13	22342.75
690.27	22195.30
690.41	22317.01
690.54	21837.20
690.68	22019.76
690.81	21598.46
690.95	21619.53
691.08	21495.48
691.22	21532.93
691.35	21350.37
691.49	21673.36
691.62	21319.94
691.76	21003.97
691.89	21003.97
692.03	20821.41
692.16	20404.79
692.30	20798.00
692.43	20842.47
692.57	20348.62
692.70	20306.49
692.84	20570.97
692.97	19960.09
693.11	20020.94
693.24	19974.13
693.38	19850.08
693.51	20011.58
693.65	19833.70
693.78	19777.53
693.92	19852.42
694.05	19578.58
694.19	19384.32
694.32	19735.40
694.45	19510.71
694.59	19534.11
694.72	19550.49
694.86	19337.51
694.99	19187.71
695.13	18977.06
695.26	18738.33
695.39	18801.52
695.53	18441.08
695.66	18647.05
695.80	18164.90
695.93	18518.32
696.07	18167.24
696.20	18061.91
696.33	18235.11
696.47	17869.99
696.60	18059.57
696.73	18162.56
696.87	18335.76
697.00	18082.98
697.14	17525.93
697.27	17366.78
697.40	17708.49
697.54	17661.68
697.67	17128.04
697.80	17334.01
697.94	17095.27
698.07	17069.53
698.21	17179.53
698.34	17247.41
698.47	17095.27
698.61	16592.06
698.74	16954.84
698.87	16563.97
699.01	16606.10
699.14	16386.09
699.27	16643.55
699.40	16500.78
699.54	16180.12
699.67	16102.89
699.80	16217.57
699.94	16198.85
700.07	16053.73
700.20	15925.00
700.34	15969.48
700.47	15704.99
700.60	15829.04
700.73	15798.62
700.87	15679.25
701.00	15536.48
701.13	15316.47
701.26	14988.79
701.40	15089.43
701.53	15059.01
701.66	15201.78
701.79	15012.20
701.93	14778.14
702.06	14857.72
702.19	14677.50
702.32	14675.16
702.46	14558.13
702.59	14705.59
702.72	14740.69
702.85	14658.78
702.99	14618.99
703.12	14356.85
703.25	14047.90
703.38	14134.50
703.51	14338.12
703.65	13862.99
703.78	13687.45
703.91	13514.25
704.04	13776.39
704.17	13738.94
704.31	13720.22
704.44	13652.34
704.57	13858.31
704.70	13535.32
704.83	13507.23
704.96	13228.71
705.10	13114.02
705.23	13217.01
>>>>>End Processed Spectral Data<<<<<
