SpectraSuite Data File
++++++++++++++++++++++++++++++++++++
Date: Fri Oct 25 10:44:18 EDT 2013
User: price-jones
Dark Spectrum Present: No
Reference Spectrum Present: No
Number of Sampled Component Spectra: 1
Spectrometers: USB2+H05261
Integration Time (usec): 100000 (USB2+H05261)
Spectra Averaged: 1 (USB2+H05261)
Boxcar Smoothing: 0 (USB2+H05261)
Correct for Electrical Dark: No (USB2+H05261)
Strobe/Lamp Enabled: No (USB2+H05261)
Correct for Detector Non-linearity: No (USB2+H05261)
Correct for Stray Light: No (USB2+H05261)
Number of Pixels in Processed Spectrum: 2048
>>>>>Begin Processed Spectral Data<<<<<
365.73	102.98
365.92	102.98
366.12	102.98
366.32	42.13
366.52	0.00
366.72	70.22
366.91	30.43
367.11	53.83
367.31	0.00
367.51	42.13
367.70	23.41
367.90	9.36
368.10	65.54
368.30	23.41
368.49	0.00
368.69	0.00
368.89	95.96
369.09	37.45
369.28	95.96
369.48	105.32
369.68	53.83
369.87	91.28
370.07	93.62
370.27	147.45
370.47	135.75
370.66	425.98
370.86	451.72
371.06	458.74
371.25	524.28
371.45	477.47
371.65	463.43
371.84	477.47
372.04	437.68
372.24	461.09
372.44	526.62
372.63	461.09
372.83	475.13
373.03	447.04
373.22	479.81
373.42	425.98
373.62	561.73
373.81	559.39
374.01	699.82
374.21	566.41
374.40	461.09
374.60	704.50
374.79	559.39
374.99	571.09
375.19	561.73
375.38	554.71
375.58	610.88
375.78	566.41
375.97	533.64
376.17	596.84
376.37	662.37
376.56	582.79
376.76	554.71
376.95	608.54
377.15	606.20
377.35	683.44
377.54	645.99
377.74	657.69
377.93	678.76
378.13	676.41
378.33	753.65
378.52	676.41
378.72	706.84
378.91	613.22
379.11	688.12
379.31	643.65
379.50	622.58
379.70	805.14
379.89	645.99
380.09	688.12
380.28	718.54
380.48	730.25
380.68	795.78
380.87	702.16
381.07	746.63
381.26	695.14
381.46	718.54
381.65	730.25
381.85	812.17
382.04	725.57
382.24	730.25
382.43	741.95
382.63	706.84
382.83	704.50
383.02	727.91
383.22	767.70
383.41	713.86
383.61	730.25
383.80	812.17
384.00	770.04
384.19	746.63
384.39	770.04
384.58	823.87
384.78	760.67
384.97	772.38
385.17	854.30
385.36	779.40
385.56	765.36
385.75	795.78
385.95	814.51
386.14	814.51
386.34	793.44
386.53	877.70
386.72	786.42
386.92	830.89
387.11	896.43
387.31	842.59
387.50	929.19
387.70	940.90
387.89	861.32
388.09	882.38
388.28	854.30
388.48	940.90
388.67	976.00
388.86	938.55
389.06	912.81
389.25	980.68
389.45	917.49
389.64	980.68
389.84	1025.15
390.03	973.66
390.22	922.17
390.42	952.60
390.61	943.24
390.81	1053.24
391.00	1071.97
391.19	1146.86
391.39	1053.24
391.58	1132.82
391.78	1074.31
391.97	1039.20
392.16	1050.90
392.36	1123.46
392.55	1004.09
392.75	997.07
392.94	997.07
393.13	1018.13
393.33	1053.24
393.52	1156.22
393.71	1109.41
393.91	1057.92
394.10	1109.41
394.29	1146.86
394.49	1151.54
394.68	1203.04
394.88	1249.85
395.07	1249.85
395.26	1188.99
395.46	1306.02
395.65	1224.10
395.84	1247.51
396.04	1238.14
396.23	1102.39
396.42	1102.39
396.62	1233.46
396.81	1212.40
397.00	1198.35
397.19	1453.47
397.39	1336.45
397.58	1390.28
397.77	1401.98
397.97	1387.94
398.16	1394.96
398.35	1392.62
398.55	1434.75
398.74	1437.09
398.93	1643.06
399.12	1542.41
399.32	1507.30
399.51	1596.25
399.70	1607.95
399.90	1631.35
400.09	1600.93
400.28	1589.22
400.47	1586.88
400.67	1682.85
400.86	1650.08
401.05	1682.85
401.24	1785.83
401.44	1692.21
401.63	1713.27
401.82	1813.92
402.01	1722.63
402.21	1886.47
402.40	1849.02
402.59	1872.43
402.78	1785.83
402.97	1867.75
403.17	1771.79
403.36	1872.43
403.55	1914.56
403.74	1778.81
403.93	1984.77
404.13	1895.83
404.32	1856.04
404.51	1919.24
404.70	1994.14
404.89	1912.22
405.09	2024.56
405.28	1923.92
405.47	1930.94
405.66	1987.11
405.85	1994.14
406.05	1991.80
406.24	1944.99
406.43	1982.43
406.62	2139.25
406.81	2228.19
407.00	2111.16
407.20	2134.57
407.39	2179.04
407.58	2211.81
407.77	2251.60
407.96	2244.57
408.15	2272.66
408.34	2223.51
408.54	2307.77
408.73	2342.88
408.92	2396.71
409.11	2363.94
409.30	2314.79
409.49	2331.17
409.68	2361.60
409.87	2275.00
410.07	2385.01
410.26	2445.86
410.45	2492.67
410.64	2410.75
410.83	2565.23
411.02	2593.31
411.21	2588.63
411.40	2605.02
411.59	2665.87
411.78	2586.29
411.98	2581.61
412.17	2670.55
412.36	2679.91
412.55	2637.78
412.74	2939.71
412.93	2708.00
413.12	2796.94
413.31	2958.44
413.50	2904.60
413.69	2888.22
413.88	2960.78
414.07	2892.90
414.26	2977.16
414.45	3021.63
414.64	3068.44
414.83	3080.14
415.02	3089.51
415.22	3117.59
415.41	3279.09
415.60	3155.04
415.79	3309.52
415.98	3272.07
416.17	3206.53
416.36	3253.34
416.55	3309.52
416.74	3314.20
416.93	3332.92
417.12	3330.58
417.31	3344.63
417.50	3410.16
417.69	3520.17
417.88	3517.83
418.07	3576.34
418.26	3400.80
418.45	3538.89
418.64	3566.98
418.83	3595.06
419.02	3606.77
419.21	3698.05
419.39	3648.90
419.58	3686.34
419.77	3658.26
419.96	3583.36
420.15	3796.35
420.34	3824.44
420.53	3836.14
420.72	3836.14
420.91	3960.19
421.10	3833.80
421.29	3831.46
421.48	3918.06
421.67	3852.52
421.86	3934.44
422.05	3709.75
422.24	3747.20
422.43	3829.12
422.61	3847.84
422.80	3899.33
422.99	3939.12
423.18	3995.29
423.37	4023.38
423.56	3939.12
423.75	4002.32
423.94	3964.87
424.13	3817.41
424.32	3906.35
424.50	4170.83
424.69	3995.29
424.88	3976.57
425.07	3901.67
425.26	3941.46
425.45	4070.19
425.64	3941.46
425.83	4023.38
426.01	4161.47
426.20	4128.70
426.39	4056.15
426.58	3967.21
426.77	3997.64
426.96	3999.98
427.15	4112.32
427.33	4084.23
427.52	4187.22
427.71	4191.90
427.90	4131.05
428.09	4248.07
428.28	4278.50
428.46	4208.28
428.65	4264.46
428.84	4311.27
429.03	4339.35
429.22	4196.58
429.40	4205.94
429.59	4329.99
429.78	3964.87
429.97	3889.97
430.16	4126.36
430.34	4159.13
430.53	4243.39
430.72	4217.65
430.91	4166.15
431.10	4285.52
431.28	4599.15
431.47	4660.01
431.66	4957.25
431.85	4519.57
432.03	4638.94
432.22	4788.74
432.41	4599.15
432.60	4662.35
432.79	4828.53
432.97	4793.42
433.16	4821.50
433.35	4781.71
433.54	4671.71
433.72	4833.21
433.91	4800.44
434.10	4891.72
434.28	4919.81
434.47	4943.21
434.66	5081.30
434.85	5055.56
435.03	5102.37
435.22	5048.54
435.41	5188.97
435.59	5266.21
435.78	5090.67
435.97	5310.68
436.16	5320.04
436.34	5203.01
436.53	5195.99
436.72	5341.10
436.90	5256.84
437.09	5252.16
437.28	5284.93
437.46	5135.14
437.65	5315.36
437.84	5291.95
438.02	5224.08
438.21	5249.82
438.40	5111.73
438.58	5486.22
438.77	5479.19
438.96	5411.32
439.14	5774.10
439.33	5664.10
439.52	5722.61
439.70	5638.35
439.89	5792.83
440.08	5769.42
440.26	5753.04
440.45	5748.36
440.63	5977.73
440.82	6094.76
441.01	5909.85
441.19	6038.58
441.38	6087.73
441.57	6122.84
441.75	6382.64
441.94	6326.47
442.12	6305.40
442.31	6572.22
442.50	6424.77
442.68	6478.60
442.87	6471.58
443.05	6518.39
443.24	6464.56
443.43	6436.47
443.61	6511.37
443.80	6609.67
443.98	6567.54
444.17	6324.13
444.35	6761.81
444.54	6773.51
444.73	6633.08
444.91	6841.39
445.10	6527.75
445.28	6541.80
445.47	6497.33
445.65	6548.82
445.84	6670.53
446.02	6684.57
446.21	6672.87
446.39	6691.59
446.58	6792.23
446.77	6600.31
446.95	6705.63
447.14	6909.26
447.32	6815.64
447.51	6675.21
447.69	6771.17
447.88	6705.63
448.06	6794.58
448.25	6899.90
448.43	6899.90
448.62	6839.05
448.80	7021.61
448.99	6897.56
449.17	6813.30
449.36	6906.92
449.54	7234.60
449.73	7208.85
449.91	7115.23
450.10	7307.15
450.28	7386.73
450.46	7463.97
450.65	7283.75
450.83	7382.05
451.02	7243.96
451.20	7260.34
451.39	7353.96
451.57	7372.69
451.76	7236.94
451.94	7304.81
452.13	7421.84
452.31	7314.17
452.49	7295.45
452.68	7258.00
452.86	7325.88
453.05	7356.30
453.23	7531.84
453.42	7407.80
453.60	7499.08
453.78	7639.51
453.97	7403.11
454.15	7470.99
454.34	7487.37
454.52	7527.16
454.70	7719.09
454.89	7630.15
455.07	7751.85
455.26	7896.97
455.44	7899.31
455.62	7871.22
455.81	7866.54
455.99	8147.40
456.17	7983.57
456.36	7885.26
456.54	8070.17
456.73	8081.87
456.91	8327.63
457.09	8269.11
457.28	8344.01
457.46	8374.44
457.64	8369.76
457.83	8369.76
458.01	8236.35
458.19	8304.22
458.38	8126.34
458.56	8465.72
458.74	8306.56
458.93	8386.14
459.11	8407.20
459.29	8404.86
459.48	8472.74
459.66	8557.00
459.84	8479.76
460.03	8676.37
460.21	8592.11
460.39	8547.64
460.57	8407.20
460.76	8674.03
460.94	8627.21
461.12	8842.54
461.31	8727.86
461.49	8849.57
461.67	8950.21
461.85	9025.11
462.04	9015.74
462.22	9310.65
462.40	9181.92
462.59	8940.85
462.77	9146.81
462.95	9151.49
463.13	9083.62
463.32	8973.61
463.50	9172.56
463.68	9100.00
463.86	9191.28
464.05	8999.36
464.23	8954.89
464.41	9401.93
464.59	9092.98
464.78	9324.69
464.96	9291.93
465.14	9174.90
465.32	9371.50
465.50	9507.26
465.69	9320.01
465.87	9376.19
466.05	9467.47
466.23	9404.27
466.41	9507.26
466.60	9511.94
466.78	9338.74
466.96	9289.59
467.14	9593.86
467.32	9500.23
467.51	9544.70
467.69	9259.16
467.87	9640.67
468.05	9769.40
468.23	9437.04
468.41	9635.99
468.60	9675.77
468.78	9724.93
468.96	9554.07
469.14	10019.83
469.32	9844.29
469.50	9593.86
469.69	10164.95
469.87	9856.00
470.05	10045.58
470.23	10047.92
470.41	9984.73
470.59	10026.86
470.77	10111.11
470.95	10104.09
471.14	10253.89
471.32	10148.56
471.50	10401.34
471.68	10256.23
471.86	10607.31
472.04	10523.05
472.22	10855.40
472.40	10279.63
472.58	10719.65
472.77	10555.82
472.95	10839.02
473.13	11063.71
473.31	10736.04
473.49	10621.35
473.67	10864.77
473.85	10871.79
474.03	11194.78
474.21	10932.64
474.39	11197.12
474.57	11192.44
474.75	11335.21
474.93	11250.96
475.12	11459.26
475.30	11300.11
475.48	11286.06
475.66	11623.10
475.84	11290.74
476.02	11492.03
476.20	11585.65
476.38	11744.81
476.56	12046.74
476.74	11861.84
476.92	11836.09
477.10	12002.27
477.28	12248.02
477.46	12315.90
477.64	12514.84
477.82	12573.36
478.00	12732.51
478.18	12835.50
478.36	12648.26
478.54	13032.10
478.72	12973.59
478.90	12978.27
479.08	13516.59
479.26	13401.91
479.44	13418.29
479.62	13418.29
479.80	13600.85
479.98	13802.14
480.16	13790.44
480.34	13654.69
480.52	13774.05
480.70	13905.12
480.88	13919.17
481.06	14031.51
481.24	14237.48
481.41	14506.64
481.59	14810.91
481.77	14593.24
481.95	14768.78
482.13	14871.76
482.31	14934.96
482.49	15363.28
482.67	14946.66
482.85	15145.61
483.03	15426.47
483.21	15428.81
483.39	15709.68
483.57	15704.99
483.74	15719.04
483.92	15964.79
484.10	15613.71
484.28	16107.57
484.46	16510.14
484.64	16449.28
484.82	16222.25
485.00	16861.22
485.18	16552.27
485.35	16737.17
485.53	16287.79
485.71	16374.39
485.89	16886.97
486.07	16484.39
486.25	16973.56
486.43	16872.92
486.61	17364.43
486.78	17619.55
486.96	17778.71
487.14	18111.07
487.32	18326.39
487.50	18111.07
487.68	18462.15
487.85	18941.96
488.03	18923.23
488.21	18647.05
488.39	18703.22
488.57	19206.44
488.75	18934.93
488.92	19517.73
489.10	19817.32
489.28	19644.12
489.46	20042.01
489.64	19915.62
489.81	20489.05
489.99	20355.64
490.17	20617.78
490.35	20458.62
490.53	20744.17
490.70	20842.47
490.88	20699.70
491.06	21191.21
491.24	20968.86
491.41	21160.78
491.59	21048.44
491.77	21223.98
491.95	21348.03
492.13	21633.57
492.30	21895.71
492.48	21858.26
492.66	21984.65
492.84	22319.35
493.01	22368.50
493.19	22436.38
493.37	22389.56
493.54	22740.64
493.72	23073.00
493.90	23026.19
494.08	23204.07
494.25	23337.48
494.43	23709.63
494.61	23468.55
494.79	24002.19
494.96	23836.02
495.14	23934.32
495.32	23828.99
495.49	24016.24
495.67	24233.91
495.85	24254.97
496.02	24563.92
496.20	24929.05
496.38	24769.89
496.55	24966.49
496.73	25352.68
496.91	25090.54
497.09	25289.49
497.26	25610.14
497.44	25420.56
497.62	25336.30
497.79	25493.12
497.97	25612.48
498.14	25607.80
498.32	26054.84
498.50	26022.08
498.67	26682.11
498.85	26267.83
499.03	26726.58
499.20	26574.44
499.38	26859.99
499.56	26639.98
499.73	26918.50
499.91	26637.64
500.08	27115.11
500.26	27072.98
500.44	27030.85
500.61	26850.63
500.79	26951.27
500.97	27290.65
501.14	27604.28
501.32	27463.85
501.49	27466.19
501.67	27583.21
501.84	27651.09
502.02	27833.65
502.20	27882.80
502.37	28243.24
502.55	28016.21
502.72	28521.77
502.90	28486.66
503.07	28666.88
503.25	28158.99
503.43	28299.42
503.60	28393.04
503.78	28601.35
503.95	28671.56
504.13	28830.72
504.30	29050.73
504.48	29191.16
504.65	29270.74
504.83	29493.09
505.01	29415.85
505.18	29600.76
505.36	30192.91
505.53	29954.18
505.71	30092.27
505.88	29907.37
506.06	29694.38
506.23	30319.30
506.41	30038.44
506.58	30150.78
506.76	30391.86
506.93	30494.84
507.11	30518.25
507.28	30331.00
507.46	30246.74
507.63	30731.23
507.81	30611.87
507.98	30569.74
508.16	30338.02
508.33	31700.22
508.50	31154.87
508.68	31154.87
508.85	31732.98
509.03	31264.88
509.20	31613.62
509.38	32013.85
509.55	31122.10
509.73	31576.17
509.90	32177.68
510.08	31730.64
510.25	31922.57
510.42	32093.43
510.60	32037.25
510.77	32301.73
510.95	32835.38
511.12	32699.62
511.30	32807.29
511.47	32659.84
511.64	32774.52
511.82	33102.20
511.99	32545.15
512.17	33053.05
512.34	32718.35
512.51	33439.23
512.69	33336.25
512.86	33069.43
513.04	33413.49
513.21	33113.90
513.38	32989.85
513.56	33560.94
513.73	33137.30
513.90	33436.89
514.08	33043.68
514.25	33582.01
514.43	33490.73
514.60	33345.61
514.77	33582.01
514.95	33631.16
515.12	34167.14
515.29	34178.84
515.47	34543.97
515.64	34218.63
515.81	33895.64
515.99	34368.43
516.16	34316.93
516.33	33860.53
516.51	34253.74
516.68	33851.17
516.85	33516.47
517.03	34178.84
517.20	34288.85
517.37	34995.69
517.54	35180.59
517.72	34543.97
517.89	34146.08
518.06	34583.76
518.24	34616.52
518.41	34628.23
518.58	34785.04
518.75	34995.69
518.93	35288.26
519.10	35140.80
519.27	35496.56
519.45	35625.29
519.62	36201.07
519.79	35751.68
519.96	35981.06
520.14	36023.19
520.31	35786.79
520.48	36100.42
520.65	35735.30
520.83	36484.27
521.00	36519.38
521.17	36395.33
521.34	36957.06
521.52	36297.03
521.69	36570.87
521.86	36755.77
522.03	36910.25
522.20	36641.09
522.38	37064.72
522.55	36884.50
522.72	36797.90
522.89	36856.42
523.07	37273.03
523.24	37024.93
523.41	37589.00
523.58	37088.13
523.75	37811.35
523.92	37530.49
524.10	37963.49
524.27	37741.14
524.44	37787.95
524.61	38045.41
524.78	37921.36
524.96	37914.34
525.13	37935.40
525.30	38113.28
525.47	39091.63
525.64	37961.15
525.81	38031.36
525.98	38036.05
526.16	37944.76
526.33	37893.27
526.50	38274.78
526.67	37923.70
526.84	37731.78
527.01	37944.76
527.18	38246.69
527.36	38579.05
527.53	38876.30
527.70	39262.49
527.87	38466.70
528.04	38965.24
528.21	38820.13
528.38	38763.95
528.55	38916.09
528.72	39510.58
528.89	39704.85
529.07	39173.55
529.24	39100.99
529.41	39594.84
529.58	39255.46
529.75	39679.10
529.92	39470.79
530.09	39461.43
530.26	39709.53
530.43	39908.47
530.60	39309.30
530.77	39426.32
530.94	39974.01
531.11	39695.49
531.28	39990.39
531.46	40187.00
531.63	40041.88
531.80	39632.29
531.97	39962.31
532.14	40088.70
532.31	39435.69
532.48	40081.67
532.65	39849.96
532.82	40107.42
532.99	40708.94
533.16	40285.30
533.33	40477.22
533.50	40549.78
533.67	40395.31
533.84	40385.94
534.01	40027.84
534.18	40502.97
534.35	40786.18
534.52	41045.97
534.69	40704.26
534.86	41043.63
535.03	41001.50
535.20	41298.75
535.37	41521.10
535.54	41708.35
535.71	41177.04
535.88	41385.35
536.05	40755.75
536.22	41251.94
536.38	41340.88
536.55	41537.49
536.72	41069.38
536.89	40989.80
537.06	41464.93
537.23	41284.71
537.40	41167.68
537.57	41347.90
537.74	41778.56
537.91	42057.09
538.08	41961.12
538.25	41483.66
538.42	41691.96
538.59	42333.27
538.75	41469.61
538.92	41420.46
539.09	41940.06
539.26	41647.49
539.43	41364.29
539.60	42120.28
539.77	41858.14
539.94	41956.44
540.11	41652.17
540.28	41689.62
540.44	41879.21
540.61	41670.90
540.78	41853.46
540.95	41890.91
541.12	42136.66
541.29	42178.79
541.46	42576.69
541.62	42307.52
541.79	42485.40
541.96	42036.02
542.13	42656.26
542.30	42202.20
542.47	42557.96
542.63	42546.26
542.80	42602.43
542.97	43302.25
543.14	43416.94
543.31	42969.90
543.48	43241.40
543.64	43463.75
543.81	43372.47
543.98	43590.14
544.15	43353.74
544.32	43454.39
544.48	43468.43
544.65	43758.66
544.82	43328.00
544.99	43309.27
545.16	43824.19
545.32	43526.94
545.49	44266.55
545.66	43702.48
545.83	43627.59
546.00	44048.88
546.16	43679.08
546.33	43405.23
546.50	43798.44
546.67	43569.07
546.83	43423.96
547.00	43517.58
547.17	43503.54
547.34	43786.74
547.50	44189.31
547.67	43943.56
547.84	43959.94
548.00	44025.48
548.17	44655.08
548.34	44287.62
548.51	44559.12
548.67	43929.51
548.84	44385.92
549.01	44041.86
549.18	44072.29
549.34	44065.27
549.51	44245.49
549.68	44404.64
549.84	44367.20
550.01	44369.54
550.18	44437.41
550.34	44683.17
550.51	44533.37
550.68	44910.20
550.84	44030.16
551.01	44402.30
551.18	44610.61
551.34	44697.21
551.51	44463.16
551.68	44484.22
551.84	44872.75
552.01	44348.47
552.18	44903.18
552.34	44737.00
552.51	44711.25
552.68	44914.88
552.84	44814.24
553.01	45099.78
553.18	45158.30
553.34	44318.04
553.51	44502.95
553.67	45223.83
553.84	45057.65
554.01	45326.81
554.17	45434.48
554.34	45518.74
554.51	45160.64
554.67	45305.75
554.84	45422.78
555.00	45282.34
555.17	45155.96
555.33	45558.53
555.50	44919.56
555.67	45095.10
555.83	45464.91
556.00	45418.10
556.16	45586.61
556.33	45801.94
556.50	45427.46
556.66	45490.65
556.83	45200.43
556.99	45263.62
557.16	45628.74
557.32	45347.88
557.49	45631.08
557.65	45380.65
557.82	45345.54
557.98	45574.91
558.15	45492.99
558.32	45713.00
558.48	45429.80
558.65	45471.93
558.81	44980.42
558.98	45170.00
559.14	45837.05
559.31	45638.11
559.47	45319.79
559.64	45570.23
559.80	45914.29
559.97	45450.86
560.13	45621.72
560.30	45954.08
560.46	45916.63
560.63	45895.56
560.79	46040.68
560.96	45764.49
561.12	45645.13
561.29	45897.91
561.45	46155.36
561.61	45785.56
561.78	45656.83
561.94	45656.83
562.11	46003.23
562.27	46003.23
562.44	45975.14
562.60	45893.22
562.77	46340.27
562.93	45907.27
563.10	45813.65
563.26	45677.90
563.42	46220.90
563.59	45783.22
563.75	46094.51
563.92	46087.49
564.08	45958.76
564.24	46469.00
564.41	46181.11
564.57	45851.09
564.74	45668.53
564.90	45808.96
565.07	45958.76
565.23	46122.60
565.39	45968.12
565.56	46078.13
565.72	45933.01
565.88	46265.37
566.05	45940.04
566.21	45942.38
566.38	46571.98
566.54	45961.10
566.70	46586.02
566.87	46967.53
567.03	46361.33
567.19	46951.15
567.36	46586.02
567.52	46169.41
567.68	46520.49
567.85	46323.88
568.01	46101.53
568.17	46110.89
568.34	46340.27
568.50	46366.01
568.66	46267.71
568.83	46319.20
568.99	45825.35
569.15	45954.08
569.32	45855.78
569.48	46190.47
569.64	46485.38
569.81	46375.37
569.97	46597.73
570.13	46443.25
570.30	46312.18
570.46	45902.59
570.62	46155.36
570.78	46174.09
570.95	45998.55
571.11	46061.74
571.27	46045.36
571.43	46213.88
571.60	46127.28
571.76	45940.04
571.92	46113.23
572.09	46536.87
572.25	46113.23
572.41	46232.60
572.57	46536.87
572.74	47114.98
572.90	46590.70
573.06	46457.29
573.22	46272.39
573.38	46829.44
573.55	46099.19
573.71	46834.12
573.87	46714.75
574.03	46426.87
574.20	46941.78
574.36	46794.33
574.52	46532.19
574.68	46286.43
574.84	46443.25
575.01	46649.22
575.17	46597.73
575.33	46115.58
575.49	46534.53
575.65	46707.73
575.82	46808.37
575.98	46511.13
576.14	46710.07
576.30	46660.92
576.46	46461.97
576.62	46333.24
576.79	46595.38
576.95	46293.46
577.11	46658.58
577.27	46480.70
577.43	46323.88
577.59	46295.80
577.75	46555.60
577.92	46433.89
578.08	46330.90
578.24	46281.75
578.40	46445.59
578.56	46497.08
578.72	46117.92
578.88	46916.04
579.04	46635.17
579.21	46794.33
579.37	46621.13
579.53	46616.45
579.69	46389.42
579.85	46583.68
580.01	46806.03
580.17	46553.26
580.33	46740.50
580.49	46693.69
580.65	46714.75
580.82	46916.04
580.98	46330.90
581.14	46284.09
581.30	46883.27
581.46	46717.09
581.62	46916.04
581.78	46595.38
581.94	46911.36
582.10	47012.00
582.26	46894.97
582.42	46726.46
582.58	46710.07
582.74	46452.61
582.90	46848.16
583.06	47306.91
583.22	46766.24
583.38	46625.81
583.54	46707.73
583.70	46674.96
583.86	46822.42
584.02	46574.32
584.18	46808.37
584.34	46623.47
584.50	46855.18
584.66	46630.49
584.82	46518.15
584.98	46843.48
585.14	46670.28
585.30	46431.55
585.46	46712.41
585.62	46520.49
585.78	46590.70
585.94	46700.71
586.10	46288.77
586.26	46368.35
586.42	46911.36
586.58	46756.88
586.74	46892.63
586.90	46412.82
587.06	46745.18
587.22	46485.38
587.38	46373.03
587.54	46667.94
587.70	46677.30
587.86	46721.77
588.02	46237.28
588.18	46693.69
588.34	46672.62
588.49	46129.62
588.65	46012.59
588.81	45972.80
588.97	46312.18
589.13	46138.98
589.29	46171.75
589.45	46623.47
589.61	46550.91
589.77	46653.90
589.93	46569.64
590.08	46679.64
590.24	46803.69
590.40	46887.95
590.56	47107.96
590.72	46843.48
590.88	46885.61
591.04	46782.63
591.20	47007.32
591.35	46930.08
591.51	47180.52
591.67	46976.89
591.83	46974.55
591.99	46515.81
592.15	47026.04
592.31	46873.91
592.46	46787.31
592.62	46721.77
592.78	46932.42
592.94	47236.69
593.10	47143.07
593.26	46731.14
593.41	46642.20
593.57	46958.17
593.73	46745.18
593.89	46733.48
594.05	46681.98
594.20	46878.59
594.36	47012.00
594.52	46796.67
594.68	46562.62
594.84	46777.95
594.99	47234.35
595.15	46681.98
595.31	47068.17
595.47	46499.42
595.62	46520.49
595.78	47107.96
595.94	47065.83
596.10	47215.63
596.25	47089.24
596.41	47281.16
596.57	46824.76
596.73	47091.58
596.88	46557.94
597.04	46855.18
597.20	47019.02
597.36	46918.38
597.51	47075.19
597.67	46958.17
597.83	47016.68
597.99	47206.26
598.14	46738.16
598.30	47147.75
598.46	46981.57
598.61	46820.08
598.77	46754.54
598.93	47012.00
599.09	46707.73
599.24	47140.73
599.40	47007.32
599.56	46653.90
599.71	47056.47
599.87	46876.25
600.03	46735.82
600.18	46721.77
600.34	46602.41
600.50	47302.23
600.65	46431.55
600.81	47224.99
600.97	47075.19
601.12	46986.25
601.28	46899.65
601.44	46539.21
601.59	46504.10
601.75	46616.45
601.91	46724.11
602.06	46284.09
602.22	46789.65
602.37	46579.00
602.53	46525.17
602.69	46845.82
602.84	46546.23
603.00	46817.74
603.16	47213.29
603.31	46813.05
603.47	46649.22
603.62	46340.27
603.78	46672.62
603.94	46569.64
604.09	47107.96
604.25	47023.70
604.40	46555.60
604.56	46894.97
604.71	46836.46
604.87	46188.13
605.03	46749.86
605.18	46195.15
605.34	46834.12
605.49	46387.08
605.65	46880.93
605.80	46464.32
605.96	46967.53
606.12	46677.30
606.27	46794.33
606.43	46724.11
606.58	46452.61
606.74	46471.34
606.89	46461.97
607.05	46515.81
607.20	46628.15
607.36	46295.80
607.51	46461.97
607.67	46981.57
607.82	46693.69
607.98	46733.48
608.13	46461.97
608.29	46167.07
608.44	46157.70
608.60	46167.07
608.75	46164.73
608.91	46473.68
609.06	46658.58
609.22	46478.36
609.37	46256.01
609.53	46625.81
609.68	46211.54
609.84	46265.37
609.99	46314.52
610.15	45989.19
610.30	46515.81
610.46	46019.61
610.61	46162.39
610.76	45794.92
610.92	46272.39
611.07	46066.42
611.23	46227.92
611.38	45907.27
611.54	45881.52
611.69	45813.65
611.84	45928.33
612.00	45778.54
612.15	46087.49
612.31	46078.13
612.46	45902.59
612.62	46071.10
612.77	46043.02
612.92	46078.13
613.08	46010.25
613.23	46335.59
613.39	45546.82
613.54	45471.93
613.69	45769.18
613.85	45525.76
614.00	45720.02
614.15	46216.22
614.31	45591.30
614.46	45942.38
614.62	45551.51
614.77	45731.73
614.92	45474.27
615.08	45743.43
615.23	45354.90
615.38	45485.97
615.54	45387.67
615.69	45570.23
615.84	45045.95
616.00	45034.25
616.15	45125.53
616.30	45343.20
616.46	45378.31
616.61	45492.99
616.76	44919.56
616.92	44875.09
617.07	45354.90
617.22	45095.10
617.37	45099.78
617.53	45406.39
617.68	45006.16
617.83	45265.96
617.99	45265.96
618.14	45209.79
618.29	45193.40
618.45	44744.02
618.60	44652.74
618.75	45048.29
618.90	44891.48
619.06	45078.72
619.21	45069.36
619.36	45172.34
619.51	44832.96
619.67	44547.42
619.82	45188.72
619.97	45329.16
620.12	44809.56
620.28	44664.44
620.43	44715.93
620.58	45104.46
620.73	44818.92
620.89	44591.89
621.04	44919.56
621.19	44582.52
621.34	44776.79
621.49	44135.48
621.65	44027.82
621.80	44458.48
621.95	44776.79
622.10	44460.82
622.25	43948.24
622.41	44168.25
622.56	43990.37
622.71	44589.55
622.86	44252.51
623.01	43887.39
623.16	44313.36
623.32	43913.13
623.47	44196.34
623.62	43936.54
623.77	44294.64
623.92	44105.06
624.07	44170.59
624.23	43990.37
624.38	43648.65
624.53	43669.72
624.68	44327.41
624.83	43995.05
624.98	43978.67
625.13	43746.95
625.29	43751.63
625.44	43508.22
625.59	42934.79
625.74	43538.65
625.89	43232.04
626.04	43571.41
626.19	43491.83
626.34	43480.13
626.49	43438.00
626.65	43620.56
626.80	43800.79
626.95	43805.47
627.10	43501.20
627.25	43548.01
627.40	42969.90
627.55	42890.32
627.70	42459.66
627.85	43107.99
628.00	42878.61
628.15	42972.24
628.30	43056.50
628.45	42808.40
628.60	42979.26
628.76	43246.08
628.91	43597.16
629.06	43089.26
629.21	42518.17
629.36	42724.14
629.51	42799.04
629.66	42564.98
629.81	42897.34
629.96	43215.65
630.11	42525.19
630.26	43278.85
630.41	43164.16
630.56	42759.25
630.71	43051.81
630.86	42724.14
631.01	42396.46
631.16	42904.36
631.31	42209.22
631.46	41806.65
631.61	42419.87
631.76	42808.40
631.91	42251.35
632.06	42667.97
632.21	43222.67
632.36	42714.78
632.51	42291.14
632.66	42478.38
632.81	42059.43
632.96	42085.17
633.10	42230.29
633.25	42298.16
633.40	42220.92
633.55	42508.81
633.70	41834.74
633.85	42197.52
634.00	42284.12
634.15	42342.63
634.30	42391.78
634.45	42394.12
634.60	42117.94
634.75	41844.10
634.90	42045.38
635.05	42141.35
635.19	41525.78
635.34	42096.88
635.49	42124.96
635.64	41483.66
635.79	41790.27
635.94	41717.71
636.09	41591.32
636.24	41785.58
636.39	41420.46
636.53	41881.55
636.68	41455.57
636.83	41844.10
636.98	41411.10
637.13	41535.15
637.28	41792.61
637.43	41715.37
637.57	41961.12
637.72	41663.88
637.87	41617.07
638.02	41315.14
638.17	41598.34
638.32	41689.62
638.46	41394.71
638.61	41596.00
638.76	40919.59
638.91	41455.57
639.06	41364.29
639.20	41570.25
639.35	41544.51
639.50	41698.98
639.65	41713.03
639.80	41212.15
639.94	41378.33
640.09	40807.24
640.24	41118.53
640.39	40502.97
640.54	41024.91
640.68	40811.92
640.83	40744.05
640.98	40617.66
641.13	40711.28
641.27	41127.89
641.42	41038.95
641.57	40851.71
641.72	40568.51
641.86	40589.57
642.01	40168.27
642.16	40554.46
642.31	40243.17
642.45	41043.63
642.60	40210.40
642.75	40357.86
642.90	40582.55
643.04	40395.31
643.19	40645.74
643.34	40378.92
643.48	40088.70
643.63	40325.09
643.78	40161.25
643.93	40034.86
644.07	39917.84
644.22	40334.45
644.37	40023.16
644.51	40203.38
644.66	40549.78
644.81	40350.84
644.95	40549.78
645.10	40435.10
645.25	40236.15
645.39	40212.74
645.54	40105.08
645.69	39889.75
645.83	40114.44
645.98	40425.73
646.13	40030.18
646.27	40168.27
646.42	39531.65
646.57	39438.03
646.71	39871.03
646.86	40037.20
647.00	39936.56
647.15	39875.71
647.30	39636.97
647.44	39672.08
647.59	39438.03
647.74	39295.25
647.88	39693.15
648.03	39749.32
648.17	39812.51
648.32	39641.65
648.47	39562.08
648.61	39459.09
648.76	39924.86
648.90	39337.38
649.05	39405.26
649.20	39447.39
649.34	39316.32
649.49	39276.53
649.63	39271.85
649.78	39323.34
649.92	39311.64
650.07	39515.26
650.21	39405.26
650.36	39508.24
650.51	39100.99
650.65	39618.25
650.80	39571.44
650.94	39758.68
651.09	39173.55
651.23	39629.95
651.38	39281.21
651.52	38948.85
651.67	38995.67
651.81	39105.67
651.96	38845.87
652.10	38471.39
652.25	38944.17
652.39	38899.70
652.54	39012.05
652.68	38735.87
652.83	38810.76
652.97	38822.47
653.12	38866.94
653.26	38625.86
653.41	38712.46
653.55	38302.87
653.70	38885.66
653.84	38724.16
653.99	38565.01
654.13	38361.38
654.27	38660.97
654.42	38703.10
654.56	38162.43
654.71	38419.89
654.85	38602.46
655.00	38670.33
655.14	38094.56
655.29	38012.64
655.43	38052.43
655.57	37741.14
655.72	37982.21
655.86	37399.42
656.01	37481.34
656.15	37371.33
656.30	37453.25
656.44	37710.71
656.58	37722.41
656.73	37687.31
656.87	37827.74
657.01	37783.27
657.16	37963.49
657.30	37659.22
657.45	37406.44
657.59	37476.66
657.73	37631.13
657.88	37947.11
658.02	37729.44
658.16	38230.31
658.31	37860.51
658.45	37682.62
658.60	37490.70
658.74	37900.29
658.88	37652.20
659.03	37677.94
659.17	37404.10
659.31	37144.30
659.46	37408.78
659.60	37256.65
659.74	37607.73
659.89	37207.50
660.03	36875.14
660.17	36821.31
660.32	36950.04
660.46	37617.09
660.60	36987.49
660.74	36910.25
660.89	37095.15
661.03	36797.90
661.17	36334.48
661.32	36437.46
661.46	36432.78
661.60	37158.34
661.74	36755.77
661.89	36622.36
662.03	36655.13
662.17	36252.56
662.31	36708.96
662.46	36472.57
662.60	36559.17
662.74	35964.67
662.88	36257.24
663.03	36060.63
663.17	35707.21
663.31	35707.21
663.45	36044.25
663.60	36175.32
663.74	35622.95
663.88	36177.66
664.02	35634.66
664.17	35948.29
664.31	35508.27
664.45	35842.96
664.59	35864.03
664.73	35269.53
664.88	35508.27
665.02	35180.59
665.16	35566.78
665.30	34972.28
665.44	35510.61
665.59	35274.21
665.73	35367.84
665.87	35110.38
666.01	35463.80
666.15	34890.37
666.29	35374.86
666.44	34918.45
666.58	34513.54
666.72	34939.52
666.86	34998.03
667.00	34843.56
667.14	34132.03
667.28	34370.77
667.43	34614.18
667.57	34726.53
667.71	34513.54
667.85	34368.43
667.99	34457.37
668.13	34330.98
668.27	34490.13
668.41	34356.72
668.56	34204.59
668.70	34258.42
668.84	34555.67
668.98	33598.39
669.12	34031.39
669.26	33617.11
669.40	33809.04
669.54	33558.60
669.68	33790.31
669.82	33483.70
669.96	33626.48
670.10	33422.85
670.25	33525.83
670.39	33553.92
670.53	33296.46
670.67	33123.26
670.81	33266.03
670.95	33909.68
671.09	32898.57
671.23	33085.81
671.37	32744.09
671.51	33074.11
671.65	33104.54
671.79	32556.85
671.93	32708.99
672.07	33174.75
672.21	32893.89
672.35	32425.78
672.49	32570.90
672.63	32598.98
672.77	32561.53
672.91	32732.39
673.05	32250.24
673.19	32395.35
673.33	32421.10
673.47	31648.72
673.61	32079.38
673.75	31824.26
673.89	31550.42
674.03	31358.50
674.17	31735.32
674.31	31578.51
674.45	31267.22
674.59	31955.33
674.73	31541.06
674.87	31424.03
675.01	31400.63
675.15	31409.99
675.29	31189.98
675.43	31159.55
675.56	31435.74
675.70	30815.49
675.84	30801.45
675.98	30363.77
676.12	31112.74
676.26	30600.16
676.40	31087.00
676.54	30492.50
676.68	30649.32
676.82	29820.77
676.96	30373.13
677.10	30064.18
677.23	30050.14
677.37	30225.68
677.51	29703.74
677.65	29617.14
677.79	29591.39
677.93	29546.92
678.07	29392.45
678.21	29205.20
678.34	29102.22
678.48	28704.33
678.62	29041.37
678.76	28643.48
678.90	28524.11
679.04	28917.32
679.18	28678.58
679.31	28379.00
679.45	28381.34
679.59	27817.27
679.73	28479.64
679.87	28292.40
680.00	28070.04
680.14	28158.99
680.28	28091.11
680.42	27920.25
680.56	27967.06
680.70	27777.48
680.83	27737.69
680.97	27400.65
681.11	27866.42
681.25	27402.99
681.39	27758.75
681.52	27325.75
681.66	27742.37
681.80	27367.88
681.94	27274.26
682.07	27112.77
682.21	26909.14
682.35	26712.53
682.49	27002.76
682.62	27072.98
682.76	26422.31
682.90	26251.45
683.04	26096.97
683.17	26246.77
683.31	26141.44
683.45	26064.21
683.59	25888.67
683.72	25993.99
683.86	25858.24
684.00	25841.85
684.13	25745.89
684.27	26047.82
684.41	25589.08
684.55	25287.15
684.68	25294.17
684.82	25560.99
684.96	25235.66
685.09	25516.52
685.23	25088.20
685.37	25053.09
685.50	24929.05
685.64	25020.33
685.78	24800.32
685.91	24395.40
686.05	24500.73
686.19	23976.45
686.32	24418.81
686.46	24011.56
686.60	23702.61
686.73	23627.71
686.87	23199.39
687.01	23517.70
687.14	23267.27
687.28	23168.96
687.42	22960.66
687.55	23285.99
687.69	23433.44
687.82	23232.16
687.96	23293.01
688.10	23236.84
688.23	22930.23
688.37	22654.05
688.50	22773.41
688.64	22843.63
688.78	22731.28
688.91	22773.41
689.05	22375.52
689.18	22265.52
689.32	22192.96
689.46	22101.68
689.59	22228.07
689.73	22288.92
689.86	22239.77
690.00	21757.62
690.13	21907.41
690.27	21914.44
690.41	21951.88
690.54	21404.20
690.68	21357.39
690.81	21593.78
690.95	21474.42
691.08	21376.11
691.22	21532.93
691.35	21619.53
691.49	21268.45
691.62	21095.25
691.76	20924.39
691.89	21369.09
692.03	20769.91
692.16	20507.77
692.30	20561.61
692.43	20538.20
692.57	20329.89
692.70	20437.56
692.84	20369.68
692.97	19857.10
693.11	19887.53
693.24	19873.49
693.38	20086.48
693.51	20023.28
693.65	20130.95
693.78	19693.27
693.92	19754.12
694.05	19903.92
694.19	19580.92
694.32	19353.89
694.45	19337.51
694.59	18885.78
694.72	19049.62
694.86	19276.65
694.99	18937.27
695.13	18857.70
695.26	19042.60
695.39	18827.27
695.53	19044.94
695.66	18993.45
695.80	18607.26
695.93	18831.95
696.07	18576.83
696.20	18464.49
696.33	18211.71
696.47	18288.95
696.60	18263.20
696.73	18054.89
696.87	17734.24
697.00	17771.69
697.14	17996.38
697.27	17928.50
697.40	17851.27
697.54	18061.91
697.67	17404.22
697.80	17577.42
697.94	17139.74
698.07	17305.92
698.21	17050.80
698.34	17102.29
698.47	17097.61
698.61	16793.34
698.74	16758.24
698.87	16798.02
699.01	16493.76
699.14	16276.09
699.27	16624.83
699.40	16606.10
699.54	16475.03
699.67	16423.54
699.80	16397.79
699.94	16315.87
700.07	16152.04
700.20	16065.44
700.34	15967.13
700.47	16060.76
700.60	16273.74
700.73	15609.03
700.87	16308.85
701.00	15990.54
701.13	16016.29
701.26	15751.81
701.40	15468.60
701.53	15321.15
701.66	15798.62
701.79	15382.00
701.93	15281.36
702.06	15035.60
702.19	15026.24
702.32	15243.91
702.46	14904.53
702.59	14817.93
702.72	14949.00
702.85	14895.17
702.99	14850.70
703.12	14614.30
703.25	14452.81
703.38	14424.72
703.51	14703.25
703.65	14459.83
703.78	14504.30
703.91	14326.42
704.04	14209.39
704.17	14031.51
704.31	14181.31
704.44	14073.64
704.57	14045.55
704.70	13984.70
704.83	13926.19
704.96	13855.97
705.10	13834.91
705.23	13877.04
>>>>>End Processed Spectral Data<<<<<
