SpectraSuite Data File
++++++++++++++++++++++++++++++++++++
Date: Fri Oct 25 11:33:32 EDT 2013
User: price-jones
Dark Spectrum Present: No
Reference Spectrum Present: No
Number of Sampled Component Spectra: 1
Spectrometers: USB2+H05261
Integration Time (usec): 100000 (USB2+H05261)
Spectra Averaged: 1 (USB2+H05261)
Boxcar Smoothing: 0 (USB2+H05261)
Correct for Electrical Dark: No (USB2+H05261)
Strobe/Lamp Enabled: No (USB2+H05261)
Correct for Detector Non-linearity: No (USB2+H05261)
Correct for Stray Light: No (USB2+H05261)
Number of Pixels in Processed Spectrum: 2048
>>>>>Begin Processed Spectral Data<<<<<
365.73	283.20
365.92	283.20
366.12	283.20
366.32	220.01
366.52	215.33
366.72	259.80
366.91	194.26
367.11	180.22
367.31	191.92
367.51	138.09
367.70	131.07
367.90	243.42
368.10	182.56
368.30	229.37
368.49	149.79
368.69	156.82
368.89	189.58
369.09	220.01
369.28	177.88
369.48	177.88
369.68	196.60
369.87	222.35
370.07	217.67
370.27	205.97
370.47	358.10
370.66	479.81
370.86	535.98
371.06	517.26
371.25	500.87
371.45	566.41
371.65	554.71
371.84	535.98
372.04	603.86
372.24	566.41
372.44	566.41
372.63	580.45
372.83	615.56
373.03	559.39
373.22	624.92
373.42	603.86
373.62	641.31
373.81	540.66
374.01	592.16
374.21	650.67
374.40	622.58
374.60	653.01
374.79	653.01
374.99	650.67
375.19	638.97
375.38	662.37
375.58	669.39
375.78	711.52
375.97	725.57
376.17	763.01
376.37	615.56
376.56	716.20
376.76	648.33
376.95	606.20
377.15	676.41
377.35	697.48
377.54	718.54
377.74	706.84
377.93	681.10
378.13	697.48
378.33	638.97
378.52	709.18
378.72	772.38
378.91	697.48
379.11	709.18
379.31	695.14
379.50	674.07
379.70	751.31
379.89	709.18
380.09	741.95
380.28	716.20
380.48	664.71
380.68	744.29
380.87	615.56
381.07	748.97
381.26	779.40
381.46	690.46
381.65	737.27
381.85	779.40
382.04	798.12
382.24	727.91
382.43	711.52
382.63	753.65
382.83	709.18
383.02	798.12
383.22	795.78
383.41	805.14
383.61	812.17
383.80	866.00
384.00	786.42
384.19	866.00
384.39	889.40
384.58	800.46
384.78	866.00
384.97	823.87
385.17	805.14
385.36	840.25
385.56	858.98
385.75	760.67
385.95	861.32
386.14	837.91
386.34	765.36
386.53	924.51
386.72	840.25
386.92	903.45
387.11	863.66
387.31	910.47
387.50	905.79
387.70	887.06
387.89	922.17
388.09	910.47
388.28	882.38
388.48	866.00
388.67	887.06
388.86	945.58
389.06	924.51
389.25	933.87
389.45	976.00
389.64	936.21
389.84	973.66
390.03	1090.69
390.22	985.37
390.42	898.77
390.61	936.21
390.81	903.45
391.00	936.21
391.19	992.39
391.39	976.00
391.58	1046.22
391.78	957.28
391.97	1001.75
392.16	1027.50
392.36	1046.22
392.55	1064.94
392.75	1160.91
392.94	1046.22
393.13	1076.65
393.33	1086.01
393.52	1029.84
393.71	1067.28
393.91	1116.44
394.10	1074.31
394.29	1086.01
394.49	1139.84
394.68	1109.41
394.88	1093.03
395.07	1111.75
395.26	1200.69
395.46	1170.27
395.65	1158.57
395.84	1167.93
396.04	1270.91
396.23	1226.44
396.42	1057.92
396.62	1191.33
396.81	1219.42
397.00	1167.93
397.19	1200.69
397.39	1172.61
397.58	1221.76
397.77	1219.42
397.97	1219.42
398.16	1249.85
398.35	1277.93
398.55	1273.25
398.74	1294.32
398.93	1364.53
399.12	1296.66
399.32	1296.66
399.51	1263.89
399.70	1306.02
399.90	1310.70
400.09	1310.70
400.28	1371.55
400.47	1268.57
400.67	1385.60
400.86	1390.28
401.05	1425.39
401.24	1439.43
401.44	1502.62
401.63	1533.05
401.82	1497.94
402.01	1486.24
402.21	1441.77
402.40	1444.11
402.59	1507.30
402.78	1504.96
402.97	1479.22
403.17	1462.83
403.36	1509.65
403.55	1575.18
403.74	1607.95
403.93	1661.78
404.13	1645.40
404.32	1600.93
404.51	1537.73
404.70	1640.72
404.89	1561.14
405.09	1666.46
405.28	1762.42
405.47	1781.15
405.66	1811.57
405.85	1682.85
406.05	1727.32
406.24	1760.08
406.43	1668.80
406.62	1739.02
406.81	1912.22
407.00	1746.04
407.20	1706.25
407.39	1792.85
407.58	1795.19
407.77	1933.28
407.96	1909.88
408.15	1949.67
408.34	1881.79
408.54	1853.70
408.73	1884.13
408.92	1867.75
409.11	1975.41
409.30	2097.12
409.49	2094.78
409.68	2029.24
409.87	1867.75
410.07	2076.06
410.26	2059.67
410.45	2087.76
410.64	1987.11
410.83	2057.33
411.02	2097.12
411.21	2193.08
411.40	2181.38
411.59	2111.16
411.78	2209.47
411.98	2099.46
412.17	2179.04
412.36	2223.51
412.55	2298.41
412.74	2282.02
412.93	2356.92
413.12	2331.17
413.31	2443.52
413.50	2410.75
413.69	2506.71
413.88	2352.24
414.07	2504.37
414.26	2530.12
414.45	2509.05
414.64	2534.80
414.83	2565.23
415.02	2640.12
415.22	2719.70
415.41	2703.32
415.60	2541.82
415.79	2621.40
415.98	2705.66
416.17	2619.06
416.36	2665.87
416.55	2700.98
416.74	2757.15
416.93	2775.88
417.12	2810.98
417.31	2885.88
417.50	2937.37
417.69	3047.38
417.88	2970.14
418.07	2939.71
418.26	2981.84
418.45	2958.44
418.64	3049.72
418.83	3068.44
419.02	2981.84
419.21	3150.36
419.39	3040.36
419.58	3089.51
419.77	3105.89
419.96	3255.69
420.15	3150.36
420.34	3243.98
420.53	3194.83
420.72	3262.71
420.91	3190.15
421.10	3300.16
421.29	3342.28
421.48	3176.11
421.67	3241.64
421.86	3218.24
422.05	3396.12
422.24	3283.77
422.43	3311.86
422.61	3398.46
422.80	3304.84
422.99	3412.50
423.18	3307.18
423.37	3400.80
423.56	3510.80
423.75	3463.99
423.94	3281.43
424.13	3187.81
424.32	3248.66
424.50	3527.19
424.69	3468.67
424.88	3499.10
425.07	3499.10
425.26	3344.63
425.45	3461.65
425.64	3492.08
425.83	3424.20
426.01	3527.19
426.20	3456.97
426.39	3414.84
426.58	3449.95
426.77	3611.45
426.96	3482.72
427.15	3449.95
427.33	3557.61
427.52	3536.55
427.71	3618.47
427.90	3658.26
428.09	3550.59
428.28	3749.54
428.46	3712.09
428.65	3698.05
428.84	3744.86
429.03	3691.02
429.22	3667.62
429.40	3662.94
429.59	3843.16
429.78	3585.70
429.97	3660.60
430.16	3922.74
430.34	3847.84
430.53	4044.45
430.72	3894.65
430.91	3782.31
431.10	3777.62
431.28	3925.08
431.47	3988.27
431.66	4056.15
431.85	3946.14
432.03	4009.34
432.22	4215.30
432.41	4030.40
432.60	4016.36
432.79	4042.11
432.97	4072.53
433.16	4037.42
433.35	4018.70
433.54	4124.02
433.72	4224.67
433.91	4154.45
434.10	4241.05
434.28	4194.24
434.47	4205.94
434.66	4306.59
434.85	4479.79
435.03	4299.56
435.22	4351.06
435.41	4411.91
435.59	4278.50
435.78	4435.32
435.97	4360.42
436.16	4449.36
436.34	4386.16
436.53	4318.29
436.72	4477.44
436.90	4493.83
437.09	4671.71
437.28	4367.44
437.46	4442.34
437.65	4444.68
437.84	4638.94
438.02	4547.66
438.21	4713.84
438.40	4610.86
438.58	4753.63
438.77	4784.06
438.96	4802.78
439.14	4844.91
439.33	4802.78
439.52	4917.47
439.70	4870.65
439.89	5011.09
440.08	4966.62
440.26	5067.26
440.45	4964.28
440.63	5226.42
440.82	5128.11
441.01	5088.32
441.19	5242.80
441.38	5249.82
441.57	5259.18
441.75	5308.34
441.94	5432.38
442.12	5336.42
442.31	5355.15
442.50	5444.09
442.68	5446.43
442.87	5432.38
443.05	5617.29
443.24	5579.84
443.43	5434.72
443.61	5516.64
443.80	5741.33
443.98	5558.77
444.17	5233.44
444.35	5561.11
444.54	5687.50
444.73	5582.18
444.91	5664.10
445.10	5692.18
445.28	5481.53
445.47	5526.00
445.65	5631.33
445.84	5696.86
446.02	5795.17
446.21	5699.20
446.39	5827.93
446.58	5666.44
446.77	5757.72
446.95	5678.14
447.14	5746.02
447.32	5844.32
447.51	5841.98
447.69	5774.10
447.88	5734.31
448.06	5818.57
448.25	5645.37
448.43	5788.14
448.62	5830.27
448.80	5741.33
448.99	5701.54
449.17	5844.32
449.36	5891.13
449.54	5951.98
449.73	6097.10
449.91	6270.30
450.10	6080.71
450.28	6122.84
450.46	6097.10
450.65	5970.71
450.83	6164.97
451.02	6267.95
451.20	6155.61
451.39	6195.40
451.57	6200.08
451.76	6005.81
451.94	6209.44
452.13	6340.51
452.31	6331.15
452.49	6134.54
452.68	6459.88
452.86	6277.32
453.05	6443.49
453.23	6279.66
453.42	6251.57
453.60	6256.25
453.78	6399.02
453.97	6314.77
454.15	6497.33
454.34	6450.52
454.52	6579.25
454.70	6492.65
454.89	6487.96
455.07	6527.75
455.26	6722.02
455.44	6707.98
455.62	6551.16
455.81	6616.69
455.99	6628.40
456.17	6853.09
456.36	6796.92
456.54	6834.36
456.73	6820.32
456.91	6911.60
457.09	6986.50
457.28	7073.10
457.46	6862.45
457.64	7199.49
457.83	7056.72
458.01	7056.72
458.19	7164.38
458.38	7077.78
458.56	7227.57
458.74	7379.71
458.93	7246.30
459.11	7208.85
459.29	7229.91
459.48	7218.21
459.66	7215.87
459.84	7489.71
460.03	7379.71
460.21	7456.95
460.39	7318.86
460.57	7389.07
460.76	7517.80
460.94	7634.83
461.12	7674.62
461.31	7485.03
461.49	7485.03
461.67	7485.03
461.85	7644.19
462.04	7534.18
462.22	8140.38
462.40	7676.96
462.59	7822.07
462.77	7822.07
462.95	7681.64
463.13	7779.94
463.32	7808.03
463.50	7953.14
463.68	8044.42
463.86	7983.57
464.05	7861.86
464.23	7784.62
464.41	7988.25
464.59	7728.45
464.78	8163.79
464.96	7815.05
465.14	7941.44
465.32	8255.07
465.50	8152.09
465.69	7995.27
465.87	8180.17
466.05	8063.15
466.23	8133.36
466.41	8255.07
466.60	8222.30
466.78	8283.16
466.96	8280.82
467.14	8182.51
467.32	8152.09
467.51	8468.06
467.69	8215.28
467.87	8205.92
468.05	8510.19
468.23	8187.19
468.41	8304.22
468.60	8306.56
468.78	8381.46
468.96	8397.84
469.14	8430.61
469.32	8603.81
469.50	8341.67
469.69	8744.24
469.87	8678.71
470.05	8664.66
470.23	8727.86
470.41	8887.01
470.59	8851.91
470.77	8758.28
470.95	8978.30
471.14	9060.21
471.32	8968.93
471.50	9048.51
471.68	8898.72
471.86	9039.15
472.04	8917.44
472.22	9446.40
472.40	9214.69
472.58	9188.94
472.77	9217.03
472.95	9418.32
473.13	9781.10
473.31	9458.10
473.49	9479.17
473.67	9383.21
473.85	9535.34
474.03	9610.24
474.21	9605.56
474.39	10001.11
474.57	9900.47
474.75	9963.66
474.93	10230.48
475.12	9825.57
475.30	9921.53
475.48	9886.42
475.66	10197.71
475.84	9951.96
476.02	10256.23
476.20	10090.05
476.38	10537.09
476.56	10700.93
476.74	10607.31
476.92	10569.86
477.10	10485.60
477.28	10759.44
477.46	10626.03
477.64	10663.48
477.82	10885.83
478.00	11136.27
478.18	10839.02
478.36	11180.74
478.54	11335.21
478.72	11225.21
478.90	11506.07
479.08	11571.61
479.26	11550.54
479.44	11566.93
479.62	11756.51
479.80	11913.33
479.98	12081.85
480.16	12170.79
480.34	12304.20
480.52	12084.19
480.70	12423.56
480.88	12093.55
481.06	12152.06
481.24	12549.95
481.41	12552.29
481.59	12746.56
481.77	12788.69
481.95	12954.87
482.13	12989.97
482.31	13060.19
482.49	13441.70
482.67	13331.69
482.85	13348.08
483.03	13717.88
483.21	13699.16
483.39	13811.50
483.57	13790.44
483.74	13680.43
483.92	14150.88
484.10	14038.53
484.28	14457.49
484.46	14530.05
484.64	14700.90
484.82	14368.55
485.00	14541.75
485.18	14654.09
485.35	14848.36
485.53	15098.80
485.71	15063.69
485.89	15456.90
486.07	15407.75
486.25	15616.05
486.43	15569.24
486.61	15793.94
486.78	15697.97
486.96	15880.53
487.14	15906.28
487.32	16123.95
487.50	16304.17
487.68	16716.11
487.85	16730.15
488.03	16592.06
488.21	16844.84
488.39	16791.00
488.57	17319.96
488.75	17305.92
488.92	17472.10
489.10	17621.89
489.28	17752.96
489.46	17947.23
489.64	17612.53
489.81	18565.13
489.99	18270.22
490.17	18267.88
490.35	18443.42
490.53	18459.81
490.70	18363.84
490.88	18389.59
491.06	18558.11
491.24	18834.29
491.41	18677.48
491.59	19386.66
491.77	19021.53
491.95	19475.60
492.13	19676.88
492.30	19711.99
492.48	19922.64
492.66	20046.69
492.84	19889.87
493.01	20130.95
493.19	20226.91
493.37	20245.63
493.54	20463.30
493.72	20865.88
493.90	20592.03
494.08	20650.55
494.25	20994.61
494.43	20847.15
494.61	21266.11
494.79	21888.69
494.96	21317.60
495.14	21544.63
495.32	21876.99
495.49	21813.79
495.67	21858.26
495.85	21825.50
496.02	21963.59
496.20	22314.67
496.38	22534.68
496.55	22534.68
496.73	23316.42
496.91	22595.53
497.09	22735.96
497.26	22852.99
497.44	22986.40
497.62	23206.41
497.79	23496.64
497.97	23433.44
498.14	23840.70
498.32	23520.04
498.50	23468.55
498.67	24170.71
498.85	23786.86
499.03	23967.09
499.20	24140.29
499.38	24217.52
499.56	24077.09
499.73	24290.08
499.91	24594.35
500.08	24772.23
500.26	24526.47
500.44	24842.45
500.61	24739.46
500.79	24814.36
500.97	24959.47
501.14	25598.44
501.32	25462.69
501.49	25376.09
501.67	25362.04
501.84	25635.89
502.02	25628.87
502.20	25420.56
502.37	25731.85
502.55	26043.14
502.72	26382.52
502.90	26089.95
503.07	25888.67
503.25	26174.21
503.43	25921.43
503.60	26501.89
503.78	26211.66
503.95	26087.61
504.13	26274.85
504.30	26827.22
504.48	27051.91
504.65	26897.44
504.83	26852.97
505.01	27213.41
505.18	27253.20
505.36	27070.64
505.53	27164.26
505.71	27124.47
505.88	27496.61
506.06	27606.62
506.23	27564.49
506.41	27445.12
506.58	27833.65
506.76	27360.86
506.93	27747.05
507.11	27594.92
507.28	27981.10
507.46	28041.96
507.63	28224.52
507.81	28751.14
507.98	28355.59
508.16	28683.27
508.33	28432.83
508.50	29099.88
508.68	28643.48
508.85	28821.36
509.03	29125.63
509.20	29186.48
509.38	29060.09
509.55	29509.47
509.73	29450.96
509.90	29029.66
510.08	29575.01
510.25	29539.90
510.42	29647.57
510.60	29610.12
510.77	29869.92
510.95	30024.39
511.12	29809.06
511.30	29949.50
511.47	29874.60
511.64	30532.29
511.82	30125.04
511.99	29706.08
512.17	30270.15
512.34	30773.36
512.51	30689.10
512.69	30911.46
512.86	30801.45
513.04	30848.26
513.21	30890.39
513.38	31189.98
513.56	31199.34
513.73	30960.61
513.90	31166.57
514.08	31122.10
514.25	31365.52
514.43	31557.44
514.60	31424.03
514.77	31630.00
514.95	31777.45
515.12	31803.20
515.29	31662.77
515.47	32105.13
515.64	31929.59
515.81	31866.39
515.99	31831.29
516.16	32268.97
516.33	32294.71
516.51	32371.95
516.68	32273.65
516.85	32238.54
517.03	32762.82
517.20	32807.29
517.37	32727.71
517.54	32978.15
517.72	32943.04
517.89	33064.75
518.06	32793.25
518.24	33144.33
518.41	33055.39
518.58	33715.42
518.75	33209.86
518.93	33104.54
519.10	33535.20
519.27	33645.20
519.45	33584.35
519.62	33890.96
519.79	34265.44
519.96	33937.77
520.14	34113.31
520.31	33481.36
520.48	34038.41
520.65	33825.42
520.83	34403.53
521.00	34167.14
521.17	34274.80
521.34	34623.54
521.52	34342.68
521.69	34223.31
521.86	34852.92
522.03	34794.40
522.20	35234.42
522.38	34998.03
522.55	35166.55
522.72	35157.19
522.89	34981.65
523.07	35447.41
523.24	35054.20
523.41	35374.86
523.58	35133.78
523.75	35370.18
523.92	35353.79
524.10	35555.08
524.27	35283.58
524.44	35772.75
524.61	36121.49
524.78	35765.73
524.96	35697.85
525.13	36142.55
525.30	36292.35
525.47	35814.88
525.64	35786.79
525.81	36297.03
525.98	36215.11
526.16	36231.49
526.33	36360.22
526.50	36706.62
526.67	35901.48
526.84	36884.50
527.01	36802.58
527.18	36650.45
527.36	36877.48
527.53	37109.19
527.70	37170.05
527.87	37357.29
528.04	36889.18
528.21	37350.27
528.38	37057.70
528.55	37502.40
528.72	37216.86
528.89	37401.76
529.07	37095.15
529.24	37085.79
529.41	37563.26
529.58	37670.92
529.75	37315.16
529.92	37640.50
530.09	37483.68
530.26	37670.92
530.43	37888.59
530.60	37696.67
530.77	37720.07
530.94	38099.24
531.11	37888.59
531.28	38113.28
531.46	37801.99
531.63	38366.06
531.80	38337.98
531.97	38436.28
532.14	38639.90
532.31	38433.94
532.48	38319.25
532.65	38742.89
532.82	38862.26
532.99	38794.38
533.16	38436.28
533.33	38756.93
533.50	38644.59
533.67	38504.15
533.84	38396.49
534.01	38672.67
534.18	38934.81
534.35	39271.85
534.52	39171.21
534.69	39388.88
534.86	39325.68
535.03	39175.89
535.20	39346.75
535.37	39498.88
535.54	39384.19
535.71	39440.37
535.88	39643.99
536.05	39880.39
536.22	39875.71
536.38	39379.51
536.55	39700.17
536.72	39606.55
536.89	39608.89
537.06	39337.38
537.23	40093.38
537.40	40039.54
537.57	39796.13
537.74	39756.34
537.91	40341.47
538.08	40100.40
538.25	39732.93
538.42	40051.25
538.59	40299.34
538.75	40458.50
538.92	40629.36
539.09	40772.13
539.26	40552.12
539.43	40156.57
539.60	40776.81
539.77	40402.33
539.94	40868.09
540.11	40882.14
540.28	40989.80
540.44	40582.55
540.61	40760.43
540.78	40683.19
540.95	40519.35
541.12	40947.67
541.29	40879.80
541.46	40840.01
541.62	41359.61
541.79	41160.66
541.96	40575.53
542.13	41013.21
542.30	41254.28
542.47	40975.76
542.63	41832.39
542.80	41221.52
542.97	42143.69
543.14	41881.55
543.31	41347.90
543.48	41876.86
543.64	42387.10
543.81	42014.96
543.98	41851.12
544.15	41684.94
544.32	41928.36
544.48	42644.56
544.65	42068.79
544.82	42569.66
544.99	41968.15
545.16	42557.96
545.32	42326.25
545.49	42674.99
545.66	43063.52
545.83	42295.82
546.00	42447.96
546.16	42520.51
546.33	42141.35
546.50	42312.20
546.67	42990.96
546.83	42440.93
547.00	42904.36
547.17	42651.58
547.34	42609.45
547.50	43051.81
547.67	43152.46
547.84	42990.96
548.00	43159.48
548.17	42859.89
548.34	43278.85
548.51	43590.14
548.67	43192.25
548.84	43105.65
549.01	42918.40
549.18	43461.41
549.34	43358.42
549.51	43742.27
549.68	43604.18
549.84	43082.24
550.01	43683.76
550.18	43419.28
550.34	43629.93
550.51	43604.18
550.68	44296.98
550.84	43402.89
551.01	44023.14
551.18	43758.66
551.34	43313.95
551.51	43805.47
551.68	43646.31
551.84	43447.36
552.01	44093.35
552.18	44088.67
552.34	44065.27
552.51	44229.10
552.68	43723.55
552.84	43875.68
553.01	44229.10
553.18	44154.21
553.34	44470.18
553.51	43924.83
553.67	44194.00
553.84	44596.57
554.01	44729.98
554.17	44505.29
554.34	44060.58
554.51	44231.44
554.67	44746.36
554.84	44964.03
555.00	44591.89
555.17	44294.64
555.33	44781.47
555.50	44804.88
555.67	44538.05
555.83	44526.35
556.00	45305.75
556.16	45319.79
556.33	45146.59
556.50	44971.05
556.66	45235.53
556.83	44673.81
556.99	45212.13
557.16	45219.15
557.32	45275.32
557.49	45401.71
557.65	44713.59
557.82	44968.71
557.98	45076.38
558.15	44910.20
558.32	45696.62
558.48	45076.38
558.65	44982.76
558.81	45008.50
558.98	45233.19
559.14	45230.85
559.31	45074.04
559.47	44978.07
559.64	45687.26
559.80	45188.72
559.97	45581.93
560.13	45160.64
560.30	45249.58
560.46	45923.65
560.63	45670.87
560.79	45633.42
560.96	45783.22
561.12	45879.18
561.29	45778.54
561.45	46185.79
561.61	45818.33
561.78	45593.64
561.94	45588.95
562.11	45867.48
562.27	45598.32
562.44	45830.03
562.60	46031.32
562.77	45874.50
562.93	45680.24
563.10	46344.95
563.26	45687.26
563.42	45949.40
563.59	45986.85
563.75	45825.35
563.92	46141.32
564.08	45895.56
564.24	46270.05
564.41	45808.96
564.57	46143.66
564.74	46211.54
564.90	45769.18
565.07	45977.48
565.23	46188.13
565.39	46000.89
565.56	46270.05
565.72	46089.83
565.88	46412.82
566.05	46122.60
566.21	46298.14
566.38	46295.80
566.54	46403.46
566.70	46415.16
566.87	46099.19
567.03	46501.76
567.19	46457.29
567.36	46728.80
567.52	46469.00
567.68	46639.86
567.85	46595.38
568.01	46597.73
568.17	46686.67
568.34	46419.84
568.50	46623.47
568.66	46656.24
568.83	46459.63
568.99	46377.72
569.15	46337.93
569.32	46368.35
569.48	46609.43
569.64	46672.62
569.81	46873.91
569.97	46831.78
570.13	46499.42
570.30	46342.61
570.46	46370.69
570.62	46784.97
570.78	46586.02
570.95	46536.87
571.11	47028.38
571.27	46815.40
571.43	46710.07
571.60	46710.07
571.76	46595.38
571.92	46681.98
572.09	46478.36
572.25	46876.25
572.41	46752.20
572.57	46478.36
572.74	46997.96
572.90	47065.83
573.06	47206.26
573.22	46939.44
573.38	47000.30
573.55	46955.83
573.71	47302.23
573.87	47374.78
574.03	46990.94
574.20	47407.55
574.36	46883.27
574.52	46911.36
574.68	46885.61
574.84	47290.52
575.01	46777.95
575.17	46925.40
575.33	46909.02
575.49	46553.26
575.65	46726.46
575.82	47393.51
575.98	46644.54
576.14	47367.76
576.30	47264.78
576.46	47168.82
576.62	46824.76
576.79	47351.38
576.95	46829.44
577.11	46946.47
577.27	47091.58
577.43	47297.55
577.59	47143.07
577.75	46796.67
577.92	46941.78
578.08	47332.65
578.24	47114.98
578.40	47646.29
578.56	47271.80
578.72	47327.97
578.88	47012.00
579.04	46890.29
579.21	47257.76
579.37	47185.20
579.53	47470.75
579.69	47072.85
579.85	47232.01
580.01	47131.37
580.17	47306.91
580.33	47267.12
580.49	47185.20
580.65	47571.39
580.82	47082.22
580.98	47386.49
581.14	47023.70
581.30	47166.48
581.46	47346.70
581.62	47086.90
581.78	47267.12
581.94	46791.99
582.10	47161.79
582.26	47253.08
582.42	47203.92
582.58	47540.96
582.74	47334.99
582.90	47187.54
583.06	47487.13
583.22	47196.90
583.38	46983.91
583.54	47536.28
583.70	47599.47
583.86	47290.52
584.02	47400.53
584.18	47819.49
584.34	47253.08
584.50	47306.91
584.66	47409.89
584.82	47257.76
584.98	47657.99
585.14	47178.18
585.30	47402.87
585.46	47814.80
585.62	47349.04
585.78	47449.68
585.94	47154.77
586.10	47152.43
586.26	47430.96
586.42	47384.15
586.58	47667.35
586.74	47290.52
586.90	47323.29
587.06	47327.97
587.22	47475.43
587.38	47779.70
587.54	47524.58
587.70	47964.60
587.86	47709.48
588.02	47325.63
588.18	47695.44
588.34	47613.52
588.49	47381.80
588.65	47583.09
588.81	47641.60
588.97	47669.69
589.13	47587.77
589.29	47569.05
589.45	47924.81
589.61	47765.65
589.77	47737.57
589.93	47618.20
590.08	47496.49
590.24	48090.99
590.40	48151.84
590.56	48025.45
590.72	47995.03
590.88	47585.43
591.04	47468.40
591.20	48048.86
591.35	47973.96
591.51	48161.20
591.67	47821.83
591.83	48081.63
591.99	47854.59
592.15	47917.79
592.31	47917.79
592.46	48116.73
592.62	47784.38
592.78	48095.67
592.94	48411.64
593.10	48306.32
593.26	48341.42
593.41	48016.09
593.57	48210.35
593.73	48261.85
593.89	48313.34
594.05	48224.40
594.20	48018.43
594.36	48692.50
594.52	48072.26
594.68	48481.86
594.84	47547.98
594.99	48212.70
595.15	48479.52
595.31	48060.56
595.47	48198.65
595.62	47959.92
595.78	48069.92
595.94	48217.38
596.10	48430.36
596.25	48142.48
596.41	48374.19
596.57	48278.23
596.73	48467.81
596.88	48329.72
597.04	48224.40
597.20	48458.45
597.36	48114.39
597.51	48224.40
597.67	47880.34
597.83	47938.85
597.99	48357.81
598.14	48245.46
598.30	48282.91
598.46	47915.45
598.61	48568.46
598.77	48278.23
598.93	48488.88
599.09	48076.94
599.24	48512.28
599.40	48364.83
599.56	48287.59
599.71	48404.62
599.87	48561.44
600.03	48397.60
600.18	48224.40
600.34	48233.76
600.50	48369.51
600.65	48053.54
600.81	48898.47
600.97	48484.20
601.12	48329.72
601.28	47934.17
601.44	48371.85
601.59	48353.13
601.75	48158.86
601.91	48552.07
602.06	48514.62
602.22	48626.97
602.37	48252.48
602.53	48383.55
602.69	48266.53
602.84	48320.36
603.00	48350.79
603.16	48540.37
603.31	48601.22
603.47	48928.90
603.62	48215.04
603.78	48385.89
603.94	48313.34
604.09	48523.99
604.25	48657.40
604.40	48741.66
604.56	48554.41
604.71	48624.63
604.87	48392.92
605.03	48231.42
605.18	48357.81
605.34	48437.39
605.49	47854.59
605.65	48343.77
605.80	48105.03
605.96	48179.93
606.12	48383.55
606.27	48266.53
606.43	47920.13
606.58	48596.54
606.74	48226.74
606.89	48308.66
607.05	48388.24
607.20	47959.92
607.36	48313.34
607.51	48238.44
607.67	48439.73
607.82	47934.17
607.98	47945.87
608.13	48193.97
608.29	48236.10
608.44	48505.26
608.60	47980.98
608.75	48540.37
608.91	48044.18
609.06	48069.92
609.22	48669.10
609.37	48093.33
609.53	48465.47
609.68	48121.41
609.84	47929.49
609.99	47915.45
610.15	47985.66
610.30	48292.27
610.46	47562.03
610.61	47629.90
610.76	48016.09
610.92	47524.58
611.07	47835.87
611.23	48018.43
611.38	47997.37
611.54	47791.40
611.69	47952.90
611.84	48182.27
612.00	47852.25
612.15	47594.79
612.31	48130.78
612.46	47587.77
612.62	47765.65
612.77	47594.79
612.92	48226.74
613.08	47721.18
613.23	48055.88
613.39	47751.61
613.54	47695.44
613.69	48048.86
613.85	47920.13
614.00	47756.29
614.15	47756.29
614.31	47463.72
614.46	47819.49
614.62	47334.99
614.77	47627.56
614.92	47711.82
615.08	47615.86
615.23	47538.62
615.38	47665.01
615.54	47643.94
615.69	47320.95
615.84	47454.36
616.00	47412.23
616.15	47416.91
616.30	47288.18
616.46	47370.10
616.61	47559.69
616.76	47585.43
616.92	47627.56
617.07	47782.04
617.22	47613.52
617.37	47360.74
617.53	47325.63
617.68	47503.51
617.83	47320.95
617.99	47622.88
618.14	47718.84
618.29	47234.35
618.45	47009.66
618.60	47168.82
618.75	47063.49
618.90	46834.12
619.06	47093.92
619.21	46913.70
619.36	47145.41
619.51	47337.33
619.67	46394.10
619.82	46539.21
619.97	47288.18
620.12	47157.11
620.28	46674.96
620.43	47194.56
620.58	47075.19
620.73	47086.90
620.89	47004.98
621.04	47100.94
621.19	46887.95
621.34	47037.75
621.49	46995.62
621.65	46791.99
621.80	46869.23
621.95	46939.44
622.10	46934.76
622.25	46777.95
622.41	46754.54
622.56	47061.15
622.71	46749.86
622.86	47093.92
623.01	46796.67
623.16	46600.07
623.32	46794.33
623.47	46366.01
623.62	46445.59
623.77	47063.49
623.92	46843.48
624.07	46286.43
624.23	46827.10
624.38	46555.60
624.53	46593.04
624.68	46223.24
624.83	46660.92
624.98	46843.48
625.13	45663.85
625.29	46068.76
625.44	46087.49
625.59	46375.37
625.74	46368.35
625.89	46108.55
626.04	46071.10
626.19	45855.78
626.34	46204.52
626.49	46122.60
626.65	45886.20
626.80	45780.88
626.95	46157.70
627.10	45804.28
627.25	45940.04
627.40	46267.71
627.55	45900.25
627.70	45979.82
627.85	46396.44
628.00	46326.22
628.15	46260.69
628.30	45490.65
628.45	45839.39
628.60	45144.25
628.76	45619.38
628.91	45612.36
629.06	45174.68
629.21	45551.51
629.36	45333.84
629.51	45708.32
629.66	45977.48
629.81	45766.84
629.96	45521.08
630.11	45603.00
630.26	45366.60
630.41	45914.29
630.56	45467.25
630.71	45331.50
630.86	45216.81
631.01	45263.62
631.16	45205.11
631.31	45200.43
631.46	45254.26
631.61	45731.73
631.76	45357.24
631.91	45336.18
632.06	45504.70
632.21	45523.42
632.36	45731.73
632.51	44980.42
632.66	45815.99
632.81	45179.36
632.96	44989.78
633.10	45013.18
633.25	45127.87
633.40	45141.91
633.55	45460.23
633.70	45289.37
633.85	45244.90
634.00	44561.46
634.15	45013.18
634.30	44528.69
634.45	44678.49
634.60	44933.60
634.75	44896.16
634.90	44999.14
635.05	45008.50
635.19	44727.64
635.34	44753.38
635.49	44952.33
635.64	44814.24
635.79	45029.57
635.94	44626.99
636.09	44786.15
636.24	44933.60
636.39	44868.07
636.53	44783.81
636.68	44091.01
636.83	44451.45
636.98	44552.10
637.13	43910.79
637.28	44428.05
637.43	44739.34
637.57	44706.57
637.72	44037.18
637.87	44142.50
638.02	44137.82
638.17	44083.99
638.32	44168.25
638.46	44442.09
638.61	44013.77
638.76	43894.41
638.91	44299.32
639.06	44357.83
639.20	43831.21
639.35	44196.34
639.50	44163.57
639.65	44257.19
639.80	44315.70
639.94	44304.00
640.09	44100.37
640.24	44397.62
640.39	43634.61
640.54	43690.78
640.68	43793.76
640.83	43995.05
640.98	43557.37
641.13	43959.94
641.27	43838.23
641.42	43819.51
641.57	43540.99
641.72	43658.01
641.86	43456.73
642.01	43255.44
642.16	43892.07
642.31	43274.16
642.45	43620.56
642.60	43337.36
642.75	43311.61
642.90	43419.28
643.04	43676.74
643.19	43276.51
643.34	43328.00
643.48	43063.52
643.63	43178.20
643.78	43430.98
643.93	43084.58
644.07	43398.21
644.22	43213.31
644.37	43098.62
644.51	43159.48
644.66	43487.15
644.81	43625.25
644.95	43159.48
645.10	43122.03
645.25	43077.56
645.39	43112.67
645.54	43098.62
645.69	42810.74
645.83	42796.70
645.98	42719.46
646.13	42871.59
646.27	42674.99
646.42	42728.82
646.57	42899.68
646.71	42817.76
646.86	42923.08
647.00	43335.02
647.15	42916.06
647.30	42845.85
647.44	42979.26
647.59	42677.33
647.74	42815.42
647.88	43054.15
648.03	42712.44
648.17	43159.48
648.32	42789.67
648.47	43248.42
648.61	42298.16
648.76	42845.85
648.90	42251.35
649.05	42602.43
649.20	42504.13
649.34	43023.73
649.49	42153.05
649.63	42312.20
649.78	42885.64
649.92	42742.86
650.07	42583.71
650.21	42883.30
650.36	42822.44
650.51	42574.34
650.65	42642.22
650.80	42146.03
650.94	42611.79
651.09	41956.44
651.23	41942.40
651.38	42164.75
651.52	41457.91
651.67	41734.09
651.81	42066.45
651.96	41895.59
652.10	41736.43
652.25	41841.76
652.39	41544.51
652.54	41687.28
652.68	41783.24
652.83	41778.56
652.97	42340.29
653.12	42108.58
653.26	41841.76
653.41	41869.84
653.55	41729.41
653.70	41783.24
653.84	42005.59
653.99	41727.07
654.13	41598.34
654.27	42038.36
654.42	41820.69
654.56	41401.74
654.71	41631.11
654.85	41591.32
655.00	41703.67
655.14	41759.84
655.29	41500.04
655.43	41839.42
655.57	41818.35
655.72	41095.13
655.86	41207.47
656.01	41434.50
656.15	41083.42
656.30	41057.68
656.44	41251.94
656.58	41160.66
656.73	41343.22
656.87	40811.92
657.01	40699.58
657.16	41223.86
657.30	41050.66
657.45	41518.76
657.59	40781.49
657.73	40933.63
657.88	41427.48
658.02	41144.28
658.16	40896.18
658.31	40900.86
658.45	40928.95
658.60	40561.48
658.74	40849.37
658.88	40966.40
659.03	40577.87
659.17	39833.58
659.31	40362.54
659.46	40245.51
659.60	40165.93
659.74	40535.74
659.89	40428.07
660.03	39772.72
660.17	40517.01
660.32	40222.11
660.46	39903.79
660.60	39807.83
660.74	40039.54
660.89	40280.62
661.03	39632.29
661.17	39608.89
661.32	39304.62
661.46	39744.64
661.60	39505.90
661.74	39847.62
661.89	39533.99
662.03	39585.48
662.17	39482.50
662.31	39496.54
662.46	39718.89
662.60	39473.13
662.74	39196.95
662.88	39070.56
663.03	39145.46
663.17	39138.44
663.31	38866.94
663.45	39054.18
663.60	39442.71
663.74	39227.38
663.88	38562.67
664.02	38672.67
664.17	39159.50
664.31	38424.57
664.45	38721.82
664.59	39007.37
664.73	38546.28
664.88	38967.58
665.02	38108.60
665.16	38387.13
665.30	38576.71
665.44	38452.66
665.59	38204.56
665.73	38190.52
665.87	38026.68
666.01	38511.17
666.15	37947.11
666.29	37675.60
666.44	37701.35
666.58	37783.27
666.72	37591.34
666.86	37881.57
667.00	37404.10
667.14	38110.94
667.28	37975.19
667.43	37708.37
667.57	37574.96
667.71	38146.05
667.85	37806.67
667.99	37687.31
668.13	37308.14
668.27	37244.94
668.41	37464.96
668.56	36943.02
668.70	36861.10
668.84	36678.54
668.98	36638.75
669.12	36802.58
669.26	36800.24
669.40	37141.96
669.54	36875.14
669.68	36257.24
669.82	36671.51
669.96	35922.54
670.10	36229.15
670.25	36233.83
670.39	36112.13
670.53	36261.92
670.67	36453.84
670.81	36360.22
670.95	36053.61
671.09	35597.21
671.23	35681.47
671.37	36020.84
671.51	35707.21
671.65	35669.76
671.79	35672.10
671.93	35885.09
672.07	35634.66
672.21	35545.72
672.35	35152.51
672.49	35604.23
672.63	35442.73
672.77	35189.95
672.91	35089.31
673.05	35182.93
673.19	34651.63
673.33	35000.37
673.47	35101.01
673.61	34546.31
673.75	34623.54
673.89	34532.26
674.03	34412.90
674.17	34141.39
674.31	34096.92
674.45	34209.27
674.59	34143.74
674.73	34349.70
674.87	33687.33
675.01	33844.15
675.15	33319.87
675.29	33483.70
675.43	33635.84
675.56	33736.48
675.70	33640.52
675.84	33509.45
675.98	32292.37
676.12	33127.94
676.26	33340.93
676.40	32910.27
676.54	32582.60
676.68	32975.81
676.82	31974.06
676.96	33031.98
677.10	32800.27
677.23	32481.95
677.37	32479.61
677.51	32514.72
677.65	32552.17
677.79	32023.21
677.93	32528.77
678.07	31962.36
678.21	31882.78
678.34	31634.68
678.48	31358.50
678.62	31571.49
678.76	31187.64
678.90	31140.83
679.04	31159.55
679.18	31459.14
679.31	30904.43
679.45	30974.65
679.59	30532.29
679.73	30815.49
679.87	30459.73
680.00	30834.22
680.14	30876.35
680.28	30630.59
680.42	30314.62
680.56	30326.32
680.70	30228.02
680.83	29607.78
680.97	29703.74
681.11	29460.32
681.25	29483.73
681.39	29378.40
681.52	29450.96
681.66	29329.25
681.80	28989.88
681.94	29041.37
682.07	28737.10
682.21	28793.27
682.35	28744.12
682.49	28591.98
682.62	28865.83
682.76	28666.88
682.90	28545.17
683.04	28304.10
683.17	28306.44
683.31	28184.73
683.45	28425.81
683.59	27782.16
683.72	27583.21
683.86	27892.16
684.00	27763.43
684.13	27543.42
684.27	27353.84
684.41	27349.16
684.55	27620.66
684.68	27342.14
684.82	27372.57
684.96	26841.26
685.09	27103.40
685.23	26932.54
685.37	27679.18
685.50	27297.67
685.64	27192.34
685.78	26324.01
685.91	26651.68
686.05	26242.09
686.19	25926.11
686.32	26054.84
686.46	25397.15
686.60	25537.59
686.73	25551.63
686.87	25757.60
687.01	26134.42
687.14	26003.35
687.28	25589.08
687.42	25408.86
687.55	25158.42
687.69	25481.41
687.82	24929.05
687.96	24945.43
688.10	24816.70
688.23	24821.38
688.37	24884.58
688.50	25205.23
688.64	24748.82
688.78	24322.85
688.91	24252.63
689.05	24690.31
689.18	24341.57
689.32	23990.49
689.46	23580.90
689.59	23850.06
689.73	24130.92
689.86	24215.18
690.00	23812.61
690.13	23992.83
690.27	23608.98
690.41	23393.65
690.54	23065.98
690.68	23194.71
690.81	23363.23
690.95	22815.54
691.08	22913.84
691.22	22773.41
691.35	22642.34
691.49	23028.53
691.62	22551.06
691.76	22663.41
691.89	22394.25
692.03	22001.04
692.16	21738.90
692.30	21799.75
692.43	21954.22
692.57	21947.20
692.70	21743.58
692.84	21881.67
692.97	21235.68
693.11	21352.71
693.24	20968.86
693.38	21495.48
693.51	21123.33
693.65	21195.89
693.78	20669.27
693.92	20751.19
694.05	20393.09
694.19	20872.90
694.32	20524.16
694.45	20950.14
694.59	20671.61
694.72	20627.14
694.86	20582.67
694.99	20446.92
695.13	19908.60
695.26	19978.81
695.39	19583.26
695.53	20159.03
695.66	20009.24
695.80	19665.18
695.93	19407.72
696.07	19461.55
696.20	18967.70
696.33	19138.56
696.47	19227.50
696.60	19080.05
696.73	19220.48
696.87	19145.58
697.00	18993.45
697.14	18902.17
697.27	18714.92
697.40	18625.98
697.54	18672.79
697.67	18295.97
697.80	18654.07
697.94	18288.95
698.07	18181.28
698.21	18026.81
698.34	17951.91
698.47	18099.36
698.61	17535.29
698.74	17289.54
698.87	17715.51
699.01	17488.48
699.14	17685.09
699.27	17635.94
699.40	17378.48
699.54	17224.00
699.67	17315.28
699.80	17200.60
699.94	17067.19
700.07	17060.16
700.20	16903.35
700.34	16709.08
700.47	16592.06
700.60	17137.40
700.73	16692.70
700.87	16472.69
701.00	16374.39
701.13	16112.25
701.26	16250.34
701.40	15906.28
701.53	16149.70
701.66	16013.95
701.79	16116.93
701.93	15838.41
702.06	15616.05
702.19	15651.16
702.32	15653.50
702.46	15777.55
702.59	15744.78
702.72	15538.82
702.85	15632.44
702.99	15452.22
703.12	15159.65
703.25	15161.99
703.38	15007.52
703.51	15253.27
703.65	15126.88
703.78	14733.67
703.91	14621.33
704.04	14523.02
704.17	14537.07
704.31	14523.02
704.44	14579.20
704.57	14443.45
704.70	14279.61
704.83	13996.40
704.96	13853.63
705.10	14094.71
705.23	14001.08
>>>>>End Processed Spectral Data<<<<<
