SpectraSuite Data File
++++++++++++++++++++++++++++++++++++
Date: Fri Oct 25 10:43:18 EDT 2013
User: price-jones
Dark Spectrum Present: No
Reference Spectrum Present: No
Number of Sampled Component Spectra: 1
Spectrometers: USB2+H05261
Integration Time (usec): 100000 (USB2+H05261)
Spectra Averaged: 1 (USB2+H05261)
Boxcar Smoothing: 0 (USB2+H05261)
Correct for Electrical Dark: No (USB2+H05261)
Strobe/Lamp Enabled: No (USB2+H05261)
Correct for Detector Non-linearity: No (USB2+H05261)
Correct for Stray Light: No (USB2+H05261)
Number of Pixels in Processed Spectrum: 2048
>>>>>Begin Processed Spectral Data<<<<<
365.73	102.98
365.92	102.98
366.12	102.98
366.32	88.94
366.52	0.00
366.72	60.85
366.91	2.34
367.11	0.00
367.31	9.36
367.51	14.04
367.70	88.94
367.90	49.15
368.10	63.19
368.30	0.00
368.49	0.00
368.69	0.00
368.89	67.88
369.09	124.05
369.28	88.94
369.48	35.11
369.68	70.22
369.87	100.64
370.07	77.24
370.27	114.69
370.47	189.58
370.66	341.72
370.86	437.68
371.06	428.32
371.25	425.98
371.45	496.19
371.65	477.47
371.84	433.00
372.04	491.51
372.24	500.87
372.44	440.02
372.63	533.64
372.83	550.03
373.03	435.34
373.22	512.58
373.42	475.13
373.62	564.07
373.81	589.82
374.01	629.60
374.21	533.64
374.40	575.77
374.60	540.66
374.79	524.28
374.99	554.71
375.19	575.77
375.38	554.71
375.58	629.60
375.78	568.75
375.97	620.24
376.17	643.65
376.37	571.09
376.56	638.97
376.76	638.97
376.95	543.00
377.15	650.67
377.35	622.58
377.54	678.76
377.74	667.05
377.93	645.99
378.13	657.69
378.33	643.65
378.52	669.39
378.72	685.78
378.91	681.10
379.11	596.84
379.31	631.94
379.50	606.20
379.70	669.39
379.89	608.54
380.09	603.86
380.28	709.18
380.48	695.14
380.68	699.82
380.87	638.97
381.07	688.12
381.26	716.20
381.46	638.97
381.65	660.03
381.85	662.37
382.04	683.44
382.24	718.54
382.43	706.84
382.63	704.50
382.83	720.88
383.02	711.52
383.22	765.36
383.41	706.84
383.61	741.95
383.80	795.78
384.00	842.59
384.19	814.51
384.39	760.67
384.58	802.80
384.78	802.80
384.97	767.70
385.17	716.20
385.36	770.04
385.56	770.04
385.75	674.07
385.95	784.08
386.14	793.44
386.34	732.59
386.53	755.99
386.72	716.20
386.92	894.08
387.11	887.06
387.31	833.23
387.50	854.30
387.70	901.11
387.89	952.60
388.09	851.96
388.28	929.19
388.48	795.78
388.67	884.72
388.86	961.96
389.06	945.58
389.25	905.79
389.45	992.39
389.64	1013.45
389.84	1008.77
390.03	1062.60
390.22	938.55
390.42	987.71
390.61	933.87
390.81	894.08
391.00	1057.92
391.19	1062.60
391.39	990.05
391.58	1095.37
391.78	966.64
391.97	926.85
392.16	952.60
392.36	1090.69
392.55	1015.79
392.75	980.68
392.94	992.39
393.13	997.07
393.33	1006.43
393.52	994.73
393.71	1109.41
393.91	1095.37
394.10	1125.80
394.29	1179.63
394.49	1118.78
394.68	1226.44
394.88	1212.40
395.07	1203.04
395.26	1235.80
395.46	1170.27
395.65	1301.34
395.84	1233.46
396.04	1327.08
396.23	1174.95
396.42	1174.95
396.62	1160.91
396.81	1130.48
397.00	1139.84
397.19	1214.74
397.39	1294.32
397.58	1308.36
397.77	1322.40
397.97	1446.45
398.16	1500.28
398.35	1437.09
398.55	1406.66
398.74	1434.75
398.93	1455.81
399.12	1479.22
399.32	1497.94
399.51	1458.15
399.70	1521.35
399.90	1579.86
400.09	1561.14
400.28	1563.48
400.47	1535.39
400.67	1626.67
400.86	1610.29
401.05	1678.16
401.24	1647.74
401.44	1596.25
401.63	1724.97
401.82	1577.52
402.01	1717.95
402.21	1689.87
402.40	1715.61
402.59	1666.46
402.78	1720.29
402.97	1708.59
403.17	1757.74
403.36	1816.26
403.55	1788.17
403.74	1839.66
403.93	1797.53
404.13	1771.79
404.32	1804.55
404.51	1966.05
404.70	1858.39
404.89	1923.92
405.09	2026.90
405.28	1909.88
405.47	1863.07
405.66	1987.11
405.85	2008.18
406.05	1947.33
406.24	2069.03
406.43	1980.09
406.62	2176.70
406.81	2174.36
407.00	1956.69
407.20	2029.24
407.39	2052.65
407.58	2043.29
407.77	2200.10
407.96	2200.10
408.15	2207.13
408.34	2085.42
408.54	2218.83
408.73	2277.34
408.92	2246.91
409.11	2204.78
409.30	2286.70
409.49	2244.57
409.68	2172.02
409.87	2298.41
410.07	2335.85
410.26	2197.76
410.45	2403.73
410.64	2471.61
410.83	2579.27
411.02	2464.58
411.21	2509.05
411.40	2523.10
411.59	2455.22
411.78	2590.97
411.98	2590.97
412.17	2567.57
412.36	2663.53
412.55	2726.72
412.74	2569.91
412.93	2768.85
413.12	2637.78
413.31	2799.28
413.50	2766.51
413.69	2834.39
413.88	2888.22
414.07	2932.69
414.26	2888.22
414.45	2935.03
414.64	3009.93
414.83	2958.44
415.02	2916.31
415.22	2974.82
415.41	3014.61
415.60	3080.14
415.79	3309.52
415.98	3155.04
416.17	3213.56
416.36	3215.90
416.55	3316.54
416.74	3323.56
416.93	3330.58
417.12	3311.86
417.31	3344.63
417.50	3246.32
417.69	3361.01
417.88	3393.78
418.07	3531.87
418.26	3445.27
418.45	3431.23
418.64	3550.59
418.83	3510.80
419.02	3485.06
419.21	3602.08
419.39	3604.42
419.58	3494.42
419.77	3442.93
419.96	3461.65
420.15	3592.72
420.34	3632.51
420.53	3777.62
420.72	3794.01
420.91	3681.66
421.10	3669.96
421.29	3932.10
421.48	3723.79
421.67	3721.45
421.86	3782.31
422.05	3761.24
422.24	3707.41
422.43	3859.54
422.61	3754.22
422.80	3831.46
422.99	3808.05
423.18	3983.59
423.37	4042.11
423.56	3887.63
423.75	3920.40
423.94	3794.01
424.13	3737.84
424.32	3728.47
424.50	3929.76
424.69	4107.64
424.88	3911.04
425.07	3866.56
425.26	3861.88
425.45	3730.81
425.64	3899.33
425.83	3936.78
426.01	3953.16
426.20	3866.56
426.39	3946.14
426.58	3866.56
426.77	4007.00
426.96	3981.25
427.15	3754.22
427.33	3892.31
427.52	3887.63
427.71	4170.83
427.90	4044.45
428.09	4072.53
428.28	4138.07
428.46	4046.79
428.65	4187.22
428.84	4259.78
429.03	4091.26
429.22	4201.26
429.40	4074.87
429.59	4189.56
429.78	3901.67
429.97	3871.25
430.16	3960.19
430.34	4042.11
430.53	4198.92
430.72	3976.57
430.91	4145.09
431.10	4175.52
431.28	4374.46
431.47	4301.90
431.66	4798.10
431.85	4489.15
432.03	4479.79
432.22	4660.01
432.41	4596.81
432.60	4512.55
432.79	4517.23
432.97	4709.16
433.16	4828.53
433.35	4620.22
433.54	4613.20
433.72	4456.38
433.91	4561.70
434.10	4765.33
434.28	4744.27
434.47	4891.72
434.66	4751.29
434.85	4978.32
435.03	4882.36
435.22	4880.02
435.41	4997.04
435.59	4882.36
435.78	5083.64
435.97	5043.85
436.16	4856.61
436.34	4957.25
436.53	5107.05
436.72	5214.71
436.90	5144.50
437.09	5179.61
437.28	5018.11
437.46	5242.80
437.65	5109.39
437.84	5039.17
438.02	5053.22
438.21	5151.52
438.40	5097.69
438.58	5362.17
438.77	5404.30
438.96	5427.70
439.14	5479.19
439.33	5603.24
439.52	5650.05
439.70	5729.63
439.89	5727.29
440.08	5668.78
440.26	5621.97
440.45	5551.75
440.63	5757.72
440.82	5865.38
441.01	5975.39
441.19	5926.24
441.38	6078.37
441.57	6218.80
441.75	6258.59
441.94	6099.44
442.12	6200.08
442.31	6188.38
442.50	6314.77
442.68	6143.91
442.87	6106.46
443.05	6169.65
443.24	6417.75
443.43	6359.24
443.61	6270.30
443.80	6635.42
443.98	6270.30
444.17	6157.95
444.35	6366.26
444.54	6520.73
444.73	6532.44
444.91	6494.99
445.10	6263.27
445.28	6333.49
445.47	6221.14
445.65	6354.55
445.84	6338.17
446.02	6431.79
446.21	6523.07
446.39	6448.18
446.58	6560.52
446.77	6576.91
446.95	6506.69
447.14	6668.19
447.32	6654.14
447.51	6537.12
447.69	6583.93
447.88	6612.01
448.06	6438.81
448.25	6752.45
448.43	6670.53
448.62	6757.13
448.80	6567.54
448.99	6757.13
449.17	6745.42
449.36	6686.91
449.54	6930.33
449.73	6853.09
449.91	7101.19
450.10	6995.86
450.28	7084.80
450.46	7110.55
450.65	7164.38
450.83	7047.35
451.02	7019.27
451.20	7159.70
451.39	7084.80
451.57	6991.18
451.76	7082.46
451.94	7206.51
452.13	7126.93
452.31	7171.40
452.49	7063.74
452.68	7124.59
452.86	6951.39
453.05	7307.15
453.23	7164.38
453.42	7419.50
453.60	7225.23
453.78	7501.42
453.97	7159.70
454.15	7220.55
454.34	7201.83
454.52	7169.06
454.70	7417.16
454.89	7412.48
455.07	7529.50
455.26	7644.19
455.44	7606.74
455.62	7510.78
455.81	7452.27
455.99	7639.51
456.17	7742.49
456.36	7761.22
456.54	7808.03
456.73	7873.56
456.91	8074.85
457.09	8016.33
457.28	8135.70
457.46	7761.22
457.64	8072.51
457.83	7981.23
458.01	7866.54
458.19	8168.47
458.38	8161.45
458.56	8341.67
458.74	8126.34
458.93	8095.91
459.11	8250.39
459.29	8159.11
459.48	8173.15
459.66	8257.41
459.84	8283.16
460.03	8484.44
460.21	8236.35
460.39	8259.75
460.57	8564.02
460.76	8500.83
460.94	8517.21
461.12	8435.29
461.31	8599.13
461.49	8608.49
461.67	8599.13
461.85	8746.58
462.04	8779.35
462.22	9125.75
462.40	8908.08
462.59	8924.46
462.77	9078.94
462.95	8821.48
463.13	8667.00
463.32	8777.01
463.50	8950.21
463.68	8978.30
463.86	8950.21
464.05	8737.22
464.23	8950.21
464.41	9144.47
464.59	8795.73
464.78	9015.74
464.96	9149.15
465.14	8863.61
465.32	9041.49
465.50	9210.01
465.69	9320.01
465.87	9018.08
466.05	9142.13
466.23	8990.00
466.41	9006.38
466.60	9385.55
466.78	9312.99
466.96	9242.78
467.14	9184.26
467.32	9200.65
467.51	9198.31
467.69	9006.38
467.87	9362.14
468.05	9378.53
468.23	9305.97
468.41	9329.38
468.60	9322.35
468.78	9549.39
468.96	9378.53
469.14	9535.34
469.32	9568.11
469.50	9317.67
469.69	9755.35
469.87	9528.32
470.05	9540.02
470.23	9671.09
470.41	9643.01
470.59	9874.72
470.77	9727.27
470.95	9944.94
471.14	9851.31
471.32	9860.68
471.50	10080.69
471.68	9898.13
471.86	10277.29
472.04	10223.46
472.22	10485.60
472.40	10111.11
472.58	10221.12
472.77	10230.48
472.95	10459.85
473.13	10675.18
473.31	10642.42
473.49	10431.77
473.67	10333.47
473.85	10721.99
474.03	10981.79
474.21	10738.38
474.39	10834.34
474.57	11136.27
474.75	11070.73
474.93	11253.30
475.12	10890.51
475.30	11154.99
475.48	11206.48
475.66	11192.44
475.84	11286.06
476.02	11159.67
476.20	11421.81
476.38	11531.82
476.56	11859.49
476.74	11644.17
476.92	11658.21
477.10	11857.15
477.28	11815.02
477.46	11864.18
477.64	12191.85
477.82	12358.03
478.00	12538.25
478.18	12505.48
478.36	12348.67
478.54	12435.27
478.72	12514.84
478.90	12638.89
479.08	12748.90
479.26	13104.66
479.44	12961.89
479.62	13083.59
479.80	13088.28
479.98	13343.39
480.16	13591.49
480.34	13462.76
480.52	13577.45
480.70	13497.87
480.88	13434.68
481.06	13612.56
481.24	13760.01
481.41	14033.85
481.59	14253.86
481.77	14441.11
481.95	14256.20
482.13	14644.73
482.31	14565.15
482.49	14487.92
482.67	14815.59
482.85	14684.52
483.03	14981.77
483.21	15061.35
483.39	15241.57
483.57	15283.70
483.74	15372.64
483.92	15360.94
484.10	15393.70
484.28	15969.48
484.46	15817.34
484.64	16219.91
484.82	15962.45
485.00	16135.65
485.18	16264.38
485.35	16517.16
485.53	15948.41
485.71	16123.95
485.89	16163.74
486.07	16306.51
486.25	16381.41
486.43	16713.77
486.61	16812.07
486.78	17362.09
486.96	17324.65
487.14	17270.81
487.32	17469.76
487.50	17823.18
487.68	17893.40
487.85	17884.03
488.03	18080.64
488.21	18148.51
488.39	18288.95
488.57	18544.06
488.75	18836.63
488.92	19154.94
489.10	19321.12
489.28	19342.19
489.46	19515.39
489.64	19714.33
489.81	19798.59
489.99	20159.03
490.17	19990.52
490.35	20086.48
490.53	20198.82
490.70	20285.42
490.88	20257.34
491.06	20388.41
491.24	20334.57
491.41	20599.05
491.59	20479.69
491.77	20395.43
491.95	20886.94
492.13	20702.04
492.30	21231.00
492.48	21439.31
492.66	21181.85
492.84	21415.90
493.01	22176.58
493.19	21710.81
493.37	22019.76
493.54	22050.19
493.72	22436.38
493.90	22132.11
494.08	22607.23
494.25	23152.58
494.43	22604.89
494.61	22904.48
494.79	22920.87
494.96	23080.02
495.14	22829.59
495.32	23253.22
495.49	23662.82
495.67	23655.79
495.85	23859.42
496.02	23569.19
496.20	23749.42
496.38	23964.75
496.55	24264.33
496.73	25076.50
496.91	24538.18
497.09	24774.57
497.26	24671.59
497.44	24526.47
497.62	24854.15
497.79	25277.79
497.97	25221.61
498.14	25348.00
498.32	25249.70
498.50	25781.00
498.67	25764.62
498.85	25724.83
499.03	25942.50
499.20	25942.50
499.38	26080.59
499.56	25799.73
499.73	25926.11
499.91	26515.93
500.08	26590.83
500.26	25678.02
500.44	26338.05
500.61	26462.10
500.79	26228.04
500.97	26796.79
501.14	26801.47
501.32	26724.24
501.49	26911.48
501.67	26934.88
501.84	27005.10
502.02	27098.72
502.20	27229.79
502.37	27541.08
502.55	27538.74
502.72	27594.92
502.90	27494.27
503.07	27695.56
503.25	27847.69
503.43	27751.73
503.60	27796.20
503.78	27835.99
503.95	27681.52
504.13	27983.44
504.30	28194.09
504.48	28659.86
504.65	28545.17
504.83	28638.80
505.01	28088.77
505.18	28734.76
505.36	28957.11
505.53	28933.70
505.71	29525.86
505.88	28840.08
506.06	28994.56
506.23	29504.79
506.41	29219.25
506.58	29249.67
506.76	29443.94
506.93	29612.46
507.11	29699.06
507.28	29743.53
507.46	29872.26
507.63	29521.18
507.81	29724.80
507.98	29792.68
508.16	29713.10
508.33	30183.55
508.50	30155.46
508.68	30061.84
508.85	30639.95
509.03	30890.39
509.20	30672.72
509.38	30815.49
509.55	31325.73
509.73	30998.06
509.90	30951.24
510.08	30806.13
510.25	31166.57
510.42	30684.42
510.60	31353.82
510.77	31358.50
510.95	31941.29
511.12	31580.85
511.30	31768.09
511.47	31882.78
511.64	31950.65
511.82	32128.53
511.99	32084.06
512.17	32093.43
512.34	32084.06
512.51	32395.35
512.69	32744.09
512.86	32044.27
513.04	32711.33
513.21	32577.92
513.38	32624.73
513.56	32701.96
513.73	32283.01
513.90	32826.01
514.08	32786.22
514.25	33020.28
514.43	32973.47
514.60	33027.30
514.77	32884.53
514.95	33043.68
515.12	33420.51
515.29	33024.96
515.47	33647.54
515.64	33799.68
515.81	33455.62
515.99	33841.81
516.16	33319.87
516.33	33308.16
516.51	33493.07
516.68	33020.28
516.85	33343.27
517.03	33095.18
517.20	33947.13
517.37	33968.19
517.54	34040.75
517.72	34015.01
517.89	33776.27
518.06	33979.90
518.24	33947.13
518.41	33902.66
518.58	34499.50
518.75	33982.24
518.93	34319.28
519.10	34712.49
519.27	34579.07
519.45	34277.15
519.62	34852.92
519.79	35154.85
519.96	34979.31
520.14	34749.93
520.31	35288.26
520.48	34918.45
520.65	34717.17
520.83	35218.04
521.00	35604.23
521.17	34916.11
521.34	35529.33
521.52	35501.25
521.69	35817.22
521.86	35828.92
522.03	36156.60
522.20	35985.74
522.38	36041.91
522.55	36088.72
522.72	35725.94
522.89	36280.64
523.07	36470.23
523.24	35866.37
523.41	36624.70
523.58	36411.71
523.75	37383.04
523.92	36833.01
524.10	36783.86
524.27	37088.13
524.44	36851.73
524.61	37186.43
524.78	37130.26
524.96	37001.53
525.13	36912.59
525.30	37202.82
525.47	37207.50
525.64	37359.63
525.81	37207.50
525.98	37298.78
526.16	36987.49
526.33	37092.81
526.50	37057.70
526.67	36992.17
526.84	37144.30
527.01	37006.21
527.18	37179.41
527.36	37691.99
527.53	37652.20
527.70	37853.48
527.87	38054.77
528.04	37413.46
528.21	38312.23
528.38	37881.57
528.55	38230.31
528.72	38574.37
528.89	38731.18
529.07	38352.02
529.24	38352.02
529.41	38794.38
529.58	37778.59
529.75	38761.61
529.92	38660.97
530.09	38504.15
530.26	38789.70
530.43	38962.90
530.60	38452.66
530.77	38976.94
530.94	38976.94
531.11	39021.41
531.28	38742.89
531.46	38939.49
531.63	38759.27
531.80	39089.29
531.97	38880.98
532.14	38953.54
532.31	39269.51
532.48	39723.57
532.65	39180.57
532.82	38972.26
532.99	39089.29
533.16	39278.87
533.33	39269.51
533.50	39477.82
533.67	39447.39
533.84	39007.37
534.01	39597.18
534.18	39800.81
534.35	39962.31
534.52	39475.48
534.69	40105.08
534.86	40278.28
535.03	39541.01
535.20	40137.85
535.37	40589.57
535.54	40575.53
535.71	39929.54
535.88	40264.24
536.05	39885.07
536.22	40636.38
536.38	40091.04
536.55	40474.88
536.72	40402.33
536.89	40322.75
537.06	40336.79
537.23	40568.51
537.40	40865.75
537.57	40823.62
537.74	40945.33
537.91	41134.92
538.08	40886.82
538.25	40671.49
538.42	40582.55
538.59	40783.83
538.75	40521.69
538.92	40933.63
539.09	41036.61
539.26	40648.08
539.43	40711.28
539.60	41010.87
539.77	40905.54
539.94	40531.06
540.11	41132.57
540.28	41254.28
540.44	41333.86
540.61	40907.88
540.78	41163.00
540.95	41031.93
541.12	40994.48
541.29	41294.07
541.46	41172.36
541.62	41287.05
541.79	41340.88
541.96	41490.68
542.13	41364.29
542.30	41490.68
542.47	41640.47
542.63	41567.91
542.80	41628.77
542.97	42101.56
543.14	41979.85
543.31	41893.25
543.48	41778.56
543.64	42499.45
543.81	42504.13
543.98	42637.54
544.15	42609.45
544.32	42258.37
544.48	42841.17
544.65	42609.45
544.82	42522.85
544.99	42108.58
545.16	42426.89
545.32	42424.55
545.49	42916.06
545.66	43014.37
545.83	42834.14
546.00	42857.55
546.16	42553.28
546.33	42740.52
546.50	42398.80
546.67	42703.07
546.83	42347.31
547.00	42913.72
547.17	42827.12
547.34	42403.49
547.50	42705.41
547.67	43002.66
547.84	43026.07
548.00	43192.25
548.17	43164.16
548.34	43295.23
548.51	43611.20
548.67	43363.11
548.84	43400.55
549.01	43091.60
549.18	43173.52
549.34	43349.06
549.51	43290.55
549.68	43414.60
549.84	43014.37
550.01	43590.14
550.18	43269.48
550.34	43772.70
550.51	43686.10
550.68	43398.21
550.84	43147.78
551.01	43526.94
551.18	43423.96
551.34	43358.42
551.51	43910.79
551.68	43683.76
551.84	43548.01
552.01	43393.53
552.18	43449.70
552.34	43779.72
552.51	43903.77
552.68	44055.90
552.84	43878.02
553.01	44112.08
553.18	43784.40
553.34	44093.35
553.51	43643.97
553.67	44236.12
553.84	44545.08
554.01	44563.80
554.17	44126.12
554.34	45069.36
554.51	44182.29
554.67	44652.74
554.84	43805.47
555.00	44376.56
555.17	44481.88
555.33	44313.36
555.50	44222.08
555.67	44650.40
555.83	44266.55
556.00	44465.50
556.16	44861.05
556.33	44404.64
556.50	44547.42
556.66	44371.88
556.83	44432.73
556.99	44392.94
557.16	44872.75
557.32	44446.77
557.49	44954.67
557.65	43950.58
557.82	44526.35
557.98	44624.65
558.15	44463.16
558.32	44844.66
558.48	44119.10
558.65	44790.83
558.81	44418.69
558.98	44760.40
559.14	44533.37
559.31	44629.34
559.47	44444.43
559.64	44643.38
559.80	44839.98
559.97	44739.34
560.13	44552.10
560.30	44786.15
560.46	44821.26
560.63	45448.52
560.79	45390.01
560.96	45663.85
561.12	45043.61
561.29	44512.31
561.45	44942.97
561.61	44858.71
561.78	44968.71
561.94	44418.69
562.11	44463.16
562.27	44615.29
562.44	44872.75
562.60	45146.59
562.77	45111.49
562.93	45116.17
563.10	45074.04
563.26	45062.33
563.42	45411.07
563.59	45303.41
563.75	45172.34
563.92	45172.34
564.08	45263.62
564.24	45139.57
564.41	45184.04
564.57	45139.57
564.74	45485.97
564.90	45172.34
565.07	45312.77
565.23	45242.56
565.39	45130.21
565.56	45118.51
565.72	44973.39
565.88	45315.11
566.05	44697.21
566.21	45181.70
566.38	45006.16
566.54	45024.89
566.70	45319.79
566.87	45818.33
567.03	45558.53
567.19	45738.75
567.36	45631.08
567.52	45113.83
567.68	45528.10
567.85	45177.02
568.01	45146.59
568.17	45881.52
568.34	45528.10
568.50	45200.43
568.66	45146.59
568.83	45958.76
568.99	45322.13
569.15	45076.38
569.32	45385.33
569.48	45191.06
569.64	45645.13
569.81	45209.79
569.97	45193.40
570.13	45270.64
570.30	45165.32
570.46	45137.23
570.62	45242.56
570.78	44989.78
570.95	44926.58
571.11	45097.44
571.27	45354.90
571.43	45109.14
571.60	45715.34
571.76	45205.11
571.92	45757.47
572.09	45663.85
572.25	45305.75
572.41	45537.46
572.57	46031.32
572.74	46101.53
572.90	45888.54
573.06	45579.59
573.22	45724.71
573.38	45666.19
573.55	45158.30
573.71	45776.20
573.87	45595.98
574.03	45354.90
574.20	45654.49
574.36	45476.61
574.52	45673.21
574.68	45691.94
574.84	45523.42
575.01	45752.79
575.17	45336.18
575.33	45532.78
575.49	44903.18
575.65	45986.85
575.82	45914.29
575.98	45254.26
576.14	45689.60
576.30	45703.64
576.46	45832.37
576.62	45200.43
576.79	45638.11
576.95	45638.11
577.11	45457.88
577.27	45216.81
577.43	45722.37
577.59	45251.92
577.75	45418.10
577.92	45280.00
578.08	45390.01
578.24	45205.11
578.40	45446.18
578.56	45507.04
578.72	45551.51
578.88	45603.00
579.04	46000.89
579.21	45357.24
579.37	45542.14
579.53	45317.45
579.69	45549.17
579.85	45549.17
580.01	45490.65
580.17	45595.98
580.33	45972.80
580.49	45823.01
580.65	45834.71
580.82	45542.14
580.98	45305.75
581.14	45385.33
581.30	45727.05
581.46	45656.83
581.62	45455.54
581.78	45963.44
581.94	45890.88
582.10	45741.09
582.26	45867.48
582.42	45846.41
582.58	45865.14
582.74	45764.49
582.90	45628.74
583.06	46106.21
583.22	45872.16
583.38	45874.50
583.54	45940.04
583.70	45544.48
583.86	45591.30
584.02	45226.17
584.18	45619.38
584.34	45525.76
584.50	45638.11
584.66	45666.19
584.82	45813.65
584.98	45876.84
585.14	45804.28
585.30	45560.87
585.46	45680.24
585.62	45457.88
585.78	45776.20
585.94	44980.42
586.10	45626.40
586.26	45624.06
586.42	46157.70
586.58	45757.47
586.74	45811.31
586.90	45500.01
587.06	45787.90
587.22	45811.31
587.38	45603.00
587.54	45532.78
587.70	46267.71
587.86	45830.03
588.02	46021.95
588.18	46064.08
588.34	45017.86
588.49	45354.90
588.65	45247.24
588.81	45411.07
588.97	45111.49
589.13	45399.37
589.29	45516.40
589.45	45628.74
589.61	45614.70
589.77	45666.19
589.93	45315.11
590.08	45687.26
590.24	45841.73
590.40	45649.81
590.56	46167.07
590.72	45574.91
590.88	45542.14
591.04	45511.72
591.20	46387.08
591.35	46209.20
591.51	46328.56
591.67	45771.52
591.83	45713.00
591.99	45743.43
592.15	45649.81
592.31	45617.04
592.46	45738.75
592.62	45708.32
592.78	45897.91
592.94	46078.13
593.10	45553.85
593.26	45933.01
593.41	45951.74
593.57	45846.41
593.73	45771.52
593.89	46251.33
594.05	46160.05
594.20	45832.37
594.36	45832.37
594.52	45923.65
594.68	46099.19
594.84	45464.91
594.99	46230.26
595.15	45509.38
595.31	45904.93
595.47	46146.00
595.62	46270.05
595.78	45752.79
595.94	45778.54
596.10	46045.36
596.25	45860.46
596.41	45900.25
596.57	45556.19
596.73	46368.35
596.88	46089.83
597.04	45752.79
597.20	45900.25
597.36	45572.57
597.51	45855.78
597.67	45603.00
597.83	46059.40
597.99	45909.61
598.14	46031.32
598.30	46206.86
598.46	45804.28
598.61	46281.75
598.77	45659.17
598.93	46129.62
599.09	45858.12
599.24	46237.28
599.40	46164.73
599.56	45928.33
599.71	45872.16
599.87	46246.65
600.03	45883.86
600.18	46028.98
600.34	46047.70
600.50	45675.55
600.65	46164.73
600.81	45982.16
600.97	46270.05
601.12	45872.16
601.28	45654.49
601.44	46155.36
601.59	46087.49
601.75	45544.48
601.91	45890.88
602.06	45741.09
602.22	45799.60
602.37	46384.74
602.53	45890.88
602.69	45977.48
602.84	45801.94
603.00	45792.58
603.16	45881.52
603.31	45294.05
603.47	45680.24
603.62	45717.68
603.78	45654.49
603.94	45909.61
604.09	46031.32
604.25	45923.65
604.40	45862.80
604.56	45642.79
604.71	46263.03
604.87	45570.23
605.03	45799.60
605.18	45811.31
605.34	45881.52
605.49	45394.69
605.65	46024.29
605.80	45647.47
605.96	45518.74
606.12	45673.21
606.27	46106.21
606.43	45387.67
606.58	45490.65
606.74	45483.63
606.89	45661.51
607.05	46110.89
607.20	45858.12
607.36	45481.29
607.51	45368.94
607.67	45432.14
607.82	45563.21
607.98	45532.78
608.13	45652.15
608.29	45127.87
608.44	45638.11
608.60	45270.64
608.75	45645.13
608.91	44978.07
609.06	45111.49
609.22	45525.76
609.37	45441.50
609.53	45619.38
609.68	45495.33
609.84	45839.39
609.99	45441.50
610.15	45640.45
610.30	45202.77
610.46	44985.10
610.61	45263.62
610.76	45457.88
610.92	45212.13
611.07	45364.26
611.23	45422.78
611.38	45762.15
611.54	45397.03
611.69	44957.01
611.84	45441.50
612.00	45289.37
612.15	45394.69
612.31	45090.42
612.46	44645.72
612.62	45270.64
612.77	45268.30
612.92	45069.36
613.08	45141.91
613.23	44814.24
613.39	44512.31
613.54	44332.09
613.69	45029.57
613.85	44734.66
614.00	44624.65
614.15	44706.57
614.31	44760.40
614.46	44704.23
614.62	45048.29
614.77	44769.77
614.92	44720.62
615.08	44666.78
615.23	44306.34
615.38	44428.05
615.54	44505.29
615.69	44154.21
615.84	44479.54
616.00	44378.90
616.15	44652.74
616.30	44811.90
616.46	44282.94
616.61	44013.77
616.76	44402.30
616.92	44039.52
617.07	44114.42
617.22	44095.69
617.37	44083.99
617.53	44605.93
617.68	44669.12
617.83	44100.37
617.99	44467.84
618.14	44067.61
618.29	44102.71
618.45	44011.43
618.60	43866.32
618.75	43913.13
618.90	43934.20
619.06	43643.97
619.21	43777.38
619.36	44114.42
619.51	44027.82
619.67	43627.59
619.82	43655.67
619.97	44102.71
620.12	43267.14
620.28	43143.09
620.43	43583.12
620.58	44072.29
620.73	43620.56
620.89	43494.18
621.04	43608.86
621.19	43622.90
621.34	43700.14
621.49	43690.78
621.65	43627.59
621.80	43573.75
621.95	43412.26
622.10	43805.47
622.25	43667.37
622.41	43274.16
622.56	43571.41
622.71	43800.79
622.86	43374.81
623.01	43253.10
623.16	43604.18
623.32	43400.55
623.47	43826.53
623.62	43592.48
623.77	43271.82
623.92	43119.69
624.07	43107.99
624.23	42892.66
624.38	43021.39
624.53	42967.55
624.68	43269.48
624.83	43217.99
624.98	43157.14
625.13	43009.68
625.29	43281.19
625.44	42855.21
625.59	42740.52
625.74	42607.11
625.89	42368.38
626.04	42450.30
626.19	42630.52
626.34	42653.92
626.49	42962.87
626.65	42904.36
626.80	42738.18
626.95	42410.51
627.10	42281.78
627.25	42794.36
627.40	42249.01
627.55	42003.25
627.70	42164.75
627.85	42129.64
628.00	42368.38
628.15	42529.87
628.30	42541.58
628.45	42197.52
628.60	42405.83
628.76	42712.44
628.91	41909.63
629.06	42218.58
629.21	41830.05
629.36	41958.78
629.51	41818.35
629.66	41890.91
629.81	41329.18
629.96	41649.83
630.11	41823.03
630.26	41715.37
630.41	42232.63
630.56	42234.97
630.71	42064.11
630.86	41773.88
631.01	41720.05
631.16	41504.72
631.31	41436.84
631.46	41647.49
631.61	41581.96
631.76	41577.28
631.91	41982.19
632.06	41832.39
632.21	41904.95
632.36	42038.36
632.51	41343.22
632.66	41308.11
632.81	41186.41
632.96	41153.64
633.10	41343.22
633.25	41207.47
633.40	41427.48
633.55	42024.32
633.70	41249.60
633.85	41387.69
634.00	41134.92
634.15	41490.68
634.30	40872.78
634.45	41109.17
634.60	41486.00
634.75	40800.22
634.90	40959.38
635.05	41542.17
635.19	41158.32
635.34	41640.47
635.49	41504.72
635.64	40657.45
635.79	40730.00
635.94	41181.73
636.09	40655.11
636.24	40631.70
636.39	40870.43
636.53	40767.45
636.68	40811.92
636.83	40907.88
636.98	40947.67
637.13	40584.89
637.28	41130.23
637.43	41099.81
637.57	41036.61
637.72	40339.13
637.87	40851.71
638.02	40844.69
638.17	40837.67
638.32	40631.70
638.46	40596.59
638.61	40437.44
638.76	40191.68
638.91	40603.61
639.06	40273.60
639.20	40524.04
639.35	40486.59
639.50	40072.31
639.65	40561.48
639.80	40346.15
639.94	40091.04
640.09	40039.54
640.24	39908.47
640.39	39875.71
640.54	39999.76
640.68	40048.91
640.83	40257.21
640.98	39693.15
641.13	40032.52
641.27	40098.06
641.42	40105.08
641.57	40184.66
641.72	39688.46
641.86	39943.58
642.01	39487.18
642.16	39660.38
642.31	39440.37
642.45	40095.72
642.60	39901.45
642.75	39711.87
642.90	39555.05
643.04	39674.42
643.19	39746.98
643.34	39377.17
643.48	39594.84
643.63	39386.54
643.78	39220.36
643.93	39562.08
644.07	39246.10
644.22	39311.64
644.37	39159.50
644.51	39508.24
644.66	39262.49
644.81	39742.30
644.95	39239.08
645.10	39079.92
645.25	39267.17
645.39	39321.00
645.54	39054.18
645.69	39529.31
645.83	39044.82
645.98	39342.06
646.13	39260.15
646.27	38965.24
646.42	39030.77
646.57	39421.64
646.71	39112.69
646.86	39033.11
647.00	39138.44
647.15	39136.10
647.30	39218.02
647.44	39187.59
647.59	38574.37
647.74	38438.62
647.88	38298.19
648.03	38880.98
648.17	38497.13
648.32	38394.15
648.47	38136.69
648.61	38171.80
648.76	38646.93
648.90	38515.86
649.05	38291.16
649.20	38698.42
649.34	38932.47
649.49	38480.75
649.63	38976.94
649.78	38951.20
649.92	38153.07
650.07	38684.37
650.21	38712.46
650.36	38719.48
650.51	38792.04
650.65	38782.68
650.80	38951.20
650.94	38242.01
651.09	38557.99
651.23	37890.93
651.38	38398.83
651.52	37958.81
651.67	37638.15
651.81	38007.96
651.96	37741.14
652.10	37921.36
652.25	38136.69
652.39	38038.39
652.54	38171.80
652.68	37909.66
652.83	38527.56
652.97	38265.42
653.12	38337.98
653.26	37755.18
653.41	37752.84
653.55	38075.84
653.70	37820.72
653.84	37816.04
653.99	37549.21
654.13	37661.56
654.27	37982.21
654.42	37649.86
654.56	37628.79
654.71	37872.21
654.85	37495.38
655.00	38089.88
655.14	37610.07
655.29	37097.49
655.43	37661.56
655.57	37273.03
655.72	37085.79
655.86	36802.58
656.01	36823.65
656.15	36800.24
656.30	36748.75
656.44	37301.12
656.58	37401.76
656.73	37340.91
656.87	37071.75
657.01	36884.50
657.16	37017.91
657.30	36439.80
657.45	36786.20
657.59	36755.77
657.73	36856.42
657.88	36989.83
658.02	37109.19
658.16	36833.01
658.31	37050.68
658.45	37146.64
658.60	36938.33
658.74	36912.59
658.88	36921.95
659.03	36421.08
659.17	36210.43
659.31	36898.55
659.46	36533.42
659.60	36477.25
659.74	36252.56
659.89	36184.68
660.03	36156.60
660.17	36402.35
660.32	36797.90
660.46	36477.25
660.60	35880.41
660.74	36416.40
660.89	36271.28
661.03	36018.50
661.17	35849.99
661.32	35737.64
661.46	36175.32
661.60	35864.03
661.74	35835.94
661.89	35667.42
662.03	35800.83
662.17	35739.98
662.31	35639.34
662.46	35983.40
662.60	36165.96
662.74	35697.85
662.88	35346.77
663.03	35288.26
663.17	35222.72
663.31	35040.16
663.45	35325.71
663.60	35639.34
663.74	34946.54
663.88	35101.01
664.02	34967.60
664.17	34871.64
664.31	34897.39
664.45	34941.86
664.59	34684.40
664.73	34782.70
664.88	35065.91
665.02	34127.35
665.16	34288.85
665.30	34375.45
665.44	34328.64
665.59	34445.66
665.73	34459.71
665.87	34478.43
666.01	34274.80
666.15	34745.25
666.29	34396.51
666.44	34249.06
666.58	34139.05
666.72	33802.02
666.86	34462.05
667.00	34478.43
667.14	34033.73
667.28	33727.12
667.43	34251.40
667.57	34110.97
667.71	33713.08
667.85	33624.14
667.99	33968.19
668.13	33893.30
668.27	33844.15
668.41	33553.92
668.56	33352.63
668.70	33092.83
668.84	33181.77
668.98	33195.82
669.12	33418.17
669.26	32964.10
669.40	32811.97
669.54	33104.54
669.68	32966.45
669.82	32783.88
669.96	32893.89
670.10	32711.33
670.25	32952.40
670.39	32655.15
670.53	32397.70
670.67	32655.15
670.81	32563.87
670.95	32465.57
671.09	32238.54
671.23	32287.69
671.37	32472.59
671.51	32624.73
671.65	32261.94
671.79	31842.99
671.93	31693.19
672.07	31859.37
672.21	32086.40
672.35	32013.85
672.49	31494.25
672.63	31838.31
672.77	31475.52
672.91	31807.88
673.05	31349.14
673.19	31693.19
673.33	31150.19
673.47	31402.97
673.61	31489.57
673.75	30991.03
673.89	30986.35
674.03	31178.28
674.17	31096.36
674.31	30902.09
674.45	30958.27
674.59	31044.87
674.73	30923.16
674.87	31070.61
675.01	30920.82
675.15	30878.69
675.29	30745.28
675.43	30328.66
675.56	30672.72
675.70	30621.23
675.84	30555.69
675.98	29556.28
676.12	30015.03
676.26	30022.05
676.40	30118.01
676.54	30171.85
676.68	29998.65
676.82	29427.56
676.96	29685.01
677.10	29692.04
677.23	29476.71
677.37	29500.11
677.51	29371.38
677.65	28987.53
677.79	28706.67
677.93	28797.95
678.07	28306.44
678.21	28531.13
678.34	28292.40
678.48	28245.58
678.62	28151.96
678.76	28016.21
678.90	28102.81
679.04	28191.75
679.18	28350.91
679.31	27824.29
679.45	28039.62
679.59	27857.06
679.73	27917.91
679.87	27555.13
680.00	27599.60
680.14	27187.66
680.28	27260.22
680.42	27227.45
680.56	27391.29
680.70	27693.22
680.83	27269.58
680.97	27117.45
681.11	27016.80
681.25	27229.79
681.39	26899.78
681.52	26820.20
681.66	26539.33
681.80	26513.59
681.94	26859.99
682.07	26012.71
682.21	26057.18
682.35	26340.39
682.49	26108.68
682.62	25923.77
682.76	25846.54
682.90	26211.66
683.04	25528.22
683.17	25701.42
683.31	25624.18
683.45	25357.36
683.59	25626.53
683.72	25324.60
683.86	25415.88
684.00	24840.11
684.13	25017.99
684.27	24788.61
684.41	24755.85
684.55	24720.74
684.68	24664.57
684.82	24725.42
684.96	24587.33
685.09	24734.78
685.23	24568.60
685.37	24264.33
685.50	24313.48
685.64	24170.71
685.78	24205.82
685.91	24027.94
686.05	23810.27
686.19	23620.69
686.32	23571.54
686.46	23140.88
686.60	23103.43
686.73	22944.27
686.87	23180.67
687.01	22979.38
687.14	22607.23
687.28	22691.49
687.42	22717.24
687.55	22733.62
687.69	22487.87
687.82	22759.37
687.96	22934.91
688.10	22546.38
688.23	22581.49
688.37	22682.13
688.50	22345.09
688.64	22122.74
688.78	22195.30
688.91	21888.69
689.05	21699.11
689.18	21745.92
689.32	21359.73
689.46	21895.71
689.59	21759.96
689.73	21542.29
689.86	21664.00
690.00	21132.70
690.13	21303.56
690.27	20985.24
690.41	21092.91
690.54	20872.90
690.68	20891.62
690.81	21212.28
690.95	20793.32
691.08	20868.22
691.22	20842.47
691.35	20851.83
691.49	20952.48
691.62	20823.75
691.76	20802.68
691.89	20608.42
692.03	20397.77
692.16	20531.18
692.30	20278.40
692.43	20320.53
692.57	20142.65
692.70	19868.81
692.84	19924.98
692.97	19564.54
693.11	19871.15
693.24	19236.86
693.38	19386.66
693.51	19239.20
693.65	19201.76
693.78	19105.79
693.92	19286.01
694.05	19176.01
694.19	19012.17
694.32	19129.20
694.45	19126.86
694.59	19005.15
694.72	18848.33
694.86	18848.33
694.99	18574.49
695.13	18562.79
695.26	18593.22
695.39	18420.02
695.53	18703.22
695.66	18434.06
695.80	18333.42
695.93	18176.60
696.07	18054.89
696.20	18085.32
696.33	18146.17
696.47	17982.34
696.60	18097.02
696.73	17549.34
696.87	17387.84
697.00	17584.44
697.14	17502.53
697.27	17439.33
697.40	17408.90
697.54	17242.73
697.67	17114.00
697.80	17205.28
697.94	16847.18
698.07	17003.99
698.21	16774.62
698.34	16952.50
698.47	16835.47
698.61	16456.31
698.74	16769.94
698.87	16718.45
699.01	16313.53
699.14	16035.01
699.27	16149.70
699.40	16322.90
699.54	15974.16
699.67	15896.92
699.80	16126.29
699.94	16170.76
700.07	16262.04
700.20	16123.95
700.34	15873.51
700.47	15506.05
700.60	15349.23
700.73	15700.31
700.87	15499.03
701.00	15293.06
701.13	15321.15
701.26	15604.35
701.40	15414.77
701.53	15138.58
701.66	15136.24
701.79	15117.52
701.93	14960.70
702.06	14670.48
702.19	14626.01
702.32	14799.21
702.46	14941.98
702.59	14860.06
702.72	14590.90
702.85	14637.71
702.99	14544.09
703.12	14532.39
703.25	14274.93
703.38	14464.51
703.51	14040.87
703.65	14092.37
703.78	13785.76
703.91	14003.43
704.04	13888.74
704.17	13657.03
704.31	13921.51
704.44	13764.69
704.57	13671.07
704.70	13444.04
704.83	13336.37
704.96	13715.54
705.10	13118.70
705.23	13483.83
>>>>>End Processed Spectral Data<<<<<
