SpectraSuite Data File
++++++++++++++++++++++++++++++++++++
Date: Fri Oct 25 10:47:22 EDT 2013
User: price-jones
Dark Spectrum Present: No
Reference Spectrum Present: No
Number of Sampled Component Spectra: 1
Spectrometers: USB2+H05261
Integration Time (usec): 100000 (USB2+H05261)
Spectra Averaged: 1 (USB2+H05261)
Boxcar Smoothing: 0 (USB2+H05261)
Correct for Electrical Dark: No (USB2+H05261)
Strobe/Lamp Enabled: No (USB2+H05261)
Correct for Detector Non-linearity: No (USB2+H05261)
Correct for Stray Light: No (USB2+H05261)
Number of Pixels in Processed Spectrum: 2048
>>>>>Begin Processed Spectral Data<<<<<
365.73	135.75
365.92	135.75
366.12	135.75
366.32	65.54
366.52	28.09
366.72	88.94
366.91	9.36
367.11	30.43
367.31	140.43
367.51	51.49
367.70	14.04
367.90	35.11
368.10	7.02
368.30	32.77
368.49	11.70
368.69	65.54
368.89	32.77
369.09	35.11
369.28	121.71
369.48	0.00
369.68	110.01
369.87	131.07
370.07	124.05
370.27	149.79
370.47	189.58
370.66	395.55
370.86	437.68
371.06	510.24
371.25	479.81
371.45	395.55
371.65	416.62
371.84	430.66
372.04	486.83
372.24	468.11
372.44	433.00
372.63	470.45
372.83	475.13
373.03	524.28
373.22	463.43
373.42	470.45
373.62	486.83
373.81	437.68
374.01	500.87
374.21	638.97
374.40	531.30
374.60	631.94
374.79	531.30
374.99	500.87
375.19	685.78
375.38	554.71
375.58	599.18
375.78	610.88
375.97	596.84
376.17	641.31
376.37	608.54
376.56	634.29
376.76	575.77
376.95	601.52
377.15	573.43
377.35	510.24
377.54	620.24
377.74	657.69
377.93	585.13
378.13	613.22
378.33	627.26
378.52	676.41
378.72	631.94
378.91	608.54
379.11	559.39
379.31	594.50
379.50	587.47
379.70	606.20
379.89	741.95
380.09	674.07
380.28	688.12
380.48	617.90
380.68	568.75
380.87	636.63
381.07	601.52
381.26	723.23
381.46	610.88
381.65	648.33
381.85	685.78
382.04	620.24
382.24	688.12
382.43	697.48
382.63	723.23
382.83	660.03
383.02	697.48
383.22	713.86
383.41	741.95
383.61	653.01
383.80	739.61
384.00	662.37
384.19	765.36
384.39	835.57
384.58	744.29
384.78	737.27
384.97	725.57
385.17	725.57
385.36	727.91
385.56	767.70
385.75	713.86
385.95	744.29
386.14	812.17
386.34	812.17
386.53	779.40
386.72	791.10
386.92	826.21
387.11	814.51
387.31	753.65
387.50	770.04
387.70	809.83
387.89	784.08
388.09	791.10
388.28	830.89
388.48	917.49
388.67	875.36
388.86	880.04
389.06	842.59
389.25	889.40
389.45	870.68
389.64	987.71
389.84	980.68
390.03	931.53
390.22	910.47
390.42	908.13
390.61	896.43
390.81	929.19
391.00	976.00
391.19	1034.52
391.39	1046.22
391.58	999.41
391.78	938.55
391.97	931.53
392.16	931.53
392.36	1011.11
392.55	994.73
392.75	950.26
392.94	964.30
393.13	961.96
393.33	1064.94
393.52	961.96
393.71	1029.84
393.91	1128.14
394.10	1055.58
394.29	1062.60
394.49	1071.97
394.68	1088.35
394.88	1130.48
395.07	1205.38
395.26	1090.69
395.46	1097.71
395.65	1158.57
395.84	1198.35
396.04	1174.95
396.23	1146.86
396.42	1109.41
396.62	1200.69
396.81	1214.74
397.00	1172.61
397.19	1270.91
397.39	1228.78
397.58	1184.31
397.77	1226.44
397.97	1238.14
398.16	1275.59
398.35	1366.87
398.55	1282.61
398.74	1322.40
398.93	1315.38
399.12	1317.72
399.32	1247.51
399.51	1341.13
399.70	1392.62
399.90	1406.66
400.09	1397.30
400.28	1488.58
400.47	1355.17
400.67	1418.36
400.86	1483.90
401.05	1430.07
401.24	1481.56
401.44	1591.56
401.63	1490.92
401.82	1568.16
402.01	1425.39
402.21	1582.20
402.40	1554.12
402.59	1509.65
402.78	1558.80
402.97	1540.07
403.17	1589.22
403.36	1535.39
403.55	1533.05
403.74	1570.50
403.93	1617.31
404.13	1572.84
404.32	1666.46
404.51	1661.78
404.70	1703.91
404.89	1748.38
405.09	1898.17
405.28	1743.70
405.47	1696.89
405.66	1816.26
405.85	1809.23
406.05	1734.34
406.24	1898.17
406.43	1877.11
406.62	1921.58
406.81	1963.71
407.00	1729.66
407.20	1781.15
407.39	1750.72
407.58	1858.39
407.77	1963.71
407.96	1970.73
408.15	1956.69
408.34	2005.84
408.54	2064.35
408.73	1966.05
408.92	2031.58
409.11	2099.46
409.30	2038.61
409.49	2033.93
409.68	2118.18
409.87	2153.29
410.07	2155.63
410.26	2085.42
410.45	2129.89
410.64	2246.91
410.83	2225.85
411.02	2317.13
411.21	2319.47
411.40	2267.98
411.59	2373.30
411.78	2303.09
411.98	2190.74
412.17	2314.79
412.36	2277.34
412.55	2422.45
412.74	2581.61
412.93	2438.84
413.12	2434.16
413.31	2518.42
413.50	2668.21
413.69	2431.82
413.88	2504.37
414.07	2640.12
414.26	2644.81
414.45	2677.57
414.64	2644.81
414.83	2614.38
415.02	2736.09
415.22	2780.56
415.41	2715.02
415.60	2946.73
415.79	2913.97
415.98	2850.77
416.17	2855.45
416.36	2848.43
416.55	2890.56
416.74	3033.33
416.93	2946.73
417.12	3028.65
417.31	3023.97
417.50	2963.12
417.69	3091.85
417.88	3063.76
418.07	3166.74
418.26	3131.64
418.45	2963.12
418.64	3204.19
418.83	3117.59
419.02	3204.19
419.21	3213.56
419.39	3279.09
419.58	3267.39
419.77	3166.74
419.96	3272.07
420.15	3311.86
420.34	3391.44
420.53	3375.05
420.72	3531.87
420.91	3342.28
421.10	3370.37
421.29	3417.18
421.48	3384.41
421.67	3323.56
421.86	3468.67
422.05	3473.36
422.24	3424.20
422.43	3449.95
422.61	3552.93
422.80	3492.08
422.99	3592.72
423.18	3557.61
423.37	3513.14
423.56	3669.96
423.75	3571.66
423.94	3604.42
424.13	3339.94
424.32	3562.30
424.50	3494.42
424.69	3772.94
424.88	3618.47
425.07	3480.38
425.26	3485.06
425.45	3555.27
425.64	3686.34
425.83	3571.66
426.01	3632.51
426.20	3613.79
426.39	3709.75
426.58	3651.24
426.77	3571.66
426.96	3737.84
427.15	3721.45
427.33	3686.34
427.52	3768.26
427.71	3751.88
427.90	3758.90
428.09	3833.80
428.28	3805.71
428.46	3894.65
428.65	3770.60
428.84	3740.18
429.03	3840.82
429.22	3794.01
429.40	3819.75
429.59	3854.86
429.78	3744.86
429.97	3779.97
430.16	3852.52
430.34	3861.88
430.53	4007.00
430.72	3880.61
430.91	3929.76
431.10	4109.98
431.28	4093.60
431.47	4276.16
431.66	4219.99
431.85	4051.47
432.03	4308.93
432.22	4351.06
432.41	4222.33
432.60	4126.36
432.79	4262.12
432.97	4224.67
433.16	4372.12
433.35	4224.67
433.54	4156.79
433.72	4259.78
433.91	4156.79
434.10	4219.99
434.28	4346.37
434.47	4386.16
434.66	4432.97
434.85	4547.66
435.03	4397.87
435.22	4329.99
435.41	4587.45
435.59	4409.57
435.78	4559.36
435.97	4716.18
436.16	4741.93
436.34	4517.23
436.53	4561.70
436.72	4865.97
436.90	4657.67
437.09	4645.96
437.28	4695.11
437.46	4704.48
437.65	4697.46
437.84	4887.04
438.02	4777.03
438.21	4755.97
438.40	4592.13
438.58	5057.90
438.77	4851.93
438.96	4788.74
439.14	5032.15
439.33	5097.69
439.52	5043.85
439.70	5195.99
439.89	5090.67
440.08	5074.28
440.26	5153.86
440.45	5170.24
440.63	5481.53
440.82	5540.05
441.01	5345.78
441.19	5315.36
441.38	5579.84
441.57	5481.53
441.75	5650.05
441.94	5577.50
442.12	5746.02
442.31	5802.19
442.50	5554.09
442.68	5617.29
442.87	5788.14
443.05	5685.16
443.24	5933.26
443.43	5802.19
443.61	5839.64
443.80	5858.36
443.98	5760.06
444.17	5654.73
444.35	5802.19
444.54	5921.56
444.73	5944.96
444.91	5914.53
445.10	5947.30
445.28	5905.17
445.47	5776.44
445.65	5921.56
445.84	5851.34
446.02	5944.96
446.21	6146.25
446.39	5994.11
446.58	6043.26
446.77	5973.05
446.95	5853.68
447.14	6033.90
447.32	6113.48
447.51	5959.00
447.69	6015.18
447.88	5973.05
448.06	5984.75
448.25	6218.80
448.43	5959.00
448.62	6155.61
448.80	6033.90
448.99	6040.92
449.17	6153.27
449.36	6104.12
449.54	6258.59
449.73	6340.51
449.91	6389.66
450.10	6314.77
450.28	6424.77
450.46	6324.13
450.65	6333.49
450.83	6523.07
451.02	6424.77
451.20	6523.07
451.39	6469.24
451.57	6490.31
451.76	6368.60
451.94	6490.31
452.13	6471.58
452.31	6621.38
452.49	6406.05
452.68	6401.37
452.86	6544.14
453.05	6593.29
453.23	6593.29
453.42	6590.95
453.60	6579.25
453.78	6707.98
453.97	6764.15
454.15	6913.94
454.34	6754.79
454.52	6724.36
454.70	6885.86
454.89	6827.34
455.07	6951.39
455.26	6909.26
455.44	6967.77
455.62	7089.48
455.81	6993.52
455.99	7084.80
456.17	7007.56
456.36	7246.30
456.54	6993.52
456.73	7063.74
456.91	7468.65
457.09	7253.32
457.28	7485.03
457.46	7190.13
457.64	7494.40
457.83	7382.05
458.01	7307.15
458.19	7487.37
458.38	7332.90
458.56	7473.33
458.74	7267.36
458.93	7513.12
459.11	7517.80
459.29	7552.91
459.48	7686.32
459.66	7709.72
459.84	7555.25
460.03	7719.09
460.21	7723.77
460.39	7740.15
460.57	7651.21
460.76	7922.71
460.94	7887.61
461.12	7864.20
461.31	7899.31
461.49	7726.11
461.67	8046.76
461.85	7967.18
462.04	7953.14
462.22	8486.78
462.40	7978.89
462.59	7871.22
462.77	8006.97
462.95	8081.87
463.13	8102.93
463.32	8252.73
463.50	8222.30
463.68	8145.06
463.86	8367.42
464.05	7906.33
464.23	8161.45
464.41	8439.97
464.59	8039.74
464.78	8294.86
464.96	8294.86
465.14	8304.22
465.32	8315.92
465.50	8322.94
465.69	8582.74
465.87	8461.04
466.05	8332.31
466.23	8451.67
466.41	8264.43
466.60	8667.00
466.78	8285.50
466.96	8655.30
467.14	8456.36
467.32	8624.87
467.51	8725.52
467.69	8243.37
467.87	8519.55
468.05	8692.75
468.23	8528.91
468.41	8606.15
468.60	8624.87
468.78	8748.92
468.96	8851.91
469.14	8784.03
469.32	9090.64
469.50	8720.84
469.69	8950.21
469.87	9022.77
470.05	8978.30
470.23	9006.38
470.41	8875.31
470.59	9130.43
470.77	8992.34
470.95	9095.32
471.14	9228.73
471.32	9186.60
471.50	9343.42
471.68	9331.72
471.86	9479.17
472.04	9528.32
472.22	9767.06
472.40	9355.12
472.58	9570.45
472.77	9685.14
472.95	9795.14
473.13	9797.48
473.31	9816.21
473.49	9682.80
473.67	9790.46
473.85	9816.21
474.03	9982.38
474.21	9870.04
474.39	10129.84
474.57	10029.20
474.75	9994.09
474.93	10078.35
475.12	10153.24
475.30	10260.91
475.48	10384.96
475.66	10293.68
475.84	10368.57
476.02	10265.59
476.20	10544.11
476.38	10555.82
476.56	11035.63
476.74	10757.10
476.92	10670.50
477.10	10637.73
477.28	11112.86
477.46	11112.86
477.64	11201.80
477.82	11431.18
478.00	11524.80
478.18	11559.91
478.36	11377.34
478.54	11592.67
478.72	11573.95
478.90	11747.15
479.08	11754.17
479.26	12135.68
479.44	11838.43
479.62	12252.70
479.80	12056.10
479.98	12269.09
480.16	12517.18
480.34	12489.10
480.52	12517.18
480.70	12374.41
480.88	12461.01
481.06	12521.87
481.24	12807.41
481.41	13008.70
481.59	13076.57
481.77	13219.35
481.95	13177.22
482.13	13348.08
482.31	13277.86
482.49	13532.98
482.67	13298.92
482.85	13921.51
483.03	13715.54
483.21	14005.77
483.39	14193.01
483.57	14216.41
483.74	14059.60
483.92	14373.23
484.10	14235.14
484.28	14651.75
484.46	15047.30
484.64	14932.62
484.82	14698.56
485.00	15033.26
485.18	15382.00
485.35	15318.81
485.53	15129.22
485.71	15000.49
485.89	15463.92
486.07	15293.06
486.25	15370.30
486.43	15594.99
486.61	15983.52
486.78	16119.27
486.96	16035.01
487.14	16023.31
487.32	16393.11
487.50	16783.98
487.68	16826.11
487.85	16776.96
488.03	16999.31
488.21	17139.74
488.39	17055.48
488.57	17401.88
488.75	17598.49
488.92	17771.69
489.10	17944.89
489.28	17788.07
489.46	18174.26
489.64	17912.12
489.81	18548.75
489.99	18567.47
490.17	18642.37
490.35	18895.14
490.53	18700.88
490.70	18923.23
490.88	19019.19
491.06	19138.56
491.24	18941.96
491.41	19051.96
491.59	19358.57
491.77	19405.38
491.95	19716.67
492.13	19660.50
492.30	19669.86
492.48	20184.78
492.66	20093.50
492.84	19922.64
493.01	20348.62
493.19	20255.00
493.37	20606.08
493.54	20535.86
493.72	20767.57
493.90	20919.71
494.08	20926.73
494.25	21324.62
494.43	21275.47
494.61	21458.03
494.79	21654.64
494.96	21507.18
495.14	21759.96
495.32	22169.55
495.49	22022.10
495.67	22092.32
495.85	22541.70
496.02	22089.98
496.20	22424.67
496.38	22698.52
496.55	22965.34
496.73	23117.47
496.91	22838.95
497.09	23094.07
497.26	23264.92
497.44	22979.38
497.62	23433.44
497.79	23665.16
497.97	23503.66
498.14	23517.70
498.32	23709.63
498.50	23489.62
498.67	23908.57
498.85	24184.76
499.03	24395.40
499.20	24208.16
499.38	24533.50
499.56	24484.34
499.73	24510.09
499.91	24528.81
500.08	24713.72
500.26	24577.97
500.44	24919.68
500.61	25003.94
500.79	24952.45
500.97	25057.78
501.14	25263.74
501.32	25331.62
501.49	25528.22
501.67	25373.75
501.84	25699.08
502.02	25582.06
502.20	25673.34
502.37	26206.98
502.55	25977.61
502.72	25820.79
502.90	25942.50
503.07	25898.03
503.25	26010.37
503.43	26377.84
503.60	26457.42
503.78	26260.81
503.95	26209.32
504.13	26773.39
504.30	26614.23
504.48	26558.06
504.65	26986.38
504.83	27150.21
505.01	27428.74
505.18	27091.70
505.36	27564.49
505.53	27445.12
505.71	27428.74
505.88	27796.20
506.06	27222.77
506.23	27620.66
506.41	27775.14
506.58	27873.44
506.76	27779.82
506.93	28245.58
507.11	27931.95
507.28	27896.85
507.46	28030.26
507.63	28201.11
507.81	28486.66
507.98	28336.87
508.16	28615.39
508.33	28655.18
508.50	28980.51
508.68	29034.35
508.85	28418.78
509.03	28943.06
509.20	29039.03
509.38	29118.60
509.55	29303.51
509.73	29411.17
509.90	29312.87
510.08	29221.59
510.25	29284.78
510.42	29575.01
510.60	29317.55
510.77	29701.40
510.95	30249.08
511.12	29694.38
511.30	30295.89
511.47	30242.06
511.64	30253.76
511.82	30188.23
511.99	29776.30
512.17	30246.74
512.34	30171.85
512.51	30464.41
512.69	30878.69
512.86	30555.69
513.04	30614.21
513.21	30813.15
513.38	31044.87
513.56	31068.27
513.73	31077.63
513.90	30913.80
514.08	31061.25
514.25	31241.47
514.43	31260.20
514.60	31353.82
514.77	31307.01
514.95	31550.42
515.12	31819.58
515.29	31447.44
515.47	31964.70
515.64	31896.82
515.81	31438.08
515.99	32055.98
516.16	32048.96
516.33	31749.37
516.51	32027.89
516.68	31442.76
516.85	31868.73
517.03	31976.40
517.20	31913.20
517.37	31917.89
517.54	32236.20
517.72	32177.68
517.89	32425.78
518.06	32449.19
518.24	32203.43
518.41	32191.73
518.58	32907.93
518.75	32472.59
518.93	33113.90
519.10	33071.77
519.27	33106.88
519.45	33141.99
519.62	33202.84
519.79	33095.18
519.96	33687.33
520.14	34143.74
520.31	33476.68
520.48	33053.05
520.65	33460.30
520.83	33408.81
521.00	33834.78
521.17	33734.14
521.34	33872.23
521.52	34024.37
521.69	33715.42
521.86	34345.02
522.03	33792.65
522.20	34703.12
522.38	34338.00
522.55	34396.51
522.72	34387.15
522.89	34450.35
523.07	34499.50
523.24	34534.60
523.41	34508.86
523.58	34565.03
523.75	35267.19
523.92	34939.52
524.10	34986.33
524.27	35255.49
524.44	35587.85
524.61	35019.10
524.78	35416.99
524.96	35398.26
525.13	35384.22
525.30	35896.80
525.47	35395.92
525.64	35526.99
525.81	35861.69
525.98	35480.18
526.16	35288.26
526.33	35473.16
526.50	35620.61
526.67	35255.49
526.84	35962.33
527.01	35615.93
527.18	36126.17
527.36	36238.51
527.53	36128.51
527.70	36507.68
527.87	36376.61
528.04	36182.34
528.21	36769.82
528.38	36727.69
528.55	36577.89
528.72	36793.22
528.89	36861.10
529.07	36762.79
529.24	36594.28
529.41	36598.96
529.58	36528.74
529.75	36877.48
529.92	37408.78
530.09	37226.22
530.26	36758.11
530.43	37546.87
530.60	37153.66
530.77	37148.98
530.94	37624.11
531.11	37212.18
531.28	36966.42
531.46	36971.10
531.63	37319.84
531.80	37296.44
531.97	37474.32
532.14	37448.57
532.31	37214.52
532.48	37572.62
532.65	37343.25
532.82	37855.82
532.99	37680.28
533.16	38014.98
533.33	37907.32
533.50	38003.28
533.67	37769.22
533.84	37816.04
534.01	37928.38
534.18	38291.16
534.35	38445.64
534.52	37738.80
534.69	38132.01
534.86	38499.47
535.03	38007.96
535.20	38508.83
535.37	38864.60
535.54	38855.23
535.71	37933.06
535.88	38693.74
536.05	38508.83
536.22	38455.00
536.38	38602.46
536.55	39079.92
536.72	38689.06
536.89	38768.63
537.06	38600.12
537.23	38607.14
537.40	38895.02
537.57	39044.82
537.74	39021.41
537.91	39342.06
538.08	39447.39
538.25	38925.45
538.42	39541.01
538.59	39115.03
538.75	39215.68
538.92	39292.91
539.09	39477.82
539.26	39725.91
539.43	39709.53
539.60	39655.70
539.77	39466.11
539.94	39672.08
540.11	39707.19
540.28	39445.05
540.44	39735.27
540.61	39742.30
540.78	39821.87
540.95	39533.99
541.12	39711.87
541.29	39941.24
541.46	39805.49
541.62	40261.90
541.79	40072.31
541.96	40135.51
542.13	39997.41
542.30	40472.54
542.47	40114.44
542.63	40346.15
542.80	40039.54
542.97	40121.46
543.14	40912.56
543.31	40655.11
543.48	40879.80
543.64	41588.98
543.81	40973.42
543.98	41139.60
544.15	40809.58
544.32	41146.62
544.48	41188.75
544.65	40954.69
544.82	41090.44
544.99	40987.46
545.16	41153.64
545.32	40903.20
545.49	41553.87
545.66	41240.24
545.83	41670.90
546.00	41441.53
546.16	41209.81
546.33	41235.56
546.50	40947.67
546.67	41275.35
546.83	40718.30
547.00	41511.74
547.17	41647.49
547.34	41223.86
547.50	41116.19
547.67	41853.46
547.84	41928.36
548.00	41776.22
548.17	41991.55
548.34	41785.58
548.51	41872.18
548.67	41720.05
548.84	42394.12
549.01	41907.29
549.18	41811.33
549.34	42057.09
549.51	42532.22
549.68	42272.42
549.84	42005.59
550.01	42391.78
550.18	41958.78
550.34	42045.38
550.51	42045.38
550.68	42146.03
550.84	41951.76
551.01	42513.49
551.18	41916.65
551.34	42122.62
551.51	42478.38
551.68	42094.53
551.84	42281.78
552.01	42218.58
552.18	42220.92
552.34	42597.75
552.51	42691.37
552.68	42522.85
552.84	42480.72
553.01	42625.84
553.18	42127.30
553.34	42838.83
553.51	42754.57
553.67	42660.94
553.84	42932.45
554.01	43150.12
554.17	43091.60
554.34	43203.95
554.51	43178.20
554.67	43309.27
554.84	43077.56
555.00	42777.97
555.17	42576.69
555.33	43117.35
555.50	42864.57
555.67	43126.71
555.83	43313.95
556.00	43131.39
556.16	43592.48
556.33	43674.40
556.50	43496.52
556.66	43143.09
556.83	42986.28
556.99	43367.79
557.16	43325.66
557.32	43608.86
557.49	43330.34
557.65	43140.75
557.82	43056.50
557.98	43398.21
558.15	43285.87
558.32	43283.53
558.48	43477.79
558.65	43496.52
558.81	43262.46
558.98	43267.14
559.14	43494.18
559.31	43779.72
559.47	43765.68
559.64	44081.65
559.80	43856.96
559.97	43892.07
560.13	43283.53
560.30	43239.06
560.46	43763.34
560.63	43618.22
560.79	43772.70
560.96	44215.06
561.12	43833.55
561.29	43540.99
561.45	43899.09
561.61	43702.48
561.78	43704.82
561.94	43374.81
562.11	43915.47
562.27	43615.88
562.44	44264.21
562.60	44123.78
562.77	43913.13
562.93	43901.43
563.10	44165.91
563.26	43566.73
563.42	43868.66
563.59	43674.40
563.75	44067.61
563.92	44116.76
564.08	44140.16
564.24	44348.47
564.41	43952.92
564.57	44217.40
564.74	43882.70
564.90	44196.34
565.07	44294.64
565.23	44203.36
565.39	44051.22
565.56	44313.36
565.72	44016.11
565.88	44346.13
566.05	44004.41
566.21	44287.62
566.38	44076.97
566.54	44023.14
566.70	44697.21
566.87	44156.55
567.03	44236.12
567.19	44463.16
567.36	44404.64
567.52	44133.14
567.68	45036.59
567.85	44133.14
568.01	44409.32
568.17	44392.94
568.34	44404.64
568.50	44516.99
568.66	44039.52
568.83	44891.48
568.99	44238.47
569.15	44739.34
569.32	44334.43
569.48	44238.47
569.64	44498.26
569.81	44390.60
569.97	43962.28
570.13	44533.37
570.30	44442.09
570.46	44493.58
570.62	43983.35
570.78	44184.63
570.95	43952.92
571.11	44575.50
571.27	44165.91
571.43	44444.43
571.60	44825.94
571.76	44507.63
571.92	44301.66
572.09	44275.91
572.25	44423.37
572.41	44727.64
572.57	44638.70
572.74	44968.71
572.90	44697.21
573.06	44472.52
573.22	44872.75
573.38	44512.31
573.55	44233.78
573.71	44425.71
573.87	44605.93
574.03	44168.25
574.20	44891.48
574.36	44292.30
574.52	44921.90
574.68	44701.89
574.84	44851.69
575.01	44247.83
575.17	44268.89
575.33	44381.24
575.49	44395.28
575.65	44868.07
575.82	45394.69
575.98	44638.70
576.14	44744.02
576.30	44809.56
576.46	44484.22
576.62	44540.39
576.79	44706.57
576.95	44268.89
577.11	44619.97
577.27	45284.68
577.43	44825.94
577.59	44680.83
577.75	44985.10
577.92	44601.25
578.08	44156.55
578.24	44900.84
578.40	44704.23
578.56	44634.02
578.72	44748.70
578.88	45085.74
579.04	44940.63
579.21	44589.55
579.37	44629.34
579.53	44797.85
579.69	44809.56
579.85	44664.44
580.01	45282.34
580.17	44327.41
580.33	45085.74
580.49	44706.57
580.65	45067.02
580.82	44978.07
580.98	45191.06
581.14	44788.49
581.30	45141.91
581.46	45059.99
581.62	45277.66
581.78	44832.96
581.94	45226.17
582.10	44596.57
582.26	44842.32
582.42	44957.01
582.58	44598.91
582.74	45001.48
582.90	44905.52
583.06	44814.24
583.22	44964.03
583.38	45188.72
583.54	44617.63
583.70	44926.58
583.86	44842.32
584.02	44325.07
584.18	44648.06
584.34	44905.52
584.50	44889.13
584.66	44835.30
584.82	45148.93
584.98	45223.83
585.14	44828.28
585.30	44306.34
585.46	44872.75
585.62	44416.35
585.78	44875.09
585.94	44802.53
586.10	44608.27
586.26	44966.37
586.42	45048.29
586.58	45069.36
586.74	44931.26
586.90	44601.25
587.06	44603.59
587.22	45177.02
587.38	45153.62
587.54	44879.77
587.70	45366.60
587.86	44788.49
588.02	45223.83
588.18	45347.88
588.34	44945.31
588.49	44769.77
588.65	44502.95
588.81	44531.03
588.97	44641.04
589.13	44610.61
589.29	44659.76
589.45	44832.96
589.61	45050.63
589.77	45467.25
589.93	45158.30
590.08	45607.68
590.24	45214.47
590.40	45167.66
590.56	45249.58
590.72	45205.11
590.88	44603.59
591.04	45181.70
591.20	45345.54
591.35	45563.21
591.51	45368.94
591.67	45411.07
591.83	45235.53
591.99	45155.96
592.15	44774.45
592.31	45326.81
592.46	45031.91
592.62	45034.25
592.78	45425.12
592.94	45577.25
593.10	45385.33
593.26	45436.82
593.41	45202.77
593.57	45109.14
593.73	45078.72
593.89	45153.62
594.05	45364.26
594.20	45064.67
594.36	45226.17
594.52	44989.78
594.68	45090.42
594.84	45268.30
594.99	45333.84
595.15	45020.20
595.31	45558.53
595.47	45177.02
595.62	45095.10
595.78	45010.84
595.94	45076.38
596.10	45111.49
596.25	45570.23
596.41	45354.90
596.57	45097.44
596.73	45560.87
596.88	45254.26
597.04	45181.70
597.20	45045.95
597.36	45067.02
597.51	45443.84
597.67	45446.18
597.83	45085.74
597.99	45610.02
598.14	45312.77
598.30	45422.78
598.46	45329.16
598.61	45319.79
598.77	45207.45
598.93	45420.44
599.09	45010.84
599.24	45668.53
599.40	45429.80
599.56	45682.58
599.71	45567.89
599.87	45556.19
600.03	45413.41
600.18	45120.85
600.34	45195.74
600.50	45635.77
600.65	45497.67
600.81	45549.17
600.97	45490.65
601.12	46028.98
601.28	45965.78
601.44	45359.58
601.59	45244.90
601.75	45216.81
601.91	45614.70
602.06	44994.46
602.22	45322.13
602.37	45062.33
602.53	45127.87
602.69	45600.66
602.84	44879.77
603.00	45151.27
603.16	44921.90
603.31	44994.46
603.47	44975.73
603.62	45067.02
603.78	45652.15
603.94	45862.80
604.09	45244.90
604.25	45542.14
604.40	45235.53
604.56	45280.00
604.71	45453.20
604.87	45270.64
605.03	45090.42
605.18	45179.36
605.34	45272.98
605.49	45003.82
605.65	44954.67
605.80	45420.44
605.96	45418.10
606.12	45357.24
606.27	45584.27
606.43	44889.13
606.58	45188.72
606.74	44954.67
606.89	45116.17
607.05	45076.38
607.20	45050.63
607.36	45584.27
607.51	45375.97
607.67	44940.63
607.82	45373.63
607.98	45450.86
608.13	45008.50
608.29	44722.96
608.44	44935.95
608.60	44130.80
608.75	44334.43
608.91	44655.08
609.06	44643.38
609.22	45006.16
609.37	44966.37
609.53	44837.64
609.68	45251.92
609.84	44797.85
609.99	45441.50
610.15	45085.74
610.30	45130.21
610.46	44729.98
610.61	44839.98
610.76	44797.85
610.92	44727.64
611.07	44718.28
611.23	44329.75
611.38	44893.82
611.54	44339.11
611.69	44676.15
611.84	44343.79
612.00	45024.89
612.15	44299.32
612.31	44692.53
612.46	44488.90
612.62	44498.26
612.77	44374.22
612.92	44905.52
613.08	44865.73
613.23	44715.93
613.39	44460.82
613.54	43765.68
613.69	44264.21
613.85	44231.44
614.00	45076.38
614.15	44549.76
614.31	44308.68
614.46	44488.90
614.62	44362.51
614.77	44067.61
614.92	44559.12
615.08	44411.67
615.23	44247.83
615.38	44261.87
615.54	43690.78
615.69	44102.71
615.84	43957.60
616.00	44009.09
616.15	44055.90
616.30	44280.60
616.46	44088.67
616.61	43709.50
616.76	43929.51
616.92	43791.42
617.07	43428.64
617.22	43681.42
617.37	43964.62
617.53	43840.57
617.68	43721.21
617.83	44065.27
617.99	44250.17
618.14	44257.19
618.29	43894.41
618.45	44037.18
618.60	43878.02
618.75	43585.46
618.90	44130.80
619.06	44149.53
619.21	43835.89
619.36	44268.89
619.51	43442.68
619.67	43365.45
619.82	43885.04
619.97	43992.71
620.12	43784.40
620.28	43012.02
620.43	43381.83
620.58	43730.57
620.73	43124.37
620.89	43634.61
621.04	43665.03
621.19	43480.13
621.34	43208.63
621.49	43250.76
621.65	43201.61
621.80	43316.29
621.95	43215.65
622.10	43192.25
622.25	43234.38
622.41	42852.87
622.56	43103.31
622.71	43103.31
622.86	43150.12
623.01	43508.22
623.16	43103.31
623.32	43000.32
623.47	42897.34
623.62	43201.61
623.77	42857.55
623.92	42777.97
624.07	42646.90
624.23	43194.59
624.38	42990.96
624.53	42557.96
624.68	43030.75
624.83	42913.72
624.98	42766.27
625.13	42611.79
625.29	42602.43
625.44	43164.16
625.59	42422.21
625.74	42644.56
625.89	42134.32
626.04	42260.71
626.19	41986.87
626.34	42024.32
626.49	42567.32
626.65	42429.23
626.80	42059.43
626.95	42230.29
627.10	42454.98
627.25	42148.37
627.40	41928.36
627.55	41808.99
627.70	41837.08
627.85	41872.18
628.00	42213.90
628.15	41937.72
628.30	42485.40
628.45	42351.99
628.60	41928.36
628.76	42223.26
628.91	42131.98
629.06	41996.23
629.21	41818.35
629.36	42216.24
629.51	41827.71
629.66	41574.94
629.81	41713.03
629.96	41818.35
630.11	41532.81
630.26	41963.46
630.41	41703.67
630.56	41921.34
630.71	42047.72
630.86	41425.14
631.01	41467.27
631.16	41626.43
631.31	41558.55
631.46	41495.36
631.61	41645.15
631.76	41471.95
631.91	41528.13
632.06	41504.72
632.21	41656.85
632.36	41544.51
632.51	41233.22
632.66	41434.50
632.81	40786.18
632.96	41317.48
633.10	41228.54
633.25	40996.82
633.40	41359.61
633.55	41006.19
633.70	41256.62
633.85	40919.59
634.00	41481.31
634.15	40989.80
634.30	41092.79
634.45	40605.95
634.60	41167.68
634.75	41081.08
634.90	41177.04
635.05	40790.86
635.19	40903.20
635.34	41249.60
635.49	41141.94
635.64	40615.32
635.79	40367.22
635.94	40971.08
636.09	40772.13
636.24	41081.08
636.39	40219.77
636.53	40229.13
636.68	40435.10
636.83	40505.31
636.98	41071.72
637.13	40069.97
637.28	40109.76
637.43	40636.38
637.57	40746.39
637.72	40706.60
637.87	40360.20
638.02	40435.10
638.17	40046.57
638.32	39941.24
638.46	40069.97
638.61	40311.05
638.76	39983.37
638.91	40456.16
639.06	40257.21
639.20	39910.82
639.35	40744.05
639.50	40299.34
639.65	40371.90
639.80	40488.93
639.94	39835.92
640.09	40231.47
640.24	39929.54
640.39	39871.03
640.54	39999.76
640.68	40074.65
640.83	39674.42
640.98	39938.90
641.13	39805.49
641.27	39810.17
641.42	39974.01
641.57	39945.92
641.72	39945.92
641.86	39707.19
642.01	39395.90
642.16	39407.60
642.31	39079.92
642.45	39709.53
642.60	39351.43
642.75	39414.62
642.90	39622.93
643.04	39473.13
643.19	39583.14
643.34	39924.86
643.48	39452.07
643.63	39124.40
643.78	39145.46
643.93	39349.09
644.07	39318.66
644.22	39065.88
644.37	39028.43
644.51	39131.42
644.66	39072.90
644.81	39201.63
644.95	39541.01
645.10	39590.16
645.25	39674.42
645.39	39419.30
645.54	39201.63
645.69	39189.93
645.83	39161.84
645.98	38684.37
646.13	39271.85
646.27	38918.43
646.42	39093.97
646.57	38995.67
646.71	38880.98
646.86	39072.90
647.00	39138.44
647.15	39313.98
647.30	39164.18
647.44	39005.03
647.59	39002.69
647.74	38560.33
647.88	38415.21
648.03	39012.05
648.17	38663.31
648.32	38464.36
648.47	38602.46
648.61	38600.12
648.76	38609.48
648.90	39105.67
649.05	38328.61
649.20	38621.18
649.34	38962.90
649.49	38569.69
649.63	38534.58
649.78	37979.87
649.92	38253.72
650.07	38958.22
650.21	38181.16
650.36	38656.29
650.51	38295.85
650.65	38675.01
650.80	38808.42
650.94	38897.36
651.09	38349.68
651.23	38174.14
651.38	38096.90
651.52	38181.16
651.67	38197.54
651.81	38052.43
651.96	38068.81
652.10	38019.66
652.25	37710.71
652.39	37872.21
652.54	38099.24
652.68	38293.50
652.83	38309.89
652.97	38277.12
653.12	37823.06
653.26	38181.16
653.41	38302.87
653.55	37794.97
653.70	37553.90
653.84	37928.38
653.99	37872.21
654.13	37607.73
654.27	38204.56
654.42	37467.30
654.56	37642.84
654.71	37715.39
654.85	37415.80
655.00	37181.75
655.14	37383.04
655.29	37109.19
655.43	37090.47
655.57	36917.27
655.72	37202.82
655.86	37352.61
656.01	36821.31
656.15	37092.81
656.30	36978.12
656.44	36818.97
656.58	37060.04
656.73	36781.52
656.87	36694.92
657.01	37013.23
657.16	37127.92
657.30	36531.08
657.45	36996.85
657.59	36690.24
657.73	36697.26
657.88	37130.26
658.02	36947.70
658.16	37083.45
658.31	36620.02
658.45	37041.32
658.60	36591.94
658.74	36608.32
658.88	37207.50
659.03	37001.53
659.17	36601.30
659.31	36608.32
659.46	36638.75
659.60	36582.57
659.74	36390.65
659.89	36463.21
660.03	36088.72
660.17	36144.89
660.32	36187.02
660.46	36605.98
660.60	36519.38
660.74	36414.05
660.89	36538.10
661.03	36212.77
661.17	36079.36
661.32	35831.26
661.46	35421.67
661.60	35861.69
661.74	36161.28
661.89	35522.31
662.03	36018.50
662.17	35555.08
662.31	35526.99
662.46	35777.43
662.60	35629.98
662.74	35463.80
662.88	35115.06
663.03	35426.35
663.17	35606.57
663.31	35316.34
663.45	35306.98
663.60	35534.01
663.74	34958.24
663.88	35264.85
664.02	35421.67
664.17	34906.75
664.31	34611.84
664.45	35299.96
664.59	34969.94
664.73	35112.72
664.88	35306.98
665.02	34583.76
665.16	34677.38
665.30	34518.22
665.44	34394.17
665.59	34295.87
665.73	34368.43
665.87	33729.46
666.01	34464.39
666.15	34120.33
666.29	34139.05
666.44	34391.83
666.58	34469.07
666.72	34218.63
666.86	34359.06
667.00	34455.03
667.14	33963.51
667.28	33827.76
667.43	33860.53
667.57	33968.19
667.71	33654.56
667.85	33888.62
667.99	33764.57
668.13	33584.35
668.27	33764.57
668.41	33670.95
668.56	33404.13
668.70	33631.16
668.84	33605.41
668.98	33495.41
669.12	33511.79
669.26	33282.42
669.40	33270.72
669.54	32884.53
669.68	33312.84
669.82	33235.61
669.96	32999.21
670.10	32975.81
670.25	33003.89
670.39	33149.01
670.53	32739.41
670.67	32531.11
670.81	32652.81
670.95	32748.78
671.09	32552.17
671.23	32655.15
671.37	32730.05
671.51	32533.45
671.65	31842.99
671.79	32224.50
671.93	32362.59
672.07	32266.63
672.21	32449.19
672.35	31768.09
672.49	32182.37
672.63	31917.89
672.77	31747.03
672.91	31608.93
673.05	31700.22
673.19	31604.25
673.33	31236.79
673.47	31555.10
673.61	31370.20
673.75	31311.69
673.89	31292.96
674.03	31182.96
674.17	31033.16
674.31	31468.50
674.45	30881.03
674.59	31112.74
674.73	31262.54
674.87	31058.91
675.01	30869.33
675.15	30979.33
675.29	31000.40
675.43	30787.41
675.56	30869.33
675.70	30476.12
675.84	30256.11
675.98	29226.27
676.12	29984.60
676.26	30019.71
676.40	30066.52
676.54	29689.70
676.68	29956.52
676.82	29502.45
676.96	29673.31
677.10	29605.44
677.23	29806.72
677.37	29834.81
677.51	29537.56
677.65	29123.29
677.79	28554.54
677.93	28985.19
678.07	28807.31
678.21	29179.46
678.34	28748.80
678.48	28570.92
678.62	28858.81
678.76	28477.30
678.90	28327.50
679.04	28142.60
679.18	28664.54
679.31	28175.37
679.45	28149.62
679.59	27723.65
679.73	27873.44
679.87	27700.24
680.00	27630.02
680.14	27566.83
680.28	27482.57
680.42	27257.88
680.56	27786.84
680.70	27641.73
680.83	27557.47
680.97	27042.55
681.11	27115.11
681.25	26855.31
681.39	27065.96
681.52	26906.80
681.66	26672.74
681.80	26799.13
681.94	26689.13
682.07	26670.40
682.21	26199.96
682.35	26338.05
682.49	26518.27
682.62	26410.60
682.76	26064.21
682.90	25689.72
683.04	26024.42
683.17	25762.28
683.31	26305.28
683.45	25958.88
683.59	25914.41
683.72	25439.28
683.86	25048.41
684.00	25399.49
684.13	25610.14
684.27	25245.02
684.41	25303.53
684.55	25198.21
684.68	24882.24
684.82	24872.87
684.96	24870.53
685.09	24891.60
685.23	24606.05
685.37	24577.97
685.50	24842.45
685.64	24170.71
685.78	24304.12
685.91	24587.33
686.05	24086.45
686.19	23896.87
686.32	24074.75
686.46	23587.92
686.60	23756.44
686.73	23496.64
686.87	23295.35
687.01	23220.45
687.14	23414.72
687.28	23318.76
687.42	23110.45
687.55	22672.77
687.69	22897.46
687.82	23171.30
687.96	23002.78
688.10	22984.06
688.23	22635.32
688.37	22270.20
688.50	22429.35
688.64	22169.55
688.78	22602.55
688.91	22211.68
689.05	22267.86
689.18	21949.54
689.32	22075.93
689.46	21893.37
689.59	22239.77
689.73	22038.48
689.86	21633.57
690.00	21673.36
690.13	22153.17
690.27	21465.05
690.41	21200.57
690.54	21315.26
690.68	21207.59
690.81	20650.55
690.95	21174.83
691.08	21088.23
691.22	20783.96
691.35	20772.25
691.49	20566.29
691.62	21165.46
691.76	20655.23
691.89	20877.58
692.03	20751.19
692.16	20458.62
692.30	20266.70
692.43	20416.49
692.57	20070.09
692.70	20278.40
692.84	19960.09
692.97	19777.53
693.11	19882.85
693.24	19438.15
693.38	19833.70
693.51	19702.63
693.65	19325.80
693.78	19487.30
693.92	19269.63
694.05	19236.86
694.19	19262.61
694.32	19318.78
694.45	19239.20
694.59	18897.49
694.72	18733.65
694.86	18857.70
694.99	18539.38
695.13	18525.34
695.26	18773.44
695.39	18448.10
695.53	18525.34
695.66	18146.17
695.80	18331.08
695.93	18190.64
696.07	17949.57
696.20	18120.43
696.33	18354.48
696.47	17886.37
696.60	17827.86
696.73	17879.35
696.87	17813.82
697.00	17755.30
697.14	17839.56
697.27	17685.09
697.40	17628.92
697.54	17598.49
697.67	17268.47
697.80	17378.48
697.94	17151.45
698.07	17305.92
698.21	17137.40
698.34	17284.86
698.47	17139.74
698.61	16606.10
698.74	16453.97
698.87	16512.48
699.01	16383.75
699.14	16465.67
699.27	16301.83
699.40	16173.10
699.54	15955.43
699.67	15992.88
699.80	16128.63
699.94	16072.46
700.07	16437.58
700.20	15997.56
700.34	15695.63
700.47	15822.02
700.60	16130.97
700.73	16004.58
700.87	15864.15
701.00	15473.28
701.13	15634.78
701.26	15513.07
701.40	15360.94
701.53	15122.20
701.66	15215.82
701.79	15061.35
701.93	15096.46
702.06	14909.21
702.19	14956.02
702.32	15176.03
702.46	14787.50
702.59	14672.82
702.72	14806.23
702.85	14572.18
702.99	14618.99
703.12	14736.01
703.25	14551.11
703.38	14326.42
703.51	14099.39
703.65	14143.86
703.78	14054.92
703.91	14284.29
704.04	14284.29
704.17	14204.71
704.31	13991.72
704.44	13612.56
704.57	13563.40
704.70	13476.80
704.83	13530.64
704.96	13713.20
705.10	13687.45
705.23	13617.24
>>>>>End Processed Spectral Data<<<<<
