SpectraSuite Data File
++++++++++++++++++++++++++++++++++++
Date: Fri Oct 25 10:44:32 EDT 2013
User: price-jones
Dark Spectrum Present: No
Reference Spectrum Present: No
Number of Sampled Component Spectra: 1
Spectrometers: USB2+H05261
Integration Time (usec): 100000 (USB2+H05261)
Spectra Averaged: 1 (USB2+H05261)
Boxcar Smoothing: 0 (USB2+H05261)
Correct for Electrical Dark: No (USB2+H05261)
Strobe/Lamp Enabled: No (USB2+H05261)
Correct for Detector Non-linearity: No (USB2+H05261)
Correct for Stray Light: No (USB2+H05261)
Number of Pixels in Processed Spectrum: 2048
>>>>>Begin Processed Spectral Data<<<<<
365.73	126.39
365.92	126.39
366.12	126.39
366.32	0.00
366.52	35.11
366.72	44.47
366.91	112.35
367.11	86.60
367.31	21.06
367.51	0.00
367.70	0.00
367.90	28.09
368.10	49.15
368.30	16.38
368.49	63.19
368.69	11.70
368.89	88.94
369.09	77.24
369.28	70.22
369.48	0.00
369.68	53.83
369.87	112.35
370.07	95.96
370.27	154.48
370.47	180.22
370.66	322.99
370.86	404.91
371.06	425.98
371.25	526.62
371.45	390.87
371.65	533.64
371.84	475.13
372.04	358.10
372.24	456.40
372.44	463.43
372.63	496.19
372.83	526.62
373.03	444.70
373.22	472.79
373.42	479.81
373.62	559.39
373.81	447.04
374.01	491.51
374.21	550.03
374.40	458.74
374.60	547.69
374.79	545.34
374.99	440.02
375.19	484.49
375.38	554.71
375.58	524.28
375.78	608.54
375.97	613.22
376.17	664.71
376.37	564.07
376.56	585.13
376.76	596.84
376.95	514.92
377.15	510.24
377.35	557.05
377.54	589.82
377.74	531.30
377.93	641.31
378.13	638.97
378.33	702.16
378.52	634.29
378.72	699.82
378.91	645.99
379.11	664.71
379.31	606.20
379.50	648.33
379.70	674.07
379.89	669.39
380.09	645.99
380.28	582.79
380.48	615.56
380.68	638.97
380.87	678.76
381.07	578.11
381.26	662.37
381.46	589.82
381.65	643.65
381.85	603.86
382.04	608.54
382.24	613.22
382.43	664.71
382.63	650.67
382.83	657.69
383.02	718.54
383.22	772.38
383.41	760.67
383.61	688.12
383.80	786.42
384.00	713.86
384.19	685.78
384.39	763.01
384.58	737.27
384.78	758.33
384.97	711.52
385.17	737.27
385.36	828.55
385.56	777.06
385.75	791.10
385.95	739.61
386.14	891.74
386.34	746.63
386.53	755.99
386.72	802.80
386.92	863.66
387.11	802.80
387.31	779.40
387.50	741.95
387.70	882.38
387.89	891.74
388.09	774.72
388.28	772.38
388.48	835.57
388.67	950.26
388.86	873.02
389.06	922.17
389.25	917.49
389.45	945.58
389.64	905.79
389.84	924.51
390.03	990.05
390.22	964.30
390.42	954.94
390.61	1020.47
390.81	936.21
391.00	905.79
391.19	1090.69
391.39	1039.20
391.58	959.62
391.78	894.08
391.97	987.71
392.16	952.60
392.36	1004.09
392.55	938.55
392.75	964.30
392.94	924.51
393.13	966.64
393.33	1055.58
393.52	992.39
393.71	987.71
393.91	1025.15
394.10	999.41
394.29	1095.37
394.49	1135.16
394.68	1170.27
394.88	1107.07
395.07	1097.71
395.26	1109.41
395.46	1151.54
395.65	1158.57
395.84	1104.73
396.04	1245.16
396.23	1121.12
396.42	1203.04
396.62	1041.54
396.81	1142.18
397.00	1149.20
397.19	1207.72
397.39	1275.59
397.58	1261.55
397.77	1186.65
397.97	1334.11
398.16	1275.59
398.35	1315.38
398.55	1284.95
398.74	1397.30
398.93	1441.77
399.12	1317.72
399.32	1357.51
399.51	1324.74
399.70	1287.29
399.90	1394.96
400.09	1427.73
400.28	1453.47
400.47	1451.13
400.67	1493.26
400.86	1523.69
401.05	1432.41
401.24	1511.99
401.44	1537.73
401.63	1565.82
401.82	1544.75
402.01	1453.47
402.21	1593.90
402.40	1551.78
402.59	1558.80
402.78	1626.67
402.97	1638.38
403.17	1636.03
403.36	1600.93
403.55	1621.99
403.74	1736.68
403.93	1668.80
404.13	1689.87
404.32	1657.10
404.51	1717.95
404.70	1650.08
404.89	1790.51
405.09	1788.17
405.28	1755.40
405.47	1739.02
405.66	1778.81
405.85	1860.73
406.05	1767.10
406.24	1846.68
406.43	1839.66
406.62	1905.20
406.81	1989.46
407.00	1886.47
407.20	1846.68
407.39	1879.45
407.58	2005.84
407.77	1914.56
407.96	1984.77
408.15	2017.54
408.34	2038.61
408.54	2069.03
408.73	2012.86
408.92	2181.38
409.11	1963.71
409.30	1987.11
409.49	1991.80
409.68	2132.23
409.87	2111.16
410.07	2146.27
410.26	2146.27
410.45	2202.44
410.64	2132.23
410.83	2293.72
411.02	2333.51
411.21	2462.24
411.40	2317.13
411.59	2354.58
411.78	2389.69
411.98	2382.67
412.17	2354.58
412.36	2406.07
412.55	2410.75
412.74	2441.18
412.93	2527.78
413.12	2422.45
413.31	2670.55
413.50	2635.44
413.69	2588.63
413.88	2661.19
414.07	2621.40
414.26	2698.64
414.45	2731.41
414.64	2644.81
414.83	2729.06
415.02	2689.28
415.22	2822.69
415.41	2822.69
415.60	2834.39
415.79	2789.92
415.98	3026.31
416.17	2876.52
416.36	2902.26
416.55	2911.63
416.74	2995.89
416.93	2942.05
417.12	3054.40
417.31	3061.42
417.50	2988.86
417.69	3150.36
417.88	3094.19
418.07	3087.17
418.26	3007.59
418.45	3038.02
418.64	3419.52
418.83	3269.73
419.02	3201.85
419.21	3262.71
419.39	3255.69
419.58	3246.32
419.77	3274.41
419.96	3194.83
420.15	3349.31
420.34	3274.41
420.53	3417.18
420.72	3468.67
420.91	3501.44
421.10	3417.18
421.29	3672.30
421.48	3487.40
421.67	3581.02
421.86	3445.27
422.05	3529.53
422.24	3520.17
422.43	3569.32
422.61	3595.06
422.80	3592.72
422.99	3559.95
423.18	3634.85
423.37	3550.59
423.56	3693.37
423.75	3449.95
423.94	3637.19
424.13	3300.16
424.32	3538.89
424.50	3616.13
424.69	3646.55
424.88	3658.26
425.07	3569.32
425.26	3449.95
425.45	3487.40
425.64	3494.42
425.83	3641.87
426.01	3712.09
426.20	3742.52
426.39	3688.68
426.58	3688.68
426.77	3695.71
426.96	3632.51
427.15	3644.21
427.33	3838.48
427.52	3716.77
427.71	3779.97
427.90	3730.81
428.09	3941.46
428.28	3911.04
428.46	3840.82
428.65	3812.73
428.84	3953.16
429.03	4067.85
429.22	3681.66
429.40	3819.75
429.59	3995.29
429.78	3822.09
429.97	3637.19
430.16	3796.35
430.34	3915.72
430.53	3847.84
430.72	4007.00
430.91	3932.10
431.10	4180.20
431.28	4243.39
431.47	4276.16
431.66	4224.67
431.85	4100.62
432.03	4205.94
432.22	4229.35
432.41	4297.22
432.60	4238.71
432.79	4367.44
432.97	4325.31
433.16	4344.03
433.35	4322.97
433.54	4355.74
433.72	4395.53
433.91	4337.01
434.10	4355.74
434.28	4297.22
434.47	4550.00
434.66	4620.22
434.85	4505.53
435.03	4482.13
435.22	4409.57
435.41	4699.80
435.59	4601.49
435.78	4798.10
435.97	4854.27
436.16	4706.82
436.34	4772.35
436.53	4669.37
436.72	4840.23
436.90	4685.75
437.09	4786.40
437.28	4688.09
437.46	4770.01
437.65	4791.08
437.84	4833.21
438.02	4762.99
438.21	4711.50
438.40	4744.27
438.58	4868.31
438.77	5029.81
438.96	5078.96
439.14	5027.47
439.33	5130.45
439.52	5263.86
439.70	5287.27
439.89	5132.79
440.08	5268.55
440.26	5247.48
440.45	5195.99
440.63	5469.83
440.82	5537.71
441.01	5448.77
441.19	5462.81
441.38	5582.18
441.57	5636.01
441.75	5591.54
441.94	5757.72
442.12	6043.26
442.31	5722.61
442.50	5785.80
442.68	5851.34
442.87	5692.18
443.05	5816.23
443.24	5757.72
443.43	5912.19
443.61	5916.87
443.80	6155.61
443.98	5804.53
444.17	5708.57
444.35	5994.11
444.54	5949.64
444.73	6059.65
444.91	5870.06
445.10	5973.05
445.28	5982.41
445.47	5902.83
445.65	5914.53
445.84	5989.43
446.02	6174.33
446.21	6019.86
446.39	6031.56
446.58	6099.44
446.77	5949.64
446.95	6092.41
447.14	6249.23
447.32	6129.86
447.51	6033.90
447.69	6073.69
447.88	6129.86
448.06	6282.00
448.25	6092.41
448.43	6223.48
448.62	6230.51
448.80	6120.50
448.99	6059.65
449.17	6293.70
449.36	6207.10
449.54	6347.53
449.73	6494.99
449.91	6558.18
450.10	6471.58
450.28	6569.88
450.46	6745.42
450.65	6602.65
450.83	6715.00
451.02	6485.62
451.20	6600.31
451.39	6555.84
451.57	6415.41
451.76	6392.00
451.94	6719.68
452.13	6698.61
452.31	6722.02
452.49	6581.59
452.68	6722.02
452.86	6609.67
453.05	6619.04
453.23	6839.05
453.42	6665.85
453.60	6825.00
453.78	6761.81
453.97	6930.33
454.15	6834.36
454.34	6843.73
454.52	6827.34
454.70	6663.51
454.89	6944.37
455.07	6904.58
455.26	7171.40
455.44	7131.61
455.62	7192.47
455.81	7176.08
455.99	7108.21
456.17	7243.96
456.36	7169.06
456.54	7424.18
456.73	7538.87
456.91	7468.65
457.09	7520.14
457.28	7613.76
457.46	7421.84
457.64	7466.31
457.83	7651.21
458.01	7456.95
458.19	7344.60
458.38	7499.08
458.56	7688.66
458.74	7826.75
458.93	7534.18
459.11	7758.88
459.29	7691.00
459.48	7742.49
459.66	7662.91
459.84	7793.98
460.03	7723.77
460.21	8025.70
460.39	7932.08
460.57	7775.26
460.76	7861.86
460.94	7932.08
461.12	8009.31
461.31	7927.39
461.49	7894.63
461.67	7969.52
461.85	7948.46
462.04	8124.00
462.22	8393.16
462.40	8344.01
462.59	8226.98
462.77	8243.37
462.95	8358.05
463.13	8243.37
463.32	8432.95
463.50	8475.08
463.68	8205.92
463.86	8205.92
464.05	8222.30
464.23	8264.43
464.41	8379.12
464.59	8100.59
464.78	8676.37
464.96	8465.72
465.14	8416.57
465.32	8606.15
465.50	8346.35
465.69	8542.96
465.87	8528.91
466.05	8685.73
466.23	8475.08
466.41	8423.59
466.60	8748.92
466.78	8470.40
466.96	8430.61
467.14	8477.42
467.32	8720.84
467.51	8601.47
467.69	8428.27
467.87	8678.71
468.05	8746.58
468.23	8828.50
468.41	8655.30
468.60	8798.07
468.78	8830.84
468.96	8821.48
469.14	9078.94
469.32	8915.10
469.50	8894.04
469.69	8936.17
469.87	9156.18
470.05	8959.57
470.23	9085.96
470.41	9107.02
470.59	9296.61
470.77	9303.63
470.95	9394.91
471.14	9446.40
471.32	9179.58
471.50	9509.60
471.68	9507.26
471.86	9500.23
472.04	9371.50
472.22	9753.01
472.40	9495.55
472.58	9750.67
472.77	9757.69
472.95	9804.50
473.13	10139.20
473.31	9685.14
473.49	9795.14
473.67	9839.61
473.85	10031.54
474.03	10036.22
474.21	10328.78
474.39	10239.84
474.57	10375.59
474.75	10349.85
474.93	10160.27
475.12	10359.21
475.30	10431.77
475.48	10300.70
475.66	10506.66
475.84	10700.93
476.02	10663.48
476.20	10431.77
476.38	10801.57
476.56	11026.26
476.74	10927.96
476.92	10759.44
477.10	10918.60
477.28	11103.50
477.46	11208.83
477.64	11438.20
477.82	11597.35
478.00	11730.76
478.18	11714.38
478.36	11669.91
478.54	11751.83
478.72	11857.15
478.90	12072.48
479.08	11999.93
479.26	12135.68
479.44	12229.30
479.62	12208.23
479.80	12500.80
479.98	12446.97
480.16	12432.93
480.34	12575.70
480.52	12776.98
480.70	12552.29
480.88	12662.30
481.06	12898.69
481.24	12760.60
481.41	12985.29
481.59	13383.18
481.77	13317.65
481.95	13277.86
482.13	13341.05
482.31	13458.08
482.49	14029.17
482.67	13797.46
482.85	13870.01
483.03	14143.86
483.21	14263.22
483.39	14169.60
483.57	14363.87
483.74	14307.69
483.92	14649.41
484.10	14705.59
484.28	14923.26
484.46	14909.21
484.64	15267.31
484.82	14974.75
485.00	15346.89
485.18	15140.93
485.35	15332.85
485.53	15159.65
485.71	15169.01
485.89	15630.10
486.07	15541.16
486.25	15681.59
486.43	16049.05
486.61	16128.63
486.78	16189.49
486.96	16266.72
487.14	16423.54
487.32	16496.10
487.50	16688.02
487.68	16791.00
487.85	17334.01
488.03	17092.93
488.21	17509.55
488.39	17308.26
488.57	17647.64
488.75	17804.46
488.92	17881.69
489.10	17898.08
489.28	18136.81
489.46	18188.30
489.64	18347.46
489.81	18787.48
489.99	18579.17
490.17	18506.62
490.35	18993.45
490.53	18750.03
490.70	19297.72
490.88	19028.56
491.06	19491.98
491.24	19129.20
491.41	19304.74
491.59	19559.86
491.77	19515.39
491.95	19683.91
492.13	19662.84
492.30	20386.07
492.48	20184.78
492.66	20477.35
492.84	20013.92
493.01	20486.71
493.19	20823.75
493.37	20561.61
493.54	21008.65
493.72	20865.88
493.90	21191.21
494.08	21116.31
494.25	21362.07
494.43	21633.57
494.61	21975.29
494.79	21806.77
494.96	21738.90
495.14	22082.95
495.32	22401.27
495.49	21954.22
495.67	22391.91
495.85	22106.36
496.02	22457.44
496.20	23183.01
496.38	22850.65
496.55	23073.00
496.73	23363.23
496.91	23068.32
497.09	23407.70
497.26	23541.11
497.44	23393.65
497.62	23625.37
497.79	23784.52
497.97	23517.70
498.14	23810.27
498.32	24102.84
498.50	24027.94
498.67	24306.46
498.85	24217.52
499.03	24575.62
499.20	24484.34
499.38	24589.67
499.56	24713.72
499.73	24980.54
499.91	24844.79
500.08	24858.83
500.26	24833.08
500.44	24950.11
500.61	25270.76
500.79	24980.54
500.97	25266.08
501.14	25371.41
501.32	25598.44
501.49	25549.29
501.67	25401.83
501.84	25876.96
502.02	25731.85
502.20	26169.53
502.37	26169.53
502.55	26071.23
502.72	26324.01
502.90	26696.15
503.07	26431.67
503.25	26623.59
503.43	26354.43
503.60	26696.15
503.78	26654.02
503.95	26656.36
504.13	26588.49
504.30	27040.21
504.48	26815.52
504.65	27168.94
504.83	27164.26
505.01	27623.00
505.18	27372.57
505.36	27613.64
505.53	27765.78
505.71	27850.03
505.88	27915.57
506.06	27328.10
506.23	27859.40
506.41	27868.76
506.58	28158.99
506.76	28140.26
506.93	28554.54
507.11	28444.53
507.28	28222.18
507.46	27824.29
507.63	28650.50
507.81	28357.93
507.98	28507.72
508.16	28591.98
508.33	29074.13
508.50	29062.43
508.68	28753.48
508.85	29315.21
509.03	29146.69
509.20	29443.94
509.38	29598.41
509.55	29654.59
509.73	29399.47
509.90	29586.71
510.08	29266.06
510.25	29497.77
510.42	29923.75
510.60	29977.58
510.77	30120.35
510.95	30408.24
511.12	29809.06
511.30	30071.20
511.47	30558.03
511.64	30686.76
511.82	31061.25
511.99	30141.42
512.17	30160.14
512.34	30448.03
512.51	30714.85
512.69	31108.06
512.86	30972.31
513.04	31105.72
513.21	30948.90
513.38	30794.43
513.56	30806.13
513.73	30918.48
513.90	31070.61
514.08	31145.51
514.25	31274.24
514.43	31344.45
514.60	31463.82
514.77	31405.31
514.95	31887.46
515.12	31566.81
515.29	31927.25
515.47	31709.58
515.64	31784.48
515.81	31917.89
515.99	31824.26
516.16	32446.85
516.33	32084.06
516.51	31976.40
516.68	31735.32
516.85	32128.53
517.03	32091.09
517.20	32507.70
517.37	32315.78
517.54	32751.12
517.72	32673.88
517.89	32538.13
518.06	32622.39
518.24	32512.38
518.41	32921.98
518.58	32765.16
518.75	32802.61
518.93	33385.40
519.10	33312.84
519.27	33350.29
519.45	32931.34
519.62	33652.22
519.79	33240.29
519.96	34040.75
520.14	33813.72
520.31	33312.84
520.48	33362.00
520.65	33841.81
520.83	34171.82
521.00	34230.33
521.17	34127.35
521.34	33820.74
521.52	34047.77
521.69	34230.33
521.86	34658.65
522.03	34565.03
522.20	34747.59
522.38	34581.42
522.55	34707.80
522.72	34583.76
522.89	34799.08
523.07	35454.44
523.24	34773.34
523.41	34941.86
523.58	34951.22
523.75	34911.43
523.92	34983.99
524.10	35374.86
524.27	35585.50
524.44	35606.57
524.61	35711.89
524.78	35550.40
524.96	36025.53
525.13	35817.22
525.30	35777.43
525.47	35754.02
525.64	35679.13
525.81	35943.61
525.98	35660.40
526.16	35629.98
526.33	35508.27
526.50	36004.46
526.67	35381.88
526.84	35604.23
527.01	35569.12
527.18	36107.44
527.36	36369.58
527.53	36570.87
527.70	36601.30
527.87	36634.06
528.04	36465.55
528.21	36292.35
528.38	36517.04
528.55	36973.44
528.72	36910.25
528.89	36982.80
529.07	36959.40
529.24	36870.46
529.41	36423.42
529.58	36650.45
529.75	37298.78
529.92	37507.08
530.09	37055.36
530.26	37195.79
530.43	37179.41
530.60	37366.65
530.77	36858.76
530.94	37535.17
531.11	37109.19
531.28	37769.22
531.46	37844.12
531.63	38356.70
531.80	37593.68
531.97	37411.12
532.14	37745.82
532.31	37518.79
532.48	37909.66
532.65	38103.92
532.82	38352.02
532.99	37874.55
533.16	37612.41
533.33	37942.42
533.50	38181.16
533.67	38190.52
533.84	38155.41
534.01	38005.62
534.18	38368.40
534.35	38515.86
534.52	38078.18
534.69	38630.54
534.86	38548.62
535.03	37954.13
535.20	38583.73
535.37	39288.23
535.54	39105.67
535.71	39180.57
535.88	38700.76
536.05	38864.60
536.22	38904.38
536.38	38983.96
536.55	39136.10
536.72	39042.48
536.89	38684.37
537.06	39075.24
537.23	39232.06
537.40	39309.30
537.57	39299.94
537.74	39220.36
537.91	39531.65
538.08	39386.54
538.25	39218.02
538.42	39543.35
538.59	39702.51
538.75	39091.63
538.92	39386.54
539.09	39409.94
539.26	39246.10
539.43	39515.26
539.60	39412.28
539.77	39367.81
539.94	39697.83
540.11	39800.81
540.28	39620.59
540.44	39662.72
540.61	39648.68
540.78	39707.19
540.95	39681.44
541.12	39620.59
541.29	39634.63
541.46	39826.56
541.62	40219.77
541.79	40016.14
541.96	39971.67
542.13	40409.35
542.30	40168.27
542.47	40292.32
542.63	40535.74
542.80	40297.00
542.97	40950.01
543.14	41139.60
543.31	40779.15
543.48	40708.94
543.64	41158.32
543.81	41053.00
543.98	41013.21
544.15	40832.99
544.32	41158.32
544.48	41448.55
544.65	41163.00
544.82	41003.85
544.99	40786.18
545.16	41273.01
545.32	41368.97
545.49	41394.71
545.66	41401.74
545.83	41268.33
546.00	41750.48
546.16	41523.44
546.33	41371.31
546.50	40708.94
546.67	41287.05
546.83	40786.18
547.00	41497.70
547.17	41504.72
547.34	41537.49
547.50	41380.67
547.67	41928.36
547.84	41628.77
548.00	41631.11
548.17	41846.44
548.34	41893.25
548.51	42068.79
548.67	42040.70
548.84	42010.28
549.01	42099.22
549.18	41790.27
549.34	42511.15
549.51	42373.06
549.68	42249.01
549.84	42387.10
550.01	42862.23
550.18	42342.63
550.34	42169.43
550.51	42443.27
550.68	42108.58
550.84	42064.11
551.01	42473.70
551.18	42206.88
551.34	42679.67
551.51	42550.94
551.68	42459.66
551.84	42887.98
552.01	42185.82
552.18	42843.51
552.34	42251.35
552.51	42689.03
552.68	42883.30
552.84	42829.46
553.01	43086.92
553.18	42742.86
553.34	43082.24
553.51	42845.85
553.67	42433.91
553.84	43093.94
554.01	43021.39
554.17	43110.33
554.34	43164.16
554.51	43122.03
554.67	43201.61
554.84	43185.22
555.00	43056.50
555.17	43005.00
555.33	43105.65
555.50	43112.67
555.67	43196.93
555.83	43009.68
556.00	43049.47
556.16	43718.87
556.33	43089.26
556.50	43168.84
556.66	43421.62
556.83	43161.82
556.99	43232.04
557.16	43627.59
557.32	43435.66
557.49	43714.19
557.65	43241.40
557.82	43452.05
557.98	43508.22
558.15	43650.99
558.32	43435.66
558.48	43182.88
558.65	43550.35
558.81	43332.68
558.98	43215.65
559.14	43512.90
559.31	43529.28
559.47	43810.15
559.64	43611.20
559.80	44060.58
559.97	43360.76
560.13	43491.83
560.30	43054.15
560.46	43625.25
560.63	43487.15
560.79	44119.10
560.96	43885.04
561.12	43889.73
561.29	44215.06
561.45	43763.34
561.61	44065.27
561.78	43903.77
561.94	43285.87
562.11	44069.95
562.27	44039.52
562.44	43901.43
562.60	44289.96
562.77	44371.88
562.93	44058.24
563.10	44074.63
563.26	43985.69
563.42	44055.90
563.59	43863.98
563.75	43978.67
563.92	43976.33
564.08	43966.96
564.24	44226.76
564.41	44346.13
564.57	43973.98
564.74	44320.38
564.90	44428.05
565.07	44240.81
565.23	44406.98
565.39	44210.38
565.56	44608.27
565.72	44030.16
565.88	44432.73
566.05	44062.93
566.21	43880.36
566.38	43826.53
566.54	44065.27
566.70	44465.50
566.87	44486.56
567.03	44083.99
567.19	44828.28
567.36	44814.24
567.52	44032.50
567.68	44086.33
567.85	44020.80
568.01	44509.97
568.17	44877.43
568.34	44416.35
568.50	44395.28
568.66	44107.40
568.83	44549.76
568.99	44397.62
569.15	44044.20
569.32	44580.18
569.48	44203.36
569.64	44535.71
569.81	44554.44
569.97	44205.70
570.13	44350.81
570.30	44299.32
570.46	44327.41
570.62	44252.51
570.78	44273.57
570.95	44243.15
571.11	44655.08
571.27	44339.11
571.43	44385.92
571.60	44210.38
571.76	44460.82
571.92	44655.08
572.09	44217.40
572.25	44458.48
572.41	44399.96
572.57	44610.61
572.74	44989.78
572.90	44573.16
573.06	44439.75
573.22	44720.62
573.38	44755.72
573.55	44194.00
573.71	44758.06
573.87	44619.97
574.03	44364.85
574.20	44446.77
574.36	44753.38
574.52	44542.74
574.68	44376.56
574.84	44650.40
575.01	44409.32
575.17	44577.84
575.33	44531.03
575.49	44039.52
575.65	44807.22
575.82	44519.33
575.98	44367.20
576.14	45256.60
576.30	44669.12
576.46	44772.11
576.62	44088.67
576.79	44399.96
576.95	44144.84
577.11	44414.01
577.27	44800.19
577.43	44996.80
577.59	44779.13
577.75	44568.48
577.92	44051.22
578.08	44264.21
578.24	44130.80
578.40	44385.92
578.56	44605.93
578.72	44552.10
578.88	44706.57
579.04	44657.42
579.21	45109.14
579.37	44844.66
579.53	45216.81
579.69	44598.91
579.85	45052.97
580.01	44851.69
580.17	44442.09
580.33	45102.12
580.49	44949.99
580.65	44694.87
580.82	44737.00
580.98	44774.45
581.14	44376.56
581.30	44835.30
581.46	45251.92
581.62	45027.23
581.78	45045.95
581.94	44664.44
582.10	44509.97
582.26	44598.91
582.42	44744.02
582.58	44912.54
582.74	44835.30
582.90	44744.02
583.06	45116.17
583.22	44547.42
583.38	45371.28
583.54	45432.14
583.70	44954.67
583.86	45041.27
584.02	44570.82
584.18	44631.68
584.34	44975.73
584.50	44528.69
584.66	44783.81
584.82	44697.21
584.98	45359.58
585.14	44872.75
585.30	45265.96
585.46	44800.19
585.62	44734.66
585.78	44896.16
585.94	44570.82
586.10	45010.84
586.26	44556.78
586.42	44945.31
586.58	45170.00
586.74	44914.88
586.90	44980.42
587.06	44713.59
587.22	44514.65
587.38	44439.75
587.54	44994.46
587.70	44933.60
587.86	45092.76
588.02	45071.70
588.18	44921.90
588.34	44790.83
588.49	44439.75
588.65	44891.48
588.81	44903.18
588.97	44582.52
589.13	44636.36
589.29	44467.84
589.45	44591.89
589.61	44772.11
589.77	45212.13
589.93	45038.93
590.08	45067.02
590.24	44788.49
590.40	45258.94
590.56	45020.20
590.72	44825.94
590.88	45174.68
591.04	45411.07
591.20	45528.10
591.35	45446.18
591.51	45251.92
591.67	45235.53
591.83	45329.16
591.99	45104.46
592.15	45504.70
592.31	45104.46
592.46	45184.04
592.62	44898.50
592.78	45705.98
592.94	45453.20
593.10	44945.31
593.26	45216.81
593.41	44858.71
593.57	45172.34
593.73	45088.08
593.89	45415.76
594.05	45326.81
594.20	45134.89
594.36	45462.57
594.52	45006.16
594.68	45029.57
594.84	45202.77
594.99	45296.39
595.15	45233.19
595.31	45371.28
595.47	45230.85
595.62	44971.05
595.78	45125.53
595.94	45139.57
596.10	45600.66
596.25	45144.25
596.41	45270.64
596.57	45191.06
596.73	45165.32
596.88	44781.47
597.04	45165.32
597.20	45191.06
597.36	45478.95
597.51	45603.00
597.67	45408.73
597.83	44687.85
597.99	45663.85
598.14	45661.51
598.30	44844.66
598.46	45305.75
598.61	45387.67
598.77	44947.65
598.93	45050.63
599.09	45343.20
599.24	46005.57
599.40	45565.55
599.56	45610.02
599.71	45455.54
599.87	45390.01
600.03	45081.06
600.18	45071.70
600.34	45209.79
600.50	45380.65
600.65	45191.06
600.81	45162.98
600.97	45647.47
601.12	45572.57
601.28	45450.86
601.44	45380.65
601.59	45074.04
601.75	45167.66
601.91	45448.52
602.06	45151.27
602.22	44708.91
602.37	45059.99
602.53	45205.11
602.69	45265.96
602.84	44933.60
603.00	45088.08
603.16	45523.42
603.31	45265.96
603.47	45008.50
603.62	45394.69
603.78	45081.06
603.94	45034.25
604.09	45537.46
604.25	45350.22
604.40	45324.47
604.56	45209.79
604.71	45331.50
604.87	45088.08
605.03	45064.67
605.18	44966.37
605.34	45059.99
605.49	45015.52
605.65	45130.21
605.80	45305.75
605.96	45200.43
606.12	45254.26
606.27	45420.44
606.43	44945.31
606.58	45095.10
606.74	44626.99
606.89	45097.44
607.05	44959.35
607.20	44903.18
607.36	44481.88
607.51	45085.74
607.67	44896.16
607.82	44926.58
607.98	45172.34
608.13	45024.89
608.29	44818.92
608.44	44449.11
608.60	44439.75
608.75	44514.65
608.91	44779.13
609.06	44622.31
609.22	44748.70
609.37	44725.30
609.53	45024.89
609.68	44566.14
609.84	44919.56
609.99	44776.79
610.15	44580.18
610.30	44390.60
610.46	44416.35
610.61	44563.80
610.76	44437.41
610.92	44425.71
611.07	44657.42
611.23	45010.84
611.38	44570.82
611.54	44383.58
611.69	44535.71
611.84	44755.72
612.00	44453.79
612.15	44385.92
612.31	44233.78
612.46	44102.71
612.62	44556.78
612.77	44088.67
612.92	44215.06
613.08	44135.48
613.23	44205.70
613.39	44388.26
613.54	43805.47
613.69	44289.96
613.85	43981.01
614.00	44240.81
614.15	44172.93
614.31	44222.08
614.46	44751.04
614.62	44500.61
614.77	44133.14
614.92	44032.50
615.08	44158.89
615.23	44163.57
615.38	44245.49
615.54	43679.08
615.69	43615.88
615.84	43608.86
616.00	43725.89
616.15	43761.00
616.30	44243.15
616.46	43559.71
616.61	43580.78
616.76	43585.46
616.92	43501.20
617.07	43239.06
617.22	43660.35
617.37	43903.77
617.53	43576.09
617.68	43728.23
617.83	43536.30
617.99	43779.72
618.14	43625.25
618.29	43969.30
618.45	43629.93
618.60	43892.07
618.75	43227.35
618.90	43676.74
619.06	43840.57
619.21	43430.98
619.36	44002.07
619.51	43536.30
619.67	43119.69
619.82	43395.87
619.97	43660.35
620.12	43847.60
620.28	42719.46
620.43	43320.98
620.58	43227.35
620.73	42876.27
620.89	42742.86
621.04	43028.41
621.19	43618.22
621.34	43178.20
621.49	43250.76
621.65	43239.06
621.80	43164.16
621.95	42738.18
622.10	42986.28
622.25	42747.54
622.41	42829.46
622.56	42469.02
622.71	42873.93
622.86	43236.72
623.01	43154.80
623.16	42555.62
623.32	42852.87
623.47	42644.56
623.62	42635.20
623.77	42209.22
623.92	42862.23
624.07	42258.37
624.23	42513.49
624.38	42859.89
624.53	42117.94
624.68	42787.33
624.83	42719.46
624.98	42373.06
625.13	42272.42
625.29	42548.60
625.44	42543.92
625.59	42272.42
625.74	42382.42
625.89	41588.98
626.04	41979.85
626.19	42225.60
626.34	42501.79
626.49	42763.93
626.65	42305.18
626.80	42447.96
626.95	42220.92
627.10	42099.22
627.25	41844.10
627.40	41769.20
627.55	41862.82
627.70	42031.34
627.85	41598.34
628.00	41680.26
628.15	41715.37
628.30	41731.75
628.45	41876.86
628.60	41727.07
628.76	41991.55
628.91	41825.37
629.06	41811.33
629.21	41467.27
629.36	41542.17
629.51	41610.04
629.66	41652.17
629.81	41219.17
629.96	41181.73
630.11	41752.82
630.26	41631.11
630.41	41851.12
630.56	41415.78
630.71	41516.42
630.86	41560.89
631.01	41457.91
631.16	41102.15
631.31	41504.72
631.46	40811.92
631.61	41319.82
631.76	41588.98
631.91	41247.26
632.06	41467.27
632.21	41434.50
632.36	41670.90
632.51	40877.46
632.66	41198.11
632.81	41095.13
632.96	41296.41
633.10	41139.60
633.25	41078.74
633.40	41418.12
633.55	40924.27
633.70	40987.46
633.85	40556.80
634.00	40793.20
634.15	40737.02
634.30	41015.55
634.45	40992.14
634.60	40896.18
634.75	40734.68
634.90	40486.59
635.05	40477.22
635.19	40350.84
635.34	40879.80
635.49	40566.16
635.64	40802.56
635.79	40566.16
635.94	40378.92
636.09	40610.64
636.24	40334.45
636.39	40542.76
636.53	40294.66
636.68	40552.12
636.83	40793.20
636.98	40458.50
637.13	39999.76
637.28	40442.12
637.43	40648.08
637.57	40886.82
637.72	40439.78
637.87	40315.73
638.02	39887.41
638.17	40348.50
638.32	40109.76
638.46	39812.51
638.61	40222.11
638.76	39903.79
638.91	39814.85
639.06	39793.79
639.20	39435.69
639.35	39969.33
639.50	40102.74
639.65	40348.50
639.80	40182.32
639.94	40154.23
640.09	39449.73
640.24	40034.86
640.39	39583.14
640.54	39576.12
640.68	39658.04
640.83	39543.35
640.98	39899.11
641.13	39641.65
641.27	39508.24
641.42	39882.73
641.57	39503.56
641.72	39225.04
641.86	39281.21
642.01	38998.01
642.16	39363.13
642.31	39035.45
642.45	39264.83
642.60	38939.49
642.75	39124.40
642.90	39580.80
643.04	39379.51
643.19	38878.64
643.34	39496.54
643.48	39241.42
643.63	39159.50
643.78	38941.83
643.93	38572.03
644.07	39091.63
644.22	38621.18
644.37	38710.12
644.51	38689.06
644.66	39344.41
644.81	39065.88
644.95	39068.22
645.10	38876.30
645.25	39351.43
645.39	38909.07
645.54	39042.48
645.69	38981.62
645.83	39044.82
645.98	38939.49
646.13	39440.37
646.27	38946.51
646.42	38665.65
646.57	38742.89
646.71	38810.76
646.86	38520.54
647.00	38899.70
647.15	38770.97
647.30	38419.89
647.44	38375.42
647.59	38689.06
647.74	38141.37
647.88	38373.08
648.03	38160.09
648.17	38382.45
648.32	38445.64
648.47	38660.97
648.61	38366.06
648.76	38382.45
648.90	38321.59
649.05	38469.04
649.20	38426.92
649.34	38199.88
649.49	38005.62
649.63	38110.94
649.78	38050.09
649.92	38148.39
650.07	38314.57
650.21	38075.84
650.36	37694.33
650.51	38181.16
650.65	38375.42
650.80	38188.18
650.94	38464.36
651.09	37713.05
651.23	38227.97
651.38	37921.36
651.52	37813.70
651.67	37825.40
651.81	37855.82
651.96	37977.53
652.10	37689.65
652.25	37816.04
652.39	37624.11
652.54	37876.89
652.68	37825.40
652.83	37921.36
652.97	37612.41
653.12	37525.81
653.26	37853.48
653.41	37937.74
653.55	37345.59
653.70	37422.83
653.84	37970.51
653.99	37904.98
654.13	37303.46
654.27	37610.07
654.42	37476.66
654.56	37336.23
654.71	37525.81
654.85	37404.10
655.00	37326.86
655.14	37015.57
655.29	36954.72
655.43	36540.44
655.57	37219.20
655.72	36582.57
655.86	36666.83
656.01	36884.50
656.15	36470.23
656.30	36732.37
656.44	36928.97
656.58	36638.75
656.73	36680.88
656.87	36657.47
657.01	36697.26
657.16	36760.45
657.30	36580.23
657.45	36730.03
657.59	36514.70
657.73	36613.00
657.88	36718.32
658.02	36610.66
658.16	36889.18
658.31	36730.03
658.45	36472.57
658.60	36432.78
658.74	36329.80
658.88	36205.75
659.03	36615.34
659.17	35995.10
659.31	36465.55
659.46	36168.30
659.60	36285.33
659.74	35796.15
659.89	36149.57
660.03	35971.69
660.17	35842.96
660.32	35952.97
660.46	36126.17
660.60	35786.79
660.74	35962.33
660.89	35866.37
661.03	35700.19
661.17	35611.25
661.32	35283.58
661.46	35543.38
661.60	35363.15
661.74	35648.70
661.89	35620.61
662.03	35332.73
662.17	35634.66
662.31	35091.65
662.46	35555.08
662.60	35821.90
662.74	35260.17
662.88	35136.12
663.03	35084.63
663.17	35105.70
663.31	34607.16
663.45	34944.20
663.60	34927.81
663.74	34745.25
663.88	34684.40
664.02	34548.65
664.17	35208.68
664.31	34974.63
664.45	34684.40
664.59	34857.60
664.73	34408.22
664.88	34689.08
665.02	34417.58
665.16	34195.23
665.30	34122.67
665.44	34630.57
665.59	34230.33
665.73	34426.94
665.87	33787.97
666.01	33975.22
666.15	34117.99
666.29	33837.12
666.44	34024.37
666.58	33731.80
666.72	33642.86
666.86	34108.63
667.00	33827.76
667.14	33778.61
667.28	33156.03
667.43	33172.41
667.57	33502.43
667.71	33319.87
667.85	33186.46
667.99	33200.50
668.13	33296.46
668.27	33486.04
668.41	33635.84
668.56	32929.00
668.70	33848.83
668.84	33216.88
668.98	32727.71
669.12	32978.15
669.26	32811.97
669.40	32854.10
669.54	33069.43
669.68	32470.25
669.82	32842.40
669.96	32704.31
670.10	32481.95
670.25	32818.99
670.39	32652.81
670.53	32327.48
670.67	32301.73
670.81	32716.01
670.95	32629.41
671.09	32383.65
671.23	32210.45
671.37	32451.53
671.51	31983.42
671.65	31847.67
671.79	31723.62
671.93	31901.50
672.07	32114.49
672.21	32114.49
672.35	32072.36
672.49	31569.15
672.63	31620.64
672.77	31639.36
672.91	31632.34
673.05	31555.10
673.19	31372.54
673.33	30829.54
673.47	30775.70
673.61	31105.72
673.75	30923.16
673.89	31047.21
674.03	31117.42
674.17	30677.40
674.31	30897.41
674.45	30558.03
674.59	31161.89
674.73	30764.00
674.87	30443.35
675.01	30431.65
675.15	30646.97
675.29	30246.74
675.43	30560.37
675.56	30445.69
675.70	30038.44
675.84	30075.88
675.98	29397.13
676.12	30206.95
676.26	30047.80
676.40	29764.59
676.54	29926.09
676.68	30134.40
676.82	29294.14
676.96	29364.36
677.10	29663.95
677.23	29027.32
677.37	29434.58
677.51	29254.36
677.65	29263.72
677.79	28371.97
677.93	28357.93
678.07	28556.88
678.21	28465.60
678.34	28437.51
678.48	28044.30
678.62	28568.58
678.76	27988.13
678.90	27590.24
679.04	27733.01
679.18	28187.07
679.31	27700.24
679.45	27559.81
679.59	27215.75
679.73	27410.01
679.87	27297.67
680.00	27365.54
680.14	27307.03
680.28	27447.46
680.42	27470.87
680.56	26862.33
680.70	26930.20
680.83	27077.66
680.97	26930.20
681.11	27033.19
681.25	26867.01
681.39	26806.16
681.52	27159.58
681.66	26473.80
681.80	26094.63
681.94	26445.71
682.07	26677.43
682.21	26417.63
682.35	26120.38
682.49	26033.78
682.62	25736.53
682.76	26024.42
682.90	25806.75
683.04	25600.78
683.17	25333.96
683.31	25652.27
683.45	25713.13
683.59	25488.43
683.72	25151.40
683.86	25376.09
684.00	25027.35
684.13	25268.42
684.27	25027.35
684.41	24505.41
684.55	24657.54
684.68	24814.36
684.82	24561.58
684.96	24849.47
685.09	24931.39
685.23	24486.68
685.37	24339.23
685.50	24592.01
685.64	24446.90
685.78	24297.10
685.91	24173.05
686.05	23674.52
686.19	23974.11
686.32	23538.77
686.46	23201.73
686.60	23187.69
686.73	23211.09
686.87	23129.17
687.01	23002.78
687.14	23159.60
687.28	22988.74
687.42	22874.06
687.55	22974.70
687.69	22874.06
687.82	22600.21
687.96	22452.76
688.10	22567.45
688.23	22286.58
688.37	22012.74
688.50	22160.19
688.64	22443.40
688.78	22087.64
688.91	21933.16
689.05	22209.34
689.18	22218.71
689.32	21977.63
689.46	22050.19
689.59	21881.67
689.73	22405.95
689.86	21771.66
690.00	21727.19
690.13	21429.94
690.27	21312.92
690.41	21399.52
690.54	20886.94
690.68	20809.70
690.81	20910.35
690.95	20872.90
691.08	21027.37
691.22	20748.85
691.35	20725.44
691.49	20837.79
691.62	20985.24
691.76	20519.48
691.89	20395.43
692.03	20194.14
692.16	20280.74
692.30	19927.32
692.43	19711.99
692.57	19850.08
692.70	19976.47
692.84	19761.14
692.97	19569.22
693.11	19529.43
693.24	19494.32
693.38	19527.09
693.51	19391.34
693.65	19419.42
693.78	19697.95
693.92	19473.26
694.05	19468.58
694.19	19239.20
694.32	19161.97
694.45	19007.49
694.59	18759.39
694.72	18710.24
694.86	18588.53
694.99	18647.05
695.13	18551.09
695.26	18492.57
695.39	18466.83
695.53	18555.77
695.66	18333.42
695.80	18499.59
695.93	18181.28
696.07	18235.11
696.20	18099.36
696.33	17977.65
696.47	17575.08
696.60	17778.71
696.73	17598.49
696.87	17706.15
697.00	17584.44
697.14	17884.03
697.27	17245.07
697.40	17554.02
697.54	17434.65
697.67	17071.87
697.80	17041.44
697.94	16971.22
698.07	16868.24
698.21	16741.85
698.34	16776.96
698.47	16732.49
698.61	16545.25
698.74	16315.87
698.87	16655.25
699.01	16320.56
699.14	16215.23
699.27	16095.86
699.40	16058.42
699.54	16060.76
699.67	15829.04
699.80	16060.76
699.94	15840.75
700.07	15995.22
700.20	15740.10
700.34	15599.67
700.47	15648.82
700.60	15786.91
700.73	15974.16
700.87	15583.29
701.00	15484.98
701.13	15538.82
701.26	15578.61
701.40	15379.66
701.53	15082.41
701.66	15061.35
701.79	15002.83
701.93	15077.73
702.06	14675.16
702.19	14824.95
702.32	14728.99
702.46	14693.88
702.59	14572.18
702.72	14883.47
702.85	14366.21
702.99	14459.83
703.12	14396.64
703.25	14001.08
703.38	14146.20
703.51	14157.90
703.65	14251.52
703.78	13996.40
703.91	14150.88
704.04	14118.11
704.17	13804.48
704.31	14118.11
704.44	13586.81
704.57	13724.90
704.70	13769.37
704.83	13650.00
704.96	13518.93
705.10	13678.09
705.23	13589.15
>>>>>End Processed Spectral Data<<<<<
