SpectraSuite Data File
++++++++++++++++++++++++++++++++++++
Date: Fri Oct 25 10:48:16 EDT 2013
User: price-jones
Dark Spectrum Present: No
Reference Spectrum Present: No
Number of Sampled Component Spectra: 1
Spectrometers: USB2+H05261
Integration Time (usec): 100000 (USB2+H05261)
Spectra Averaged: 1 (USB2+H05261)
Boxcar Smoothing: 0 (USB2+H05261)
Correct for Electrical Dark: No (USB2+H05261)
Strobe/Lamp Enabled: No (USB2+H05261)
Correct for Detector Non-linearity: No (USB2+H05261)
Correct for Stray Light: No (USB2+H05261)
Number of Pixels in Processed Spectrum: 2048
>>>>>Begin Processed Spectral Data<<<<<
365.73	175.54
365.92	175.54
366.12	175.54
366.32	28.09
366.52	35.11
366.72	105.32
366.91	60.85
367.11	102.98
367.31	39.79
367.51	0.00
367.70	70.22
367.90	147.45
368.10	14.04
368.30	72.56
368.49	46.81
368.69	70.22
368.89	0.00
369.09	23.41
369.28	49.15
369.48	9.36
369.68	67.88
369.87	102.98
370.07	107.66
370.27	149.79
370.47	271.50
370.66	390.87
370.86	353.42
371.06	433.00
371.25	468.11
371.45	498.53
371.65	484.49
371.84	519.60
372.04	557.05
372.24	491.51
372.44	484.49
372.63	507.90
372.83	514.92
373.03	557.05
373.22	507.90
373.42	510.24
373.62	592.16
373.81	587.47
374.01	561.73
374.21	580.45
374.40	463.43
374.60	557.05
374.79	585.13
374.99	657.69
375.19	599.18
375.38	636.63
375.58	528.96
375.78	660.03
375.97	641.31
376.17	699.82
376.37	587.47
376.56	624.92
376.76	711.52
376.95	620.24
377.15	620.24
377.35	634.29
377.54	695.14
377.74	596.84
377.93	631.94
378.13	690.46
378.33	748.97
378.52	688.12
378.72	653.01
378.91	767.70
379.11	655.35
379.31	671.73
379.50	631.94
379.70	688.12
379.89	734.93
380.09	734.93
380.28	697.48
380.48	662.37
380.68	664.71
380.87	725.57
381.07	758.33
381.26	758.33
381.46	751.31
381.65	699.82
381.85	716.20
382.04	737.27
382.24	730.25
382.43	662.37
382.63	699.82
382.83	702.16
383.02	812.17
383.22	802.80
383.41	741.95
383.61	720.88
383.80	830.89
384.00	805.14
384.19	812.17
384.39	819.19
384.58	784.08
384.78	781.74
384.97	870.68
385.17	835.57
385.36	732.59
385.56	851.96
385.75	800.46
385.95	763.01
386.14	835.57
386.34	835.57
386.53	805.14
386.72	851.96
386.92	826.21
387.11	863.66
387.31	973.66
387.50	858.98
387.70	823.87
387.89	835.57
388.09	898.77
388.28	901.11
388.48	828.55
388.67	954.94
388.86	1027.50
389.06	903.45
389.25	905.79
389.45	922.17
389.64	1008.77
389.84	992.39
390.03	994.73
390.22	1064.94
390.42	1025.15
390.61	966.64
390.81	1015.79
391.00	1088.35
391.19	1083.67
391.39	1074.31
391.58	1048.56
391.78	1071.97
391.97	1046.22
392.16	1074.31
392.36	1015.79
392.55	1034.52
392.75	1060.26
392.94	968.98
393.13	1041.54
393.33	889.40
393.52	1043.88
393.71	1057.92
393.91	1135.16
394.10	1074.31
394.29	1139.84
394.49	1156.22
394.68	1280.27
394.88	1186.65
395.07	1158.57
395.26	1158.57
395.46	1226.44
395.65	1296.66
395.84	1186.65
396.04	1299.00
396.23	1151.54
396.42	1181.97
396.62	1174.95
396.81	1181.97
397.00	1188.99
397.19	1268.57
397.39	1254.53
397.58	1345.81
397.77	1287.29
397.97	1423.05
398.16	1416.02
398.35	1404.32
398.55	1369.21
398.74	1458.15
398.93	1448.79
399.12	1507.30
399.32	1390.28
399.51	1488.58
399.70	1568.16
399.90	1486.24
400.09	1582.20
400.28	1650.08
400.47	1603.27
400.67	1579.86
400.86	1605.61
401.05	1631.35
401.24	1584.54
401.44	1671.14
401.63	1713.27
401.82	1692.21
402.01	1643.06
402.21	1689.87
402.40	1687.53
402.59	1739.02
402.78	1769.44
402.97	1837.32
403.17	1739.02
403.36	1717.95
403.55	1760.08
403.74	1837.32
403.93	1797.53
404.13	1797.53
404.32	1886.47
404.51	1898.17
404.70	1916.90
404.89	1872.43
405.09	1968.39
405.28	1900.52
405.47	1947.33
405.66	2022.22
405.85	2012.86
406.05	1949.67
406.24	2015.20
406.43	1944.99
406.62	1977.75
406.81	2008.18
407.00	2008.18
407.20	1982.43
407.39	1952.01
407.58	2092.44
407.77	2054.99
407.96	2139.25
408.15	2303.09
408.34	2239.89
408.54	2197.76
408.73	2216.49
408.92	2221.17
409.11	2207.13
409.30	2272.66
409.49	2207.13
409.68	2291.38
409.87	2242.23
410.07	2232.87
410.26	2251.60
410.45	2335.85
410.64	2349.90
410.83	2331.17
411.02	2431.82
411.21	2499.69
411.40	2476.29
411.59	2457.56
411.78	2544.16
411.98	2471.61
412.17	2635.44
412.36	2605.02
412.55	2654.17
412.74	2640.12
412.93	2630.76
413.12	2722.04
413.31	2825.03
413.50	2766.51
413.69	2754.81
413.88	2825.03
414.07	2799.28
414.26	2895.24
414.45	2930.35
414.64	2920.99
414.83	2930.35
415.02	2979.50
415.22	2965.46
415.41	3056.74
415.60	2928.01
415.79	3089.51
415.98	3136.32
416.17	3171.43
416.36	3084.83
416.55	3260.37
416.74	3232.28
416.93	3066.10
417.12	3213.56
417.31	3122.27
417.50	3314.20
417.69	3454.63
417.88	3398.46
418.07	3290.79
418.26	3253.34
418.45	3412.50
418.64	3419.52
418.83	3459.31
419.02	3440.59
419.21	3456.97
419.39	3454.63
419.58	3391.44
419.77	3382.07
419.96	3536.55
420.15	3716.77
420.34	3653.58
420.53	3508.46
420.72	3684.00
420.91	3665.28
421.10	3695.71
421.29	3719.11
421.48	3630.17
421.67	3744.86
421.86	3833.80
422.05	3810.39
422.24	3744.86
422.43	3702.73
422.61	3686.34
422.80	3819.75
422.99	3721.45
423.18	3655.92
423.37	3850.18
423.56	3798.69
423.75	3803.37
423.94	3786.99
424.13	3660.60
424.32	3763.58
424.50	3824.44
424.69	3971.89
424.88	3885.29
425.07	3899.33
425.26	3763.58
425.45	3772.94
425.64	3950.82
425.83	3751.88
426.01	3866.56
426.20	3882.95
426.39	3988.27
426.58	3812.73
426.77	3810.39
426.96	3899.33
427.15	3843.16
427.33	4028.06
427.52	3941.46
427.71	3990.61
427.90	3971.89
428.09	4100.62
428.28	4093.60
428.46	4191.90
428.65	4149.77
428.84	4177.86
429.03	4133.39
429.22	3999.98
429.40	4140.41
429.59	4009.34
429.78	3857.20
429.97	3840.82
430.16	3948.48
430.34	4081.89
430.53	4152.11
430.72	4187.22
430.91	4163.81
431.10	4175.52
431.28	4454.04
431.47	4393.19
431.66	4482.13
431.85	4463.40
432.03	4435.32
432.22	4402.55
432.41	4461.06
432.60	4622.56
432.79	4545.32
432.97	4596.81
433.16	4615.54
433.35	4428.29
433.54	4521.92
433.72	4725.54
433.91	4512.55
434.10	4791.08
434.28	4624.90
434.47	4821.50
434.66	4849.59
434.85	4767.67
435.03	4826.18
435.22	4688.09
435.41	4889.38
435.59	5008.75
435.78	5088.32
435.97	5008.75
436.16	5015.77
436.34	5027.47
436.53	5041.51
436.72	5132.79
436.90	4816.82
437.09	4990.02
437.28	4999.38
437.46	4999.38
437.65	5055.56
437.84	5055.56
438.02	5018.11
438.21	5097.69
438.40	5046.20
438.58	5139.82
438.77	5392.59
438.96	5254.50
439.14	5341.10
439.33	5533.03
439.52	5561.11
439.70	5540.05
439.89	5650.05
440.08	5600.90
440.26	5619.63
440.45	5533.03
440.63	5809.21
440.82	5928.58
441.01	5954.32
441.19	5905.17
441.38	5858.36
441.57	5902.83
441.75	6106.46
441.94	6031.56
442.12	6022.20
442.31	6038.58
442.50	6101.78
442.68	6083.05
442.87	6120.50
443.05	6204.76
443.24	6427.11
443.43	6256.25
443.61	6312.42
443.80	6455.20
443.98	6099.44
444.17	6204.76
444.35	6431.79
444.54	6375.62
444.73	6338.17
444.91	6267.95
445.10	6324.13
445.28	6331.15
445.47	6211.78
445.65	6291.36
445.84	6338.17
446.02	6340.51
446.21	6370.94
446.39	6473.92
446.58	6450.52
446.77	6497.33
446.95	6335.83
447.14	6455.20
447.32	6541.80
447.51	6523.07
447.69	6476.26
447.88	6513.71
448.06	6555.84
448.25	6427.11
448.43	6471.58
448.62	6530.09
448.80	6600.31
448.99	6593.29
449.17	6726.70
449.36	6487.96
449.54	6993.52
449.73	7087.14
449.91	6913.94
450.10	6888.20
450.28	7117.57
450.46	6890.54
450.65	7091.82
450.83	7023.95
451.02	7026.29
451.20	7002.88
451.39	7082.46
451.57	7105.87
451.76	6916.28
451.94	7023.95
452.13	7068.42
452.31	7110.55
452.49	6960.75
452.68	7159.70
452.86	7066.08
453.05	7075.44
453.23	7187.79
453.42	7204.17
453.60	7122.25
453.78	7082.46
453.97	7204.17
454.15	7248.64
454.34	7014.59
454.52	7625.47
454.70	7279.07
454.89	7405.46
455.07	7503.76
455.26	7496.74
455.44	7602.06
455.62	7566.95
455.81	7412.48
455.99	7702.70
456.17	7496.74
456.36	7496.74
456.54	7658.23
456.73	7726.11
456.91	7981.23
457.09	7962.50
457.28	7960.16
457.46	7819.73
457.64	7829.09
457.83	8182.51
458.01	7854.84
458.19	8021.02
458.38	7941.44
458.56	7995.27
458.74	8030.38
458.93	8208.26
459.11	8224.64
459.29	7964.84
459.48	8339.33
459.66	8100.59
459.84	8194.22
460.03	8400.18
460.21	8290.18
460.39	8301.88
460.57	8379.12
460.76	8229.32
460.94	8421.25
461.12	8446.99
461.31	8491.46
461.49	8538.27
461.67	7953.14
461.85	8655.30
462.04	8458.70
462.22	8982.98
462.40	8608.49
462.59	8791.05
462.77	8617.85
462.95	8629.56
463.13	8559.34
463.32	8592.11
463.50	8854.25
463.68	8851.91
463.86	8805.10
464.05	8840.20
464.23	8491.46
464.41	8784.03
464.59	8812.12
464.78	8889.35
464.96	8812.12
465.14	8634.24
465.32	8938.51
465.50	9050.85
465.69	9254.48
465.87	9083.62
466.05	8964.25
466.23	8924.46
466.41	9097.66
466.60	9341.08
466.78	8924.46
466.96	9029.79
467.14	9102.34
467.32	9011.06
467.51	9345.76
467.69	8807.44
467.87	9343.42
468.05	9364.48
468.23	9135.11
468.41	9102.34
468.60	9289.59
468.78	9359.80
468.96	9294.27
469.14	9549.39
469.32	9558.75
469.50	9448.74
469.69	9554.07
469.87	9518.96
470.05	9474.49
470.23	9673.43
470.41	9565.77
470.59	9713.22
470.77	9877.06
470.95	9799.82
471.14	9844.29
471.32	9820.89
471.50	9977.70
471.68	10015.15
471.86	10092.39
472.04	10162.61
472.22	10150.90
472.40	10036.22
472.58	10038.56
472.77	10265.59
472.95	10260.91
473.13	10647.10
473.31	10207.08
473.49	10361.55
473.67	10415.38
473.85	10523.05
474.03	10860.09
474.21	10647.10
474.39	10890.51
474.57	10916.26
474.75	10874.13
474.93	11012.22
475.12	11080.10
475.30	10993.50
475.48	10953.71
475.66	11211.17
475.84	11143.29
476.02	11075.42
476.20	11194.78
476.38	11480.33
476.56	11557.57
476.74	11552.88
476.92	11609.06
477.10	11777.58
477.28	11800.98
477.46	11770.55
477.64	11929.71
477.82	11967.16
478.00	12343.99
478.18	12299.52
478.36	12170.79
478.54	12538.25
478.72	12421.22
478.90	12580.38
479.08	12535.91
479.26	12863.58
479.44	12849.54
479.62	12938.48
479.80	12835.50
479.98	13221.69
480.16	13348.08
480.34	13284.88
480.52	13535.32
480.70	13418.29
480.88	13263.82
481.06	13563.40
481.24	13530.64
481.41	13834.91
481.59	14052.58
481.77	13977.68
481.95	14284.29
482.13	14153.22
482.31	14331.10
482.49	14520.68
482.67	14600.26
482.85	14874.10
483.03	14831.97
483.21	14944.32
483.39	15274.34
483.57	15049.64
483.74	15566.90
483.92	15232.21
484.10	15110.50
484.28	15236.89
484.46	15789.25
484.64	16091.18
484.82	15552.86
485.00	15967.13
485.18	16194.17
485.35	16037.35
485.53	15758.83
485.71	15712.02
485.89	16367.37
486.07	16044.37
486.25	16395.45
486.43	16638.87
486.61	16603.76
486.78	17036.76
486.96	17294.22
487.14	17422.95
487.32	17717.86
487.50	17668.70
487.68	17907.44
487.85	17862.97
488.03	17905.10
488.21	18075.96
488.39	18359.16
488.57	18298.31
488.75	18609.60
488.92	18534.70
489.10	19131.54
489.28	19101.11
489.46	19286.01
489.64	19403.04
489.81	19887.53
489.99	19559.86
490.17	19499.00
490.35	19889.87
490.53	19777.53
490.70	20409.47
490.88	20058.39
491.06	20350.96
491.24	20322.87
491.41	20528.84
491.59	20456.28
491.77	20559.27
491.95	20594.37
492.13	20992.26
492.30	21097.59
492.48	21376.11
492.66	21479.10
492.84	21326.96
493.01	21542.29
493.19	21514.20
493.37	21715.49
493.54	21781.03
493.72	22001.04
493.90	22195.30
494.08	22691.49
494.25	22771.07
494.43	22672.77
494.61	22934.91
494.79	22979.38
494.96	22993.42
495.14	23082.36
495.32	23440.47
495.49	23520.04
495.67	23548.13
495.85	23491.96
496.02	23733.03
496.20	23852.40
496.38	23840.70
496.55	23960.06
496.73	24397.74
496.91	24266.67
497.09	24678.61
497.26	24526.47
497.44	24449.24
497.62	24720.74
497.79	24999.26
497.97	24645.84
498.14	24535.84
498.32	25053.09
498.50	24790.95
498.67	25303.53
498.85	25408.86
499.03	25949.52
499.20	25387.79
499.38	25972.92
499.56	25741.21
499.73	26031.44
499.91	26326.35
500.08	26295.92
500.26	25874.62
500.44	26230.38
500.61	26272.51
500.79	26075.91
500.97	26691.47
501.14	27035.53
501.32	26679.77
501.49	26904.46
501.67	26883.39
501.84	26918.50
502.02	26621.25
502.20	27117.45
502.37	27304.69
502.55	27414.69
502.72	27349.16
502.90	27248.52
503.07	27316.39
503.25	27587.89
503.43	27718.96
503.60	27618.32
503.78	27648.75
503.95	27531.72
504.13	28027.92
504.30	28458.57
504.48	28030.26
504.65	28463.25
504.83	28659.86
505.01	28694.97
505.18	28734.76
505.36	28706.67
505.53	28926.68
505.71	29427.56
505.88	29244.99
506.06	29060.09
506.23	29331.59
506.41	28996.90
506.58	29106.90
506.76	29200.52
506.93	29694.38
507.11	29830.13
507.28	29738.85
507.46	29612.46
507.63	29600.76
507.81	29928.43
507.98	29422.87
508.16	29790.34
508.33	30019.71
508.50	30113.33
508.68	30515.90
508.85	30494.84
509.03	30515.90
509.20	30412.92
509.38	30885.71
509.55	30677.40
509.73	30677.40
509.90	30464.41
510.08	31014.44
510.25	30881.03
510.42	30958.27
510.60	31255.51
510.77	31409.99
510.95	31395.95
511.12	31405.31
511.30	31850.01
511.47	31620.64
511.64	31789.16
511.82	32023.21
511.99	31732.98
512.17	31700.22
512.34	32020.87
512.51	32151.94
512.69	32002.14
512.86	32030.23
513.04	32547.49
513.21	32374.29
513.38	32484.30
513.56	32378.97
513.73	31969.38
513.90	32297.05
514.08	32608.34
514.25	32320.46
514.43	32772.18
514.60	32978.15
514.77	32807.29
514.95	33186.46
515.12	32989.85
515.29	33277.74
515.47	33507.11
515.64	33724.78
515.81	33446.26
515.99	33261.35
516.16	33284.76
516.33	33528.17
516.51	33284.76
516.68	33163.05
516.85	33109.22
517.03	33600.73
517.20	33160.71
517.37	33490.73
517.54	34309.91
517.72	33825.42
517.89	33479.02
518.06	33757.55
518.24	33680.31
518.41	34054.79
518.58	33944.79
518.75	34155.44
518.93	34864.62
519.10	34691.42
519.27	34724.19
519.45	34642.27
519.62	34815.47
519.79	34871.64
519.96	35445.07
520.14	35058.88
520.31	35269.53
520.48	34916.11
520.65	35000.37
520.83	35234.42
521.00	35136.12
521.17	35639.34
521.34	35349.11
521.52	35810.20
521.69	35503.59
521.86	36058.29
522.03	35887.43
522.20	36112.13
522.38	36149.57
522.55	36240.86
522.72	35754.02
522.89	35959.99
523.07	36528.74
523.24	36070.00
523.41	36306.39
523.58	36163.62
523.75	36971.10
523.92	36678.54
524.10	36966.42
524.27	36938.33
524.44	37380.70
524.61	37118.56
524.78	37050.68
524.96	36982.80
525.13	37060.04
525.30	37502.40
525.47	37581.98
525.64	37029.62
525.81	36917.27
525.98	37130.26
526.16	36912.59
526.33	37151.32
526.50	37399.42
526.67	36825.99
526.84	37308.14
527.01	37139.62
527.18	37319.84
527.36	37621.77
527.53	37783.27
527.70	37851.14
527.87	38253.72
528.04	37984.55
528.21	37919.02
528.38	37820.72
528.55	38625.86
528.72	38380.10
528.89	38707.78
529.07	38677.35
529.24	37986.89
529.41	38473.73
529.58	38239.67
529.75	38536.92
529.92	38270.10
530.09	39026.09
530.26	38614.16
530.43	39005.03
530.60	38845.87
530.77	39054.18
530.94	39519.95
531.11	39063.54
531.28	39260.15
531.46	39084.61
531.63	39653.36
531.80	38864.60
531.97	39110.35
532.14	39192.27
532.31	38885.66
532.48	38967.58
532.65	39005.03
532.82	39585.48
532.99	39519.95
533.16	39311.64
533.33	39491.86
533.50	39491.86
533.67	39882.73
533.84	39796.13
534.01	40041.88
534.18	39966.99
534.35	39868.69
534.52	39814.85
534.69	39913.16
534.86	39819.53
535.03	39428.66
535.20	40718.30
535.37	40760.43
535.54	40573.19
535.71	39962.31
535.88	40350.84
536.05	39866.34
536.22	40587.23
536.38	40144.87
536.55	40397.65
536.72	40421.05
536.89	40369.56
537.06	40395.31
537.23	40491.27
537.40	40671.49
537.57	40662.13
537.74	40617.66
537.91	40987.46
538.08	40872.78
538.25	40809.58
538.42	40608.29
538.59	41322.16
538.75	40879.80
538.92	41125.55
539.09	41214.49
539.26	40912.56
539.43	41340.88
539.60	41092.79
539.77	40844.69
539.94	41179.39
540.11	40882.14
540.28	41085.76
540.44	40933.63
540.61	41228.54
540.78	41127.89
540.95	41062.36
541.12	41043.63
541.29	41504.72
541.46	41287.05
541.62	41715.37
541.79	41993.89
541.96	41659.20
542.13	41647.49
542.30	41827.71
542.47	41752.82
542.63	41507.06
542.80	41724.73
542.97	42141.35
543.14	42017.30
543.31	42335.61
543.48	42349.65
543.64	42628.18
543.81	42096.88
543.98	42614.13
544.15	42749.88
544.32	42464.34
544.48	42895.00
544.65	42864.57
544.82	42689.03
544.99	42183.48
545.16	42595.41
545.32	42295.82
545.49	42904.36
545.66	43164.16
545.83	43131.39
546.00	43285.87
546.16	43178.20
546.33	43014.37
546.50	42520.51
546.67	42717.12
546.83	42366.04
547.00	42951.17
547.17	42859.89
547.34	43002.66
547.50	43049.47
547.67	43274.16
547.84	43122.03
548.00	43540.99
548.17	43650.99
548.34	43232.04
548.51	43599.50
548.67	44135.48
548.84	43381.83
549.01	43503.54
549.18	43470.77
549.34	43440.34
549.51	43515.24
549.68	43665.03
549.84	44041.86
550.01	43992.71
550.18	43414.60
550.34	43885.04
550.51	43276.51
550.68	43812.49
550.84	43548.01
551.01	43438.00
551.18	43732.91
551.34	43985.69
551.51	44112.08
551.68	44409.32
551.84	44289.96
552.01	43714.19
552.18	43819.51
552.34	43863.98
552.51	44217.40
552.68	44107.40
552.84	44692.53
553.01	44912.54
553.18	44144.84
553.34	44224.42
553.51	43981.01
553.67	43990.37
553.84	44793.17
554.01	44149.53
554.17	44493.58
554.34	44203.36
554.51	44748.70
554.67	44830.62
554.84	44238.47
555.00	44416.35
555.17	44315.70
555.33	45043.61
555.50	44683.17
555.67	44830.62
555.83	44779.13
556.00	44608.27
556.16	44889.13
556.33	44854.03
556.50	44884.45
556.66	44935.95
556.83	44788.49
556.99	45010.84
557.16	44800.19
557.32	45048.29
557.49	45191.06
557.65	44697.21
557.82	44488.90
557.98	44715.93
558.15	44910.20
558.32	44701.89
558.48	44664.44
558.65	44540.39
558.81	44896.16
558.98	44978.07
559.14	45064.67
559.31	44912.54
559.47	45050.63
559.64	45485.97
559.80	45645.13
559.97	45216.81
560.13	44973.39
560.30	44617.63
560.46	45287.03
560.63	45104.46
560.79	45546.82
560.96	45439.16
561.12	45233.19
561.29	45301.07
561.45	45783.22
561.61	45579.59
561.78	45235.53
561.94	44914.88
562.11	44912.54
562.27	45455.54
562.44	45134.89
562.60	45940.04
562.77	45586.61
562.93	45230.85
563.10	45287.03
563.26	45357.24
563.42	45717.68
563.59	45638.11
563.75	45422.78
563.92	45340.86
564.08	45228.51
564.24	45675.55
564.41	46010.25
564.57	45626.40
564.74	45771.52
564.90	45682.58
565.07	45315.11
565.23	45551.51
565.39	45343.20
565.56	45862.80
565.72	45446.18
565.88	45558.53
566.05	45364.26
566.21	45776.20
566.38	45778.54
566.54	45478.95
566.70	45635.77
566.87	46040.68
567.03	45186.38
567.19	45764.49
567.36	45935.35
567.52	45141.91
567.68	46082.81
567.85	45815.99
568.01	45851.09
568.17	45631.08
568.34	45736.41
568.50	46071.10
568.66	45588.95
568.83	45820.67
568.99	45638.11
569.15	45553.85
569.32	45591.30
569.48	45771.52
569.64	46234.94
569.81	46366.01
569.97	45640.45
570.13	45846.41
570.30	45336.18
570.46	45715.34
570.62	45563.21
570.78	45490.65
570.95	45874.50
571.11	45942.38
571.27	45928.33
571.43	46096.85
571.60	45790.24
571.76	46138.98
571.92	45811.31
572.09	45717.68
572.25	45734.07
572.41	45724.71
572.57	46054.72
572.74	46471.34
572.90	46026.63
573.06	46108.55
573.22	46220.90
573.38	46054.72
573.55	45677.90
573.71	46246.65
573.87	45972.80
574.03	45511.72
574.20	45745.77
574.36	45820.67
574.52	46045.36
574.68	46045.36
574.84	45675.55
575.01	45776.20
575.17	45937.69
575.33	45897.91
575.49	45965.78
575.65	45914.29
575.82	46202.18
575.98	45923.65
576.14	46183.45
576.30	46164.73
576.46	45661.51
576.62	45811.31
576.79	46480.70
576.95	45542.14
577.11	45977.48
577.27	45820.67
577.43	46059.40
577.59	45825.35
577.75	46155.36
577.92	45483.63
578.08	46024.29
578.24	45691.94
578.40	46054.72
578.56	45738.75
578.72	46344.95
578.88	46244.30
579.04	45935.35
579.21	45991.53
579.37	46003.23
579.53	46351.97
579.69	45925.99
579.85	46429.21
580.01	46199.83
580.17	45961.10
580.33	46597.73
580.49	46031.32
580.65	46457.29
580.82	46192.81
580.98	45998.55
581.14	45794.92
581.30	46281.75
581.46	45916.63
581.62	46314.52
581.78	45925.99
581.94	46883.27
582.10	46326.22
582.26	46106.21
582.42	46162.39
582.58	46094.51
582.74	46417.50
582.90	46223.24
583.06	46373.03
583.22	46129.62
583.38	46164.73
583.54	46129.62
583.70	45834.71
583.86	46050.04
584.02	46036.00
584.18	46143.66
584.34	46459.63
584.50	46375.37
584.66	46302.82
584.82	46401.12
584.98	46176.43
585.14	46312.18
585.30	46206.86
585.46	46066.42
585.62	46211.54
585.78	46314.52
585.94	45724.71
586.10	45944.72
586.26	46227.92
586.42	46340.27
586.58	46394.10
586.74	46136.64
586.90	45825.35
587.06	46066.42
587.22	45940.04
587.38	46057.06
587.54	46057.06
587.70	46415.16
587.86	46382.40
588.02	46251.33
588.18	46164.73
588.34	45977.48
588.49	45691.94
588.65	45567.89
588.81	45528.10
588.97	45841.73
589.13	45970.46
589.29	45703.64
589.45	45815.99
589.61	46244.30
589.77	46440.91
589.93	46277.07
590.08	46185.79
590.24	46829.44
590.40	46328.56
590.56	46532.19
590.72	46225.58
590.88	45675.55
591.04	46405.80
591.20	46562.62
591.35	46555.60
591.51	46862.21
591.67	46454.95
591.83	46637.51
591.99	46354.31
592.15	46136.64
592.31	46710.07
592.46	46171.75
592.62	46419.84
592.78	46117.92
592.94	46375.37
593.10	46431.55
593.26	46780.29
593.41	46485.38
593.57	46604.75
593.73	46600.07
593.89	46213.88
594.05	46436.23
594.20	46143.66
594.36	46614.11
594.52	46309.84
594.68	46033.66
594.84	46714.75
594.99	46710.07
595.15	45923.65
595.31	46541.55
595.47	46274.73
595.62	46387.08
595.78	46473.68
595.94	46426.87
596.10	46958.17
596.25	46560.28
596.41	46609.43
596.57	46274.73
596.73	46616.45
596.88	46286.43
597.04	46911.36
597.20	46649.22
597.36	46115.58
597.51	46628.15
597.67	46618.79
597.83	46925.40
597.99	46990.94
598.14	46679.64
598.30	46227.92
598.46	46417.50
598.61	46307.50
598.77	46272.39
598.93	46649.22
599.09	46726.46
599.24	46841.14
599.40	46483.04
599.56	46293.46
599.71	46274.73
599.87	46628.15
600.03	46368.35
600.18	46265.37
600.34	46681.98
600.50	46174.09
600.65	46499.42
600.81	46679.64
600.97	47009.66
601.12	46803.69
601.28	46466.66
601.44	46476.02
601.59	46263.03
601.75	46211.54
601.91	46014.93
602.06	46422.19
602.22	46557.94
602.37	46424.53
602.53	46628.15
602.69	47093.92
602.84	46293.46
603.00	46483.04
603.16	46508.79
603.31	46494.74
603.47	45977.48
603.62	46305.16
603.78	46438.57
603.94	46583.68
604.09	46600.07
604.25	46639.86
604.40	46569.64
604.56	46239.62
604.71	46270.05
604.87	46298.14
605.03	46691.35
605.18	45933.01
605.34	46508.79
605.49	46117.92
605.65	46473.68
605.80	45708.32
605.96	46653.90
606.12	46204.52
606.27	46562.62
606.43	45940.04
606.58	46302.82
606.74	45755.13
606.89	46188.13
607.05	46064.08
607.20	46508.79
607.36	46454.95
607.51	46597.73
607.67	46277.07
607.82	46436.23
607.98	46246.65
608.13	46101.53
608.29	46031.32
608.44	45956.42
608.60	45523.42
608.75	45626.40
608.91	45724.71
609.06	45766.84
609.22	46347.29
609.37	45748.11
609.53	45970.46
609.68	46021.95
609.84	45401.71
609.99	46164.73
610.15	46206.86
610.30	45921.31
610.46	45603.00
610.61	45579.59
610.76	45865.14
610.92	45694.28
611.07	45633.42
611.23	45668.53
611.38	46270.05
611.54	45825.35
611.69	45326.81
611.84	45717.68
612.00	45722.37
612.15	45048.29
612.31	45766.84
612.46	45698.96
612.62	45947.06
612.77	45794.92
612.92	45869.82
613.08	45570.23
613.23	45560.87
613.39	45251.92
613.54	45331.50
613.69	45340.86
613.85	45595.98
614.00	45331.50
614.15	45378.31
614.31	45858.12
614.46	45603.00
614.62	45577.25
614.77	45514.06
614.92	45097.44
615.08	45350.22
615.23	45226.17
615.38	45193.40
615.54	44992.12
615.69	45069.36
615.84	44481.88
616.00	45006.16
616.15	45067.02
616.30	44898.50
616.46	44809.56
616.61	44989.78
616.76	44938.29
616.92	44809.56
617.07	45109.14
617.22	44687.85
617.37	44896.16
617.53	45095.10
617.68	44942.97
617.83	45361.92
617.99	45357.24
618.14	45034.25
618.29	45235.53
618.45	44652.74
618.60	45198.09
618.75	44636.36
618.90	44638.70
619.06	45076.38
619.21	45029.57
619.36	45244.90
619.51	44872.75
619.67	44451.45
619.82	44832.96
619.97	44821.26
620.12	44465.50
620.28	44491.24
620.43	44519.33
620.58	45027.23
620.73	44287.62
620.89	44411.67
621.04	44259.53
621.19	44346.13
621.34	44486.56
621.49	44285.28
621.65	43955.26
621.80	44390.60
621.95	43882.70
622.10	44231.44
622.25	44149.53
622.41	44065.27
622.56	43978.67
622.71	44282.94
622.86	44072.29
623.01	44322.72
623.16	44175.27
623.32	44053.56
623.47	44280.60
623.62	44002.07
623.77	43810.15
623.92	44329.75
624.07	43690.78
624.23	43374.81
624.38	43559.71
624.53	43608.86
624.68	44168.25
624.83	43768.02
624.98	43955.26
625.13	43426.30
625.29	43613.54
625.44	43548.01
625.59	43847.60
625.74	43232.04
625.89	43028.41
626.04	43433.32
626.19	43470.77
626.34	43386.51
626.49	43796.10
626.65	43777.38
626.80	43473.11
626.95	43203.95
627.10	43068.20
627.25	43203.95
627.40	42653.92
627.55	42719.46
627.70	42862.23
627.85	42501.79
628.00	43021.39
628.15	42993.30
628.30	42866.91
628.45	43203.95
628.60	43203.95
628.76	43061.18
628.91	42857.55
629.06	42981.60
629.21	42843.51
629.36	42618.81
629.51	43044.79
629.66	42782.65
629.81	42422.21
629.96	42602.43
630.11	42691.37
630.26	42906.70
630.41	42660.94
630.56	42679.67
630.71	42759.25
630.86	42721.80
631.01	42396.46
631.16	42295.82
631.31	42106.24
631.46	42174.11
631.61	42569.66
631.76	42258.37
631.91	42522.85
632.06	42464.34
632.21	42454.98
632.36	42682.01
632.51	42443.27
632.66	42080.49
632.81	42082.83
632.96	42447.96
633.10	41977.51
633.25	42052.41
633.40	42059.43
633.55	42220.92
633.70	41874.52
633.85	42384.76
634.00	42333.27
634.15	41738.77
634.30	41631.11
634.45	41958.78
634.60	41675.58
634.75	42124.96
634.90	41907.29
635.05	41888.57
635.19	41837.08
635.34	41954.10
635.49	42078.15
635.64	41804.31
635.79	41425.14
635.94	41715.37
636.09	41340.88
636.24	42108.58
636.39	41457.91
636.53	41453.23
636.68	41296.41
636.83	41326.84
636.98	41588.98
637.13	41607.70
637.28	41769.20
637.43	42078.15
637.57	41539.83
637.72	41741.11
637.87	41228.54
638.02	41490.68
638.17	41404.08
638.32	41188.75
638.46	41340.88
638.61	41085.76
638.76	40641.06
638.91	40727.66
639.06	40996.82
639.20	41141.94
639.35	41078.74
639.50	41221.52
639.65	41326.84
639.80	41291.73
639.94	40914.90
640.09	40921.93
640.24	41102.15
640.39	40610.64
640.54	40737.02
640.68	40942.99
640.83	41109.17
640.98	41109.17
641.13	40559.14
641.27	40800.22
641.42	40580.21
641.57	40652.76
641.72	40301.68
641.86	40360.20
642.01	40264.24
642.16	40418.71
642.31	40013.80
642.45	40519.35
642.60	39997.41
642.75	39817.19
642.90	40456.16
643.04	40334.45
643.19	40341.47
643.34	40416.37
643.48	40275.94
643.63	40247.85
643.78	40048.91
643.93	39885.07
644.07	39859.32
644.22	39952.94
644.37	40034.86
644.51	40339.13
644.66	40369.56
644.81	40011.46
644.95	40203.38
645.10	40084.01
645.25	40261.90
645.39	39819.53
645.54	40102.74
645.69	39658.04
645.83	40081.67
645.98	40130.83
646.13	39969.33
646.27	40016.14
646.42	39583.14
646.57	39997.41
646.71	39880.39
646.86	39974.01
647.00	39887.41
647.15	39803.15
647.30	39576.12
647.44	39871.03
647.59	39723.57
647.74	39426.32
647.88	39463.77
648.03	39676.76
648.17	39438.03
648.32	39098.65
648.47	39557.39
648.61	39473.13
648.76	39545.69
648.90	39360.79
649.05	39428.66
649.20	39274.19
649.34	39707.19
649.49	39089.29
649.63	39367.81
649.78	39625.27
649.92	39187.59
650.07	39917.84
650.21	39164.18
650.36	39182.91
650.51	39119.71
650.65	39164.18
650.80	39601.86
650.94	39620.59
651.09	39199.29
651.23	38845.87
651.38	38590.75
651.52	38946.51
651.67	38883.32
651.81	39126.74
651.96	38990.98
652.10	38808.42
652.25	38770.97
652.39	39042.48
652.54	38618.84
652.68	38958.22
652.83	38895.02
652.97	39199.29
653.12	38607.14
653.26	38326.27
653.41	38735.87
653.55	38518.20
653.70	38316.91
653.84	38960.56
653.99	38611.82
654.13	38483.09
654.27	38719.48
654.42	38375.42
654.56	38314.57
654.71	38347.34
654.85	38370.74
655.00	38106.26
655.14	38005.62
655.29	38014.98
655.43	38068.81
655.57	37872.21
655.72	37699.01
655.86	37956.47
656.01	37827.74
656.15	37834.76
656.30	37933.06
656.44	37626.45
656.58	37780.93
656.73	37659.22
656.87	37691.99
657.01	37420.48
657.16	37677.94
657.30	37275.37
657.45	37319.84
657.59	37226.22
657.73	37703.69
657.88	37221.54
658.02	37448.57
658.16	38029.02
658.31	37797.31
658.45	38143.71
658.60	37771.57
658.74	37574.96
658.88	37364.31
659.03	37205.16
659.17	37134.94
659.31	37146.64
659.46	36854.08
659.60	37366.65
659.74	37109.19
659.89	36634.06
660.03	37020.25
660.17	37160.69
660.32	37041.32
660.46	37399.42
660.60	37233.24
660.74	37146.64
660.89	36856.42
661.03	36711.30
661.17	36617.68
661.32	36533.42
661.46	36725.35
661.60	36713.64
661.74	36622.36
661.89	36690.24
662.03	36488.95
662.17	36540.44
662.31	36067.66
662.46	36900.89
662.60	36568.53
662.74	36292.35
662.88	36437.46
663.03	36135.53
663.17	36093.40
663.31	35812.54
663.45	36481.93
663.60	35793.81
663.74	35648.70
663.88	35849.99
664.02	35950.63
664.17	35679.13
664.31	35871.05
664.45	35859.35
664.59	35519.97
664.73	35608.91
664.88	35833.60
665.02	35194.64
665.16	35384.22
665.30	35505.93
665.44	35543.38
665.59	35260.17
665.73	35239.11
665.87	35150.17
666.01	35136.12
666.15	35054.20
666.29	35288.26
666.44	35470.82
666.58	35063.57
666.72	35016.75
666.86	34979.31
667.00	34801.43
667.14	34740.57
667.28	34127.35
667.43	34630.57
667.57	34668.02
667.71	34382.47
667.85	34192.89
667.99	34480.77
668.13	33914.36
668.27	34239.70
668.41	34148.42
668.56	33954.15
668.70	34017.35
668.84	33893.30
668.98	33631.16
669.12	33792.65
669.26	33900.32
669.40	33766.91
669.54	33464.98
669.68	33827.76
669.82	33783.29
669.96	33574.98
670.10	33504.77
670.25	33670.95
670.39	33593.71
670.53	33420.51
670.67	33184.12
670.81	33464.98
670.95	33701.37
671.09	33624.14
671.23	33277.74
671.37	33408.81
671.51	33535.20
671.65	33212.20
671.79	32835.38
671.93	33413.49
672.07	33153.69
672.21	32484.30
672.35	32603.66
672.49	32624.73
672.63	32711.33
672.77	32594.30
672.91	32385.99
673.05	32318.12
673.19	32655.15
673.33	32381.31
673.47	31920.23
673.61	32133.21
673.75	31454.46
673.89	31447.44
674.03	31831.29
674.17	31662.77
674.31	31791.50
674.45	31583.19
674.59	31527.02
674.73	31770.43
674.87	31693.19
675.01	31498.93
675.15	31571.49
675.29	31367.86
675.43	31098.70
675.56	31651.06
675.70	31442.76
675.84	30883.37
675.98	30256.11
676.12	30754.64
676.26	30672.72
676.40	30534.63
676.54	30504.20
676.68	30553.35
676.82	29972.90
676.96	30008.01
677.10	30125.04
677.23	30260.79
677.37	29738.85
677.51	30003.33
677.65	30075.88
677.79	29415.85
677.93	29600.76
678.07	29752.89
678.21	29095.20
678.34	29308.19
678.48	29069.45
678.62	28589.64
678.76	28788.59
678.90	28776.89
679.04	28868.17
679.18	29041.37
679.31	28936.04
679.45	28844.76
679.59	28287.71
679.73	28346.23
679.87	28744.12
680.00	28540.49
680.14	28219.84
680.28	27604.28
680.42	27871.10
680.56	28105.15
680.70	28013.87
680.83	27779.82
680.97	27578.53
681.11	27700.24
681.25	27358.52
681.39	27445.12
681.52	27613.64
681.66	27307.03
681.80	27639.39
681.94	27173.62
682.07	27082.34
682.21	26937.23
682.35	26492.52
682.49	26555.72
682.62	27077.66
682.76	26820.20
682.90	26843.60
683.04	26302.94
683.17	26480.82
683.31	26216.34
683.45	26085.27
683.59	26230.38
683.72	25975.27
683.86	26115.70
684.00	25940.16
684.13	26031.44
684.27	25619.50
684.41	25638.23
684.55	25406.52
684.68	25350.34
684.82	25317.57
684.96	24938.41
685.09	25319.92
685.23	24975.86
685.37	24861.17
685.50	24910.32
685.64	24968.84
685.78	24978.20
685.91	25017.99
686.05	24582.65
686.19	24573.28
686.32	24500.73
686.46	24107.52
686.60	23749.42
686.73	24187.10
686.87	23718.99
687.01	23728.35
687.14	23183.01
687.28	23506.00
687.42	23372.59
687.55	23321.10
687.69	23370.25
687.82	23218.11
687.96	23126.83
688.10	23082.36
688.23	23023.85
688.37	23126.83
688.50	22686.81
688.64	23136.20
688.78	22787.46
688.91	22419.99
689.05	22602.55
689.18	21961.25
689.32	21940.18
689.46	22391.91
689.59	22719.58
689.73	22429.35
689.86	22089.98
690.00	22092.32
690.13	21942.52
690.27	21919.12
690.41	21816.13
690.54	21977.63
690.68	21694.43
690.81	21488.46
690.95	21493.14
691.08	21301.22
691.22	21071.84
691.35	21479.10
691.49	21371.43
691.62	21376.11
691.76	21083.55
691.89	20868.22
692.03	20931.41
692.16	20802.68
692.30	20727.78
692.43	20519.48
692.57	20421.17
692.70	20610.76
692.84	20257.34
692.97	20098.18
693.11	20313.51
693.24	20063.07
693.38	20070.09
693.51	20037.33
693.65	19920.30
693.78	20011.58
693.92	19960.09
694.05	19646.46
694.19	19374.95
694.32	19613.69
694.45	19531.77
694.59	19318.78
694.72	19426.45
694.86	19213.46
694.99	19077.71
695.13	18651.73
695.26	18675.13
695.39	18768.76
695.53	18733.65
695.66	18820.25
695.80	18810.89
695.93	18644.71
696.07	18508.96
696.20	18609.60
696.33	18532.36
696.47	18501.93
696.60	18352.14
696.73	18324.05
696.87	17874.67
697.00	18043.19
697.14	17951.91
697.27	18068.94
697.40	17671.04
697.54	17657.00
697.67	17745.94
697.80	17547.00
697.94	17682.75
698.07	17366.78
698.21	17336.35
698.34	17104.64
698.47	17226.34
698.61	17114.00
698.74	16968.88
698.87	17165.49
699.01	16994.63
699.14	16734.83
699.27	16837.81
699.40	16769.94
699.54	16713.77
699.67	16238.64
699.80	16444.60
699.94	16238.64
700.07	16329.92
700.20	16067.78
700.34	16311.19
700.47	16245.66
700.60	16208.21
700.73	16224.59
700.87	15852.45
701.00	15765.85
701.13	15894.58
701.26	16163.74
701.40	15693.29
701.53	15426.47
701.66	15344.55
701.79	15346.89
701.93	15279.02
702.06	14778.14
702.19	15363.28
702.32	15185.40
702.46	15225.18
702.59	15016.88
702.72	14934.96
702.85	14930.28
702.99	14700.90
703.12	15023.90
703.25	14794.53
703.38	14546.43
703.51	14719.63
703.65	14506.64
703.78	14469.19
703.91	14340.46
704.04	14424.72
704.17	14284.29
704.31	14066.62
704.44	14094.71
704.57	14293.65
704.70	14075.98
704.83	13642.98
704.96	14052.58
705.10	13916.83
705.23	13792.78
>>>>>End Processed Spectral Data<<<<<
