SpectraSuite Data File
++++++++++++++++++++++++++++++++++++
Date: Fri Oct 25 10:48:00 EDT 2013
User: price-jones
Dark Spectrum Present: No
Reference Spectrum Present: No
Number of Sampled Component Spectra: 1
Spectrometers: USB2+H05261
Integration Time (usec): 100000 (USB2+H05261)
Spectra Averaged: 1 (USB2+H05261)
Boxcar Smoothing: 0 (USB2+H05261)
Correct for Electrical Dark: No (USB2+H05261)
Strobe/Lamp Enabled: No (USB2+H05261)
Correct for Detector Non-linearity: No (USB2+H05261)
Correct for Stray Light: No (USB2+H05261)
Number of Pixels in Processed Spectrum: 2048
>>>>>Begin Processed Spectral Data<<<<<
365.73	156.82
365.92	156.82
366.12	156.82
366.32	2.34
366.52	53.83
366.72	74.90
366.91	81.92
367.11	60.85
367.31	23.41
367.51	58.51
367.70	98.30
367.90	11.70
368.10	0.00
368.30	56.17
368.49	11.70
368.69	86.60
368.89	42.13
369.09	86.60
369.28	67.88
369.48	0.00
369.68	88.94
369.87	114.69
370.07	63.19
370.27	149.79
370.47	236.39
370.66	365.12
370.86	395.55
371.06	376.83
371.25	545.34
371.45	470.45
371.65	433.00
371.84	334.70
372.04	435.34
372.24	465.77
372.44	414.27
372.63	547.69
372.83	533.64
373.03	526.62
373.22	423.64
373.42	493.85
373.62	482.15
373.81	573.43
374.01	554.71
374.21	505.56
374.40	463.43
374.60	582.79
374.79	580.45
374.99	578.11
375.19	564.07
375.38	596.84
375.58	524.28
375.78	631.94
375.97	559.39
376.17	550.03
376.37	592.16
376.56	573.43
376.76	620.24
376.95	587.47
377.15	526.62
377.35	624.92
377.54	585.13
377.74	634.29
377.93	589.82
378.13	517.26
378.33	676.41
378.52	543.00
378.72	610.88
378.91	690.46
379.11	641.31
379.31	648.33
379.50	587.47
379.70	671.73
379.89	657.69
380.09	575.77
380.28	592.16
380.48	676.41
380.68	587.47
380.87	629.60
381.07	688.12
381.26	645.99
381.46	716.20
381.65	627.26
381.85	620.24
382.04	699.82
382.24	631.94
382.43	629.60
382.63	641.31
382.83	634.29
383.02	667.05
383.22	671.73
383.41	674.07
383.61	716.20
383.80	765.36
384.00	667.05
384.19	678.76
384.39	770.04
384.58	697.48
384.78	884.72
384.97	751.31
385.17	699.82
385.36	725.57
385.56	788.76
385.75	748.97
385.95	805.14
386.14	847.27
386.34	737.27
386.53	676.41
386.72	713.86
386.92	798.12
387.11	837.91
387.31	788.76
387.50	837.91
387.70	716.20
387.89	819.19
388.09	819.19
388.28	889.40
388.48	875.36
388.67	856.64
388.86	828.55
389.06	863.66
389.25	816.85
389.45	938.55
389.64	873.02
389.84	919.83
390.03	959.62
390.22	971.32
390.42	931.53
390.61	903.45
390.81	870.68
391.00	933.87
391.19	971.32
391.39	938.55
391.58	947.92
391.78	950.26
391.97	1006.43
392.16	1004.09
392.36	1048.56
392.55	952.60
392.75	894.08
392.94	910.47
393.13	891.74
393.33	945.58
393.52	898.77
393.71	1029.84
393.91	1018.13
394.10	1020.47
394.29	1057.92
394.49	1008.77
394.68	1174.95
394.88	1086.01
395.07	1107.07
395.26	1029.84
395.46	1125.80
395.65	1095.37
395.84	1081.33
396.04	1132.82
396.23	1046.22
396.42	1109.41
396.62	1086.01
396.81	1114.10
397.00	1102.39
397.19	1151.54
397.39	1226.44
397.58	1181.97
397.77	1270.91
397.97	1242.82
398.16	1245.16
398.35	1219.42
398.55	1296.66
398.74	1343.47
398.93	1331.76
399.12	1268.57
399.32	1345.81
399.51	1306.02
399.70	1287.29
399.90	1301.34
400.09	1467.52
400.28	1425.39
400.47	1336.45
400.67	1380.92
400.86	1432.41
401.05	1444.11
401.24	1444.11
401.44	1416.02
401.63	1509.65
401.82	1432.41
402.01	1376.24
402.21	1446.45
402.40	1467.52
402.59	1486.24
402.78	1647.74
402.97	1483.90
403.17	1474.54
403.36	1577.52
403.55	1500.28
403.74	1605.61
403.93	1629.01
404.13	1657.10
404.32	1661.78
404.51	1610.29
404.70	1713.27
404.89	1694.55
405.09	1748.38
405.28	1631.35
405.47	1673.48
405.66	1753.06
405.85	1813.92
406.05	1724.97
406.24	1757.74
406.43	1682.85
406.62	1764.76
406.81	1771.79
407.00	1788.17
407.20	1715.61
407.39	1736.68
407.58	1942.64
407.77	1771.79
407.96	1879.45
408.15	1877.11
408.34	1959.03
408.54	1944.99
408.73	1898.17
408.92	1970.73
409.11	1989.46
409.30	2036.27
409.49	1994.14
409.68	1956.69
409.87	1888.81
410.07	2083.08
410.26	2062.01
410.45	2090.10
410.64	2214.15
410.83	2157.97
411.02	2176.70
411.21	2160.31
411.40	2328.83
411.59	2228.19
411.78	2202.44
411.98	2181.38
412.17	2345.22
412.36	2197.76
412.55	2422.45
412.74	2347.56
412.93	2335.85
413.12	2352.24
413.31	2448.20
413.50	2415.43
413.69	2541.82
413.88	2574.59
414.07	2523.10
414.26	2553.52
414.45	2492.67
414.64	2499.69
414.83	2616.72
415.02	2651.83
415.22	2649.49
415.41	2724.38
415.60	2764.17
415.79	2747.79
415.98	2752.47
416.17	2715.02
416.36	2801.62
416.55	2832.05
416.74	2799.28
416.93	2871.84
417.12	2920.99
417.31	3052.06
417.50	3002.91
417.69	3098.87
417.88	2993.55
418.07	3014.61
418.26	2981.84
418.45	3009.93
418.64	3143.34
418.83	3115.25
419.02	3117.59
419.21	3199.51
419.39	3021.63
419.58	3068.44
419.77	3082.49
419.96	3215.90
420.15	3199.51
420.34	3148.02
420.53	3239.30
420.72	3215.90
420.91	3225.26
421.10	3332.92
421.29	3344.63
421.48	3351.65
421.67	3363.35
421.86	3391.44
422.05	3311.86
422.24	3363.35
422.43	3321.22
422.61	3386.76
422.80	3417.18
422.99	3417.18
423.18	3435.91
423.37	3456.97
423.56	3424.20
423.75	3604.42
423.94	3323.56
424.13	3318.88
424.32	3384.41
424.50	3398.46
424.69	3627.83
424.88	3597.40
425.07	3524.85
425.26	3576.34
425.45	3393.78
425.64	3463.99
425.83	3438.25
426.01	3620.81
426.20	3686.34
426.39	3447.61
426.58	3471.01
426.77	3513.14
426.96	3679.32
427.15	3606.77
427.33	3529.53
427.52	3662.94
427.71	3599.74
427.90	3651.24
428.09	3536.55
428.28	3590.38
428.46	3543.57
428.65	3721.45
428.84	3709.75
429.03	3875.93
429.22	3634.85
429.40	3789.33
429.59	3660.60
429.78	3545.91
429.97	3571.66
430.16	3681.66
430.34	3721.45
430.53	3786.99
430.72	3789.33
430.91	3887.63
431.10	3810.39
431.28	3904.01
431.47	4035.08
431.66	4231.69
431.85	3925.08
432.03	4037.42
432.22	4292.54
432.41	4032.74
432.60	4217.65
432.79	4248.07
432.97	4175.52
433.16	4219.99
433.35	4187.22
433.54	4212.96
433.72	4222.33
433.91	4133.39
434.10	4140.41
434.28	4163.81
434.47	4290.20
434.66	4257.43
434.85	4383.82
435.03	4414.25
435.22	4435.32
435.41	4533.62
435.59	4461.06
435.78	4395.53
435.97	4440.00
436.16	4528.94
436.34	4475.10
436.53	4606.17
436.72	4634.26
436.90	4580.43
437.09	4641.28
437.28	4407.23
437.46	4688.09
437.65	4585.11
437.84	4566.39
438.02	4533.62
438.21	4678.73
438.40	4496.17
438.58	4837.89
438.77	4779.37
438.96	4730.22
439.14	4950.23
439.33	4983.00
439.52	5029.81
439.70	4926.83
439.89	5046.20
440.08	5064.92
440.26	5025.13
440.45	5102.37
440.63	5235.78
440.82	5294.29
441.01	5071.94
441.19	5259.18
441.38	5357.49
441.57	5357.49
441.75	5359.83
441.94	5540.05
442.12	5514.30
442.31	5544.73
442.50	5612.60
442.68	5444.09
442.87	5568.13
443.05	5607.92
443.24	5685.16
443.43	5645.37
443.61	5769.42
443.80	5750.70
443.98	5568.13
444.17	5518.98
444.35	5598.56
444.54	5907.51
444.73	5675.80
444.91	5668.78
445.10	5783.46
445.28	5738.99
445.47	5762.40
445.65	5757.72
445.84	5832.62
446.02	5767.08
446.21	5621.97
446.39	5830.27
446.58	5888.79
446.77	6036.24
446.95	5797.51
447.14	5769.42
447.32	5909.85
447.51	5921.56
447.69	5816.23
447.88	5865.38
448.06	5984.75
448.25	5860.70
448.43	5919.21
448.62	5790.49
448.80	5804.53
448.99	6232.85
449.17	6211.78
449.36	6087.73
449.54	6115.82
449.73	6267.95
449.91	6242.21
450.10	6190.72
450.28	6368.60
450.46	6394.34
450.65	6317.11
450.83	6239.87
451.02	6305.40
451.20	6532.44
451.39	6366.26
451.57	6282.00
451.76	6289.02
451.94	6286.68
452.13	6509.03
452.31	6408.39
452.49	6368.60
452.68	6361.58
452.86	6431.79
453.05	6429.45
453.23	6548.82
453.42	6394.34
453.60	6387.32
453.78	6675.21
453.97	6363.92
454.15	6553.50
454.34	6384.98
454.52	6689.25
454.70	6703.29
454.89	6815.64
455.07	6635.42
455.26	6799.26
455.44	6752.45
455.62	6839.05
455.81	6792.23
455.99	6764.15
456.17	6731.38
456.36	6806.28
456.54	7176.08
456.73	7185.44
456.91	7199.49
457.09	6984.16
457.28	7353.96
457.46	7155.02
457.64	7281.41
457.83	7239.28
458.01	7112.89
458.19	7382.05
458.38	7295.45
458.56	7288.43
458.74	7349.28
458.93	7274.38
459.11	7311.83
459.29	7386.73
459.48	7325.88
459.66	7346.94
459.84	7393.75
460.03	7499.08
460.21	7442.90
460.39	7573.97
460.57	7447.58
460.76	7602.06
460.94	7492.05
461.12	7623.12
461.31	7625.47
461.49	7754.19
461.67	7513.12
461.85	7754.19
462.04	7737.81
462.22	8013.99
462.40	7742.49
462.59	7892.29
462.77	7906.33
462.95	8198.90
463.13	7819.73
463.32	8032.72
463.50	7864.20
463.68	7894.63
463.86	7988.25
464.05	7817.39
464.23	8016.33
464.41	7990.59
464.59	7962.50
464.78	8138.04
464.96	8093.57
465.14	7981.23
465.32	8124.00
465.50	8336.99
465.69	8353.37
465.87	8116.98
466.05	8334.65
466.23	8116.98
466.41	8362.73
466.60	8428.27
466.78	8262.09
466.96	8156.77
467.14	8056.12
467.32	8430.61
467.51	8423.59
467.69	8088.89
467.87	8578.06
468.05	8280.82
468.23	8454.02
468.41	8409.54
468.60	8535.93
468.78	8568.70
468.96	8493.80
469.14	8554.66
469.32	8802.75
469.50	8379.12
469.69	8599.13
469.87	8826.16
470.05	8870.63
470.23	8915.10
470.41	8788.71
470.59	9046.17
470.77	8840.20
470.95	8681.05
471.14	8992.34
471.32	8769.99
471.50	8999.36
471.68	9177.24
471.86	9202.99
472.04	9224.05
472.22	9617.26
472.40	8865.95
472.58	9320.01
472.77	9200.65
472.95	9406.61
473.13	9755.35
473.31	9385.55
473.49	9329.38
473.67	9401.93
473.85	9451.08
474.03	9792.80
474.21	9846.63
474.39	9881.74
474.57	9650.03
474.75	9809.19
474.93	9968.34
475.12	9802.16
475.30	10061.96
475.48	10022.17
475.66	10050.26
475.84	10097.07
476.02	10160.27
476.20	10289.00
476.38	10176.65
476.56	10602.63
476.74	10420.06
476.92	10541.77
477.10	10588.58
477.28	10913.92
477.46	10822.64
477.64	10764.12
477.82	10946.69
478.00	11321.17
478.18	11033.29
478.36	11213.51
478.54	11447.56
478.72	11318.83
478.90	11452.24
479.08	11527.14
479.26	11716.72
479.44	11819.71
479.62	11922.69
479.80	11847.79
479.98	11850.13
480.16	12283.13
480.34	12241.00
480.52	12203.55
480.70	12233.98
480.88	12133.34
481.06	12489.10
481.24	12376.75
481.41	12655.28
481.59	13062.53
481.77	12781.67
481.95	12641.23
482.13	12851.88
482.31	12802.73
482.49	13422.97
482.67	13310.63
482.85	13352.76
483.03	13399.57
483.21	13664.05
483.39	13685.11
483.57	13900.44
483.74	13844.27
483.92	14111.09
484.10	14015.13
484.28	14384.93
484.46	14429.40
484.64	14839.00
484.82	14410.68
485.00	14647.07
485.18	14757.08
485.35	15002.83
485.53	14993.47
485.71	14876.44
485.89	15405.41
486.07	15374.98
486.25	15143.27
486.43	15351.57
486.61	15634.78
486.78	15634.78
486.96	15800.96
487.14	16137.99
487.32	16063.10
487.50	16428.22
487.68	16374.39
487.85	16498.44
488.03	16479.71
488.21	16861.22
488.39	16760.58
488.57	17174.85
488.75	17132.72
488.92	17069.53
489.10	17493.16
489.28	17680.41
489.46	17715.51
489.64	17467.42
489.81	18249.16
489.99	18331.08
490.17	18293.63
490.35	18377.89
490.53	18377.89
490.70	18396.61
490.88	18677.48
491.06	19026.21
491.24	18719.60
491.41	18824.93
491.59	18853.02
491.77	18787.48
491.95	19211.12
492.13	19489.64
492.30	19587.94
492.48	19861.79
492.66	19695.61
492.84	19744.76
493.01	20044.35
493.19	20025.62
493.37	20313.51
493.54	20084.14
493.72	20442.24
493.90	20332.23
494.08	20524.16
494.25	20610.76
494.43	20940.77
494.61	21008.65
494.79	20783.96
494.96	21336.32
495.14	21413.56
495.32	21776.34
495.49	21312.92
495.67	21579.74
495.85	21881.67
496.02	22043.17
496.20	21996.35
496.38	22188.28
496.55	22218.71
496.73	22848.31
496.91	22544.04
497.09	22794.48
497.26	22621.28
497.44	22443.40
497.62	22735.96
497.79	23152.58
497.97	22951.29
498.14	23379.61
498.32	23625.37
498.50	23311.74
498.67	23552.81
498.85	23695.58
499.03	23374.93
499.20	23885.17
499.38	23861.76
499.56	24257.31
499.73	24315.83
499.91	24128.58
500.08	24421.15
500.26	24276.04
500.44	24566.26
500.61	24119.22
500.79	24114.54
500.97	24751.17
501.14	24907.98
501.32	24629.46
501.49	24664.57
501.67	24704.35
501.84	25385.45
502.02	25256.72
502.20	25720.15
502.37	25387.79
502.55	25528.22
502.72	25605.46
502.90	25523.54
503.07	25872.28
503.25	25673.34
503.43	25525.88
503.60	25937.82
503.78	26129.74
503.95	26068.89
504.13	26080.59
504.30	26352.09
504.48	26272.51
504.65	26429.33
504.83	26668.06
505.01	26796.79
505.18	26309.96
505.36	26979.36
505.53	26705.51
505.71	27000.42
505.88	27206.39
506.06	26944.25
506.23	26930.20
506.41	27449.80
506.58	27527.04
506.76	27152.55
506.93	27733.01
507.11	27388.95
507.28	27227.45
507.46	27559.81
507.63	27377.25
507.81	27938.97
507.98	27805.56
508.16	27634.71
508.33	28243.24
508.50	28123.88
508.68	28163.67
508.85	28414.10
509.03	28409.42
509.20	28498.36
509.38	29109.24
509.55	28879.87
509.73	28641.14
509.90	28975.83
510.08	28664.54
510.25	28877.53
510.42	28936.04
510.60	29060.09
510.77	29275.42
510.95	29273.08
511.12	29488.41
511.30	29476.71
511.47	29944.81
511.64	29727.14
511.82	29853.53
511.99	29186.48
512.17	30235.04
512.34	29802.04
512.51	30295.89
512.69	30312.28
512.86	29909.71
513.04	30452.71
513.21	30073.54
513.38	30354.41
513.56	30471.43
513.73	30499.52
513.90	30492.50
514.08	30239.72
514.25	30649.32
514.43	30513.56
514.60	30764.00
514.77	30618.89
514.95	31049.55
515.12	30930.18
515.29	31257.85
515.47	31330.41
515.64	31253.17
515.81	31384.24
515.99	31173.60
516.16	31667.45
516.33	31910.86
516.51	31454.46
516.68	30958.27
516.85	31049.55
517.03	31864.05
517.20	31871.07
517.37	31611.28
517.54	32098.11
517.72	31735.32
517.89	31831.29
518.06	32081.72
518.24	32002.14
518.41	31505.95
518.58	32250.24
518.75	31962.36
518.93	32861.12
519.10	32388.33
519.27	32063.00
519.45	32484.30
519.62	32687.92
519.79	32889.21
519.96	32645.79
520.14	33149.01
520.31	32734.73
520.48	33017.94
520.65	33116.24
520.83	33528.17
521.00	33076.45
521.17	33130.28
521.34	33354.97
521.52	33266.03
521.69	33469.66
521.86	33778.61
522.03	33589.03
522.20	34117.99
522.38	33890.96
522.55	33956.49
522.72	33787.97
522.89	33652.22
523.07	34010.32
523.24	34178.84
523.41	34085.22
523.58	33841.81
523.75	34621.20
523.92	34506.52
524.10	34403.53
524.27	34572.05
524.44	34724.19
524.61	34948.88
524.78	35171.23
524.96	34803.77
525.13	34974.63
525.30	35150.17
525.47	35042.50
525.64	35136.12
525.81	35178.25
525.98	35124.42
526.16	35276.55
526.33	35084.63
526.50	35182.93
526.67	34801.43
526.84	35501.25
527.01	34951.22
527.18	35402.94
527.36	35957.65
527.53	35812.54
527.70	35981.06
527.87	35784.45
528.04	35777.43
528.21	35868.71
528.38	35641.68
528.55	36341.50
528.72	35903.82
528.89	36023.19
529.07	36268.94
529.24	36219.79
529.41	36093.40
529.58	35915.52
529.75	36189.36
529.92	36690.24
530.09	36545.12
530.26	36430.44
530.43	36910.25
530.60	36371.92
530.77	36893.86
530.94	36898.55
531.11	36219.79
531.28	36790.88
531.46	36694.92
531.63	37160.69
531.80	36903.23
531.97	37076.43
532.14	36795.56
532.31	36535.76
532.48	37188.77
532.65	37120.90
532.82	37408.78
532.99	37331.54
533.16	37043.66
533.33	37427.51
533.50	37600.71
533.67	37556.24
533.84	37476.66
534.01	37429.85
534.18	37734.12
534.35	38045.41
534.52	37546.87
534.69	37715.39
534.86	37914.34
535.03	37453.25
535.20	38223.29
535.37	37872.21
535.54	38141.37
535.71	38319.25
535.88	38045.41
536.05	37841.78
536.22	38014.98
536.38	37848.80
536.55	38274.78
536.72	38003.28
536.89	38330.95
537.06	38220.95
537.23	38398.83
537.40	38167.12
537.57	38391.81
537.74	38366.06
537.91	38710.12
538.08	38504.15
538.25	38061.79
538.42	38361.38
538.59	38946.51
538.75	38682.03
538.92	38773.31
539.09	39309.30
539.26	38789.70
539.43	38859.91
539.60	39042.48
539.77	38822.47
539.94	39117.37
540.11	38705.44
540.28	38993.32
540.44	39014.39
540.61	38906.73
540.78	38990.98
540.95	39187.59
541.12	38862.26
541.29	39248.44
541.46	39526.97
541.62	39700.17
541.79	39672.08
541.96	39110.35
542.13	39728.25
542.30	39751.66
542.47	39828.90
542.63	39831.24
542.80	39952.94
542.97	40334.45
543.14	40432.75
543.31	40474.88
543.48	40409.35
543.64	40474.88
543.81	40289.98
543.98	40177.64
544.15	40119.12
544.32	40425.73
544.48	40760.43
544.65	40648.08
544.82	40224.45
544.99	40664.47
545.16	40418.71
545.32	40182.32
545.49	40694.89
545.66	40882.14
545.83	41029.59
546.00	40835.33
546.16	40940.65
546.33	40435.10
546.50	40404.67
546.67	40603.61
546.83	40720.64
547.00	40690.21
547.17	40568.51
547.34	40797.88
547.50	41125.55
547.67	40769.79
547.84	41270.67
548.00	41060.02
548.17	41392.37
548.34	41003.85
548.51	41558.55
548.67	41394.71
548.84	41221.52
549.01	41324.50
549.18	41202.79
549.34	41324.50
549.51	41706.01
549.68	41720.05
549.84	41748.14
550.01	41698.98
550.18	41703.67
550.34	41455.57
550.51	41720.05
550.68	41469.61
550.84	41593.66
551.01	41755.16
551.18	41921.34
551.34	41666.22
551.51	41979.85
551.68	41766.86
551.84	42391.78
552.01	41710.69
552.18	42071.13
552.34	41766.86
552.51	42052.41
552.68	41949.42
552.84	42176.45
553.01	42700.73
553.18	41879.21
553.34	42607.11
553.51	42101.56
553.67	42363.70
553.84	42492.43
554.01	42218.58
554.17	42696.05
554.34	42909.04
554.51	42452.64
554.67	42588.39
554.84	42162.41
555.00	42375.40
555.17	42192.84
555.33	42885.64
555.50	42693.71
555.67	42733.50
555.83	42550.94
556.00	42689.03
556.16	43344.38
556.33	42742.86
556.50	42827.12
556.66	42567.32
556.83	42518.17
556.99	42618.81
557.16	42527.53
557.32	42529.87
557.49	42972.24
557.65	42227.95
557.82	42667.97
557.98	43154.80
558.15	42859.89
558.32	43021.39
558.48	42850.53
558.65	42803.72
558.81	42768.61
558.98	43124.37
559.14	43019.05
559.31	42932.45
559.47	42948.83
559.64	43091.60
559.80	42780.31
559.97	43519.92
560.13	42899.68
560.30	43208.63
560.46	43442.68
560.63	43065.86
560.79	43208.63
560.96	43580.78
561.12	43367.79
561.29	43557.37
561.45	43283.53
561.61	42965.21
561.78	43449.70
561.94	43044.79
562.11	43367.79
562.27	43531.62
562.44	43061.18
562.60	43973.98
562.77	43849.94
562.93	43763.34
563.10	43957.60
563.26	43571.41
563.42	43517.58
563.59	43206.29
563.75	43662.69
563.92	43615.88
564.08	43629.93
564.24	43573.75
564.41	43753.97
564.57	43772.70
564.74	43969.30
564.90	43899.09
565.07	44130.80
565.23	43625.25
565.39	44011.43
565.56	44105.06
565.72	43580.78
565.88	44065.27
566.05	43386.51
566.21	43744.61
566.38	44259.53
566.54	43821.85
566.70	43938.88
566.87	44144.84
567.03	43491.83
567.19	44404.64
567.36	43899.09
567.52	43676.74
567.68	44226.76
567.85	44067.61
568.01	44065.27
568.17	43665.03
568.34	44137.82
568.50	44325.07
568.66	43948.24
568.83	43866.32
568.99	43782.06
569.15	43856.96
569.32	43423.96
569.48	44184.63
569.64	44025.48
569.81	43959.94
569.97	44107.40
570.13	44053.56
570.30	43538.65
570.46	43777.38
570.62	43868.66
570.78	43756.32
570.95	44069.95
571.11	43936.54
571.27	43791.42
571.43	43997.39
571.60	44353.15
571.76	44060.58
571.92	44107.40
572.09	43945.90
572.25	44133.14
572.41	44018.46
572.57	43899.09
572.74	44509.97
572.90	44165.91
573.06	44603.59
573.22	44196.34
573.38	43927.17
573.55	43931.86
573.71	43950.58
573.87	43990.37
574.03	43988.03
574.20	44247.83
574.36	43906.11
574.52	44238.47
574.68	43803.13
574.84	44369.54
575.01	44409.32
575.17	44275.91
575.33	44219.74
575.49	44133.14
575.65	44596.57
575.82	44758.06
575.98	43962.28
576.14	44610.61
576.30	44339.11
576.46	44069.95
576.62	43835.89
576.79	44009.09
576.95	43861.64
577.11	44072.29
577.27	43702.48
577.43	44484.22
577.59	43861.64
577.75	44130.80
577.92	44140.16
578.08	44257.19
578.24	44076.97
578.40	44308.68
578.56	44102.71
578.72	44285.28
578.88	44327.41
579.04	44484.22
579.21	44254.85
579.37	44016.11
579.53	43880.36
579.69	43908.45
579.85	44493.58
580.01	44612.95
580.17	43915.47
580.33	44751.04
580.49	44339.11
580.65	44566.14
580.82	44165.91
580.98	44603.59
581.14	44631.68
581.30	44704.23
581.46	44430.39
581.62	44732.32
581.78	44474.86
581.94	44615.29
582.10	44577.84
582.26	44678.49
582.42	43981.01
582.58	44191.65
582.74	44315.70
582.90	43878.02
583.06	44978.07
583.22	44905.52
583.38	44851.69
583.54	44048.88
583.70	44243.15
583.86	44425.71
584.02	44032.50
584.18	44563.80
584.34	44238.47
584.50	44294.64
584.66	44545.08
584.82	44339.11
584.98	44790.83
585.14	44926.58
585.30	44411.67
585.46	44669.12
585.62	44444.43
585.78	44416.35
585.94	44198.68
586.10	44516.99
586.26	44318.04
586.42	44697.21
586.58	44678.49
586.74	44406.98
586.90	44587.21
587.06	44034.84
587.22	44863.39
587.38	44032.50
587.54	44170.59
587.70	44760.40
587.86	44547.42
588.02	44739.34
588.18	44800.19
588.34	44247.83
588.49	44580.18
588.65	44093.35
588.81	44580.18
588.97	44130.80
589.13	44311.02
589.29	44554.44
589.45	44512.31
589.61	44516.99
589.77	45275.32
589.93	44823.60
590.08	44528.69
590.24	44341.45
590.40	45045.95
590.56	45350.22
590.72	44865.73
590.88	44605.93
591.04	44500.61
591.20	44924.24
591.35	44996.80
591.51	45640.45
591.67	44762.75
591.83	44879.77
591.99	44280.60
592.15	44769.77
592.31	44629.34
592.46	44957.01
592.62	44673.81
592.78	44959.35
592.94	44664.44
593.10	44741.68
593.26	44961.69
593.41	44395.28
593.57	44715.93
593.73	45074.04
593.89	45127.87
594.05	44744.02
594.20	44774.45
594.36	45055.31
594.52	44893.82
594.68	44769.77
594.84	45141.91
594.99	45099.78
595.15	44835.30
595.31	44751.04
595.47	44739.34
595.62	44903.18
595.78	45237.87
595.94	44975.73
596.10	45242.56
596.25	44783.81
596.41	45144.25
596.57	44865.73
596.73	44755.72
596.88	44685.51
597.04	45064.67
597.20	44938.29
597.36	45020.20
597.51	45209.79
597.67	44865.73
597.83	45226.17
597.99	45050.63
598.14	45151.27
598.30	44907.86
598.46	44891.48
598.61	44603.59
598.77	44500.61
598.93	44772.11
599.09	44650.40
599.24	45099.78
599.40	45256.60
599.56	44910.20
599.71	44786.15
599.87	45294.05
600.03	45090.42
600.18	44753.38
600.34	44828.28
600.50	44912.54
600.65	44416.35
600.81	45502.35
600.97	44861.05
601.12	45434.48
601.28	45088.08
601.44	45338.52
601.59	44722.96
601.75	44584.86
601.91	44811.90
602.06	45043.61
602.22	44938.29
602.37	45078.72
602.53	45038.93
602.69	45560.87
602.84	45116.17
603.00	44945.31
603.16	45146.59
603.31	44659.76
603.47	44638.70
603.62	45137.23
603.78	44982.76
603.94	44570.82
604.09	44980.42
604.25	44928.92
604.40	44903.18
604.56	44690.19
604.71	45120.85
604.87	44662.10
605.03	44788.49
605.18	44737.00
605.34	44971.05
605.49	44472.52
605.65	44821.26
605.80	45031.91
605.96	44856.37
606.12	44662.10
606.27	44594.23
606.43	44598.91
606.58	45006.16
606.74	44844.66
606.89	44648.06
607.05	44554.44
607.20	44999.14
607.36	44765.09
607.51	45048.29
607.67	44781.47
607.82	44552.10
607.98	44882.11
608.13	44357.83
608.29	44374.22
608.44	44538.05
608.60	44488.90
608.75	44907.86
608.91	44437.41
609.06	44453.79
609.22	44935.95
609.37	44346.13
609.53	44531.03
609.68	44741.68
609.84	44343.79
609.99	44762.75
610.15	44521.67
610.30	44404.64
610.46	44212.72
610.61	44315.70
610.76	44186.97
610.92	43995.05
611.07	44526.35
611.23	44596.57
611.38	43875.68
611.54	44259.53
611.69	44392.94
611.84	44402.30
612.00	44278.25
612.15	44004.41
612.31	44156.55
612.46	44516.99
612.62	44556.78
612.77	44318.04
612.92	44240.81
613.08	44163.57
613.23	43793.76
613.39	44018.46
613.54	43917.81
613.69	44013.77
613.85	44313.36
614.00	44638.70
614.15	44062.93
614.31	44062.93
614.46	44191.65
614.62	43735.25
614.77	43737.59
614.92	43793.76
615.08	43854.62
615.23	43861.64
615.38	44186.97
615.54	43639.29
615.69	43725.89
615.84	43285.87
616.00	43721.21
616.15	43388.85
616.30	43828.87
616.46	43482.47
616.61	43140.75
616.76	43903.77
616.92	43861.64
617.07	43658.01
617.22	43662.69
617.37	43337.36
617.53	43840.57
617.68	43597.16
617.83	43358.42
617.99	43833.55
618.14	43426.30
618.29	43487.15
618.45	43363.11
618.60	43203.95
618.75	43566.73
618.90	43468.43
619.06	43323.32
619.21	43351.40
619.36	43606.52
619.51	43054.15
619.67	43536.30
619.82	43470.77
619.97	43117.35
620.12	43199.27
620.28	42806.06
620.43	43168.84
620.58	43412.26
620.73	43292.89
620.89	42850.53
621.04	42944.15
621.19	42979.26
621.34	42763.93
621.49	43243.74
621.65	43147.78
621.80	43161.82
621.95	42794.36
622.10	42852.87
622.25	42553.28
622.41	42752.23
622.56	42770.95
622.71	43012.02
622.86	42834.14
623.01	42930.11
623.16	42902.02
623.32	43164.16
623.47	43372.47
623.62	42600.09
623.77	42782.65
623.92	43023.73
624.07	42983.94
624.23	42387.10
624.38	42026.66
624.53	42438.59
624.68	42911.38
624.83	42476.04
624.98	42572.00
625.13	42192.84
625.29	42412.85
625.44	42724.14
625.59	42366.04
625.74	41797.29
625.89	41872.18
626.04	42195.18
626.19	41996.23
626.34	42272.42
626.49	41991.55
626.65	41996.23
626.80	42466.68
626.95	41670.90
627.10	41673.24
627.25	41949.42
627.40	41745.80
627.55	41418.12
627.70	41254.28
627.85	41647.49
628.00	41972.83
628.15	42120.28
628.30	41801.97
628.45	42019.64
628.60	41354.93
628.76	41853.46
628.91	41340.88
629.06	41394.71
629.21	41841.76
629.36	41469.61
629.51	41383.01
629.66	41560.89
629.81	41675.58
629.96	41897.93
630.11	41347.90
630.26	41399.40
630.41	41446.21
630.56	41422.80
630.71	41191.09
630.86	40931.29
631.01	41343.22
631.16	41289.39
631.31	41315.14
631.46	40823.62
631.61	40957.03
631.76	41715.37
631.91	41188.75
632.06	41464.93
632.21	41139.60
632.36	41373.65
632.51	41090.44
632.66	41062.36
632.81	40823.62
632.96	41195.77
633.10	40472.54
633.25	40725.32
633.40	40634.04
633.55	40987.46
633.70	41076.40
633.85	40844.69
634.00	40718.30
634.15	40870.43
634.30	40657.45
634.45	40638.72
634.60	40854.05
634.75	40641.06
634.90	40701.92
635.05	40662.13
635.19	40884.48
635.34	41017.89
635.49	40308.71
635.64	40325.09
635.79	40556.80
635.94	40907.88
636.09	40196.36
636.24	40531.06
636.39	40638.72
636.53	40346.15
636.68	40027.84
636.83	40201.04
636.98	40687.87
637.13	40325.09
637.28	39782.09
637.43	40519.35
637.57	40502.97
637.72	40444.46
637.87	40254.87
638.02	40304.02
638.17	39969.33
638.32	39945.92
638.46	40009.12
638.61	39896.77
638.76	39861.66
638.91	39920.18
639.06	39796.13
639.20	39793.79
639.35	40198.70
639.50	39887.41
639.65	40376.58
639.80	40463.18
639.94	39676.76
640.09	39819.53
640.24	39456.75
640.39	39974.01
640.54	39533.99
640.68	39538.67
640.83	39583.14
640.98	39880.39
641.13	39379.51
641.27	39793.79
641.42	39250.78
641.57	39763.36
641.72	39559.73
641.86	39332.70
642.01	38766.29
642.16	39339.72
642.31	38782.68
642.45	39810.17
642.60	39084.61
642.75	38937.15
642.90	39049.50
643.04	39442.71
643.19	39243.76
643.34	39349.09
643.48	39358.45
643.63	39033.11
643.78	39070.56
643.93	38770.97
644.07	38670.33
644.22	38862.26
644.37	38888.00
644.51	39110.35
644.66	38653.95
644.81	38974.60
644.95	38960.56
645.10	38801.40
645.25	38892.68
645.39	39299.94
645.54	38838.85
645.69	39283.55
645.83	38611.82
645.98	38698.42
646.13	38995.67
646.27	38888.00
646.42	38560.33
646.57	38785.02
646.71	38614.16
646.86	38642.24
647.00	38916.09
647.15	38391.81
647.30	38258.40
647.44	38841.19
647.59	38543.94
647.74	38337.98
647.88	38204.56
648.03	38029.02
648.17	38710.12
648.32	38213.93
648.47	38127.33
648.61	38600.12
648.76	38831.83
648.90	38480.75
649.05	38583.73
649.20	38590.75
649.34	38424.57
649.49	37865.19
649.63	38513.52
649.78	38038.39
649.92	37479.00
650.07	38466.70
650.21	38284.14
650.36	38031.36
650.51	37865.19
650.65	38316.91
650.80	38787.36
650.94	38696.08
651.09	37900.29
651.23	37897.95
651.38	37979.87
651.52	38124.99
651.67	37778.59
651.81	38405.85
651.96	37364.31
652.10	37610.07
652.25	37745.82
652.39	37530.49
652.54	37600.71
652.68	38092.22
652.83	38068.81
652.97	37783.27
653.12	37776.25
653.26	37511.77
653.41	37701.35
653.55	37251.97
653.70	37453.25
653.84	37579.64
653.99	37560.92
654.13	37336.23
654.27	37078.77
654.42	37703.69
654.56	37516.45
654.71	37411.12
654.85	37984.55
655.00	37383.04
655.14	37436.87
655.29	36772.16
655.43	37371.33
655.57	36903.23
655.72	36767.48
655.86	37036.64
656.01	36837.69
656.15	36671.51
656.30	36732.37
656.44	36580.23
656.58	36790.88
656.73	37022.59
656.87	36882.16
657.01	36584.91
657.16	36755.77
657.30	36357.88
657.45	36116.81
657.59	36687.90
657.73	36708.96
657.88	36718.32
658.02	36053.61
658.16	36432.78
658.31	36868.12
658.45	36439.80
658.60	36416.40
658.74	36804.92
658.88	36505.34
659.03	36154.26
659.17	36294.69
659.31	36760.45
659.46	36187.02
659.60	36119.15
659.74	36514.70
659.89	35651.04
660.03	35894.46
660.17	36481.93
660.32	36212.77
660.46	36460.87
660.60	36070.00
660.74	35978.72
660.89	35725.94
661.03	35466.14
661.17	35550.40
661.32	35686.15
661.46	35842.96
661.60	35356.13
661.74	35608.91
661.89	35405.28
662.03	35487.20
662.17	35611.25
662.31	35449.75
662.46	35770.41
662.60	35477.84
662.74	35281.24
662.88	35491.88
663.03	35042.50
663.17	35009.73
663.31	34560.35
663.45	35349.11
663.60	35477.84
663.74	34583.76
663.88	34836.53
664.02	34768.66
664.17	35180.59
664.31	34326.30
664.45	34693.76
664.59	34511.20
664.73	34789.72
664.88	34930.16
665.02	34408.22
665.16	34625.89
665.30	34464.39
665.44	34609.50
665.59	34117.99
665.73	34000.96
665.87	34059.48
666.01	34117.99
666.15	34073.52
666.29	33984.58
666.44	34403.53
666.58	33977.56
666.72	34277.15
666.86	34539.29
667.00	34122.67
667.14	33584.35
667.28	33666.27
667.43	33972.88
667.57	33146.67
667.71	33696.69
667.85	33586.69
667.99	33338.59
668.13	33331.57
668.27	33839.47
668.41	33209.86
668.56	33233.27
668.70	33277.74
668.84	33268.37
668.98	33027.30
669.12	32914.95
669.26	33329.23
669.40	33081.13
669.54	32835.38
669.68	32849.42
669.82	33003.89
669.96	32383.65
670.10	32573.24
670.25	32690.26
670.39	32746.44
670.53	32458.55
670.67	32301.73
670.81	32650.47
670.95	32823.67
671.09	32397.70
671.23	32446.85
671.37	32617.71
671.51	32189.39
671.65	32072.36
671.79	32025.55
671.93	32058.32
672.07	32470.25
672.21	31915.54
672.35	32025.55
672.49	32114.49
672.63	32009.17
672.77	31653.40
672.91	31857.03
673.05	31630.00
673.19	31278.92
673.33	31143.17
673.47	31227.43
673.61	31110.40
673.75	30918.48
673.89	30939.54
674.03	30569.74
674.17	30698.47
674.31	30749.96
674.45	30829.54
674.59	30740.60
674.73	31012.10
674.87	30611.87
675.01	31012.10
675.15	31014.44
675.29	30766.34
675.43	30780.39
675.56	30405.90
675.70	30302.92
675.84	30553.35
675.98	29523.52
676.12	29818.42
676.26	29586.71
676.40	29783.32
676.54	29745.87
676.68	30237.38
676.82	29352.66
676.96	29656.93
677.10	29039.03
677.23	29034.35
677.37	29134.99
677.51	29177.12
677.65	29130.31
677.79	28989.88
677.93	28900.94
678.07	29001.58
678.21	28098.13
678.34	28694.97
678.48	28716.03
678.62	28357.93
678.76	28479.64
678.90	28142.60
679.04	28615.39
679.18	28320.48
679.31	28105.15
679.45	27742.37
679.59	27498.95
679.73	27693.22
679.87	27686.20
680.00	27721.30
680.14	27496.61
680.28	27623.00
680.42	27667.47
680.56	27449.80
680.70	27276.60
680.83	26939.57
680.97	26923.18
681.11	26878.71
681.25	26766.37
681.39	26710.19
681.52	27026.17
681.66	26916.16
681.80	26831.90
681.94	26508.91
682.07	26525.29
682.21	26324.01
682.35	26267.83
682.49	26354.43
682.62	26281.88
682.76	25898.03
682.90	25869.94
683.04	26228.04
683.17	25977.61
683.31	26052.50
683.45	25874.62
683.59	25605.46
683.72	25006.28
683.86	25167.78
684.00	24964.15
684.13	25425.24
684.27	25479.07
684.41	25280.13
684.55	24767.55
684.68	25055.43
684.82	24627.12
684.96	24781.59
685.09	24781.59
685.23	24093.47
685.37	24210.50
685.50	24301.78
685.64	24259.65
685.78	23868.78
685.91	24140.29
686.05	23913.25
686.19	23711.97
686.32	24032.62
686.46	23653.45
686.60	23517.70
686.73	23466.21
686.87	23183.01
687.01	23353.87
687.14	23178.33
687.28	23173.64
687.42	22719.58
687.55	22941.93
687.69	22984.06
687.82	23028.53
687.96	22630.64
688.10	22696.17
688.23	22602.55
688.37	22499.57
688.50	22153.17
688.64	22153.17
688.78	22340.41
688.91	22080.61
689.05	22382.54
689.18	22195.30
689.32	21741.24
689.46	22132.11
689.59	21940.18
689.73	21788.05
689.86	21900.39
690.00	21689.74
690.13	21996.35
690.27	21448.67
690.41	21582.08
690.54	21106.95
690.68	21205.25
690.81	21223.98
690.95	20926.73
691.08	20999.29
691.22	20807.36
691.35	21104.61
691.49	20849.49
691.62	20978.22
691.76	20842.47
691.89	20690.34
692.03	20311.17
692.16	20353.30
692.30	20755.87
692.43	20365.00
692.57	20002.22
692.70	20175.42
692.84	20030.30
692.97	19702.63
693.11	19765.82
693.24	19632.41
693.38	19531.77
693.51	19248.57
693.65	19676.88
693.78	19569.22
693.92	19351.55
694.05	19403.04
694.19	19154.94
694.32	19058.98
694.45	19183.03
694.59	19122.18
694.72	18728.97
694.86	18785.14
694.99	18771.10
695.13	18225.75
695.26	18139.15
695.39	18377.89
695.53	18284.26
695.66	18759.39
695.80	18352.14
695.93	17989.36
696.07	17994.04
696.20	17748.28
696.33	17949.57
696.47	18012.76
696.60	17806.80
696.73	17949.57
696.87	17818.50
697.00	17685.09
697.14	17851.27
697.27	17769.35
697.40	17139.74
697.54	17200.60
697.67	17205.28
697.80	16947.82
697.94	17224.00
698.07	17130.38
698.21	17022.72
698.34	16762.92
698.47	16861.22
698.61	16514.82
698.74	16489.07
698.87	16664.61
699.01	16533.54
699.14	16439.92
699.27	16444.60
699.40	15925.00
699.54	16198.85
699.67	15723.72
699.80	16123.95
699.94	16044.37
700.07	15903.94
700.20	16030.33
700.34	15690.95
700.47	15925.00
700.60	15819.68
700.73	15763.51
700.87	15403.07
701.00	15559.88
701.13	15435.83
701.26	15304.76
701.40	15407.75
701.53	15077.73
701.66	15290.72
701.79	15080.07
701.93	15096.46
702.06	14848.36
702.19	14478.55
702.32	14792.19
702.46	14792.19
702.59	14759.42
702.72	14792.19
702.85	14677.50
702.99	14633.03
703.12	14841.34
703.25	14586.22
703.38	14464.51
703.51	14361.53
703.65	14286.63
703.78	14101.73
703.91	14099.39
704.04	14258.54
704.17	14036.19
704.31	13804.48
704.44	13905.12
704.57	13530.64
704.70	13518.93
704.83	13579.79
704.96	13652.34
705.10	13556.38
705.23	13902.78
>>>>>End Processed Spectral Data<<<<<
