SpectraSuite Data File
++++++++++++++++++++++++++++++++++++
Date: Fri Oct 25 10:47:17 EDT 2013
User: price-jones
Dark Spectrum Present: No
Reference Spectrum Present: No
Number of Sampled Component Spectra: 1
Spectrometers: USB2+H05261
Integration Time (usec): 100000 (USB2+H05261)
Spectra Averaged: 1 (USB2+H05261)
Boxcar Smoothing: 0 (USB2+H05261)
Correct for Electrical Dark: No (USB2+H05261)
Strobe/Lamp Enabled: No (USB2+H05261)
Correct for Detector Non-linearity: No (USB2+H05261)
Correct for Stray Light: No (USB2+H05261)
Number of Pixels in Processed Spectrum: 2048
>>>>>Begin Processed Spectral Data<<<<<
365.73	117.03
365.92	117.03
366.12	117.03
366.32	60.85
366.52	51.49
366.72	67.88
366.91	51.49
367.11	35.11
367.31	42.13
367.51	16.38
367.70	53.83
367.90	84.26
368.10	0.00
368.30	95.96
368.49	42.13
368.69	53.83
368.89	79.58
369.09	67.88
369.28	65.54
369.48	79.58
369.68	79.58
369.87	77.24
370.07	138.09
370.27	79.58
370.47	135.75
370.66	325.33
370.86	372.15
371.06	411.93
371.25	397.89
371.45	437.68
371.65	381.51
371.84	414.27
372.04	470.45
372.24	461.09
372.44	449.38
372.63	491.51
372.83	458.74
373.03	468.11
373.22	514.92
373.42	505.56
373.62	468.11
373.81	496.19
374.01	566.41
374.21	559.39
374.40	580.45
374.60	472.79
374.79	528.96
374.99	543.00
375.19	526.62
375.38	575.77
375.58	507.90
375.78	498.53
375.97	526.62
376.17	615.56
376.37	531.30
376.56	578.11
376.76	559.39
376.95	564.07
377.15	552.37
377.35	629.60
377.54	599.18
377.74	596.84
377.93	503.22
378.13	543.00
378.33	638.97
378.52	587.47
378.72	601.52
378.91	557.05
379.11	547.69
379.31	528.96
379.50	526.62
379.70	603.86
379.89	557.05
380.09	657.69
380.28	664.71
380.48	624.92
380.68	599.18
380.87	660.03
381.07	683.44
381.26	660.03
381.46	601.52
381.65	671.73
381.85	706.84
382.04	620.24
382.24	683.44
382.43	627.26
382.63	669.39
382.83	599.18
383.02	727.91
383.22	667.05
383.41	601.52
383.61	727.91
383.80	706.84
384.00	734.93
384.19	702.16
384.39	627.26
384.58	753.65
384.78	737.27
384.97	732.59
385.17	709.18
385.36	739.61
385.56	709.18
385.75	674.07
385.95	770.04
386.14	704.50
386.34	674.07
386.53	774.72
386.72	751.31
386.92	788.76
387.11	781.74
387.31	709.18
387.50	770.04
387.70	744.29
387.89	798.12
388.09	791.10
388.28	767.70
388.48	760.67
388.67	837.91
388.86	725.57
389.06	823.87
389.25	795.78
389.45	922.17
389.64	788.76
389.84	898.77
390.03	812.17
390.22	919.83
390.42	821.53
390.61	898.77
390.81	833.23
391.00	983.02
391.19	823.87
391.39	943.24
391.58	919.83
391.78	954.94
391.97	959.62
392.16	835.57
392.36	943.24
392.55	924.51
392.75	1029.84
392.94	994.73
393.13	992.39
393.33	950.26
393.52	1001.75
393.71	1025.15
393.91	997.07
394.10	1015.79
394.29	999.41
394.49	1062.60
394.68	1039.20
394.88	1008.77
395.07	1062.60
395.26	1062.60
395.46	1039.20
395.65	1097.71
395.84	1034.52
396.04	1100.05
396.23	968.98
396.42	961.96
396.62	1139.84
396.81	1165.59
397.00	1081.33
397.19	1118.78
397.39	1174.95
397.58	1219.42
397.77	1191.33
397.97	1095.37
398.16	1184.31
398.35	1149.20
398.55	1153.88
398.74	1317.72
398.93	1242.82
399.12	1212.40
399.32	1207.72
399.51	1238.14
399.70	1273.25
399.90	1270.91
400.09	1235.80
400.28	1359.85
400.47	1327.08
400.67	1287.29
400.86	1336.45
401.05	1348.15
401.24	1423.05
401.44	1441.77
401.63	1521.35
401.82	1324.74
402.01	1458.15
402.21	1413.68
402.40	1446.45
402.59	1476.88
402.78	1427.73
402.97	1434.75
403.17	1486.24
403.36	1554.12
403.55	1432.41
403.74	1549.43
403.93	1493.26
404.13	1540.07
404.32	1530.71
404.51	1486.24
404.70	1673.48
404.89	1502.62
405.09	1654.76
405.28	1668.80
405.47	1680.50
405.66	1589.22
405.85	1638.38
406.05	1661.78
406.24	1668.80
406.43	1750.72
406.62	1734.34
406.81	1785.83
407.00	1769.44
407.20	1748.38
407.39	1736.68
407.58	1771.79
407.77	1729.66
407.96	1851.36
408.15	1947.33
408.34	1823.28
408.54	1923.92
408.73	1933.28
408.92	1982.43
409.11	1956.69
409.30	1975.41
409.49	1893.49
409.68	1923.92
409.87	1977.75
410.07	2024.56
410.26	2008.18
410.45	2029.24
410.64	2094.78
410.83	2094.78
411.02	2157.97
411.21	2197.76
411.40	2246.91
411.59	2183.72
411.78	2118.18
411.98	2106.48
412.17	2258.62
412.36	2275.00
412.55	2193.08
412.74	2396.71
412.93	2326.49
413.12	2317.13
413.31	2338.20
413.50	2436.50
413.69	2298.41
413.88	2539.48
414.07	2427.14
414.26	2354.58
414.45	2523.10
414.64	2530.12
414.83	2548.84
415.02	2588.63
415.22	2712.68
415.41	2633.10
415.60	2649.49
415.79	2757.15
415.98	2651.83
416.17	2794.60
416.36	2712.68
416.55	2832.05
416.74	2787.58
416.93	2712.68
417.12	2836.73
417.31	2731.41
417.50	2825.03
417.69	2909.29
417.88	2904.60
418.07	2853.11
418.26	3021.63
418.45	3005.25
418.64	3143.34
418.83	2956.10
419.02	2946.73
419.21	2974.82
419.39	3059.08
419.58	3016.95
419.77	3080.14
419.96	3094.19
420.15	3049.72
420.34	3159.72
420.53	3012.27
420.72	3187.81
420.91	3279.09
421.10	3166.74
421.29	3288.45
421.48	3164.40
421.67	3215.90
421.86	3229.94
422.05	3335.26
422.24	3304.84
422.43	3332.92
422.61	3389.10
422.80	3386.76
422.99	3356.33
423.18	3370.37
423.37	3442.93
423.56	3353.99
423.75	3365.69
423.94	3361.01
424.13	3096.53
424.32	3309.52
424.50	3302.50
424.69	3382.07
424.88	3520.17
425.07	3302.50
425.26	3283.77
425.45	3314.20
425.64	3344.63
425.83	3300.16
426.01	3536.55
426.20	3419.52
426.39	3377.39
426.58	3351.65
426.77	3389.10
426.96	3555.27
427.15	3637.19
427.33	3456.97
427.52	3515.48
427.71	3599.74
427.90	3562.30
428.09	3583.36
428.28	3522.51
428.46	3517.83
428.65	3630.17
428.84	3742.52
429.03	3845.50
429.22	3550.59
429.40	3588.04
429.59	3777.62
429.78	3571.66
429.97	3651.24
430.16	3705.07
430.34	3740.18
430.53	3761.24
430.72	3620.81
430.91	3789.33
431.10	3791.67
431.28	3911.04
431.47	3943.80
431.66	3990.61
431.85	4063.17
432.03	4025.72
432.22	4032.74
432.41	4021.04
432.60	4112.32
432.79	3939.12
432.97	4084.23
433.16	4053.81
433.35	4053.81
433.54	4060.83
433.72	4105.30
433.91	4117.00
434.10	4093.60
434.28	4117.00
434.47	4074.87
434.66	4227.01
434.85	4255.09
435.03	4161.47
435.22	4187.22
435.41	4339.35
435.59	4329.99
435.78	4456.38
435.97	4468.08
436.16	4430.63
436.34	4386.16
436.53	4301.90
436.72	4538.30
436.90	4369.78
437.09	4550.00
437.28	4524.26
437.46	4500.85
437.65	4470.42
437.84	4458.72
438.02	4451.70
438.21	4578.09
438.40	4491.49
438.58	4823.84
438.77	4798.10
438.96	4702.14
439.14	4704.48
439.33	4812.14
439.52	4823.84
439.70	4898.74
439.89	4959.60
440.08	4791.08
440.26	4938.53
440.45	4877.68
440.63	5020.45
440.82	5062.58
441.01	5130.45
441.19	5270.89
441.38	5114.07
441.57	5254.50
441.75	5277.91
441.94	5453.45
442.12	5296.63
442.31	5437.06
442.50	5343.44
442.68	5408.98
442.87	5446.43
443.05	5427.70
443.24	5575.16
443.43	5448.77
443.61	5577.50
443.80	5654.73
443.98	5530.69
444.17	5455.79
444.35	5523.66
444.54	5722.61
444.73	5547.07
444.91	5692.18
445.10	5481.53
445.28	5338.76
445.47	5547.07
445.65	5420.68
445.84	5610.26
446.02	5563.45
446.21	5528.35
446.39	5504.94
446.58	5628.99
446.77	5722.61
446.95	5526.00
447.14	5708.57
447.32	5661.76
447.51	5696.86
447.69	5776.44
447.88	5621.97
448.06	5703.89
448.25	5741.33
448.43	5610.26
448.62	5631.33
448.80	5743.67
448.99	5680.48
449.17	6008.16
449.36	5715.59
449.54	5895.81
449.73	5970.71
449.91	6052.63
450.10	6139.23
450.28	6104.12
450.46	5984.75
450.65	6221.14
450.83	6099.44
451.02	5973.05
451.20	6228.17
451.39	6083.05
451.57	6008.16
451.76	6204.76
451.94	6193.06
452.13	6324.13
452.31	6277.32
452.49	6090.07
452.68	6134.54
452.86	6113.48
453.05	6319.45
453.23	6256.25
453.42	6256.25
453.60	6036.24
453.78	6384.98
453.97	6382.64
454.15	6307.74
454.34	6389.66
454.52	6480.94
454.70	6270.30
454.89	6399.02
455.07	6384.98
455.26	6712.66
455.44	6640.10
455.62	6764.15
455.81	6693.93
455.99	6607.33
456.17	6572.22
456.36	6715.00
456.54	6822.66
456.73	6747.76
456.91	6951.39
457.09	7030.97
457.28	6836.70
457.46	6832.02
457.64	7002.88
457.83	6949.05
458.01	7052.03
458.19	7063.74
458.38	7026.29
458.56	7185.44
458.74	7265.02
458.93	7002.88
459.11	7084.80
459.29	7176.08
459.48	7185.44
459.66	7082.46
459.84	7332.90
460.03	7293.11
460.21	7403.11
460.39	7300.13
460.57	7332.90
460.76	7428.86
460.94	7360.98
461.12	7311.83
461.31	7431.20
461.49	7470.99
461.67	7513.12
461.85	7707.38
462.04	7496.74
462.22	7950.80
462.40	7623.12
462.59	7655.89
462.77	7637.17
462.95	7667.60
463.13	7737.81
463.32	7698.02
463.50	7988.25
463.68	7892.29
463.86	7819.73
464.05	7620.78
464.23	7838.45
464.41	7770.58
464.59	7602.06
464.78	7878.24
464.96	7822.07
465.14	7761.22
465.32	8035.06
465.50	8030.38
465.69	7962.50
465.87	7868.88
466.05	8084.21
466.23	7974.21
466.41	8044.42
466.60	8236.35
466.78	7943.78
466.96	7985.91
467.14	7999.95
467.32	8175.49
467.51	8156.77
467.69	8011.65
467.87	8189.53
468.05	8189.53
468.23	8161.45
468.41	8212.94
468.60	8446.99
468.78	8198.90
468.96	8400.18
469.14	8446.99
469.32	8636.58
469.50	8276.13
469.69	8512.53
469.87	8428.27
470.05	8449.33
470.23	8765.31
470.41	8456.36
470.59	8791.05
470.77	8475.08
470.95	8599.13
471.14	8732.54
471.32	8727.86
471.50	8870.63
471.68	8788.71
471.86	9069.58
472.04	8975.95
472.22	9308.31
472.40	8980.64
472.58	9109.36
472.77	8978.30
472.95	9240.44
473.13	9441.72
473.31	9259.16
473.49	9270.86
473.67	9362.14
473.85	9301.29
474.03	9757.69
474.21	9444.06
474.39	9558.75
474.57	9451.08
474.75	9647.69
474.93	9694.50
475.12	9720.24
475.30	9804.50
475.48	9827.91
475.66	9774.08
475.84	9724.93
476.02	9790.46
476.20	10029.20
476.38	10003.45
476.56	10321.76
476.74	10380.28
476.92	10298.36
477.10	10253.89
477.28	10534.75
477.46	10476.24
477.64	10623.69
477.82	10724.33
478.00	10967.75
478.18	10738.38
478.36	11007.54
478.54	11253.30
478.72	11131.59
478.90	11091.80
479.08	11424.15
479.26	11508.41
479.44	11405.43
479.62	11424.15
479.80	11573.95
479.98	11894.60
480.16	12006.95
480.34	11939.07
480.52	12088.87
480.70	11969.50
480.88	11772.89
481.06	12037.38
481.24	12123.98
481.41	12119.29
481.59	12437.61
481.77	12521.87
481.95	12549.95
482.13	12760.60
482.31	12500.80
482.49	12788.69
482.67	12856.56
482.85	12943.16
483.03	13296.58
483.21	13392.55
483.39	13631.28
483.57	13664.05
483.74	13359.78
483.92	13694.47
484.10	13673.41
484.28	13748.31
484.46	14118.11
484.64	14317.06
484.82	14122.79
485.00	14370.89
485.18	14436.42
485.35	14567.49
485.53	14452.81
485.71	14855.38
485.89	14930.28
486.07	14780.48
486.25	14785.16
486.43	15225.18
486.61	15318.81
486.78	15438.17
486.96	15019.22
487.14	15555.20
487.32	15852.45
487.50	15796.28
487.68	15840.75
487.85	16332.26
488.03	16336.94
488.21	16435.24
488.39	16659.93
488.57	16556.95
488.75	16585.04
488.92	17013.35
489.10	17181.87
489.28	17027.40
489.46	17305.92
489.64	17242.73
489.81	17731.90
489.99	17907.44
490.17	17701.47
490.35	17855.95
490.53	17982.34
490.70	18553.43
490.88	17865.31
491.06	18490.23
491.24	18347.46
491.41	18611.94
491.59	18370.86
491.77	18441.08
491.95	18733.65
492.13	19028.56
492.30	19075.37
492.48	19133.88
492.66	19213.46
492.84	19449.85
493.01	19658.16
493.19	19250.91
493.37	19967.11
493.54	19740.08
493.72	20100.52
493.90	20390.75
494.08	20493.73
494.25	20900.98
494.43	20540.54
494.61	20748.85
494.79	20889.28
494.96	20617.78
495.14	20865.88
495.32	20840.13
495.49	21333.98
495.67	21259.09
495.85	21436.97
496.02	21289.51
496.20	21523.57
496.38	21759.96
496.55	21635.91
496.73	22314.67
496.91	21685.06
497.09	22125.08
497.26	22408.29
497.44	22005.72
497.62	22415.31
497.79	22572.13
497.97	22754.69
498.14	22754.69
498.32	22799.16
498.50	22742.99
498.67	23187.69
498.85	23197.05
499.03	23487.28
499.20	23358.55
499.38	23679.20
499.56	23491.96
499.73	23353.87
499.91	23751.76
500.08	24137.94
500.26	23838.36
500.44	23819.63
500.61	23672.18
500.79	23878.15
500.97	24041.98
501.14	24702.01
501.32	24456.26
501.49	24063.05
501.67	24287.74
501.84	24416.47
502.02	24510.09
502.20	24783.93
502.37	25125.65
502.55	24767.55
502.72	24926.71
502.90	25113.95
503.07	24900.96
503.25	24884.58
503.43	25170.12
503.60	25427.58
503.78	25282.47
503.95	25544.61
504.13	25546.95
504.30	25722.49
504.48	25713.13
504.65	25837.17
504.83	25963.56
505.01	25979.95
505.18	26132.08
505.36	26345.07
505.53	26127.40
505.71	26232.72
505.88	26602.53
506.06	26043.14
506.23	26066.55
506.41	26588.49
506.58	26670.40
506.76	26911.48
506.93	27227.45
507.11	26775.73
507.28	27262.56
507.46	26925.52
507.63	27185.32
507.81	27058.93
507.98	27288.31
508.16	27435.76
508.33	27541.08
508.50	27658.11
508.68	27742.37
508.85	27782.16
509.03	27833.65
509.20	28252.61
509.38	28053.66
509.55	28285.37
509.73	27908.55
509.90	28142.60
510.08	28582.62
510.25	28198.77
510.42	28149.62
510.60	28566.24
510.77	28795.61
510.95	29043.71
511.12	28711.35
511.30	28926.68
511.47	28900.94
511.64	29230.95
511.82	28980.51
511.99	28966.47
512.17	29289.46
512.34	29237.97
512.51	29497.77
512.69	29923.75
512.86	29432.24
513.04	29708.42
513.21	29710.76
513.38	29816.08
513.56	29888.64
513.73	29556.28
513.90	30024.39
514.08	29598.41
514.25	30183.55
514.43	30433.99
514.60	29951.84
514.77	30534.63
514.95	30305.26
515.12	30396.54
515.29	30586.12
515.47	30817.83
515.64	30555.69
515.81	30792.09
515.99	30649.32
516.16	30817.83
516.33	30953.58
516.51	31124.44
516.68	30728.89
516.85	30672.72
517.03	31246.15
517.20	31447.44
517.37	31335.09
517.54	31398.29
517.72	31257.85
517.89	31407.65
518.06	31260.20
518.24	31321.05
518.41	31063.59
518.58	31075.29
518.75	31613.62
518.93	31988.10
519.10	31676.81
519.27	31941.29
519.45	32058.32
519.62	32266.63
519.79	32624.73
519.96	32505.36
520.14	32283.01
520.31	32451.53
520.48	32212.79
520.65	32201.09
520.83	32760.48
521.00	32528.77
521.17	32835.38
521.34	32559.19
521.52	33001.55
521.69	32889.21
521.86	33212.20
522.03	33298.80
522.20	33198.16
522.38	32973.47
522.55	33525.83
522.72	33560.94
522.89	33483.70
523.07	33305.82
523.24	33436.89
523.41	33633.50
523.58	33439.23
523.75	33797.34
523.92	33738.82
524.10	33890.96
524.27	34227.99
524.44	33841.81
524.61	34246.72
524.78	34366.09
524.96	34377.79
525.13	34562.69
525.30	34707.80
525.47	34342.68
525.64	34263.10
525.81	34424.60
525.98	34618.86
526.16	34419.92
526.33	34679.72
526.50	34859.94
526.67	34478.43
526.84	34824.83
527.01	34808.45
527.18	34740.57
527.36	34871.64
527.53	34885.68
527.70	35456.78
527.87	35033.14
528.04	34497.16
528.21	35257.83
528.38	35358.47
528.55	35414.65
528.72	35761.05
528.89	35761.05
529.07	35538.69
529.24	35428.69
529.41	35517.63
529.58	35597.21
529.75	35875.73
529.92	35992.76
530.09	35763.39
530.26	35971.69
530.43	35908.50
530.60	35812.54
530.77	35913.18
530.94	36545.12
531.11	35978.72
531.28	35885.09
531.46	35859.35
531.63	36503.00
531.80	36006.80
531.97	36383.63
532.14	36566.19
532.31	36245.54
532.48	36804.92
532.65	36486.61
532.82	36407.03
532.99	36783.86
533.16	36491.29
533.33	36821.31
533.50	36877.48
533.67	36912.59
533.84	36928.97
534.01	37046.00
534.18	36804.92
534.35	37486.02
534.52	36910.25
534.69	37329.20
534.86	37504.74
535.03	37139.62
535.20	37434.53
535.37	37710.71
535.54	37708.37
535.71	37467.30
535.88	37542.19
536.05	37579.64
536.22	37984.55
536.38	37647.52
536.55	37668.58
536.72	37649.86
536.89	37546.87
537.06	37111.53
537.23	38124.99
537.40	37851.14
537.57	37649.86
537.74	38127.33
537.91	38026.68
538.08	38017.32
538.25	37886.25
538.42	37844.12
538.59	38719.48
538.75	37907.32
538.92	38382.45
539.09	38132.01
539.26	38375.42
539.43	38160.09
539.60	38064.13
539.77	38824.81
539.94	38909.07
540.11	38457.34
540.28	38476.07
540.44	38574.37
540.61	38796.72
540.78	38658.63
540.95	38565.01
541.12	38525.22
541.29	38515.86
541.46	38347.34
541.62	39208.65
541.79	39157.16
541.96	38763.95
542.13	38567.35
542.30	39159.50
542.47	39030.77
542.63	38806.08
542.80	39124.40
542.97	39604.20
543.14	39728.25
543.31	39536.33
543.48	39566.76
543.64	39622.93
543.81	40105.08
543.98	39941.24
544.15	39281.21
544.32	40091.04
544.48	40055.93
544.65	39782.09
544.82	39838.26
544.99	39569.10
545.16	40135.51
545.32	39999.76
545.49	40187.00
545.66	40224.45
545.83	39885.07
546.00	40051.25
546.16	39978.69
546.33	39805.49
546.50	39934.22
546.67	40395.31
546.83	39709.53
547.00	40095.72
547.17	40465.52
547.34	40308.71
547.50	40582.55
547.67	40765.11
547.84	40367.22
548.00	40928.95
548.17	40680.85
548.34	40793.20
548.51	40950.01
548.67	40992.14
548.84	41106.83
549.01	41188.75
549.18	40423.39
549.34	41015.55
549.51	41067.04
549.68	41083.42
549.84	40950.01
550.01	41048.32
550.18	41158.32
550.34	41322.16
550.51	40830.65
550.68	40765.11
550.84	40914.90
551.01	41113.85
551.18	41118.53
551.34	41233.22
551.51	41191.09
551.68	41139.60
551.84	41701.32
552.01	40950.01
552.18	41174.70
552.34	41186.41
552.51	41603.02
552.68	40863.41
552.84	41642.81
553.01	41708.35
553.18	41745.80
553.34	41544.51
553.51	41167.68
553.67	41422.80
553.84	41525.78
554.01	41794.95
554.17	41764.52
554.34	42115.60
554.51	41834.74
554.67	41537.49
554.84	42066.45
555.00	41977.51
555.17	42019.64
555.33	42103.90
555.50	41647.49
555.67	41675.58
555.83	41872.18
556.00	42244.33
556.16	43065.86
556.33	42270.08
556.50	42405.83
556.66	42202.20
556.83	42227.95
556.99	42394.12
557.16	42124.96
557.32	42337.95
557.49	42366.04
557.65	42117.94
557.82	41972.83
557.98	42389.44
558.15	42288.80
558.32	42742.86
558.48	42602.43
558.65	42834.14
558.81	42639.88
558.98	42574.34
559.14	42670.31
559.31	42436.25
559.47	42752.23
559.64	42543.92
559.80	42951.17
559.97	43136.07
560.13	42366.04
560.30	42946.49
560.46	42855.21
560.63	42649.24
560.79	42691.37
560.96	43210.97
561.12	42677.33
561.29	43236.72
561.45	42794.36
561.61	42813.08
561.78	42501.79
561.94	42794.36
562.11	42646.90
562.27	42747.54
562.44	43194.59
562.60	42920.74
562.77	43302.25
562.93	42869.25
563.10	42960.53
563.26	42801.38
563.42	42773.29
563.59	42951.17
563.75	43070.54
563.92	43264.80
564.08	43033.09
564.24	43016.71
564.41	43110.33
564.57	43344.38
564.74	43278.85
564.90	42916.06
565.07	43496.52
565.23	42555.62
565.39	43000.32
565.56	43281.19
565.72	43009.68
565.88	43386.51
566.05	43412.26
566.21	43161.82
566.38	42913.72
566.54	43063.52
566.70	43545.67
566.87	43580.78
567.03	43496.52
567.19	43723.55
567.36	43672.06
567.52	43779.72
567.68	43571.41
567.85	43232.04
568.01	43639.29
568.17	42808.40
568.34	43260.12
568.50	43847.60
568.66	43435.66
568.83	43779.72
568.99	43236.72
569.15	43407.58
569.32	43606.52
569.48	43168.84
569.64	43711.84
569.81	43679.08
569.97	43208.63
570.13	43473.11
570.30	43468.43
570.46	43192.25
570.62	43201.61
570.78	43325.66
570.95	43445.02
571.11	44083.99
571.27	43665.03
571.43	43229.69
571.60	43449.70
571.76	43817.17
571.92	43379.49
572.09	43477.79
572.25	43402.89
572.41	43632.27
572.57	43704.82
572.74	43887.39
572.90	43667.37
573.06	43969.30
573.22	43873.34
573.38	43583.12
573.55	43379.49
573.71	43765.68
573.87	43648.65
574.03	43669.72
574.20	43571.41
574.36	44191.65
574.52	43775.04
574.68	43819.51
574.84	44151.87
575.01	43646.31
575.17	43356.08
575.33	43454.39
575.49	43648.65
575.65	44086.33
575.82	44411.67
575.98	43866.32
576.14	44729.98
576.30	43896.75
576.46	43456.73
576.62	43653.33
576.79	43505.88
576.95	43667.37
577.11	43566.73
577.27	43887.39
577.43	43037.77
577.59	44009.09
577.75	43580.78
577.92	43533.96
578.08	43632.27
578.24	43894.41
578.40	43990.37
578.56	43875.68
578.72	43966.96
578.88	44261.87
579.04	43948.24
579.21	43798.44
579.37	43613.54
579.53	43835.89
579.69	43627.59
579.85	43695.46
580.01	44418.69
580.17	43817.17
580.33	44568.48
580.49	43849.94
580.65	44177.61
580.82	43679.08
580.98	43791.42
581.14	43400.55
581.30	44201.02
581.46	44034.84
581.62	44334.43
581.78	44041.86
581.94	44596.57
582.10	43957.60
582.26	43796.10
582.42	43889.73
582.58	43744.61
582.74	43681.42
582.90	43814.83
583.06	43772.70
583.22	44451.45
583.38	44538.05
583.54	44240.81
583.70	43957.60
583.86	43777.38
584.02	44027.82
584.18	44126.12
584.34	44313.36
584.50	44240.81
584.66	44201.02
584.82	43580.78
584.98	44147.18
585.14	44046.54
585.30	43496.52
585.46	43562.05
585.62	43613.54
585.78	43629.93
585.94	43835.89
586.10	43978.67
586.26	43796.10
586.42	43672.06
586.58	44069.95
586.74	44371.88
586.90	43859.30
587.06	43765.68
587.22	44334.43
587.38	43777.38
587.54	44500.61
587.70	44414.01
587.86	44191.65
588.02	43978.67
588.18	44437.41
588.34	43842.92
588.49	43838.23
588.65	43775.04
588.81	43908.45
588.97	44091.01
589.13	43756.32
589.29	44102.71
589.45	44170.59
589.61	44226.76
589.77	44608.27
589.93	44208.04
590.08	44519.33
590.24	44027.82
590.40	44182.29
590.56	44500.61
590.72	44556.78
590.88	43803.13
591.04	44140.16
591.20	44610.61
591.35	44531.03
591.51	44772.11
591.67	44540.39
591.83	44275.91
591.99	43805.47
592.15	44652.74
592.31	44093.35
592.46	43810.15
592.62	44346.13
592.78	44687.85
592.94	44849.35
593.10	44509.97
593.26	44844.66
593.41	44371.88
593.57	44397.62
593.73	44512.31
593.89	44168.25
594.05	44224.42
594.20	44163.57
594.36	44821.26
594.52	44446.77
594.68	43831.21
594.84	44505.29
594.99	44741.68
595.15	44701.89
595.31	44722.96
595.47	44741.68
595.62	44676.15
595.78	43988.03
595.94	44493.58
596.10	44308.68
596.25	44465.50
596.41	44505.29
596.57	43882.70
596.73	44589.55
596.88	44023.14
597.04	44388.26
597.20	44271.23
597.36	44549.76
597.51	44673.81
597.67	44828.28
597.83	44587.21
597.99	45041.27
598.14	44425.71
598.30	44247.83
598.46	44584.86
598.61	44547.42
598.77	44020.80
598.93	44526.35
599.09	44404.64
599.24	45013.18
599.40	44938.29
599.56	45111.49
599.71	44914.88
599.87	44685.51
600.03	44285.28
600.18	44837.64
600.34	44598.91
600.50	44509.97
600.65	44772.11
600.81	44261.87
600.97	44959.35
601.12	45090.42
601.28	45139.57
601.44	44612.95
601.59	44350.81
601.75	44495.92
601.91	44650.40
602.06	44500.61
602.22	44821.26
602.37	44353.15
602.53	44835.30
602.69	44725.30
602.84	44615.29
603.00	44397.62
603.16	44133.14
603.31	44296.98
603.47	44619.97
603.62	44442.09
603.78	44802.53
603.94	44458.48
604.09	44713.59
604.25	44472.52
604.40	44383.58
604.56	44814.24
604.71	44598.91
604.87	44755.72
605.03	44788.49
605.18	44165.91
605.34	44435.07
605.49	43948.24
605.65	44254.85
605.80	44591.89
605.96	44720.62
606.12	44390.60
606.27	44729.98
606.43	44357.83
606.58	44701.89
606.74	44385.92
606.89	44189.31
607.05	44254.85
607.20	44533.37
607.36	44772.11
607.51	44463.16
607.67	44257.19
607.82	44498.26
607.98	44414.01
608.13	44842.32
608.29	44065.27
608.44	43711.84
608.60	43662.69
608.75	44203.36
608.91	43817.17
609.06	44215.06
609.22	44421.03
609.37	44205.70
609.53	44273.57
609.68	44257.19
609.84	44402.30
609.99	44353.15
610.15	43756.32
610.30	44083.99
610.46	43863.98
610.61	43658.01
610.76	43941.22
610.92	43782.06
611.07	44020.80
611.23	43868.66
611.38	44275.91
611.54	43753.97
611.69	43533.96
611.84	44016.11
612.00	43608.86
612.15	43756.32
612.31	43552.69
612.46	43718.87
612.62	44318.04
612.77	43854.62
612.92	43559.71
613.08	43655.67
613.23	43690.78
613.39	43784.40
613.54	43372.47
613.69	44231.44
613.85	44079.31
614.00	43772.70
614.15	44191.65
614.31	43690.78
614.46	44247.83
614.62	43447.36
614.77	43597.16
614.92	43643.97
615.08	43625.25
615.23	43243.74
615.38	43430.98
615.54	43248.42
615.69	43508.22
615.84	43178.20
616.00	43814.83
616.15	43838.23
616.30	43571.41
616.46	43283.53
616.61	42958.19
616.76	43526.94
616.92	43353.74
617.07	43283.53
617.22	43093.94
617.37	43365.45
617.53	43438.00
617.68	43171.18
617.83	43082.24
617.99	43313.95
618.14	43445.02
618.29	42724.14
618.45	43187.56
618.60	42960.53
618.75	42820.10
618.90	43093.94
619.06	43051.81
619.21	43105.65
619.36	43051.81
619.51	42820.10
619.67	42969.90
619.82	42892.66
619.97	43016.71
620.12	42792.01
620.28	42373.06
620.43	42553.28
620.58	42864.57
620.73	42941.81
620.89	42820.10
621.04	42974.58
621.19	42586.05
621.34	42838.83
621.49	42717.12
621.65	42483.06
621.80	42457.32
621.95	42487.74
622.10	42501.79
622.25	42763.93
622.41	42473.70
622.56	42321.57
622.71	42124.96
622.86	42658.60
623.01	42347.31
623.16	42611.79
623.32	42492.43
623.47	42611.79
623.62	42473.70
623.77	41989.21
623.92	42532.22
624.07	42101.56
624.23	41907.29
624.38	41778.56
624.53	41675.58
624.68	42050.06
624.83	42073.47
624.98	41776.22
625.13	41904.95
625.29	42368.38
625.44	42302.84
625.59	42127.30
625.74	41530.47
625.89	41797.29
626.04	41628.77
626.19	41804.31
626.34	41680.26
626.49	41874.52
626.65	41581.96
626.80	41888.57
626.95	41778.56
627.10	41610.04
627.25	41663.88
627.40	41865.16
627.55	41794.95
627.70	41392.37
627.85	41422.80
628.00	41872.18
628.15	41366.63
628.30	41207.47
628.45	41813.67
628.60	41429.82
628.76	41518.76
628.91	41581.96
629.06	41727.07
629.21	41303.43
629.36	41092.79
629.51	41350.24
629.66	40772.13
629.81	40924.27
629.96	41371.31
630.11	41481.31
630.26	41181.73
630.41	41268.33
630.56	41113.85
630.71	41188.75
630.86	41024.91
631.01	41010.87
631.16	41060.02
631.31	40877.46
631.46	40484.25
631.61	40842.35
631.76	41202.79
631.91	40610.64
632.06	41034.27
632.21	40959.38
632.36	40924.27
632.51	40568.51
632.66	40701.92
632.81	40247.85
632.96	40781.49
633.10	40739.36
633.25	40840.01
633.40	40973.42
633.55	40821.28
633.70	40596.59
633.85	40048.91
634.00	40854.05
634.15	40301.68
634.30	39938.90
634.45	40198.70
634.60	40397.65
634.75	40308.71
634.90	40238.49
635.05	40755.75
635.19	40172.96
635.34	40589.57
635.49	40622.34
635.64	40275.94
635.79	39639.31
635.94	40013.80
636.09	40037.20
636.24	40247.85
636.39	39814.85
636.53	39714.21
636.68	39796.13
636.83	39856.98
636.98	39901.45
637.13	39913.16
637.28	39948.26
637.43	39959.97
637.57	40161.25
637.72	40011.46
637.87	40032.52
638.02	40240.83
638.17	39899.11
638.32	39086.95
638.46	39051.84
638.61	39587.82
638.76	39232.06
638.91	39491.86
639.06	39459.09
639.20	39693.15
639.35	40102.74
639.50	39653.36
639.65	39618.25
639.80	39367.81
639.94	39433.35
640.09	39112.69
640.24	39501.22
640.39	38965.24
640.54	39023.75
640.68	38981.62
640.83	39398.24
640.98	39192.27
641.13	39175.89
641.27	39459.09
641.42	39374.83
641.57	39222.70
641.72	39433.35
641.86	39281.21
642.01	39047.16
642.16	39110.35
642.31	38836.51
642.45	38876.30
642.60	38403.51
642.75	39180.57
642.90	38918.43
643.04	39009.71
643.19	39182.91
643.34	39143.12
643.48	38787.36
643.63	39009.71
643.78	38981.62
643.93	38349.68
644.07	38796.72
644.22	38672.67
644.37	38625.86
644.51	38696.08
644.66	38410.53
644.81	38747.57
644.95	38490.11
645.10	38630.54
645.25	39058.86
645.39	39206.31
645.54	39028.43
645.69	38595.43
645.83	38347.34
645.98	38565.01
646.13	38646.93
646.27	38670.33
646.42	38635.22
646.57	38153.07
646.71	38714.80
646.86	38349.68
647.00	38548.62
647.15	38836.51
647.30	38356.70
647.44	38653.95
647.59	38476.07
647.74	38022.00
647.88	37881.57
648.03	38014.98
648.17	37972.85
648.32	37907.32
648.47	37935.40
648.61	38150.73
648.76	38359.04
648.90	38321.59
649.05	37919.02
649.20	38150.73
649.34	38520.54
649.49	37839.44
649.63	37832.42
649.78	37397.08
649.92	38085.20
650.07	38101.58
650.21	37881.57
650.36	37376.01
650.51	37834.76
650.65	38080.52
650.80	38117.96
650.94	38014.98
651.09	38022.00
651.23	37479.00
651.38	37834.76
651.52	37743.48
651.67	37717.73
651.81	37502.40
651.96	38061.79
652.10	37521.13
652.25	37312.82
652.39	37074.09
652.54	37464.96
652.68	37666.24
652.83	37263.67
652.97	37525.81
653.12	37254.31
653.26	37144.30
653.41	36968.76
653.55	37139.62
653.70	37359.63
653.84	36964.08
653.99	37111.53
654.13	37603.05
654.27	37095.15
654.42	37214.52
654.56	37017.91
654.71	36996.85
654.85	37202.82
655.00	37057.70
655.14	36842.37
655.29	36594.28
655.43	36959.40
655.57	36570.87
655.72	36924.29
655.86	36818.97
656.01	36500.65
656.15	36877.48
656.30	37001.53
656.44	36676.19
656.58	36266.60
656.73	36596.62
656.87	36603.64
657.01	36524.06
657.16	36362.56
657.30	36467.89
657.45	36161.28
657.59	36367.24
657.73	36280.64
657.88	36552.15
658.02	36215.11
658.16	36748.75
658.31	36528.74
658.45	36524.06
658.60	36348.52
658.74	36407.03
658.88	36261.92
659.03	36297.03
659.17	35981.06
659.31	35676.79
659.46	36053.61
659.60	35957.65
659.74	35709.55
659.89	35810.20
660.03	35777.43
660.17	35796.15
660.32	35941.27
660.46	36079.36
660.60	35833.60
660.74	35470.82
660.89	35756.36
661.03	35622.95
661.17	35611.25
661.32	34983.99
661.46	34969.94
661.60	35061.22
661.74	35646.36
661.89	35344.43
662.03	35374.86
662.17	35002.71
662.31	35047.18
662.46	35496.56
662.60	35330.39
662.74	35555.08
662.88	34944.20
663.03	35093.99
663.17	35173.57
663.31	35428.69
663.45	34881.00
663.60	34672.70
663.74	34307.57
663.88	35044.84
664.02	34232.68
664.17	34616.52
664.31	34396.51
664.45	34724.19
664.59	34532.26
664.73	34663.33
664.88	34534.60
665.02	34328.64
665.16	34153.10
665.30	34464.39
665.44	34120.33
665.59	33816.06
665.73	34192.89
665.87	33544.56
666.01	33804.36
666.15	34185.86
666.29	33764.57
666.44	34267.78
666.58	33956.49
666.72	33523.49
666.86	34087.56
667.00	33986.92
667.14	33549.24
667.28	33598.39
667.43	33544.56
667.57	33811.38
667.71	33504.77
667.85	32889.21
667.99	33024.96
668.13	33401.79
668.27	32943.04
668.41	33219.22
668.56	33118.58
668.70	33429.87
668.84	32620.05
668.98	32961.76
669.12	32802.61
669.26	32809.63
669.40	32659.84
669.54	32776.86
669.68	32664.52
669.82	32334.50
669.96	32678.56
670.10	32364.93
670.25	32755.80
670.39	32582.60
670.53	32009.17
670.67	32304.07
670.81	32023.21
670.95	32517.06
671.09	31936.61
671.23	32107.47
671.37	32591.96
671.51	32182.37
671.65	31854.69
671.79	32041.93
671.93	31765.75
672.07	31725.96
672.21	32151.94
672.35	31630.00
672.49	31180.62
672.63	31887.46
672.77	31267.22
672.91	31346.79
673.05	31204.02
673.19	31208.70
673.33	30820.17
673.47	31054.23
673.61	31445.10
673.75	30918.48
673.89	30820.17
674.03	30904.43
674.17	30785.07
674.31	31044.87
674.45	30433.99
674.59	31063.59
674.73	30951.24
674.87	30576.76
675.01	30628.25
675.15	30569.74
675.29	30691.44
675.43	30429.30
675.56	30286.53
675.70	29869.92
675.84	29937.79
675.98	29219.25
676.12	30008.01
676.26	29659.27
676.40	29259.04
676.54	29406.49
676.68	29448.62
676.82	28931.36
676.96	29102.22
677.10	28989.88
677.23	29088.18
677.37	29207.55
677.51	29305.85
677.65	28725.39
677.79	28723.05
677.93	28386.02
678.07	29090.52
678.21	29008.60
678.34	28446.87
678.48	28247.93
678.62	28641.14
678.76	27873.44
678.90	28144.94
679.04	27817.27
679.18	28334.53
679.31	27658.11
679.45	27707.26
679.59	27330.44
679.73	27580.87
679.87	27564.49
680.00	27487.25
680.14	27292.99
680.28	27000.42
680.42	26930.20
680.56	27309.37
680.70	27129.15
680.83	26845.94
680.97	26609.55
681.11	26562.74
681.25	26691.47
681.39	26558.06
681.52	26749.98
681.66	26335.71
681.80	26642.32
681.94	26450.39
682.07	26244.43
682.21	26143.78
682.35	26045.48
682.49	26373.16
682.62	25752.91
682.76	25830.15
682.90	25685.04
683.04	25930.80
683.17	25591.42
683.31	25668.66
683.45	25537.59
683.59	25420.56
683.72	25301.19
683.86	24706.70
684.00	25179.48
684.13	25097.56
684.27	25167.78
684.41	25333.96
684.55	24643.50
684.68	24685.63
684.82	24702.01
684.96	24720.74
685.09	24549.88
685.23	24418.81
685.37	24063.05
685.50	24367.32
685.64	24067.73
685.78	23955.38
685.91	24320.51
686.05	23744.73
686.19	23454.51
686.32	23981.13
686.46	23321.10
686.60	23410.04
686.73	23477.91
686.87	23351.52
687.01	23267.27
687.14	22635.32
687.28	22803.84
687.42	22948.95
687.55	23044.91
687.69	22724.26
687.82	22824.90
687.96	22480.85
688.10	22764.05
688.23	22307.65
688.37	22403.61
688.50	22064.23
688.64	22139.13
688.78	22263.18
688.91	21912.10
689.05	22192.96
689.18	22092.32
689.32	21418.24
689.46	21879.33
689.59	22068.91
689.73	21621.87
689.86	21425.26
690.00	21322.28
690.13	21727.19
690.27	21460.37
690.41	21069.50
690.54	20936.09
690.68	20767.57
690.81	20734.81
690.95	20802.68
691.08	20636.50
691.22	20479.69
691.35	20634.16
691.49	20776.94
691.62	20725.44
691.76	20533.52
691.89	20573.31
692.03	20367.34
692.16	20121.59
692.30	19974.13
692.43	19971.79
692.57	19695.61
692.70	19864.13
692.84	19917.96
692.97	19550.49
693.11	19426.45
693.24	19400.70
693.38	19365.59
693.51	19311.76
693.65	19770.51
693.78	19482.62
693.92	19417.08
694.05	19047.28
694.19	19283.67
694.32	19033.24
694.45	18794.50
694.59	19009.83
694.72	18705.56
694.86	18857.70
694.99	18373.21
695.13	18621.30
695.26	18242.14
695.39	18270.22
695.53	18401.29
695.66	18319.37
695.80	18101.70
695.93	18129.79
696.07	17940.21
696.20	18104.04
696.33	18120.43
696.47	17778.71
696.60	17664.02
696.73	17507.21
696.87	17296.56
697.00	17500.19
697.14	17392.52
697.27	17411.25
697.40	17659.34
697.54	17621.89
697.67	16737.17
697.80	17109.32
697.94	17181.87
698.07	17060.16
698.21	17039.10
698.34	16868.24
698.47	16617.80
698.61	16390.77
698.74	16725.47
698.87	16570.99
699.01	16187.14
699.14	16147.36
699.27	16051.39
699.40	16013.95
699.54	15927.35
699.67	15756.49
699.80	15850.11
699.94	15681.59
700.07	15740.10
700.20	15599.67
700.34	15548.18
700.47	15620.74
700.60	15976.50
700.73	15976.50
700.87	15602.01
701.00	15501.37
701.13	15370.30
701.26	15119.86
701.40	15484.98
701.53	15119.86
701.66	15272.00
701.79	14700.90
701.93	14860.06
702.06	14530.05
702.19	14562.81
702.32	14637.71
702.46	14668.14
702.59	14448.13
702.72	14731.33
702.85	14504.30
702.99	14370.89
703.12	14593.24
703.25	14155.56
703.38	14235.14
703.51	14181.31
703.65	14265.57
703.78	14087.68
703.91	13909.80
704.04	14232.80
704.17	13965.98
704.31	13968.32
704.44	13565.74
704.57	13528.30
704.70	13429.99
704.83	13383.18
704.96	13434.68
705.10	13577.45
705.23	13394.89
>>>>>End Processed Spectral Data<<<<<
