SpectraSuite Data File
++++++++++++++++++++++++++++++++++++
Date: Fri Oct 25 10:48:19 EDT 2013
User: price-jones
Dark Spectrum Present: No
Reference Spectrum Present: No
Number of Sampled Component Spectra: 1
Spectrometers: USB2+H05261
Integration Time (usec): 100000 (USB2+H05261)
Spectra Averaged: 1 (USB2+H05261)
Boxcar Smoothing: 0 (USB2+H05261)
Correct for Electrical Dark: No (USB2+H05261)
Strobe/Lamp Enabled: No (USB2+H05261)
Correct for Detector Non-linearity: No (USB2+H05261)
Correct for Stray Light: No (USB2+H05261)
Number of Pixels in Processed Spectrum: 2048
>>>>>Begin Processed Spectral Data<<<<<
365.73	156.82
365.92	156.82
366.12	156.82
366.32	14.04
366.52	32.77
366.72	128.73
366.91	32.77
367.11	102.98
367.31	0.00
367.51	63.19
367.70	23.41
367.90	95.96
368.10	98.30
368.30	37.45
368.49	35.11
368.69	79.58
368.89	60.85
369.09	51.49
369.28	49.15
369.48	28.09
369.68	74.90
369.87	114.69
370.07	42.13
370.27	135.75
370.47	229.37
370.66	346.40
370.86	531.30
371.06	468.11
371.25	498.53
371.45	533.64
371.65	535.98
371.84	435.34
372.04	550.03
372.24	517.26
372.44	486.83
372.63	531.30
372.83	571.09
373.03	613.22
373.22	535.98
373.42	624.92
373.62	554.71
373.81	622.58
374.01	587.47
374.21	615.56
374.40	535.98
374.60	650.67
374.79	650.67
374.99	599.18
375.19	629.60
375.38	624.92
375.58	657.69
375.78	638.97
375.97	671.73
376.17	585.13
376.37	603.86
376.56	667.05
376.76	603.86
376.95	671.73
377.15	692.80
377.35	645.99
377.54	725.57
377.74	706.84
377.93	664.71
378.13	648.33
378.33	683.44
378.52	683.44
378.72	732.59
378.91	690.46
379.11	725.57
379.31	793.44
379.50	674.07
379.70	676.41
379.89	788.76
380.09	734.93
380.28	746.63
380.48	650.67
380.68	674.07
380.87	777.06
381.07	730.25
381.26	805.14
381.46	744.29
381.65	671.73
381.85	748.97
382.04	664.71
382.24	751.31
382.43	692.80
382.63	734.93
382.83	765.36
383.02	812.17
383.22	880.04
383.41	758.33
383.61	805.14
383.80	833.23
384.00	814.51
384.19	870.68
384.39	770.04
384.58	842.59
384.78	795.78
384.97	919.83
385.17	882.38
385.36	847.27
385.56	896.43
385.75	929.19
385.95	875.36
386.14	851.96
386.34	882.38
386.53	889.40
386.72	980.68
386.92	922.17
387.11	1027.50
387.31	959.62
387.50	901.11
387.70	945.58
387.89	905.79
388.09	968.98
388.28	936.21
388.48	971.32
388.67	959.62
388.86	959.62
389.06	1137.50
389.25	1036.86
389.45	1067.28
389.64	973.66
389.84	1013.45
390.03	1060.26
390.22	1128.14
390.42	1011.11
390.61	976.00
390.81	1100.05
391.00	1060.26
391.19	1137.50
391.39	1081.33
391.58	1146.86
391.78	1172.61
391.97	1135.16
392.16	1132.82
392.36	1172.61
392.55	1088.35
392.75	1041.54
392.94	1083.67
393.13	1060.26
393.33	1062.60
393.52	1132.82
393.71	1153.88
393.91	1064.94
394.10	1198.35
394.29	1226.44
394.49	1268.57
394.68	1226.44
394.88	1303.68
395.07	1266.23
395.26	1315.38
395.46	1320.06
395.65	1277.93
395.84	1324.74
396.04	1268.57
396.23	1371.55
396.42	1242.82
396.62	1203.04
396.81	1273.25
397.00	1303.68
397.19	1275.59
397.39	1437.09
397.58	1526.03
397.77	1444.11
397.97	1556.46
398.16	1523.69
398.35	1432.41
398.55	1493.26
398.74	1568.16
398.93	1624.33
399.12	1680.50
399.32	1584.54
399.51	1593.90
399.70	1699.23
399.90	1607.95
400.09	1713.27
400.28	1776.47
400.47	1692.21
400.67	1767.10
400.86	1762.42
401.05	1701.57
401.24	1846.68
401.44	1790.51
401.63	1771.79
401.82	1778.81
402.01	1795.19
402.21	1825.62
402.40	1771.79
402.59	1706.25
402.78	1806.89
402.97	1895.83
403.17	1944.99
403.36	1980.09
403.55	1877.11
403.74	1963.71
403.93	1991.80
404.13	1994.14
404.32	1980.09
404.51	2015.20
404.70	1921.58
404.89	2036.27
405.09	2045.63
405.28	1961.37
405.47	2157.97
405.66	2052.65
405.85	2031.58
406.05	2176.70
406.24	2136.91
406.43	2141.59
406.62	2321.81
406.81	2249.25
407.00	2097.12
407.20	2122.87
407.39	2174.36
407.58	2256.28
407.77	2244.57
407.96	2275.00
408.15	2324.15
408.34	2361.60
408.54	2354.58
408.73	2452.88
408.92	2417.77
409.11	2314.79
409.30	2410.75
409.49	2438.84
409.68	2314.79
409.87	2459.90
410.07	2480.97
410.26	2483.31
410.45	2492.67
410.64	2530.12
410.83	2574.59
411.02	2647.15
411.21	2691.62
411.40	2764.17
411.59	2768.85
411.78	2738.43
411.98	2801.62
412.17	2656.51
412.36	2750.13
412.55	2757.15
412.74	2883.54
412.93	2841.41
413.12	2895.24
413.31	3002.91
413.50	3012.27
413.69	2984.18
413.88	2942.05
414.07	2960.78
414.26	3087.17
414.45	3192.49
414.64	3110.57
414.83	3169.09
415.02	3087.17
415.22	3141.00
415.41	3208.87
415.60	3337.60
415.79	3269.73
415.98	3559.95
416.17	3356.33
416.36	3440.59
416.55	3424.20
416.74	3478.04
416.93	3332.92
417.12	3447.61
417.31	3438.25
417.50	3583.36
417.69	3606.77
417.88	3566.98
418.07	3522.51
418.26	3655.92
418.45	3662.94
418.64	3695.71
418.83	3688.68
419.02	3735.50
419.21	3815.07
419.39	3679.32
419.58	3782.31
419.77	3861.88
419.96	3817.41
420.15	3815.07
420.34	3960.19
420.53	3999.98
420.72	4070.19
420.91	3941.46
421.10	4112.32
421.29	4049.13
421.48	3941.46
421.67	4004.66
421.86	3995.29
422.05	3854.86
422.24	3789.33
422.43	4002.32
422.61	4053.81
422.80	4056.15
422.99	4170.83
423.18	4170.83
423.37	4065.51
423.56	4156.79
423.75	4131.05
423.94	4173.18
424.13	3953.16
424.32	3969.55
424.50	4086.58
424.69	4241.05
424.88	4276.16
425.07	3983.59
425.26	4131.05
425.45	4114.66
425.64	4131.05
425.83	4145.09
426.01	4124.02
426.20	4166.15
426.39	4105.30
426.58	4124.02
426.77	4016.36
426.96	4227.01
427.15	4187.22
427.33	4191.90
427.52	4287.86
427.71	4241.05
427.90	4444.68
428.09	4285.52
428.28	4451.70
428.46	4194.24
428.65	4428.29
428.84	4528.94
429.03	4468.08
429.22	4299.56
429.40	4264.46
429.59	4264.46
429.78	4194.24
429.97	4124.02
430.16	4056.15
430.34	4266.80
430.53	4290.20
430.72	4367.44
430.91	4484.47
431.10	4557.02
431.28	4767.67
431.47	4915.12
431.66	4919.81
431.85	4580.43
432.03	4638.94
432.22	4873.00
432.41	4725.54
432.60	4990.02
432.79	4748.95
432.97	4964.28
433.16	4805.12
433.35	4994.70
433.54	5004.07
433.72	4718.52
433.91	4774.69
434.10	5013.43
434.28	5090.67
434.47	4992.36
434.66	5118.75
434.85	5174.92
435.03	5111.73
435.22	5114.07
435.41	5479.19
435.59	5284.93
435.78	5212.37
435.97	5472.17
436.16	5408.98
436.34	5528.35
436.53	5331.74
436.72	5462.81
436.90	5275.57
437.09	5369.19
437.28	5315.36
437.46	5404.30
437.65	5336.42
437.84	5188.97
438.02	5256.84
438.21	5296.63
438.40	5294.29
438.58	5579.84
438.77	5624.31
438.96	5673.46
439.14	5736.65
439.33	5750.70
439.52	5867.72
439.70	5893.47
439.89	5933.26
440.08	5987.09
440.26	5973.05
440.45	5881.77
440.63	6164.97
440.82	6326.47
441.01	6164.97
441.19	6312.42
441.38	6478.60
441.57	6373.28
441.75	6492.65
441.94	6415.41
442.12	6579.25
442.31	6665.85
442.50	6693.93
442.68	6399.02
442.87	6473.92
443.05	6558.18
443.24	6754.79
443.43	6602.65
443.61	6649.46
443.80	6764.15
443.98	6836.70
444.17	6663.51
444.35	6740.74
444.54	6925.65
444.73	6803.94
444.91	6850.75
445.10	6885.86
445.28	6661.16
445.47	6579.25
445.65	6710.32
445.84	6705.63
446.02	6916.28
446.21	6616.69
446.39	6897.56
446.58	6974.80
446.77	6979.48
446.95	6722.02
447.14	7059.06
447.32	7042.67
447.51	6932.67
447.69	6958.41
447.88	7066.08
448.06	6916.28
448.25	7045.01
448.43	6991.18
448.62	6956.07
448.80	6867.13
448.99	7014.59
449.17	7281.41
449.36	7070.76
449.54	7281.41
449.73	7424.18
449.91	7330.56
450.10	7527.16
450.28	7541.21
450.46	7459.29
450.65	7604.40
450.83	7492.05
451.02	7379.71
451.20	7435.88
451.39	7557.59
451.57	7623.12
451.76	7391.41
451.94	7419.50
452.13	7466.31
452.31	7660.57
452.49	7229.91
452.68	7480.35
452.86	7393.75
453.05	7550.57
453.23	7688.66
453.42	7648.87
453.60	7749.51
453.78	7840.79
453.97	7648.87
454.15	7754.19
454.34	7747.17
454.52	7833.77
454.70	7850.16
454.89	7775.26
455.07	7894.63
455.26	7950.80
455.44	8028.04
455.62	8013.99
455.81	8149.75
455.99	7955.48
456.17	8042.08
456.36	7992.93
456.54	8217.62
456.73	8339.33
456.91	8552.32
457.09	8446.99
457.28	8486.78
457.46	8390.82
457.64	8454.02
457.83	8458.70
458.01	8505.51
458.19	8667.00
458.38	8601.47
458.56	8596.79
458.74	8678.71
458.93	8512.53
459.11	8709.13
459.29	8758.28
459.48	8706.79
459.66	8751.26
459.84	8669.34
460.03	8760.63
460.21	8699.77
460.39	8608.49
460.57	8667.00
460.76	8798.07
460.94	8896.38
461.12	8879.99
461.31	8884.67
461.49	8940.85
461.67	9149.15
461.85	9305.97
462.04	9284.91
462.22	9645.35
462.40	9226.39
462.59	9043.83
462.77	9121.07
462.95	9415.98
463.13	9139.79
463.32	9509.60
463.50	9427.68
463.68	9476.83
463.86	9507.26
464.05	9331.72
464.23	9282.56
464.41	9385.55
464.59	9151.49
464.78	9584.49
464.96	9441.72
465.14	9355.12
465.32	9600.88
465.50	9722.59
465.69	9556.41
465.87	9444.06
466.05	9743.65
466.23	9373.85
466.41	9579.81
466.60	9755.35
466.78	9671.09
466.96	9717.90
467.14	9783.44
467.32	9689.82
467.51	9757.69
467.69	9692.16
467.87	9776.42
468.05	9989.41
468.23	10104.09
468.41	9928.55
468.60	9848.97
468.78	9767.06
468.96	10090.05
469.14	10148.56
469.32	10291.34
469.50	10036.22
469.69	10043.24
469.87	10274.95
470.05	10228.14
470.23	10289.00
470.41	10207.08
470.59	10342.83
470.77	10221.12
470.95	10265.59
471.14	10499.64
471.32	10331.12
471.50	10630.71
471.68	10684.55
471.86	10817.96
472.04	10679.86
472.22	10904.56
472.40	10588.58
472.58	10881.15
472.77	10808.59
472.95	10904.56
473.13	11080.10
473.31	10862.43
473.49	11026.26
473.67	11030.94
473.85	11286.06
474.03	11508.41
474.21	11358.62
474.39	11559.91
474.57	11576.29
474.75	11536.50
474.93	11613.74
475.12	11487.35
475.30	11716.72
475.48	11915.67
475.66	11522.46
475.84	11616.08
476.02	11857.15
476.20	11651.19
476.38	11915.67
476.56	12341.64
476.74	12231.64
476.92	12386.12
477.10	12189.51
477.28	12582.72
477.46	12444.63
477.64	12610.81
477.82	12741.88
478.00	13036.78
478.18	12744.22
478.36	13043.81
478.54	13114.02
478.72	13184.24
478.90	13476.80
479.08	13635.96
479.26	13703.84
479.44	13923.85
479.62	13926.19
479.80	13818.52
479.98	13792.78
480.16	14068.96
480.34	13989.38
480.52	14286.63
480.70	14391.95
480.88	14305.35
481.06	14539.41
481.24	14366.21
481.41	14909.21
481.59	14974.75
481.77	14986.45
481.95	15136.24
482.13	15056.67
482.31	15197.10
482.49	15492.01
482.67	15365.62
482.85	15730.74
483.03	15714.36
483.21	15976.50
483.39	15861.81
483.57	15920.32
483.74	15784.57
483.92	16285.45
484.10	16236.30
484.28	16503.12
484.46	16606.10
484.64	16987.61
484.82	16699.72
485.00	16697.38
485.18	16936.12
485.35	17041.44
485.53	16823.77
485.71	16861.22
485.89	17092.93
486.07	16908.03
486.25	17137.40
486.43	17598.49
486.61	17694.45
486.78	18073.62
486.96	17961.27
487.14	18389.59
487.32	18302.99
487.50	18728.97
487.68	18766.42
487.85	19110.47
488.03	19365.59
488.21	19311.76
488.39	19054.30
488.57	19435.81
488.75	19665.18
488.92	19932.00
489.10	19969.45
489.28	20063.07
489.46	20437.56
489.64	20369.68
489.81	21032.05
489.99	20975.88
490.17	21032.05
490.35	21099.93
490.53	21055.46
490.70	21378.45
490.88	21088.23
491.06	21553.99
491.24	21502.50
491.41	21483.78
491.59	21511.86
491.77	21790.39
491.95	22099.34
492.13	22043.17
492.30	22244.45
492.48	22651.70
492.66	22628.30
492.84	22852.99
493.01	23187.69
493.19	22857.67
493.37	23063.64
493.54	23087.04
493.72	23798.57
493.90	23466.21
494.08	23892.19
494.25	24107.52
494.43	24079.43
494.61	24173.05
494.79	24306.46
494.96	24233.91
495.14	24257.31
495.32	24381.36
495.49	24493.71
495.67	24783.93
495.85	25050.75
496.02	25198.21
496.20	25247.36
496.38	25303.53
496.55	25387.79
496.73	26192.94
496.91	25656.95
497.09	26345.07
497.26	26143.78
497.44	26300.60
497.62	26029.10
497.79	26441.03
497.97	26487.84
498.14	26387.20
498.32	26314.64
498.50	26670.40
498.67	27101.06
498.85	26824.88
499.03	27234.47
499.20	27297.67
499.38	27159.58
499.56	27295.33
499.73	27630.02
499.91	27524.70
500.08	27466.19
500.26	27505.98
500.44	27686.20
500.61	27534.06
500.79	27501.29
500.97	28006.85
501.14	27924.93
501.32	27826.63
501.49	28173.03
501.67	28114.52
501.84	28453.89
502.02	28353.25
502.20	29188.82
502.37	28856.46
502.55	28795.61
502.72	29486.07
502.90	29001.58
503.07	29289.46
503.25	29137.33
503.43	28924.34
503.60	29221.59
503.78	29123.29
503.95	29252.02
504.13	29886.30
504.30	29640.54
504.48	29736.51
504.65	29504.79
504.83	30230.36
505.01	30445.69
505.18	29930.77
505.36	30480.80
505.53	30764.00
505.71	30831.88
505.88	30845.92
506.06	30476.12
506.23	30342.70
506.41	30754.64
506.58	30836.56
506.76	30859.96
506.93	31292.96
507.11	31096.36
507.28	31157.21
507.46	31033.16
507.63	31007.42
507.81	31646.38
507.98	31016.78
508.16	31452.12
508.33	31531.70
508.50	31992.78
508.68	32060.66
508.85	32334.50
509.03	32283.01
509.20	32580.26
509.38	32322.80
509.55	32238.54
509.73	32308.76
509.90	32561.53
510.08	32470.25
510.25	32491.32
510.42	32528.77
510.60	32556.85
510.77	33053.05
510.95	33198.16
511.12	33221.56
511.30	33376.04
511.47	33340.93
511.64	33642.86
511.82	33684.99
511.99	33364.34
512.17	33518.81
512.34	33369.02
512.51	33635.84
512.69	33888.62
512.86	33944.79
513.04	34272.46
513.21	34031.39
513.38	33916.70
513.56	33792.65
513.73	33771.59
513.90	34134.37
514.08	34298.21
514.25	33940.11
514.43	34267.78
514.60	34417.58
514.77	34319.28
514.95	34658.65
515.12	34707.80
515.29	34731.21
515.47	35178.25
515.64	35243.79
515.81	34778.02
515.99	34855.26
516.16	34983.99
516.33	34974.63
516.51	34607.16
516.68	34412.90
516.85	34338.00
517.03	34457.37
517.20	35093.99
517.37	34759.30
517.54	35440.39
517.72	35480.18
517.89	35133.78
518.06	35218.04
518.24	35065.91
518.41	35541.03
518.58	35791.47
518.75	35763.39
518.93	36013.82
519.10	36360.22
519.27	36280.64
519.45	36329.80
519.62	36294.69
519.79	36552.15
519.96	36692.58
520.14	36835.35
520.31	36734.71
520.48	36634.06
520.65	36215.11
520.83	37046.00
521.00	37298.78
521.17	36837.69
521.34	36734.71
521.52	37549.21
521.69	37638.15
521.86	37617.09
522.03	37560.92
522.20	37226.22
522.38	37661.56
522.55	37713.05
522.72	37523.47
522.89	37483.68
523.07	37860.51
523.24	37563.26
523.41	37780.93
523.58	38071.15
523.75	38637.56
523.92	38546.28
524.10	38560.33
524.27	38511.17
524.44	38761.61
524.61	38653.95
524.78	38653.95
524.96	38431.60
525.13	39007.37
525.30	39035.45
525.47	38995.67
525.64	39269.51
525.81	38754.59
525.98	38667.99
526.16	38300.53
526.33	38370.74
526.50	38843.53
526.67	38721.82
526.84	38546.28
527.01	38693.74
527.18	38986.30
527.36	39028.43
527.53	39332.70
527.70	39873.37
527.87	39625.27
528.04	39524.63
528.21	39739.96
528.38	39489.52
528.55	40158.91
528.72	40128.48
528.89	40458.50
529.07	40215.08
529.24	40030.18
529.41	39948.26
529.58	40268.92
529.75	40177.64
529.92	40500.63
530.09	40430.41
530.26	40711.28
530.43	40367.22
530.60	40500.63
530.77	40584.89
530.94	40645.74
531.11	40474.88
531.28	40893.84
531.46	40830.65
531.63	40891.50
531.80	40790.86
531.97	40575.53
532.14	40133.17
532.31	40577.87
532.48	40694.89
532.65	40917.25
532.82	40858.73
532.99	41598.34
533.16	41022.57
533.33	41331.52
533.50	41577.28
533.67	41186.41
533.84	41062.36
534.01	41642.81
534.18	41694.30
534.35	41752.82
534.52	41509.40
534.69	41425.14
534.86	41935.38
535.03	41958.78
535.20	42136.66
535.37	42113.26
535.54	42487.74
535.71	42036.02
535.88	41986.87
536.05	42337.95
536.22	42099.22
536.38	42440.93
536.55	41801.97
536.72	42148.37
536.89	42047.72
537.06	41982.19
537.23	42405.83
537.40	42480.72
537.57	42616.47
537.74	42183.48
537.91	42843.51
538.08	42628.18
538.25	42361.36
538.42	42473.70
538.59	42667.97
538.75	42197.52
538.92	42522.85
539.09	43054.15
539.26	42700.73
539.43	42546.26
539.60	42656.26
539.77	42864.57
539.94	42373.06
540.11	42684.35
540.28	43168.84
540.44	42717.12
540.61	42829.46
540.78	42698.39
540.95	43002.66
541.12	42927.77
541.29	42927.77
541.46	43093.94
541.62	42813.08
541.79	43611.20
541.96	42806.06
542.13	43328.00
542.30	43643.97
542.47	43119.69
542.63	43330.34
542.80	43599.50
542.97	43672.06
543.14	44030.16
543.31	43952.92
543.48	44091.01
543.64	44383.58
543.81	44172.93
543.98	43936.54
544.15	43775.04
544.32	44144.84
544.48	44479.54
544.65	44175.27
544.82	44327.41
544.99	43981.01
545.16	44643.38
545.32	44336.77
545.49	44697.21
545.66	44388.26
545.83	44531.03
546.00	44376.56
546.16	44486.56
546.33	44083.99
546.50	44006.75
546.67	44722.96
546.83	44065.27
547.00	44540.39
547.17	44392.94
547.34	44528.69
547.50	44978.07
547.67	44891.48
547.84	44818.92
548.00	44741.68
548.17	44823.60
548.34	44818.92
548.51	45162.98
548.67	45741.09
548.84	45141.91
549.01	44491.24
549.18	45249.58
549.34	45317.45
549.51	44971.05
549.68	45109.14
549.84	45364.26
550.01	45595.98
550.18	45347.88
550.34	45155.96
550.51	45301.07
550.68	45521.08
550.84	45352.56
551.01	45324.47
551.18	45137.23
551.34	45242.56
551.51	45696.62
551.68	45420.44
551.84	45745.77
552.01	45413.41
552.18	45638.11
552.34	45160.64
552.51	45434.48
552.68	45684.92
552.84	46190.47
553.01	45979.82
553.18	45537.46
553.34	45867.48
553.51	45319.79
553.67	45776.20
553.84	46089.83
554.01	46014.93
554.17	46335.59
554.34	46244.30
554.51	45893.22
554.67	46096.85
554.84	46127.28
555.00	46141.32
555.17	45813.65
555.33	46293.46
555.50	46003.23
555.67	46120.26
555.83	46237.28
556.00	46014.93
556.16	46337.93
556.33	45958.76
556.50	46691.35
556.66	45925.99
556.83	45930.67
556.99	46120.26
557.16	46263.03
557.32	46335.59
557.49	46447.93
557.65	46080.47
557.82	46141.32
557.98	46616.45
558.15	46314.52
558.32	46368.35
558.48	46536.87
558.65	46169.41
558.81	46410.48
558.98	46415.16
559.14	46244.30
559.31	46117.92
559.47	46429.21
559.64	46490.06
559.80	46838.80
559.97	46595.38
560.13	46312.18
560.30	46735.82
560.46	46494.74
560.63	46436.23
560.79	47028.38
560.96	46944.12
561.12	46511.13
561.29	46623.47
561.45	46820.08
561.61	46766.24
561.78	46916.04
561.94	46614.11
562.11	46962.85
562.27	46586.02
562.44	46972.21
562.60	46855.18
562.77	46969.87
562.93	46899.65
563.10	46876.25
563.26	46740.50
563.42	46967.53
563.59	46550.91
563.75	46806.03
563.92	47297.55
564.08	47086.90
564.24	47199.24
564.41	47325.63
564.57	46845.82
564.74	47058.81
564.90	47423.93
565.07	47131.37
565.23	46871.57
565.39	47292.86
565.56	47208.61
565.72	46913.70
565.88	46777.95
566.05	46969.87
566.21	46967.53
566.38	46602.41
566.54	47051.79
566.70	47285.84
566.87	47402.87
567.03	46934.76
567.19	47597.13
567.36	47091.58
567.52	47267.12
567.68	47196.90
567.85	46885.61
568.01	46887.95
568.17	46997.96
568.34	47501.17
568.50	46958.17
568.66	47189.88
568.83	46916.04
568.99	46571.98
569.15	47468.40
569.32	47213.29
569.48	47199.24
569.64	47693.10
569.81	47721.18
569.97	47058.81
570.13	47079.88
570.30	46761.56
570.46	46841.14
570.62	46777.95
570.78	47100.94
570.95	46934.76
571.11	46911.36
571.27	46890.29
571.43	47065.83
571.60	47206.26
571.76	47171.16
571.92	47398.19
572.09	47096.26
572.25	47330.31
572.41	47072.85
572.57	47302.23
572.74	47861.61
572.90	47199.24
573.06	47402.87
573.22	47512.88
573.38	47501.17
573.55	47143.07
573.71	47428.62
573.87	47047.11
574.03	47445.00
574.20	47138.39
574.36	47793.74
574.52	46976.89
574.68	47374.78
574.84	47421.59
575.01	47203.92
575.17	47590.11
575.33	47086.90
575.49	46827.10
575.65	47875.66
575.82	47625.22
575.98	47246.05
576.14	47147.75
576.30	47538.62
576.46	46951.15
576.62	47325.63
576.79	47414.57
576.95	46859.87
577.11	47484.79
577.27	47386.49
577.43	47274.14
577.59	47217.97
577.75	46749.86
577.92	46883.27
578.08	46611.77
578.24	46803.69
578.40	47243.71
578.56	47374.78
578.72	47114.98
578.88	47751.61
579.04	47430.96
579.21	47313.93
579.37	47154.77
579.53	47327.97
579.69	47222.65
579.85	47150.09
580.01	47222.65
580.17	47192.22
580.33	47475.43
580.49	47360.74
580.65	47655.65
580.82	47416.91
580.98	47421.59
581.14	47285.84
581.30	47262.44
581.46	47367.76
581.62	48041.84
581.78	47622.88
581.94	47868.64
582.10	47384.15
582.26	47693.10
582.42	47473.09
582.58	47562.03
582.74	47419.25
582.90	47618.20
583.06	47517.56
583.22	47730.54
583.38	47416.91
583.54	47529.26
583.70	47407.55
583.86	47533.94
584.02	47384.15
584.18	47496.49
584.34	47856.93
584.50	47583.09
584.66	47452.02
584.82	47201.58
584.98	47555.00
585.14	47503.51
585.30	47391.17
585.46	47435.64
585.62	47297.55
585.78	47316.27
585.94	47246.05
586.10	46941.78
586.26	47437.98
586.42	47405.21
586.58	47817.14
586.74	47290.52
586.90	47250.74
587.06	47110.30
587.22	47580.75
587.38	47203.92
587.54	47531.60
587.70	47899.06
587.86	47164.14
588.02	47536.28
588.18	48048.86
588.34	47615.86
588.49	46827.10
588.65	46644.54
588.81	46939.44
588.97	47213.29
589.13	46955.83
589.29	46803.69
589.45	47112.64
589.61	47735.23
589.77	47557.35
589.93	47505.85
590.08	47702.46
590.24	47735.23
590.40	47236.69
590.56	47672.03
590.72	47414.57
590.88	47173.50
591.04	47756.29
591.20	47522.24
591.35	47723.52
591.51	47845.23
591.67	47620.54
591.83	47782.04
591.99	47288.18
592.15	47491.81
592.31	47601.82
592.46	47739.91
592.62	47578.41
592.78	47327.97
592.94	48023.11
593.10	47931.83
593.26	47849.91
593.41	47540.96
593.57	47576.07
593.73	47519.90
593.89	47711.82
594.05	47805.44
594.20	47409.89
594.36	47573.73
594.52	47421.59
594.68	47608.84
594.84	47679.05
594.99	48198.65
595.15	47749.27
595.31	47887.36
595.47	47639.26
595.62	47257.76
595.78	47742.25
595.94	47779.70
596.10	47798.42
596.25	47854.59
596.41	47693.10
596.57	47672.03
596.73	47704.80
596.88	47356.06
597.04	47693.10
597.20	47271.80
597.36	47639.26
597.51	48018.43
597.67	47519.90
597.83	47744.59
597.99	47838.21
598.14	47866.30
598.30	47503.51
598.46	47674.37
598.61	47707.14
598.77	47632.24
598.93	47594.79
599.09	47725.86
599.24	48205.67
599.40	47945.87
599.56	47416.91
599.71	47955.24
599.87	47625.22
600.03	47931.83
600.18	47629.90
600.34	47725.86
600.50	47854.59
600.65	47629.90
600.81	47859.27
600.97	47559.69
601.12	48027.79
601.28	47473.09
601.44	47913.11
601.59	47704.80
601.75	46932.42
601.91	47650.97
602.06	47550.32
602.22	47835.87
602.37	47650.97
602.53	47889.70
602.69	47702.46
602.84	47440.32
603.00	47215.63
603.16	47885.02
603.31	47587.77
603.47	47477.77
603.62	47306.91
603.78	47941.19
603.94	47885.02
604.09	47646.29
604.25	47599.47
604.40	47377.12
604.56	47416.91
604.71	47356.06
604.87	47564.37
605.03	47770.33
605.18	47330.31
605.34	47386.49
605.49	47302.23
605.65	47775.02
605.80	47409.89
605.96	47601.82
606.12	47679.05
606.27	47524.58
606.43	47749.27
606.58	47650.97
606.74	47585.43
606.89	47271.80
607.05	47398.19
607.20	47484.79
607.36	47608.84
607.51	47622.88
607.67	47849.91
607.82	47313.93
607.98	47468.40
608.13	46974.55
608.29	47187.54
608.44	46717.09
608.60	46712.41
608.75	47159.45
608.91	47147.75
609.06	47023.70
609.22	47459.04
609.37	47042.43
609.53	47157.11
609.68	47100.94
609.84	46829.44
609.99	47384.15
610.15	47009.66
610.30	46941.78
610.46	46906.68
610.61	46946.47
610.76	46923.06
610.92	46813.05
611.07	46806.03
611.23	46686.67
611.38	47131.37
611.54	46960.51
611.69	46712.41
611.84	46597.73
612.00	46728.80
612.15	46595.38
612.31	46775.61
612.46	46742.84
612.62	46920.72
612.77	46784.97
612.92	46777.95
613.08	46576.66
613.23	47084.56
613.39	46410.48
613.54	46272.39
613.69	46075.79
613.85	46494.74
614.00	46885.61
614.15	46637.51
614.31	46761.56
614.46	46932.42
614.62	46483.04
614.77	46469.00
614.92	46660.92
615.08	46052.38
615.23	46541.55
615.38	46232.60
615.54	45846.41
615.69	46164.73
615.84	45764.49
616.00	46480.70
616.15	45909.61
616.30	46129.62
616.46	46068.76
616.61	46124.94
616.76	45900.25
616.92	45916.63
617.07	45869.82
617.22	45446.18
617.37	45902.59
617.53	46153.02
617.68	46419.84
617.83	46113.23
617.99	46143.66
618.14	45958.76
618.29	46000.89
618.45	46024.29
618.60	45703.64
618.75	45801.94
618.90	45642.79
619.06	45916.63
619.21	45586.61
619.36	45984.51
619.51	45794.92
619.67	45911.95
619.82	46120.26
619.97	45879.18
620.12	45539.80
620.28	45251.92
620.43	45584.27
620.58	45504.70
620.73	45209.79
620.89	45593.64
621.04	45530.44
621.19	45338.52
621.34	44954.67
621.49	45324.47
621.65	44919.56
621.80	45813.65
621.95	45116.17
622.10	45593.64
622.25	45294.05
622.41	45099.78
622.56	44982.76
622.71	45251.92
622.86	44952.33
623.01	44788.49
623.16	45106.80
623.32	45500.01
623.47	45186.38
623.62	45006.16
623.77	45052.97
623.92	45179.36
624.07	44797.85
624.23	44788.49
624.38	44849.35
624.53	44624.65
624.68	44996.80
624.83	45165.32
624.98	44973.39
625.13	44788.49
625.29	44519.33
625.44	44701.89
625.59	44451.45
625.74	44404.64
625.89	44210.38
626.04	44360.17
626.19	44690.19
626.34	44545.08
626.49	44226.76
626.65	44481.88
626.80	44612.95
626.95	44502.95
627.10	43962.28
627.25	44294.64
627.40	43889.73
627.55	43718.87
627.70	43384.17
627.85	43814.83
628.00	44091.01
628.15	43990.37
628.30	43973.98
628.45	44105.06
628.60	44023.14
628.76	44102.71
628.91	43559.71
629.06	44006.75
629.21	43688.44
629.36	43456.73
629.51	43538.65
629.66	43505.88
629.81	43592.48
629.96	43672.06
630.11	43812.49
630.26	43945.90
630.41	43742.27
630.56	43391.19
630.71	44037.18
630.86	43213.31
631.01	43349.06
631.16	43234.38
631.31	43007.34
631.46	43021.39
631.61	43236.72
631.76	43529.28
631.91	43344.38
632.06	43072.88
632.21	43868.66
632.36	43267.14
632.51	42756.91
632.66	42873.93
632.81	43147.78
632.96	42916.06
633.10	42986.28
633.25	42932.45
633.40	42953.51
633.55	43438.00
633.70	43000.32
633.85	43016.71
634.00	43309.27
634.15	43049.47
634.30	42820.10
634.45	43079.90
634.60	42869.25
634.75	42623.50
634.90	42918.40
635.05	42763.93
635.19	42504.13
635.34	42995.64
635.49	43124.37
635.64	43278.85
635.79	42422.21
635.94	42721.80
636.09	42721.80
636.24	42593.07
636.39	42272.42
636.53	42316.89
636.68	42377.74
636.83	42618.81
636.98	42756.91
637.13	41991.55
637.28	42454.98
637.43	42667.97
637.57	42796.70
637.72	42419.87
637.87	42340.29
638.02	42052.41
638.17	42506.47
638.32	42316.89
638.46	42335.61
638.61	42223.26
638.76	41755.16
638.91	42625.84
639.06	42307.52
639.20	42103.90
639.35	42462.00
639.50	42045.38
639.65	42220.92
639.80	42431.57
639.94	42134.32
640.09	41890.91
640.24	41682.60
640.39	41720.05
640.54	41565.57
640.68	41633.45
640.83	41577.28
640.98	41596.00
641.13	41851.12
641.27	41546.85
641.42	41333.86
641.57	41649.83
641.72	41989.21
641.86	41163.00
642.01	41181.73
642.16	41284.71
642.31	41425.14
642.45	41876.86
642.60	41230.88
642.75	40971.08
642.90	41291.73
643.04	41263.64
643.19	41528.13
643.34	41228.54
643.48	41598.34
643.63	41605.36
643.78	41256.62
643.93	41155.98
644.07	41380.67
644.22	40882.14
644.37	40914.90
644.51	40982.78
644.66	40863.41
644.81	41364.29
644.95	41198.11
645.10	41209.81
645.25	41404.08
645.39	40959.38
645.54	40786.18
645.69	41008.53
645.83	40947.67
645.98	40772.13
646.13	41184.07
646.27	40598.93
646.42	40816.60
646.57	41029.59
646.71	40519.35
646.86	40580.21
647.00	40734.68
647.15	40332.11
647.30	40718.30
647.44	40399.99
647.59	40889.16
647.74	40467.86
647.88	40177.64
648.03	40435.10
648.17	40088.70
648.32	40292.32
648.47	40643.40
648.61	40287.64
648.76	40390.62
648.90	40198.70
649.05	40526.38
649.20	40048.91
649.34	40416.37
649.49	39896.77
649.63	40093.38
649.78	40353.18
649.92	40165.93
650.07	40023.16
650.21	40058.27
650.36	40308.71
650.51	40187.00
650.65	40374.24
650.80	40184.66
650.94	40350.84
651.09	39985.71
651.23	39945.92
651.38	40016.14
651.52	40095.72
651.67	39681.44
651.81	39386.54
651.96	39606.55
652.10	39466.11
652.25	39707.19
652.39	39379.51
652.54	39669.74
652.68	39957.63
652.83	39463.77
652.97	39480.16
653.12	39754.00
653.26	39658.04
653.41	39807.83
653.55	39138.44
653.70	39281.21
653.84	39292.91
653.99	39449.73
654.13	39372.49
654.27	39358.45
654.42	39225.04
654.56	39178.23
654.71	39576.12
654.85	39304.62
655.00	38998.01
655.14	38831.83
655.29	38644.59
655.43	39009.71
655.57	38728.84
655.72	37991.58
655.86	38880.98
656.01	38230.31
656.15	38188.18
656.30	38295.85
656.44	38340.32
656.58	38494.79
656.73	38349.68
656.87	38258.40
657.01	38328.61
657.16	38628.20
657.30	38696.08
657.45	38237.33
657.59	38506.49
657.73	38143.71
657.88	38251.38
658.02	38419.89
658.16	37947.11
658.31	38787.36
658.45	38064.13
658.60	38424.57
658.74	38450.32
658.88	38323.93
659.03	37607.73
659.17	38274.78
659.31	38110.94
659.46	37919.02
659.60	38031.36
659.74	37514.11
659.89	37743.48
660.03	37640.50
660.17	37996.26
660.32	37565.60
660.46	38272.44
660.60	37890.93
660.74	38239.67
660.89	37904.98
661.03	37649.86
661.17	37523.47
661.32	37511.77
661.46	37111.53
661.60	37001.53
661.74	37062.38
661.89	37317.50
662.03	37308.14
662.17	37202.82
662.31	37319.84
662.46	37626.45
662.60	37376.01
662.74	37092.81
662.88	36971.10
663.03	37057.70
663.17	36720.66
663.31	36531.08
663.45	36877.48
663.60	36755.77
663.74	36446.82
663.88	36046.59
664.02	36194.04
664.17	36971.10
664.31	36559.17
664.45	36346.18
664.59	36486.61
664.73	36402.35
664.88	36584.91
665.02	36079.36
665.16	36004.46
665.30	36266.60
665.44	36065.31
665.59	36257.24
665.73	36055.95
665.87	35393.58
666.01	36116.81
666.15	35679.13
666.29	35498.91
666.44	35772.75
666.58	35945.95
666.72	35756.36
666.86	35859.35
667.00	35688.49
667.14	35658.06
667.28	35332.73
667.43	35051.86
667.57	35283.58
667.71	35164.21
667.85	35281.24
667.99	34878.66
668.13	34944.20
668.27	34590.78
668.41	34955.90
668.56	34728.87
668.70	34595.46
668.84	34796.74
668.98	34864.62
669.12	34918.45
669.26	34377.79
669.40	34644.61
669.54	34525.24
669.68	34703.12
669.82	34206.93
669.96	34174.16
670.10	33759.89
670.25	34295.87
670.39	34586.10
670.53	34691.42
670.67	33982.24
670.81	34036.07
670.95	34075.86
671.09	34197.57
671.23	33986.92
671.37	34157.78
671.51	33516.47
671.65	33619.46
671.79	33703.71
671.93	33621.80
672.07	33207.52
672.21	33322.21
672.35	33226.24
672.49	33633.50
672.63	33394.76
672.77	33261.35
672.91	33071.77
673.05	33022.62
673.19	33017.94
673.33	32877.51
673.47	32910.27
673.61	32786.22
673.75	32643.45
673.89	32449.19
674.03	32283.01
674.17	32402.38
674.31	32421.10
674.45	32002.14
674.59	32444.51
674.73	32659.84
674.87	31864.05
675.01	32224.50
675.15	32109.81
675.29	32182.37
675.43	31667.45
675.56	32084.06
675.70	31955.33
675.84	31573.83
675.98	30881.03
676.12	31236.79
676.26	31204.02
676.40	30771.02
676.54	31442.76
676.68	30911.46
676.82	30960.61
676.96	31112.74
677.10	30764.00
677.23	30604.84
677.37	30939.54
677.51	30672.72
677.65	30890.39
677.79	30068.86
677.93	30305.26
678.07	30433.99
678.21	30068.86
678.34	29776.30
678.48	29937.79
678.62	29797.36
678.76	29839.49
678.90	29888.64
679.04	29759.91
679.18	29549.26
679.31	28779.23
679.45	29266.06
679.59	29092.86
679.73	29090.52
679.87	28793.27
680.00	28905.62
680.14	28542.83
680.28	28779.23
680.42	28599.01
680.56	28617.73
680.70	28371.97
680.83	28367.29
680.97	28390.70
681.11	27903.87
681.25	28407.08
681.39	28098.13
681.52	27955.36
681.66	28208.14
681.80	28109.83
681.94	27515.34
682.07	27454.48
682.21	27859.40
682.35	27346.82
682.49	27124.47
682.62	27225.11
682.76	27159.58
682.90	26927.86
683.04	27377.25
683.17	27005.10
683.31	26902.12
683.45	26944.25
683.59	26780.41
683.72	26473.80
683.86	26501.89
684.00	26553.38
684.13	26586.15
684.27	26101.65
684.41	26401.24
684.55	25830.15
684.68	25757.60
684.82	25619.50
684.96	25666.31
685.09	25469.71
685.23	25685.04
685.37	25462.69
685.50	25422.90
685.64	25607.80
685.78	25727.17
685.91	25230.98
686.05	25291.83
686.19	24793.29
686.32	24961.81
686.46	24325.19
686.60	24135.60
686.73	24341.57
686.87	23709.63
687.01	23697.92
687.14	24060.71
687.28	23754.10
687.42	23606.64
687.55	23459.19
687.69	23772.82
687.82	23730.69
687.96	23662.82
688.10	23641.75
688.23	23571.54
688.37	23393.65
688.50	23349.18
688.64	23363.23
688.78	23094.07
688.91	22611.92
689.05	22885.76
689.18	22885.76
689.32	22394.25
689.46	22768.73
689.59	22857.67
689.73	22806.18
689.86	22590.85
690.00	22405.95
690.13	22658.73
690.27	22237.43
690.41	22197.64
690.54	22029.12
690.68	22106.36
690.81	21797.41
690.95	22010.40
691.08	21912.10
691.22	21876.99
691.35	21687.40
691.49	21539.95
691.62	21535.27
691.76	21493.14
691.89	21546.97
692.03	21207.59
692.16	21144.40
692.30	21266.11
692.43	21071.84
692.57	20755.87
692.70	21025.03
692.84	20816.72
692.97	20592.03
693.11	20585.01
693.24	20479.69
693.38	20423.51
693.51	20435.22
693.65	20559.27
693.78	20439.90
693.92	20147.33
694.05	19800.93
694.19	20339.26
694.32	19676.88
694.45	19616.03
694.59	20046.69
694.72	19529.43
694.86	19321.12
694.99	19161.97
695.13	19281.33
695.26	19044.94
695.39	18796.84
695.53	18951.32
695.66	19264.95
695.80	19016.85
695.93	19021.53
696.07	18754.71
696.20	19037.92
696.33	19112.81
696.47	18831.95
696.60	18644.71
696.73	18457.46
696.87	18618.96
697.00	18422.36
697.14	18263.20
697.27	18284.26
697.40	18211.71
697.54	18040.85
697.67	17893.40
697.80	17956.59
697.94	17830.20
698.07	17544.66
698.21	17495.50
698.34	17568.06
698.47	17128.04
698.61	17188.89
698.74	17362.09
698.87	17387.84
699.01	17156.13
699.14	17102.29
699.27	17238.05
699.40	17015.69
699.54	16643.55
699.67	16552.27
699.80	16681.00
699.94	16624.83
700.07	16638.87
700.20	16615.46
700.34	16486.73
700.47	16526.52
700.60	16503.12
700.73	16479.71
700.87	16088.84
701.00	15967.13
701.13	16212.89
701.26	16191.83
701.40	16023.31
701.53	15754.15
701.66	15983.52
701.79	15805.64
701.93	15370.30
702.06	15569.24
702.19	15697.97
702.32	15487.32
702.46	15335.19
702.59	15552.86
702.72	15562.22
702.85	15180.71
702.99	15307.10
703.12	15290.72
703.25	14827.29
703.38	15051.99
703.51	14860.06
703.65	15023.90
703.78	15075.39
703.91	14462.17
704.04	14530.05
704.17	14501.96
704.31	14733.67
704.44	14274.93
704.57	14361.53
704.70	14122.79
704.83	14244.50
704.96	14225.78
705.10	14319.40
705.23	14265.57
>>>>>End Processed Spectral Data<<<<<
