SpectraSuite Data File
++++++++++++++++++++++++++++++++++++
Date: Fri Oct 25 10:47:22 EDT 2013
User: price-jones
Dark Spectrum Present: No
Reference Spectrum Present: No
Number of Sampled Component Spectra: 1
Spectrometers: USB2+H05261
Integration Time (usec): 100000 (USB2+H05261)
Spectra Averaged: 1 (USB2+H05261)
Boxcar Smoothing: 0 (USB2+H05261)
Correct for Electrical Dark: No (USB2+H05261)
Strobe/Lamp Enabled: No (USB2+H05261)
Correct for Detector Non-linearity: No (USB2+H05261)
Correct for Stray Light: No (USB2+H05261)
Number of Pixels in Processed Spectrum: 2048
>>>>>Begin Processed Spectral Data<<<<<
365.73	98.30
365.92	98.30
366.12	98.30
366.32	133.41
366.52	51.49
366.72	56.17
366.91	16.38
367.11	124.05
367.31	0.00
367.51	46.81
367.70	30.43
367.90	63.19
368.10	4.68
368.30	0.00
368.49	46.81
368.69	53.83
368.89	60.85
369.09	0.00
369.28	84.26
369.48	95.96
369.68	152.13
369.87	110.01
370.07	149.79
370.27	60.85
370.47	159.16
370.66	400.23
370.86	447.04
371.06	374.49
371.25	442.36
371.45	472.79
371.65	475.13
371.84	442.36
372.04	430.66
372.24	430.66
372.44	475.13
372.63	505.56
372.83	552.37
373.03	500.87
373.22	468.11
373.42	493.85
373.62	545.34
373.81	543.00
374.01	573.43
374.21	491.51
374.40	557.05
374.60	624.92
374.79	512.58
374.99	540.66
375.19	573.43
375.38	657.69
375.58	608.54
375.78	564.07
375.97	578.11
376.17	589.82
376.37	587.47
376.56	594.50
376.76	533.64
376.95	566.41
377.15	660.03
377.35	634.29
377.54	582.79
377.74	566.41
377.93	587.47
378.13	676.41
378.33	627.26
378.52	608.54
378.72	554.71
378.91	587.47
379.11	571.09
379.31	683.44
379.50	624.92
379.70	739.61
379.89	727.91
380.09	660.03
380.28	706.84
380.48	617.90
380.68	636.63
380.87	622.58
381.07	688.12
381.26	704.50
381.46	624.92
381.65	653.01
381.85	748.97
382.04	669.39
382.24	692.80
382.43	688.12
382.63	674.07
382.83	720.88
383.02	767.70
383.22	744.29
383.41	709.18
383.61	676.41
383.80	758.33
384.00	667.05
384.19	774.72
384.39	795.78
384.58	755.99
384.78	732.59
384.97	765.36
385.17	812.17
385.36	784.08
385.56	678.76
385.75	819.19
385.95	730.25
386.14	784.08
386.34	739.61
386.53	763.01
386.72	716.20
386.92	760.67
387.11	840.25
387.31	816.85
387.50	823.87
387.70	826.21
387.89	833.23
388.09	819.19
388.28	837.91
388.48	816.85
388.67	844.93
388.86	744.29
389.06	833.23
389.25	891.74
389.45	851.96
389.64	868.34
389.84	882.38
390.03	957.28
390.22	858.98
390.42	866.00
390.61	924.51
390.81	945.58
391.00	1043.88
391.19	950.26
391.39	957.28
391.58	912.81
391.78	1015.79
391.97	973.66
392.16	1020.47
392.36	997.07
392.55	997.07
392.75	976.00
392.94	936.21
393.13	870.68
393.33	959.62
393.52	943.24
393.71	1050.90
393.91	1041.54
394.10	1114.10
394.29	1102.39
394.49	1174.95
394.68	1149.20
394.88	1135.16
395.07	1144.52
395.26	1116.44
395.46	1083.67
395.65	1179.63
395.84	1100.05
396.04	1170.27
396.23	1144.52
396.42	1111.75
396.62	1144.52
396.81	1231.12
397.00	1130.48
397.19	1256.87
397.39	1207.72
397.58	1196.01
397.77	1317.72
397.97	1226.44
398.16	1254.53
398.35	1329.42
398.55	1221.76
398.74	1345.81
398.93	1411.34
399.12	1362.19
399.32	1343.47
399.51	1423.05
399.70	1373.89
399.90	1341.13
400.09	1495.60
400.28	1376.24
400.47	1441.77
400.67	1441.77
400.86	1490.92
401.05	1554.12
401.24	1528.37
401.44	1511.99
401.63	1416.02
401.82	1523.69
402.01	1483.90
402.21	1521.35
402.40	1584.54
402.59	1476.88
402.78	1593.90
402.97	1572.84
403.17	1652.42
403.36	1647.74
403.55	1703.91
403.74	1586.88
403.93	1621.99
404.13	1692.21
404.32	1727.32
404.51	1607.95
404.70	1664.12
404.89	1647.74
405.09	1785.83
405.28	1647.74
405.47	1764.76
405.66	1668.80
405.85	1809.23
406.05	1760.08
406.24	1788.17
406.43	1926.26
406.62	1783.49
406.81	1909.88
407.00	1802.21
407.20	1891.15
407.39	1870.09
407.58	1989.46
407.77	1888.81
407.96	2069.03
408.15	1996.48
408.34	2015.20
408.54	1975.41
408.73	2029.24
408.92	2083.08
409.11	2047.97
409.30	2080.74
409.49	2050.31
409.68	1970.73
409.87	1973.07
410.07	2101.80
410.26	2085.42
410.45	2104.14
410.64	2132.23
410.83	2169.68
411.02	2223.51
411.21	2361.60
411.40	2296.07
411.59	2321.81
411.78	2286.70
411.98	2284.36
412.17	2345.22
412.36	2417.77
412.55	2326.49
412.74	2511.39
412.93	2448.20
413.12	2389.69
413.31	2548.84
413.50	2396.71
413.69	2551.18
413.88	2656.51
414.07	2569.91
414.26	2607.36
414.45	2733.75
414.64	2745.45
414.83	2675.23
415.02	2808.64
415.22	2923.33
415.41	2733.75
415.60	2724.38
415.79	2850.77
415.98	2843.75
416.17	2942.05
416.36	2883.54
416.55	2892.90
416.74	2920.99
416.93	2944.39
417.12	2939.71
417.31	2960.78
417.50	2979.50
417.69	3075.46
417.88	3173.77
418.07	3197.17
418.26	3040.36
418.45	3094.19
418.64	3265.05
418.83	3141.00
419.02	3302.50
419.21	3222.92
419.39	3173.77
419.58	3295.47
419.77	3178.45
419.96	3344.63
420.15	3288.45
420.34	3302.50
420.53	3370.37
420.72	3318.88
420.91	3419.52
421.10	3431.23
421.29	3552.93
421.48	3435.91
421.67	3501.44
421.86	3456.97
422.05	3473.36
422.24	3318.88
422.43	3536.55
422.61	3480.38
422.80	3468.67
422.99	3730.81
423.18	3555.27
423.37	3609.11
423.56	3581.02
423.75	3536.55
423.94	3499.10
424.13	3328.24
424.32	3468.67
424.50	3552.93
424.69	3691.02
424.88	3541.23
425.07	3562.30
425.26	3520.17
425.45	3517.83
425.64	3576.34
425.83	3566.98
426.01	3648.90
426.20	3531.87
426.39	3473.36
426.58	3660.60
426.77	3667.62
426.96	3597.40
427.15	3571.66
427.33	3705.07
427.52	3681.66
427.71	3826.78
427.90	3737.84
428.09	3637.19
428.28	3782.31
428.46	3688.68
428.65	3749.54
428.84	3962.53
429.03	3868.91
429.22	3796.35
429.40	3822.09
429.59	3744.86
429.78	3705.07
429.97	3616.13
430.16	3803.37
430.34	3772.94
430.53	3908.69
430.72	3896.99
430.91	3941.46
431.10	3911.04
431.28	4004.66
431.47	4166.15
431.66	4163.81
431.85	3978.91
432.03	4212.96
432.22	4212.96
432.41	4215.30
432.60	4252.75
432.79	4074.87
432.97	4360.42
433.16	4339.35
433.35	4259.78
433.54	4369.78
433.72	4290.20
433.91	4449.36
434.10	4498.51
434.28	4369.78
434.47	4297.22
434.66	4475.10
434.85	4442.34
435.03	4393.19
435.22	4461.06
435.41	4629.58
435.59	4587.45
435.78	4559.36
435.97	4650.64
436.16	4620.22
436.34	4648.30
436.53	4786.40
436.72	4676.39
436.90	4779.37
437.09	4620.22
437.28	4720.86
437.46	4748.95
437.65	4802.78
437.84	4657.67
438.02	4812.14
438.21	4650.64
438.40	4608.51
438.58	4863.63
438.77	4950.23
438.96	4873.00
439.14	5111.73
439.33	5165.56
439.52	5193.65
439.70	5004.07
439.89	4992.36
440.08	5261.52
440.26	5179.61
440.45	5156.20
440.63	5352.81
440.82	5352.81
441.01	5352.81
441.19	5551.75
441.38	5500.26
441.57	5514.30
441.75	5462.81
441.94	5720.27
442.12	5753.04
442.31	5551.75
442.50	5729.63
442.68	5703.89
442.87	5858.36
443.05	5832.62
443.24	5816.23
443.43	5741.33
443.61	5872.40
443.80	6129.86
443.98	5621.97
444.17	5593.88
444.35	5935.60
444.54	6094.76
444.73	5895.81
444.91	5849.00
445.10	5757.72
445.28	6019.86
445.47	5987.09
445.65	5769.42
445.84	5921.56
446.02	5928.58
446.21	5769.42
446.39	5975.39
446.58	6031.56
446.77	5933.26
446.95	5858.36
447.14	6045.60
447.32	6026.88
447.51	6104.12
447.69	6010.50
447.88	6078.37
448.06	6029.22
448.25	6071.35
448.43	6080.71
448.62	6106.46
448.80	6087.73
448.99	6160.29
449.17	6150.93
449.36	6047.94
449.54	6485.62
449.73	6265.61
449.91	6260.93
450.10	6368.60
450.28	6485.62
450.46	6567.54
450.65	6494.99
450.83	6595.63
451.02	6506.69
451.20	6562.86
451.39	6480.94
451.57	6399.02
451.76	6604.99
451.94	6614.35
452.13	6626.06
452.31	6509.03
452.49	6441.15
452.68	6551.16
452.86	6499.67
453.05	6626.06
453.23	6644.78
453.42	6604.99
453.60	6579.25
453.78	6789.89
453.97	6693.93
454.15	6745.42
454.34	6750.10
454.52	6834.36
454.70	6925.65
454.89	6677.55
455.07	6874.15
455.26	6813.30
455.44	7028.63
455.62	7026.29
455.81	6906.92
455.99	6951.39
456.17	7204.17
456.36	7056.72
456.54	7164.38
456.73	7199.49
456.91	7300.13
457.09	7433.54
457.28	7440.56
457.46	7389.07
457.64	7449.93
457.83	7377.37
458.01	7452.27
458.19	7515.46
458.38	7470.99
458.56	7611.42
458.74	7414.82
458.93	7279.07
459.11	7452.27
459.29	7449.93
459.48	7581.00
459.66	7550.57
459.84	7581.00
460.03	7826.75
460.21	7723.77
460.39	7826.75
460.57	7723.77
460.76	7693.34
460.94	8154.43
461.12	7803.35
461.31	7875.90
461.49	7686.32
461.67	7885.26
461.85	8135.70
462.04	7992.93
462.22	8603.81
462.40	8044.42
462.59	8002.29
462.77	8030.38
462.95	8077.19
463.13	8006.97
463.32	8032.72
463.50	8112.30
463.68	8102.93
463.86	8177.83
464.05	8105.28
464.23	8070.17
464.41	8278.47
464.59	8088.89
464.78	8329.97
464.96	8332.31
465.14	8238.69
465.32	8486.78
465.50	8624.87
465.69	8575.72
465.87	8428.27
466.05	8425.93
466.23	8243.37
466.41	8498.49
466.60	8557.00
466.78	8327.63
466.96	8334.65
467.14	8411.89
467.32	8645.94
467.51	8648.28
467.69	8554.66
467.87	8538.27
468.05	8704.45
468.23	8613.17
468.41	8514.87
468.60	8683.39
468.78	8638.92
468.96	8847.22
469.14	8737.22
469.32	8891.70
469.50	8643.60
469.69	8842.54
469.87	8926.80
470.05	8912.76
470.23	8992.34
470.41	9092.98
470.59	8987.66
470.77	9174.90
470.95	9210.01
471.14	9207.67
471.32	9100.00
471.50	9404.27
471.68	9172.56
471.86	9537.68
472.04	9399.59
472.22	9687.48
472.40	9329.38
472.58	9420.66
472.77	9575.13
472.95	9605.56
473.13	9895.78
473.31	9547.05
473.49	9635.99
473.67	9720.24
473.85	9710.88
474.03	9984.73
474.21	9909.83
474.39	9841.95
474.57	10143.88
474.75	10061.96
474.93	10202.40
475.12	10305.38
475.30	10150.90
475.48	10319.42
475.66	10546.45
475.84	10354.53
476.02	10399.00
476.20	10504.32
476.38	10532.41
476.56	10911.58
476.74	10932.64
476.92	10644.76
477.10	10684.55
477.28	11194.78
477.46	11218.19
477.64	11129.25
477.82	11391.39
478.00	11477.99
478.18	11466.28
478.36	11513.10
478.54	11784.60
478.72	11747.15
478.90	11695.66
479.08	11981.20
479.26	12035.03
479.44	11927.37
479.62	11950.78
479.80	12149.72
479.98	12114.61
480.16	12578.04
480.34	12334.62
480.52	12428.24
480.70	12400.16
480.88	12390.80
481.06	12828.48
481.24	12695.07
481.41	12996.99
481.59	13139.77
481.77	13121.04
481.95	13249.77
482.13	13345.73
482.31	13429.99
482.49	13781.07
482.67	13540.00
482.85	13757.67
483.03	13743.63
483.21	13947.25
483.39	14181.31
483.57	13912.14
483.74	14382.59
483.92	14527.71
484.10	14413.02
484.28	14595.58
484.46	14902.19
484.64	14785.16
484.82	14649.41
485.00	15154.97
485.18	15145.61
485.35	15192.42
485.53	15028.58
485.71	15115.18
485.89	15599.67
486.07	15400.72
486.25	15255.61
486.43	15772.87
486.61	15747.12
486.78	15967.13
486.96	16163.74
487.14	16524.18
487.32	16313.53
487.50	16587.38
487.68	16919.73
487.85	16793.34
488.03	17336.35
488.21	17235.70
488.39	17263.79
488.57	17319.96
488.75	17296.56
488.92	17502.53
489.10	17851.27
489.28	17947.23
489.46	18026.81
489.64	18160.22
489.81	18499.59
489.99	18471.51
490.17	18595.56
490.35	18892.80
490.53	19016.85
490.70	19192.39
490.88	19021.53
491.06	18958.34
491.24	19346.87
491.41	19070.68
491.59	19227.50
491.77	19576.24
491.95	19545.81
492.13	19922.64
492.30	19924.98
492.48	19927.32
492.66	20240.95
492.84	20095.84
493.01	20418.83
493.19	20355.64
493.37	20657.57
493.54	20725.44
493.72	20718.42
493.90	20917.37
494.08	21261.43
494.25	21291.85
494.43	21671.02
494.61	21701.45
494.79	21521.23
494.96	21766.98
495.14	21722.51
495.32	22302.96
495.49	22139.13
495.67	22246.79
495.85	22164.87
496.02	22473.82
496.20	22569.79
496.38	22785.12
496.55	22726.60
496.73	23372.59
496.91	23033.21
497.09	23220.45
497.26	23239.18
497.44	22974.70
497.62	23257.90
497.79	23711.97
497.97	23426.42
498.14	23693.24
498.32	23871.12
498.50	24088.79
498.67	24041.98
498.85	24070.07
499.03	24514.77
499.20	24261.99
499.38	24463.28
499.56	24428.17
499.73	24596.69
499.91	24489.03
500.08	24709.04
500.26	25034.37
500.44	24851.81
500.61	25053.09
500.79	24961.81
500.97	24915.00
501.14	25352.68
501.32	25102.25
501.49	25425.24
501.67	25333.96
501.84	25518.86
502.02	25869.94
502.20	25783.34
502.37	25862.92
502.55	25668.66
502.72	25998.67
502.90	26361.45
503.07	25696.74
503.25	26462.10
503.43	26005.69
503.60	25979.95
503.78	26658.70
503.95	26513.59
504.13	27042.55
504.30	26471.46
504.48	26462.10
504.65	26747.64
504.83	27119.79
505.01	26962.97
505.18	27143.19
505.36	27353.84
505.53	27276.60
505.71	27384.27
505.88	27702.58
506.06	27332.78
506.23	27419.38
506.41	27463.85
506.58	27580.87
506.76	27929.61
506.93	27978.76
507.11	28280.69
507.28	28278.35
507.46	28229.20
507.63	28484.32
507.81	28140.26
507.98	28257.29
508.16	28383.68
508.33	28833.06
508.50	28587.30
508.68	28966.47
508.85	29167.76
509.03	29090.52
509.20	29156.05
509.38	29076.48
509.55	29315.21
509.73	29385.43
509.90	29193.50
510.08	29116.26
510.25	29495.43
510.42	29467.34
510.60	30008.01
510.77	29633.52
510.95	29940.13
511.12	29406.49
511.30	30167.16
511.47	30522.93
511.64	30579.10
511.82	30185.89
511.99	30110.99
512.17	30527.61
512.34	30202.27
512.51	30745.28
512.69	30494.84
512.86	30558.03
513.04	31012.10
513.21	30658.68
513.38	30597.82
513.56	31063.59
513.73	30785.07
513.90	31285.94
514.08	30749.96
514.25	31005.08
514.43	31283.60
514.60	31388.92
514.77	31388.92
514.95	31683.83
515.12	31445.10
515.29	31220.41
515.47	31632.34
515.64	31679.15
515.81	31744.69
515.99	31463.82
516.16	31971.72
516.33	31920.23
516.51	32002.14
516.68	31580.85
516.85	31606.59
517.03	32011.51
517.20	31728.30
517.37	32226.84
517.54	32240.88
517.72	32219.81
517.89	32538.13
518.06	31789.16
518.24	32559.19
518.41	32423.44
518.58	32685.58
518.75	32617.71
518.93	32769.84
519.10	32692.60
519.27	33095.18
519.45	33298.80
519.62	33270.72
519.79	33490.73
519.96	33422.85
520.14	33450.94
520.31	33280.08
520.48	33453.28
520.65	33649.88
520.83	34089.90
521.00	33986.92
521.17	33668.61
521.34	34253.74
521.52	33839.47
521.69	33525.83
521.86	34251.40
522.03	34270.12
522.20	34649.29
522.38	34525.24
522.55	34410.56
522.72	34724.19
522.89	34078.20
523.07	34651.63
523.24	34665.67
523.41	34895.05
523.58	34614.18
523.75	35182.93
523.92	34899.73
524.10	35030.80
524.27	35409.96
524.44	35299.96
524.61	35271.87
524.78	35290.60
524.96	35498.91
525.13	35414.65
525.30	35658.06
525.47	35604.23
525.64	35592.53
525.81	36034.89
525.98	35409.96
526.16	35475.50
526.33	35758.70
526.50	35889.77
526.67	35548.06
526.84	35482.52
527.01	35253.15
527.18	35704.87
527.36	36156.60
527.53	36198.73
527.70	36559.17
527.87	36229.15
528.04	36313.41
528.21	36517.04
528.38	36381.29
528.55	37261.33
528.72	36964.08
528.89	36662.15
529.07	36620.02
529.24	36538.10
529.41	36821.31
529.58	36825.99
529.75	36669.17
529.92	36844.71
530.09	36889.18
530.26	37113.87
530.43	37038.98
530.60	37195.79
530.77	36980.46
530.94	37563.26
531.11	37326.86
531.28	37722.41
531.46	37404.10
531.63	37741.14
531.80	37347.93
531.97	37481.34
532.14	37378.36
532.31	37425.17
532.48	37881.57
532.65	38096.90
532.82	38265.42
532.99	37883.91
533.16	37830.08
533.33	38103.92
533.50	38380.10
533.67	38010.30
533.84	37670.92
534.01	38609.48
534.18	38019.66
534.35	38438.62
534.52	38356.70
534.69	38670.33
534.86	38600.12
535.03	38120.31
535.20	38663.31
535.37	39213.34
535.54	39023.75
535.71	38447.98
535.88	38670.33
536.05	38600.12
536.22	39154.82
536.38	38590.75
536.55	39082.27
536.72	39236.74
536.89	38405.85
537.06	38649.27
537.23	39122.05
537.40	38480.75
537.57	39100.99
537.74	39213.34
537.91	39744.64
538.08	39292.91
538.25	39056.52
538.42	39175.89
538.59	39683.78
538.75	39421.64
538.92	38946.51
539.09	39512.92
539.26	39524.63
539.43	39866.34
539.60	39519.95
539.77	39414.62
539.94	39709.53
540.11	39646.33
540.28	39222.70
540.44	39679.10
540.61	39473.13
540.78	39709.53
540.95	39948.26
541.12	39456.75
541.29	39754.00
541.46	39503.56
541.62	39805.49
541.79	40250.19
541.96	39859.32
542.13	39931.88
542.30	39955.29
542.47	40275.94
542.63	40509.99
542.80	40250.19
542.97	40687.87
543.14	40980.44
543.31	40671.49
543.48	40753.41
543.64	41481.31
543.81	40741.71
543.98	41287.05
544.15	41045.97
544.32	40882.14
544.48	41397.06
544.65	40975.76
544.82	41174.70
544.99	40844.69
545.16	41027.25
545.32	40999.16
545.49	41439.18
545.66	41635.79
545.83	41151.30
546.00	41406.42
546.16	41366.63
546.33	40994.48
546.50	41027.25
546.67	41546.85
546.83	41198.11
547.00	41043.63
547.17	41214.49
547.34	41404.08
547.50	41888.57
547.67	41769.20
547.84	41219.17
548.00	41773.88
548.17	42185.82
548.34	41879.21
548.51	42096.88
548.67	41900.27
548.84	42092.19
549.01	41584.30
549.18	41680.26
549.34	42073.47
549.51	42227.95
549.68	42670.31
549.84	41715.37
550.01	42218.58
550.18	42103.90
550.34	42272.42
550.51	42092.19
550.68	42036.02
550.84	42019.64
551.01	42548.60
551.18	42082.83
551.34	42642.22
551.51	42394.12
551.68	42323.91
551.84	42628.18
552.01	42483.06
552.18	42361.36
552.34	42780.31
552.51	42958.19
552.68	42852.87
552.84	42663.28
553.01	43133.73
553.18	42710.10
553.34	42616.47
553.51	42560.30
553.67	42473.70
553.84	42749.88
554.01	42890.32
554.17	43262.46
554.34	42993.30
554.51	43040.11
554.67	43056.50
554.84	43342.04
555.00	42836.48
555.17	42682.01
555.33	42780.31
555.50	43061.18
555.67	43484.81
555.83	43194.59
556.00	43157.14
556.16	43054.15
556.33	43433.32
556.50	43328.00
556.66	43880.36
556.83	42892.66
556.99	43203.95
557.16	43346.72
557.32	43604.18
557.49	43861.64
557.65	43208.63
557.82	43430.98
557.98	43391.19
558.15	43178.20
558.32	43533.96
558.48	43512.90
558.65	43463.75
558.81	43543.33
558.98	43594.82
559.14	43447.36
559.31	43386.51
559.47	43463.75
559.64	43653.33
559.80	43824.19
559.97	44020.80
560.13	43732.91
560.30	43807.81
560.46	43782.06
560.63	43639.29
560.79	44210.38
560.96	43496.52
561.12	44217.40
561.29	44205.70
561.45	43536.30
561.61	44268.89
561.78	43763.34
561.94	43597.16
562.11	43784.40
562.27	44023.14
562.44	43910.79
562.60	43983.35
562.77	44039.52
562.93	44048.88
563.10	43971.64
563.26	44154.21
563.42	44067.61
563.59	43765.68
563.75	44072.29
563.92	44194.00
564.08	44584.86
564.24	44186.97
564.41	44694.87
564.57	44250.17
564.74	43915.47
564.90	44292.30
565.07	44289.96
565.23	44023.14
565.39	44144.84
565.56	44390.60
565.72	44233.78
565.88	44170.59
566.05	44025.48
566.21	43833.55
566.38	44076.97
566.54	44149.53
566.70	44304.00
566.87	44458.48
567.03	44470.18
567.19	44538.05
567.36	44652.74
567.52	43693.12
567.68	44126.12
567.85	44411.67
568.01	44605.93
568.17	44196.34
568.34	44488.90
568.50	44423.37
568.66	44126.12
568.83	44414.01
568.99	44006.75
569.15	44402.30
569.32	44210.38
569.48	44488.90
569.64	44825.94
569.81	44411.67
569.97	44296.98
570.13	44612.95
570.30	44165.91
570.46	44313.36
570.62	44442.09
570.78	43704.82
570.95	44238.47
571.11	44589.55
571.27	44706.57
571.43	44966.37
571.60	44683.17
571.76	44638.70
571.92	44896.16
572.09	44397.62
572.25	44568.48
572.41	44629.34
572.57	44863.39
572.74	45155.96
572.90	44772.11
573.06	44870.41
573.22	44643.38
573.38	44362.51
573.55	44435.07
573.71	44519.33
573.87	44928.92
574.03	44170.59
574.20	44900.84
574.36	44847.00
574.52	44718.28
574.68	44362.51
574.84	45137.23
575.01	44289.96
575.17	44755.72
575.33	44554.44
575.49	44786.15
575.65	44954.67
575.82	44947.65
575.98	45151.27
576.14	44973.39
576.30	44685.51
576.46	44350.81
576.62	44533.37
576.79	44758.06
576.95	44566.14
577.11	44458.48
577.27	44987.44
577.43	45099.78
577.59	44804.88
577.75	44804.88
577.92	44531.03
578.08	44018.46
578.24	44156.55
578.40	44849.35
578.56	45104.46
578.72	44837.64
578.88	45055.31
579.04	45048.29
579.21	44832.96
579.37	44914.88
579.53	45057.65
579.69	44582.52
579.85	44744.02
580.01	45221.49
580.17	44729.98
580.33	45090.42
580.49	45343.20
580.65	44935.95
580.82	44650.40
580.98	44692.53
581.14	44435.07
581.30	45067.02
581.46	44989.78
581.62	44809.56
581.78	44856.37
581.94	45226.17
582.10	45097.44
582.26	44811.90
582.42	44921.90
582.58	45076.38
582.74	44856.37
582.90	44680.83
583.06	45006.16
583.22	45324.47
583.38	45088.08
583.54	45074.04
583.70	45067.02
583.86	44987.44
584.02	44601.25
584.18	44673.81
584.34	45223.83
584.50	44910.20
584.66	45022.54
584.82	44994.46
584.98	44926.58
585.14	44825.94
585.30	45057.65
585.46	44861.05
585.62	45375.97
585.78	44811.90
585.94	44795.51
586.10	44591.89
586.26	44896.16
586.42	45200.43
586.58	44992.12
586.74	45045.95
586.90	44690.19
587.06	44605.93
587.22	45233.19
587.38	44591.89
587.54	44924.24
587.70	45153.62
587.86	45333.84
588.02	45045.95
588.18	45099.78
588.34	45116.17
588.49	44788.49
588.65	44479.54
588.81	44116.76
588.97	45045.95
589.13	44519.33
589.29	44774.45
589.45	44847.00
589.61	45109.14
589.77	45453.20
589.93	44940.63
590.08	45415.76
590.24	45336.18
590.40	45235.53
590.56	44999.14
590.72	45198.09
590.88	44989.78
591.04	45137.23
591.20	45769.18
591.35	45177.02
591.51	45443.84
591.67	45317.45
591.83	45003.82
591.99	45289.37
592.15	44942.97
592.31	45326.81
592.46	45071.70
592.62	44952.33
592.78	45067.02
592.94	44999.14
593.10	44910.20
593.26	45237.87
593.41	45048.29
593.57	45071.70
593.73	45172.34
593.89	45504.70
594.05	44797.85
594.20	45109.14
594.36	45453.20
594.52	45148.93
594.68	45310.43
594.84	45181.70
594.99	45626.40
595.15	45544.48
595.31	45441.50
595.47	45593.64
595.62	45635.77
595.78	45432.14
595.94	45251.92
596.10	45680.24
596.25	45448.52
596.41	45535.12
596.57	45038.93
596.73	45198.09
596.88	45291.71
597.04	45228.51
597.20	45478.95
597.36	45268.30
597.51	45488.31
597.67	45492.99
597.83	45488.31
597.99	45820.67
598.14	45783.22
598.30	45006.16
598.46	45558.53
598.61	45233.19
598.77	45076.38
598.93	45507.04
599.09	45415.76
599.24	45769.18
599.40	45560.87
599.56	45750.45
599.71	45422.78
599.87	45595.98
600.03	45556.19
600.18	45223.83
600.34	44985.10
600.50	45242.56
600.65	44772.11
600.81	45621.72
600.97	45605.34
601.12	45523.42
601.28	45514.06
601.44	45059.99
601.59	45132.55
601.75	45099.78
601.91	45338.52
602.06	45113.83
602.22	45385.33
602.37	45191.06
602.53	45343.20
602.69	46117.92
602.84	45879.18
603.00	45457.88
603.16	44968.71
603.31	45247.24
603.47	45294.05
603.62	45085.74
603.78	45605.34
603.94	45317.45
604.09	45455.54
604.25	45502.35
604.40	45359.58
604.56	45455.54
604.71	45500.01
604.87	45537.46
605.03	45373.63
605.18	45242.56
605.34	45151.27
605.49	45476.61
605.65	45525.76
605.80	45263.62
605.96	45567.89
606.12	45352.56
606.27	45710.66
606.43	44741.68
606.58	45677.90
606.74	44877.43
606.89	45200.43
607.05	44814.24
607.20	45069.36
607.36	45059.99
607.51	45331.50
607.67	45207.45
607.82	44926.58
607.98	45282.34
608.13	44994.46
608.29	45125.53
608.44	44832.96
608.60	44594.23
608.75	44502.95
608.91	44615.29
609.06	44526.35
609.22	45361.92
609.37	44900.84
609.53	44818.92
609.68	45301.07
609.84	44807.22
609.99	44737.00
610.15	44835.30
610.30	44774.45
610.46	44535.71
610.61	44797.85
610.76	45116.17
610.92	44802.53
611.07	44769.77
611.23	44807.22
611.38	44507.63
611.54	44898.50
611.69	44442.09
611.84	44519.33
612.00	44360.17
612.15	44603.59
612.31	44814.24
612.46	44690.19
612.62	44760.40
612.77	44582.52
612.92	44531.03
613.08	44406.98
613.23	44512.31
613.39	44603.59
613.54	44346.13
613.69	44264.21
613.85	44512.31
614.00	44411.67
614.15	44404.64
614.31	44296.98
614.46	44744.02
614.62	44570.82
614.77	44025.48
614.92	44264.21
615.08	44034.84
615.23	44186.97
615.38	44484.22
615.54	44238.47
615.69	44144.84
615.84	43709.50
616.00	43868.66
616.15	44011.43
616.30	43945.90
616.46	43690.78
616.61	43950.58
616.76	44130.80
616.92	43629.93
617.07	44144.84
617.22	43997.39
617.37	43833.55
617.53	43922.49
617.68	43672.06
617.83	44002.07
617.99	43962.28
618.14	44137.82
618.29	43973.98
618.45	43634.61
618.60	43910.79
618.75	43737.59
618.90	44287.62
619.06	43828.87
619.21	43517.58
619.36	44105.06
619.51	43819.51
619.67	43634.61
619.82	43913.13
619.97	43847.60
620.12	43030.75
620.28	43007.34
620.43	43601.84
620.58	43400.55
620.73	43423.96
620.89	43531.62
621.04	43398.21
621.19	43349.06
621.34	43388.85
621.49	42873.93
621.65	43049.47
621.80	43335.02
621.95	43264.80
622.10	43505.88
622.25	42710.10
622.41	43054.15
622.56	43220.33
622.71	43239.06
622.86	42937.13
623.01	42979.26
623.16	43264.80
623.32	43246.08
623.47	43318.64
623.62	43578.43
623.77	43239.06
623.92	42616.47
624.07	42862.23
624.23	42609.45
624.38	42944.15
624.53	42831.80
624.68	42787.33
624.83	43026.07
624.98	42906.70
625.13	42646.90
625.29	43009.68
625.44	42394.12
625.59	42649.24
625.74	42286.46
625.89	42506.47
626.04	42335.61
626.19	42052.41
626.34	42682.01
626.49	42546.26
626.65	42602.43
626.80	42480.72
626.95	42429.23
627.10	42667.97
627.25	42232.63
627.40	42068.79
627.55	42153.05
627.70	41804.31
627.85	42124.96
628.00	42131.98
628.15	42162.41
628.30	42085.17
628.45	42424.55
628.60	42572.00
628.76	42124.96
628.91	42401.14
629.06	42389.44
629.21	41963.46
629.36	41635.79
629.51	41816.01
629.66	41993.89
629.81	41937.72
629.96	41991.55
630.11	41972.83
630.26	42164.75
630.41	41869.84
630.56	41794.95
630.71	41923.68
630.86	41514.08
631.01	41619.41
631.16	41879.21
631.31	41476.63
631.46	41104.49
631.61	41027.25
631.76	41361.95
631.91	42071.13
632.06	41170.02
632.21	41610.04
632.36	41741.11
632.51	41221.52
632.66	41603.02
632.81	41212.15
632.96	41223.86
633.10	41188.75
633.25	40975.76
633.40	41303.43
633.55	41394.71
633.70	41551.53
633.85	41062.36
634.00	41163.00
634.15	41045.97
634.30	41249.60
634.45	40907.88
634.60	41268.33
634.75	41205.13
634.90	40795.54
635.05	41214.49
635.19	40847.03
635.34	41338.54
635.49	40891.50
635.64	40421.05
635.79	40737.02
635.94	40554.46
636.09	41020.23
636.24	40720.64
636.39	40285.30
636.53	40488.93
636.68	40355.52
636.83	40751.07
636.98	40465.52
637.13	40369.56
637.28	40755.75
637.43	40650.42
637.57	40863.41
637.72	40641.06
637.87	40334.45
638.02	40676.17
638.17	40079.33
638.32	39882.73
638.46	39955.29
638.61	40399.99
638.76	39889.75
638.91	39920.18
639.06	40163.59
639.20	40512.33
639.35	40140.19
639.50	40425.73
639.65	40498.29
639.80	40957.03
639.94	40187.00
640.09	39824.22
640.24	39800.81
640.39	39847.62
640.54	39728.25
640.68	40011.46
640.83	40016.14
640.98	39903.79
641.13	39805.49
641.27	40158.91
641.42	39676.76
641.57	40161.25
641.72	40144.87
641.86	40081.67
642.01	39856.98
642.16	39608.89
642.31	39379.51
642.45	39395.90
642.60	39512.92
642.75	39496.54
642.90	39751.66
643.04	39281.21
643.19	39124.40
643.34	39489.52
643.48	39651.02
643.63	39330.36
643.78	39037.80
643.93	39136.10
644.07	38974.60
644.22	39157.16
644.37	39622.93
644.51	39241.42
644.66	39292.91
644.81	39150.14
644.95	39077.58
645.10	39365.47
645.25	39721.23
645.39	39482.50
645.54	39358.45
645.69	39206.31
645.83	39122.05
645.98	38974.60
646.13	38995.67
646.27	39447.39
646.42	39501.22
646.57	39339.72
646.71	38841.19
646.86	39393.56
647.00	38930.13
647.15	39276.53
647.30	39229.72
647.44	39290.57
647.59	38890.34
647.74	38604.80
647.88	38845.87
648.03	38593.09
648.17	39086.95
648.32	38387.13
648.47	38845.87
648.61	38120.31
648.76	39061.20
648.90	38862.26
649.05	38986.30
649.20	38883.32
649.34	38785.02
649.49	38623.52
649.63	37919.02
649.78	38740.55
649.92	38171.80
650.07	38195.20
650.21	38756.93
650.36	38443.30
650.51	38469.04
650.65	39084.61
650.80	38998.01
650.94	38281.80
651.09	38616.50
651.23	38218.61
651.38	38396.49
651.52	38096.90
651.67	38101.58
651.81	38429.26
651.96	37968.17
652.10	37759.86
652.25	37848.80
652.39	38031.36
652.54	37977.53
652.68	38576.71
652.83	38115.62
652.97	38492.45
653.12	38597.77
653.26	37855.82
653.41	37895.61
653.55	38146.05
653.70	37722.41
653.84	38059.45
653.99	37909.66
654.13	37825.40
654.27	37453.25
654.42	37883.91
654.56	37689.65
654.71	38040.73
654.85	37954.13
655.00	37394.74
655.14	38054.77
655.29	37411.12
655.43	37378.36
655.57	37275.37
655.72	37221.54
655.86	37242.60
656.01	37455.59
656.15	37462.61
656.30	37130.26
656.44	37195.79
656.58	37310.48
656.73	36861.10
656.87	36713.64
657.01	36891.52
657.16	37036.64
657.30	36898.55
657.45	36596.62
657.59	36858.76
657.73	36486.61
657.88	37048.34
658.02	37148.98
658.16	37017.91
658.31	37160.69
658.45	36758.11
658.60	36879.82
658.74	37020.25
658.88	37085.79
659.03	36432.78
659.17	36776.84
659.31	36446.82
659.46	35730.62
659.60	36371.92
659.74	36308.73
659.89	36137.87
660.03	36184.68
660.17	36477.25
660.32	36425.76
660.46	36517.04
660.60	36435.12
660.74	36435.12
660.89	36645.77
661.03	35871.05
661.17	35976.37
661.32	36116.81
661.46	35896.80
661.60	35828.92
661.74	35854.67
661.89	35695.51
662.03	35704.87
662.17	35559.76
662.31	35482.52
662.46	36074.68
662.60	35644.02
662.74	35515.29
662.88	35821.90
663.03	35728.28
663.17	35131.44
663.31	35615.93
663.45	35564.44
663.60	35215.70
663.74	35316.34
663.88	35040.16
664.02	35154.85
664.17	35260.17
664.31	35030.80
664.45	34806.11
664.59	34899.73
664.73	34789.72
664.88	35175.91
665.02	34445.66
665.16	34888.03
665.30	34881.00
665.44	34775.68
665.59	34623.54
665.73	34408.22
665.87	33951.81
666.01	34836.53
666.15	34206.93
666.29	34220.97
666.44	34169.48
666.58	34380.13
666.72	34279.49
666.86	34359.06
667.00	34235.02
667.14	33865.21
667.28	33944.79
667.43	33523.49
667.57	33869.89
667.71	33649.88
667.85	33823.08
667.99	34181.18
668.13	33404.13
668.27	33734.14
668.41	33551.58
668.56	33268.37
668.70	33493.07
668.84	33539.88
668.98	33163.05
669.12	33804.36
669.26	33593.71
669.40	33195.82
669.54	33509.45
669.68	32943.04
669.82	33127.94
669.96	32896.23
670.10	32933.68
670.25	32936.02
670.39	33130.28
670.53	32711.33
670.67	32790.91
670.81	33198.16
670.95	32793.25
671.09	32748.78
671.23	32755.80
671.37	32847.08
671.51	32453.87
671.65	32318.12
671.79	32320.46
671.93	31751.71
672.07	32603.66
672.21	32287.69
672.35	32194.07
672.49	32165.98
672.63	32105.13
672.77	31817.24
672.91	31721.28
673.05	31536.38
673.19	31566.81
673.33	31496.59
673.47	31543.40
673.61	31377.22
673.75	31147.85
673.89	31187.64
674.03	30885.71
674.17	31215.72
674.31	31197.00
674.45	30756.98
674.59	31122.10
674.73	30960.61
674.87	30953.58
675.01	30735.92
675.15	30707.83
675.29	31197.00
675.43	30672.72
675.56	30991.03
675.70	30422.28
675.84	30415.26
675.98	29685.01
676.12	30192.91
676.26	30373.13
676.40	29663.95
676.54	29607.78
676.68	29888.64
676.82	29404.15
676.96	29640.54
677.10	29731.83
677.23	29200.52
677.37	29626.50
677.51	29205.20
677.65	29486.07
677.79	29132.65
677.93	29422.87
678.07	28987.53
678.21	28837.74
678.34	29137.33
678.48	28917.32
678.62	28980.51
678.76	28294.74
678.90	28486.66
679.04	28535.81
679.18	28285.37
679.31	27882.80
679.45	28114.52
679.59	27866.42
679.73	27777.48
679.87	28250.27
680.00	27852.38
680.14	27655.77
680.28	27431.08
680.42	27618.32
680.56	27321.07
680.70	27349.16
680.83	27234.47
680.97	26974.67
681.11	27049.57
681.25	26925.52
681.39	27063.61
681.52	27030.85
681.66	26827.22
681.80	27047.23
681.94	26625.93
682.07	26855.31
682.21	26436.35
682.35	26242.09
682.49	26635.30
682.62	26251.45
682.76	26012.71
682.90	25947.18
683.04	26033.78
683.17	26192.94
683.31	25706.10
683.45	25919.09
683.59	25689.72
683.72	25539.93
683.86	25149.06
684.00	25453.33
684.13	25418.22
684.27	25799.73
684.41	25139.69
684.55	25088.20
684.68	24903.30
684.82	24854.15
684.96	24437.53
685.09	24945.43
685.23	24744.14
685.37	24779.25
685.50	24311.14
685.64	24247.95
685.78	24505.41
685.91	24210.50
686.05	24250.29
686.19	23838.36
686.32	24154.33
686.46	23630.05
686.60	23433.44
686.73	23229.82
686.87	23255.56
687.01	23400.68
687.14	23421.74
687.28	23199.39
687.42	23143.22
687.55	22951.29
687.69	23012.15
687.82	22927.89
687.96	23002.78
688.10	22757.03
688.23	22899.80
688.37	22326.37
688.50	22384.88
688.64	22651.70
688.78	22443.40
688.91	22370.84
689.05	22106.36
689.18	22204.66
689.32	21979.97
689.46	22314.67
689.59	22097.00
689.73	22033.80
689.86	21965.93
690.00	21729.53
690.13	21717.83
690.27	21638.25
690.41	21783.37
690.54	21207.59
690.68	21102.27
690.81	21207.59
690.95	20931.41
691.08	21317.60
691.22	21006.31
691.35	20945.45
691.49	21163.12
691.62	21317.60
691.76	20947.79
691.89	20842.47
692.03	20549.90
692.16	20353.30
692.30	20266.70
692.43	20320.53
692.57	20404.79
692.70	20222.23
692.84	20290.10
692.97	19981.15
693.11	20133.29
693.24	19648.80
693.38	20009.24
693.51	19571.56
693.65	19470.92
693.78	19548.15
693.92	19681.56
694.05	19538.79
694.19	19276.65
694.32	19192.39
694.45	19187.71
694.59	19066.00
694.72	18965.36
694.86	18764.07
694.99	18853.02
695.13	18700.88
695.26	18583.85
695.39	18375.55
695.53	18703.22
695.66	18267.88
695.80	18677.48
695.93	18242.14
696.07	17886.37
696.20	18242.14
696.33	18391.93
696.47	18216.39
696.60	18010.42
696.73	17916.80
696.87	17940.21
697.00	17935.53
697.14	17792.75
697.27	17767.01
697.40	17521.25
697.54	17352.73
697.67	17392.52
697.80	17497.84
697.94	17242.73
698.07	17439.33
698.21	17097.61
698.34	17212.30
698.47	17249.75
698.61	16753.55
698.74	16540.57
698.87	16496.10
699.01	16556.95
699.14	16355.66
699.27	16240.98
699.40	16301.83
699.54	15971.82
699.67	16350.98
699.80	15981.18
699.94	16187.14
700.07	16093.52
700.20	15913.30
700.34	15960.11
700.47	15850.11
700.60	15950.75
700.73	15859.47
700.87	15770.53
701.00	15660.52
701.13	15669.89
701.26	15363.28
701.40	15363.28
701.53	15330.51
701.66	15295.40
701.79	15405.41
701.93	14911.55
702.06	14817.93
702.19	15190.08
702.32	14970.07
702.46	14911.55
702.59	14794.53
702.72	14831.97
702.85	14869.42
702.99	14682.18
703.12	14572.18
703.25	14686.86
703.38	14750.06
703.51	14317.06
703.65	14293.65
703.78	14169.60
703.91	14190.67
704.04	14298.33
704.17	14256.20
704.31	13937.89
704.44	13771.71
704.57	13694.47
704.70	13584.47
704.83	13659.37
704.96	13654.69
705.10	13675.75
705.23	13682.77
>>>>>End Processed Spectral Data<<<<<
