SpectraSuite Data File
++++++++++++++++++++++++++++++++++++
Date: Fri Oct 25 11:34:29 EDT 2013
User: price-jones
Dark Spectrum Present: No
Reference Spectrum Present: No
Number of Sampled Component Spectra: 1
Spectrometers: USB2+H05261
Integration Time (usec): 100000 (USB2+H05261)
Spectra Averaged: 1 (USB2+H05261)
Boxcar Smoothing: 0 (USB2+H05261)
Correct for Electrical Dark: No (USB2+H05261)
Strobe/Lamp Enabled: No (USB2+H05261)
Correct for Detector Non-linearity: No (USB2+H05261)
Correct for Stray Light: No (USB2+H05261)
Number of Pixels in Processed Spectrum: 2048
>>>>>Begin Processed Spectral Data<<<<<
365.73	292.57
365.92	292.57
366.12	292.57
366.32	271.50
366.52	187.24
366.72	205.97
366.91	152.13
367.11	128.73
367.31	215.33
367.51	229.37
367.70	203.63
367.90	210.65
368.10	224.69
368.30	156.82
368.49	248.10
368.69	217.67
368.89	189.58
369.09	229.37
369.28	187.24
369.48	234.05
369.68	217.67
369.87	161.50
370.07	271.50
370.27	311.29
370.47	271.50
370.66	477.47
370.86	547.69
371.06	528.96
371.25	510.24
371.45	489.17
371.65	547.69
371.84	603.86
372.04	552.37
372.24	526.62
372.44	578.11
372.63	648.33
372.83	645.99
373.03	676.41
373.22	540.66
373.42	500.87
373.62	645.99
373.81	615.56
374.01	629.60
374.21	631.94
374.40	608.54
374.60	627.26
374.79	617.90
374.99	662.37
375.19	669.39
375.38	596.84
375.58	671.73
375.78	655.35
375.97	660.03
376.17	615.56
376.37	704.50
376.56	685.78
376.76	683.44
376.95	655.35
377.15	692.80
377.35	718.54
377.54	751.31
377.74	685.78
377.93	713.86
378.13	699.82
378.33	662.37
378.52	723.23
378.72	725.57
378.91	660.03
379.11	685.78
379.31	725.57
379.50	669.39
379.70	695.14
379.89	648.33
380.09	702.16
380.28	732.59
380.48	678.76
380.68	711.52
380.87	695.14
381.07	697.48
381.26	819.19
381.46	807.48
381.65	674.07
381.85	758.33
382.04	748.97
382.24	772.38
382.43	807.48
382.63	755.99
382.83	709.18
383.02	699.82
383.22	800.46
383.41	755.99
383.61	791.10
383.80	849.61
384.00	828.55
384.19	795.78
384.39	877.70
384.58	870.68
384.78	837.91
384.97	823.87
385.17	835.57
385.36	772.38
385.56	772.38
385.75	870.68
385.95	798.12
386.14	882.38
386.34	854.30
386.53	854.30
386.72	837.91
386.92	826.21
387.11	873.02
387.31	851.96
387.50	856.64
387.70	875.36
387.89	898.77
388.09	964.30
388.28	847.27
388.48	835.57
388.67	964.30
388.86	861.32
389.06	835.57
389.25	891.74
389.45	903.45
389.64	978.34
389.84	926.85
390.03	917.49
390.22	924.51
390.42	938.55
390.61	924.51
390.81	905.79
391.00	917.49
391.19	1064.94
391.39	936.21
391.58	947.92
391.78	931.53
391.97	957.28
392.16	1015.79
392.36	1008.77
392.55	999.41
392.75	1149.20
392.94	1011.11
393.13	1039.20
393.33	1078.99
393.52	1004.09
393.71	1097.71
393.91	1067.28
394.10	1064.94
394.29	1053.24
394.49	1027.50
394.68	1121.12
394.88	1167.93
395.07	1114.10
395.26	1123.46
395.46	1135.16
395.65	1123.46
395.84	1114.10
396.04	1200.69
396.23	1226.44
396.42	1151.54
396.62	1228.78
396.81	1284.95
397.00	1219.42
397.19	1118.78
397.39	1214.74
397.58	1203.04
397.77	1196.01
397.97	1270.91
398.16	1205.38
398.35	1282.61
398.55	1350.49
398.74	1212.40
398.93	1313.04
399.12	1289.64
399.32	1240.48
399.51	1261.55
399.70	1376.24
399.90	1224.10
400.09	1334.11
400.28	1413.68
400.47	1451.13
400.67	1376.24
400.86	1306.02
401.05	1308.36
401.24	1296.66
401.44	1460.49
401.63	1362.19
401.82	1338.79
402.01	1380.92
402.21	1416.02
402.40	1399.64
402.59	1490.92
402.78	1432.41
402.97	1404.32
403.17	1507.30
403.36	1469.86
403.55	1528.37
403.74	1521.35
403.93	1556.46
404.13	1507.30
404.32	1502.62
404.51	1598.59
404.70	1528.37
404.89	1626.67
405.09	1556.46
405.28	1598.59
405.47	1582.20
405.66	1727.32
405.85	1659.44
406.05	1680.50
406.24	1647.74
406.43	1638.38
406.62	1629.01
406.81	1806.89
407.00	1710.93
407.20	1741.36
407.39	1717.95
407.58	1734.34
407.77	1816.26
407.96	1856.04
408.15	1886.47
408.34	1806.89
408.54	1858.39
408.73	1834.98
408.92	1956.69
409.11	1884.13
409.30	1975.41
409.49	2010.52
409.68	1874.77
409.87	1912.22
410.07	1921.58
410.26	1921.58
410.45	1944.99
410.64	2010.52
410.83	1994.14
411.02	2033.93
411.21	2122.87
411.40	2076.06
411.59	2122.87
411.78	2197.76
411.98	2064.35
412.17	2146.27
412.36	2094.78
412.55	2209.47
412.74	2312.45
412.93	2333.51
413.12	2160.31
413.31	2387.35
413.50	2305.43
413.69	2427.14
413.88	2480.97
414.07	2420.11
414.26	2370.96
414.45	2331.17
414.64	2413.09
414.83	2363.94
415.02	2462.24
415.22	2413.09
415.41	2478.63
415.60	2485.65
415.79	2654.17
415.98	2670.55
416.17	2668.21
416.36	2431.82
416.55	2555.86
416.74	2607.36
416.93	2691.62
417.12	2693.96
417.31	2712.68
417.50	2836.73
417.69	2876.52
417.88	2782.90
418.07	2764.17
418.26	2855.45
418.45	2810.98
418.64	2928.01
418.83	2906.95
419.02	2850.77
419.21	2869.50
419.39	2942.05
419.58	3030.99
419.77	2832.05
419.96	2991.20
420.15	3059.08
420.34	3038.02
420.53	3105.89
420.72	3239.30
420.91	2984.18
421.10	3117.59
421.29	3281.43
421.48	3148.02
421.67	3290.79
421.86	3148.02
422.05	3215.90
422.24	3049.72
422.43	3073.12
422.61	3241.64
422.80	3337.60
422.99	3316.54
423.18	3227.60
423.37	3155.04
423.56	3253.34
423.75	3290.79
423.94	3281.43
424.13	3131.64
424.32	3129.30
424.50	3300.16
424.69	3300.16
424.88	3431.23
425.07	3197.17
425.26	3234.62
425.45	3442.93
425.64	3206.53
425.83	3386.76
426.01	3234.62
426.20	3368.03
426.39	3225.26
426.58	3267.39
426.77	3440.59
426.96	3323.56
427.15	3419.52
427.33	3400.80
427.52	3375.05
427.71	3487.40
427.90	3478.04
428.09	3520.17
428.28	3555.27
428.46	3499.10
428.65	3461.65
428.84	3705.07
429.03	3569.32
429.22	3536.55
429.40	3538.89
429.59	3728.47
429.78	3522.51
429.97	3478.04
430.16	3742.52
430.34	3590.38
430.53	3775.28
430.72	3590.38
430.91	3693.37
431.10	3735.50
431.28	3709.75
431.47	3747.20
431.66	3864.22
431.85	3852.52
432.03	3894.65
432.22	3896.99
432.41	3789.33
432.60	3880.61
432.79	3985.93
432.97	3875.93
433.16	3892.31
433.35	3845.50
433.54	3861.88
433.72	4109.98
433.91	4049.13
434.10	4161.47
434.28	4004.66
434.47	4046.79
434.66	4259.78
434.85	4124.02
435.03	4205.94
435.22	4152.11
435.41	4234.03
435.59	4252.75
435.78	4259.78
435.97	4203.60
436.16	4180.20
436.34	4292.54
436.53	4269.14
436.72	4379.14
436.90	4318.29
437.09	4360.42
437.28	4227.01
437.46	4292.54
437.65	4430.63
437.84	4451.70
438.02	4386.16
438.21	4479.79
438.40	4327.65
438.58	4620.22
438.77	4704.48
438.96	4608.51
439.14	4510.21
439.33	4751.29
439.52	4723.20
439.70	4622.56
439.89	4688.09
440.08	4884.70
440.26	4812.14
440.45	4713.84
440.63	4758.31
440.82	4947.89
441.01	4954.91
441.19	4964.28
441.38	5050.88
441.57	5018.11
441.75	5167.90
441.94	5193.65
442.12	5111.73
442.31	5341.10
442.50	5121.09
442.68	5111.73
442.87	5200.67
443.05	5235.78
443.24	5228.76
443.43	5308.34
443.61	5341.10
443.80	5455.79
443.98	5160.88
444.17	5097.69
444.35	5352.81
444.54	5394.93
444.73	5387.91
444.91	5516.64
445.10	5376.21
445.28	5504.94
445.47	5399.62
445.65	5507.28
445.84	5497.92
446.02	5495.58
446.21	5458.13
446.39	5355.15
446.58	5654.73
446.77	5458.13
446.95	5404.30
447.14	5317.70
447.32	5628.99
447.51	5462.81
447.69	5633.67
447.88	5568.13
448.06	5378.55
448.25	5537.71
448.43	5472.17
448.62	5441.75
448.80	5610.26
448.99	5579.84
449.17	5589.20
449.36	5614.95
449.54	5743.67
449.73	5769.42
449.91	5750.70
450.10	5809.21
450.28	5724.95
450.46	5900.49
450.65	5743.67
450.83	5853.68
451.02	5795.17
451.20	5940.28
451.39	6029.22
451.57	6003.47
451.76	5987.09
451.94	5921.56
452.13	6113.48
452.31	5987.09
452.49	5809.21
452.68	6054.97
452.86	6001.13
453.05	6164.97
453.23	6052.63
453.42	6115.82
453.60	6040.92
453.78	6293.70
453.97	6038.58
454.15	5980.07
454.34	6193.06
454.52	6160.29
454.70	6324.13
454.89	6363.92
455.07	6188.38
455.26	6370.94
455.44	6452.86
455.62	6284.34
455.81	6340.51
455.99	6424.77
456.17	6427.11
456.36	6612.01
456.54	6525.41
456.73	6436.47
456.91	6789.89
457.09	6700.95
457.28	6843.73
457.46	6733.72
457.64	6745.42
457.83	6754.79
458.01	6565.20
458.19	6906.92
458.38	6724.36
458.56	6789.89
458.74	6895.22
458.93	6862.45
459.11	6979.48
459.29	6951.39
459.48	6890.54
459.66	7007.56
459.84	7005.22
460.03	6899.90
460.21	7082.46
460.39	7173.74
460.57	7105.87
460.76	7211.19
460.94	7178.42
461.12	7222.89
461.31	7136.29
461.49	7033.31
461.67	7098.84
461.85	7279.07
462.04	7375.03
462.22	7536.52
462.40	7330.56
462.59	7410.14
462.77	7339.92
462.95	7438.22
463.13	7461.63
463.32	7482.69
463.50	7606.74
463.68	7538.87
463.86	7466.31
464.05	7480.35
464.23	7503.76
464.41	7775.26
464.59	7433.54
464.78	7871.22
464.96	7691.00
465.14	7499.08
465.32	7714.41
465.50	7824.41
465.69	7667.60
465.87	7665.25
466.05	7700.36
466.23	7775.26
466.41	7716.75
466.60	7955.48
466.78	7751.85
466.96	7831.43
467.14	7765.90
467.32	7953.14
467.51	7943.78
467.69	7864.20
467.87	8030.38
468.05	8175.49
468.23	7934.42
468.41	7927.39
468.60	7978.89
468.78	8177.83
468.96	8088.89
469.14	8156.77
469.32	8191.88
469.50	8145.06
469.69	8236.35
469.87	8320.60
470.05	8386.14
470.23	8379.12
470.41	8491.46
470.59	8308.90
470.77	8365.07
470.95	8425.93
471.14	8526.57
471.32	8294.86
471.50	8613.17
471.68	8748.92
471.86	8538.27
472.04	8709.13
472.22	8982.98
472.40	8753.60
472.58	8861.27
472.77	8917.44
472.95	8938.51
473.13	9184.26
473.31	9022.77
473.49	8985.32
473.67	8936.17
473.85	8985.32
474.03	9121.07
474.21	9392.57
474.39	9341.08
474.57	9100.00
474.75	9563.43
474.93	9525.98
475.12	9518.96
475.30	9617.26
475.48	9696.84
475.66	9736.63
475.84	9551.73
476.02	9717.90
476.20	9863.02
476.38	9823.23
476.56	10078.35
476.74	10085.37
476.92	10076.01
477.10	10181.33
477.28	10235.16
477.46	10186.01
477.64	10289.00
477.82	10445.81
478.00	10836.68
478.18	10380.28
478.36	10647.10
478.54	10682.20
478.72	10689.23
478.90	10953.71
479.08	10874.13
479.26	11110.52
479.44	11407.77
479.62	11215.85
479.80	11154.99
479.98	11639.48
480.16	11812.68
480.34	11590.33
480.52	11473.31
480.70	11737.79
480.88	11747.15
481.06	11793.96
481.24	11925.03
481.41	12100.57
481.59	12025.67
481.77	12304.20
481.95	12280.79
482.13	12432.93
482.31	12442.29
482.49	12636.55
482.67	12587.40
482.85	12755.92
483.03	13046.15
483.21	13081.25
483.39	12999.34
483.57	12971.25
483.74	13373.82
483.92	13362.12
484.10	13413.61
484.28	13748.31
484.46	14064.28
484.64	14127.47
484.82	13930.87
485.00	13984.70
485.18	14253.86
485.35	14478.55
485.53	14183.65
485.71	14398.98
485.89	14597.92
486.07	14754.74
486.25	14754.74
486.43	14822.61
486.61	15002.83
486.78	14714.95
486.96	15070.71
487.14	15190.08
487.32	15660.52
487.50	15529.45
487.68	15604.35
487.85	15810.32
488.03	15737.76
488.21	16257.36
488.39	16528.86
488.57	16318.22
488.75	16475.03
488.92	16744.19
489.10	16744.19
489.28	16868.24
489.46	17029.74
489.64	16769.94
489.81	17097.61
489.99	16968.88
490.17	17619.55
490.35	17764.67
490.53	17530.61
490.70	17659.34
490.88	17832.54
491.06	17972.97
491.24	17944.89
491.41	18214.05
491.59	18253.84
491.77	18349.80
491.95	18546.40
492.13	18569.81
492.30	18827.27
492.48	18850.67
492.66	18827.27
492.84	18906.85
493.01	19110.47
493.19	19063.66
493.37	19374.95
493.54	19536.45
493.72	19674.54
493.90	19557.52
494.08	19807.95
494.25	19810.29
494.43	20074.77
494.61	20285.42
494.79	19913.28
494.96	20315.85
495.14	20449.26
495.32	20819.07
495.49	20596.71
495.67	20725.44
495.85	20896.30
496.02	21057.80
496.20	21301.22
496.38	21565.70
496.55	21352.71
496.73	21916.78
496.91	21376.11
497.09	21563.36
497.26	21916.78
497.44	22089.98
497.62	21970.61
497.79	22293.60
497.97	22104.02
498.14	22169.55
498.32	22434.03
498.50	22801.50
498.67	22867.03
498.85	22806.18
499.03	22885.76
499.20	23023.85
499.38	22923.21
499.56	22986.40
499.73	23225.14
499.91	23342.16
500.08	23590.26
500.26	23131.51
500.44	23475.57
500.61	23821.97
500.79	23339.82
500.97	23828.99
501.14	24088.79
501.32	24020.92
501.49	24278.38
501.67	24374.34
501.84	24533.50
502.02	24463.28
502.20	24807.34
502.37	24425.83
502.55	24748.82
502.72	24652.86
502.90	24444.56
503.07	24634.14
503.25	24741.80
503.43	24847.13
503.60	24879.89
503.78	24900.96
503.95	25315.23
504.13	24980.54
504.30	25696.74
504.48	25139.69
504.65	25385.45
504.83	25876.96
505.01	25862.92
505.18	25883.98
505.36	26089.95
505.53	26092.29
505.71	26363.79
505.88	25764.62
506.06	26316.98
506.23	26066.55
506.41	26188.25
506.58	26256.13
506.76	26216.34
506.93	26197.62
507.11	26356.77
507.28	26944.25
507.46	26906.80
507.63	27063.61
507.81	27199.37
507.98	27187.66
508.16	26939.57
508.33	27393.63
508.50	27199.37
508.68	27393.63
508.85	27573.85
509.03	27545.76
509.20	27531.72
509.38	27843.01
509.55	28037.28
509.73	28058.34
509.90	28339.21
510.08	27873.44
510.25	28070.04
510.42	28191.75
510.60	28470.28
510.77	28325.16
510.95	28587.30
511.12	28212.82
511.30	28318.14
511.47	28292.40
511.64	28797.95
511.82	29184.14
511.99	28524.11
512.17	28975.83
512.34	28802.63
512.51	29083.50
512.69	29338.62
512.86	29390.11
513.04	29577.35
513.21	29605.44
513.38	29586.71
513.56	29706.08
513.73	29919.07
513.90	30054.82
514.08	29827.79
514.25	29638.20
514.43	30038.44
514.60	29839.49
514.77	29982.26
514.95	30237.38
515.12	30075.88
515.29	30082.91
515.47	30607.19
515.64	30583.78
515.81	30054.82
515.99	30796.77
516.16	30899.75
516.33	30756.98
516.51	30813.15
516.68	30998.06
516.85	30838.90
517.03	30911.46
517.20	31082.31
517.37	31005.08
517.54	31166.57
517.72	31606.59
517.89	31370.20
518.06	31480.21
518.24	31098.70
518.41	30944.22
518.58	31335.09
518.75	31424.03
518.93	31917.89
519.10	31735.32
519.27	31646.38
519.45	32004.49
519.62	31955.33
519.79	32128.53
519.96	32112.15
520.14	32416.42
520.31	31721.28
520.48	32643.45
520.65	32407.06
520.83	32758.14
521.00	33001.55
521.17	32786.22
521.34	32411.74
521.52	33048.36
521.69	32826.01
521.86	32723.03
522.03	33212.20
522.20	33221.56
522.38	33523.49
522.55	33535.20
522.72	33118.58
522.89	33083.47
523.07	33755.21
523.24	33362.00
523.41	33895.64
523.58	33439.23
523.75	34026.71
523.92	33603.07
524.10	33834.78
524.27	33989.26
524.44	33806.70
524.61	33977.56
524.78	33907.34
524.96	34239.70
525.13	34129.69
525.30	34466.73
525.47	34618.86
525.64	34307.57
525.81	34263.10
525.98	34363.75
526.16	34345.02
526.33	34401.19
526.50	35117.40
526.67	34693.76
526.84	34948.88
527.01	34632.91
527.18	35157.19
527.36	35063.57
527.53	34986.33
527.70	35262.51
527.87	35143.14
528.04	35246.13
528.21	35494.22
528.38	35051.86
528.55	35498.91
528.72	35449.75
528.89	35526.99
529.07	35452.09
529.24	35304.64
529.41	35613.59
529.58	35639.34
529.75	35896.80
529.92	35508.27
530.09	35812.54
530.26	35981.06
530.43	36051.27
530.60	36018.50
530.77	35791.47
530.94	36168.30
531.11	36020.84
531.28	36297.03
531.46	36088.72
531.63	36547.47
531.80	36360.22
531.97	36217.45
532.14	36266.60
532.31	36538.10
532.48	36781.52
532.65	36816.63
532.82	36825.99
532.99	36629.38
533.16	36486.61
533.33	36580.23
533.50	36851.73
533.67	37067.06
533.84	36620.02
534.01	37233.24
534.18	36723.01
534.35	37244.94
534.52	37001.53
534.69	37586.66
534.86	37383.04
535.03	37148.98
535.20	37727.10
535.37	37251.97
535.54	37654.54
535.71	37488.36
535.88	37741.14
536.05	37787.95
536.22	37809.01
536.38	38040.73
536.55	38195.20
536.72	37837.10
536.89	38433.94
537.06	37975.19
537.23	38230.31
537.40	37682.62
537.57	37518.79
537.74	37916.68
537.91	38464.36
538.08	37954.13
538.25	37799.65
538.42	38321.59
538.59	38370.74
538.75	38239.67
538.92	38593.09
539.09	38490.11
539.26	38417.55
539.43	38866.94
539.60	38618.84
539.77	38258.40
539.94	38843.53
540.11	39005.03
540.28	38749.91
540.44	38941.83
540.61	38944.17
540.78	38459.68
540.95	39075.24
541.12	38873.96
541.29	38986.30
541.46	39133.76
541.62	39061.20
541.79	38981.62
541.96	38649.27
542.13	38953.54
542.30	39461.43
542.47	39236.74
542.63	39683.78
542.80	39456.75
542.97	39798.47
543.14	39627.61
543.31	40025.50
543.48	39962.31
543.64	40280.62
543.81	39941.24
543.98	40355.52
544.15	39882.73
544.32	40254.87
544.48	40580.21
544.65	40512.33
544.82	40371.90
544.99	40641.06
545.16	40437.44
545.32	39856.98
545.49	40730.00
545.66	40854.05
545.83	40638.72
546.00	40605.95
546.16	40505.31
546.33	40802.56
546.50	40802.56
546.67	40582.55
546.83	40449.14
547.00	40786.18
547.17	40374.24
547.34	40737.02
547.50	41291.73
547.67	41125.55
547.84	40985.12
548.00	40737.02
548.17	41500.04
548.34	40762.77
548.51	41081.08
548.67	41385.35
548.84	41104.49
549.01	41003.85
549.18	41254.28
549.34	41621.75
549.51	41380.67
549.68	41460.25
549.84	41478.97
550.01	41605.36
550.18	41588.98
550.34	41324.50
550.51	41469.61
550.68	41996.23
550.84	41635.79
551.01	41624.09
551.18	41654.51
551.34	41883.89
551.51	41940.06
551.68	41818.35
551.84	41895.59
552.01	42101.56
552.18	42040.70
552.34	42068.79
552.51	42148.37
552.68	42068.79
552.84	41694.30
553.01	42204.54
553.18	42195.18
553.34	42059.43
553.51	42021.98
553.67	42351.99
553.84	41963.46
554.01	42356.67
554.17	42286.46
554.34	42705.41
554.51	42459.66
554.67	43056.50
554.84	42487.74
555.00	42494.77
555.17	41787.92
555.33	42885.64
555.50	42684.35
555.67	42651.58
555.83	42747.54
556.00	42822.44
556.16	43014.37
556.33	43098.62
556.50	42859.89
556.66	42719.46
556.83	42642.22
556.99	43147.78
557.16	43138.41
557.32	42944.15
557.49	43342.04
557.65	43000.32
557.82	43253.10
557.98	43061.18
558.15	43129.05
558.32	43213.31
558.48	43138.41
558.65	42997.98
558.81	43196.93
558.98	43342.04
559.14	43164.16
559.31	42913.72
559.47	43538.65
559.64	43959.94
559.80	43316.29
559.97	43604.18
560.13	43126.71
560.30	43208.63
560.46	43374.81
560.63	43639.29
560.79	43498.86
560.96	43646.31
561.12	43405.23
561.29	43318.64
561.45	43693.12
561.61	43641.63
561.78	43543.33
561.94	43379.49
562.11	43770.36
562.27	43786.74
562.44	43625.25
562.60	43992.71
562.77	43655.67
562.93	43707.16
563.10	43903.77
563.26	43763.34
563.42	44304.00
563.59	43655.67
563.75	43309.27
563.92	43927.17
564.08	43896.75
564.24	43906.11
564.41	44147.18
564.57	43901.43
564.74	44140.16
564.90	44023.14
565.07	44205.70
565.23	43999.73
565.39	44203.36
565.56	44638.70
565.72	43999.73
565.88	44109.74
566.05	44203.36
566.21	44322.72
566.38	44137.82
566.54	44034.84
566.70	44016.11
566.87	44381.24
567.03	44154.21
567.19	44612.95
567.36	44083.99
567.52	44411.67
567.68	44509.97
567.85	44847.00
568.01	44179.95
568.17	44016.11
568.34	44648.06
568.50	44442.09
568.66	44575.50
568.83	44397.62
568.99	44409.32
569.15	44856.37
569.32	44217.40
569.48	44011.43
569.64	44538.05
569.81	44680.83
569.97	44383.58
570.13	44456.14
570.30	44051.22
570.46	44683.17
570.62	44507.63
570.78	44566.14
570.95	44037.18
571.11	44844.66
571.27	44732.32
571.43	44549.76
571.60	44451.45
571.76	44437.41
571.92	44098.03
572.09	44844.66
572.25	44463.16
572.41	44538.05
572.57	44524.01
572.74	45111.49
572.90	45048.29
573.06	45242.56
573.22	44605.93
573.38	45287.03
573.55	45151.27
573.71	45537.46
573.87	44404.64
574.03	44795.51
574.20	45195.74
574.36	44832.96
574.52	44802.53
574.68	44889.13
574.84	45148.93
575.01	45001.48
575.17	45092.76
575.33	45137.23
575.49	44905.52
575.65	45404.05
575.82	45076.38
575.98	45148.93
576.14	45319.79
576.30	45352.56
576.46	45481.29
576.62	44837.64
576.79	45083.40
576.95	44495.92
577.11	44814.24
577.27	45017.86
577.43	44889.13
577.59	44931.26
577.75	44767.43
577.92	44594.23
578.08	44938.29
578.24	45404.05
578.40	45258.94
578.56	45268.30
578.72	45123.19
578.88	45265.96
579.04	45170.00
579.21	44552.10
579.37	45067.02
579.53	45600.66
579.69	45109.14
579.85	45504.70
580.01	45518.74
580.17	45272.98
580.33	45532.78
580.49	45158.30
580.65	44968.71
580.82	44961.69
580.98	45251.92
581.14	44966.37
581.30	45146.59
581.46	44879.77
581.62	45221.49
581.78	45013.18
581.94	45453.20
582.10	45336.18
582.26	45530.44
582.42	44989.78
582.58	45483.63
582.74	45184.04
582.90	45251.92
583.06	45235.53
583.22	45144.25
583.38	45120.85
583.54	44952.33
583.70	45467.25
583.86	45834.71
584.02	45244.90
584.18	45504.70
584.34	45478.95
584.50	45436.82
584.66	45626.40
584.82	45158.30
584.98	45645.13
585.14	45549.17
585.30	45130.21
585.46	45249.58
585.62	45373.63
585.78	45111.49
585.94	45202.77
586.10	45200.43
586.26	45139.57
586.42	45518.74
586.58	45603.00
586.74	45343.20
586.90	44966.37
587.06	45425.12
587.22	45064.67
587.38	45731.73
587.54	45418.10
587.70	45420.44
587.86	45167.66
588.02	45261.28
588.18	45563.21
588.34	45485.97
588.49	45708.32
588.65	45319.79
588.81	45258.94
588.97	45729.39
589.13	45310.43
589.29	45858.12
589.45	45500.01
589.61	45446.18
589.77	45593.64
589.93	45549.17
590.08	45272.98
590.24	45886.20
590.40	45649.81
590.56	45940.04
590.72	46026.63
590.88	45504.70
591.04	45757.47
591.20	45794.92
591.35	45748.11
591.51	46230.26
591.67	46021.95
591.83	46209.20
591.99	45970.46
592.15	45565.55
592.31	45591.30
592.46	45813.65
592.62	45806.62
592.78	45982.16
592.94	46298.14
593.10	46068.76
593.26	46223.24
593.41	45738.75
593.57	46293.46
593.73	45661.51
593.89	46094.51
594.05	46164.73
594.20	46117.92
594.36	46408.14
594.52	46415.16
594.68	46026.63
594.84	46061.74
594.99	46588.36
595.15	46178.77
595.31	45780.88
595.47	45991.53
595.62	45837.05
595.78	45832.37
595.94	45556.19
596.10	45947.06
596.25	46047.70
596.41	46270.05
596.57	46108.55
596.73	46206.86
596.88	45968.12
597.04	45659.17
597.20	46270.05
597.36	46391.76
597.51	46195.15
597.67	45933.01
597.83	46185.79
597.99	46038.34
598.14	45989.19
598.30	45813.65
598.46	46141.32
598.61	46286.43
598.77	45902.59
598.93	46052.38
599.09	46153.02
599.24	46564.96
599.40	46087.49
599.56	46141.32
599.71	46469.00
599.87	46621.13
600.03	46281.75
600.18	46291.12
600.34	46131.96
600.50	46213.88
600.65	46115.58
600.81	46815.40
600.97	46260.69
601.12	46286.43
601.28	46356.65
601.44	46089.83
601.59	45954.08
601.75	46216.22
601.91	46429.21
602.06	46377.72
602.22	46246.65
602.37	46351.97
602.53	46581.34
602.69	46693.69
602.84	46138.98
603.00	46078.13
603.16	46190.47
603.31	46319.20
603.47	46183.45
603.62	46307.50
603.78	46342.61
603.94	46492.40
604.09	46417.50
604.25	45921.31
604.40	46244.30
604.56	46504.10
604.71	46450.27
604.87	46246.65
605.03	46277.07
605.18	46454.95
605.34	46649.22
605.49	45759.81
605.65	46085.15
605.80	46246.65
605.96	45799.60
606.12	46038.34
606.27	46162.39
606.43	46026.63
606.58	45797.26
606.74	46153.02
606.89	46014.93
607.05	46501.76
607.20	46185.79
607.36	45827.69
607.51	45902.59
607.67	46171.75
607.82	45977.48
607.98	46492.40
608.13	45710.66
608.29	45925.99
608.44	46164.73
608.60	46038.34
608.75	45832.37
608.91	46010.25
609.06	46103.87
609.22	46185.79
609.37	45677.90
609.53	45860.46
609.68	46057.06
609.84	45846.41
609.99	45813.65
610.15	45827.69
610.30	46176.43
610.46	45925.99
610.61	45954.08
610.76	45696.62
610.92	45577.25
611.07	45837.05
611.23	45588.95
611.38	46033.66
611.54	46384.74
611.69	45893.22
611.84	46010.25
612.00	45427.46
612.15	46021.95
612.31	45858.12
612.46	45397.03
612.62	45656.83
612.77	45521.08
612.92	46080.47
613.08	45418.10
613.23	45830.03
613.39	45848.75
613.54	45588.95
613.69	45434.48
613.85	45450.86
614.00	45357.24
614.15	45605.34
614.31	45504.70
614.46	45282.34
614.62	45462.57
614.77	45268.30
614.92	45359.58
615.08	45581.93
615.23	46099.19
615.38	45425.12
615.54	45521.08
615.69	45408.73
615.84	45174.68
616.00	45734.07
616.15	45511.72
616.30	45193.40
616.46	45317.45
616.61	45223.83
616.76	45588.95
616.92	45514.06
617.07	45586.61
617.22	45006.16
617.37	45333.84
617.53	45371.28
617.68	45181.70
617.83	45151.27
617.99	45261.28
618.14	45338.52
618.29	44751.04
618.45	44437.41
618.60	44617.63
618.75	44931.26
618.90	44657.42
619.06	45429.80
619.21	44966.37
619.36	45317.45
619.51	44603.59
619.67	44968.71
619.82	44987.44
619.97	45057.65
620.12	44884.45
620.28	44776.79
620.43	45001.48
620.58	45539.80
620.73	45212.13
620.89	44800.19
621.04	45242.56
621.19	44903.18
621.34	44748.70
621.49	44383.58
621.65	44486.56
621.80	45006.16
621.95	44807.22
622.10	45038.93
622.25	44568.48
622.41	44406.98
622.56	44666.78
622.71	44751.04
622.86	44561.46
623.01	44907.86
623.16	44861.05
623.32	44589.55
623.47	44603.59
623.62	44601.25
623.77	44776.79
623.92	44505.29
624.07	44182.29
624.23	44804.88
624.38	44416.35
624.53	44662.10
624.68	43889.73
624.83	44238.47
624.98	44083.99
625.13	43861.64
625.29	43868.66
625.44	44498.26
625.59	43831.21
625.74	44502.95
625.89	44336.77
626.04	43845.26
626.19	43981.01
626.34	43669.72
626.49	43695.46
626.65	43622.90
626.80	43910.79
626.95	43533.96
627.10	43335.02
627.25	44011.43
627.40	43894.41
627.55	44081.65
627.70	43295.23
627.85	43620.56
628.00	43718.87
628.15	44098.03
628.30	43557.37
628.45	43065.86
628.60	43260.12
628.76	43475.45
628.91	43508.22
629.06	43178.20
629.21	43171.18
629.36	43065.86
629.51	43454.39
629.66	43578.43
629.81	43442.68
629.96	43456.73
630.11	43395.87
630.26	43381.83
630.41	43213.31
630.56	43182.88
630.71	43028.41
630.86	43349.06
631.01	42866.91
631.16	43028.41
631.31	43328.00
631.46	42967.55
631.61	43655.67
631.76	43393.53
631.91	43166.50
632.06	43400.55
632.21	43552.69
632.36	43180.54
632.51	42880.95
632.66	42995.64
632.81	42918.40
632.96	42548.60
633.10	42911.38
633.25	42607.11
633.40	43000.32
633.55	42923.08
633.70	42794.36
633.85	42712.44
634.00	42731.16
634.15	42784.99
634.30	42546.26
634.45	42391.78
634.60	42848.19
634.75	42899.68
634.90	43304.59
635.05	43107.99
635.19	42658.60
635.34	42843.51
635.49	42403.49
635.64	42990.96
635.79	42801.38
635.94	42621.16
636.09	42501.79
636.24	42607.11
636.39	42344.97
636.53	42377.74
636.68	42504.13
636.83	41834.74
636.98	42227.95
637.13	42094.53
637.28	42384.76
637.43	41933.04
637.57	42398.80
637.72	41858.14
637.87	42073.47
638.02	42117.94
638.17	42139.00
638.32	42181.13
638.46	41876.86
638.61	41619.41
638.76	41373.65
638.91	41780.90
639.06	42024.32
639.20	41528.13
639.35	41993.89
639.50	41191.09
639.65	41808.99
639.80	41911.97
639.94	41916.65
640.09	41544.51
640.24	41729.41
640.39	42092.19
640.54	41518.76
640.68	41350.24
640.83	41914.31
640.98	41303.43
641.13	41275.35
641.27	41764.52
641.42	41808.99
641.57	41406.42
641.72	41703.67
641.86	41741.11
642.01	41331.52
642.16	41212.15
642.31	40556.80
642.45	41352.58
642.60	41127.89
642.75	41214.49
642.90	41345.56
643.04	41223.86
643.19	40971.08
643.34	41177.04
643.48	40985.12
643.63	41076.40
643.78	41399.40
643.93	41338.54
644.07	41284.71
644.22	41120.87
644.37	40715.96
644.51	40947.67
644.66	41184.07
644.81	41071.72
644.95	41198.11
645.10	41467.27
645.25	40999.16
645.39	41001.50
645.54	40507.65
645.69	40495.95
645.83	40545.10
645.98	40364.88
646.13	41060.02
646.27	40425.73
646.42	40645.74
646.57	40657.45
646.71	41031.93
646.86	40994.48
647.00	40898.52
647.15	40168.27
647.30	40662.13
647.44	40282.96
647.59	40364.88
647.74	40727.66
647.88	40409.35
648.03	40297.00
648.17	40535.74
648.32	40673.83
648.47	40601.27
648.61	40470.20
648.76	40809.58
648.90	40222.11
649.05	40250.19
649.20	40535.74
649.34	40311.05
649.49	40210.40
649.63	40229.13
649.78	40268.92
649.92	40350.84
650.07	40573.19
650.21	40788.52
650.36	40863.41
650.51	40680.85
650.65	40311.05
650.80	40119.12
650.94	40423.39
651.09	40336.79
651.23	39859.32
651.38	40121.46
651.52	39428.66
651.67	39732.93
651.81	39842.94
651.96	40126.14
652.10	39653.36
652.25	39438.03
652.39	39812.51
652.54	39892.09
652.68	39817.19
652.83	39604.20
652.97	40011.46
653.12	39814.85
653.26	39632.29
653.41	39840.60
653.55	39679.10
653.70	39817.19
653.84	39625.27
653.99	39761.02
654.13	39374.83
654.27	39299.94
654.42	39496.54
654.56	39697.83
654.71	39344.41
654.85	39337.38
655.00	39398.24
655.14	39683.78
655.29	39611.23
655.43	39643.99
655.57	38848.21
655.72	39431.01
655.86	38817.78
656.01	38960.56
656.15	39323.34
656.30	39145.46
656.44	39063.54
656.58	39171.21
656.73	39431.01
656.87	38836.51
657.01	38501.81
657.16	38689.06
657.30	39210.99
657.45	39161.84
657.59	38445.64
657.73	38604.80
657.88	38993.32
658.02	38792.04
658.16	38946.51
658.31	39007.37
658.45	38883.32
658.60	38583.73
658.74	39049.50
658.88	38260.74
659.03	38607.14
659.17	38471.39
659.31	38401.17
659.46	38185.84
659.60	38857.57
659.74	38136.69
659.89	37799.65
660.03	37825.40
660.17	38176.48
660.32	38237.33
660.46	37919.02
660.60	37556.24
660.74	38178.82
660.89	38085.20
661.03	37897.95
661.17	37626.45
661.32	37701.35
661.46	37596.03
661.60	37792.63
661.74	37638.15
661.89	37481.34
662.03	37567.94
662.17	37614.75
662.31	37228.56
662.46	37876.89
662.60	37436.87
662.74	37254.31
662.88	37134.94
663.03	36666.83
663.17	37001.53
663.31	36753.43
663.45	36734.71
663.60	37586.66
663.74	37193.45
663.88	36706.62
664.02	36680.88
664.17	37598.37
664.31	36713.64
664.45	36486.61
664.59	36622.36
664.73	36505.34
664.88	36659.81
665.02	36236.17
665.16	36648.11
665.30	36315.75
665.44	36804.92
665.59	35887.43
665.73	35861.69
665.87	35679.13
666.01	36280.64
666.15	35707.21
666.29	36177.66
666.44	36491.29
666.58	36161.28
666.72	35644.02
666.86	35917.86
667.00	36030.21
667.14	35529.33
667.28	35756.36
667.43	35512.95
667.57	35948.29
667.71	35262.51
667.85	35686.15
667.99	35508.27
668.13	35468.48
668.27	35316.34
668.41	35005.05
668.56	35101.01
668.70	34904.41
668.84	34871.64
668.98	35143.14
669.12	35229.74
669.26	34471.41
669.40	34658.65
669.54	34696.10
669.68	35175.91
669.82	34888.03
669.96	34213.95
670.10	34127.35
670.25	34831.85
670.39	34052.45
670.53	34330.98
670.67	34117.99
670.81	34686.74
670.95	33977.56
671.09	34281.83
671.23	34155.44
671.37	34141.39
671.51	33900.32
671.65	33287.10
671.79	34260.76
671.93	33488.38
672.07	33905.00
672.21	33858.19
672.35	33443.91
672.49	33656.90
672.63	33488.38
672.77	33214.54
672.91	33362.00
673.05	33418.17
673.19	32833.04
673.33	33141.99
673.47	33340.93
673.61	32783.88
673.75	32210.45
673.89	32559.19
674.03	32297.05
674.17	32416.42
674.31	32283.01
674.45	32362.59
674.59	32652.81
674.73	32142.58
674.87	32105.13
675.01	32121.51
675.15	31824.26
675.29	32004.49
675.43	31899.16
675.56	31791.50
675.70	32030.23
675.84	31548.08
675.98	30616.55
676.12	31873.42
676.26	31316.37
676.40	31087.00
676.54	31288.28
676.68	30897.41
676.82	30431.65
676.96	31035.50
677.10	30925.50
677.23	30686.76
677.37	30611.87
677.51	30558.03
677.65	30764.00
677.79	30869.33
677.93	30249.08
678.07	30312.28
678.21	30047.80
678.34	29865.24
678.48	29680.33
678.62	29869.92
678.76	29659.27
678.90	29511.81
679.04	29507.13
679.18	29797.36
679.31	29427.56
679.45	29032.00
679.59	29163.08
679.73	29036.69
679.87	29181.80
680.00	28847.10
680.14	28826.04
680.28	28638.80
680.42	28811.99
680.56	28683.27
680.70	28163.67
680.83	28170.69
680.97	28479.64
681.11	28292.40
681.25	28217.50
681.39	28217.50
681.52	27569.17
681.66	27431.08
681.80	27321.07
681.94	27084.68
682.07	27058.93
682.21	27353.84
682.35	27213.41
682.49	27194.68
682.62	27049.57
682.76	27545.76
682.90	26993.40
683.04	26927.86
683.17	27138.51
683.31	26462.10
683.45	26501.89
683.59	26127.40
683.72	26218.68
683.86	26429.33
684.00	26291.24
684.13	26204.64
684.27	25921.43
684.41	25734.19
684.55	26094.63
684.68	25603.12
684.82	25790.36
684.96	25003.94
685.09	25549.29
685.23	25135.01
685.37	25785.68
685.50	25539.93
685.64	25111.61
685.78	25013.31
685.91	24697.33
686.05	24542.86
686.19	24240.93
686.32	24074.75
686.46	24432.85
686.60	23903.89
686.73	24451.58
686.87	24247.95
687.01	24236.25
687.14	24489.03
687.28	24081.77
687.42	24013.90
687.55	23943.68
687.69	23772.82
687.82	23494.30
687.96	23548.13
688.10	24041.98
688.23	23559.83
688.37	23789.20
688.50	23730.69
688.64	23241.52
688.78	23103.43
688.91	22993.42
689.05	23164.28
689.18	22752.35
689.32	22745.33
689.46	22209.34
689.59	22441.06
689.73	22607.23
689.86	22544.04
690.00	22459.78
690.13	22546.38
690.27	22162.53
690.41	22422.33
690.54	21942.52
690.68	22080.61
690.81	21792.73
690.95	21788.05
691.08	21504.84
691.22	21460.37
691.35	21186.53
691.49	21488.46
691.62	21425.26
691.76	20788.64
691.89	21135.04
692.03	20840.13
692.16	20762.89
692.30	20727.78
692.43	20772.25
692.57	20236.27
692.70	20669.27
692.84	20372.02
692.97	20264.36
693.11	20407.13
693.24	20133.29
693.38	20184.78
693.51	19803.27
693.65	20159.03
693.78	19480.28
693.92	19683.91
694.05	19543.47
694.19	19590.28
694.32	19716.67
694.45	19836.04
694.59	19421.77
694.72	19609.01
694.86	18998.13
694.99	19007.49
695.13	18787.48
695.26	18953.66
695.39	18555.77
695.53	18696.20
695.66	18583.85
695.80	18541.72
695.93	18412.99
696.07	18267.88
696.20	18064.25
696.33	18242.14
696.47	17778.71
696.60	17963.61
696.73	18223.41
696.87	17891.06
697.00	17759.98
697.14	17937.87
697.27	17687.43
697.40	17710.83
697.54	17678.07
697.67	17329.33
697.80	17329.33
697.94	17418.27
698.07	17123.36
698.21	17181.87
698.34	16931.44
698.47	17137.40
698.61	16664.61
698.74	16524.18
698.87	16655.25
699.01	16535.88
699.14	16421.20
699.27	16615.46
699.40	16442.26
699.54	16306.51
699.67	16355.66
699.80	16547.59
699.94	16315.87
700.07	16233.96
700.20	15880.53
700.34	16039.69
700.47	15712.02
700.60	15939.05
700.73	15885.22
700.87	15604.35
701.00	15442.85
701.13	15236.89
701.26	15211.14
701.40	15236.89
701.53	14981.77
701.66	14757.08
701.79	15363.28
701.93	15150.29
702.06	14822.61
702.19	14822.61
702.32	14628.35
702.46	15023.90
702.59	14583.88
702.72	14719.63
702.85	14614.30
702.99	14583.88
703.12	14417.70
703.25	14272.59
703.38	14200.03
703.51	14022.15
703.65	14181.31
703.78	14033.85
703.91	13841.93
704.04	13795.12
704.17	13621.92
704.31	13638.30
704.44	13638.30
704.57	13872.36
704.70	14068.96
704.83	13474.46
704.96	13401.91
705.10	13097.64
705.23	13343.39
>>>>>End Processed Spectral Data<<<<<
