SpectraSuite Data File
++++++++++++++++++++++++++++++++++++
Date: Fri Oct 25 10:47:29 EDT 2013
User: price-jones
Dark Spectrum Present: No
Reference Spectrum Present: No
Number of Sampled Component Spectra: 1
Spectrometers: USB2+H05261
Integration Time (usec): 100000 (USB2+H05261)
Spectra Averaged: 1 (USB2+H05261)
Boxcar Smoothing: 0 (USB2+H05261)
Correct for Electrical Dark: No (USB2+H05261)
Strobe/Lamp Enabled: No (USB2+H05261)
Correct for Detector Non-linearity: No (USB2+H05261)
Correct for Stray Light: No (USB2+H05261)
Number of Pixels in Processed Spectrum: 2048
>>>>>Begin Processed Spectral Data<<<<<
365.73	86.60
365.92	86.60
366.12	86.60
366.32	88.94
366.52	28.09
366.72	86.60
366.91	98.30
367.11	0.00
367.31	32.77
367.51	86.60
367.70	60.85
367.90	53.83
368.10	46.81
368.30	58.51
368.49	79.58
368.69	74.90
368.89	25.75
369.09	53.83
369.28	60.85
369.48	93.62
369.68	60.85
369.87	121.71
370.07	147.45
370.27	182.56
370.47	212.99
370.66	365.12
370.86	416.62
371.06	409.59
371.25	472.79
371.45	421.30
371.65	521.94
371.84	435.34
372.04	519.60
372.24	496.19
372.44	416.62
372.63	500.87
372.83	493.85
373.03	543.00
373.22	500.87
373.42	479.81
373.62	578.11
373.81	493.85
374.01	498.53
374.21	543.00
374.40	500.87
374.60	517.26
374.79	545.34
374.99	528.96
375.19	617.90
375.38	594.50
375.58	514.92
375.78	524.28
375.97	620.24
376.17	634.29
376.37	528.96
376.56	634.29
376.76	561.73
376.95	510.24
377.15	627.26
377.35	587.47
377.54	671.73
377.74	688.12
377.93	601.52
378.13	613.22
378.33	688.12
378.52	589.82
378.72	657.69
378.91	624.92
379.11	575.77
379.31	594.50
379.50	566.41
379.70	624.92
379.89	608.54
380.09	629.60
380.28	538.32
380.48	678.76
380.68	669.39
380.87	559.39
381.07	648.33
381.26	664.71
381.46	634.29
381.65	664.71
381.85	667.05
382.04	702.16
382.24	622.58
382.43	617.90
382.63	592.16
382.83	730.25
383.02	601.52
383.22	755.99
383.41	674.07
383.61	634.29
383.80	718.54
384.00	723.23
384.19	732.59
384.39	711.52
384.58	748.97
384.78	648.33
384.97	772.38
385.17	720.88
385.36	704.50
385.56	819.19
385.75	767.70
385.95	730.25
386.14	805.14
386.34	741.95
386.53	767.70
386.72	835.57
386.92	858.98
387.11	732.59
387.31	805.14
387.50	716.20
387.70	809.83
387.89	837.91
388.09	737.27
388.28	755.99
388.48	821.53
388.67	840.25
388.86	842.59
389.06	807.48
389.25	868.34
389.45	847.27
389.64	887.06
389.84	980.68
390.03	898.77
390.22	924.51
390.42	814.51
390.61	814.51
390.81	880.04
391.00	894.08
391.19	997.07
391.39	957.28
391.58	1001.75
391.78	912.81
391.97	908.13
392.16	968.98
392.36	978.34
392.55	987.71
392.75	983.02
392.94	947.92
393.13	931.53
393.33	1036.86
393.52	994.73
393.71	971.32
393.91	978.34
394.10	980.68
394.29	1064.94
394.49	917.49
394.68	1062.60
394.88	1050.90
395.07	1062.60
395.26	1135.16
395.46	1081.33
395.65	1071.97
395.84	1069.62
396.04	1090.69
396.23	1132.82
396.42	1167.93
396.62	1125.80
396.81	1118.78
397.00	1086.01
397.19	1123.46
397.39	1163.25
397.58	1193.67
397.77	1132.82
397.97	1242.82
398.16	1144.52
398.35	1196.01
398.55	1217.08
398.74	1219.42
398.93	1338.79
399.12	1364.53
399.32	1181.97
399.51	1245.16
399.70	1378.58
399.90	1355.17
400.09	1348.15
400.28	1345.81
400.47	1331.76
400.67	1369.21
400.86	1313.04
401.05	1418.36
401.24	1425.39
401.44	1504.96
401.63	1598.59
401.82	1420.71
402.01	1441.77
402.21	1507.30
402.40	1483.90
402.59	1575.18
402.78	1554.12
402.97	1511.99
403.17	1500.28
403.36	1488.58
403.55	1575.18
403.74	1600.93
403.93	1558.80
404.13	1664.12
404.32	1420.71
404.51	1668.80
404.70	1664.12
404.89	1650.08
405.09	1636.03
405.28	1771.79
405.47	1629.01
405.66	1699.23
405.85	1645.40
406.05	1682.85
406.24	1664.12
406.43	1739.02
406.62	1734.34
406.81	1746.04
407.00	1760.08
407.20	1804.55
407.39	1753.06
407.58	1823.28
407.77	1781.15
407.96	1832.64
408.15	1909.88
408.34	1952.01
408.54	1928.60
408.73	1940.30
408.92	1930.94
409.11	2017.54
409.30	1977.75
409.49	1973.07
409.68	1998.82
409.87	1926.26
410.07	1996.48
410.26	2038.61
410.45	2029.24
410.64	2113.50
410.83	2223.51
411.02	2176.70
411.21	2179.04
411.40	2174.36
411.59	2200.10
411.78	2251.60
411.98	2181.38
412.17	2223.51
412.36	2209.47
412.55	2282.02
412.74	2321.81
412.93	2342.88
413.12	2408.41
413.31	2408.41
413.50	2431.82
413.69	2455.22
413.88	2441.18
414.07	2558.21
414.26	2520.76
414.45	2476.29
414.64	2525.44
414.83	2602.68
415.02	2637.78
415.22	2619.06
415.41	2644.81
415.60	2761.83
415.79	2710.34
415.98	2724.38
416.17	2773.53
416.36	2743.11
416.55	2916.31
416.74	2906.95
416.93	2878.86
417.12	2864.82
417.31	2810.98
417.50	2920.99
417.69	3028.65
417.88	2986.52
418.07	2993.55
418.26	2949.08
418.45	3012.27
418.64	3066.10
418.83	3131.64
419.02	3208.87
419.21	3218.24
419.39	3098.87
419.58	3080.14
419.77	3108.23
419.96	3211.22
420.15	3180.79
420.34	3063.76
420.53	3138.66
420.72	3241.64
420.91	3098.87
421.10	3229.94
421.29	3169.09
421.48	3206.53
421.67	3358.67
421.86	3241.64
422.05	3187.81
422.24	3325.90
422.43	3307.18
422.61	3461.65
422.80	3379.73
422.99	3435.91
423.18	3361.01
423.37	3576.34
423.56	3393.78
423.75	3442.93
423.94	3236.96
424.13	3084.83
424.32	3243.98
424.50	3440.59
424.69	3485.06
424.88	3463.99
425.07	3384.41
425.26	3396.12
425.45	3351.65
425.64	3447.61
425.83	3389.10
426.01	3480.38
426.20	3529.53
426.39	3454.63
426.58	3370.37
426.77	3496.76
426.96	3461.65
427.15	3506.12
427.33	3623.15
427.52	3494.42
427.71	3548.25
427.90	3508.46
428.09	3613.79
428.28	3669.96
428.46	3705.07
428.65	3728.47
428.84	3761.24
429.03	3775.28
429.22	3604.42
429.40	3782.31
429.59	3791.67
429.78	3588.04
429.97	3599.74
430.16	3566.98
430.34	3812.73
430.53	3747.20
430.72	3698.05
430.91	3674.64
431.10	3889.97
431.28	3988.27
431.47	4018.70
431.66	4098.28
431.85	3969.55
432.03	4011.68
432.22	4072.53
432.41	3974.23
432.60	4210.62
432.79	4014.02
432.97	4102.96
433.16	4102.96
433.35	4070.19
433.54	4152.11
433.72	4025.72
433.91	4135.73
434.10	4236.37
434.28	4131.05
434.47	4135.73
434.66	4264.46
434.85	4224.67
435.03	4397.87
435.22	4344.03
435.41	4393.19
435.59	4297.22
435.78	4360.42
435.97	4491.49
436.16	4430.63
436.34	4468.08
436.53	4418.93
436.72	4507.87
436.90	4327.65
437.09	4718.52
437.28	4465.74
437.46	4542.98
437.65	4468.08
437.84	4524.26
438.02	4662.35
438.21	4683.41
438.40	4498.51
438.58	4678.73
438.77	4788.74
438.96	4699.80
439.14	4891.72
439.33	4924.49
439.52	5048.54
439.70	4985.34
439.89	4959.60
440.08	5062.58
440.26	4978.32
440.45	5027.47
440.63	5146.84
440.82	5181.95
441.01	5174.92
441.19	5085.98
441.38	5345.78
441.57	5329.40
441.75	5444.09
441.94	5345.78
442.12	5371.53
442.31	5666.44
442.50	5738.99
442.68	5352.81
442.87	5455.79
443.05	5420.68
443.24	5680.48
443.43	5535.37
443.61	5614.95
443.80	5860.70
443.98	5444.09
444.17	5406.64
444.35	5760.06
444.54	5811.55
444.73	5799.85
444.91	5638.35
445.10	5561.11
445.28	5584.52
445.47	5659.42
445.65	5673.46
445.84	5643.03
446.02	5944.96
446.21	5879.43
446.39	5523.66
446.58	5783.46
446.77	5689.84
446.95	5713.25
447.14	5694.52
447.32	5750.70
447.51	5788.14
447.69	5783.46
447.88	5879.43
448.06	5797.51
448.25	5837.30
448.43	5907.51
448.62	5703.89
448.80	5710.91
448.99	5792.83
449.17	5853.68
449.36	5937.94
449.54	6017.52
449.73	6054.97
449.91	6167.31
450.10	6216.46
450.28	6251.57
450.46	6033.90
450.65	6136.88
450.83	6251.57
451.02	6298.38
451.20	6141.57
451.39	6289.02
451.57	6328.81
451.76	6363.92
451.94	6202.42
452.13	6483.28
452.31	6239.87
452.49	6333.49
452.68	6291.36
452.86	6319.45
453.05	6328.81
453.23	6408.39
453.42	6197.74
453.60	6415.41
453.78	6431.79
453.97	6466.90
454.15	6356.90
454.34	6537.12
454.52	6745.42
454.70	6581.59
454.89	6649.46
455.07	6754.79
455.26	6654.14
455.44	6703.29
455.62	6670.53
455.81	6672.87
455.99	6686.91
456.17	6902.24
456.36	6822.66
456.54	6890.54
456.73	6927.99
456.91	6869.47
457.09	7054.37
457.28	7243.96
457.46	6988.84
457.64	7101.19
457.83	7096.50
458.01	7129.27
458.19	7155.02
458.38	7061.40
458.56	7255.66
458.74	7204.17
458.93	6946.71
459.11	7199.49
459.29	7213.53
459.48	7370.35
459.66	7222.89
459.84	7152.68
460.03	7478.01
460.21	7321.20
460.39	7569.29
460.57	7379.71
460.76	7492.05
460.94	7452.27
461.12	7534.18
461.31	7447.58
461.49	7456.95
461.67	7510.78
461.85	7667.60
462.04	7681.64
462.22	8198.90
462.40	7815.05
462.59	7779.94
462.77	7716.75
462.95	7747.17
463.13	7866.54
463.32	7763.56
463.50	7943.78
463.68	7955.48
463.86	7948.46
464.05	7843.14
464.23	7847.82
464.41	7927.39
464.59	7880.58
464.78	8021.02
464.96	7943.78
465.14	7948.46
465.32	8006.97
465.50	8276.13
465.69	8156.77
465.87	8009.31
466.05	8147.40
466.23	8081.87
466.41	8336.99
466.60	8290.18
466.78	8126.34
466.96	8236.35
467.14	7983.57
467.32	8301.88
467.51	8437.63
467.69	8173.15
467.87	8348.69
468.05	8477.42
468.23	8217.62
468.41	8533.59
468.60	8250.39
468.78	8334.65
468.96	8313.58
469.14	8676.37
469.32	8468.06
469.50	8287.84
469.69	8510.19
469.87	8629.56
470.05	8791.05
470.23	8676.37
470.41	8737.22
470.59	9060.21
470.77	8769.99
470.95	8828.50
471.14	8959.57
471.32	8872.97
471.50	9210.01
471.68	9151.49
471.86	9039.15
472.04	9050.85
472.22	9247.46
472.40	9107.02
472.58	9067.24
472.77	9392.57
472.95	9263.84
473.13	9582.15
473.31	9231.07
473.49	9308.31
473.67	9336.40
473.85	9399.59
474.03	9645.35
474.21	9586.83
474.39	9678.12
474.57	9881.74
474.75	9516.62
474.93	9893.44
475.12	9837.27
475.30	9956.64
475.48	10024.51
475.66	9797.48
475.84	10015.15
476.02	10235.16
476.20	10326.44
476.38	10204.74
476.56	10464.54
476.74	10581.56
476.92	10459.85
477.10	10487.94
477.28	10848.38
477.46	10686.89
477.64	10750.08
477.82	10867.11
478.00	11208.83
478.18	11152.65
478.36	11325.85
478.54	11117.54
478.72	11279.04
478.90	11382.03
479.08	11232.23
479.26	11517.78
479.44	11595.01
479.62	11768.21
479.80	12028.01
479.98	11915.67
480.16	12266.75
480.34	12084.19
480.52	12044.40
480.70	12004.61
480.88	11864.18
481.06	12334.62
481.24	12248.02
481.41	12512.50
481.59	12779.32
481.77	12917.42
481.95	12807.41
482.13	12781.67
482.31	12856.56
482.49	13221.69
482.67	13212.32
482.85	13153.81
483.03	13153.81
483.21	13542.34
483.39	13530.64
483.57	13429.99
483.74	13811.50
483.92	14090.02
484.10	13816.18
484.28	13942.57
484.46	14469.19
484.64	14471.53
484.82	14403.66
485.00	14410.68
485.18	14420.04
485.35	14710.27
485.53	14794.53
485.71	14984.11
485.89	14867.08
486.07	14855.38
486.25	14874.10
486.43	15318.81
486.61	15349.23
486.78	15719.04
486.96	15655.84
487.14	15819.68
487.32	15889.90
487.50	16013.95
487.68	16140.33
487.85	16369.71
488.03	16828.45
488.21	16493.76
488.39	16496.10
488.57	16861.22
488.75	16673.98
488.92	17085.91
489.10	17193.58
489.28	17488.48
489.46	17497.84
489.64	17638.28
489.81	17783.39
489.99	17884.03
490.17	17991.70
490.35	18373.21
490.53	18314.69
490.70	18265.54
490.88	18412.99
491.06	18541.72
491.24	18515.98
491.41	18621.30
491.59	18696.20
491.77	18630.66
491.95	19019.19
492.13	19073.03
492.30	19293.04
492.48	19307.08
492.66	19590.28
492.84	19477.94
493.01	19894.55
493.19	19733.06
493.37	20613.10
493.54	19833.70
493.72	20072.43
493.90	20177.76
494.08	20470.33
494.25	20379.04
494.43	20842.47
494.61	20900.98
494.79	20922.05
494.96	20882.26
495.14	20641.18
495.32	21518.89
495.49	21095.25
495.67	21413.56
495.85	21558.67
496.02	21635.91
496.20	21858.26
496.38	21994.01
496.55	21944.86
496.73	22410.63
496.91	22384.88
497.09	22235.09
497.26	22560.42
497.44	22527.66
497.62	22267.86
497.79	22876.40
497.97	22735.96
498.14	22888.10
498.32	22869.37
498.50	23068.32
498.67	23562.17
498.85	23321.10
499.03	23590.26
499.20	23763.46
499.38	23672.18
499.56	23594.94
499.73	24020.92
499.91	23981.13
500.08	24271.36
500.26	23894.53
500.44	24311.14
500.61	23957.72
500.79	24322.85
500.97	24376.68
501.14	24758.19
501.32	24676.27
501.49	24517.11
501.67	24631.80
501.84	24830.74
502.02	25020.33
502.20	25188.85
502.37	25181.82
502.55	25163.10
502.72	25249.70
502.90	25418.22
503.07	25181.82
503.25	25453.33
503.43	25242.68
503.60	25743.55
503.78	26001.01
503.95	25216.93
504.13	25846.54
504.30	25944.84
504.48	26153.15
504.65	26216.34
504.83	26422.31
505.01	26401.24
505.18	26462.10
505.36	26745.30
505.53	26719.56
505.71	26937.23
505.88	26876.37
506.06	26663.38
506.23	27096.38
506.41	27129.15
506.58	26679.77
506.76	26962.97
506.93	27800.88
507.11	27255.54
507.28	27508.32
507.46	27337.46
507.63	27513.00
507.81	27527.04
507.98	27674.49
508.16	27484.91
508.33	27515.34
508.50	27873.44
508.68	27700.24
508.85	28299.42
509.03	28292.40
509.20	28053.66
509.38	28430.49
509.55	28582.62
509.73	28332.18
509.90	28465.60
510.08	28577.94
510.25	28510.07
510.42	28753.48
510.60	28849.44
510.77	28971.15
510.95	29312.87
511.12	28734.76
511.30	29228.61
511.47	29266.06
511.64	29296.49
511.82	29476.71
511.99	29322.23
512.17	29394.79
512.34	29577.35
512.51	29830.13
512.69	29551.60
512.86	29923.75
513.04	30015.03
513.21	30092.27
513.38	30260.79
513.56	30000.99
513.73	30108.65
513.90	30438.67
514.08	30473.78
514.25	30874.01
514.43	30618.89
514.60	30265.47
514.77	30345.05
514.95	30600.16
515.12	30359.09
515.29	30656.34
515.47	31110.40
515.64	31281.26
515.81	31213.38
515.99	30824.86
516.16	31534.04
516.33	31290.62
516.51	31192.32
516.68	30707.83
516.85	30789.75
517.03	30984.01
517.20	31330.41
517.37	31344.45
517.54	31964.70
517.72	31498.93
517.89	31833.63
518.06	31644.04
518.24	31672.13
518.41	31697.88
518.58	31503.61
518.75	31496.59
518.93	32215.13
519.10	32226.84
519.27	32378.97
519.45	31985.76
519.62	32308.76
519.79	32634.09
519.96	32556.85
520.14	32940.70
520.31	32467.91
520.48	32821.33
520.65	32954.74
520.83	32865.80
521.00	33064.75
521.17	33046.02
521.34	33481.36
521.52	33099.86
521.69	33060.07
521.86	33518.81
522.03	33362.00
522.20	33497.75
522.38	33399.44
522.55	33624.14
522.72	33825.42
522.89	33890.96
523.07	34176.50
523.24	33684.99
523.41	33764.57
523.58	33926.07
523.75	34218.63
523.92	34153.10
524.10	33848.83
524.27	34391.83
524.44	34218.63
524.61	34323.96
524.78	34483.11
524.96	34937.18
525.13	34579.07
525.30	34742.91
525.47	34665.67
525.64	34866.96
525.81	34850.58
525.98	34885.68
526.16	34543.97
526.33	34735.89
526.50	35110.38
526.67	34712.49
526.84	34714.83
527.01	34590.78
527.18	35126.76
527.36	35344.43
527.53	35508.27
527.70	35943.61
527.87	35658.06
528.04	35531.67
528.21	35737.64
528.38	35782.11
528.55	35503.59
528.72	35852.33
528.89	36058.29
529.07	35800.83
529.24	35445.07
529.41	36034.89
529.58	36311.07
529.75	35943.61
529.92	36404.69
530.09	36114.47
530.26	36563.85
530.43	36290.01
530.60	36226.81
530.77	36460.87
530.94	36371.92
531.11	36184.68
531.28	36627.04
531.46	36568.53
531.63	36683.22
531.80	36638.75
531.97	36786.20
532.14	36348.52
532.31	36804.92
532.48	37003.87
532.65	36692.58
532.82	37078.77
532.99	37544.53
533.16	37027.28
533.33	36666.83
533.50	37076.43
533.67	37336.23
533.84	36694.92
534.01	37797.31
534.18	37188.77
534.35	37794.97
534.52	37083.45
534.69	37493.04
534.86	37724.75
535.03	37198.13
535.20	37717.73
535.37	38176.48
535.54	37404.10
535.71	37413.46
535.88	37750.50
536.05	37668.58
536.22	37659.22
536.38	37801.99
536.55	37916.68
536.72	37998.60
536.89	37706.03
537.06	37516.45
537.23	38078.18
537.40	38171.80
537.57	38134.35
537.74	37921.36
537.91	38309.89
538.08	38705.44
538.25	38307.55
538.42	38234.99
538.59	38672.67
538.75	38827.15
538.92	38780.34
539.09	38735.87
539.26	38646.93
539.43	38969.92
539.60	38909.07
539.77	38604.80
539.94	38906.73
540.11	38609.48
540.28	38827.15
540.44	38670.33
540.61	38719.48
540.78	38618.84
540.95	38717.14
541.12	39115.03
541.29	38878.64
541.46	38873.96
541.62	38848.21
541.79	39573.78
541.96	38995.67
542.13	39587.82
542.30	39288.23
542.47	39316.32
542.63	39360.79
542.80	39285.89
542.97	39852.30
543.14	40084.01
543.31	39613.57
543.48	39922.52
543.64	40554.46
543.81	39889.75
543.98	40219.77
544.15	39990.39
544.32	40285.30
544.48	40727.66
544.65	40271.26
544.82	40058.27
544.99	39889.75
545.16	40479.57
545.32	40311.05
545.49	40844.69
545.66	40650.42
545.83	40268.92
546.00	40760.43
546.16	40465.52
546.33	40023.16
546.50	39971.67
546.67	40367.22
546.83	39892.09
547.00	40608.29
547.17	40404.67
547.34	40631.70
547.50	40875.12
547.67	40722.98
547.84	40603.61
548.00	41027.25
548.17	41120.87
548.34	41263.64
548.51	41415.78
548.67	40842.35
548.84	40921.93
549.01	41060.02
549.18	41256.62
549.34	41109.17
549.51	41397.06
549.68	41291.73
549.84	41116.19
550.01	41439.18
550.18	41207.47
550.34	41158.32
550.51	41179.39
550.68	41296.41
550.84	41322.16
551.01	41380.67
551.18	41682.60
551.34	41628.77
551.51	41544.51
551.68	41418.12
551.84	41937.72
552.01	41488.34
552.18	41720.05
552.34	41462.59
552.51	41579.62
552.68	41790.27
552.84	41642.81
553.01	42195.18
553.18	41488.34
553.34	41813.67
553.51	41689.62
553.67	41591.32
553.84	42373.06
554.01	42036.02
554.17	42408.17
554.34	42543.92
554.51	42295.82
554.67	42330.93
554.84	42045.38
555.00	41944.74
555.17	42026.66
555.33	42335.61
555.50	42192.84
555.67	42085.17
555.83	42574.34
556.00	42291.14
556.16	42822.44
556.33	42497.11
556.50	42300.50
556.66	42682.01
556.83	42555.62
556.99	42625.84
557.16	42679.67
557.32	42897.34
557.49	42864.57
557.65	42569.66
557.82	42089.85
557.98	42412.85
558.15	42623.50
558.32	42351.99
558.48	42628.18
558.65	43119.69
558.81	42806.06
558.98	42923.08
559.14	42756.91
559.31	42822.44
559.47	42564.98
559.64	43494.18
559.80	43058.84
559.97	42836.48
560.13	42909.04
560.30	42876.27
560.46	42927.77
560.63	43164.16
560.79	43098.62
560.96	42841.17
561.12	43133.73
561.29	42997.98
561.45	43325.66
561.61	43304.59
561.78	42815.42
561.94	42880.95
562.11	42909.04
562.27	43278.85
562.44	42738.18
562.60	43079.90
562.77	43395.87
562.93	43250.76
563.10	43571.41
563.26	42670.31
563.42	43538.65
563.59	43372.47
563.75	42714.78
563.92	43494.18
564.08	43370.13
564.24	43260.12
564.41	43744.61
564.57	43510.56
564.74	43196.93
564.90	43285.87
565.07	43737.59
565.23	43290.55
565.39	43831.21
565.56	43512.90
565.72	43342.04
565.88	43019.05
566.05	43367.79
566.21	43239.06
566.38	43196.93
566.54	43618.22
566.70	43552.69
566.87	44201.02
567.03	43496.52
567.19	43887.39
567.36	43665.03
567.52	44004.41
567.68	43695.46
567.85	43332.68
568.01	43599.50
568.17	43681.42
568.34	43868.66
568.50	43480.13
568.66	43643.97
568.83	43758.66
568.99	43676.74
569.15	43438.00
569.32	43571.41
569.48	43232.04
569.64	43849.94
569.81	43658.01
569.97	43580.78
570.13	43871.00
570.30	43730.57
570.46	43367.79
570.62	43440.34
570.78	43262.46
570.95	43643.97
571.11	44327.41
571.27	43840.57
571.43	44105.06
571.60	43662.69
571.76	43594.82
571.92	43716.53
572.09	43667.37
572.25	43878.02
572.41	43693.12
572.57	43854.62
572.74	44692.53
572.90	43868.66
573.06	43852.28
573.22	44102.71
573.38	43622.90
573.55	43826.53
573.71	43819.51
573.87	44278.25
574.03	43487.15
574.20	43707.16
574.36	43833.55
574.52	44315.70
574.68	44013.77
574.84	44243.15
575.01	44027.82
575.17	44163.57
575.33	43690.78
575.49	44058.24
575.65	44701.89
575.82	44201.02
575.98	44095.69
576.14	44062.93
576.30	44147.18
576.46	43615.88
576.62	43910.79
576.79	43838.23
576.95	43344.38
577.11	43943.56
577.27	44058.24
577.43	44416.35
577.59	43737.59
577.75	44231.44
577.92	43447.36
578.08	44002.07
578.24	44198.68
578.40	43915.47
578.56	44304.00
578.72	43995.05
578.88	44294.64
579.04	44577.84
579.21	43971.64
579.37	43723.55
579.53	43765.68
579.69	44114.42
579.85	44023.14
580.01	44301.66
580.17	44100.37
580.33	44554.44
580.49	44325.07
580.65	44355.49
580.82	44280.60
580.98	44018.46
581.14	43826.53
581.30	44325.07
581.46	43868.66
581.62	44076.97
581.78	44198.68
581.94	44346.13
582.10	43962.28
582.26	44163.57
582.42	44238.47
582.58	44449.11
582.74	44203.36
582.90	44456.14
583.06	44238.47
583.22	44479.54
583.38	44495.92
583.54	43866.32
583.70	44449.11
583.86	43463.75
584.02	44123.78
584.18	44292.30
584.34	44114.42
584.50	44072.29
584.66	44264.21
584.82	43817.17
584.98	44208.04
585.14	44341.45
585.30	44336.77
585.46	44467.84
585.62	44194.00
585.78	43973.98
585.94	43842.92
586.10	44428.05
586.26	44039.52
586.42	44261.87
586.58	44304.00
586.74	44081.65
586.90	43768.02
587.06	43943.56
587.22	44421.03
587.38	43821.85
587.54	44566.14
587.70	44598.91
587.86	44573.16
588.02	44612.95
588.18	44839.98
588.34	44285.28
588.49	44463.16
588.65	44013.77
588.81	44088.67
588.97	43821.85
589.13	44643.38
589.29	44699.55
589.45	44545.08
589.61	44238.47
589.77	44540.39
589.93	44683.17
590.08	44711.25
590.24	44603.59
590.40	44786.15
590.56	44404.64
590.72	44704.23
590.88	44339.11
591.04	44617.63
591.20	44891.48
591.35	44479.54
591.51	44580.18
591.67	44502.95
591.83	44318.04
591.99	44383.58
592.15	44538.05
592.31	44435.07
592.46	44371.88
592.62	44294.64
592.78	44753.38
592.94	44718.28
593.10	44774.45
593.26	44657.42
593.41	44671.46
593.57	44278.25
593.73	44776.79
593.89	44748.70
594.05	44498.26
594.20	44652.74
594.36	44505.29
594.52	44474.86
594.68	44641.04
594.84	44624.65
594.99	45144.25
595.15	44194.00
595.31	44980.42
595.47	44706.57
595.62	44685.51
595.78	44891.48
595.94	44942.97
596.10	44641.04
596.25	44678.49
596.41	44751.04
596.57	44268.89
596.73	45006.16
596.88	44467.84
597.04	44325.07
597.20	44673.81
597.36	44772.11
597.51	44964.03
597.67	44491.24
597.83	44650.40
597.99	45287.03
598.14	45120.85
598.30	44900.84
598.46	44404.64
598.61	44657.42
598.77	44474.86
598.93	44797.85
599.09	44839.98
599.24	44935.95
599.40	44772.11
599.56	45050.63
599.71	44849.35
599.87	45230.85
600.03	45038.93
600.18	44720.62
600.34	44580.18
600.50	44381.24
600.65	44725.30
600.81	44891.48
600.97	44739.34
601.12	44830.62
601.28	44734.66
601.44	44493.58
601.59	44879.77
601.75	44481.88
601.91	44741.68
602.06	44575.50
602.22	44664.44
602.37	44566.14
602.53	44524.01
602.69	44781.47
602.84	44748.70
603.00	44694.87
603.16	44390.60
603.31	44884.45
603.47	45069.36
603.62	44514.65
603.78	44683.17
603.94	44980.42
604.09	45027.23
604.25	44861.05
604.40	44942.97
604.56	44650.40
604.71	45106.80
604.87	44727.64
605.03	44561.46
605.18	44119.10
605.34	44477.20
605.49	44601.25
605.65	44542.74
605.80	44587.21
605.96	44823.60
606.12	44402.30
606.27	44608.27
606.43	44528.69
606.58	44636.36
606.74	45172.34
606.89	44446.77
607.05	44580.18
607.20	44636.36
607.36	44512.31
607.51	44863.39
607.67	45137.23
607.82	44676.15
607.98	44451.45
608.13	44451.45
608.29	44350.81
608.44	44245.49
608.60	43999.73
608.75	44495.92
608.91	44369.54
609.06	43964.62
609.22	44570.82
609.37	44144.84
609.53	44301.66
609.68	44392.94
609.84	44168.25
609.99	44182.29
610.15	44268.89
610.30	44350.81
610.46	43592.48
610.61	44350.81
610.76	43908.45
610.92	44179.95
611.07	44086.33
611.23	43793.76
611.38	44191.65
611.54	44081.65
611.69	43805.47
611.84	43814.83
612.00	43988.03
612.15	43423.96
612.31	44119.10
612.46	43922.49
612.62	44198.68
612.77	43983.35
612.92	44261.87
613.08	43964.62
613.23	43882.70
613.39	43868.66
613.54	43566.73
613.69	43704.82
613.85	44032.50
614.00	43821.85
614.15	44163.57
614.31	43999.73
614.46	43868.66
614.62	43356.08
614.77	44034.84
614.92	43800.79
615.08	43973.98
615.23	43608.86
615.38	43807.81
615.54	43562.05
615.69	42880.95
615.84	43185.22
616.00	43477.79
616.15	43571.41
616.30	43988.03
616.46	43122.03
616.61	43372.47
616.76	43428.64
616.92	43028.41
617.07	43248.42
617.22	43016.71
617.37	43395.87
617.53	43847.60
617.68	43253.10
617.83	43063.52
617.99	43412.26
618.14	43517.58
618.29	43515.24
618.45	43262.46
618.60	43311.61
618.75	43159.48
618.90	43203.95
619.06	43414.60
619.21	43482.47
619.36	43164.16
619.51	43515.24
619.67	42969.90
619.82	42911.38
619.97	43512.90
620.12	42602.43
620.28	42714.78
620.43	42902.02
620.58	42773.29
620.73	42958.19
620.89	42810.74
621.04	42873.93
621.19	42946.49
621.34	42838.83
621.49	43136.07
621.65	42581.37
621.80	43012.02
621.95	42667.97
622.10	42653.92
622.25	42852.87
622.41	42485.40
622.56	42665.63
622.71	42794.36
622.86	43098.62
623.01	42597.75
623.16	43070.54
623.32	42667.97
623.47	42658.60
623.62	42773.29
623.77	42384.76
623.92	42220.92
624.07	42146.03
624.23	42012.62
624.38	42059.43
624.53	42155.39
624.68	42532.22
624.83	42314.55
624.98	42429.23
625.13	42192.84
625.29	42494.77
625.44	42628.18
625.59	42188.16
625.74	41701.32
625.89	41965.81
626.04	41226.20
626.19	41806.65
626.34	41858.14
626.49	42021.98
626.65	41886.23
626.80	42089.85
626.95	42031.34
627.10	41794.95
627.25	41853.46
627.40	41514.08
627.55	41532.81
627.70	41294.07
627.85	41617.07
628.00	41628.77
628.15	42073.47
628.30	41626.43
628.45	41862.82
628.60	41633.45
628.76	41319.82
628.91	41890.91
629.06	41359.61
629.21	41785.58
629.36	41193.43
629.51	41298.75
629.66	41174.70
629.81	40893.84
629.96	41209.81
630.11	41717.71
630.26	41282.37
630.41	41284.71
630.56	40989.80
630.71	41448.55
630.86	41596.00
631.01	41076.40
631.16	41612.38
631.31	40907.88
631.46	40575.53
631.61	41095.13
631.76	40840.01
631.91	41226.20
632.06	40905.54
632.21	40926.61
632.36	41383.01
632.51	40722.98
632.66	41280.03
632.81	40540.42
632.96	40849.37
633.10	40664.47
633.25	40692.55
633.40	41008.53
633.55	41233.22
633.70	40989.80
633.85	40622.34
634.00	40591.91
634.15	40811.92
634.30	40783.83
634.45	40561.48
634.60	40779.15
634.75	40591.91
634.90	40582.55
635.05	40587.23
635.19	40603.61
635.34	40858.73
635.49	40624.68
635.64	40154.23
635.79	40526.38
635.94	40266.58
636.09	40088.70
636.24	40172.96
636.39	40568.51
636.53	39157.16
636.68	39842.94
636.83	39789.11
636.98	40151.89
637.13	39805.49
637.28	39934.22
637.43	40179.98
637.57	40577.87
637.72	40362.54
637.87	39889.75
638.02	40353.18
638.17	39833.58
638.32	39908.47
638.46	39721.23
638.61	39866.34
638.76	39716.55
638.91	39723.57
639.06	39538.67
639.20	39391.22
639.35	40282.96
639.50	39957.63
639.65	39662.72
639.80	40320.41
639.94	39498.88
640.09	39585.48
640.24	39063.54
640.39	39353.77
640.54	39157.16
640.68	39236.74
640.83	39302.28
640.98	39262.49
641.13	39412.28
641.27	39639.31
641.42	39264.83
641.57	39625.27
641.72	39508.24
641.86	39454.41
642.01	39082.27
642.16	38960.56
642.31	38883.32
642.45	38972.26
642.60	39138.44
642.75	38906.73
642.90	39206.31
643.04	38955.88
643.19	38955.88
643.34	38904.38
643.48	38820.13
643.63	39157.16
643.78	38817.78
643.93	38735.87
644.07	38672.67
644.22	38646.93
644.37	38672.67
644.51	38445.64
644.66	38960.56
644.81	39281.21
644.95	39356.11
645.10	38752.25
645.25	38876.30
645.39	38761.61
645.54	38960.56
645.69	38574.37
645.83	38574.37
645.98	38457.34
646.13	38824.81
646.27	38635.22
646.42	38431.60
646.57	38368.40
646.71	38848.21
646.86	38438.62
647.00	38916.09
647.15	38686.71
647.30	38660.97
647.44	38363.72
647.59	38347.34
647.74	38387.13
647.88	38431.60
648.03	38335.63
648.17	38476.07
648.32	38267.76
648.47	38405.85
648.61	37944.76
648.76	37984.55
648.90	37797.31
649.05	37996.26
649.20	37766.88
649.34	38586.07
649.49	38174.14
649.63	37940.08
649.78	37872.21
649.92	37741.14
650.07	38396.49
650.21	37968.17
650.36	37848.80
650.51	38080.52
650.65	38239.67
650.80	38213.93
650.94	38665.65
651.09	38022.00
651.23	37766.88
651.38	37928.38
651.52	37635.81
651.67	37783.27
651.81	37923.70
651.96	37277.71
652.10	37177.07
652.25	37567.94
652.39	37200.47
652.54	37633.47
652.68	38085.20
652.83	37563.26
652.97	37886.25
653.12	37422.83
653.26	37486.02
653.41	37713.05
653.55	37413.46
653.70	37429.85
653.84	37532.83
653.99	37301.12
654.13	37820.72
654.27	37532.83
654.42	37490.70
654.56	37607.73
654.71	36697.26
654.85	37120.90
655.00	37483.68
655.14	37017.91
655.29	36610.66
655.43	36964.08
655.57	37092.81
655.72	36346.18
655.86	36793.22
656.01	36971.10
656.15	37022.59
656.30	36748.75
656.44	36561.51
656.58	36715.98
656.73	36903.23
656.87	36615.34
657.01	36306.39
657.16	36783.86
657.30	36266.60
657.45	36367.24
657.59	36266.60
657.73	36313.41
657.88	36659.81
658.02	36311.07
658.16	36451.50
658.31	36591.94
658.45	37069.40
658.60	36421.08
658.74	36259.58
658.88	36484.27
659.03	36072.34
659.17	35880.41
659.31	36016.16
659.46	36346.18
659.60	36055.95
659.74	35864.03
659.89	35777.43
660.03	35847.64
660.17	35988.08
660.32	35917.86
660.46	35959.99
660.60	35988.08
660.74	36016.16
660.89	35707.21
661.03	35864.03
661.17	35171.23
661.32	35332.73
661.46	35592.53
661.60	35309.32
661.74	35892.12
661.89	35318.68
662.03	35637.00
662.17	35187.61
662.31	35215.70
662.46	35225.06
662.60	35349.11
662.74	35395.92
662.88	35344.43
663.03	35250.81
663.17	35065.91
663.31	34651.63
663.45	35264.85
663.60	35084.63
663.74	34469.07
663.88	34717.17
664.02	34621.20
664.17	34375.45
664.31	34607.16
664.45	34656.31
664.59	34745.25
664.73	34349.70
664.88	34281.83
665.02	34312.25
665.16	34604.82
665.30	34127.35
665.44	33996.28
665.59	33914.36
665.73	33844.15
665.87	33661.58
666.01	33970.54
666.15	33757.55
666.29	34029.05
666.44	33977.56
666.58	34263.10
666.72	33579.67
666.86	33858.19
667.00	33759.89
667.14	33944.79
667.28	33682.65
667.43	33710.74
667.57	33450.94
667.71	33530.51
667.85	33352.63
667.99	33181.77
668.13	33476.68
668.27	33631.16
668.41	33387.74
668.56	33020.28
668.70	33123.26
668.84	32760.48
668.98	33177.09
669.12	33172.41
669.26	33263.69
669.40	32811.97
669.54	32910.27
669.68	32554.51
669.82	32325.14
669.96	32713.67
670.10	32575.58
670.25	32634.09
670.39	32601.32
670.53	32285.35
670.67	32154.28
670.81	32594.30
670.95	32184.71
671.09	32187.05
671.23	32346.20
671.37	32250.24
671.51	32217.47
671.65	31693.19
671.79	31622.98
671.93	31515.31
672.07	32327.48
672.21	31960.02
672.35	31826.60
672.49	31693.19
672.63	31365.52
672.77	31409.99
672.91	31405.31
673.05	31276.58
673.19	31365.52
673.33	31463.82
673.47	31400.63
673.61	31178.28
673.75	30852.94
673.89	30520.59
674.03	30988.69
674.17	30815.49
674.31	30707.83
674.45	30759.32
674.59	30946.56
674.73	30700.81
674.87	31201.68
675.01	30705.49
675.15	30646.97
675.29	30543.99
675.43	30525.27
675.56	30508.88
675.70	30190.57
675.84	29804.38
675.98	29090.52
676.12	29799.70
676.26	29610.12
676.40	29422.87
676.54	29582.03
676.68	29619.48
676.82	29378.40
676.96	29252.02
677.10	29186.48
677.23	29142.01
677.37	29130.31
677.51	29266.06
677.65	28959.45
677.79	28336.87
677.93	28470.28
678.07	28734.76
678.21	28531.13
678.34	28472.62
678.48	28692.63
678.62	28187.07
678.76	28615.39
678.90	28278.35
679.04	28212.82
679.18	28156.64
679.31	28034.94
679.45	27662.79
679.59	27433.42
679.73	27501.29
679.87	27587.89
680.00	27402.99
680.14	27103.40
680.28	27288.31
680.42	27075.32
680.56	27283.62
680.70	27168.94
680.83	27166.60
680.97	26817.86
681.11	27080.00
681.25	26555.72
681.39	26375.50
681.52	26546.36
681.66	26689.13
681.80	26452.73
681.94	26436.35
682.07	26050.16
682.21	26263.15
682.35	26370.82
682.49	26146.12
682.62	26221.02
682.76	26096.97
682.90	25809.09
683.04	26064.21
683.17	25778.66
683.31	25781.00
683.45	25652.27
683.59	25593.76
683.72	25294.17
683.86	25067.14
684.00	24790.95
684.13	25043.73
684.27	25099.90
684.41	25062.46
684.55	24849.47
684.68	24584.99
684.82	24730.10
684.96	24503.07
685.09	24477.32
685.23	24414.13
685.37	24273.70
685.50	24285.40
685.64	24177.73
685.78	24100.50
685.91	24013.90
686.05	24343.91
686.19	23854.74
686.32	23606.64
686.46	23489.62
686.60	23646.43
686.73	23293.01
686.87	23253.22
687.01	23185.35
687.14	23269.61
687.28	23030.87
687.42	22930.23
687.55	22640.00
687.69	22455.10
687.82	22890.44
687.96	22831.93
688.10	22735.96
688.23	22522.98
688.37	22134.45
688.50	22244.45
688.64	22008.06
688.78	22263.18
688.91	21797.41
689.05	22120.40
689.18	22040.82
689.32	21568.04
689.46	22087.64
689.59	22127.42
689.73	21839.54
689.86	21598.46
690.00	21432.29
690.13	21523.57
690.27	21486.12
690.41	21289.51
690.54	20943.11
690.68	21039.08
690.81	21062.48
690.95	20940.77
691.08	21179.51
691.22	20877.58
691.35	20922.05
691.49	20793.32
691.62	20812.04
691.76	20938.43
691.89	20690.34
692.03	20559.27
692.16	20203.50
692.30	20034.99
692.43	20098.18
692.57	20067.75
692.70	20023.28
692.84	20063.07
692.97	19988.18
693.11	19639.44
693.24	19503.68
693.38	19435.81
693.51	19421.77
693.65	19508.37
693.78	19328.14
693.92	19337.51
694.05	19110.47
694.19	18838.97
694.32	18991.11
694.45	19054.30
694.59	18885.78
694.72	18677.48
694.86	18874.08
694.99	18640.03
695.13	18539.38
695.26	18335.76
695.39	18443.42
695.53	18132.13
695.66	18293.63
695.80	18209.37
695.93	18368.52
696.07	17673.39
696.20	17825.52
696.33	18097.02
696.47	17830.20
696.60	17804.46
696.73	17680.41
696.87	17500.19
697.00	17713.17
697.14	17535.29
697.27	17551.68
697.40	17411.25
697.54	17261.45
697.67	16922.07
697.80	17240.39
697.94	16973.56
698.07	16872.92
698.21	16779.30
698.34	16744.19
698.47	16996.97
698.61	16442.26
698.74	16641.21
698.87	16538.23
699.01	16425.88
699.14	16187.14
699.27	16229.27
699.40	16107.57
699.54	16032.67
699.67	15906.28
699.80	16060.76
699.94	15812.66
700.07	16161.40
700.20	15749.46
700.34	15641.80
700.47	15770.53
700.60	15712.02
700.73	15782.23
700.87	15555.20
701.00	15492.01
701.13	15356.25
701.26	15646.48
701.40	15321.15
701.53	15382.00
701.66	15147.95
701.79	15082.41
701.93	15080.07
702.06	14593.24
702.19	14789.85
702.32	14836.66
702.46	14654.09
702.59	14590.90
702.72	14789.85
702.85	14438.76
702.99	14609.62
703.12	14689.20
703.25	14504.30
703.38	14338.12
703.51	14335.78
703.65	14132.15
703.78	14228.12
703.91	14132.15
704.04	13977.68
704.17	14075.98
704.31	13912.14
704.44	13692.13
704.57	13348.08
704.70	13439.36
704.83	13551.70
704.96	13774.05
705.10	13596.17
705.23	13671.07
>>>>>End Processed Spectral Data<<<<<
