SpectraSuite Data File
++++++++++++++++++++++++++++++++++++
Date: Fri Oct 25 10:48:29 EDT 2013
User: price-jones
Dark Spectrum Present: No
Reference Spectrum Present: No
Number of Sampled Component Spectra: 1
Spectrometers: USB2+H05261
Integration Time (usec): 100000 (USB2+H05261)
Spectra Averaged: 1 (USB2+H05261)
Boxcar Smoothing: 0 (USB2+H05261)
Correct for Electrical Dark: No (USB2+H05261)
Strobe/Lamp Enabled: No (USB2+H05261)
Correct for Detector Non-linearity: No (USB2+H05261)
Correct for Stray Light: No (USB2+H05261)
Number of Pixels in Processed Spectrum: 2048
>>>>>Begin Processed Spectral Data<<<<<
365.73	138.09
365.92	138.09
366.12	138.09
366.32	51.49
366.52	30.43
366.72	102.98
366.91	51.49
367.11	25.75
367.31	49.15
367.51	0.00
367.70	88.94
367.90	58.51
368.10	18.72
368.30	70.22
368.49	119.37
368.69	74.90
368.89	117.03
369.09	60.85
369.28	72.56
369.48	72.56
369.68	107.66
369.87	110.01
370.07	133.41
370.27	187.24
370.47	191.92
370.66	486.83
370.86	437.68
371.06	514.92
371.25	489.17
371.45	404.91
371.65	500.87
371.84	435.34
372.04	437.68
372.24	573.43
372.44	524.28
372.63	512.58
372.83	559.39
373.03	535.98
373.22	519.60
373.42	543.00
373.62	531.30
373.81	634.29
374.01	606.20
374.21	587.47
374.40	535.98
374.60	573.43
374.79	631.94
374.99	564.07
375.19	603.86
375.38	603.86
375.58	620.24
375.78	641.31
375.97	601.52
376.17	622.58
376.37	678.76
376.56	695.14
376.76	627.26
376.95	580.45
377.15	692.80
377.35	655.35
377.54	608.54
377.74	711.52
377.93	664.71
378.13	683.44
378.33	697.48
378.52	723.23
378.72	655.35
378.91	716.20
379.11	730.25
379.31	603.86
379.50	664.71
379.70	774.72
379.89	713.86
380.09	674.07
380.28	723.23
380.48	723.23
380.68	739.61
380.87	711.52
381.07	697.48
381.26	763.01
381.46	772.38
381.65	755.99
381.85	725.57
382.04	706.84
382.24	805.14
382.43	800.46
382.63	720.88
382.83	713.86
383.02	812.17
383.22	779.40
383.41	748.97
383.61	765.36
383.80	786.42
384.00	730.25
384.19	807.48
384.39	823.87
384.58	821.53
384.78	926.85
384.97	791.10
385.17	856.64
385.36	851.96
385.56	905.79
385.75	763.01
385.95	875.36
386.14	884.72
386.34	840.25
386.53	882.38
386.72	861.32
386.92	905.79
387.11	802.80
387.31	898.77
387.50	924.51
387.70	936.21
387.89	950.26
388.09	861.32
388.28	903.45
388.48	894.08
388.67	915.15
388.86	957.28
389.06	990.05
389.25	1011.11
389.45	1046.22
389.64	980.68
389.84	990.05
390.03	1123.46
390.22	992.39
390.42	1076.65
390.61	978.34
390.81	1137.50
391.00	1102.39
391.19	1032.18
391.39	1013.45
391.58	1144.52
391.78	1111.75
391.97	1144.52
392.16	1093.03
392.36	1018.13
392.55	1039.20
392.75	1086.01
392.94	1025.15
393.13	1006.43
393.33	1032.18
393.52	997.07
393.71	1055.58
393.91	1114.10
394.10	1219.42
394.29	1249.85
394.49	1095.37
394.68	1167.93
394.88	1287.29
395.07	1226.44
395.26	1200.69
395.46	1247.51
395.65	1186.65
395.84	1329.42
396.04	1245.16
396.23	1198.35
396.42	1121.12
396.62	1130.48
396.81	1170.27
397.00	1345.81
397.19	1399.64
397.39	1343.47
397.58	1369.21
397.77	1371.55
397.97	1437.09
398.16	1420.71
398.35	1561.14
398.55	1376.24
398.74	1511.99
398.93	1621.99
399.12	1528.37
399.32	1507.30
399.51	1551.78
399.70	1708.59
399.90	1593.90
400.09	1638.38
400.28	1598.59
400.47	1582.20
400.67	1654.76
400.86	1678.16
401.05	1680.50
401.24	1582.20
401.44	1685.19
401.63	1645.40
401.82	1804.55
402.01	1739.02
402.21	1767.10
402.40	1802.21
402.59	1682.85
402.78	1809.23
402.97	1844.34
403.17	1884.13
403.36	1881.79
403.55	1790.51
403.74	1877.11
403.93	1830.30
404.13	1830.30
404.32	1912.22
404.51	1893.49
404.70	1982.43
404.89	1980.09
405.09	2076.06
405.28	1996.48
405.47	1970.73
405.66	2038.61
405.85	2090.10
406.05	2026.90
406.24	2017.54
406.43	1977.75
406.62	2047.97
406.81	2101.80
407.00	2031.58
407.20	2094.78
407.39	2085.42
407.58	2104.14
407.77	2162.66
407.96	2310.11
408.15	2179.04
408.34	2321.81
408.54	2239.89
408.73	2349.90
408.92	2328.83
409.11	2232.87
409.30	2363.94
409.49	2363.94
409.68	2207.13
409.87	2284.36
410.07	2420.11
410.26	2445.86
410.45	2410.75
410.64	2455.22
410.83	2476.29
411.02	2492.67
411.21	2609.70
411.40	2511.39
411.59	2689.28
411.78	2700.98
411.98	2532.46
412.17	2595.65
412.36	2712.68
412.55	2623.74
412.74	2818.00
412.93	2792.26
413.12	2635.44
413.31	2956.10
413.50	2799.28
413.69	2918.65
413.88	2878.86
414.07	2979.50
414.26	2902.26
414.45	2904.60
414.64	3098.87
414.83	3014.61
415.02	3089.51
415.22	3045.04
415.41	3122.27
415.60	2967.80
415.79	3126.96
415.98	3337.60
416.17	3410.16
416.36	3358.67
416.55	3286.11
416.74	3328.24
416.93	3173.77
417.12	3447.61
417.31	3379.73
417.50	3407.82
417.69	3517.83
417.88	3410.16
418.07	3442.93
418.26	3438.25
418.45	3527.19
418.64	3660.60
418.83	3639.53
419.02	3548.25
419.21	3534.21
419.39	3599.74
419.58	3515.48
419.77	3604.42
419.96	3637.19
420.15	3691.02
420.34	3843.16
420.53	3772.94
420.72	3812.73
420.91	3765.92
421.10	3810.39
421.29	3976.57
421.48	3801.03
421.67	3901.67
421.86	3719.11
422.05	3868.91
422.24	3768.26
422.43	3915.72
422.61	3911.04
422.80	3995.29
422.99	3978.91
423.18	4028.06
423.37	4028.06
423.56	3978.91
423.75	3999.98
423.94	3896.99
424.13	3665.28
424.32	3782.31
424.50	3859.54
424.69	4014.02
424.88	4065.51
425.07	3978.91
425.26	3786.99
425.45	3983.59
425.64	4011.68
425.83	4086.58
426.01	3981.25
426.20	4088.92
426.39	4074.87
426.58	4009.34
426.77	3887.63
426.96	3941.46
427.15	3964.87
427.33	4093.60
427.52	4109.98
427.71	4147.43
427.90	4229.35
428.09	4243.39
428.28	4257.43
428.46	4098.28
428.65	4257.43
428.84	4278.50
429.03	4248.07
429.22	4081.89
429.40	4140.41
429.59	4112.32
429.78	3985.93
429.97	4007.00
430.16	4149.77
430.34	4138.07
430.53	4292.54
430.72	4301.90
430.91	4332.33
431.10	4292.54
431.28	4713.84
431.47	4674.05
431.66	4709.16
431.85	4437.66
432.03	4622.56
432.22	4812.14
432.41	4547.66
432.60	4655.33
432.79	4643.62
432.97	4760.65
433.16	4800.44
433.35	4613.20
433.54	4767.67
433.72	4699.80
433.91	4730.22
434.10	4786.40
434.28	4858.95
434.47	4952.57
434.66	4968.96
434.85	5128.11
435.03	4957.25
435.22	4975.98
435.41	5188.97
435.59	5135.14
435.78	5128.11
435.97	5160.88
436.16	5247.48
436.34	5114.07
436.53	5203.01
436.72	5364.51
436.90	5203.01
437.09	5327.06
437.28	5102.37
437.46	5179.61
437.65	5256.84
437.84	5282.59
438.02	5217.05
438.21	5188.97
438.40	5109.39
438.58	5416.00
438.77	5462.81
438.96	5387.91
439.14	5643.03
439.33	5584.52
439.52	5799.85
439.70	5619.63
439.89	5701.54
440.08	5811.55
440.26	5717.93
440.45	5708.57
440.63	5893.47
440.82	5879.43
441.01	6029.22
441.19	6085.39
441.38	6186.04
441.57	6150.93
441.75	6169.65
441.94	6328.81
442.12	6413.07
442.31	6370.94
442.50	6399.02
442.68	6312.42
442.87	6286.68
443.05	6303.06
443.24	6644.78
443.43	6394.34
443.61	6476.26
443.80	6792.23
443.98	6373.28
444.17	6146.25
444.35	6464.56
444.54	6562.86
444.73	6527.75
444.91	6513.71
445.10	6581.59
445.28	6532.44
445.47	6478.60
445.65	6478.60
445.84	6621.38
446.02	6628.40
446.21	6497.33
446.39	6586.27
446.58	6693.93
446.77	6820.32
446.95	6637.76
447.14	6696.27
447.32	6841.39
447.51	6761.81
447.69	6703.29
447.88	6640.10
448.06	6913.94
448.25	6789.89
448.43	6747.76
448.62	6855.43
448.80	6736.06
448.99	6846.07
449.17	6899.90
449.36	6958.41
449.54	6951.39
449.73	7059.06
449.91	7129.27
450.10	7042.67
450.28	7360.98
450.46	7396.09
450.65	7250.98
450.83	7321.20
451.02	7075.44
451.20	7389.07
451.39	7269.70
451.57	7178.42
451.76	7302.47
451.94	7323.54
452.13	7171.40
452.31	7265.02
452.49	7045.01
452.68	7527.16
452.86	7140.97
453.05	7286.09
453.23	7302.47
453.42	7337.58
453.60	7218.21
453.78	7545.89
453.97	7379.71
454.15	7489.71
454.34	7538.87
454.52	7541.21
454.70	7555.25
454.89	7672.28
455.07	7737.81
455.26	7618.44
455.44	7798.66
455.62	7791.64
455.81	7646.53
455.99	7864.20
456.17	7744.83
456.36	7854.84
456.54	8037.40
456.73	8135.70
456.91	8163.79
457.09	8182.51
457.28	8456.36
457.46	8105.28
457.64	8226.98
457.83	8348.69
458.01	8140.38
458.19	8461.04
458.38	8219.96
458.56	8348.69
458.74	8229.32
458.93	8212.94
459.11	8409.54
459.29	8248.05
459.48	8383.80
459.66	8234.00
459.84	8390.82
460.03	8540.61
460.21	8531.25
460.39	8381.46
460.57	8482.10
460.76	8697.43
460.94	8819.14
461.12	8814.46
461.31	8767.65
461.49	8877.65
461.67	8758.28
461.85	8982.98
462.04	8891.70
462.22	9378.53
462.40	9128.09
462.59	8936.17
462.77	9048.51
462.95	8950.21
463.13	9046.17
463.32	9100.00
463.50	9233.41
463.68	9188.94
463.86	9167.88
464.05	8905.74
464.23	9043.83
464.41	9069.58
464.59	8917.44
464.78	9092.98
464.96	9050.85
465.14	9165.54
465.32	9401.93
465.50	9551.73
465.69	9329.38
465.87	9458.10
466.05	9277.88
466.23	9310.65
466.41	9359.80
466.60	9504.92
466.78	9266.18
466.96	9507.26
467.14	9348.10
467.32	9401.93
467.51	9425.34
467.69	9238.09
467.87	9511.94
468.05	9568.11
468.23	9385.55
468.41	9621.94
468.60	9577.47
468.78	9895.78
468.96	9701.52
469.14	9661.73
469.32	9830.25
469.50	9617.26
469.69	9818.55
469.87	9933.23
470.05	9893.44
470.23	9907.49
470.41	9951.96
470.59	9877.06
470.77	10003.45
470.95	10059.62
471.14	10289.00
471.32	9968.34
471.50	10335.81
471.68	10265.59
471.86	10572.20
472.04	10200.05
472.22	10565.18
472.40	10427.09
472.58	10511.35
472.77	10511.35
472.95	10597.95
473.13	10878.81
473.31	10539.43
473.49	10518.37
473.67	10785.19
473.85	10747.74
474.03	11014.56
474.21	11080.10
474.39	11166.70
474.57	11260.32
474.75	11337.56
474.93	11342.24
475.12	11112.86
475.30	11243.93
475.48	11468.62
475.66	11321.17
475.84	11239.25
476.02	11730.76
476.20	11599.70
476.38	11936.73
476.56	11733.11
476.74	12119.29
476.92	11955.46
477.10	11960.14
477.28	12203.55
477.46	12432.93
477.64	12313.56
477.82	12552.29
478.00	12596.76
478.18	12765.28
478.36	12643.57
478.54	12786.35
478.72	12802.73
478.90	12924.44
479.08	13259.13
479.26	13434.68
479.44	13392.55
479.62	13493.19
479.80	13509.57
479.98	13532.98
480.16	13617.24
480.34	13479.15
480.52	13816.18
480.70	13811.50
480.88	13612.56
481.06	13935.55
481.24	14045.55
481.41	14586.22
481.59	14345.14
481.77	14497.28
481.95	14611.96
482.13	14628.35
482.31	14373.23
482.49	14972.41
482.67	14731.33
482.85	15225.18
483.03	15344.55
483.21	15545.84
483.39	15789.25
483.57	15501.37
483.74	15693.29
483.92	15740.10
484.10	15616.05
484.28	16011.60
484.46	16285.45
484.64	16769.94
484.82	15990.54
485.00	16528.86
485.18	16491.41
485.35	16634.19
485.53	16343.96
485.71	16100.55
485.89	16512.48
486.07	16552.27
486.25	16847.18
486.43	17099.95
486.61	17212.30
486.78	17343.37
486.96	17472.10
487.14	17767.01
487.32	17825.52
487.50	18136.81
487.68	18441.08
487.85	18747.69
488.03	18614.28
488.21	18541.72
488.39	18588.53
488.57	18794.50
488.75	18953.66
488.92	19358.57
489.10	19456.87
489.28	19761.14
489.46	19990.52
489.64	20088.82
489.81	20301.81
489.99	20250.32
490.17	20339.26
490.35	20554.58
490.53	20308.83
490.70	20601.40
490.88	20655.23
491.06	21034.39
491.24	20840.13
491.41	21132.70
491.59	21160.78
491.77	21095.25
491.95	21151.42
492.13	21460.37
492.30	21813.79
492.48	21745.92
492.66	22050.19
492.84	22029.12
493.01	21884.01
493.19	22295.94
493.37	22216.36
493.54	22506.59
493.72	22787.46
493.90	22932.57
494.08	23119.81
494.25	23314.08
494.43	23250.88
494.61	23772.82
494.79	24023.26
494.96	23496.64
495.14	23850.06
495.32	23960.06
495.49	23803.25
495.67	24226.89
495.85	24507.75
496.02	24343.91
496.20	24484.34
496.38	24357.96
496.55	24584.99
496.73	25394.81
496.91	24868.19
497.09	25202.89
497.26	25364.39
497.44	25181.82
497.62	25165.44
497.79	25926.11
497.97	25542.27
498.14	25722.49
498.32	25539.93
498.50	26146.12
498.67	26436.35
498.85	26024.42
499.03	26536.99
499.20	26366.13
499.38	26534.65
499.56	26574.44
499.73	26761.69
499.91	26934.88
500.08	26836.58
500.26	26766.37
500.44	26888.07
500.61	27316.39
500.79	26719.56
500.97	27442.78
501.14	27660.45
501.32	27793.86
501.49	27468.53
501.67	27555.13
501.84	27927.27
502.02	27852.38
502.20	28048.98
502.37	27545.76
502.55	28142.60
502.72	28180.05
502.90	28229.20
503.07	28348.57
503.25	28257.29
503.43	28568.58
503.60	28648.16
503.78	28709.01
503.95	28446.87
504.13	29172.44
504.30	29181.80
504.48	29120.95
504.65	29158.39
504.83	29188.82
505.01	29696.72
505.18	29310.53
505.36	29872.26
505.53	29563.31
505.71	29982.26
505.88	30256.11
506.06	29677.99
506.23	30050.14
506.41	29558.63
506.58	30213.98
506.76	30192.91
506.93	30323.98
507.11	30321.64
507.28	30284.19
507.46	30120.35
507.63	30513.56
507.81	29963.54
507.98	30452.71
508.16	30972.31
508.33	31051.89
508.50	30918.48
508.68	31358.50
508.85	31501.27
509.03	31442.76
509.20	31725.96
509.38	31625.32
509.55	31515.31
509.73	31580.85
509.90	31793.84
510.08	31489.57
510.25	31938.95
510.42	32222.16
510.60	32053.64
510.77	32177.68
510.95	32638.77
511.12	32402.38
511.30	32683.24
511.47	32973.47
511.64	33057.73
511.82	32800.27
511.99	32718.35
512.17	32584.94
512.34	32545.15
512.51	32690.26
512.69	33008.58
512.86	33401.79
513.04	33448.60
513.21	33125.60
513.38	33453.28
513.56	33188.80
513.73	33156.03
513.90	33589.03
514.08	33621.80
514.25	33661.58
514.43	33315.19
514.60	33333.91
514.77	33453.28
514.95	34197.57
515.12	33738.82
515.29	33834.78
515.47	34550.99
515.64	34270.12
515.81	34082.88
515.99	33951.81
516.16	34089.90
516.33	34183.52
516.51	34078.20
516.68	33663.93
516.85	33577.33
517.03	33923.72
517.20	34366.09
517.37	34476.09
517.54	35185.27
517.72	35154.85
517.89	34721.85
518.06	34497.16
518.24	34251.40
518.41	34288.85
518.58	35225.06
518.75	35199.32
518.93	35335.07
519.10	35538.69
519.27	35468.48
519.45	35372.52
519.62	35409.96
519.79	35948.29
519.96	35934.24
520.14	35866.37
520.31	35761.05
520.48	35695.51
520.65	35658.06
520.83	36231.49
521.00	36388.31
521.17	36318.09
521.34	36535.76
521.52	36739.39
521.69	36676.19
521.86	36809.61
522.03	36683.22
522.20	36732.37
522.38	36774.50
522.55	36617.68
522.72	37088.13
522.89	36748.75
523.07	37022.59
523.24	36727.69
523.41	37251.97
523.58	37076.43
523.75	37514.11
523.92	37647.52
524.10	38160.09
524.27	37741.14
524.44	37603.05
524.61	38370.74
524.78	38391.81
524.96	38167.12
525.13	38204.56
525.30	38644.59
525.47	38848.21
525.64	38019.66
525.81	38260.74
525.98	37991.58
526.16	37633.47
526.33	37436.87
526.50	38256.06
526.67	37879.23
526.84	38087.54
527.01	37818.38
527.18	38185.84
527.36	38532.24
527.53	38845.87
527.70	38983.96
527.87	38763.95
528.04	38885.66
528.21	39070.56
528.38	39302.28
528.55	39248.44
528.72	39519.95
528.89	39089.29
529.07	39508.24
529.24	39304.62
529.41	39164.18
529.58	39288.23
529.75	39440.37
529.92	39463.77
530.09	39440.37
530.26	39882.73
530.43	39775.06
530.60	40032.52
530.77	39672.08
530.94	39952.94
531.11	40027.84
531.28	39709.53
531.46	40512.33
531.63	40215.08
531.80	39627.61
531.97	40325.09
532.14	40046.57
532.31	39817.19
532.48	39875.71
532.65	40334.45
532.82	40444.46
532.99	40222.11
533.16	40289.98
533.33	40690.21
533.50	40926.61
533.67	40442.12
533.84	40058.27
534.01	40549.78
534.18	40392.97
534.35	40800.22
534.52	40746.39
534.69	41104.49
534.86	40987.46
535.03	40809.58
535.20	41249.60
535.37	41415.78
535.54	41464.93
535.71	41448.55
535.88	41504.72
536.05	41244.92
536.22	41191.09
536.38	41378.33
536.55	41158.32
536.72	41207.47
536.89	40762.77
537.06	41380.67
537.23	41198.11
537.40	41378.33
537.57	41460.25
537.74	41663.88
537.91	41961.12
538.08	42270.08
538.25	41694.30
538.42	41834.74
538.59	42337.95
538.75	41607.70
538.92	41663.88
539.09	41890.91
539.26	41626.43
539.43	42574.34
539.60	42370.72
539.77	41893.25
539.94	42031.34
540.11	41621.75
540.28	41907.29
540.44	41951.76
540.61	42082.83
540.78	42139.00
540.95	41593.66
541.12	41958.78
541.29	42359.02
541.46	42490.09
541.62	42581.37
541.79	43061.18
541.96	42529.87
542.13	42328.59
542.30	42796.70
542.47	42916.06
542.63	42492.43
542.80	42887.98
542.97	43016.71
543.14	43402.89
543.31	43433.32
543.48	43601.84
543.64	43782.06
543.81	43508.22
543.98	43482.47
544.15	43517.58
544.32	43803.13
544.48	43915.47
544.65	43365.45
544.82	43751.63
544.99	43374.81
545.16	43878.02
545.32	43777.38
545.49	43435.66
545.66	44545.08
545.83	43669.72
546.00	43812.49
546.16	43899.09
546.33	43536.30
546.50	43533.96
546.67	44002.07
546.83	43777.38
547.00	43981.01
547.17	43583.12
547.34	43545.67
547.50	44046.54
547.67	44313.36
547.84	43899.09
548.00	44514.65
548.17	44561.46
548.34	44416.35
548.51	44409.32
548.67	44245.49
548.84	44566.14
549.01	44367.20
549.18	44573.16
549.34	44369.54
549.51	44210.38
549.68	44966.37
549.84	44793.17
550.01	45076.38
550.18	44697.21
550.34	44385.92
550.51	44453.79
550.68	44320.38
550.84	44591.89
551.01	44229.10
551.18	44552.10
551.34	44479.54
551.51	44470.18
551.68	44727.64
551.84	45235.53
552.01	45027.23
552.18	45057.65
552.34	44903.18
552.51	44795.51
552.68	45111.49
552.84	44912.54
553.01	45282.34
553.18	45006.16
553.34	45200.43
553.51	44875.09
553.67	45139.57
553.84	45265.96
554.01	45193.40
554.17	45113.83
554.34	45673.21
554.51	45390.01
554.67	45408.73
554.84	45397.03
555.00	45429.80
555.17	45703.64
555.33	45373.63
555.50	45155.96
555.67	45528.10
555.83	45595.98
556.00	45577.25
556.16	45979.82
556.33	45860.46
556.50	45815.99
556.66	45591.30
556.83	45663.85
556.99	45766.84
557.16	45715.34
557.32	45539.80
557.49	45610.02
557.65	45413.41
557.82	45542.14
557.98	45710.66
558.15	45659.17
558.32	45741.09
558.48	45874.50
558.65	45930.67
558.81	45256.60
558.98	45820.67
559.14	45881.52
559.31	45942.38
559.47	46127.28
559.64	45689.60
559.80	45940.04
559.97	46087.49
560.13	45626.40
560.30	45979.82
560.46	45935.35
560.63	45853.44
560.79	46028.98
560.96	46185.79
561.12	46101.53
561.29	46248.99
561.45	46127.28
561.61	45862.80
561.78	46129.62
561.94	46146.00
562.11	46010.25
562.27	45865.14
562.44	46050.04
562.60	46447.93
562.77	46700.71
562.93	46370.69
563.10	46342.61
563.26	45881.52
563.42	46506.44
563.59	46227.92
563.75	46138.98
563.92	46351.97
564.08	46157.70
564.24	46405.80
564.41	46337.93
564.57	46438.57
564.74	46490.06
564.90	46391.76
565.07	46520.49
565.23	46312.18
565.39	46419.84
565.56	46667.94
565.72	46108.55
565.88	46377.72
566.05	46579.00
566.21	46174.09
566.38	46398.78
566.54	46270.05
566.70	46649.22
566.87	47063.49
567.03	46742.84
567.19	47370.10
567.36	46464.32
567.52	46298.14
567.68	46534.53
567.85	46384.74
568.01	46707.73
568.17	46349.63
568.34	46487.72
568.50	46452.61
568.66	46525.17
568.83	46635.17
568.99	46274.73
569.15	46258.35
569.32	46693.69
569.48	46314.52
569.64	46590.70
569.81	46710.07
569.97	46745.18
570.13	46698.37
570.30	46291.12
570.46	46595.38
570.62	46415.16
570.78	46681.98
570.95	46492.40
571.11	46948.81
571.27	46452.61
571.43	46499.42
571.60	46859.87
571.76	46909.02
571.92	46529.85
572.09	46445.59
572.25	46705.39
572.41	46553.26
572.57	46752.20
572.74	47236.69
572.90	46953.49
573.06	46707.73
573.22	46813.05
573.38	46747.52
573.55	46698.37
573.71	46703.05
573.87	46686.67
574.03	46199.83
574.20	46340.27
574.36	46569.64
574.52	46782.63
574.68	46616.45
574.84	46796.67
575.01	46670.28
575.17	47044.77
575.33	46651.56
575.49	46368.35
575.65	46794.33
575.82	47110.30
575.98	46916.04
576.14	46995.62
576.30	46960.51
576.46	46644.54
576.62	46712.41
576.79	46560.28
576.95	46607.09
577.11	46452.61
577.27	46993.28
577.43	47033.07
577.59	46672.62
577.75	46799.01
577.92	46164.73
578.08	46375.37
578.24	46665.60
578.40	46625.81
578.56	46742.84
578.72	46543.89
578.88	47044.77
579.04	46946.47
579.21	46548.57
579.37	46581.34
579.53	47131.37
579.69	46724.11
579.85	47175.84
580.01	46962.85
580.17	47014.34
580.33	46918.38
580.49	46784.97
580.65	46667.94
580.82	46658.58
580.98	46796.67
581.14	47110.30
581.30	47063.49
581.46	46768.58
581.62	47232.01
581.78	46703.05
581.94	47182.86
582.10	47023.70
582.26	47040.09
582.42	47091.58
582.58	46745.18
582.74	46738.16
582.90	46740.50
583.06	47365.42
583.22	46969.87
583.38	47070.51
583.54	47138.39
583.70	46319.20
583.86	47133.71
584.02	46946.47
584.18	46728.80
584.34	47143.07
584.50	47077.54
584.66	47105.62
584.82	46806.03
584.98	46955.83
585.14	47220.31
585.30	46532.19
585.46	46667.94
585.62	46452.61
585.78	46714.75
585.94	46766.24
586.10	46618.79
586.26	46981.57
586.42	46944.12
586.58	46918.38
586.74	46820.08
586.90	46576.66
587.06	46768.58
587.22	47058.81
587.38	46653.90
587.54	47334.99
587.70	47208.61
587.86	47391.17
588.02	46576.66
588.18	47161.79
588.34	46997.96
588.49	46848.16
588.65	46038.34
588.81	46515.81
588.97	46869.23
589.13	46525.17
589.29	46571.98
589.45	46314.52
589.61	47047.11
589.77	47234.35
589.93	46958.17
590.08	46946.47
590.24	47075.19
590.40	47250.74
590.56	47168.82
590.72	47100.94
590.88	46925.40
591.04	47098.60
591.20	47517.56
591.35	47217.97
591.51	47683.73
591.67	47126.69
591.83	47377.12
591.99	46934.76
592.15	46859.87
592.31	47250.74
592.46	46855.18
592.62	46918.38
592.78	47267.12
592.94	47374.78
593.10	47004.98
593.26	47526.92
593.41	47569.05
593.57	47449.68
593.73	47182.86
593.89	46848.16
594.05	47136.05
594.20	47189.88
594.36	47594.79
594.52	47145.41
594.68	47281.16
594.84	47100.94
594.99	47517.56
595.15	47292.86
595.31	47409.89
595.47	47470.75
595.62	47105.62
595.78	46988.60
595.94	46916.04
596.10	47241.37
596.25	47311.59
596.41	47449.68
596.57	47051.79
596.73	47323.29
596.88	47021.36
597.04	47044.77
597.20	46841.14
597.36	47372.44
597.51	47510.53
597.67	47044.77
597.83	47232.01
597.99	47379.46
598.14	47070.51
598.30	47334.99
598.46	47246.05
598.61	47318.61
598.77	47206.26
598.93	47449.68
599.09	46967.53
599.24	47695.44
599.40	47222.65
599.56	47587.77
599.71	47388.83
599.87	47402.87
600.03	46995.62
600.18	47192.22
600.34	47255.42
600.50	47063.49
600.65	47072.85
600.81	47243.71
600.97	47325.63
601.12	47473.09
601.28	47189.88
601.44	47058.81
601.59	46979.23
601.75	47136.05
601.91	47171.16
602.06	46967.53
602.22	47313.93
602.37	47447.34
602.53	47129.03
602.69	47435.64
602.84	47306.91
603.00	47199.24
603.16	47351.38
603.31	46756.88
603.47	47543.30
603.62	47103.28
603.78	47360.74
603.94	47168.82
604.09	47290.52
604.25	46955.83
604.40	47503.51
604.56	47159.45
604.71	47061.15
604.87	46986.25
605.03	47281.16
605.18	47281.16
605.34	46906.68
605.49	46658.58
605.65	46909.02
605.80	47253.08
605.96	47477.77
606.12	47285.84
606.27	46960.51
606.43	46932.42
606.58	47363.08
606.74	47126.69
606.89	46866.89
607.05	46829.44
607.20	46852.84
607.36	46965.19
607.51	47566.71
607.67	46948.81
607.82	46820.08
607.98	46887.95
608.13	46653.90
608.29	46780.29
608.44	46822.42
608.60	46672.62
608.75	46541.55
608.91	46410.48
609.06	46665.60
609.22	46927.74
609.37	46607.09
609.53	46302.82
609.68	46773.27
609.84	46696.03
609.99	46902.00
610.15	46637.51
610.30	46426.87
610.46	46075.79
610.61	46635.17
610.76	46735.82
610.92	46277.07
611.07	46244.30
611.23	46632.83
611.38	46277.07
611.54	46361.33
611.69	46164.73
611.84	46012.59
612.00	46218.56
612.15	46075.79
612.31	46473.68
612.46	46241.96
612.62	46614.11
612.77	46391.76
612.92	46862.21
613.08	46157.70
613.23	46138.98
613.39	46284.09
613.54	46120.26
613.69	46160.05
613.85	45736.41
614.00	46410.48
614.15	46143.66
614.31	46148.34
614.46	46691.35
614.62	46073.45
614.77	46272.39
614.92	46078.13
615.08	45830.03
615.23	46075.79
615.38	45961.10
615.54	45935.35
615.69	45977.48
615.84	45783.22
616.00	46047.70
616.15	45853.44
616.30	45371.28
616.46	45876.84
616.61	45656.83
616.76	45485.97
616.92	45825.35
617.07	45542.14
617.22	45385.33
617.37	45769.18
617.53	45624.06
617.68	45738.75
617.83	45853.44
617.99	45731.73
618.14	45818.33
618.29	45865.14
618.45	45408.73
618.60	45586.61
618.75	45418.10
618.90	45483.63
619.06	45607.68
619.21	45153.62
619.36	45984.51
619.51	45464.91
619.67	45701.30
619.82	45406.39
619.97	45518.74
620.12	45001.48
620.28	45057.65
620.43	45029.57
620.58	45263.62
620.73	44898.50
620.89	44910.20
621.04	44814.24
621.19	45109.14
621.34	44821.26
621.49	44814.24
621.65	44402.30
621.80	45382.99
621.95	44933.60
622.10	45001.48
622.25	44849.35
622.41	44610.61
622.56	44540.39
622.71	45373.63
622.86	44671.46
623.01	44664.44
623.16	44692.53
623.32	44666.78
623.47	45029.57
623.62	44882.11
623.77	44877.43
623.92	44509.97
624.07	44399.96
624.23	44168.25
624.38	44341.45
624.53	44273.57
624.68	44355.49
624.83	44919.56
624.98	44622.31
625.13	44133.14
625.29	44322.72
625.44	44179.95
625.59	44428.05
625.74	44086.33
625.89	43559.71
626.04	43576.09
626.19	44142.50
626.34	44016.11
626.49	44142.50
626.65	43840.57
626.80	43959.94
626.95	43943.56
627.10	43711.84
627.25	44175.27
627.40	43512.90
627.55	43313.95
627.70	42927.77
627.85	43393.53
628.00	43658.01
628.15	43908.45
628.30	43866.32
628.45	43871.00
628.60	43732.91
628.76	43938.88
628.91	43384.17
629.06	43482.47
629.21	43543.33
629.36	43674.40
629.51	43138.41
629.66	43157.14
629.81	43285.87
629.96	43257.78
630.11	43042.45
630.26	43126.71
630.41	43332.68
630.56	43267.14
630.71	43793.76
630.86	43442.68
631.01	43136.07
631.16	42948.83
631.31	42494.77
631.46	42667.97
631.61	43199.27
631.76	42864.57
631.91	42986.28
632.06	43234.38
632.21	43299.91
632.36	43234.38
632.51	42792.01
632.66	43075.22
632.81	42742.86
632.96	43028.41
633.10	42590.73
633.25	42286.46
633.40	42354.33
633.55	42841.17
633.70	42742.86
633.85	42707.76
634.00	42707.76
634.15	42855.21
634.30	42543.92
634.45	42710.10
634.60	42249.01
634.75	42801.38
634.90	42244.33
635.05	42719.46
635.19	42394.12
635.34	42707.76
635.49	42497.11
635.64	42150.71
635.79	42466.68
635.94	42501.79
636.09	42532.22
636.24	42344.97
636.39	41991.55
636.53	41923.68
636.68	42089.85
636.83	41848.78
636.98	42195.18
637.13	41825.37
637.28	42174.11
637.43	41727.07
637.57	42342.63
637.72	42241.99
637.87	42263.05
638.02	42309.86
638.17	41837.08
638.32	41642.81
638.46	42347.31
638.61	42160.07
638.76	41727.07
638.91	41706.01
639.06	41514.08
639.20	41518.76
639.35	41729.41
639.50	41998.57
639.65	42134.32
639.80	41876.86
639.94	41631.11
640.09	41839.42
640.24	41439.18
640.39	41415.78
640.54	41258.96
640.68	41455.57
640.83	41265.99
640.98	41401.74
641.13	40931.29
641.27	41717.71
641.42	41408.76
641.57	41883.89
641.72	41448.55
641.86	41172.36
642.01	41064.70
642.16	40964.06
642.31	40608.29
642.45	41200.45
642.60	40708.94
642.75	40823.62
642.90	41172.36
643.04	41034.27
643.19	40790.86
643.34	41167.68
643.48	40772.13
643.63	40978.10
643.78	40987.46
643.93	40584.89
644.07	40959.38
644.22	40299.34
644.37	40631.70
644.51	40486.59
644.66	41123.21
644.81	40687.87
644.95	40912.56
645.10	40776.81
645.25	40935.97
645.39	40563.82
645.54	40891.50
645.69	40722.98
645.83	40416.37
645.98	40547.44
646.13	40671.49
646.27	40701.92
646.42	40371.90
646.57	40137.85
646.71	40299.34
646.86	40437.44
647.00	40444.46
647.15	40479.57
647.30	40350.84
647.44	40268.92
647.59	40119.12
647.74	40601.27
647.88	40182.32
648.03	40151.89
648.17	39969.33
648.32	39814.85
648.47	40254.87
648.61	40212.74
648.76	40577.87
648.90	40187.00
649.05	39917.84
649.20	40191.68
649.34	39997.41
649.49	39742.30
649.63	39817.19
649.78	39782.09
649.92	39220.36
650.07	39875.71
650.21	40048.91
650.36	39328.02
650.51	39466.11
650.65	40517.01
650.80	39833.58
650.94	40287.64
651.09	39562.08
651.23	39529.31
651.38	39606.55
651.52	39227.38
651.67	39700.17
651.81	39739.96
651.96	39321.00
652.10	39505.90
652.25	39171.21
652.39	39463.77
652.54	39215.68
652.68	39344.41
652.83	39697.83
652.97	39175.89
653.12	39648.68
653.26	39356.11
653.41	39400.58
653.55	38923.11
653.70	38876.30
653.84	38895.02
653.99	39154.82
654.13	39096.31
654.27	39093.97
654.42	38897.36
654.56	38660.97
654.71	38855.23
654.85	38932.47
655.00	38913.75
655.14	38726.50
655.29	38501.81
655.43	38864.60
655.57	38288.82
655.72	38569.69
655.86	38396.49
656.01	37996.26
656.15	38302.87
656.30	38033.71
656.44	38300.53
656.58	37998.60
656.73	37965.83
656.87	37832.42
657.01	38607.14
657.16	37801.99
657.30	37883.91
657.45	38057.11
657.59	37991.58
657.73	37837.10
657.88	38209.25
658.02	37954.13
658.16	37855.82
658.31	38464.36
658.45	38473.73
658.60	38316.91
658.74	38162.43
658.88	38375.42
659.03	37766.88
659.17	37893.27
659.31	37399.42
659.46	37748.16
659.60	37579.64
659.74	37804.33
659.89	37598.37
660.03	37343.25
660.17	37511.77
660.32	37556.24
660.46	37968.17
660.60	37549.21
660.74	37691.99
660.89	37823.06
661.03	37471.98
661.17	37336.23
661.32	37013.23
661.46	37380.70
661.60	36573.21
661.74	36858.76
661.89	37205.16
662.03	36914.93
662.17	36708.96
662.31	36769.82
662.46	37202.82
662.60	37134.94
662.74	36905.57
662.88	36959.40
663.03	36423.42
663.17	36505.34
663.31	36376.61
663.45	36739.39
663.60	36690.24
663.74	36385.97
663.88	36027.87
664.02	36072.34
664.17	36250.22
664.31	35981.06
664.45	35974.03
664.59	36006.80
664.73	36018.50
664.88	36409.37
665.02	35868.71
665.16	36121.49
665.30	36144.89
665.44	36278.30
665.59	35763.39
665.73	35489.54
665.87	35339.75
666.01	35395.92
666.15	35559.76
666.29	35864.03
666.44	35529.33
666.58	35522.31
666.72	35414.65
666.86	35398.26
667.00	35416.99
667.14	35204.00
667.28	35218.04
667.43	35082.29
667.57	35129.10
667.71	34649.29
667.85	35187.61
667.99	34906.75
668.13	34665.67
668.27	34653.97
668.41	35136.12
668.56	34829.51
668.70	34677.38
668.84	34766.32
668.98	33977.56
669.12	34450.35
669.26	34759.30
669.40	34291.19
669.54	34096.92
669.68	34286.51
669.82	34258.42
669.96	33858.19
670.10	33745.84
670.25	34157.78
670.39	33666.27
670.53	33928.41
670.67	33991.60
670.81	33785.63
670.95	34335.66
671.09	33497.75
671.23	33853.51
671.37	33773.93
671.51	33614.77
671.65	33322.21
671.79	33319.87
671.93	33319.87
672.07	33518.81
672.21	33312.84
672.35	32985.17
672.49	33015.60
672.63	33322.21
672.77	33076.45
672.91	33069.43
673.05	32313.44
673.19	32697.28
673.33	32645.79
673.47	32219.81
673.61	32582.60
673.75	32439.82
673.89	32144.92
674.03	32121.51
674.17	32173.00
674.31	32201.09
674.45	31857.03
674.59	31992.78
674.73	32308.76
674.87	32259.60
675.01	31700.22
675.15	32142.58
675.29	31828.95
675.43	31606.59
675.56	31365.52
675.70	31922.57
675.84	31470.84
675.98	30267.81
676.12	31009.76
676.26	31016.78
676.40	30630.59
676.54	30958.27
676.68	31112.74
676.82	30153.12
676.96	30487.82
677.10	30272.49
677.23	30167.16
677.37	30373.13
677.51	30630.59
677.65	30419.94
677.79	29933.11
677.93	30141.42
678.07	30230.36
678.21	29862.90
678.34	29886.30
678.48	29785.66
678.62	29521.18
678.76	29895.66
678.90	29401.81
679.04	29479.05
679.18	29486.07
679.31	28697.31
679.45	29132.65
679.59	28992.22
679.73	28680.92
679.87	28819.02
680.00	29340.96
680.14	28458.57
680.28	28308.78
680.42	28664.54
680.56	28591.98
680.70	28320.48
680.83	28535.81
680.97	28133.24
681.11	28107.49
681.25	27791.52
681.39	28081.75
681.52	27646.41
681.66	27953.02
681.80	27772.80
681.94	27517.68
682.07	27674.49
682.21	27349.16
682.35	26995.74
682.49	27080.00
682.62	27072.98
682.76	27271.92
682.90	27552.79
683.04	26984.04
683.17	26813.18
683.31	26843.60
683.45	26637.64
683.59	26682.11
683.72	26417.63
683.86	26169.53
684.00	25916.75
684.13	26316.98
684.27	26228.04
684.41	26111.02
684.55	25748.23
684.68	25867.60
684.82	25621.84
684.96	25390.13
685.09	25701.42
685.23	25324.60
685.37	25387.79
685.50	25135.01
685.64	25191.19
685.78	25333.96
685.91	25256.72
686.05	24760.53
686.19	24783.93
686.32	24545.20
686.46	24830.74
686.60	23903.89
686.73	23997.51
686.87	23711.97
687.01	23852.40
687.14	23953.04
687.28	23711.97
687.42	23405.36
687.55	23482.59
687.69	23555.15
687.82	23620.69
687.96	23679.20
688.10	23309.40
688.23	23789.20
688.37	23194.71
688.50	23051.94
688.64	22890.44
688.78	23204.07
688.91	22988.74
689.05	22860.01
689.18	22595.53
689.32	22457.44
689.46	22534.68
689.59	22792.14
689.73	22471.48
689.86	22333.39
690.00	22501.91
690.13	22658.73
690.27	22394.25
690.41	22136.79
690.54	22101.68
690.68	21638.25
690.81	21893.37
690.95	21689.74
691.08	21783.37
691.22	21422.92
691.35	21907.41
691.49	21673.36
691.62	21610.17
691.76	21565.70
691.89	21537.61
692.03	21202.91
692.16	21113.97
692.30	20982.90
692.43	21036.74
692.57	20760.55
692.70	20765.23
692.84	20725.44
692.97	20730.12
693.11	20350.96
693.24	20318.19
693.38	20393.09
693.51	20290.10
693.65	20107.54
693.78	20533.52
693.92	20011.58
694.05	19805.61
694.19	20016.26
694.32	19960.09
694.45	19726.04
694.59	19704.97
694.72	19295.38
694.86	19367.93
694.99	19309.42
695.13	19173.67
695.26	18916.21
695.39	18948.98
695.53	18960.68
695.66	18974.72
695.80	19094.09
695.93	18457.46
696.07	18623.64
696.20	18953.66
696.33	18609.60
696.47	18560.45
696.60	18459.81
696.73	18637.69
696.87	18534.70
697.00	18272.56
697.14	18267.88
697.27	18064.25
697.40	17888.71
697.54	18129.79
697.67	17778.71
697.80	17940.21
697.94	17584.44
698.07	17689.77
698.21	17507.21
698.34	17851.27
698.47	17432.31
698.61	16957.18
698.74	17242.73
698.87	17071.87
699.01	17357.41
699.14	17020.38
699.27	17048.46
699.40	16931.44
699.54	16566.31
699.67	16545.25
699.80	16765.26
699.94	16430.56
700.07	16594.40
700.20	16610.78
700.34	16084.16
700.47	16243.32
700.60	16273.74
700.73	16465.67
700.87	16133.31
701.00	15950.75
701.13	15819.68
701.26	15777.55
701.40	16006.92
701.53	15667.55
701.66	15676.91
701.79	15517.75
701.93	15676.91
702.06	15297.74
702.19	15248.59
702.32	15372.64
702.46	15232.21
702.59	15269.66
702.72	15234.55
702.85	15456.90
702.99	15229.87
703.12	15059.01
703.25	15154.97
703.38	14904.53
703.51	14721.97
703.65	14944.32
703.78	14637.71
703.91	14647.07
704.04	14429.40
704.17	14579.20
704.31	14476.21
704.44	14286.63
704.57	13919.17
704.70	13895.76
704.83	14015.13
704.96	14370.89
705.10	14251.52
705.23	14064.28
>>>>>End Processed Spectral Data<<<<<
