SpectraSuite Data File
++++++++++++++++++++++++++++++++++++
Date: Fri Oct 25 10:43:56 EDT 2013
User: price-jones
Dark Spectrum Present: No
Reference Spectrum Present: No
Number of Sampled Component Spectra: 1
Spectrometers: USB2+H05261
Integration Time (usec): 100000 (USB2+H05261)
Spectra Averaged: 1 (USB2+H05261)
Boxcar Smoothing: 0 (USB2+H05261)
Correct for Electrical Dark: No (USB2+H05261)
Strobe/Lamp Enabled: No (USB2+H05261)
Correct for Detector Non-linearity: No (USB2+H05261)
Correct for Stray Light: No (USB2+H05261)
Number of Pixels in Processed Spectrum: 2048
>>>>>Begin Processed Spectral Data<<<<<
365.73	161.50
365.92	161.50
366.12	161.50
366.32	138.09
366.52	23.41
366.72	21.06
366.91	0.00
367.11	28.09
367.31	60.85
367.51	0.00
367.70	0.00
367.90	16.38
368.10	25.75
368.30	16.38
368.49	23.41
368.69	18.72
368.89	0.00
369.09	0.00
369.28	65.54
369.48	49.15
369.68	161.50
369.87	53.83
370.07	44.47
370.27	210.65
370.47	278.52
370.66	372.15
370.86	395.55
371.06	465.77
371.25	510.24
371.45	440.02
371.65	433.00
371.84	440.02
372.04	512.58
372.24	507.90
372.44	454.06
372.63	524.28
372.83	585.13
373.03	535.98
373.22	503.22
373.42	470.45
373.62	475.13
373.81	610.88
374.01	482.15
374.21	580.45
374.40	610.88
374.60	592.16
374.79	606.20
374.99	601.52
375.19	575.77
375.38	566.41
375.58	638.97
375.78	620.24
375.97	702.16
376.17	641.31
376.37	594.50
376.56	636.63
376.76	641.31
376.95	589.82
377.15	580.45
377.35	606.20
377.54	718.54
377.74	578.11
377.93	655.35
378.13	763.01
378.33	709.18
378.52	660.03
378.72	751.31
378.91	645.99
379.11	631.94
379.31	718.54
379.50	709.18
379.70	732.59
379.89	709.18
380.09	674.07
380.28	720.88
380.48	748.97
380.68	678.76
380.87	748.97
381.07	716.20
381.26	727.91
381.46	755.99
381.65	683.44
381.85	751.31
382.04	746.63
382.24	711.52
382.43	723.23
382.63	695.14
382.83	685.78
383.02	730.25
383.22	793.44
383.41	718.54
383.61	695.14
383.80	737.27
384.00	765.36
384.19	786.42
384.39	805.14
384.58	779.40
384.78	868.34
384.97	833.23
385.17	819.19
385.36	774.72
385.56	821.53
385.75	816.85
385.95	814.51
386.14	842.59
386.34	896.43
386.53	901.11
386.72	835.57
386.92	931.53
387.11	898.77
387.31	912.81
387.50	952.60
387.70	896.43
387.89	950.26
388.09	929.19
388.28	987.71
388.48	947.92
388.67	936.21
388.86	968.98
389.06	887.06
389.25	990.05
389.45	952.60
389.64	1034.52
389.84	1025.15
390.03	1018.13
390.22	1053.24
390.42	1088.35
390.61	1043.88
390.81	1128.14
391.00	1090.69
391.19	1160.91
391.39	1132.82
391.58	1090.69
391.78	1053.24
391.97	1097.71
392.16	1102.39
392.36	1034.52
392.55	1048.56
392.75	1064.94
392.94	1001.75
393.13	1062.60
393.33	1001.75
393.52	1128.14
393.71	1233.46
393.91	1139.84
394.10	1179.63
394.29	1144.52
394.49	1317.72
394.68	1315.38
394.88	1270.91
395.07	1291.98
395.26	1313.04
395.46	1214.74
395.65	1252.19
395.84	1270.91
396.04	1327.08
396.23	1186.65
396.42	1188.99
396.62	1198.35
396.81	1198.35
397.00	1205.38
397.19	1397.30
397.39	1385.60
397.58	1509.65
397.77	1345.81
397.97	1554.12
398.16	1486.24
398.35	1479.22
398.55	1502.62
398.74	1659.44
398.93	1526.03
399.12	1526.03
399.32	1519.01
399.51	1633.69
399.70	1650.08
399.90	1577.52
400.09	1598.59
400.28	1724.97
400.47	1734.34
400.67	1692.21
400.86	1729.66
401.05	1694.55
401.24	1746.04
401.44	1795.19
401.63	1764.76
401.82	1717.95
402.01	1900.52
402.21	1790.51
402.40	1870.09
402.59	1802.21
402.78	1827.96
402.97	1799.87
403.17	1884.13
403.36	1923.92
403.55	1961.37
403.74	1949.67
403.93	1888.81
404.13	1970.73
404.32	1952.01
404.51	1919.24
404.70	1973.07
404.89	1956.69
405.09	1959.03
405.28	2059.67
405.47	1968.39
405.66	2019.88
405.85	2129.89
406.05	2031.58
406.24	2069.03
406.43	2054.99
406.62	2183.72
406.81	2172.02
407.00	2202.44
407.20	2165.00
407.39	2083.08
407.58	2218.83
407.77	2324.15
407.96	2338.20
408.15	2293.72
408.34	2377.98
408.54	2242.23
408.73	2328.83
408.92	2368.62
409.11	2349.90
409.30	2469.27
409.49	2275.00
409.68	2377.98
409.87	2408.41
410.07	2443.52
410.26	2558.21
410.45	2450.54
410.64	2445.86
410.83	2597.99
411.02	2609.70
411.21	2724.38
411.40	2654.17
411.59	2736.09
411.78	2815.66
411.98	2703.32
412.17	2747.79
412.36	2848.43
412.55	2803.96
412.74	2932.69
412.93	2949.08
413.12	2832.05
413.31	2904.60
413.50	2956.10
413.69	2974.82
413.88	3007.59
414.07	2951.42
414.26	3012.27
414.45	3220.58
414.64	3056.74
414.83	3148.02
415.02	3103.55
415.22	3143.34
415.41	3290.79
415.60	3321.22
415.79	3421.86
415.98	3368.03
416.17	3370.37
416.36	3361.01
416.55	3302.50
416.74	3548.25
416.93	3459.31
417.12	3452.29
417.31	3492.08
417.50	3431.23
417.69	3618.47
417.88	3501.44
418.07	3613.79
418.26	3669.96
418.45	3620.81
418.64	3709.75
418.83	3648.90
419.02	3625.49
419.21	3679.32
419.39	3812.73
419.58	3705.07
419.77	3669.96
419.96	3737.84
420.15	3826.78
420.34	3808.05
420.53	3850.18
420.72	3918.06
420.91	3873.59
421.10	3992.95
421.29	4053.81
421.48	3885.29
421.67	4187.22
421.86	3953.16
422.05	4011.68
422.24	3990.61
422.43	3845.50
422.61	3976.57
422.80	3911.04
422.99	4009.34
423.18	4126.36
423.37	4191.90
423.56	4224.67
423.75	4135.73
423.94	4117.00
424.13	3733.15
424.32	3861.88
424.50	4121.68
424.69	4208.28
424.88	4227.01
425.07	4049.13
425.26	4025.72
425.45	4056.15
425.64	4161.47
425.83	4074.87
426.01	4273.82
426.20	4128.70
426.39	4140.41
426.58	4063.17
426.77	4149.77
426.96	4112.32
427.15	4175.52
427.33	4166.15
427.52	4297.22
427.71	4315.95
427.90	4236.37
428.09	4212.96
428.28	4351.06
428.46	4404.89
428.65	4365.10
428.84	4353.40
429.03	4440.00
429.22	4250.41
429.40	4250.41
429.59	4205.94
429.78	4184.88
429.97	3981.25
430.16	4149.77
430.34	4194.24
430.53	4236.37
430.72	4402.55
430.91	4386.16
431.10	4519.57
431.28	4774.69
431.47	4936.19
431.66	4922.15
431.85	4627.24
432.03	4805.12
432.22	4816.82
432.41	4697.46
432.60	4854.27
432.79	4910.44
432.97	5114.07
433.16	4954.91
433.35	4695.11
433.54	4924.49
433.72	4819.16
433.91	4854.27
434.10	4903.42
434.28	5039.17
434.47	4964.28
434.66	5121.09
434.85	5121.09
435.03	5102.37
435.22	5231.10
435.41	5394.93
435.59	5296.63
435.78	5224.08
435.97	5392.59
436.16	5364.51
436.34	5350.46
436.53	5207.69
436.72	5434.72
436.90	5205.35
437.09	5336.42
437.28	5336.42
437.46	5266.21
437.65	5465.15
437.84	5390.25
438.02	5348.12
438.21	5462.81
438.40	5210.03
438.58	5575.16
438.77	5647.71
438.96	5617.29
439.14	5661.76
439.33	5860.70
439.52	5942.62
439.70	5816.23
439.89	5867.72
440.08	5825.59
440.26	5919.21
440.45	5891.13
440.63	5921.56
440.82	6143.91
441.01	6120.50
441.19	6293.70
441.38	6347.53
441.57	6277.32
441.75	6464.56
441.94	6487.96
442.12	6389.66
442.31	6581.59
442.50	6691.59
442.68	6637.76
442.87	6614.35
443.05	6565.20
443.24	6633.08
443.43	6752.45
443.61	6839.05
443.80	6995.86
443.98	6689.25
444.17	6384.98
444.35	6853.09
444.54	7122.25
444.73	7007.56
444.91	6782.87
445.10	6717.34
445.28	6684.57
445.47	6752.45
445.65	6740.74
445.84	6579.25
446.02	6960.75
446.21	6810.96
446.39	6876.49
446.58	6927.99
446.77	6925.65
446.95	6820.32
447.14	6829.68
447.32	7082.46
447.51	7077.78
447.69	6862.45
447.88	7042.67
448.06	6937.35
448.25	7014.59
448.43	6956.07
448.62	7073.10
448.80	7023.95
448.99	7112.89
449.17	7122.25
449.36	7002.88
449.54	7400.77
449.73	7391.41
449.91	7290.77
450.10	7279.07
450.28	7618.44
450.46	7536.52
450.65	7571.63
450.83	7433.54
451.02	7569.29
451.20	7632.49
451.39	7442.90
451.57	7468.65
451.76	7447.58
451.94	7353.96
452.13	7548.23
452.31	7466.31
452.49	7478.01
452.68	7541.21
452.86	7342.26
453.05	7442.90
453.23	7653.55
453.42	7470.99
453.60	7758.88
453.78	7925.05
453.97	7765.90
454.15	7747.17
454.34	7735.47
454.52	7728.45
454.70	7857.18
454.89	7810.37
455.07	7861.86
455.26	7953.14
455.44	8030.38
455.62	8051.44
455.81	8065.49
455.99	8299.54
456.17	8084.21
456.36	8126.34
456.54	8182.51
456.73	8292.52
456.91	8393.16
457.09	8353.37
457.28	8643.60
457.46	8351.03
457.64	8381.46
457.83	8351.03
458.01	8285.50
458.19	8519.55
458.38	8381.46
458.56	8648.28
458.74	8538.27
458.93	8592.11
459.11	8540.61
459.29	8564.02
459.48	8601.47
459.66	8739.56
459.84	8685.73
460.03	8805.10
460.21	8823.82
460.39	8784.03
460.57	8734.88
460.76	8802.75
460.94	8961.91
461.12	9018.08
461.31	8997.02
461.49	9069.58
461.67	8975.95
461.85	9212.35
462.04	8975.95
462.22	9228.73
462.40	9315.33
462.59	9357.46
462.77	9202.99
462.95	9188.94
463.13	9224.05
463.32	9324.69
463.50	9357.46
463.68	9312.99
463.86	9418.32
464.05	9231.07
464.23	9205.33
464.41	9343.42
464.59	9198.31
464.78	9565.77
464.96	9469.81
465.14	9404.27
465.32	9460.45
465.50	9444.06
465.69	9888.76
465.87	9563.43
466.05	9551.73
466.23	9474.49
466.41	9556.41
466.60	9596.20
466.78	9420.66
466.96	9572.79
467.14	9729.61
467.32	9727.27
467.51	9771.74
467.69	9607.90
467.87	9703.86
468.05	9888.76
468.23	9701.52
468.41	9741.31
468.60	9834.93
468.78	10019.83
468.96	9926.21
469.14	9909.83
469.32	9923.87
469.50	9790.46
469.69	10300.70
469.87	10125.16
470.05	10141.54
470.23	10216.44
470.41	10190.69
470.59	10436.45
470.77	10080.69
470.95	10464.54
471.14	10509.01
471.32	10443.47
471.50	10485.60
471.68	10499.64
471.86	10677.52
472.04	10789.87
472.22	10918.60
472.40	10677.52
472.58	10700.93
472.77	10642.42
472.95	10745.40
473.13	11281.38
473.31	10853.06
473.49	10991.16
473.67	10960.73
473.85	11098.82
474.03	11325.85
474.21	11335.21
474.39	11389.05
474.57	11468.62
474.75	11665.23
474.93	11686.29
475.12	11445.22
475.30	11477.99
475.48	11559.91
475.66	11831.41
475.84	11698.00
476.02	11901.62
476.20	11896.94
476.38	12046.74
476.56	12203.55
476.74	12334.62
476.92	12243.34
477.10	12372.07
477.28	12690.38
477.46	12519.53
477.64	12727.83
477.82	12767.62
478.00	13130.41
478.18	12996.99
478.36	13177.22
478.54	13240.41
478.72	13090.62
478.90	13462.76
479.08	13661.71
479.26	13832.57
479.44	13481.49
479.62	13455.74
479.80	13652.34
479.98	13942.57
480.16	14209.39
480.34	13982.36
480.52	14160.24
480.70	14349.82
480.88	14270.25
481.06	14427.06
481.24	14527.71
481.41	14778.14
481.59	14925.60
481.77	15073.05
481.95	15096.46
482.13	15014.54
482.31	15042.62
482.49	15290.72
482.67	15382.00
482.85	15609.03
483.03	15824.36
483.21	15868.83
483.39	16084.16
483.57	15981.18
483.74	15967.13
483.92	16290.13
484.10	16107.57
484.28	16458.65
484.46	16552.27
484.64	17006.33
484.82	16411.84
485.00	16517.16
485.18	16924.41
485.35	17050.80
485.53	16610.78
485.71	16734.83
485.89	17064.85
486.07	16734.83
486.25	17261.45
486.43	17551.68
486.61	17645.30
486.78	17703.81
486.96	17645.30
487.14	18396.61
487.32	18469.17
487.50	18698.54
487.68	19005.15
487.85	19096.43
488.03	19080.05
488.21	19400.70
488.39	19171.33
488.57	19276.65
488.75	19377.30
488.92	19758.80
489.10	19899.23
489.28	19962.43
489.46	20547.56
489.64	20343.94
489.81	20690.34
489.99	21216.96
490.17	21165.46
490.35	21095.25
490.53	21001.63
490.70	21207.59
490.88	21238.02
491.06	21371.43
491.24	21387.82
491.41	21551.65
491.59	21411.22
491.77	21397.18
491.95	21703.79
492.13	21900.39
492.30	22354.46
492.48	22302.96
492.66	22209.34
492.84	22394.25
493.01	22742.99
493.19	22675.11
493.37	22733.62
493.54	23009.81
493.72	23496.64
493.90	23204.07
494.08	23496.64
494.25	23885.17
494.43	23826.65
494.61	24273.70
494.79	23931.98
494.96	24217.52
495.14	24411.79
495.32	24503.07
495.49	24620.10
495.67	24596.69
495.85	24968.84
496.02	24931.39
496.20	25001.60
496.38	25233.32
496.55	25350.34
496.73	25736.53
496.91	25764.62
497.09	25937.82
497.26	26139.10
497.44	25699.08
497.62	25518.86
497.79	26604.87
497.97	25834.83
498.14	26073.57
498.32	26572.10
498.50	26520.61
498.67	26689.13
498.85	26799.13
499.03	26941.91
499.20	27204.05
499.38	26897.44
499.56	27110.43
499.73	27419.38
499.91	27440.44
500.08	27580.87
500.26	27143.19
500.44	27314.05
500.61	27573.85
500.79	27285.97
500.97	27938.97
501.14	27938.97
501.32	27789.18
501.49	28135.58
501.67	28215.16
501.84	28386.02
502.02	28245.58
502.20	28657.52
502.37	28931.36
502.55	28648.16
502.72	29008.60
502.90	28599.01
503.07	29134.99
503.25	28936.04
503.43	29369.04
503.60	28718.37
503.78	29181.80
503.95	28999.24
504.13	29048.39
504.30	29422.87
504.48	29570.33
504.65	29610.12
504.83	29846.51
505.01	30043.12
505.18	30012.69
505.36	30340.36
505.53	30408.24
505.71	30574.42
505.88	30445.69
506.06	30281.85
506.23	30536.97
506.41	30251.42
506.58	31068.27
506.76	31257.85
506.93	31344.45
507.11	30775.70
507.28	31255.51
507.46	31154.87
507.63	31178.28
507.81	30871.67
507.98	30902.09
508.16	31239.13
508.33	31744.69
508.50	31983.42
508.68	31627.66
508.85	32505.36
509.03	31718.94
509.20	32030.23
509.38	31976.40
509.55	31960.02
509.73	32479.61
509.90	32364.93
510.08	32474.93
510.25	32245.56
510.42	32414.08
510.60	32493.66
510.77	32655.15
510.95	32896.23
511.12	32701.96
511.30	33043.68
511.47	33450.94
511.64	33373.70
511.82	33525.83
511.99	33453.28
512.17	33221.56
512.34	33109.22
512.51	33567.96
512.69	33242.63
512.86	33626.48
513.04	33972.88
513.21	33701.37
513.38	33490.73
513.56	33738.82
513.73	33584.35
513.90	33741.16
514.08	33778.61
514.25	34031.39
514.43	34169.48
514.60	34146.08
514.77	34330.98
514.95	34050.11
515.12	34719.51
515.29	34689.08
515.47	34962.92
515.64	35412.31
515.81	34600.14
515.99	34560.35
516.16	34590.78
516.33	34448.00
516.51	34590.78
516.68	33846.49
516.85	34033.73
517.03	34529.92
517.20	34637.59
517.37	35285.92
517.54	35587.85
517.72	35143.14
517.89	34785.04
518.06	35054.20
518.24	34881.00
518.41	35159.53
518.58	35487.20
518.75	35576.14
518.93	35475.50
519.10	35732.96
519.27	35777.43
519.45	36009.14
519.62	36528.74
519.79	36140.21
519.96	36011.48
520.14	35983.40
520.31	36182.34
520.48	36566.19
520.65	36224.47
520.83	37099.83
521.00	36753.43
521.17	37017.91
521.34	36772.16
521.52	37642.84
521.69	36858.76
521.86	37324.52
522.03	37385.38
522.20	37085.79
522.38	37130.26
522.55	37682.62
522.72	37696.67
522.89	36945.36
523.07	37895.61
523.24	37418.14
523.41	37860.51
523.58	37935.40
523.75	38347.34
523.92	38478.41
524.10	38174.14
524.27	38291.16
524.44	38239.67
524.61	38071.15
524.78	38209.25
524.96	38501.81
525.13	38679.69
525.30	38778.00
525.47	38939.49
525.64	38969.92
525.81	38480.75
525.98	38396.49
526.16	38082.86
526.33	38272.44
526.50	38375.42
526.67	38274.78
526.84	38014.98
527.01	38522.88
527.18	38593.09
527.36	38979.28
527.53	39660.38
527.70	39693.15
527.87	39358.45
528.04	39061.20
528.21	39653.36
528.38	39887.41
528.55	40023.16
528.72	39676.76
528.89	40449.14
529.07	40058.27
529.24	39772.72
529.41	39737.62
529.58	39571.44
529.75	39639.31
529.92	39995.07
530.09	40247.85
530.26	40116.78
530.43	40137.85
530.60	40217.43
530.77	40327.43
530.94	40643.40
531.11	40306.37
531.28	40343.81
531.46	40432.75
531.63	40823.62
531.80	40629.36
531.97	39941.24
532.14	40533.40
532.31	39913.16
532.48	40205.72
532.65	40428.07
532.82	40446.80
532.99	40917.25
533.16	40748.73
533.33	41240.24
533.50	41095.13
533.67	40601.27
533.84	40821.28
534.01	41006.19
534.18	41050.66
534.35	41378.33
534.52	41518.76
534.69	41244.92
534.86	41233.22
535.03	41633.45
535.20	42045.38
535.37	41577.28
535.54	42279.44
535.71	41645.15
535.88	41486.00
536.05	41596.00
536.22	41888.57
536.38	41918.99
536.55	41471.95
536.72	41940.06
536.89	41371.31
537.06	41354.93
537.23	41977.51
537.40	42190.50
537.57	42204.54
537.74	42237.31
537.91	42274.76
538.08	42436.25
538.25	41647.49
538.42	41680.26
538.59	42382.42
538.75	41834.74
538.92	42251.35
539.09	42429.23
539.26	42164.75
539.43	42691.37
539.60	42389.44
539.77	42199.86
539.94	42143.69
540.11	42078.15
540.28	42663.28
540.44	42274.76
540.61	42689.03
540.78	42351.99
540.95	42239.65
541.12	42920.74
541.29	42342.63
541.46	42506.47
541.62	42560.30
541.79	42983.94
541.96	42525.19
542.13	43189.91
542.30	42768.61
542.47	42572.00
542.63	42890.32
542.80	43239.06
542.97	43503.54
543.14	43365.45
543.31	43447.36
543.48	43847.60
543.64	43962.28
543.81	43866.32
543.98	43941.22
544.15	44119.10
544.32	44023.14
544.48	43882.70
544.65	43878.02
544.82	44128.46
544.99	43650.99
545.16	43821.85
545.32	43910.79
545.49	44484.22
545.66	43908.45
545.83	44346.13
546.00	44605.93
546.16	44048.88
546.33	43805.47
546.50	43761.00
546.67	44451.45
546.83	43650.99
547.00	44332.09
547.17	44165.91
547.34	43915.47
547.50	44318.04
547.67	44561.46
547.84	44800.19
548.00	44734.66
548.17	44456.14
548.34	44818.92
548.51	44975.73
548.67	44835.30
548.84	44486.56
549.01	44645.72
549.18	44147.18
549.34	44409.32
549.51	44722.96
549.68	44921.90
549.84	45062.33
550.01	45191.06
550.18	44481.88
550.34	44999.14
550.51	45015.52
550.68	44685.51
550.84	44463.16
551.01	44825.94
551.18	44910.20
551.34	44966.37
551.51	45357.24
551.68	45595.98
551.84	44900.84
552.01	45170.00
552.18	45338.52
552.34	44608.27
552.51	45551.51
552.68	45207.45
552.84	45404.05
553.01	45380.65
553.18	45209.79
553.34	45399.37
553.51	45469.59
553.67	45633.42
553.84	45799.60
554.01	45649.81
554.17	45996.21
554.34	45654.49
554.51	45839.39
554.67	45446.18
554.84	45752.79
555.00	45488.31
555.17	45851.09
555.33	45801.94
555.50	45715.34
555.67	45301.07
555.83	45336.18
556.00	45792.58
556.16	45476.61
556.33	45539.80
556.50	45867.48
556.66	45734.07
556.83	45535.12
556.99	45574.91
557.16	46333.24
557.32	45638.11
557.49	45911.95
557.65	46064.08
557.82	45897.91
557.98	46260.69
558.15	45846.41
558.32	46122.60
558.48	45834.71
558.65	45537.46
558.81	45546.82
558.98	45399.37
559.14	45661.51
559.31	45745.77
559.47	46237.28
559.64	46213.88
559.80	46202.18
559.97	46237.28
560.13	46073.45
560.30	46078.13
560.46	46143.66
560.63	46274.73
560.79	46124.94
560.96	46335.59
561.12	45902.59
561.29	45869.82
561.45	46061.74
561.61	46806.03
561.78	46244.30
561.94	46202.18
562.11	45823.01
562.27	46167.07
562.44	46836.46
562.60	46726.46
562.77	46635.17
562.93	46237.28
563.10	46501.76
563.26	46314.52
563.42	45975.14
563.59	46443.25
563.75	46401.12
563.92	46543.89
564.08	46768.58
564.24	46813.05
564.41	46344.95
564.57	46600.07
564.74	46724.11
564.90	46562.62
565.07	46487.72
565.23	46738.16
565.39	46621.13
565.56	46471.34
565.72	46403.46
565.88	46492.40
566.05	46483.04
566.21	46157.70
566.38	46419.84
566.54	46419.84
566.70	46401.12
566.87	47224.99
567.03	46445.59
567.19	47150.09
567.36	47065.83
567.52	46403.46
567.68	46600.07
567.85	46646.88
568.01	46962.85
568.17	46419.84
568.34	46349.63
568.50	47077.54
568.66	46358.99
568.83	46644.54
568.99	46293.46
569.15	46471.34
569.32	46681.98
569.48	46377.72
569.64	46700.71
569.81	46796.67
569.97	46656.24
570.13	46501.76
570.30	46321.54
570.46	46267.71
570.62	46272.39
570.78	46550.91
570.95	46464.32
571.11	46607.09
571.27	46450.27
571.43	46773.27
571.60	46684.33
571.76	46649.22
571.92	47037.75
572.09	46780.29
572.25	46976.89
572.41	46653.90
572.57	47079.88
572.74	46981.57
572.90	47096.26
573.06	46461.97
573.22	46801.35
573.38	46782.63
573.55	46621.13
573.71	47044.77
573.87	47079.88
574.03	46579.00
574.20	46761.56
574.36	46663.26
574.52	46981.57
574.68	46838.80
574.84	46735.82
575.01	46745.18
575.17	46813.05
575.33	46777.95
575.49	46358.99
575.65	46878.59
575.82	46965.19
575.98	46590.70
576.14	46969.87
576.30	46871.57
576.46	47042.43
576.62	46883.27
576.79	46923.06
576.95	46258.35
577.11	46948.81
577.27	46937.10
577.43	46377.72
577.59	46646.88
577.75	47054.13
577.92	46501.76
578.08	46433.89
578.24	46508.79
578.40	46806.03
578.56	47061.15
578.72	46497.08
578.88	47030.72
579.04	46829.44
579.21	46913.70
579.37	46408.14
579.53	47014.34
579.69	46787.31
579.85	46941.78
580.01	47210.95
580.17	46923.06
580.33	46672.62
580.49	47185.20
580.65	46906.68
580.82	46799.01
580.98	46810.71
581.14	46841.14
581.30	47283.50
581.46	46848.16
581.62	47285.84
581.78	46911.36
581.94	47117.32
582.10	46831.78
582.26	46824.76
582.42	47391.17
582.58	47243.71
582.74	46913.70
582.90	46997.96
583.06	47433.30
583.22	46897.31
583.38	47292.86
583.54	47611.18
583.70	46822.42
583.86	47360.74
584.02	46838.80
584.18	46960.51
584.34	47016.68
584.50	46836.46
584.66	46829.44
584.82	46799.01
584.98	47299.89
585.14	47012.00
585.30	46440.91
585.46	47161.79
585.62	46473.68
585.78	46665.60
585.94	46866.89
586.10	46822.42
586.26	46646.88
586.42	47229.67
586.58	47096.26
586.74	46934.76
586.90	46887.95
587.06	46951.15
587.22	47246.05
587.38	46834.12
587.54	46948.81
587.70	46843.48
587.86	46700.71
588.02	47159.45
588.18	46981.57
588.34	46796.67
588.49	46454.95
588.65	46499.42
588.81	46569.64
588.97	46618.79
589.13	46321.54
589.29	46600.07
589.45	46857.52
589.61	46504.10
589.77	46925.40
589.93	46787.31
590.08	47166.48
590.24	46831.78
590.40	47454.36
590.56	47339.68
590.72	47145.41
590.88	46834.12
591.04	47110.30
591.20	47346.70
591.35	47253.08
591.51	47131.37
591.67	47079.88
591.83	47173.50
591.99	47129.03
592.15	47215.63
592.31	47299.89
592.46	46658.58
592.62	47288.18
592.78	47316.27
592.94	47456.70
593.10	47035.41
593.26	47206.26
593.41	47196.90
593.57	46951.15
593.73	46981.57
593.89	46806.03
594.05	47309.25
594.20	46885.61
594.36	47353.72
594.52	47084.56
594.68	47311.59
594.84	46857.52
594.99	47058.81
595.15	47484.79
595.31	46904.34
595.47	47454.36
595.62	47297.55
595.78	46831.78
595.94	47107.96
596.10	47360.74
596.25	47302.23
596.41	47182.86
596.57	47040.09
596.73	47178.18
596.88	46719.43
597.04	47262.44
597.20	47124.35
597.36	46946.47
597.51	47173.50
597.67	47309.25
597.83	47103.28
597.99	47613.52
598.14	46906.68
598.30	47351.38
598.46	46876.25
598.61	47363.08
598.77	46726.46
598.93	47435.64
599.09	47004.98
599.24	47246.05
599.40	47356.06
599.56	47065.83
599.71	47271.80
599.87	47412.23
600.03	46859.87
600.18	47063.49
600.34	46944.12
600.50	47166.48
600.65	46883.27
600.81	47180.52
600.97	47175.84
601.12	47180.52
601.28	47313.93
601.44	46897.31
601.59	46909.02
601.75	46777.95
601.91	46972.21
602.06	47058.81
602.22	47533.94
602.37	47086.90
602.53	46752.20
602.69	47229.67
602.84	46892.63
603.00	46887.95
603.16	47012.00
603.31	47316.27
603.47	47173.50
603.62	46981.57
603.78	46597.73
603.94	47395.85
604.09	47246.05
604.25	47161.79
604.40	46391.76
604.56	46981.57
604.71	47309.25
604.87	46721.77
605.03	47203.92
605.18	46791.99
605.34	47232.01
605.49	46651.56
605.65	46930.08
605.80	46871.57
605.96	47180.52
606.12	47601.82
606.27	47105.62
606.43	46857.52
606.58	46560.28
606.74	46843.48
606.89	46784.97
607.05	47030.72
607.20	46981.57
607.36	46745.18
607.51	46754.54
607.67	46431.55
607.82	46686.67
607.98	46843.48
608.13	46738.16
608.29	46263.03
608.44	47035.41
608.60	46483.04
608.75	46658.58
608.91	46312.18
609.06	46380.06
609.22	46777.95
609.37	46000.89
609.53	46522.83
609.68	46801.35
609.84	46653.90
609.99	46667.94
610.15	46314.52
610.30	45783.22
610.46	46267.71
610.61	46410.48
610.76	46071.10
610.92	46398.78
611.07	46714.75
611.23	46274.73
611.38	46366.01
611.54	46246.65
611.69	45989.19
611.84	45968.12
612.00	46443.25
612.15	46129.62
612.31	46417.50
612.46	45851.09
612.62	46260.69
612.77	46050.04
612.92	46202.18
613.08	46422.19
613.23	45869.82
613.39	45675.55
613.54	45427.46
613.69	46085.15
613.85	45778.54
614.00	45787.90
614.15	46071.10
614.31	46260.69
614.46	45675.55
614.62	46136.64
614.77	45961.10
614.92	46178.77
615.08	45787.90
615.23	45787.90
615.38	45804.28
615.54	45247.24
615.69	45811.31
615.84	45600.66
616.00	45755.13
616.15	45677.90
616.30	45841.73
616.46	45804.28
616.61	45324.47
616.76	45345.54
616.92	44896.16
617.07	45441.50
617.22	45052.97
617.37	45151.27
617.53	45483.63
617.68	45799.60
617.83	45167.66
617.99	45830.03
618.14	45132.55
618.29	44987.44
618.45	44790.83
618.60	44830.62
618.75	45291.71
618.90	44926.58
619.06	45223.83
619.21	45214.47
619.36	45357.24
619.51	45233.19
619.67	45382.99
619.82	45010.84
619.97	45411.07
620.12	45425.12
620.28	44449.11
620.43	44706.57
620.58	45446.18
620.73	44992.12
620.89	44924.24
621.04	44865.73
621.19	44999.14
621.34	44914.88
621.49	44776.79
621.65	44776.79
621.80	45174.68
621.95	44662.10
622.10	44734.66
622.25	44755.72
622.41	44224.42
622.56	44547.42
622.71	45139.57
622.86	44580.18
623.01	44617.63
623.16	44655.08
623.32	43896.75
623.47	44685.51
623.62	44240.81
623.77	44350.81
623.92	44889.13
624.07	44238.47
624.23	43718.87
624.38	44055.90
624.53	44154.21
624.68	44282.94
624.83	43859.30
624.98	43856.96
625.13	43997.39
625.29	43622.90
625.44	43807.81
625.59	43793.76
625.74	43388.85
625.89	43889.73
626.04	43805.47
626.19	43536.30
626.34	43817.17
626.49	43498.86
626.65	43929.51
626.80	43866.32
626.95	43604.18
627.10	43580.78
627.25	43695.46
627.40	43026.07
627.55	43438.00
627.70	43068.20
627.85	43283.53
628.00	43117.35
628.15	42724.14
628.30	43749.29
628.45	43313.95
628.60	43278.85
628.76	43402.89
628.91	43335.02
629.06	43519.92
629.21	43246.08
629.36	43000.32
629.51	43019.05
629.66	42871.59
629.81	42644.56
629.96	42815.42
630.11	43423.96
630.26	43650.99
630.41	42787.33
630.56	42916.06
630.71	42677.33
630.86	42583.71
631.01	42604.77
631.16	42948.83
631.31	42642.22
631.46	42422.21
631.61	42597.75
631.76	42506.47
631.91	42885.64
632.06	42944.15
632.21	42766.27
632.36	42920.74
632.51	42665.63
632.66	42609.45
632.81	42223.26
632.96	42658.60
633.10	42426.89
633.25	42569.66
633.40	42658.60
633.55	42377.74
633.70	42501.79
633.85	42075.81
634.00	42115.60
634.15	42450.30
634.30	42106.24
634.45	42192.84
634.60	42625.84
634.75	42106.24
634.90	42227.95
635.05	42057.09
635.19	41911.97
635.34	42450.30
635.49	41832.39
635.64	42368.38
635.79	41970.49
635.94	42417.53
636.09	41904.95
636.24	41556.21
636.39	41706.01
636.53	41289.39
636.68	41757.50
636.83	42010.28
636.98	41666.22
637.13	41483.66
637.28	41631.11
637.43	42117.94
637.57	42139.00
637.72	41553.87
637.87	41586.64
638.02	41839.42
638.17	41432.16
638.32	41673.24
638.46	41645.15
638.61	41476.63
638.76	41441.53
638.91	41586.64
639.06	41310.46
639.20	41579.62
639.35	41619.41
639.50	41324.50
639.65	41387.69
639.80	41546.85
639.94	41228.54
640.09	41539.83
640.24	41083.42
640.39	40905.54
640.54	40928.95
640.68	41478.97
640.83	41186.41
640.98	41064.70
641.13	40882.14
641.27	41368.97
641.42	40978.10
641.57	40844.69
641.72	40818.94
641.86	40854.05
642.01	40760.43
642.16	40409.35
642.31	40624.68
642.45	40797.88
642.60	40540.42
642.75	40531.06
642.90	40779.15
643.04	40816.60
643.19	40715.96
643.34	40364.88
643.48	40231.47
643.63	40919.59
643.78	40187.00
643.93	40718.30
644.07	40170.61
644.22	40395.31
644.37	40442.12
644.51	39814.85
644.66	40425.73
644.81	40430.41
644.95	40732.34
645.10	40552.12
645.25	40257.21
645.39	40250.19
645.54	40219.77
645.69	40140.19
645.83	40058.27
645.98	40123.80
646.13	40062.95
646.27	40069.97
646.42	40025.50
646.57	39833.58
646.71	39732.93
646.86	39950.60
647.00	40065.29
647.15	39847.62
647.30	39442.71
647.44	39718.89
647.59	39702.51
647.74	39749.32
647.88	39765.70
648.03	39887.41
648.17	39599.52
648.32	39419.30
648.47	39814.85
648.61	39332.70
648.76	39665.06
648.90	39522.29
649.05	39718.89
649.20	39608.89
649.34	39725.91
649.49	39290.57
649.63	39082.27
649.78	39569.10
649.92	39316.32
650.07	39962.31
650.21	39412.28
650.36	39480.16
650.51	39723.57
650.65	39826.56
650.80	39611.23
650.94	39545.69
651.09	39351.43
651.23	39175.89
651.38	38859.91
651.52	38967.58
651.67	38824.81
651.81	39164.18
651.96	39215.68
652.10	39115.03
652.25	39000.35
652.39	38948.85
652.54	39131.42
652.68	38878.64
652.83	39108.01
652.97	39192.27
653.12	38976.94
653.26	38621.18
653.41	38593.09
653.55	38686.71
653.70	38447.98
653.84	39147.80
653.99	38560.33
654.13	38728.84
654.27	38014.98
654.42	38682.03
654.56	38663.31
654.71	38660.97
654.85	38410.53
655.00	38536.92
655.14	37787.95
655.29	38153.07
655.43	38122.65
655.57	37951.79
655.72	37727.10
655.86	38150.73
656.01	37497.72
656.15	37422.83
656.30	38274.78
656.44	37654.54
656.58	37701.35
656.73	38213.93
656.87	38026.68
657.01	38071.15
657.16	38239.67
657.30	37223.88
657.45	37457.93
657.59	37523.47
657.73	37914.34
657.88	38057.11
658.02	38155.41
658.16	38527.56
658.31	37642.84
658.45	37928.38
658.60	37406.44
658.74	37593.68
658.88	37970.51
659.03	37280.05
659.17	37036.64
659.31	36954.72
659.46	37425.17
659.60	37647.52
659.74	37523.47
659.89	37029.62
660.03	37141.96
660.17	37549.21
660.32	37083.45
660.46	37310.48
660.60	36952.38
660.74	37214.52
660.89	37111.53
661.03	36629.38
661.17	36744.07
661.32	36484.27
661.46	37134.94
661.60	36662.15
661.74	36566.19
661.89	36446.82
662.03	36407.03
662.17	36664.49
662.31	36730.03
662.46	36474.91
662.60	36596.62
662.74	36542.78
662.88	36491.29
663.03	36095.74
663.17	36381.29
663.31	36025.53
663.45	36032.55
663.60	35945.95
663.74	35969.35
663.88	35950.63
664.02	36032.55
664.17	36123.83
664.31	35739.98
664.45	35695.51
664.59	35714.23
664.73	36144.89
664.88	36055.95
665.02	35381.88
665.16	35585.50
665.30	35321.02
665.44	35058.88
665.59	35379.54
665.73	35531.67
665.87	35262.51
666.01	35529.33
666.15	35316.34
666.29	35466.14
666.44	35372.52
666.58	34906.75
666.72	35255.49
666.86	35323.36
667.00	35292.94
667.14	34944.20
667.28	34471.41
667.43	34838.87
667.57	34665.67
667.71	34845.90
667.85	34951.22
667.99	34642.27
668.13	34897.39
668.27	34806.11
668.41	34754.61
668.56	34431.62
668.70	33804.36
668.84	34125.01
668.98	33879.25
669.12	33902.66
669.26	33949.47
669.40	33640.52
669.54	33619.46
669.68	34312.25
669.82	33488.38
669.96	33406.47
670.10	33701.37
670.25	33729.46
670.39	32797.93
670.53	32861.12
670.67	33139.65
670.81	33521.15
670.95	33230.93
671.09	33081.13
671.23	33481.36
671.37	33188.80
671.51	33165.39
671.65	33060.07
671.79	32844.74
671.93	32643.45
672.07	32917.29
672.21	32980.49
672.35	32687.92
672.49	32854.10
672.63	33106.88
672.77	32603.66
672.91	32877.51
673.05	32446.85
673.19	32444.51
673.33	32580.26
673.47	32416.42
673.61	32079.38
673.75	31690.85
673.89	31763.41
674.03	31906.18
674.17	31534.04
674.31	31545.74
674.45	31522.34
674.59	31676.81
674.73	32121.51
674.87	31344.45
675.01	31555.10
675.15	31700.22
675.29	31377.22
675.43	31189.98
675.56	30976.99
675.70	31171.25
675.84	30890.39
675.98	30410.58
676.12	31028.48
676.26	30808.47
676.40	30686.76
676.54	30796.77
676.68	30815.49
676.82	30302.92
676.96	30588.46
677.10	30190.57
677.23	30232.70
677.37	30003.33
677.51	29905.02
677.65	30232.70
677.79	29706.08
677.93	29593.73
678.07	29401.81
678.21	29099.88
678.34	29041.37
678.48	29429.90
678.62	29516.50
678.76	29123.29
678.90	28931.36
679.04	28760.50
679.18	29076.48
679.31	28533.47
679.45	28570.92
679.59	28449.21
679.73	28191.75
679.87	28484.32
680.00	28701.99
680.14	28402.40
680.28	28294.74
680.42	28140.26
680.56	27854.72
680.70	28142.60
680.83	27910.89
680.97	28009.19
681.11	27751.73
681.25	27838.33
681.39	27442.78
681.52	27384.27
681.66	27461.51
681.80	27281.28
681.94	27367.88
682.07	27124.47
682.21	26838.92
682.35	27021.48
682.49	26925.52
682.62	26455.08
682.76	26759.34
682.90	26647.00
683.04	26644.66
683.17	26319.32
683.31	26335.71
683.45	26267.83
683.59	25825.47
683.72	26099.31
683.86	25755.26
684.00	26272.51
684.13	25811.43
684.27	25579.71
684.41	25476.73
684.55	25378.43
684.68	25474.39
684.82	25163.10
684.96	25333.96
685.09	25046.07
685.23	25207.57
685.37	25022.67
685.50	24891.60
685.64	24821.38
685.78	24898.62
685.91	24877.55
686.05	24458.60
686.19	24121.56
686.32	24032.62
686.46	23887.51
686.60	23723.67
686.73	23129.17
686.87	23316.42
687.01	23302.37
687.14	23152.58
687.28	23101.09
687.42	23543.45
687.55	23201.73
687.69	23051.94
687.82	23295.35
687.96	23091.73
688.10	22965.34
688.23	22590.85
688.37	22682.13
688.50	22623.62
688.64	22789.80
688.78	22778.09
688.91	22569.79
689.05	22387.22
689.18	22419.99
689.32	22143.81
689.46	22419.99
689.59	22740.64
689.73	22363.82
689.86	22141.47
690.00	21792.73
690.13	22085.30
690.27	21837.20
690.41	21891.03
690.54	21556.33
690.68	21479.10
690.81	21589.10
690.95	21586.76
691.08	21247.38
691.22	21518.89
691.35	21397.18
691.49	21385.47
691.62	21439.31
691.76	21010.99
691.89	21092.91
692.03	21064.82
692.16	20985.24
692.30	20549.90
692.43	20648.21
692.57	20798.00
692.70	20395.43
692.84	20217.55
692.97	20322.87
693.11	19929.66
693.24	19892.21
693.38	20034.99
693.51	19751.78
693.65	20016.26
693.78	19901.58
693.92	19573.90
694.05	19573.90
694.19	19800.93
694.32	19433.47
694.45	19550.49
694.59	19339.85
694.72	19531.77
694.86	19110.47
694.99	19159.63
695.13	19066.00
695.26	18984.09
695.39	18738.33
695.53	18668.11
695.66	19028.56
695.80	18712.58
695.93	18579.17
696.07	18394.27
696.20	18087.66
696.33	18569.81
696.47	18569.81
696.60	18335.76
696.73	17914.46
696.87	18092.34
697.00	18148.51
697.14	17947.23
697.27	17799.77
697.40	17696.79
697.54	17816.16
697.67	17708.49
697.80	17467.42
697.94	17214.64
698.07	17308.26
698.21	17104.64
698.34	17106.98
698.47	17146.76
698.61	16868.24
698.74	16954.84
698.87	17029.74
699.01	16830.79
699.14	16847.18
699.27	16751.21
699.40	16465.67
699.54	16636.53
699.67	16315.87
699.80	16329.92
699.94	16343.96
700.07	16482.05
700.20	16437.58
700.34	16271.40
700.47	16341.62
700.60	16208.21
700.73	16304.17
700.87	15618.39
701.00	15843.09
701.13	15501.37
701.26	15461.58
701.40	15852.45
701.53	15585.63
701.66	15562.22
701.79	15328.17
701.93	15302.42
702.06	14918.57
702.19	15211.14
702.32	14979.43
702.46	14995.81
702.59	15138.58
702.72	14944.32
702.85	14808.57
702.99	15014.54
703.12	14848.36
703.25	14466.85
703.38	14525.36
703.51	14637.71
703.65	14768.78
703.78	14366.21
703.91	14150.88
704.04	14293.65
704.17	14195.35
704.31	14258.54
704.44	14242.16
704.57	13984.70
704.70	13818.52
704.83	13797.46
704.96	13940.23
705.10	13804.48
705.23	13891.08
>>>>>End Processed Spectral Data<<<<<
