SpectraSuite Data File
++++++++++++++++++++++++++++++++++++
Date: Fri Oct 25 10:44:14 EDT 2013
User: price-jones
Dark Spectrum Present: No
Reference Spectrum Present: No
Number of Sampled Component Spectra: 1
Spectrometers: USB2+H05261
Integration Time (usec): 100000 (USB2+H05261)
Spectra Averaged: 1 (USB2+H05261)
Boxcar Smoothing: 0 (USB2+H05261)
Correct for Electrical Dark: No (USB2+H05261)
Strobe/Lamp Enabled: No (USB2+H05261)
Correct for Detector Non-linearity: No (USB2+H05261)
Correct for Stray Light: No (USB2+H05261)
Number of Pixels in Processed Spectrum: 2048
>>>>>Begin Processed Spectral Data<<<<<
365.73	173.20
365.92	173.20
366.12	173.20
366.32	4.68
366.52	30.43
366.72	147.45
366.91	0.00
367.11	53.83
367.31	2.34
367.51	0.00
367.70	0.00
367.90	35.11
368.10	14.04
368.30	49.15
368.49	63.19
368.69	35.11
368.89	14.04
369.09	53.83
369.28	84.26
369.48	112.35
369.68	58.51
369.87	88.94
370.07	138.09
370.27	114.69
370.47	168.52
370.66	390.87
370.86	451.72
371.06	535.98
371.25	524.28
371.45	526.62
371.65	507.90
371.84	514.92
372.04	437.68
372.24	430.66
372.44	505.56
372.63	500.87
372.83	550.03
373.03	458.74
373.22	554.71
373.42	566.41
373.62	566.41
373.81	561.73
374.01	580.45
374.21	601.52
374.40	538.32
374.60	580.45
374.79	533.64
374.99	524.28
375.19	561.73
375.38	603.86
375.58	571.09
375.78	627.26
375.97	629.60
376.17	620.24
376.37	622.58
376.56	617.90
376.76	587.47
376.95	594.50
377.15	624.92
377.35	650.67
377.54	678.76
377.74	685.78
377.93	716.20
378.13	587.47
378.33	610.88
378.52	634.29
378.72	660.03
378.91	674.07
379.11	678.76
379.31	638.97
379.50	643.65
379.70	685.78
379.89	622.58
380.09	723.23
380.28	692.80
380.48	713.86
380.68	697.48
380.87	692.80
381.07	641.31
381.26	725.57
381.46	741.95
381.65	718.54
381.85	601.52
382.04	685.78
382.24	765.36
382.43	662.37
382.63	692.80
382.83	697.48
383.02	688.12
383.22	739.61
383.41	716.20
383.61	753.65
383.80	720.88
384.00	695.14
384.19	727.91
384.39	807.48
384.58	767.70
384.78	891.74
384.97	856.64
385.17	791.10
385.36	849.61
385.56	734.93
385.75	676.41
385.95	917.49
386.14	849.61
386.34	896.43
386.53	901.11
386.72	861.32
386.92	870.68
387.11	903.45
387.31	849.61
387.50	837.91
387.70	816.85
387.89	870.68
388.09	959.62
388.28	896.43
388.48	887.06
388.67	1008.77
388.86	926.85
389.06	957.28
389.25	1027.50
389.45	940.90
389.64	961.96
389.84	1055.58
390.03	968.98
390.22	1027.50
390.42	952.60
390.61	966.64
390.81	1004.09
391.00	1008.77
391.19	1064.94
391.39	1001.75
391.58	1064.94
391.78	1018.13
391.97	1076.65
392.16	1034.52
392.36	1046.22
392.55	990.05
392.75	1039.20
392.94	1111.75
393.13	1039.20
393.33	1046.22
393.52	1090.69
393.71	1067.28
393.91	1081.33
394.10	1198.35
394.29	1142.18
394.49	1149.20
394.68	1226.44
394.88	1254.53
395.07	1287.29
395.26	1259.21
395.46	1146.86
395.65	1266.23
395.84	1203.04
396.04	1287.29
396.23	1167.93
396.42	1104.73
396.62	1179.63
396.81	1275.59
397.00	1242.82
397.19	1287.29
397.39	1362.19
397.58	1355.17
397.77	1378.58
397.97	1378.58
398.16	1418.36
398.35	1488.58
398.55	1392.62
398.74	1446.45
398.93	1568.16
399.12	1483.90
399.32	1497.94
399.51	1530.71
399.70	1526.03
399.90	1554.12
400.09	1563.48
400.28	1673.48
400.47	1610.29
400.67	1657.10
400.86	1668.80
401.05	1666.46
401.24	1624.33
401.44	1626.67
401.63	1699.23
401.82	1687.53
402.01	1710.93
402.21	1748.38
402.40	1743.70
402.59	1753.06
402.78	1696.89
402.97	1732.00
403.17	1760.08
403.36	1739.02
403.55	1909.88
403.74	1937.96
403.93	1762.42
404.13	1919.24
404.32	1846.68
404.51	1846.68
404.70	1998.82
404.89	1832.64
405.09	2045.63
405.28	2099.46
405.47	1895.83
405.66	1994.14
405.85	1994.14
406.05	2010.52
406.24	1977.75
406.43	2031.58
406.62	2026.90
406.81	2069.03
407.00	2064.35
407.20	1998.82
407.39	2057.33
407.58	2092.44
407.77	2165.00
407.96	2186.06
408.15	2277.34
408.34	2134.57
408.54	2256.28
408.73	2221.17
408.92	2204.78
409.11	2293.72
409.30	2354.58
409.49	2408.41
409.68	2242.23
409.87	2296.07
410.07	2363.94
410.26	2333.51
410.45	2373.30
410.64	2359.26
410.83	2492.67
411.02	2452.88
411.21	2534.80
411.40	2612.04
411.59	2518.42
411.78	2679.91
411.98	2644.81
412.17	2668.21
412.36	2642.46
412.55	2682.25
412.74	2729.06
412.93	2738.43
413.12	2670.55
413.31	2869.50
413.50	2843.75
413.69	2827.37
413.88	2818.00
414.07	2935.03
414.26	2979.50
414.45	3082.49
414.64	2991.20
414.83	3077.80
415.02	2902.26
415.22	3019.29
415.41	3049.72
415.60	3112.91
415.79	3166.74
415.98	3358.67
416.17	3199.51
416.36	3241.64
416.55	3248.66
416.74	3281.43
416.93	3243.98
417.12	3314.20
417.31	3262.71
417.50	3311.86
417.69	3288.45
417.88	3513.14
418.07	3407.82
418.26	3431.23
418.45	3534.21
418.64	3475.70
418.83	3538.89
419.02	3578.68
419.21	3482.72
419.39	3620.81
419.58	3426.54
419.77	3562.30
419.96	3688.68
420.15	3716.77
420.34	3616.13
420.53	3763.58
420.72	3899.33
420.91	3749.54
421.10	3763.58
421.29	3779.97
421.48	3684.00
421.67	3882.95
421.86	3906.35
422.05	3906.35
422.24	3791.67
422.43	3829.12
422.61	3927.42
422.80	4028.06
422.99	3957.85
423.18	3854.86
423.37	4011.68
423.56	3850.18
423.75	3927.42
423.94	3913.38
424.13	3805.71
424.32	3885.29
424.50	4016.36
424.69	3999.98
424.88	3887.63
425.07	3829.12
425.26	3817.41
425.45	3911.04
425.64	4025.72
425.83	3852.52
426.01	3967.21
426.20	4056.15
426.39	3950.82
426.58	3988.27
426.77	3861.88
426.96	3892.31
427.15	3988.27
427.33	4124.02
427.52	3941.46
427.71	4065.51
427.90	4107.64
428.09	4032.74
428.28	4177.86
428.46	4088.92
428.65	4112.32
428.84	4187.22
429.03	4203.60
429.22	4112.32
429.40	4191.90
429.59	4365.10
429.78	4044.45
429.97	3847.84
430.16	3985.93
430.34	4105.30
430.53	4154.45
430.72	4159.13
430.91	4276.16
431.10	4400.21
431.28	4550.00
431.47	4554.68
431.66	4615.54
431.85	4484.47
432.03	4671.71
432.22	4716.18
432.41	4674.05
432.60	4702.14
432.79	4795.76
432.97	4952.57
433.16	4648.30
433.35	4435.32
433.54	4440.00
433.72	4542.98
433.91	4514.89
434.10	4681.07
434.28	4889.38
434.47	4858.95
434.66	4954.91
434.85	4896.40
435.03	4896.40
435.22	4868.31
435.41	5022.79
435.59	5004.07
435.78	5128.11
435.97	5268.55
436.16	5146.84
436.34	5121.09
436.53	5184.29
436.72	5184.29
436.90	5093.01
437.09	5174.92
437.28	5114.07
437.46	5160.88
437.65	5406.64
437.84	5298.97
438.02	5261.52
438.21	5163.22
438.40	5188.97
438.58	5380.89
438.77	5362.17
438.96	5385.57
439.14	5530.69
439.33	5584.52
439.52	5530.69
439.70	5596.22
439.89	5701.54
440.08	5621.97
440.26	5455.79
440.45	5603.24
440.63	5755.38
440.82	6073.69
441.01	6052.63
441.19	5893.47
441.38	6155.61
441.57	6029.22
441.75	6190.72
441.94	6314.77
442.12	6291.36
442.31	6319.45
442.50	6352.21
442.68	6328.81
442.87	6340.51
443.05	6413.07
443.24	6237.53
443.43	6424.77
443.61	6443.49
443.80	6710.32
443.98	6317.11
444.17	6209.44
444.35	6279.66
444.54	6586.27
444.73	6476.26
444.91	6422.43
445.10	6394.34
445.28	6340.51
445.47	6417.75
445.65	6324.13
445.84	6516.05
446.02	6562.86
446.21	6471.58
446.39	6504.35
446.58	6661.16
446.77	6534.78
446.95	6450.52
447.14	6562.86
447.32	6794.58
447.51	6574.56
447.69	6534.78
447.88	6663.51
448.06	6761.81
448.25	6677.55
448.43	6740.74
448.62	6600.31
448.80	6860.11
448.99	6785.21
449.17	6890.54
449.36	6703.29
449.54	7023.95
449.73	7068.42
449.91	7073.10
450.10	7194.81
450.28	7159.70
450.46	7145.66
450.65	7117.57
450.83	7286.09
451.02	7171.40
451.20	7232.26
451.39	7328.22
451.57	7136.29
451.76	7089.48
451.94	7155.02
452.13	7295.45
452.31	7091.82
452.49	7119.91
452.68	7215.87
452.86	7169.06
453.05	7253.32
453.23	7176.08
453.42	7311.83
453.60	7155.02
453.78	7447.58
453.97	7346.94
454.15	7335.24
454.34	7363.33
454.52	7545.89
454.70	7463.97
454.89	7681.64
455.07	7583.34
455.26	7606.74
455.44	7698.02
455.62	7445.24
455.81	7679.30
455.99	7927.39
456.17	7758.88
456.36	7784.62
456.54	8112.30
456.73	7920.37
456.91	8086.55
457.09	8081.87
457.28	8098.25
457.46	7927.39
457.64	7922.71
457.83	7922.71
458.01	7946.12
458.19	8159.11
458.38	8142.72
458.56	8250.39
458.74	8067.83
458.93	8376.78
459.11	8390.82
459.29	8191.88
459.48	8344.01
459.66	8248.05
459.84	8638.92
460.03	8631.90
460.21	8479.76
460.39	8341.67
460.57	8196.56
460.76	8631.90
460.94	8643.60
461.12	8580.40
461.31	8615.51
461.49	8606.15
461.67	8531.25
461.85	9032.13
462.04	8461.04
462.22	8919.78
462.40	8908.08
462.59	8819.14
462.77	8753.60
462.95	8751.26
463.13	8767.65
463.32	8978.30
463.50	9039.15
463.68	8945.53
463.86	9078.94
464.05	8917.44
464.23	8968.93
464.41	9111.71
464.59	8863.61
464.78	9296.61
464.96	9188.94
465.14	9179.58
465.32	9186.60
465.50	9259.16
465.69	9181.92
465.87	9139.79
466.05	9317.67
466.23	9172.56
466.41	8994.68
466.60	9385.55
466.78	9116.39
466.96	9177.24
467.14	9275.54
467.32	9172.56
467.51	9397.25
467.69	9217.03
467.87	9376.19
468.05	9575.13
468.23	9415.98
468.41	9437.04
468.60	9453.42
468.78	9694.50
468.96	9518.96
469.14	9556.41
469.32	9802.16
469.50	9596.20
469.69	9610.24
469.87	9806.84
470.05	9682.80
470.23	9877.06
470.41	9820.89
470.59	9919.19
470.77	9898.13
470.95	9909.83
471.14	10134.52
471.32	9818.55
471.50	10345.17
471.68	10050.26
471.86	10228.14
472.04	10326.44
472.22	10253.89
472.40	10410.70
472.58	10424.75
472.77	10450.49
472.95	10485.60
473.13	10956.05
473.31	10506.66
473.49	10691.57
473.67	10604.97
473.85	10726.68
474.03	10906.90
474.21	11232.23
474.39	10949.03
474.57	10956.05
474.75	11227.55
474.93	10991.16
475.12	11126.91
475.30	11201.80
475.48	11087.12
475.66	11492.03
475.84	11265.00
476.02	11426.50
476.20	11379.68
476.38	11552.88
476.56	11730.76
476.74	11903.96
476.92	11908.65
477.10	11810.34
477.28	12070.14
477.46	12138.02
477.64	12203.55
477.82	12386.12
478.00	12561.66
478.18	12568.68
478.36	12613.15
478.54	12798.05
478.72	12699.75
478.90	12835.50
479.08	13146.79
479.26	13121.04
479.44	13128.06
479.62	13242.75
479.80	13462.76
479.98	13277.86
480.16	13488.51
480.34	13589.15
480.52	13586.81
480.70	13666.39
480.88	13720.22
481.06	13881.72
481.24	13977.68
481.41	14321.74
481.59	14586.22
481.77	14256.20
481.95	14045.55
482.13	14782.82
482.31	14740.69
482.49	14991.13
482.67	15087.09
482.85	15452.22
483.03	15349.23
483.21	15335.19
483.39	15428.81
483.57	15199.44
483.74	15452.22
483.92	15445.20
484.10	15353.91
484.28	15955.43
484.46	15882.88
484.64	16191.83
484.82	16156.72
485.00	16168.42
485.18	16479.71
485.35	16603.76
485.53	16088.84
485.71	16039.69
485.89	16552.27
486.07	16465.67
486.25	16547.59
486.43	16812.07
486.61	16929.09
486.78	17364.43
486.96	17277.83
487.14	17645.30
487.32	17886.37
487.50	17638.28
487.68	17961.27
487.85	18239.79
488.03	18672.79
488.21	18506.62
488.39	18253.84
488.57	18757.05
488.75	18843.65
488.92	18881.10
489.10	19183.03
489.28	19421.77
489.46	19590.28
489.64	19468.58
489.81	20372.02
489.99	20077.12
490.17	19941.36
490.35	20063.07
490.53	20173.08
490.70	20453.94
490.88	20339.26
491.06	21015.67
491.24	20716.08
491.41	20683.31
491.59	20428.20
491.77	20856.51
491.95	21324.62
492.13	21139.72
492.30	21448.67
492.48	21797.41
492.66	21752.94
492.84	21521.23
493.01	22073.59
493.19	22127.42
493.37	22347.44
493.54	22087.64
493.72	22499.57
493.90	22860.01
494.08	22909.16
494.25	22946.61
494.43	22955.97
494.61	23178.33
494.79	23644.09
494.96	23616.01
495.14	23417.06
495.32	23789.20
495.49	23913.25
495.67	24044.32
495.85	23946.02
496.02	24149.65
496.20	24521.79
496.38	24252.63
496.55	24620.10
496.73	25184.16
496.91	24856.49
497.09	24996.92
497.26	25319.92
497.44	25102.25
497.62	25352.68
497.79	25649.93
497.97	24879.89
498.14	25184.16
498.32	25530.56
498.50	25600.78
498.67	26052.50
498.85	25926.11
499.03	26064.21
499.20	26361.45
499.38	26455.08
499.56	26284.22
499.73	26382.52
499.91	26581.46
500.08	26649.34
500.26	26295.92
500.44	26455.08
500.61	26806.16
500.79	26572.10
500.97	26490.18
501.14	27009.78
501.32	27058.93
501.49	27271.92
501.67	27098.72
501.84	27267.24
502.02	27239.15
502.20	27772.80
502.37	27889.82
502.55	27363.20
502.72	27920.25
502.90	28156.64
503.07	27740.03
503.25	28304.10
503.43	27807.90
503.60	28245.58
503.78	28332.18
503.95	28259.63
504.13	28395.38
504.30	28765.18
504.48	28989.88
504.65	29125.63
504.83	29216.91
505.01	29179.46
505.18	28875.19
505.36	29490.75
505.53	29317.55
505.71	29546.92
505.88	29495.43
506.06	29284.78
506.23	29600.76
506.41	29387.77
506.58	29766.93
506.76	29921.41
506.93	30134.40
507.11	29717.78
507.28	30256.11
507.46	30228.02
507.63	30106.31
507.81	30349.73
507.98	30267.81
508.16	30223.34
508.33	30536.97
508.50	30693.79
508.68	30850.60
508.85	31391.26
509.03	30637.61
509.20	31421.69
509.38	31285.94
509.55	30972.31
509.73	31346.79
509.90	31370.20
510.08	31180.62
510.25	31583.19
510.42	31351.48
510.60	31400.63
510.77	31812.56
510.95	31866.39
511.12	31927.25
511.30	32170.66
511.47	32510.04
511.64	32371.95
511.82	32449.19
511.99	32292.37
512.17	32051.30
512.34	32219.81
512.51	32711.33
512.69	32811.97
512.86	32776.86
513.04	32985.17
513.21	32704.31
513.38	32912.61
513.56	32716.01
513.73	32975.81
513.90	33139.65
514.08	32758.14
514.25	32947.72
514.43	33373.70
514.60	33233.27
514.77	33654.56
514.95	33694.35
515.12	34012.66
515.29	33628.82
515.47	34017.35
515.64	33961.17
515.81	34178.84
515.99	33823.08
516.16	33596.05
516.33	33741.16
516.51	33668.61
516.68	33294.12
516.85	33549.24
517.03	33586.69
517.20	34010.32
517.37	33958.83
517.54	34242.04
517.72	34532.26
517.89	33935.43
518.06	34178.84
518.24	34117.99
518.41	34054.79
518.58	34611.84
518.75	34352.04
518.93	34780.36
519.10	34632.91
519.27	35112.72
519.45	35377.20
519.62	35178.25
519.79	35412.31
519.96	35344.43
520.14	35800.83
520.31	35283.58
520.48	35477.84
520.65	35604.23
520.83	36149.57
521.00	36196.38
521.17	36194.04
521.34	35971.69
521.52	36086.38
521.69	36081.70
521.86	36657.47
522.03	36388.31
522.20	36271.28
522.38	36517.04
522.55	36280.64
522.72	36039.57
522.89	36245.54
523.07	36383.63
523.24	36547.47
523.41	36926.63
523.58	37060.04
523.75	37586.66
523.92	37319.84
524.10	37546.87
524.27	37359.63
524.44	37453.25
524.61	37666.24
524.78	37518.79
524.96	37418.14
525.13	37368.99
525.30	37827.74
525.47	37713.05
525.64	37886.25
525.81	37371.33
525.98	37380.70
526.16	37429.85
526.33	37067.06
526.50	37738.80
526.67	37170.05
526.84	37434.53
527.01	37291.76
527.18	37816.04
527.36	38141.37
527.53	38506.49
527.70	38391.81
527.87	38464.36
528.04	38464.36
528.21	38330.95
528.38	38443.30
528.55	38658.63
528.72	38895.02
528.89	39175.89
529.07	38513.52
529.24	38841.19
529.41	38724.16
529.58	39260.15
529.75	38939.49
529.92	39100.99
530.09	38780.34
530.26	39068.22
530.43	39290.57
530.60	39323.34
530.77	39487.18
530.94	39683.78
531.11	39459.09
531.28	39255.46
531.46	39887.41
531.63	39585.48
531.80	39526.97
531.97	39826.56
532.14	39344.41
532.31	39100.99
532.48	39431.01
532.65	39428.66
532.82	39302.28
532.99	39805.49
533.16	39625.27
533.33	39739.96
533.50	40194.02
533.67	40573.19
533.84	39828.90
534.01	40233.81
534.18	40194.02
534.35	40573.19
534.52	39636.97
534.69	40837.67
534.86	40612.98
535.03	40470.20
535.20	41020.23
535.37	41219.17
535.54	40996.82
535.71	40664.47
535.88	40875.12
536.05	40484.25
536.22	40332.11
536.38	40898.52
536.55	40856.39
536.72	40692.55
536.89	40910.22
537.06	40982.78
537.23	41237.90
537.40	40849.37
537.57	41287.05
537.74	41184.07
537.91	41071.72
538.08	41467.27
538.25	41071.72
538.42	40938.31
538.59	41633.45
538.75	41120.87
538.92	41565.57
539.09	41212.15
539.26	41392.37
539.43	41350.24
539.60	42000.91
539.77	41478.97
539.94	41291.73
540.11	41109.17
540.28	41448.55
540.44	41565.57
540.61	41635.79
540.78	41748.14
540.95	41647.49
541.12	41879.21
541.29	41750.48
541.46	41813.67
541.62	41666.22
541.79	42199.86
541.96	41680.26
542.13	42108.58
542.30	42164.75
542.47	41776.22
542.63	41986.87
542.80	42295.82
542.97	42574.34
543.14	42480.72
543.31	42670.31
543.48	42838.83
543.64	43185.22
543.81	42710.10
543.98	42834.14
544.15	42712.44
544.32	42770.95
544.48	43353.74
544.65	43171.18
544.82	43697.80
544.99	42644.56
545.16	43072.88
545.32	42962.87
545.49	43239.06
545.66	43540.99
545.83	43208.63
546.00	43672.06
546.16	43522.26
546.33	42955.85
546.50	42674.99
546.67	43246.08
546.83	42794.36
547.00	43524.60
547.17	43138.41
547.34	43395.87
547.50	43402.89
547.67	43222.67
547.84	43510.56
548.00	43725.89
548.17	43934.20
548.34	43775.04
548.51	43807.81
548.67	43817.17
548.84	43758.66
549.01	43887.39
549.18	43973.98
549.34	43995.05
549.51	43723.55
549.68	44032.50
549.84	44299.32
550.01	44128.46
550.18	44037.18
550.34	43777.38
550.51	44168.25
550.68	44065.27
550.84	43622.90
551.01	44301.66
551.18	44392.94
551.34	44289.96
551.51	44392.94
551.68	44086.33
551.84	44292.30
552.01	44460.82
552.18	44505.29
552.34	44137.82
552.51	44360.17
552.68	44516.99
552.84	44650.40
553.01	44847.00
553.18	44533.37
553.34	44460.82
553.51	44350.81
553.67	44573.16
553.84	44839.98
554.01	44877.43
554.17	44741.68
554.34	44570.82
554.51	44825.94
554.67	45209.79
554.84	44701.89
555.00	44720.62
555.17	44711.25
555.33	44776.79
555.50	44755.72
555.67	45050.63
555.83	44856.37
556.00	44781.47
556.16	45464.91
556.33	44835.30
556.50	44931.26
556.66	45312.77
556.83	45233.19
556.99	45413.41
557.16	45635.77
557.32	45343.20
557.49	45284.68
557.65	44966.37
557.82	45230.85
557.98	44870.41
558.15	45298.73
558.32	44973.39
558.48	45137.23
558.65	44825.94
558.81	44765.09
558.98	45167.66
559.14	45294.05
559.31	45294.05
559.47	45350.22
559.64	45436.82
559.80	45242.56
559.97	45708.32
560.13	45261.28
560.30	45420.44
560.46	45385.33
560.63	45652.15
560.79	45666.19
560.96	45925.99
561.12	45434.48
561.29	45132.55
561.45	45123.19
561.61	45280.00
561.78	45397.03
561.94	45050.63
562.11	45338.52
562.27	44999.14
562.44	45528.10
562.60	45851.09
562.77	46012.59
562.93	46021.95
563.10	46291.12
563.26	45188.72
563.42	45900.25
563.59	45326.81
563.75	45514.06
563.92	45584.27
564.08	45687.26
564.24	45888.54
564.41	45448.52
564.57	46057.06
564.74	45577.25
564.90	45752.79
565.07	45638.11
565.23	45806.62
565.39	45553.85
565.56	45778.54
565.72	45462.57
565.88	46026.63
566.05	45521.08
566.21	45663.85
566.38	45563.21
566.54	45933.01
566.70	45998.55
566.87	45897.91
567.03	46033.66
567.19	46270.05
567.36	46066.42
567.52	46136.64
567.68	45942.38
567.85	45670.87
568.01	46012.59
568.17	46036.00
568.34	45764.49
568.50	45879.18
568.66	45965.78
568.83	45968.12
568.99	45820.67
569.15	46005.57
569.32	45921.31
569.48	45579.59
569.64	46263.03
569.81	46466.66
569.97	45902.59
570.13	45998.55
570.30	45923.65
570.46	45993.87
570.62	45701.30
570.78	45722.37
570.95	45680.24
571.11	45921.31
571.27	45448.52
571.43	46281.75
571.60	45874.50
571.76	45713.00
571.92	45771.52
572.09	45951.74
572.25	45834.71
572.41	45991.53
572.57	46300.48
572.74	46712.41
572.90	45923.65
573.06	46450.27
573.22	45869.82
573.38	45773.86
573.55	46003.23
573.71	46124.94
573.87	46216.22
574.03	46113.23
574.20	46190.47
574.36	46258.35
574.52	46253.67
574.68	45947.06
574.84	46539.21
575.01	46351.97
575.17	45846.41
575.33	46218.56
575.49	46028.98
575.65	46639.86
575.82	46136.64
575.98	46258.35
576.14	46244.30
576.30	46272.39
576.46	46258.35
576.62	46333.24
576.79	46164.73
576.95	45965.78
577.11	46010.25
577.27	46148.34
577.43	46380.06
577.59	46064.08
577.75	45909.61
577.92	45640.45
578.08	45588.95
578.24	46131.96
578.40	46064.08
578.56	46012.59
578.72	45975.14
578.88	46291.12
579.04	46501.76
579.21	46181.11
579.37	46534.53
579.53	46363.67
579.69	46117.92
579.85	46298.14
580.01	46698.37
580.17	45839.39
580.33	46319.20
580.49	46649.22
580.65	46625.81
580.82	46604.75
580.98	45876.84
581.14	45862.80
581.30	46555.60
581.46	46089.83
581.62	46230.26
581.78	46134.30
581.94	46237.28
582.10	46326.22
582.26	46476.02
582.42	46080.47
582.58	46485.38
582.74	46347.29
582.90	46487.72
583.06	46443.25
583.22	46454.95
583.38	47166.48
583.54	46522.83
583.70	46625.81
583.86	46464.32
584.02	46665.60
584.18	46644.54
584.34	46426.87
584.50	46028.98
584.66	46408.14
584.82	46073.45
584.98	46089.83
585.14	46199.83
585.30	45942.38
585.46	46307.50
585.62	45900.25
585.78	46078.13
585.94	45738.75
586.10	46452.61
586.26	46216.22
586.42	46230.26
586.58	46733.48
586.74	46564.96
586.90	46422.19
587.06	46040.68
587.22	46590.70
587.38	46461.97
587.54	46286.43
587.70	46181.11
587.86	46375.37
588.02	46358.99
588.18	46349.63
588.34	46258.35
588.49	45736.41
588.65	45956.42
588.81	45921.31
588.97	45947.06
589.13	46225.58
589.29	45902.59
589.45	45928.33
589.61	46483.04
589.77	46564.96
589.93	46543.89
590.08	46590.70
590.24	46366.01
590.40	46279.41
590.56	46337.93
590.72	46672.62
590.88	46440.91
591.04	46656.24
591.20	46295.80
591.35	46127.28
591.51	46775.61
591.67	46614.11
591.83	46286.43
591.99	46887.95
592.15	46520.49
592.31	46403.46
592.46	46279.41
592.62	46621.13
592.78	46410.48
592.94	46761.56
593.10	46408.14
593.26	46813.05
593.41	46831.78
593.57	46157.70
593.73	46436.23
593.89	46817.74
594.05	46782.63
594.20	46665.60
594.36	46567.30
594.52	45965.78
594.68	46328.56
594.84	46223.24
594.99	46532.19
595.15	46349.63
595.31	46398.78
595.47	46836.46
595.62	46447.93
595.78	46649.22
595.94	46862.21
596.10	46590.70
596.25	46445.59
596.41	46864.55
596.57	46586.02
596.73	46759.22
596.88	46302.82
597.04	46410.48
597.20	46579.00
597.36	46382.40
597.51	46600.07
597.67	46611.77
597.83	46642.20
597.99	46766.24
598.14	46642.20
598.30	46412.82
598.46	46731.14
598.61	46314.52
598.77	46323.88
598.93	46143.66
599.09	46681.98
599.24	47213.29
599.40	46609.43
599.56	46316.86
599.71	46689.01
599.87	46724.11
600.03	46513.47
600.18	46422.19
600.34	46195.15
600.50	46529.85
600.65	46637.51
600.81	46679.64
600.97	46686.67
601.12	46838.80
601.28	46431.55
601.44	46394.10
601.59	46522.83
601.75	46351.97
601.91	46054.72
602.06	45977.48
602.22	46560.28
602.37	46483.04
602.53	46314.52
602.69	46705.39
602.84	46190.47
603.00	46239.62
603.16	46579.00
603.31	46403.46
603.47	46340.27
603.62	46270.05
603.78	46801.35
603.94	46082.81
604.09	46981.57
604.25	46684.33
604.40	46351.97
604.56	46506.44
604.71	47009.66
604.87	46480.70
605.03	46410.48
605.18	46244.30
605.34	46220.90
605.49	46167.07
605.65	46284.09
605.80	46036.00
605.96	46246.65
606.12	46211.54
606.27	46546.23
606.43	46162.39
606.58	46330.90
606.74	46260.69
606.89	46405.80
607.05	46309.84
607.20	46387.08
607.36	45862.80
607.51	46000.89
607.67	46248.99
607.82	46319.20
607.98	45937.69
608.13	46096.85
608.29	46501.76
608.44	45911.95
608.60	45764.49
608.75	45944.72
608.91	45727.05
609.06	45940.04
609.22	46176.43
609.37	45844.07
609.53	45961.10
609.68	45722.37
609.84	45984.51
609.99	45764.49
610.15	45792.58
610.30	45680.24
610.46	45668.53
610.61	45729.39
610.76	45848.75
610.92	45741.09
611.07	45956.42
611.23	45705.98
611.38	45659.17
611.54	45670.87
611.69	45420.44
611.84	45441.50
612.00	45567.89
612.15	45514.06
612.31	45659.17
612.46	45464.91
612.62	45385.33
612.77	45862.80
612.92	45961.10
613.08	45654.49
613.23	45769.18
613.39	45635.77
613.54	44907.86
613.69	45366.60
613.85	45326.81
614.00	45378.31
614.15	45710.66
614.31	45720.02
614.46	45610.02
614.62	45565.55
614.77	44914.88
614.92	45570.23
615.08	45429.80
615.23	45221.49
615.38	44938.29
615.54	45134.89
615.69	45240.21
615.84	45088.08
616.00	45284.68
616.15	44823.60
616.30	44718.28
616.46	44879.77
616.61	45308.09
616.76	44891.48
616.92	44418.69
617.07	44837.64
617.22	44402.30
617.37	44605.93
617.53	45127.87
617.68	44851.69
617.83	45216.81
617.99	45315.11
618.14	44617.63
618.29	44673.81
618.45	44409.32
618.60	44460.82
618.75	45020.20
618.90	44512.31
619.06	45055.31
619.21	44793.17
619.36	44751.04
619.51	44760.40
619.67	44587.21
619.82	45015.52
619.97	44701.89
620.12	44479.54
620.28	44549.76
620.43	44149.53
620.58	44383.58
620.73	44449.11
620.89	44547.42
621.04	44575.50
621.19	44112.08
621.34	44669.12
621.49	44353.15
621.65	43761.00
621.80	44339.11
621.95	44170.59
622.10	44189.31
622.25	43578.43
622.41	43842.92
622.56	44051.22
622.71	44053.56
622.86	44034.84
623.01	44083.99
623.16	43835.89
623.32	43966.96
623.47	44133.14
623.62	43639.29
623.77	43952.92
623.92	44210.38
624.07	43569.07
624.23	43873.34
624.38	43658.01
624.53	43929.51
624.68	43952.92
624.83	43037.77
624.98	43674.40
625.13	43180.54
625.29	43276.51
625.44	43299.91
625.59	43164.16
625.74	42738.18
625.89	42932.45
626.04	43119.69
626.19	43012.02
626.34	43136.07
626.49	43763.34
626.65	43000.32
626.80	43405.23
626.95	43012.02
627.10	43213.31
627.25	42906.70
627.40	42869.25
627.55	43042.45
627.70	42349.65
627.85	42925.42
628.00	42586.05
628.15	42684.35
628.30	42810.74
628.45	42990.96
628.60	42656.26
628.76	43009.68
628.91	43213.31
629.06	42766.27
629.21	42197.52
629.36	42536.90
629.51	42295.82
629.66	42682.01
629.81	42586.05
629.96	42188.16
630.11	42485.40
630.26	42464.34
630.41	43150.12
630.56	42225.60
630.71	42946.49
630.86	42773.29
631.01	42017.30
631.16	42160.07
631.31	42263.05
631.46	42000.91
631.61	41750.48
631.76	42412.85
631.91	42010.28
632.06	42160.07
632.21	42333.27
632.36	42792.01
632.51	41663.88
632.66	42199.86
632.81	41801.97
632.96	41907.29
633.10	41984.53
633.25	42036.02
633.40	42103.90
633.55	41780.90
633.70	41951.76
633.85	42174.11
634.00	41935.38
634.15	42155.39
634.30	41612.38
634.45	41757.50
634.60	41921.34
634.75	41762.18
634.90	41841.76
635.05	41443.87
635.19	41457.91
635.34	41900.27
635.49	41481.31
635.64	41633.45
635.79	41368.97
635.94	41811.33
636.09	41483.66
636.24	41799.63
636.39	41441.53
636.53	41223.86
636.68	41013.21
636.83	41481.31
636.98	41624.09
637.13	41027.25
637.28	41153.64
637.43	41514.08
637.57	41387.69
637.72	41280.03
637.87	40982.78
638.02	41144.28
638.17	41144.28
638.32	41303.43
638.46	41336.20
638.61	41256.62
638.76	41099.81
638.91	41383.01
639.06	41212.15
639.20	40760.43
639.35	41139.60
639.50	41455.57
639.65	40940.65
639.80	40935.97
639.94	40837.67
640.09	40676.17
640.24	40971.08
640.39	40568.51
640.54	40636.38
640.68	40355.52
640.83	40493.61
640.98	40905.54
641.13	39988.05
641.27	40832.99
641.42	40758.09
641.57	40699.58
641.72	40783.83
641.86	40133.17
642.01	39622.93
642.16	40472.54
642.31	40039.54
642.45	40369.56
642.60	39718.89
642.75	40098.06
642.90	40435.10
643.04	40505.31
643.19	40287.64
643.34	40156.57
643.48	40023.16
643.63	39952.94
643.78	39576.12
643.93	39807.83
644.07	39934.22
644.22	40219.77
644.37	39995.07
644.51	39744.64
644.66	40334.45
644.81	39941.24
644.95	40268.92
645.10	40161.25
645.25	39842.94
645.39	39856.98
645.54	40023.16
645.69	39952.94
645.83	39824.22
645.98	39552.71
646.13	39739.96
646.27	39480.16
646.42	39388.88
646.57	39445.05
646.71	39559.73
646.86	39737.62
647.00	39651.02
647.15	39660.38
647.30	39288.23
647.44	39498.88
647.59	39168.87
647.74	39206.31
647.88	39709.53
648.03	39793.79
648.17	39538.67
648.32	39119.71
648.47	39587.82
648.61	39377.17
648.76	39505.90
648.90	39210.99
649.05	39250.78
649.20	38925.45
649.34	39030.77
649.49	38885.66
649.63	39035.45
649.78	38990.98
649.92	39108.01
650.07	39639.31
650.21	38227.97
650.36	39321.00
650.51	39138.44
650.65	39349.09
650.80	39583.14
650.94	39201.63
651.09	38902.04
651.23	38565.01
651.38	39232.06
651.52	38476.07
651.67	38993.32
651.81	38366.06
651.96	38426.92
652.10	38607.14
652.25	38440.96
652.39	38572.03
652.54	38855.23
652.68	38714.80
652.83	38773.31
652.97	39051.84
653.12	38499.47
653.26	38801.40
653.41	38361.38
653.55	38171.80
653.70	38115.62
653.84	38471.39
653.99	38534.58
654.13	38572.03
654.27	37965.83
654.42	38213.93
654.56	38050.09
654.71	38195.20
654.85	38499.47
655.00	38302.87
655.14	37799.65
655.29	37560.92
655.43	37565.60
655.57	37666.24
655.72	38064.13
655.86	37148.98
656.01	37500.06
656.15	37364.31
656.30	37315.16
656.44	37675.60
656.58	37294.10
656.73	37507.08
656.87	37757.52
657.01	38092.22
657.16	37862.85
657.30	37605.39
657.45	37020.25
657.59	37312.82
657.73	37289.42
657.88	37497.72
658.02	37801.99
658.16	37804.33
658.31	37500.06
658.45	37699.01
658.60	37317.50
658.74	37333.89
658.88	37301.12
659.03	36858.76
659.17	36989.83
659.31	37244.94
659.46	36992.17
659.60	37427.51
659.74	37371.33
659.89	36800.24
660.03	36992.17
660.17	36966.42
660.32	36917.27
660.46	36818.97
660.60	36685.56
660.74	36772.16
660.89	36589.59
661.03	36680.88
661.17	36430.44
661.32	36364.90
661.46	36142.55
661.60	36177.66
661.74	36451.50
661.89	36552.15
662.03	36430.44
662.17	36025.53
662.31	36222.13
662.46	36374.27
662.60	36329.80
662.74	36273.62
662.88	36065.31
663.03	35381.88
663.17	35519.97
663.31	35667.42
663.45	36320.43
663.60	35761.05
663.74	35828.92
663.88	35913.18
664.02	35356.13
664.17	35590.19
664.31	35559.76
664.45	35456.78
664.59	35564.44
664.73	35608.91
664.88	35590.19
665.02	34815.47
665.16	35180.59
665.30	35353.79
665.44	34934.84
665.59	35042.50
665.73	34845.90
665.87	34981.65
666.01	35054.20
666.15	35019.10
666.29	34593.12
666.44	34993.35
666.58	34733.55
666.72	34560.35
666.86	34937.18
667.00	34572.05
667.14	34473.75
667.28	34312.25
667.43	34335.66
667.57	34703.12
667.71	34043.09
667.85	34174.16
667.99	34022.03
668.13	34284.17
668.27	34251.40
668.41	34284.17
668.56	33933.09
668.70	34370.77
668.84	34153.10
668.98	33769.25
669.12	33411.15
669.26	33907.34
669.40	33647.54
669.54	33289.44
669.68	33652.22
669.82	33179.43
669.96	33195.82
670.10	33352.63
670.25	33551.58
670.39	33308.16
670.53	32842.40
670.67	33207.52
670.81	33209.86
670.95	33521.15
671.09	32917.29
671.23	32936.02
671.37	32624.73
671.51	32470.25
671.65	32563.87
671.79	32594.30
671.93	32238.54
672.07	32720.69
672.21	32465.57
672.35	32484.30
672.49	32830.69
672.63	32699.62
672.77	32233.86
672.91	32472.59
673.05	32311.10
673.19	32126.19
673.33	31639.36
673.47	32135.56
673.61	31889.80
673.75	31580.85
673.89	31307.01
674.03	31578.51
674.17	31754.05
674.31	31512.97
674.45	31620.64
674.59	31344.45
674.73	31936.61
674.87	31189.98
675.01	30988.69
675.15	31220.41
675.29	31180.62
675.43	31035.50
675.56	30864.64
675.70	31037.84
675.84	30785.07
675.98	29958.86
676.12	30771.02
676.26	30859.96
676.40	30546.33
676.54	30450.37
676.68	30359.09
676.82	30022.05
676.96	30424.62
677.10	30171.85
677.23	29937.79
677.37	29738.85
677.51	29443.94
677.65	29509.47
677.79	29167.76
677.93	29532.88
678.07	29345.64
678.21	28905.62
678.34	29198.18
678.48	28938.38
678.62	28931.36
678.76	28809.65
678.90	28402.40
679.04	28395.38
679.18	28524.11
679.31	28465.60
679.45	27992.81
679.59	27885.14
679.73	28201.11
679.87	28304.10
680.00	27805.56
680.14	27559.81
680.28	27941.32
680.42	27920.25
680.56	28046.64
680.70	27749.39
680.83	28112.17
680.97	27946.00
681.11	27580.87
681.25	27269.58
681.39	27314.05
681.52	27545.76
681.66	27115.11
681.80	27061.27
681.94	27108.08
682.07	27063.61
682.21	26703.17
682.35	26939.57
682.49	26752.32
682.62	26986.38
682.76	26342.73
682.90	26544.02
683.04	26080.59
683.17	26286.56
683.31	25919.09
683.45	26174.21
683.59	25802.07
683.72	25635.89
683.86	25757.60
684.00	25783.34
684.13	26010.37
684.27	25507.16
684.41	25268.42
684.55	25338.64
684.68	25219.27
684.82	25436.94
684.96	25376.09
685.09	24940.75
685.23	25041.39
685.37	25034.37
685.50	24496.05
685.64	24783.93
685.78	24507.75
685.91	24575.62
686.05	24503.07
686.19	23950.70
686.32	23630.05
686.46	23618.35
686.60	23669.84
686.73	23768.14
686.87	23594.94
687.01	23358.55
687.14	23442.81
687.28	23248.54
687.42	23012.15
687.55	23117.47
687.69	23468.55
687.82	23117.47
687.96	22970.02
688.10	22787.46
688.23	22782.77
688.37	22693.83
688.50	22569.79
688.64	22525.32
688.78	22314.67
688.91	22672.77
689.05	22232.75
689.18	22232.75
689.32	22033.80
689.46	22450.42
689.59	22326.37
689.73	22457.44
689.86	22141.47
690.00	21869.97
690.13	21748.26
690.27	21661.66
690.41	21530.59
690.54	21085.89
690.68	21631.23
690.81	21322.28
690.95	21497.82
691.08	20849.49
691.22	21099.93
691.35	20912.69
691.49	21301.22
691.62	21221.64
691.76	21142.06
691.89	20975.88
692.03	20671.61
692.16	20711.40
692.30	20622.46
692.43	20484.37
692.57	20531.18
692.70	20297.13
692.84	20107.54
692.97	19864.13
693.11	19805.61
693.24	19934.34
693.38	19819.66
693.51	19751.78
693.65	20271.38
693.78	19843.06
693.92	19740.08
694.05	19487.30
694.19	19463.90
694.32	19494.32
694.45	19384.32
694.59	18974.72
694.72	18794.50
694.86	18977.06
694.99	19073.03
695.13	18984.09
695.26	18953.66
695.39	18539.38
695.53	18719.60
695.66	18820.25
695.80	18827.27
695.93	18457.46
696.07	18464.49
696.20	18326.39
696.33	18389.59
696.47	18190.64
696.60	17865.31
696.73	17984.68
696.87	17776.37
697.00	17972.97
697.14	17827.86
697.27	17830.20
697.40	17968.29
697.54	17579.76
697.67	17535.29
697.80	17551.68
697.94	17383.16
698.07	17298.90
698.21	17188.89
698.34	17158.47
698.47	16994.63
698.61	16755.90
698.74	16812.07
698.87	16641.21
699.01	16493.76
699.14	16489.07
699.27	16273.74
699.40	16367.37
699.54	16484.39
699.67	16114.59
699.80	16350.98
699.94	16184.80
700.07	15976.50
700.20	16114.59
700.34	16119.27
700.47	15981.18
700.60	16154.38
700.73	16070.12
700.87	15925.00
701.00	15777.55
701.13	15953.09
701.26	15386.68
701.40	15433.49
701.53	15318.81
701.66	15400.72
701.79	15335.19
701.93	15351.57
702.06	14892.83
702.19	15119.86
702.32	14850.70
702.46	14949.00
702.59	14808.57
702.72	14951.34
702.85	15023.90
702.99	14436.42
703.12	14813.25
703.25	14583.88
703.38	14546.43
703.51	14349.82
703.65	14368.55
703.78	14387.27
703.91	14406.00
704.04	14214.07
704.17	13806.82
704.31	13895.76
704.44	14026.83
704.57	13963.64
704.70	14005.77
704.83	13816.18
704.96	14068.96
705.10	13893.42
705.23	13593.83
>>>>>End Processed Spectral Data<<<<<
