SpectraSuite Data File
++++++++++++++++++++++++++++++++++++
Date: Fri Oct 25 11:34:06 EDT 2013
User: price-jones
Dark Spectrum Present: No
Reference Spectrum Present: No
Number of Sampled Component Spectra: 1
Spectrometers: USB2+H05261
Integration Time (usec): 100000 (USB2+H05261)
Spectra Averaged: 1 (USB2+H05261)
Boxcar Smoothing: 0 (USB2+H05261)
Correct for Electrical Dark: No (USB2+H05261)
Strobe/Lamp Enabled: No (USB2+H05261)
Correct for Detector Non-linearity: No (USB2+H05261)
Correct for Stray Light: No (USB2+H05261)
Number of Pixels in Processed Spectrum: 2048
>>>>>Begin Processed Spectral Data<<<<<
365.73	257.46
365.92	257.46
366.12	257.46
366.32	163.84
366.52	145.11
366.72	210.65
366.91	140.43
367.11	168.52
367.31	222.35
367.51	107.66
367.70	201.29
367.90	208.31
368.10	182.56
368.30	191.92
368.49	145.11
368.69	184.90
368.89	210.65
369.09	222.35
369.28	177.88
369.48	189.58
369.68	177.88
369.87	198.95
370.07	259.80
370.27	299.59
370.47	409.59
370.66	425.98
370.86	477.47
371.06	491.51
371.25	554.71
371.45	589.82
371.65	613.22
371.84	456.40
372.04	617.90
372.24	580.45
372.44	585.13
372.63	571.09
372.83	631.94
373.03	575.77
373.22	589.82
373.42	629.60
373.62	653.01
373.81	613.22
374.01	685.78
374.21	643.65
374.40	685.78
374.60	650.67
374.79	674.07
374.99	617.90
375.19	697.48
375.38	685.78
375.58	603.86
375.78	748.97
375.97	676.41
376.17	748.97
376.37	648.33
376.56	690.46
376.76	702.16
376.95	613.22
377.15	624.92
377.35	692.80
377.54	767.70
377.74	660.03
377.93	613.22
378.13	667.05
378.33	657.69
378.52	709.18
378.72	758.33
378.91	765.36
379.11	685.78
379.31	725.57
379.50	732.59
379.70	723.23
379.89	685.78
380.09	690.46
380.28	669.39
380.48	692.80
380.68	669.39
380.87	662.37
381.07	795.78
381.26	734.93
381.46	795.78
381.65	709.18
381.85	730.25
382.04	723.23
382.24	751.31
382.43	784.08
382.63	753.65
382.83	702.16
383.02	784.08
383.22	741.95
383.41	723.23
383.61	760.67
383.80	814.51
384.00	816.85
384.19	840.25
384.39	781.74
384.58	823.87
384.78	816.85
384.97	791.10
385.17	851.96
385.36	837.91
385.56	844.93
385.75	891.74
385.95	844.93
386.14	884.72
386.34	929.19
386.53	772.38
386.72	835.57
386.92	847.27
387.11	924.51
387.31	894.08
387.50	837.91
387.70	908.13
387.89	940.90
388.09	926.85
388.28	992.39
388.48	898.77
388.67	1008.77
388.86	903.45
389.06	997.07
389.25	929.19
389.45	1015.79
389.64	966.64
389.84	1027.50
390.03	861.32
390.22	1060.26
390.42	903.45
390.61	950.26
390.81	940.90
391.00	985.37
391.19	1011.11
391.39	924.51
391.58	950.26
391.78	997.07
391.97	1046.22
392.16	938.55
392.36	1022.81
392.55	1121.12
392.75	990.05
392.94	1008.77
393.13	1104.73
393.33	1020.47
393.52	1093.03
393.71	1102.39
393.91	1097.71
394.10	1104.73
394.29	987.71
394.49	1001.75
394.68	1086.01
394.88	1153.88
395.07	1125.80
395.26	1130.48
395.46	1102.39
395.65	1116.44
395.84	1200.69
396.04	1245.16
396.23	1144.52
396.42	1231.12
396.62	1193.67
396.81	1219.42
397.00	1151.54
397.19	1198.35
397.39	1191.33
397.58	1177.29
397.77	1160.91
397.97	1259.21
398.16	1219.42
398.35	1247.51
398.55	1203.04
398.74	1282.61
398.93	1242.82
399.12	1355.17
399.32	1233.46
399.51	1233.46
399.70	1301.34
399.90	1252.19
400.09	1329.42
400.28	1465.18
400.47	1322.40
400.67	1362.19
400.86	1413.68
401.05	1413.68
401.24	1387.94
401.44	1345.81
401.63	1476.88
401.82	1432.41
402.01	1394.96
402.21	1481.56
402.40	1441.77
402.59	1479.22
402.78	1523.69
402.97	1481.56
403.17	1469.86
403.36	1509.65
403.55	1519.01
403.74	1549.43
403.93	1713.27
404.13	1565.82
404.32	1619.65
404.51	1530.71
404.70	1579.86
404.89	1575.18
405.09	1652.42
405.28	1537.73
405.47	1666.46
405.66	1584.54
405.85	1636.03
406.05	1633.69
406.24	1664.12
406.43	1727.32
406.62	1717.95
406.81	1832.64
407.00	1703.91
407.20	1802.21
407.39	1699.23
407.58	1762.42
407.77	1834.98
407.96	1898.17
408.15	1881.79
408.34	1774.13
408.54	1909.88
408.73	1900.52
408.92	1886.47
409.11	1975.41
409.30	1926.26
409.49	1870.09
409.68	1923.92
409.87	1914.56
410.07	1877.11
410.26	2064.35
410.45	2059.67
410.64	2059.67
410.83	2024.56
411.02	2069.03
411.21	2188.40
411.40	2106.48
411.59	2085.42
411.78	2174.36
411.98	2143.93
412.17	2267.98
412.36	2197.76
412.55	2352.24
412.74	2249.25
412.93	2403.73
413.12	2326.49
413.31	2373.30
413.50	2333.51
413.69	2317.13
413.88	2499.69
414.07	2455.22
414.26	2523.10
414.45	2597.99
414.64	2485.65
414.83	2600.34
415.02	2619.06
415.22	2567.57
415.41	2605.02
415.60	2670.55
415.79	2668.21
415.98	2710.34
416.17	2759.49
416.36	2663.53
416.55	2724.38
416.74	2768.85
416.93	2787.58
417.12	2754.81
417.31	2867.16
417.50	2846.09
417.69	2977.16
417.88	2832.05
418.07	3038.02
418.26	2988.86
418.45	2839.07
418.64	2984.18
418.83	2888.22
419.02	2991.20
419.21	3068.44
419.39	3002.91
419.58	3187.81
419.77	3171.43
419.96	3178.45
420.15	3192.49
420.34	2974.82
420.53	3030.99
420.72	3197.17
420.91	3159.72
421.10	3323.56
421.29	3145.68
421.48	3201.85
421.67	3253.34
421.86	3316.54
422.05	3304.84
422.24	3253.34
422.43	3370.37
422.61	3314.20
422.80	3370.37
422.99	3330.58
423.18	3353.99
423.37	3330.58
423.56	3382.07
423.75	3417.18
423.94	3176.11
424.13	3033.33
424.32	3143.34
424.50	3288.45
424.69	3412.50
424.88	3433.57
425.07	3461.65
425.26	3339.94
425.45	3480.38
425.64	3358.67
425.83	3328.24
426.01	3421.86
426.20	3417.18
426.39	3379.73
426.58	3520.17
426.77	3459.31
426.96	3452.29
427.15	3407.82
427.33	3590.38
427.52	3529.53
427.71	3440.59
427.90	3613.79
428.09	3569.32
428.28	3510.80
428.46	3588.04
428.65	3672.30
428.84	3686.34
429.03	3616.13
429.22	3531.87
429.40	3653.58
429.59	3618.47
429.78	3595.06
429.97	3616.13
430.16	3749.54
430.34	3815.07
430.53	3770.60
430.72	3824.44
430.91	3864.22
431.10	3777.62
431.28	3894.65
431.47	3978.91
431.66	3929.76
431.85	3836.14
432.03	4030.40
432.22	3995.29
432.41	4021.04
432.60	3983.59
432.79	3875.93
432.97	4014.02
433.16	4142.75
433.35	3988.27
433.54	4079.55
433.72	4128.70
433.91	4124.02
434.10	4102.96
434.28	4011.68
434.47	4140.41
434.66	4105.30
434.85	4212.96
435.03	4301.90
435.22	4280.84
435.41	4383.82
435.59	4367.44
435.78	4365.10
435.97	4332.33
436.16	4212.96
436.34	4287.86
436.53	4311.27
436.72	4404.89
436.90	4257.43
437.09	4407.23
437.28	4390.84
437.46	4451.70
437.65	4451.70
437.84	4486.81
438.02	4430.63
438.21	4608.51
438.40	4535.96
438.58	4669.37
438.77	4723.20
438.96	4542.98
439.14	4699.80
439.33	4779.37
439.52	4868.31
439.70	4690.43
439.89	4929.17
440.08	4931.51
440.26	4905.76
440.45	4952.57
440.63	5039.17
440.82	5062.58
441.01	5008.75
441.19	5207.69
441.38	5121.09
441.57	5296.63
441.75	5210.03
441.94	5387.91
442.12	5247.48
442.31	5350.46
442.50	5385.57
442.68	5252.16
442.87	5301.31
443.05	5373.87
443.24	5341.10
443.43	5240.46
443.61	5528.35
443.80	5547.07
443.98	5373.87
444.17	5081.30
444.35	5418.34
444.54	5720.27
444.73	5575.16
444.91	5462.81
445.10	5504.94
445.28	5455.79
445.47	5572.82
445.65	5465.15
445.84	5493.24
446.02	5727.29
446.21	5514.30
446.39	5596.22
446.58	5703.89
446.77	5682.82
446.95	5469.83
447.14	5621.97
447.32	5640.69
447.51	5734.31
447.69	5518.98
447.88	5724.95
448.06	5748.36
448.25	5689.84
448.43	5540.05
448.62	5734.31
448.80	5783.46
448.99	5640.69
449.17	5753.04
449.36	5722.61
449.54	5947.30
449.73	5982.41
449.91	5977.73
450.10	5771.76
450.28	6017.52
450.46	5980.07
450.65	5980.07
450.83	6012.84
451.02	6097.10
451.20	6164.97
451.39	6050.28
451.57	6106.46
451.76	6019.86
451.94	6181.35
452.13	6092.41
452.31	6064.33
452.49	6045.60
452.68	6200.08
452.86	6099.44
453.05	6242.21
453.23	6272.64
453.42	6078.37
453.60	6108.80
453.78	6272.64
453.97	6195.40
454.15	6134.54
454.34	6251.57
454.52	6317.11
454.70	6361.58
454.89	6647.12
455.07	6633.08
455.26	6523.07
455.44	6424.77
455.62	6623.72
455.81	6520.73
455.99	6696.27
456.17	6574.56
456.36	6698.61
456.54	6820.32
456.73	6705.63
456.91	6799.26
457.09	6822.66
457.28	7082.46
457.46	6792.23
457.64	6942.03
457.83	6726.70
458.01	6920.96
458.19	6960.75
458.38	6939.69
458.56	7045.01
458.74	6981.82
458.93	7108.21
459.11	7171.40
459.29	7091.82
459.48	7087.14
459.66	7061.40
459.84	7211.19
460.03	7351.62
460.21	7176.08
460.39	7178.42
460.57	7119.91
460.76	7131.61
460.94	7557.59
461.12	7272.04
461.31	7389.07
461.49	7396.09
461.67	7133.95
461.85	7604.40
462.04	7517.80
462.22	7878.24
462.40	7534.18
462.59	7728.45
462.77	7618.44
462.95	7646.53
463.13	7641.85
463.32	7639.51
463.50	7620.78
463.68	7644.19
463.86	7754.19
464.05	7559.93
464.23	7611.42
464.41	7737.81
464.59	7676.96
464.78	7918.03
464.96	7683.98
465.14	7817.39
465.32	7815.05
465.50	7901.65
465.69	7896.97
465.87	8044.42
466.05	7922.71
466.23	7957.82
466.41	7918.03
466.60	8098.25
466.78	7852.50
466.96	8030.38
467.14	8072.51
467.32	7866.54
467.51	7976.55
467.69	8154.43
467.87	7962.50
468.05	8196.56
468.23	8105.28
468.41	8306.56
468.60	8376.78
468.78	8369.76
468.96	8470.40
469.14	8383.80
469.32	8571.04
469.50	8444.65
469.69	8528.91
469.87	8648.28
470.05	8514.87
470.23	8578.06
470.41	8617.85
470.59	8587.43
470.77	8650.62
470.95	8704.45
471.14	8851.91
471.32	8734.88
471.50	9078.94
471.68	8840.20
471.86	8861.27
472.04	8833.18
472.22	9273.20
472.40	8940.85
472.58	9179.58
472.77	9004.04
472.95	9078.94
473.13	9348.10
473.31	9188.94
473.49	9123.41
473.67	9074.26
473.85	9458.10
474.03	9427.68
474.21	9469.81
474.39	9621.94
474.57	9437.04
474.75	9635.99
474.93	9540.02
475.12	9870.04
475.30	9685.14
475.48	9762.37
475.66	10003.45
475.84	9951.96
476.02	9973.02
476.20	10204.74
476.38	10176.65
476.56	10342.83
476.74	10427.09
476.92	10406.02
477.10	10176.65
477.28	10314.74
477.46	10576.88
477.64	10597.95
477.82	10878.81
478.00	10843.70
478.18	11059.03
478.36	11042.65
478.54	11049.67
478.72	11281.38
478.90	11201.80
479.08	11339.90
479.26	11590.33
479.44	11454.58
479.62	11370.32
479.80	11520.12
479.98	11800.98
480.16	11922.69
480.34	11658.21
480.52	12060.78
480.70	11840.77
480.88	12016.31
481.06	12105.25
481.24	12271.43
481.41	12348.67
481.59	12514.84
481.77	12463.35
481.95	12709.11
482.13	12624.85
482.31	12592.08
482.49	13078.91
482.67	12894.01
482.85	12952.52
483.03	13254.45
483.21	13579.79
483.39	13350.42
483.57	13455.74
483.74	13591.49
483.92	13762.35
484.10	13603.19
484.28	13973.00
484.46	14284.29
484.64	14684.52
484.82	14125.13
485.00	14394.29
485.18	14452.81
485.35	14757.08
485.53	14618.99
485.71	14703.25
485.89	15192.42
486.07	14998.15
486.25	15044.96
486.43	15143.27
486.61	15466.26
486.78	15363.28
486.96	15400.72
487.14	15576.27
487.32	15901.60
487.50	16196.51
487.68	16023.31
487.85	16292.47
488.03	16498.44
488.21	16884.62
488.39	16367.37
488.57	16727.81
488.75	16786.32
488.92	17001.65
489.10	17163.15
489.28	17118.68
489.46	17174.85
489.64	17626.57
489.81	17736.58
489.99	17972.97
490.17	17930.84
490.35	17980.00
490.53	18450.44
490.70	18427.04
490.88	18160.22
491.06	18263.20
491.24	18438.74
491.41	18670.45
491.59	18864.72
491.77	18785.14
491.95	19110.47
492.13	19278.99
492.30	19424.11
492.48	19098.77
492.66	19281.33
492.84	19534.11
493.01	19686.25
493.19	19611.35
493.37	19681.56
493.54	19936.68
493.72	19936.68
493.90	20067.75
494.08	20133.29
494.25	20313.51
494.43	20409.47
494.61	20453.94
494.79	20568.63
494.96	20947.79
495.14	20875.24
495.32	21331.64
495.49	21392.50
495.67	21266.11
495.85	21413.56
496.02	21671.02
496.20	21965.93
496.38	21783.37
496.55	21855.92
496.73	22347.44
496.91	22192.96
497.09	22649.36
497.26	22328.71
497.44	22679.79
497.62	22340.41
497.79	23082.36
497.97	22829.59
498.14	22899.80
498.32	23388.97
498.50	23466.21
498.67	23374.93
498.85	23068.32
499.03	23379.61
499.20	23608.98
499.38	23672.18
499.56	23726.01
499.73	23908.57
499.91	23786.86
500.08	24070.07
500.26	24074.75
500.44	23906.23
500.61	24568.60
500.79	23709.63
500.97	24428.17
501.14	25043.73
501.32	24821.38
501.49	24741.80
501.67	24739.46
501.84	24905.64
502.02	24898.62
502.20	24805.00
502.37	25268.42
502.55	25064.80
502.72	25738.87
502.90	25560.99
503.07	25055.43
503.25	25348.00
503.43	25551.63
503.60	25827.81
503.78	25717.81
503.95	25703.76
504.13	26148.46
504.30	26443.37
504.48	26064.21
504.65	26118.04
504.83	26775.73
505.01	26792.11
505.18	26691.47
505.36	26916.16
505.53	26621.25
505.71	26607.21
505.88	26913.82
506.06	26717.22
506.23	27190.00
506.41	27096.38
506.58	27314.05
506.76	26988.72
506.93	27695.56
507.11	27234.47
507.28	27508.32
507.46	27433.42
507.63	27976.42
507.81	27782.16
507.98	27620.66
508.16	28013.87
508.33	27971.74
508.50	27784.50
508.68	28198.77
508.85	28203.46
509.03	27953.02
509.20	28329.84
509.38	28606.03
509.55	28428.15
509.73	28748.80
509.90	28683.27
510.08	28671.56
510.25	28701.99
510.42	28893.91
510.60	28669.22
510.77	29149.03
510.95	29331.59
511.12	29457.98
511.30	29282.44
511.47	29481.39
511.64	29785.66
511.82	29584.37
511.99	29303.51
512.17	29811.40
512.34	29872.26
512.51	30356.75
512.69	30274.83
512.86	30251.42
513.04	29970.56
513.21	30658.68
513.38	30288.87
513.56	30558.03
513.73	30438.67
513.90	30323.98
514.08	30422.28
514.25	30457.39
514.43	30845.92
514.60	30700.81
514.77	30904.43
514.95	31414.67
515.12	31182.96
515.29	30843.58
515.47	31377.22
515.64	31283.60
515.81	31180.62
515.99	31498.93
516.16	31721.28
516.33	31758.73
516.51	31697.88
516.68	31522.34
516.85	31494.25
517.03	31810.22
517.20	31894.48
517.37	31784.48
517.54	31920.23
517.72	32453.87
517.89	32027.89
518.06	32402.38
518.24	32493.66
518.41	32208.11
518.58	32568.55
518.75	32409.40
518.93	32414.08
519.10	32357.91
519.27	32545.15
519.45	32753.46
519.62	32814.31
519.79	33043.68
519.96	33097.52
520.14	33036.66
520.31	32921.98
520.48	33457.96
520.65	33200.50
520.83	33645.20
521.00	33647.54
521.17	33666.27
521.34	33804.36
521.52	33654.56
521.69	33481.36
521.86	34150.76
522.03	34071.18
522.20	34223.31
522.38	34279.49
522.55	34223.31
522.72	33982.24
522.89	34333.32
523.07	34616.52
523.24	34176.50
523.41	35065.91
523.58	34429.28
523.75	34958.24
523.92	34258.42
524.10	34749.93
524.27	34920.79
524.44	34974.63
524.61	34773.34
524.78	35098.67
524.96	35215.70
525.13	35360.81
525.30	35367.84
525.47	35529.33
525.64	34988.67
525.81	35463.80
525.98	35459.12
526.16	35328.05
526.33	35552.74
526.50	35819.56
526.67	35971.69
526.84	35747.00
527.01	35887.43
527.18	35976.37
527.36	36348.52
527.53	36264.26
527.70	36547.47
527.87	36144.89
528.04	36215.11
528.21	36390.65
528.38	36128.51
528.55	36760.45
528.72	36395.33
528.89	36116.81
529.07	36430.44
529.24	36453.84
529.41	37067.06
529.58	36540.44
529.75	36292.35
529.92	36931.31
530.09	36746.41
530.26	37254.31
530.43	36971.10
530.60	36414.05
530.77	36584.91
530.94	37282.39
531.11	36877.48
531.28	37361.97
531.46	37198.13
531.63	37535.17
531.80	37645.18
531.97	37607.73
532.14	37291.76
532.31	37406.44
532.48	37858.17
532.65	37649.86
532.82	38047.75
532.99	37750.50
533.16	38103.92
533.33	38132.01
533.50	37907.32
533.67	37930.72
533.84	37907.32
534.01	38424.57
534.18	37900.29
534.35	38288.82
534.52	38417.55
534.69	38321.59
534.86	38576.71
535.03	37666.24
535.20	38775.66
535.37	38773.31
535.54	38616.50
535.71	38267.76
535.88	38815.44
536.05	38529.90
536.22	38738.21
536.38	38770.97
536.55	38871.62
536.72	38742.89
536.89	38951.20
537.06	38923.11
537.23	39248.44
537.40	38909.07
537.57	39218.02
537.74	39325.68
537.91	39292.91
538.08	39339.72
538.25	39014.39
538.42	39321.00
538.59	39402.92
538.75	39400.58
538.92	39646.33
539.09	39847.62
539.26	39550.37
539.43	39700.17
539.60	39608.89
539.77	39697.83
539.94	40046.57
540.11	39913.16
540.28	39695.49
540.44	39826.56
540.61	39824.22
540.78	40053.59
540.95	40383.60
541.12	39934.22
541.29	40409.35
541.46	40254.87
541.62	40079.33
541.79	40236.15
541.96	39906.13
542.13	40137.85
542.30	40224.45
542.47	40605.95
542.63	40854.05
542.80	40783.83
542.97	41141.94
543.14	40840.01
543.31	40779.15
543.48	40966.40
543.64	41546.85
543.81	40985.12
543.98	40772.13
544.15	41221.52
544.32	41432.16
544.48	41202.79
544.65	41308.11
544.82	41378.33
544.99	41364.29
545.16	41603.02
545.32	41357.27
545.49	41893.25
545.66	42270.08
545.83	41727.07
546.00	41706.01
546.16	42047.72
546.33	41256.62
546.50	41350.24
546.67	41883.89
546.83	41261.30
547.00	41811.33
547.17	42033.68
547.34	41645.15
547.50	41935.38
547.67	42747.54
547.84	41813.67
548.00	42412.85
548.17	42052.41
548.34	42333.27
548.51	42359.02
548.67	42225.60
548.84	42349.65
549.01	42087.51
549.18	42274.76
549.34	42471.36
549.51	42696.05
549.68	42703.07
549.84	42569.66
550.01	42520.51
550.18	42752.23
550.34	42738.18
550.51	42682.01
550.68	42787.33
550.84	42469.02
551.01	42997.98
551.18	42691.37
551.34	42871.59
551.51	43154.80
551.68	43030.75
551.84	43012.02
552.01	42628.18
552.18	42883.30
552.34	43000.32
552.51	43138.41
552.68	42733.50
552.84	43040.11
553.01	43304.59
553.18	43398.21
553.34	43353.74
553.51	43484.81
553.67	43150.12
553.84	43533.96
554.01	43196.93
554.17	43849.94
554.34	43306.93
554.51	43620.56
554.67	43971.64
554.84	43833.55
555.00	43400.55
555.17	44091.01
555.33	44002.07
555.50	43306.93
555.67	43913.13
555.83	43842.92
556.00	43564.39
556.16	44502.95
556.33	44079.31
556.50	43803.13
556.66	43983.35
556.83	43775.04
556.99	43962.28
557.16	44498.26
557.32	44285.28
557.49	44423.37
557.65	43896.75
557.82	44046.54
557.98	44107.40
558.15	44348.47
558.32	44320.38
558.48	43973.98
558.65	44165.91
558.81	44135.48
558.98	43938.88
559.14	44418.69
559.31	44353.15
559.47	44847.00
559.64	44238.47
559.80	44275.91
559.97	44397.62
560.13	43976.33
560.30	44722.96
560.46	44772.11
560.63	44065.27
560.79	44924.24
560.96	44889.13
561.12	44835.30
561.29	45038.93
561.45	44594.23
561.61	45298.73
561.78	44428.05
561.94	44678.49
562.11	44477.20
562.27	44814.24
562.44	44446.77
562.60	45167.66
562.77	44837.64
562.93	44559.12
563.10	45048.29
563.26	45202.77
563.42	44720.62
563.59	44924.24
563.75	44966.37
563.92	45249.58
564.08	44753.38
564.24	44961.69
564.41	45160.64
564.57	45184.04
564.74	44809.56
564.90	44959.35
565.07	44779.13
565.23	45048.29
565.39	45284.68
565.56	45172.34
565.72	45404.05
565.88	45303.41
566.05	45162.98
566.21	45610.02
566.38	45078.72
566.54	45539.80
566.70	45378.31
566.87	45275.32
567.03	45001.48
567.19	45518.74
567.36	45368.94
567.52	45432.14
567.68	45755.13
567.85	45544.48
568.01	45352.56
568.17	45504.70
568.34	45659.17
568.50	45661.51
568.66	45425.12
568.83	45792.58
568.99	45488.31
569.15	45581.93
569.32	45815.99
569.48	45380.65
569.64	45759.81
569.81	45640.45
569.97	45755.13
570.13	45736.41
570.30	45535.12
570.46	45717.68
570.62	45890.88
570.78	45851.09
570.95	45366.60
571.11	45640.45
571.27	45361.92
571.43	45558.53
571.60	45783.22
571.76	46007.91
571.92	45626.40
572.09	45610.02
572.25	45832.37
572.41	45525.76
572.57	45535.12
572.74	46309.84
572.90	45930.67
573.06	46066.42
573.22	45937.69
573.38	46099.19
573.55	45834.71
573.71	46024.29
573.87	46066.42
574.03	46019.61
574.20	46024.29
574.36	46265.37
574.52	46494.74
574.68	45933.01
574.84	46684.33
575.01	46293.46
575.17	46005.57
575.33	46026.63
575.49	45834.71
575.65	46115.58
575.82	46010.25
575.98	46012.59
576.14	46108.55
576.30	46150.68
576.46	45911.95
576.62	46038.34
576.79	46138.98
576.95	46141.32
577.11	45675.55
577.27	45645.13
577.43	45909.61
577.59	45771.52
577.75	46146.00
577.92	45923.65
578.08	46300.48
578.24	46464.32
578.40	46010.25
578.56	46494.74
578.72	46188.13
578.88	46422.19
579.04	46337.93
579.21	46017.27
579.37	46272.39
579.53	46019.61
579.69	46064.08
579.85	46129.62
580.01	46274.73
580.17	46232.60
580.33	46342.61
580.49	46167.07
580.65	46003.23
580.82	46569.64
580.98	46241.96
581.14	46141.32
581.30	45951.74
581.46	46120.26
581.62	46227.92
581.78	46330.90
581.94	46323.88
582.10	46342.61
582.26	46593.04
582.42	46745.18
582.58	46618.79
582.74	46024.29
582.90	45916.63
583.06	46059.40
583.22	46583.68
583.38	46335.59
583.54	46218.56
583.70	46604.75
583.86	46490.06
584.02	46419.84
584.18	46426.87
584.34	46522.83
584.50	46394.10
584.66	46806.03
584.82	46674.96
584.98	46658.58
585.14	46504.10
585.30	46211.54
585.46	46291.12
585.62	46204.52
585.78	46728.80
585.94	46316.86
586.10	46438.57
586.26	46026.63
586.42	46621.13
586.58	46564.96
586.74	46223.24
586.90	46127.28
587.06	46494.74
587.22	46784.97
587.38	46204.52
587.54	46894.97
587.70	46740.50
587.86	46347.29
588.02	46653.90
588.18	46478.36
588.34	46340.27
588.49	46422.19
588.65	46508.79
588.81	46312.18
588.97	46557.94
589.13	46445.59
589.29	46663.26
589.45	46916.04
589.61	46569.64
589.77	47023.70
589.93	46740.50
590.08	46855.18
590.24	47000.30
590.40	47077.54
590.56	46883.27
590.72	47283.50
590.88	46824.76
591.04	46625.81
591.20	47021.36
591.35	46899.65
591.51	47470.75
591.67	47068.17
591.83	47093.92
591.99	46934.76
592.15	47075.19
592.31	46735.82
592.46	47021.36
592.62	46712.41
592.78	46799.01
592.94	47000.30
593.10	47206.26
593.26	47318.61
593.41	47192.22
593.57	46983.91
593.73	47049.45
593.89	47814.80
594.05	47374.78
594.20	46703.05
594.36	47269.46
594.52	47388.83
594.68	46899.65
594.84	47489.47
594.99	47234.35
595.15	47250.74
595.31	47157.11
595.47	47491.81
595.62	47119.66
595.78	46749.86
595.94	47536.28
596.10	47365.42
596.25	47334.99
596.41	47241.37
596.57	47030.72
596.73	47538.62
596.88	47110.30
597.04	47454.36
597.20	47283.50
597.36	47512.88
597.51	47372.44
597.67	47086.90
597.83	47107.96
597.99	46637.51
598.14	47297.55
598.30	47578.41
598.46	47405.21
598.61	47555.00
598.77	47105.62
598.93	47063.49
599.09	47040.09
599.24	47763.31
599.40	47349.04
599.56	47086.90
599.71	47447.34
599.87	48135.46
600.03	47524.58
600.18	47365.42
600.34	47229.67
600.50	47222.65
600.65	47047.11
600.81	47866.30
600.97	47290.52
601.12	47236.69
601.28	47566.71
601.44	47217.97
601.59	47405.21
601.75	46892.63
601.91	47620.54
602.06	47379.46
602.22	47189.88
602.37	47297.55
602.53	47203.92
602.69	47639.26
602.84	47484.79
603.00	47629.90
603.16	47543.30
603.31	47178.18
603.47	47681.39
603.62	47358.40
603.78	47538.62
603.94	47253.08
604.09	47353.72
604.25	47351.38
604.40	47428.62
604.56	47386.49
604.71	47711.82
604.87	47243.71
605.03	47295.21
605.18	47082.22
605.34	46981.57
605.49	47246.05
605.65	47370.10
605.80	46986.25
605.96	47325.63
606.12	47466.06
606.27	47110.30
606.43	47353.72
606.58	47070.51
606.74	47271.80
606.89	46932.42
607.05	47215.63
607.20	47157.11
607.36	47370.10
607.51	47175.84
607.67	47178.18
607.82	46939.44
607.98	47430.96
608.13	47079.88
608.29	47306.91
608.44	47482.45
608.60	47129.03
608.75	47224.99
608.91	46681.98
609.06	46864.55
609.22	47152.43
609.37	46878.59
609.53	47510.53
609.68	47140.73
609.84	47086.90
609.99	47501.17
610.15	47243.71
610.30	47133.71
610.46	47056.47
610.61	47129.03
610.76	47154.77
610.92	46445.59
611.07	46946.47
611.23	46880.93
611.38	46686.67
611.54	47196.90
611.69	47194.56
611.84	47082.22
612.00	46902.00
612.15	46389.42
612.31	46763.90
612.46	46848.16
612.62	46635.17
612.77	46644.54
612.92	47019.02
613.08	46689.01
613.23	47334.99
613.39	46588.36
613.54	46333.24
613.69	47096.26
613.85	46735.82
614.00	46878.59
614.15	46981.57
614.31	47000.30
614.46	46387.08
614.62	46244.30
614.77	46838.80
614.92	46719.43
615.08	46363.67
615.23	46361.33
615.38	47103.28
615.54	46742.84
615.69	46494.74
615.84	46529.85
616.00	46527.51
616.15	46710.07
616.30	46583.68
616.46	46253.67
616.61	46672.62
616.76	46920.72
616.92	46670.28
617.07	46211.54
617.22	46347.29
617.37	46286.43
617.53	46211.54
617.68	46534.53
617.83	46529.85
617.99	46571.98
618.14	45933.01
618.29	45567.89
618.45	46401.12
618.60	45940.04
618.75	45780.88
618.90	46115.58
619.06	46136.64
619.21	46124.94
619.36	46532.19
619.51	46036.00
619.67	46127.28
619.82	46452.61
619.97	46021.95
620.12	45872.16
620.28	46174.09
620.43	46108.55
620.58	45893.22
620.73	45722.37
620.89	46101.53
621.04	46272.39
621.19	46096.85
621.34	45663.85
621.49	45808.96
621.65	46351.97
621.80	46220.90
621.95	45635.77
622.10	45776.20
622.25	45778.54
622.41	45542.14
622.56	45551.51
622.71	45860.46
622.86	45673.21
623.01	45869.82
623.16	45366.60
623.32	45727.05
623.47	45902.59
623.62	45752.79
623.77	45684.92
623.92	45722.37
624.07	45453.20
624.23	46066.42
624.38	45736.41
624.53	45329.16
624.68	44949.99
624.83	45287.03
624.98	45865.14
625.13	45020.20
625.29	45074.04
625.44	44854.03
625.59	45146.59
625.74	45237.87
625.89	45074.04
626.04	45282.34
626.19	45338.52
626.34	45390.01
626.49	44545.08
626.65	45036.59
626.80	44945.31
626.95	44690.19
627.10	45195.74
627.25	45029.57
627.40	45184.04
627.55	44992.12
627.70	44718.28
627.85	44847.00
628.00	45390.01
628.15	44985.10
628.30	44336.77
628.45	44751.04
628.60	44170.59
628.76	44549.76
628.91	44985.10
629.06	44327.41
629.21	44556.78
629.36	44383.58
629.51	44402.30
629.66	44603.59
629.81	44509.97
629.96	44636.36
630.11	44559.12
630.26	44479.54
630.41	44481.88
630.56	44287.62
630.71	44289.96
630.86	44416.35
631.01	44451.45
631.16	44648.06
631.31	43791.42
631.46	44229.10
631.61	44645.72
631.76	44839.98
631.91	44531.03
632.06	44280.60
632.21	44428.05
632.36	44161.23
632.51	44048.88
632.66	44378.90
632.81	44568.48
632.96	44182.29
633.10	43688.44
633.25	44289.96
633.40	44224.42
633.55	44222.08
633.70	43978.67
633.85	43861.64
634.00	43690.78
634.15	43650.99
634.30	43721.21
634.45	43625.25
634.60	43744.61
634.75	44086.33
634.90	43875.68
635.05	44006.75
635.19	44039.52
635.34	43775.04
635.49	44140.16
635.64	43732.91
635.79	43861.64
635.94	43721.21
636.09	44107.40
636.24	43718.87
636.39	43739.93
636.53	43746.95
636.68	43746.95
636.83	43328.00
636.98	43559.71
637.13	43339.70
637.28	42731.16
637.43	43414.60
637.57	43145.44
637.72	43337.36
637.87	43435.66
638.02	43407.58
638.17	43133.73
638.32	43119.69
638.46	43257.78
638.61	43093.94
638.76	42574.34
638.91	43107.99
639.06	43166.50
639.20	42529.87
639.35	42756.91
639.50	42454.98
639.65	42838.83
639.80	42969.90
639.94	43168.84
640.09	43400.55
640.24	42724.14
640.39	42841.17
640.54	42359.02
640.68	43068.20
640.83	43016.71
640.98	42740.52
641.13	42529.87
641.27	42862.23
641.42	42698.39
641.57	42309.86
641.72	42539.24
641.86	42696.05
642.01	42504.13
642.16	42148.37
642.31	41958.78
642.45	42667.97
642.60	42302.84
642.75	42321.57
642.90	42752.23
643.04	42541.58
643.19	42478.38
643.34	41708.35
643.48	41841.76
643.63	42307.52
643.78	42447.96
643.93	42534.56
644.07	41883.89
644.22	42485.40
644.37	42349.65
644.51	42635.20
644.66	42136.66
644.81	42096.88
644.95	42476.04
645.10	41860.48
645.25	41624.09
645.39	42115.60
645.54	41888.57
645.69	41570.25
645.83	41659.20
645.98	41759.84
646.13	41659.20
646.27	41918.99
646.42	41654.51
646.57	41532.81
646.71	41785.58
646.86	42223.26
647.00	41989.21
647.15	41457.91
647.30	41544.51
647.44	41696.64
647.59	41600.68
647.74	41673.24
647.88	41516.42
648.03	42220.92
648.17	41867.50
648.32	41497.70
648.47	42131.98
648.61	41443.87
648.76	41537.49
648.90	41890.91
649.05	41488.34
649.20	41586.64
649.34	41769.20
649.49	41584.30
649.63	41221.52
649.78	41486.00
649.92	41619.41
650.07	42136.66
650.21	41411.10
650.36	42007.94
650.51	41804.31
650.65	41640.47
650.80	41736.43
650.94	40968.74
651.09	40940.65
651.23	40851.71
651.38	41141.94
651.52	40744.05
651.67	40992.14
651.81	41006.19
651.96	40982.78
652.10	40407.01
652.25	40657.45
652.39	40971.08
652.54	40898.52
652.68	40905.54
652.83	40954.69
652.97	41001.50
653.12	41200.45
653.26	40404.67
653.41	40699.58
653.55	40638.72
653.70	40556.80
653.84	40870.43
653.99	41113.85
654.13	40453.82
654.27	40914.90
654.42	40875.12
654.56	40657.45
654.71	40746.39
654.85	40627.02
655.00	40444.46
655.14	40620.00
655.29	40788.52
655.43	40554.46
655.57	40105.08
655.72	40191.68
655.86	40381.26
656.01	40252.53
656.15	40364.88
656.30	40121.46
656.44	40275.94
656.58	40051.25
656.73	40194.02
656.87	40245.51
657.01	39906.13
657.16	40114.44
657.30	40137.85
657.45	40215.08
657.59	39679.10
657.73	39564.42
657.88	40062.95
658.02	39763.36
658.16	40444.46
658.31	39964.65
658.45	40376.58
658.60	39864.00
658.74	39990.39
658.88	39725.91
659.03	39253.12
659.17	39620.59
659.31	39864.00
659.46	39683.78
659.60	39814.85
659.74	39470.79
659.89	38883.32
660.03	39152.48
660.17	39295.25
660.32	39117.37
660.46	39035.45
660.60	38906.73
660.74	39304.62
660.89	38745.23
661.03	38501.81
661.17	38340.32
661.32	38700.76
661.46	39150.14
661.60	38665.65
661.74	38808.42
661.89	38923.11
662.03	38794.38
662.17	38873.96
662.31	38499.47
662.46	38667.99
662.60	38408.19
662.74	37780.93
662.88	38242.01
663.03	37881.57
663.17	37804.33
663.31	37591.34
663.45	38136.69
663.60	38183.50
663.74	38155.41
663.88	38206.90
664.02	37937.74
664.17	38265.42
664.31	38026.68
664.45	37509.43
664.59	37734.12
664.73	37886.25
664.88	38218.61
665.02	37366.65
665.16	37464.96
665.30	37654.54
665.44	37773.91
665.59	36907.91
665.73	37205.16
665.87	36917.27
666.01	37434.53
666.15	37050.68
666.29	36851.73
666.44	36975.78
666.58	37347.93
666.72	37127.92
666.86	36737.05
667.00	37170.05
667.14	36971.10
667.28	36676.19
667.43	36711.30
667.57	36797.90
667.71	37179.41
667.85	37060.04
667.99	36596.62
668.13	36238.51
668.27	35985.74
668.41	36545.12
668.56	36126.17
668.70	35828.92
668.84	36091.06
668.98	35875.73
669.12	36074.68
669.26	36009.14
669.40	35924.88
669.54	35878.07
669.68	35728.28
669.82	35412.31
669.96	35655.72
670.10	35220.38
670.25	35353.79
670.39	35416.99
670.53	35370.18
670.67	35461.46
670.81	35449.75
670.95	35302.30
671.09	35468.48
671.23	34932.50
671.37	34967.60
671.51	34766.32
671.65	34810.79
671.79	34550.99
671.93	35068.25
672.07	34721.85
672.21	34932.50
672.35	34206.93
672.49	34801.43
672.63	34471.41
672.77	34155.44
672.91	34330.98
673.05	33972.88
673.19	33790.31
673.33	34209.27
673.47	33998.62
673.61	33490.73
673.75	33399.44
673.89	33593.71
674.03	33448.60
674.17	33467.32
674.31	33251.99
674.45	33324.55
674.59	33319.87
674.73	33275.40
674.87	32898.57
675.01	32858.78
675.15	32650.47
675.29	32844.74
675.43	32474.93
675.56	32788.56
675.70	32388.33
675.84	32182.37
675.98	31718.94
676.12	32774.52
676.26	32666.86
676.40	32098.11
676.54	31819.58
676.68	32067.68
676.82	31641.70
676.96	31821.92
677.10	31955.33
677.23	31571.49
677.37	31283.60
677.51	31735.32
677.65	31260.20
677.79	31105.72
677.93	31295.30
678.07	31213.38
678.21	30815.49
678.34	30480.80
678.48	30628.25
678.62	30684.42
678.76	30356.75
678.90	30590.80
679.04	30864.64
679.18	30551.01
679.31	30078.22
679.45	30394.20
679.59	30071.20
679.73	30000.99
679.87	29467.34
680.00	30110.99
680.14	29860.55
680.28	29369.04
680.42	29652.25
680.56	29635.86
680.70	29249.67
680.83	29202.86
680.97	29324.57
681.11	29223.93
681.25	29074.13
681.39	28425.81
681.52	28561.56
681.66	27943.66
681.80	28046.64
681.94	28217.50
682.07	27892.16
682.21	28072.39
682.35	28074.73
682.49	28423.47
682.62	28051.32
682.76	28189.41
682.90	28056.00
683.04	27997.49
683.17	27875.78
683.31	27335.12
683.45	27316.39
683.59	27559.81
683.72	27012.12
683.86	26937.23
684.00	27037.87
684.13	27070.64
684.27	26616.57
684.41	26628.27
684.55	26813.18
684.68	26590.83
684.82	26258.47
684.96	26298.26
685.09	26408.26
685.23	26181.23
685.37	26490.18
685.50	26686.79
685.64	26178.89
685.78	25979.95
685.91	25624.18
686.05	25553.97
686.19	25298.85
686.32	25338.64
686.46	25127.99
686.60	24812.02
686.73	24835.42
686.87	24807.34
687.01	25331.62
687.14	24929.05
687.28	24737.12
687.42	24807.34
687.55	24528.81
687.69	24723.08
687.82	23955.38
687.96	24655.20
688.10	24243.27
688.23	24116.88
688.37	24350.93
688.50	24142.63
688.64	23768.14
688.78	23978.79
688.91	23716.65
689.05	23875.80
689.18	23311.74
689.32	23655.79
689.46	23080.02
689.59	23337.48
689.73	23477.91
689.86	23611.32
690.00	23494.30
690.13	22986.40
690.27	22808.52
690.41	22815.54
690.54	22340.41
690.68	22448.08
690.81	22160.19
690.95	22518.29
691.08	22071.25
691.22	22326.37
691.35	22071.25
691.49	22661.07
691.62	22207.00
691.76	21703.79
691.89	21495.48
692.03	21259.09
692.16	21404.20
692.30	21511.86
692.43	21231.00
692.57	21366.75
692.70	20856.51
692.84	21109.29
692.97	20849.49
693.11	20828.43
693.24	20638.84
693.38	20603.74
693.51	20627.14
693.65	20355.64
693.78	20442.24
693.92	20072.43
694.05	20224.57
694.19	20318.19
694.32	20231.59
694.45	20325.21
694.59	20556.93
694.72	20042.01
694.86	19688.59
694.99	19513.05
695.13	19426.45
695.26	19452.19
695.39	18963.02
695.53	19117.50
695.66	19206.44
695.80	19370.27
695.93	19260.27
696.07	18834.29
696.20	18719.60
696.33	18352.14
696.47	18520.66
696.60	18567.47
696.73	18696.20
696.87	18471.51
697.00	18707.90
697.14	18338.10
697.27	17970.63
697.40	18066.60
697.54	18324.05
697.67	17860.63
697.80	18125.11
697.94	17661.68
698.07	17678.07
698.21	17703.81
698.34	17696.79
698.47	17109.32
698.61	16905.69
698.74	16901.01
698.87	17385.50
699.01	17092.93
699.14	17472.10
699.27	16812.07
699.40	16769.94
699.54	16828.45
699.67	16786.32
699.80	16952.50
699.94	16606.10
700.07	16657.59
700.20	16542.91
700.34	16285.45
700.47	16666.95
700.60	16355.66
700.73	16107.57
700.87	15953.09
701.00	15910.96
701.13	16112.25
701.26	15754.15
701.40	15709.68
701.53	15690.95
701.66	15616.05
701.79	15482.64
701.93	15267.31
702.06	15257.95
702.19	15201.78
702.32	15316.47
702.46	15374.98
702.59	15398.38
702.72	15101.14
702.85	15075.39
702.99	14843.68
703.12	15082.41
703.25	14934.96
703.38	14679.84
703.51	14743.03
703.65	14551.11
703.78	14221.10
703.91	14183.65
704.04	14157.90
704.17	14153.22
704.31	14310.04
704.44	14260.88
704.57	14185.99
704.70	13996.40
704.83	13926.19
704.96	13584.47
705.10	13951.93
705.23	13518.93
>>>>>End Processed Spectral Data<<<<<
