SpectraSuite Data File
++++++++++++++++++++++++++++++++++++
Date: Fri Oct 25 10:44:04 EDT 2013
User: price-jones
Dark Spectrum Present: No
Reference Spectrum Present: No
Number of Sampled Component Spectra: 1
Spectrometers: USB2+H05261
Integration Time (usec): 100000 (USB2+H05261)
Spectra Averaged: 1 (USB2+H05261)
Boxcar Smoothing: 0 (USB2+H05261)
Correct for Electrical Dark: No (USB2+H05261)
Strobe/Lamp Enabled: No (USB2+H05261)
Correct for Detector Non-linearity: No (USB2+H05261)
Correct for Stray Light: No (USB2+H05261)
Number of Pixels in Processed Spectrum: 2048
>>>>>Begin Processed Spectral Data<<<<<
365.73	126.39
365.92	126.39
366.12	126.39
366.32	63.19
366.52	30.43
366.72	11.70
366.91	0.00
367.11	42.13
367.31	18.72
367.51	53.83
367.70	0.00
367.90	74.90
368.10	0.00
368.30	60.85
368.49	23.41
368.69	86.60
368.89	0.00
369.09	65.54
369.28	46.81
369.48	60.85
369.68	37.45
369.87	184.90
370.07	67.88
370.27	95.96
370.47	215.33
370.66	397.89
370.86	423.64
371.06	397.89
371.25	400.23
371.45	484.49
371.65	482.15
371.84	440.02
372.04	468.11
372.24	573.43
372.44	500.87
372.63	510.24
372.83	519.60
373.03	486.83
373.22	564.07
373.42	507.90
373.62	580.45
373.81	491.51
374.01	585.13
374.21	629.60
374.40	603.86
374.60	596.84
374.79	580.45
374.99	545.34
375.19	592.16
375.38	566.41
375.58	603.86
375.78	653.01
375.97	671.73
376.17	702.16
376.37	692.80
376.56	606.20
376.76	608.54
376.95	596.84
377.15	711.52
377.35	566.41
377.54	655.35
377.74	772.38
377.93	695.14
378.13	681.10
378.33	650.67
378.52	634.29
378.72	641.31
378.91	697.48
379.11	685.78
379.31	660.03
379.50	711.52
379.70	655.35
379.89	692.80
380.09	744.29
380.28	615.56
380.48	767.70
380.68	786.42
380.87	718.54
381.07	669.39
381.26	767.70
381.46	723.23
381.65	664.71
381.85	727.91
382.04	723.23
382.24	730.25
382.43	683.44
382.63	727.91
382.83	629.60
383.02	763.01
383.22	718.54
383.41	720.88
383.61	683.44
383.80	800.46
384.00	748.97
384.19	889.40
384.39	788.76
384.58	706.84
384.78	844.93
384.97	917.49
385.17	784.08
385.36	723.23
385.56	898.77
385.75	828.55
385.95	849.61
386.14	830.89
386.34	847.27
386.53	863.66
386.72	821.53
386.92	910.47
387.11	898.77
387.31	922.17
387.50	954.94
387.70	821.53
387.89	915.15
388.09	877.70
388.28	828.55
388.48	891.74
388.67	1013.45
388.86	983.02
389.06	978.34
389.25	947.92
389.45	1013.45
389.64	983.02
389.84	966.64
390.03	976.00
390.22	968.98
390.42	1081.33
390.61	1160.91
390.81	1083.67
391.00	1144.52
391.19	1067.28
391.39	1125.80
391.58	1093.03
391.78	1156.22
391.97	1081.33
392.16	1013.45
392.36	1177.29
392.55	1132.82
392.75	1001.75
392.94	997.07
393.13	1109.41
393.33	1053.24
393.52	1025.15
393.71	1172.61
393.91	1156.22
394.10	1144.52
394.29	1196.01
394.49	1184.31
394.68	1284.95
394.88	1268.57
395.07	1266.23
395.26	1242.82
395.46	1186.65
395.65	1231.12
395.84	1277.93
396.04	1301.34
396.23	1256.87
396.42	1181.97
396.62	1116.44
396.81	1238.14
397.00	1320.06
397.19	1390.28
397.39	1343.47
397.58	1460.49
397.77	1516.67
397.97	1519.01
398.16	1418.36
398.35	1488.58
398.55	1418.36
398.74	1570.50
398.93	1584.54
399.12	1537.73
399.32	1593.90
399.51	1575.18
399.70	1696.89
399.90	1577.52
400.09	1654.76
400.28	1699.23
400.47	1657.10
400.67	1816.26
400.86	1839.66
401.05	1778.81
401.24	1792.85
401.44	1863.07
401.63	1774.13
401.82	1785.83
402.01	1734.34
402.21	1912.22
402.40	1872.43
402.59	1804.55
402.78	1863.07
402.97	1832.64
403.17	1905.20
403.36	1994.14
403.55	1994.14
403.74	1994.14
403.93	1973.07
404.13	1970.73
404.32	1881.79
404.51	2045.63
404.70	1961.37
404.89	2087.76
405.09	2054.99
405.28	2073.71
405.47	2036.27
405.66	2162.66
405.85	2080.74
406.05	2104.14
406.24	2134.57
406.43	2127.55
406.62	2165.00
406.81	2228.19
407.00	2190.74
407.20	2176.70
407.39	2165.00
407.58	2272.66
407.77	2221.17
407.96	2296.07
408.15	2413.09
408.34	2403.73
408.54	2361.60
408.73	2469.27
408.92	2424.80
409.11	2256.28
409.30	2389.69
409.49	2445.86
409.68	2450.54
409.87	2349.90
410.07	2424.80
410.26	2513.74
410.45	2445.86
410.64	2483.31
410.83	2736.09
411.02	2588.63
411.21	2747.79
411.40	2745.45
411.59	2745.45
411.78	2822.69
411.98	2693.96
412.17	2722.04
412.36	2813.32
412.55	2712.68
412.74	2787.58
412.93	3007.59
413.12	2876.52
413.31	3005.25
413.50	3019.29
413.69	2984.18
413.88	3045.04
414.07	3089.51
414.26	3166.74
414.45	3117.59
414.64	3056.74
414.83	3157.38
415.02	3117.59
415.22	3290.79
415.41	3358.67
415.60	3351.65
415.79	3337.60
415.98	3405.48
416.17	3506.12
416.36	3335.26
416.55	3344.63
416.74	3361.01
416.93	3375.05
417.12	3421.86
417.31	3599.74
417.50	3417.18
417.69	3686.34
417.88	3581.02
418.07	3660.60
418.26	3545.91
418.45	3637.19
418.64	3651.24
418.83	3721.45
419.02	3674.64
419.21	3779.97
419.39	3845.50
419.58	3679.32
419.77	3679.32
419.96	3878.27
420.15	3875.93
420.34	3815.07
420.53	3850.18
420.72	4002.32
420.91	4074.87
421.10	4243.39
421.29	3995.29
421.48	3964.87
421.67	4016.36
421.86	3988.27
422.05	3978.91
422.24	3922.74
422.43	3908.69
422.61	4016.36
422.80	4088.92
422.99	4109.98
423.18	3964.87
423.37	4004.66
423.56	4009.34
423.75	4023.38
423.94	4060.83
424.13	3786.99
424.32	4042.11
424.50	4177.86
424.69	4353.40
424.88	4138.07
425.07	4128.70
425.26	4119.34
425.45	4124.02
425.64	4128.70
425.83	4131.05
426.01	4269.14
426.20	4231.69
426.39	4255.09
426.58	4234.03
426.77	4095.94
426.96	4227.01
427.15	4161.47
427.33	4283.18
427.52	4234.03
427.71	4386.16
427.90	4355.74
428.09	4393.19
428.28	4306.59
428.46	4297.22
428.65	4311.27
428.84	4360.42
429.03	4425.95
429.22	4285.52
429.40	4264.46
429.59	4304.25
429.78	4088.92
429.97	4042.11
430.16	4212.96
430.34	4257.43
430.53	4297.22
430.72	4205.94
430.91	4360.42
431.10	4664.69
431.28	4767.67
431.47	4716.18
431.66	4629.58
431.85	4737.24
432.03	4784.06
432.22	4816.82
432.41	4924.49
432.60	5020.45
432.79	4990.02
432.97	4926.83
433.16	4994.70
433.35	4873.00
433.54	4828.53
433.72	4809.80
433.91	4805.12
434.10	4985.34
434.28	4912.78
434.47	5139.82
434.66	5050.88
434.85	5240.46
435.03	5167.90
435.22	4975.98
435.41	5282.59
435.59	5184.29
435.78	5238.12
435.97	5404.30
436.16	5331.74
436.34	5362.17
436.53	5504.94
436.72	5526.00
436.90	5284.93
437.09	5224.08
437.28	5303.65
437.46	5476.85
437.65	5404.30
437.84	5401.96
438.02	5174.92
438.21	5481.53
438.40	5411.32
438.58	5448.77
438.77	5612.60
438.96	5760.06
439.14	5769.42
439.33	5750.70
439.52	5907.51
439.70	5837.30
439.89	5769.42
440.08	5874.74
440.26	6026.88
440.45	5937.94
440.63	6076.03
440.82	5998.79
441.01	6190.72
441.19	6258.59
441.38	6260.93
441.57	6443.49
441.75	6553.50
441.94	6534.78
442.12	6448.18
442.31	6623.72
442.50	6686.91
442.68	6614.35
442.87	6654.14
443.05	6640.10
443.24	6572.22
443.43	6715.00
443.61	6773.51
443.80	6707.98
443.98	6726.70
444.17	6555.84
444.35	6803.94
444.54	6864.79
444.73	6871.81
444.91	6867.13
445.10	6633.08
445.28	6815.64
445.47	6644.78
445.65	6696.27
445.84	6619.04
446.02	6942.03
446.21	6862.45
446.39	6785.21
446.58	6799.26
446.77	7007.56
446.95	6892.88
447.14	7091.82
447.32	6860.11
447.51	6867.13
447.69	6925.65
447.88	6958.41
448.06	7197.15
448.25	7012.24
448.43	7035.65
448.62	7023.95
448.80	7082.46
448.99	7243.96
449.17	7091.82
449.36	7206.51
449.54	7124.59
449.73	7286.09
449.91	7405.46
450.10	7599.72
450.28	7698.02
450.46	7442.90
450.65	7595.04
450.83	7339.92
451.02	7349.28
451.20	7405.46
451.39	7548.23
451.57	7452.27
451.76	7578.65
451.94	7520.14
452.13	7442.90
452.31	7440.56
452.49	7424.18
452.68	7428.86
452.86	7639.51
453.05	7648.87
453.23	7499.08
453.42	7470.99
453.60	7550.57
453.78	7845.48
453.97	7644.19
454.15	7831.43
454.34	7812.71
454.52	7639.51
454.70	7805.69
454.89	8021.02
455.07	7779.94
455.26	7875.90
455.44	8100.59
455.62	8028.04
455.81	8006.97
455.99	8037.40
456.17	8205.92
456.36	8320.60
456.54	8315.92
456.73	8292.52
456.91	8262.09
457.09	8397.84
457.28	8552.32
457.46	8482.10
457.64	8498.49
457.83	8287.84
458.01	8355.71
458.19	8561.68
458.38	8503.17
458.56	8475.08
458.74	8606.15
458.93	8561.68
459.11	8676.37
459.29	8554.66
459.48	8622.53
459.66	8561.68
459.84	8819.14
460.03	9048.51
460.21	8800.41
460.39	8617.85
460.57	8863.61
460.76	9057.87
460.94	8924.46
461.12	9100.00
461.31	9081.28
461.49	9034.47
461.67	9109.36
461.85	9247.46
462.04	9219.37
462.22	9750.67
462.40	9270.86
462.59	9172.56
462.77	9078.94
462.95	9373.85
463.13	9331.72
463.32	9266.18
463.50	9497.89
463.68	9465.13
463.86	9486.19
464.05	9268.52
464.23	9390.23
464.41	9448.74
464.59	9195.96
464.78	9650.03
464.96	9434.70
465.14	9474.49
465.32	9647.69
465.50	9607.90
465.69	9680.46
465.87	9621.94
466.05	9628.96
466.23	9717.90
466.41	9495.55
466.60	9650.03
466.78	9369.16
466.96	9706.20
467.14	9654.71
467.32	9982.38
467.51	9891.10
467.69	9549.39
467.87	9671.09
468.05	9884.08
468.23	9755.35
468.41	9916.85
468.60	9867.70
468.78	9987.07
468.96	9984.73
469.14	10186.01
469.32	10127.50
469.50	9926.21
469.69	9949.62
469.87	10401.34
470.05	10237.50
470.23	10403.68
470.41	10281.97
470.59	10356.87
470.77	10260.91
470.95	10160.27
471.14	10483.26
471.32	10218.78
471.50	10691.57
471.68	10567.52
471.86	10733.70
472.04	10726.68
472.22	11094.14
472.40	10602.63
472.58	10630.71
472.77	10822.64
472.95	11014.56
473.13	10960.73
473.31	11098.82
473.49	10881.15
473.67	11002.86
473.85	11239.25
474.03	11440.54
474.21	11332.87
474.39	11480.33
474.57	11503.73
474.75	11466.28
474.93	11513.10
475.12	11527.14
475.30	11653.53
475.48	11632.46
475.66	11824.39
475.84	11929.71
476.02	12053.76
476.20	11913.33
476.38	11988.22
476.56	12226.96
476.74	12329.94
476.92	12180.15
477.10	12388.46
477.28	12622.51
477.46	12746.56
477.64	12919.76
477.82	13018.06
478.00	13111.68
478.18	12919.76
478.36	13011.04
478.54	13289.56
478.72	13266.16
478.90	13568.09
479.08	13411.27
479.26	13715.54
479.44	13645.32
479.62	13879.38
479.80	13696.82
479.98	14125.13
480.16	14387.27
480.34	13806.82
480.52	14338.12
480.70	14244.50
480.88	14333.44
481.06	14398.98
481.24	14614.30
481.41	14494.94
481.59	15150.29
481.77	14853.04
481.95	14967.73
482.13	15185.40
482.31	15047.30
482.49	15279.02
482.67	15398.38
482.85	15459.24
483.03	15740.10
483.21	15730.74
483.39	16051.39
483.57	15978.84
483.74	16175.44
483.92	16231.62
484.10	16074.80
484.28	16215.23
484.46	16720.79
484.64	16889.31
484.82	16758.24
485.00	16893.99
485.18	16940.80
485.35	17181.87
485.53	16805.05
485.71	16720.79
485.89	17439.33
486.07	17022.72
486.25	17263.79
486.43	17476.78
486.61	17575.08
486.78	17584.44
486.96	17977.65
487.14	18363.84
487.32	18443.42
487.50	18686.84
487.68	18691.52
487.85	19117.50
488.03	19424.11
488.21	19403.04
488.39	19178.35
488.57	19314.10
488.75	19267.29
488.92	19644.12
489.10	20037.33
489.28	20091.16
489.46	20304.15
489.64	20519.48
489.81	21006.31
489.99	20975.88
490.17	20929.07
490.35	21092.91
490.53	21158.44
490.70	21266.11
490.88	21294.19
491.06	21458.03
491.24	21172.49
491.41	21392.50
491.59	21591.44
491.77	21200.57
491.95	21975.29
492.13	21968.27
492.30	22391.91
492.48	22312.33
492.66	22438.72
492.84	22637.66
493.01	22551.06
493.19	22925.55
493.37	22970.02
493.54	23281.31
493.72	23239.18
493.90	23747.08
494.08	23405.36
494.25	24114.54
494.43	23836.02
494.61	24175.39
494.79	24636.48
494.96	24191.78
495.14	24215.18
495.32	24685.63
495.49	24402.43
495.67	24676.27
495.85	24931.39
496.02	25198.21
496.20	25113.95
496.38	25205.23
496.55	25450.99
496.73	26015.05
496.91	25549.29
497.09	25575.03
497.26	25895.69
497.44	25926.11
497.62	25947.18
497.79	26228.04
497.97	26127.40
498.14	26096.97
498.32	26424.65
498.50	26518.27
498.67	27042.55
498.85	26857.65
499.03	27431.08
499.20	27349.16
499.38	27346.82
499.56	27482.57
499.73	27400.65
499.91	27075.32
500.08	27344.48
500.26	27147.87
500.44	27559.81
500.61	27484.91
500.79	27484.91
500.97	27604.28
501.14	27821.95
501.32	28126.22
501.49	27927.27
501.67	28109.83
501.84	28479.64
502.02	28196.43
502.20	28641.14
502.37	28727.74
502.55	28641.14
502.72	29034.35
502.90	29097.54
503.07	28559.22
503.25	29027.32
503.43	29376.06
503.60	29186.48
503.78	29259.04
503.95	29219.25
504.13	29357.34
504.30	29717.78
504.48	29675.65
504.65	29778.64
504.83	29771.61
505.01	30288.87
505.18	30143.76
505.36	30579.10
505.53	30747.62
505.71	30738.26
505.88	30752.30
506.06	30555.69
506.23	30871.67
506.41	30593.14
506.58	30815.49
506.76	31061.25
506.93	30829.54
507.11	30920.82
507.28	30913.80
507.46	31157.21
507.63	31157.21
507.81	30986.35
507.98	31168.91
508.16	31779.79
508.33	31613.62
508.50	31475.52
508.68	31896.82
508.85	32144.92
509.03	32020.87
509.20	32353.23
509.38	32505.36
509.55	32271.31
509.73	32161.30
509.90	32308.76
510.08	32292.37
510.25	32105.13
510.42	32416.42
510.60	32800.27
510.77	32826.01
510.95	32919.63
511.12	32921.98
511.30	32872.82
511.47	33507.11
511.64	33188.80
511.82	33366.68
511.99	33020.28
512.17	33736.48
512.34	32973.47
512.51	33729.46
512.69	33780.95
512.86	33680.31
513.04	33813.72
513.21	34141.39
513.38	33656.90
513.56	33694.35
513.73	33888.62
513.90	34127.35
514.08	34108.63
514.25	34080.54
514.43	34237.36
514.60	34377.79
514.77	34572.05
514.95	34672.70
515.12	34663.33
515.29	34700.78
515.47	35227.40
515.64	34965.26
515.81	34881.00
515.99	34904.41
516.16	34827.17
516.33	34417.58
516.51	34543.97
516.68	34195.23
516.85	34110.97
517.03	34103.95
517.20	35012.07
517.37	35218.04
517.54	35730.62
517.72	35152.51
517.89	35241.45
518.06	34930.16
518.24	35033.14
518.41	35058.88
518.58	35431.03
518.75	35271.87
518.93	36135.53
519.10	35950.63
519.27	36308.73
519.45	35679.13
519.62	36559.17
519.79	36568.53
519.96	36439.80
520.14	36187.02
520.31	35768.07
520.48	36921.95
520.65	36432.78
520.83	37127.92
521.00	37301.12
521.17	37125.58
521.34	37266.01
521.52	37160.69
521.69	37251.97
521.86	38167.12
522.03	37617.09
522.20	37701.35
522.38	37792.63
522.55	37654.54
522.72	37001.53
522.89	37193.45
523.07	37673.26
523.24	37551.56
523.41	38314.57
523.58	37757.52
523.75	38639.90
523.92	38223.29
524.10	38204.56
524.27	38438.62
524.44	38579.05
524.61	38359.04
524.78	38333.29
524.96	38455.00
525.13	38696.08
525.30	38939.49
525.47	38925.45
525.64	38663.31
525.81	39042.48
525.98	38845.87
526.16	38614.16
526.33	38103.92
526.50	38321.59
526.67	38646.93
526.84	38258.40
527.01	38646.93
527.18	38822.47
527.36	39110.35
527.53	39215.68
527.70	39536.33
527.87	39360.79
528.04	39604.20
528.21	39461.43
528.38	39920.18
528.55	40240.83
528.72	39751.66
528.89	40018.48
529.07	39761.02
529.24	39601.86
529.41	39646.33
529.58	39433.35
529.75	39882.73
529.92	40016.14
530.09	40421.05
530.26	40334.45
530.43	40500.63
530.60	40486.59
530.77	40236.15
530.94	40538.08
531.11	40357.86
531.28	40205.72
531.46	40573.19
531.63	40622.34
531.80	40343.81
531.97	40779.15
532.14	40996.82
532.31	40175.30
532.48	40767.45
532.65	41069.38
532.82	41064.70
532.99	40964.06
533.16	40645.74
533.33	41095.13
533.50	41095.13
533.67	41368.97
533.84	41097.47
534.01	40985.12
534.18	41361.95
534.35	41816.01
534.52	41275.35
534.69	41567.91
534.86	41638.13
535.03	41427.48
535.20	41684.94
535.37	41879.21
535.54	42052.41
535.71	42120.28
535.88	42057.09
536.05	41858.14
536.22	41701.32
536.38	42007.94
536.55	41673.24
536.72	41736.43
536.89	41415.78
537.06	41717.71
537.23	42466.68
537.40	41977.51
537.57	42106.24
537.74	42384.76
537.91	42286.46
538.08	42277.10
538.25	42246.67
538.42	42106.24
538.59	42447.96
538.75	42295.82
538.92	42094.53
539.09	42323.91
539.26	42314.55
539.43	42181.13
539.60	42227.95
539.77	42382.42
539.94	42363.70
540.11	42412.85
540.28	42656.26
540.44	42192.84
540.61	42410.51
540.78	42375.40
540.95	42309.86
541.12	42770.95
541.29	42988.62
541.46	42918.40
541.62	42845.85
541.79	43625.25
541.96	42513.49
542.13	42895.00
542.30	43122.03
542.47	43194.59
542.63	43131.39
542.80	43253.10
542.97	43468.43
543.14	43597.16
543.31	43887.39
543.48	43658.01
543.64	44287.62
543.81	43847.60
543.98	44107.40
544.15	43749.29
544.32	44083.99
544.48	44259.53
544.65	43873.34
544.82	44133.14
544.99	43964.62
545.16	44002.07
545.32	43772.70
545.49	44671.46
545.66	44306.34
545.83	44547.42
546.00	44325.07
546.16	44172.93
546.33	43812.49
546.50	43824.19
546.67	44341.45
546.83	44053.56
547.00	44549.76
547.17	44414.01
547.34	44013.77
547.50	44329.75
547.67	44734.66
547.84	44250.17
548.00	44676.15
548.17	44975.73
548.34	44561.46
548.51	45097.44
548.67	44861.05
548.84	44828.28
549.01	44519.33
549.18	44832.96
549.34	45052.97
549.51	44865.73
549.68	45067.02
549.84	44900.84
550.01	45263.62
550.18	45020.20
550.34	45207.45
550.51	44648.06
550.68	44788.49
550.84	44650.40
551.01	45401.71
551.18	45001.48
551.34	45375.97
551.51	45467.25
551.68	45567.89
551.84	45088.08
552.01	45282.34
552.18	45249.58
552.34	44847.00
552.51	45282.34
552.68	44964.03
552.84	45579.59
553.01	45364.26
553.18	45462.57
553.34	45265.96
553.51	45170.00
553.67	45443.84
553.84	45549.17
554.01	45766.84
554.17	45631.08
554.34	45895.56
554.51	45691.94
554.67	46045.36
554.84	45691.94
555.00	45729.39
555.17	45551.51
555.33	45507.04
555.50	45977.48
555.67	46232.60
555.83	45865.14
556.00	45673.21
556.16	46181.11
556.33	45340.86
556.50	45734.07
556.66	45918.97
556.83	46073.45
556.99	46143.66
557.16	46192.81
557.32	45965.78
557.49	46068.76
557.65	45909.61
557.82	46258.35
557.98	46457.29
558.15	46490.06
558.32	46349.63
558.48	45769.18
558.65	45846.41
558.81	45741.09
558.98	46085.15
559.14	46082.81
559.31	46007.91
559.47	46410.48
559.64	46639.86
559.80	46326.22
559.97	46616.45
560.13	46024.29
560.30	46436.23
560.46	46176.43
560.63	46408.14
560.79	46569.64
560.96	46672.62
561.12	46202.18
561.29	46113.23
561.45	46548.57
561.61	46602.41
561.78	46532.19
561.94	46174.09
562.11	46560.28
562.27	46216.22
562.44	46639.86
562.60	46782.63
562.77	46813.05
562.93	46356.65
563.10	46663.26
563.26	46284.09
563.42	47133.71
563.59	46068.76
563.75	46302.82
563.92	46770.93
564.08	46787.31
564.24	46794.33
564.41	46719.43
564.57	46703.05
564.74	46117.92
564.90	46342.61
565.07	46663.26
565.23	46925.40
565.39	46319.20
565.56	46382.40
565.72	46548.57
565.88	46401.12
566.05	46440.91
566.21	47129.03
566.38	46721.77
566.54	47035.41
566.70	46857.52
566.87	46824.76
567.03	46501.76
567.19	47213.29
567.36	46986.25
567.52	47110.30
567.68	46794.33
567.85	46628.15
568.01	47093.92
568.17	46923.06
568.34	46951.15
568.50	46925.40
568.66	46450.27
568.83	46691.35
568.99	46234.94
569.15	46651.56
569.32	46424.53
569.48	46927.74
569.64	47194.56
569.81	46731.14
569.97	46705.39
570.13	47037.75
570.30	46850.50
570.46	46602.41
570.62	46557.94
570.78	46813.05
570.95	46492.40
571.11	46852.84
571.27	46389.42
571.43	47105.62
571.60	47105.62
571.76	46920.72
571.92	47002.64
572.09	47084.56
572.25	46714.75
572.41	46817.74
572.57	47070.51
572.74	47454.36
572.90	47297.55
573.06	47079.88
573.22	46658.58
573.38	46806.03
573.55	46806.03
573.71	47093.92
573.87	46735.82
574.03	46761.56
574.20	47157.11
574.36	47126.69
574.52	47103.28
574.68	47058.81
574.84	46965.19
575.01	46993.28
575.17	46962.85
575.33	46939.44
575.49	46850.50
575.65	47117.32
575.82	47075.19
575.98	46887.95
576.14	47122.01
576.30	47484.79
576.46	46759.22
576.62	47288.18
576.79	46656.24
576.95	46721.77
577.11	46550.91
577.27	47154.77
577.43	46738.16
577.59	46639.86
577.75	46780.29
577.92	46791.99
578.08	46576.66
578.24	46518.15
578.40	47098.60
578.56	46892.63
578.72	46766.24
578.88	47047.11
579.04	47428.62
579.21	46960.51
579.37	46986.25
579.53	46822.42
579.69	46817.74
579.85	47161.79
580.01	47138.39
580.17	47033.07
580.33	46843.48
580.49	46878.59
580.65	47381.80
580.82	46815.40
580.98	46824.76
581.14	46803.69
581.30	47033.07
581.46	47189.88
581.62	47164.14
581.78	47054.13
581.94	47716.50
582.10	47180.52
582.26	47248.39
582.42	47241.37
582.58	47325.63
582.74	46742.84
582.90	47164.14
583.06	47096.26
583.22	47208.61
583.38	47753.95
583.54	47180.52
583.70	47686.07
583.86	47283.50
584.02	47131.37
584.18	46930.08
584.34	46803.69
584.50	46944.12
584.66	47201.58
584.82	47150.09
584.98	47103.28
585.14	47192.22
585.30	46887.95
585.46	46770.93
585.62	47112.64
585.78	47351.38
585.94	46569.64
586.10	47157.11
586.26	46665.60
586.42	47398.19
586.58	47154.77
586.74	47122.01
586.90	46871.57
587.06	46822.42
587.22	46857.52
587.38	46777.95
587.54	47285.84
587.70	47519.90
587.86	47363.08
588.02	47325.63
588.18	47253.08
588.34	46607.09
588.49	47255.42
588.65	46253.67
588.81	46726.46
588.97	46499.42
589.13	46375.37
589.29	47009.66
589.45	46777.95
589.61	47079.88
589.77	47107.96
589.93	47318.61
590.08	47241.37
590.24	46850.50
590.40	47693.10
590.56	47367.76
590.72	47435.64
590.88	46913.70
591.04	47065.83
591.20	47484.79
591.35	46892.63
591.51	47627.56
591.67	47084.56
591.83	47468.40
591.99	47114.98
592.15	47423.93
592.31	47117.32
592.46	47136.05
592.62	46866.89
592.78	47416.91
592.94	47510.53
593.10	47337.33
593.26	47098.60
593.41	47100.94
593.57	47365.42
593.73	47098.60
593.89	47009.66
594.05	47030.72
594.20	47426.28
594.36	47107.96
594.52	47367.76
594.68	47007.32
594.84	47086.90
594.99	47480.11
595.15	46997.96
595.31	47171.16
595.47	47260.10
595.62	47313.93
595.78	47498.83
595.94	47440.32
596.10	47557.35
596.25	47646.29
596.41	47290.52
596.57	47648.63
596.73	47608.84
596.88	47129.03
597.04	47061.15
597.20	47316.27
597.36	47260.10
597.51	47487.13
597.67	47756.29
597.83	47224.99
597.99	47449.68
598.14	47248.39
598.30	46986.25
598.46	47484.79
598.61	47009.66
598.77	46787.31
598.93	46843.48
599.09	47426.28
599.24	47852.25
599.40	47150.09
599.56	47477.77
599.71	47004.98
599.87	47487.13
600.03	47002.64
600.18	47334.99
600.34	46988.60
600.50	47463.72
600.65	47484.79
600.81	47484.79
600.97	47187.54
601.12	47655.65
601.28	47590.11
601.44	46799.01
601.59	46588.36
601.75	47119.66
601.91	47147.75
602.06	46932.42
602.22	47456.70
602.37	47533.94
602.53	47210.95
602.69	47426.28
602.84	47133.71
603.00	46749.86
603.16	47047.11
603.31	46960.51
603.47	47222.65
603.62	47229.67
603.78	47243.71
603.94	47126.69
604.09	47065.83
604.25	47578.41
604.40	46871.57
604.56	47590.11
604.71	47334.99
604.87	47040.09
605.03	47210.95
605.18	46710.07
605.34	47143.07
605.49	47007.32
605.65	46927.74
605.80	47049.45
605.96	47159.45
606.12	46981.57
606.27	47042.43
606.43	46693.69
606.58	46913.70
606.74	46724.11
606.89	47138.39
607.05	46897.31
607.20	47117.32
607.36	46972.21
607.51	47339.68
607.67	46883.27
607.82	46777.95
607.98	46817.74
608.13	46450.27
608.29	46679.64
608.44	46443.25
608.60	46422.19
608.75	46323.88
608.91	46600.07
609.06	47143.07
609.22	46831.78
609.37	46356.65
609.53	46909.02
609.68	47016.68
609.84	46326.22
609.99	46581.34
610.15	46553.26
610.30	46445.59
610.46	46323.88
610.61	46354.31
610.76	46476.02
610.92	46689.01
611.07	46834.12
611.23	46571.98
611.38	46625.81
611.54	46763.90
611.69	46408.14
611.84	46113.23
612.00	45975.14
612.15	46213.88
612.31	46724.11
612.46	46373.03
612.62	46398.78
612.77	46532.19
612.92	46213.88
613.08	46504.10
613.23	46286.43
613.39	45743.43
613.54	45436.82
613.69	46279.41
613.85	45675.55
614.00	45963.44
614.15	46333.24
614.31	46248.99
614.46	46536.87
614.62	45787.90
614.77	45989.19
614.92	46005.57
615.08	46220.90
615.23	46075.79
615.38	45675.55
615.54	45570.23
615.69	46408.14
615.84	45490.65
616.00	46007.91
616.15	45387.67
616.30	45364.26
616.46	45727.05
616.61	45682.58
616.76	45734.07
616.92	45212.13
617.07	45427.46
617.22	45322.13
617.37	45490.65
617.53	45668.53
617.68	45333.84
617.83	45509.38
617.99	45228.51
618.14	45366.60
618.29	45610.02
618.45	45200.43
618.60	45162.98
618.75	44854.03
618.90	45448.52
619.06	45069.36
619.21	45331.50
619.36	45724.71
619.51	45085.74
619.67	45123.19
619.82	45340.86
619.97	45537.46
620.12	45064.67
620.28	45109.14
620.43	44816.58
620.58	45336.18
620.73	44966.37
620.89	45038.93
621.04	45467.25
621.19	45001.48
621.34	44905.52
621.49	44919.56
621.65	44708.91
621.80	44931.26
621.95	44807.22
622.10	44935.95
622.25	44776.79
622.41	44339.11
622.56	44797.85
622.71	44893.82
622.86	44673.81
623.01	44914.88
623.16	44526.35
623.32	44350.81
623.47	44947.65
623.62	44608.27
623.77	44491.24
623.92	44589.55
624.07	44542.74
624.23	44367.20
624.38	43943.56
624.53	44701.89
624.68	44093.35
624.83	44364.85
624.98	44320.38
625.13	43908.45
625.29	43988.03
625.44	43744.61
625.59	43821.85
625.74	43739.93
625.89	43768.02
626.04	43878.02
626.19	44119.10
626.34	44098.03
626.49	44252.51
626.65	43889.73
626.80	43634.61
626.95	43672.06
627.10	43597.16
627.25	43758.66
627.40	43585.46
627.55	43264.80
627.70	43246.08
627.85	43578.43
628.00	43138.41
628.15	43655.67
628.30	43597.16
628.45	43573.75
628.60	43447.36
628.76	43606.52
628.91	43557.37
629.06	43147.78
629.21	43021.39
629.36	43629.93
629.51	43110.33
629.66	42988.62
629.81	42754.57
629.96	43311.61
630.11	42972.24
630.26	43498.86
630.41	43597.16
630.56	43482.47
630.71	43241.40
630.86	42979.26
631.01	42852.87
631.16	43082.24
631.31	42880.95
631.46	42628.18
631.61	42616.47
631.76	42906.70
631.91	42962.87
632.06	43007.34
632.21	42892.66
632.36	42806.06
632.51	42398.80
632.66	42616.47
632.81	42623.50
632.96	42843.51
633.10	42555.62
633.25	43107.99
633.40	42604.77
633.55	42986.28
633.70	42962.87
633.85	42368.38
634.00	42710.10
634.15	42939.47
634.30	42036.02
634.45	41972.83
634.60	42260.71
634.75	42480.72
634.90	42660.94
635.05	42014.96
635.19	42637.54
635.34	42721.80
635.49	42499.45
635.64	42291.14
635.79	42134.32
635.94	42094.53
636.09	41986.87
636.24	42019.64
636.39	41724.73
636.53	41949.42
636.68	41830.05
636.83	41516.42
636.98	41755.16
637.13	41640.47
637.28	41886.23
637.43	42040.70
637.57	41567.91
637.72	41628.77
637.87	41514.08
638.02	41998.57
638.17	41570.25
638.32	42092.19
638.46	41780.90
638.61	41588.98
638.76	41963.46
638.91	41944.74
639.06	41694.30
639.20	41710.69
639.35	41535.15
639.50	42005.59
639.65	41811.33
639.80	41851.12
639.94	41155.98
640.09	41476.63
640.24	41415.78
640.39	40690.21
640.54	41186.41
640.68	41258.96
640.83	40879.80
640.98	41177.04
641.13	41184.07
641.27	41544.51
641.42	41045.97
641.57	41155.98
641.72	41029.59
641.86	40767.45
642.01	40872.78
642.16	40638.72
642.31	40526.38
642.45	40912.56
642.60	40428.07
642.75	40779.15
642.90	40933.63
643.04	40669.15
643.19	40678.51
643.34	41130.23
643.48	40802.56
643.63	40385.94
643.78	40624.68
643.93	40781.49
644.07	40451.48
644.22	40603.61
644.37	40100.40
644.51	40355.52
644.66	40837.67
644.81	40722.98
644.95	40507.65
645.10	39927.20
645.25	40861.07
645.39	40259.55
645.54	40540.42
645.69	40680.85
645.83	40243.17
645.98	40498.29
646.13	40399.99
646.27	40538.08
646.42	39978.69
646.57	40259.55
646.71	39531.65
646.86	40266.58
647.00	40383.60
647.15	40568.51
647.30	39746.98
647.44	40116.78
647.59	39941.24
647.74	39849.96
647.88	39929.54
648.03	40203.38
648.17	39845.28
648.32	39878.05
648.47	39676.76
648.61	39414.62
648.76	39732.93
648.90	39814.85
649.05	39983.37
649.20	39391.22
649.34	39433.35
649.49	39136.10
649.63	39351.43
649.78	39416.96
649.92	39931.88
650.07	40081.67
650.21	39089.29
650.36	39526.97
650.51	39826.56
650.65	40266.58
650.80	39840.60
650.94	39763.36
651.09	39445.05
651.23	39255.46
651.38	39159.50
651.52	39100.99
651.67	39402.92
651.81	39122.05
651.96	39157.16
652.10	39133.76
652.25	39023.75
652.39	39201.63
652.54	39356.11
652.68	38976.94
652.83	39388.88
652.97	39473.13
653.12	38951.20
653.26	38466.70
653.41	38817.78
653.55	38878.64
653.70	38557.99
653.84	39218.02
653.99	38773.31
654.13	38981.62
654.27	38836.51
654.42	38054.77
654.56	38714.80
654.71	38820.13
654.85	38799.06
655.00	38735.87
655.14	38354.36
655.29	38279.46
655.43	38522.88
655.57	38007.96
655.72	38319.25
655.86	37387.72
656.01	37668.58
656.15	37380.70
656.30	37886.25
656.44	37586.66
656.58	37855.82
656.73	38405.85
656.87	38103.92
657.01	37738.80
657.16	38167.12
657.30	37649.86
657.45	37591.34
657.59	38139.03
657.73	37914.34
657.88	38087.54
658.02	38265.42
658.16	38237.33
658.31	38274.78
658.45	37867.53
658.60	37926.04
658.74	38007.96
658.88	37593.68
659.03	37479.00
659.17	37277.71
659.31	37598.37
659.46	37495.38
659.60	37930.72
659.74	37668.58
659.89	37734.12
660.03	37584.32
660.17	37713.05
660.32	37216.86
660.46	37371.33
660.60	37214.52
660.74	37118.56
660.89	37303.46
661.03	36715.98
661.17	36978.12
661.32	36346.18
661.46	36917.27
661.60	36924.29
661.74	37043.66
661.89	36854.08
662.03	36610.66
662.17	36610.66
662.31	36886.84
662.46	36755.77
662.60	36903.23
662.74	36580.23
662.88	36453.84
663.03	36542.78
663.17	36254.90
663.31	36479.59
663.45	36605.98
663.60	36605.98
663.74	35983.40
663.88	36060.63
664.02	36158.94
664.17	36013.82
664.31	36240.86
664.45	36112.13
664.59	36196.38
664.73	36290.01
664.88	35941.27
665.02	35505.93
665.16	35452.09
665.30	35255.49
665.44	35070.59
665.59	35274.21
665.73	35515.29
665.87	35220.38
666.01	35529.33
666.15	35442.73
666.29	35541.03
666.44	35688.49
666.58	35421.67
666.72	35260.17
666.86	35136.12
667.00	34703.12
667.14	34705.46
667.28	34522.90
667.43	34576.73
667.57	35260.17
667.71	34637.59
667.85	34588.44
667.99	35042.50
668.13	34689.08
668.27	34871.64
668.41	35138.46
668.56	34480.77
668.70	34759.30
668.84	34646.95
668.98	34153.10
669.12	33902.66
669.26	34129.69
669.40	33947.13
669.54	34061.82
669.68	33986.92
669.82	33764.57
669.96	33577.33
670.10	33511.79
670.25	34377.79
670.39	33713.08
670.53	33635.84
670.67	33450.94
670.81	33680.31
670.95	33394.76
671.09	33518.81
671.23	33462.64
671.37	33214.54
671.51	33015.60
671.65	33013.26
671.79	32521.74
671.93	33200.50
672.07	33259.01
672.21	33013.26
672.35	33020.28
672.49	32996.87
672.63	32783.88
672.77	32818.99
672.91	32559.19
673.05	32460.89
673.19	32648.13
673.33	31995.12
673.47	32173.00
673.61	32224.50
673.75	31777.45
673.89	31927.25
674.03	31850.01
674.17	31494.25
674.31	32037.25
674.45	31777.45
674.59	31878.10
674.73	32030.23
674.87	31784.48
675.01	31426.37
675.15	31613.62
675.29	31297.64
675.43	31269.56
675.56	31681.49
675.70	30817.83
675.84	31344.45
675.98	30424.62
676.12	30974.65
676.26	31440.42
676.40	30941.88
676.54	30925.50
676.68	30892.73
676.82	30225.68
676.96	31012.10
677.10	30391.86
677.23	29977.58
677.37	30120.35
677.51	30033.75
677.65	29958.86
677.79	29666.29
677.93	29951.84
678.07	29439.26
678.21	29500.11
678.34	29144.35
678.48	29057.75
678.62	29017.96
678.76	28966.47
678.90	28947.75
679.04	29125.63
679.18	29003.92
679.31	28701.99
679.45	28147.28
679.59	28439.85
679.73	28577.94
679.87	28383.68
680.00	28065.36
680.14	28210.48
680.28	28423.47
680.42	28112.17
680.56	28339.21
680.70	28402.40
680.83	28472.62
680.97	28191.75
681.11	27826.63
681.25	27562.15
681.39	27625.34
681.52	27747.05
681.66	27498.95
681.80	27379.59
681.94	27262.56
682.07	27388.95
682.21	27068.30
682.35	27250.86
682.49	27206.39
682.62	27051.91
682.76	26630.62
682.90	26607.21
683.04	26263.15
683.17	26342.73
683.31	26216.34
683.45	26422.31
683.59	26253.79
683.72	26221.02
683.86	25905.05
684.00	26319.32
684.13	25891.01
684.27	26129.74
684.41	25310.55
684.55	25701.42
684.68	25383.11
684.82	25177.14
684.96	25163.10
685.09	25560.99
685.23	25099.90
685.37	25083.52
685.50	25376.09
685.64	24980.54
685.78	24943.09
685.91	24788.61
686.05	24467.96
686.19	24322.85
686.32	24416.47
686.46	23838.36
686.60	23775.16
686.73	23962.40
686.87	23283.65
687.01	23358.55
687.14	23356.21
687.28	23440.47
687.42	23342.16
687.55	23543.45
687.69	23590.26
687.82	23213.43
687.96	23580.90
688.10	23063.64
688.23	23023.85
688.37	22810.86
688.50	22644.68
688.64	22822.56
688.78	22696.17
688.91	22782.77
689.05	22717.24
689.18	22373.18
689.32	22314.67
689.46	22384.88
689.59	22274.88
689.73	22473.82
689.86	22169.55
690.00	22302.96
690.13	22148.49
690.27	21656.98
690.41	21692.08
690.54	21486.12
690.68	21664.00
690.81	21720.17
690.95	21797.41
691.08	21401.86
691.22	21448.67
691.35	21598.46
691.49	21542.29
691.62	21455.69
691.76	21076.52
691.89	21298.88
692.03	20954.82
692.16	21088.23
692.30	20690.34
692.43	20585.01
692.57	20390.75
692.70	20439.90
692.84	20339.26
692.97	20079.46
693.11	20182.44
693.24	20123.93
693.38	20121.59
693.51	19983.49
693.65	19995.20
693.78	19625.39
693.92	19957.75
694.05	19618.37
694.19	19379.64
694.32	19583.26
694.45	19440.49
694.59	19180.69
694.72	19316.44
694.86	19199.41
694.99	18958.34
695.13	19353.89
695.26	18932.59
695.39	18927.91
695.53	19068.34
695.66	19021.53
695.80	18890.46
695.93	18799.18
696.07	18621.30
696.20	18466.83
696.33	18845.99
696.47	18527.68
696.60	18396.61
696.73	17923.82
696.87	17912.12
697.00	18284.26
697.14	17811.48
697.27	17661.68
697.40	17919.14
697.54	17802.11
697.67	17621.89
697.80	17422.95
697.94	17380.82
698.07	17364.43
698.21	17334.01
698.34	17326.99
698.47	16968.88
698.61	17259.11
698.74	16809.73
698.87	17053.14
699.01	16610.78
699.14	16592.06
699.27	16493.76
699.40	16723.13
699.54	16503.12
699.67	16353.32
699.80	16585.04
699.94	16278.43
700.07	16142.67
700.20	16210.55
700.34	16451.63
700.47	16093.52
700.60	16231.62
700.73	16133.31
700.87	16166.08
701.00	15847.77
701.13	15754.15
701.26	15585.63
701.40	15492.01
701.53	15419.45
701.66	15288.38
701.79	15379.66
701.93	15253.27
702.06	15063.69
702.19	14972.41
702.32	15328.17
702.46	15201.78
702.59	14796.87
702.72	15173.69
702.85	15073.05
702.99	15002.83
703.12	14871.76
703.25	14665.80
703.38	14457.49
703.51	14668.14
703.65	14679.84
703.78	14525.36
703.91	14480.89
704.04	14303.01
704.17	14342.80
704.31	14207.05
704.44	14043.21
704.57	14040.87
704.70	14092.37
704.83	13968.32
704.96	13647.66
705.10	13862.99
705.23	13865.33
>>>>>End Processed Spectral Data<<<<<
