SpectraSuite Data File
++++++++++++++++++++++++++++++++++++
Date: Fri Oct 25 10:48:35 EDT 2013
User: price-jones
Dark Spectrum Present: No
Reference Spectrum Present: No
Number of Sampled Component Spectra: 1
Spectrometers: USB2+H05261
Integration Time (usec): 100000 (USB2+H05261)
Spectra Averaged: 1 (USB2+H05261)
Boxcar Smoothing: 0 (USB2+H05261)
Correct for Electrical Dark: No (USB2+H05261)
Strobe/Lamp Enabled: No (USB2+H05261)
Correct for Detector Non-linearity: No (USB2+H05261)
Correct for Stray Light: No (USB2+H05261)
Number of Pixels in Processed Spectrum: 2048
>>>>>Begin Processed Spectral Data<<<<<
365.73	140.43
365.92	140.43
366.12	140.43
366.32	46.81
366.52	42.13
366.72	91.28
366.91	32.77
367.11	58.51
367.31	14.04
367.51	23.41
367.70	77.24
367.90	84.26
368.10	58.51
368.30	58.51
368.49	46.81
368.69	18.72
368.89	70.22
369.09	39.79
369.28	133.41
369.48	67.88
369.68	63.19
369.87	138.09
370.07	65.54
370.27	128.73
370.47	229.37
370.66	409.59
370.86	477.47
371.06	512.58
371.25	543.00
371.45	444.70
371.65	491.51
371.84	547.69
372.04	535.98
372.24	414.27
372.44	477.47
372.63	479.81
372.83	571.09
373.03	547.69
373.22	505.56
373.42	559.39
373.62	575.77
373.81	657.69
374.01	608.54
374.21	636.63
374.40	592.16
374.60	681.10
374.79	587.47
374.99	587.47
375.19	653.01
375.38	615.56
375.58	603.86
375.78	664.71
375.97	678.76
376.17	578.11
376.37	627.26
376.56	608.54
376.76	720.88
376.95	683.44
377.15	624.92
377.35	711.52
377.54	692.80
377.74	660.03
377.93	655.35
378.13	662.37
378.33	648.33
378.52	629.60
378.72	692.80
378.91	727.91
379.11	678.76
379.31	681.10
379.50	660.03
379.70	795.78
379.89	716.20
380.09	758.33
380.28	699.82
380.48	809.83
380.68	678.76
380.87	685.78
381.07	723.23
381.26	795.78
381.46	723.23
381.65	741.95
381.85	718.54
382.04	692.80
382.24	678.76
382.43	765.36
382.63	760.67
382.83	784.08
383.02	786.42
383.22	788.76
383.41	791.10
383.61	779.40
383.80	798.12
384.00	727.91
384.19	875.36
384.39	784.08
384.58	809.83
384.78	795.78
384.97	866.00
385.17	823.87
385.36	814.51
385.56	896.43
385.75	812.17
385.95	861.32
386.14	891.74
386.34	863.66
386.53	950.26
386.72	868.34
386.92	870.68
387.11	903.45
387.31	908.13
387.50	828.55
387.70	957.28
387.89	1015.79
388.09	905.79
388.28	971.32
388.48	884.72
388.67	980.68
388.86	1057.92
389.06	1036.86
389.25	1111.75
389.45	1053.24
389.64	966.64
389.84	1004.09
390.03	1057.92
390.22	1043.88
390.42	999.41
390.61	1050.90
390.81	1081.33
391.00	1156.22
391.19	1196.01
391.39	1034.52
391.58	1078.99
391.78	1128.14
391.97	992.39
392.16	1142.18
392.36	1078.99
392.55	1100.05
392.75	1174.95
392.94	1018.13
393.13	1046.22
393.33	1083.67
393.52	1156.22
393.71	1109.41
393.91	1165.59
394.10	1224.10
394.29	1277.93
394.49	1188.99
394.68	1284.95
394.88	1329.42
395.07	1350.49
395.26	1235.80
395.46	1270.91
395.65	1287.29
395.84	1401.98
396.04	1301.34
396.23	1275.59
396.42	1203.04
396.62	1245.16
396.81	1287.29
397.00	1301.34
397.19	1275.59
397.39	1387.94
397.58	1504.96
397.77	1479.22
397.97	1371.55
398.16	1516.67
398.35	1549.43
398.55	1455.81
398.74	1519.01
398.93	1654.76
399.12	1577.52
399.32	1526.03
399.51	1565.82
399.70	1631.35
399.90	1577.52
400.09	1701.57
400.28	1621.99
400.47	1713.27
400.67	1767.10
400.86	1720.29
401.05	1774.13
401.24	1729.66
401.44	1790.51
401.63	1802.21
401.82	1753.06
402.01	1816.26
402.21	1867.75
402.40	1872.43
402.59	1849.02
402.78	1804.55
402.97	1907.54
403.17	1797.53
403.36	1947.33
403.55	1912.22
403.74	1930.94
403.93	2036.27
404.13	2026.90
404.32	1963.71
404.51	1942.64
404.70	2092.44
404.89	1982.43
405.09	2064.35
405.28	2052.65
405.47	2029.24
405.66	2085.42
405.85	2157.97
406.05	2029.24
406.24	2047.97
406.43	2157.97
406.62	2113.50
406.81	2186.06
407.00	2165.00
407.20	2092.44
407.39	2108.82
407.58	2228.19
407.77	2300.75
407.96	2328.83
408.15	2331.17
408.34	2289.04
408.54	2420.11
408.73	2380.32
408.92	2429.48
409.11	2363.94
409.30	2389.69
409.49	2380.32
409.68	2361.60
409.87	2363.94
410.07	2424.80
410.26	2413.09
410.45	2572.25
410.64	2619.06
410.83	2576.93
411.02	2740.77
411.21	2696.30
411.40	2574.59
411.59	2792.26
411.78	2693.96
411.98	2733.75
412.17	2703.32
412.36	2895.24
412.55	2829.71
412.74	2995.89
412.93	2841.41
413.12	2773.53
413.31	2855.45
413.50	2935.03
413.69	3002.91
413.88	3047.38
414.07	3019.29
414.26	3030.99
414.45	3054.40
414.64	3038.02
414.83	3178.45
415.02	3108.23
415.22	3040.36
415.41	3239.30
415.60	3344.63
415.79	3288.45
415.98	3405.48
416.17	3379.73
416.36	3417.18
416.55	3438.25
416.74	3440.59
416.93	3370.37
417.12	3499.10
417.31	3414.84
417.50	3428.88
417.69	3644.21
417.88	3581.02
418.07	3583.36
418.26	3698.05
418.45	3634.85
418.64	3723.79
418.83	3674.64
419.02	3676.98
419.21	3751.88
419.39	3676.98
419.58	3707.41
419.77	3667.62
419.96	3667.62
420.15	3892.31
420.34	3831.46
420.53	3847.84
420.72	4011.68
420.91	3896.99
421.10	3854.86
421.29	4086.58
421.48	3946.14
421.67	3988.27
421.86	3896.99
422.05	4079.55
422.24	3978.91
422.43	3992.95
422.61	4042.11
422.80	4051.47
422.99	4039.76
423.18	4088.92
423.37	4133.39
423.56	4231.69
423.75	4156.79
423.94	3992.95
424.13	3847.84
424.32	3955.51
424.50	4212.96
424.69	4145.09
424.88	4236.37
425.07	4074.87
425.26	4189.56
425.45	4117.00
425.64	4049.13
425.83	4140.41
426.01	4222.33
426.20	4227.01
426.39	4142.75
426.58	4170.83
426.77	4152.11
426.96	4215.30
427.15	4184.88
427.33	4264.46
427.52	4198.92
427.71	4360.42
427.90	4238.71
428.09	4205.94
428.28	4241.05
428.46	4273.82
428.65	4388.50
428.84	4367.44
429.03	4498.51
429.22	4353.40
429.40	4376.80
429.59	4313.61
429.78	4011.68
429.97	4114.66
430.16	4189.56
430.34	4147.43
430.53	4322.97
430.72	4351.06
430.91	4402.55
431.10	4561.70
431.28	4652.98
431.47	4816.82
431.66	4744.27
431.85	4657.67
432.03	4826.18
432.22	4898.74
432.41	4795.76
432.60	4774.69
432.79	4889.38
432.97	4968.96
433.16	4854.27
433.35	4910.44
433.54	4894.06
433.72	4816.82
433.91	4882.36
434.10	4917.47
434.28	4968.96
434.47	4938.53
434.66	5085.98
434.85	5128.11
435.03	5198.33
435.22	5313.02
435.41	5195.99
435.59	5275.57
435.78	5373.87
435.97	5446.43
436.16	5373.87
436.34	5289.61
436.53	5345.78
436.72	5514.30
436.90	5205.35
437.09	5334.08
437.28	5313.02
437.46	5408.98
437.65	5387.91
437.84	5596.22
438.02	5296.63
438.21	5397.28
438.40	5298.97
438.58	5603.24
438.77	5717.93
438.96	5593.88
439.14	5888.79
439.33	5830.27
439.52	5867.72
439.70	5863.04
439.89	5783.46
440.08	5944.96
440.26	6012.84
440.45	6029.22
440.63	6108.80
440.82	6246.89
441.01	6157.95
441.19	6160.29
441.38	6420.09
441.57	6366.26
441.75	6492.65
441.94	6555.84
442.12	6766.49
442.31	6696.27
442.50	6462.22
442.68	6366.26
442.87	6628.40
443.05	6607.33
443.24	6883.52
443.43	6743.08
443.61	6757.13
443.80	6923.30
443.98	6473.92
444.17	6298.38
444.35	6778.19
444.54	6937.35
444.73	6759.47
444.91	6700.95
445.10	6761.81
445.28	6665.85
445.47	6640.10
445.65	6544.14
445.84	6815.64
446.02	6902.24
446.21	6876.49
446.39	6665.85
446.58	6939.69
446.77	7000.54
446.95	6853.09
447.14	6829.68
447.32	7068.42
447.51	7035.65
447.69	6850.75
447.88	7019.27
448.06	7082.46
448.25	6883.52
448.43	7012.24
448.62	7162.04
448.80	6965.43
448.99	7211.19
449.17	7152.68
449.36	7026.29
449.54	7314.17
449.73	7414.82
449.91	7506.10
450.10	7344.60
450.28	7613.76
450.46	7555.25
450.65	7487.37
450.83	7419.50
451.02	7503.76
451.20	7674.62
451.39	7569.29
451.57	7510.78
451.76	7573.97
451.94	7602.06
452.13	7351.62
452.31	7435.88
452.49	7461.63
452.68	7583.34
452.86	7433.54
453.05	7693.34
453.23	7693.34
453.42	7555.25
453.60	7522.48
453.78	7730.79
453.97	7597.38
454.15	7723.77
454.34	7798.66
454.52	7791.64
454.70	7786.96
454.89	7868.88
455.07	7866.54
455.26	8119.32
455.44	8091.23
455.62	7999.95
455.81	8060.80
455.99	8049.10
456.17	8156.77
456.36	8231.66
456.54	8219.96
456.73	8416.57
456.91	8320.60
457.09	8341.67
457.28	8578.06
457.46	8292.52
457.64	8463.38
457.83	8479.76
458.01	8241.03
458.19	8608.49
458.38	8498.49
458.56	8526.57
458.74	8493.80
458.93	8627.21
459.11	8697.43
459.29	8561.68
459.48	8674.03
459.66	8762.97
459.84	8643.60
460.03	8739.56
460.21	8926.80
460.39	8762.97
460.57	8823.82
460.76	9071.92
460.94	9055.53
461.12	8931.48
461.31	9060.21
461.49	8828.50
461.67	9067.24
461.85	9266.18
462.04	9090.64
462.22	9731.95
462.40	9366.82
462.59	9287.25
462.77	9554.07
462.95	9233.41
463.13	9144.47
463.32	9378.53
463.50	9348.10
463.68	9310.65
463.86	9324.69
464.05	9254.48
464.23	9261.50
464.41	9427.68
464.59	9336.40
464.78	9458.10
464.96	9430.02
465.14	9427.68
465.32	9788.12
465.50	9797.48
465.69	9708.54
465.87	9628.96
466.05	9757.69
466.23	9572.79
466.41	9591.52
466.60	9673.43
466.78	9561.09
466.96	9713.22
467.14	9865.36
467.32	9832.59
467.51	10036.22
467.69	9504.92
467.87	9708.54
468.05	9863.02
468.23	9757.69
468.41	9994.09
468.60	10097.07
468.78	9872.38
468.96	9916.85
469.14	10019.83
469.32	10029.20
469.50	9820.89
469.69	10047.92
469.87	9980.04
470.05	10202.40
470.23	10059.62
470.41	10340.49
470.59	10497.30
470.77	10209.42
470.95	10195.37
471.14	10469.22
471.32	10118.14
471.50	10672.84
471.68	10839.02
471.86	10579.22
472.04	10787.53
472.22	11103.50
472.40	10527.73
472.58	10832.00
472.77	11049.67
472.95	10836.68
473.13	11363.30
473.31	11026.26
473.49	10775.83
473.67	10827.32
473.85	10883.49
474.03	11468.62
474.21	11246.27
474.39	11534.16
474.57	11545.86
474.75	11641.82
474.93	11716.72
475.12	11634.80
475.30	11845.45
475.48	11941.41
475.66	11880.56
475.84	11812.68
476.02	11824.39
476.20	11882.90
476.38	11957.80
476.56	12180.15
476.74	12109.93
476.92	12458.67
477.10	12355.69
477.28	12559.31
477.46	12435.27
477.64	12592.08
477.82	12769.96
478.00	12884.65
478.18	13128.06
478.36	12910.40
478.54	12945.50
478.72	13233.39
478.90	13530.64
479.08	13486.17
479.26	13853.63
479.44	13762.35
479.62	13706.18
479.80	13884.06
479.98	14118.11
480.16	14090.02
480.34	14171.94
480.52	14200.03
480.70	14284.29
480.88	14061.94
481.06	14361.53
481.24	14377.91
481.41	14782.82
481.59	14644.73
481.77	15105.82
481.95	14721.97
482.13	15070.71
482.31	15288.38
482.49	15346.89
482.67	15314.13
482.85	15665.21
483.03	15859.47
483.21	16098.20
483.39	15934.37
483.57	16077.14
483.74	15978.84
483.92	16166.08
484.10	15983.52
484.28	16631.85
484.46	16540.57
484.64	16996.97
484.82	16442.26
485.00	16835.47
485.18	17064.85
485.35	17027.40
485.53	16643.55
485.71	16774.62
485.89	17036.76
486.07	16879.94
486.25	17214.64
486.43	17539.97
486.61	17689.77
486.78	17600.83
486.96	17893.40
487.14	18214.05
487.32	18148.51
487.50	18747.69
487.68	19042.60
487.85	19197.07
488.03	19161.97
488.21	19435.81
488.39	19054.30
488.57	19428.79
488.75	19714.33
488.92	19543.47
489.10	19756.46
489.28	19922.64
489.46	20266.70
489.64	20493.73
489.81	21055.46
489.99	20709.06
490.17	20669.27
490.35	20891.62
490.53	20978.22
490.70	21120.99
490.88	21245.04
491.06	21565.70
491.24	21252.06
491.41	21511.86
491.59	21591.44
491.77	21455.69
491.95	21762.30
492.13	21977.63
492.30	22410.63
492.48	22279.56
492.66	22621.28
492.84	22946.61
493.01	23014.49
493.19	23012.15
493.37	23309.40
493.54	23091.73
493.72	23386.63
493.90	23456.85
494.08	23358.55
494.25	23833.68
494.43	23784.52
494.61	24376.68
494.79	24287.74
494.96	24023.26
495.14	24292.42
495.32	24449.24
495.49	24297.10
495.67	24456.26
495.85	24723.08
496.02	25092.88
496.20	25172.46
496.38	25600.78
496.55	25385.45
496.73	26218.68
496.91	25748.23
497.09	26059.52
497.26	26169.53
497.44	26218.68
497.62	26197.62
497.79	26120.38
497.97	25954.20
498.14	26464.44
498.32	26806.16
498.50	26607.21
498.67	26544.02
498.85	26902.12
499.03	27168.94
499.20	27360.86
499.38	26958.29
499.56	27454.48
499.73	27513.00
499.91	27374.91
500.08	27798.54
500.26	27599.60
500.44	27683.86
500.61	27566.83
500.79	27700.24
500.97	27742.37
501.14	28233.88
501.32	28343.89
501.49	27953.02
501.67	28266.65
501.84	28407.08
502.02	28503.04
502.20	28313.46
502.37	28797.95
502.55	28584.96
502.72	29003.92
502.90	28961.79
503.07	29092.86
503.25	28823.70
503.43	29289.46
503.60	28673.90
503.78	29069.45
503.95	29130.31
504.13	29516.50
504.30	29881.62
504.48	29717.78
504.65	29928.43
504.83	30068.86
505.01	30216.32
505.18	30293.55
505.36	30445.69
505.53	30286.53
505.71	30696.13
505.88	30892.73
506.06	30543.99
506.23	30366.11
506.41	30401.22
506.58	30962.95
506.76	30527.61
506.93	30993.37
507.11	31323.39
507.28	31538.72
507.46	30941.88
507.63	31096.36
507.81	31255.51
507.98	31285.94
508.16	31304.67
508.33	31590.21
508.50	32025.55
508.68	31625.32
508.85	31969.38
509.03	32168.32
509.20	32222.16
509.38	32615.37
509.55	32184.71
509.73	32046.62
509.90	32449.19
510.08	32442.17
510.25	32549.83
510.42	32744.09
510.60	33177.09
510.77	32854.10
510.95	33003.89
511.12	32914.95
511.30	33202.84
511.47	33277.74
511.64	33656.90
511.82	33776.27
511.99	33413.49
512.17	33525.83
512.34	33308.16
512.51	33560.94
512.69	33820.74
512.86	33759.89
513.04	34183.52
513.21	34188.21
513.38	34199.91
513.56	33806.70
513.73	34029.05
513.90	33624.14
514.08	34003.30
514.25	34525.24
514.43	34345.02
514.60	34621.20
514.77	34485.45
514.95	34705.46
515.12	34792.06
515.29	35056.54
515.47	35077.61
515.64	35145.48
515.81	34803.77
515.99	34820.15
516.16	34857.60
516.33	34494.82
516.51	34572.05
516.68	34169.48
516.85	34246.72
517.03	34609.50
517.20	34876.32
517.37	35459.12
517.54	35571.46
517.72	35264.85
517.89	35061.22
518.06	34979.31
518.24	35543.38
518.41	35353.79
518.58	35409.96
518.75	35686.15
518.93	36488.95
519.10	36020.84
519.27	36126.17
519.45	36201.07
519.62	36730.03
519.79	36416.40
519.96	36779.18
520.14	36533.42
520.31	36102.76
520.48	36671.51
520.65	36563.85
520.83	37303.46
521.00	37099.83
521.17	36781.52
521.34	37275.37
521.52	37383.04
521.69	37368.99
521.86	37404.10
522.03	37326.86
522.20	37677.94
522.38	37392.40
522.55	37434.53
522.72	37553.90
522.89	37624.11
523.07	37535.17
523.24	37750.50
523.41	37982.21
523.58	37830.08
523.75	38735.87
523.92	38508.83
524.10	38525.22
524.27	38658.63
524.44	38520.54
524.61	38352.02
524.78	39108.01
524.96	38934.81
525.13	38469.04
525.30	38904.38
525.47	39147.80
525.64	39267.17
525.81	39058.86
525.98	38972.26
526.16	38609.48
526.33	38848.21
526.50	38817.78
526.67	38377.76
526.84	38300.53
527.01	38911.41
527.18	38871.62
527.36	39552.71
527.53	39442.71
527.70	40098.06
527.87	40088.70
528.04	39297.59
528.21	40109.76
528.38	39608.89
528.55	39735.27
528.72	40163.59
528.89	40027.84
529.07	39861.66
529.24	39807.83
529.41	39620.59
529.58	39775.06
529.75	39966.99
529.92	40205.72
530.09	40189.34
530.26	40418.71
530.43	40275.94
530.60	40362.54
530.77	40463.18
530.94	41148.96
531.11	40552.12
531.28	41031.93
531.46	40701.92
531.63	40687.87
531.80	40648.08
531.97	40659.79
532.14	41109.17
532.31	40570.85
532.48	40760.43
532.65	40842.35
532.82	40561.48
532.99	41038.95
533.16	40854.05
533.33	40910.22
533.50	40938.31
533.67	41083.42
533.84	41085.76
534.01	41158.32
534.18	41270.67
534.35	41380.67
534.52	41635.79
534.69	41514.08
534.86	41544.51
535.03	41694.30
535.20	42026.66
535.37	42033.68
535.54	42164.75
535.71	42038.36
535.88	42038.36
536.05	41724.73
536.22	42029.00
536.38	41949.42
536.55	42197.52
536.72	41535.15
536.89	42029.00
537.06	42024.32
537.23	42302.84
537.40	41968.15
537.57	42981.60
537.74	42328.59
537.91	43098.62
538.08	42541.58
538.25	42391.78
538.42	42155.39
538.59	42946.49
538.75	42232.63
538.92	42103.90
539.09	42700.73
539.26	42541.58
539.43	42569.66
539.60	43056.50
539.77	42583.71
539.94	42801.38
540.11	42787.33
540.28	42829.46
540.44	42471.36
540.61	42777.97
540.78	43089.26
540.95	42752.23
541.12	42712.44
541.29	42815.42
541.46	43054.15
541.62	43138.41
541.79	43423.96
541.96	42574.34
542.13	42862.23
542.30	43196.93
542.47	43679.08
542.63	43243.74
542.80	43002.66
542.97	43913.13
543.14	43838.23
543.31	43667.37
543.48	44020.80
543.64	44502.95
543.81	44107.40
543.98	43964.62
544.15	44465.50
544.32	44126.12
544.48	44563.80
544.65	44055.90
544.82	44322.72
544.99	43875.68
545.16	44098.03
545.32	44261.87
545.49	44006.75
545.66	44947.65
545.83	43931.86
546.00	44580.18
546.16	44217.40
546.33	44318.04
546.50	44191.65
546.67	44381.24
546.83	44268.89
547.00	44208.04
547.17	44369.54
547.34	44406.98
547.50	44734.66
547.67	44561.46
547.84	44832.96
548.00	44933.60
548.17	45226.17
548.34	44739.34
548.51	45069.36
548.67	45099.78
548.84	45258.94
549.01	45015.52
549.18	44896.16
549.34	44793.17
549.51	45263.62
549.68	45291.71
549.84	45064.67
550.01	45338.52
550.18	44811.90
550.34	45375.97
550.51	44910.20
550.68	45209.79
550.84	44954.67
551.01	45123.19
551.18	45195.74
551.34	45453.20
551.51	45233.19
551.68	45588.95
551.84	46052.38
552.01	45469.59
552.18	45446.18
552.34	45287.03
552.51	45581.93
552.68	45469.59
552.84	46092.17
553.01	45883.86
553.18	45436.82
553.34	45848.75
553.51	45656.83
553.67	45705.98
553.84	45918.97
554.01	45832.37
554.17	46043.02
554.34	46438.57
554.51	46155.36
554.67	45769.18
554.84	46054.72
555.00	45701.30
555.17	45567.89
555.33	46185.79
555.50	45975.14
555.67	45963.44
555.83	46281.75
556.00	45914.29
556.16	46546.23
556.33	46319.20
556.50	45755.13
556.66	46225.58
556.83	46115.58
556.99	46494.74
557.16	46642.20
557.32	46209.20
557.49	46445.59
557.65	45979.82
557.82	46131.96
557.98	46436.23
558.15	46375.37
558.32	46700.71
558.48	46206.86
558.65	46412.82
558.81	45965.78
558.98	46031.32
559.14	46483.04
559.31	46248.99
559.47	46108.55
559.64	46438.57
559.80	46293.46
559.97	46913.70
560.13	46344.95
560.30	46590.70
560.46	46403.46
560.63	46536.87
560.79	46948.81
560.96	46960.51
561.12	46543.89
561.29	47016.68
561.45	46490.06
561.61	46838.80
561.78	46752.20
561.94	46106.21
562.11	46698.37
562.27	46674.96
562.44	46703.05
562.60	46944.12
562.77	47342.02
562.93	46651.56
563.10	47030.72
563.26	46728.80
563.42	46387.08
563.59	46904.34
563.75	46794.33
563.92	46801.35
564.08	46698.37
564.24	46780.29
564.41	47030.72
564.57	47236.69
564.74	47105.62
564.90	47117.32
565.07	47122.01
565.23	46499.42
565.39	46979.23
565.56	46962.85
565.72	46932.42
565.88	46990.94
566.05	46902.00
566.21	47175.84
566.38	46625.81
566.54	47070.51
566.70	47442.66
566.87	47559.69
567.03	47194.56
567.19	47447.34
567.36	47171.16
567.52	46791.99
567.68	47091.58
567.85	47173.50
568.01	46916.04
568.17	47122.01
568.34	46983.91
568.50	46969.87
568.66	47330.31
568.83	47096.26
568.99	46752.20
569.15	46834.12
569.32	47426.28
569.48	46787.31
569.64	47264.78
569.81	47381.80
569.97	47236.69
570.13	46820.08
570.30	46803.69
570.46	46649.22
570.62	47063.49
570.78	47250.74
570.95	46843.48
571.11	47086.90
571.27	46988.60
571.43	46703.05
571.60	47320.95
571.76	47192.22
571.92	47342.02
572.09	47459.04
572.25	46869.23
572.41	47224.99
572.57	47332.65
572.74	47922.47
572.90	47023.70
573.06	47196.90
573.22	47281.16
573.38	46834.12
573.55	46951.15
573.71	47363.08
573.87	47363.08
574.03	47356.06
574.20	46873.91
574.36	46948.81
574.52	47550.32
574.68	47470.75
574.84	47587.77
575.01	47318.61
575.17	47440.32
575.33	47107.96
575.49	47330.31
575.65	47325.63
575.82	47297.55
575.98	47552.66
576.14	47875.66
576.30	47477.77
576.46	47173.50
576.62	47154.77
576.79	47435.64
576.95	46969.87
577.11	47079.88
577.27	47122.01
577.43	47381.80
577.59	47185.20
577.75	47061.15
577.92	47021.36
578.08	46939.44
578.24	46855.18
578.40	47175.84
578.56	47248.39
578.72	47255.42
578.88	47210.95
579.04	47402.87
579.21	47229.67
579.37	47026.04
579.53	47370.10
579.69	46693.69
579.85	47278.82
580.01	47461.38
580.17	47349.04
580.33	47704.80
580.49	47253.08
580.65	47351.38
580.82	47194.56
580.98	46813.05
581.14	46855.18
581.30	47847.57
581.46	47320.95
581.62	47416.91
581.78	47435.64
581.94	47793.74
582.10	47423.93
582.26	47501.17
582.42	47885.02
582.58	47583.09
582.74	47473.09
582.90	47466.06
583.06	47437.98
583.22	47428.62
583.38	47854.59
583.54	47426.28
583.70	47526.92
583.86	47772.67
584.02	46803.69
584.18	47622.88
584.34	47817.14
584.50	47072.85
584.66	47255.42
584.82	47604.16
584.98	47667.35
585.14	47765.65
585.30	46789.65
585.46	47517.56
585.62	47402.87
585.78	47269.46
585.94	46740.50
586.10	47381.80
586.26	47365.42
586.42	47618.20
586.58	47856.93
586.74	47648.63
586.90	47576.07
587.06	47501.17
587.22	47430.96
587.38	47133.71
587.54	47552.66
587.70	47632.24
587.86	47414.57
588.02	47686.07
588.18	47210.95
588.34	47180.52
588.49	46476.02
588.65	46703.05
588.81	46799.01
588.97	47058.81
589.13	46710.07
589.29	46869.23
589.45	46789.65
589.61	47292.86
589.77	47349.04
589.93	47578.41
590.08	47854.59
590.24	47737.57
590.40	47758.63
590.56	47798.42
590.72	47342.02
590.88	47012.00
591.04	47657.99
591.20	47849.91
591.35	47510.53
591.51	47882.68
591.67	47709.48
591.83	47402.87
591.99	47325.63
592.15	47452.02
592.31	47615.86
592.46	47384.15
592.62	47344.36
592.78	47578.41
592.94	47854.59
593.10	47459.04
593.26	47667.35
593.41	47723.52
593.57	47381.80
593.73	47728.20
593.89	47831.19
594.05	47344.36
594.20	47224.99
594.36	47557.35
594.52	47452.02
594.68	47632.24
594.84	47363.08
594.99	47662.67
595.15	47796.08
595.31	47702.46
595.47	47178.18
595.62	47508.19
595.78	47868.64
595.94	47973.96
596.10	47203.92
596.25	47751.61
596.41	47313.93
596.57	47695.44
596.73	47718.84
596.88	47512.88
597.04	47555.00
597.20	47831.19
597.36	47622.88
597.51	47636.92
597.67	47468.40
597.83	47744.59
597.99	47957.58
598.14	47480.11
598.30	47894.38
598.46	47655.65
598.61	47957.58
598.77	46813.05
598.93	47482.45
599.09	47662.67
599.24	48083.97
599.40	47957.58
599.56	48048.86
599.71	47845.23
599.87	48062.90
600.03	47803.10
600.18	47524.58
600.34	47639.26
600.50	47400.53
600.65	47545.64
600.81	47767.99
600.97	47985.66
601.12	48037.16
601.28	47772.67
601.44	47555.00
601.59	47728.20
601.75	47229.67
601.91	47313.93
602.06	47693.10
602.22	47828.85
602.37	47447.34
602.53	47648.63
602.69	47990.34
602.84	47330.31
603.00	47325.63
603.16	47494.15
603.31	47995.03
603.47	47709.48
603.62	47555.00
603.78	47356.06
603.94	47419.25
604.09	48018.43
604.25	47824.17
604.40	47665.01
604.56	48027.79
604.71	47648.63
604.87	47674.37
605.03	47311.59
605.18	47657.99
605.34	47576.07
605.49	47557.35
605.65	47746.93
605.80	47508.19
605.96	47840.55
606.12	47543.30
606.27	47763.31
606.43	47515.22
606.58	47550.32
606.74	47194.56
606.89	47412.23
607.05	47316.27
607.20	47356.06
607.36	47428.62
607.51	47625.22
607.67	47288.18
607.82	47648.63
607.98	47224.99
608.13	47470.75
608.29	47030.72
608.44	46717.09
608.60	46756.88
608.75	46986.25
608.91	46997.96
609.06	47009.66
609.22	47239.03
609.37	47086.90
609.53	47168.82
609.68	47327.97
609.84	47290.52
609.99	47103.28
610.15	47075.19
610.30	46806.03
610.46	46569.64
610.61	46885.61
610.76	46745.18
610.92	47363.08
611.07	47178.18
611.23	46918.38
611.38	46869.23
611.54	46859.87
611.69	47035.41
611.84	46740.50
612.00	46546.23
612.15	46485.38
612.31	47030.72
612.46	46571.98
612.62	46443.25
612.77	46752.20
612.92	46527.51
613.08	46471.34
613.23	46319.20
613.39	46195.15
613.54	46162.39
613.69	46480.70
613.85	46497.08
614.00	46480.70
614.15	46534.53
614.31	46457.29
614.46	46747.52
614.62	46302.82
614.77	46534.53
614.92	46354.31
615.08	46656.24
615.23	46000.89
615.38	46761.56
615.54	46155.36
615.69	46476.02
615.84	45605.34
616.00	45783.22
616.15	46202.18
616.30	46471.34
616.46	45808.96
616.61	45989.19
616.76	45991.53
616.92	46003.23
617.07	45661.51
617.22	45900.25
617.37	45984.51
617.53	46085.15
617.68	46380.06
617.83	46307.50
617.99	46293.46
618.14	46335.59
618.29	45633.42
618.45	46066.42
618.60	45874.50
618.75	45598.32
618.90	45825.35
619.06	45762.15
619.21	45930.67
619.36	46021.95
619.51	45750.45
619.67	45876.84
619.82	45682.58
619.97	46014.93
620.12	45418.10
620.28	45308.09
620.43	45427.46
620.58	45350.22
620.73	45584.27
620.89	45219.15
621.04	45495.33
621.19	45483.63
621.34	45586.61
621.49	44629.34
621.65	45015.52
621.80	45516.40
621.95	44914.88
622.10	45184.04
622.25	45071.70
622.41	45123.19
622.56	44659.76
622.71	45200.43
622.86	44832.96
623.01	45198.09
623.16	45158.30
623.32	44877.43
623.47	45006.16
623.62	44933.60
623.77	44968.71
623.92	44933.60
624.07	44676.15
624.23	44830.62
624.38	44451.45
624.53	44790.83
624.68	44664.44
624.83	45024.89
624.98	44825.94
625.13	44732.32
625.29	44629.34
625.44	44369.54
625.59	44339.11
625.74	44725.30
625.89	44285.28
626.04	44086.33
626.19	44596.57
626.34	44830.62
626.49	44149.53
626.65	44491.24
626.80	44315.70
626.95	44161.23
627.10	44226.76
627.25	44105.06
627.40	44320.38
627.55	43566.73
627.70	43751.63
627.85	43564.39
628.00	43962.28
628.15	44076.97
628.30	43861.64
628.45	44179.95
628.60	43648.65
628.76	43976.33
628.91	43927.17
629.06	43938.88
629.21	43849.94
629.36	43545.67
629.51	43583.12
629.66	43618.22
629.81	43475.45
629.96	43854.62
630.11	43854.62
630.26	44142.50
630.41	43658.01
630.56	43718.87
630.71	44093.35
630.86	43650.99
631.01	43217.99
631.16	43667.37
631.31	43445.02
631.46	43030.75
631.61	43594.82
631.76	43952.92
631.91	43519.92
632.06	43632.27
632.21	43440.34
632.36	43693.12
632.51	43082.24
632.66	43629.93
632.81	42824.78
632.96	42960.53
633.10	42855.21
633.25	43140.75
633.40	43161.82
633.55	43021.39
633.70	43358.42
633.85	43019.05
634.00	42866.91
634.15	43061.18
634.30	43044.79
634.45	42862.23
634.60	42990.96
634.75	42768.61
634.90	43119.69
635.05	42660.94
635.19	42492.43
635.34	43044.79
635.49	42761.59
635.64	42550.94
635.79	42628.18
635.94	42536.90
636.09	42618.81
636.24	42419.87
636.39	42337.95
636.53	42440.93
636.68	42244.33
636.83	42522.85
636.98	42429.23
637.13	41989.21
637.28	42845.85
637.43	42707.76
637.57	42843.51
637.72	42642.22
637.87	42564.98
638.02	42719.46
638.17	41823.03
638.32	41820.69
638.46	42092.19
638.61	42284.12
638.76	41865.16
638.91	41846.44
639.06	41944.74
639.20	42174.11
639.35	42005.59
639.50	41986.87
639.65	41839.42
639.80	42134.32
639.94	41830.05
640.09	42185.82
640.24	41851.12
640.39	41893.25
640.54	41848.78
640.68	41706.01
640.83	41574.94
640.98	41116.19
641.13	41710.69
641.27	41907.29
641.42	41429.82
641.57	41766.86
641.72	41741.11
641.86	41368.97
642.01	41163.00
642.16	41291.73
642.31	41249.60
642.45	41673.24
642.60	41116.19
642.75	41354.93
642.90	41338.54
643.04	41205.13
643.19	41207.47
643.34	41483.66
643.48	41448.55
643.63	41144.28
643.78	40985.12
643.93	40982.78
644.07	40875.12
644.22	40992.14
644.37	40470.20
644.51	40720.64
644.66	41036.61
644.81	40868.09
644.95	40680.85
645.10	41017.89
645.25	41233.22
645.39	40814.26
645.54	40966.40
645.69	41008.53
645.83	40669.15
645.98	41158.32
646.13	40940.65
646.27	40737.02
646.42	41092.79
646.57	40484.25
646.71	40730.00
646.86	40697.24
647.00	40989.80
647.15	40687.87
647.30	40786.18
647.44	40336.79
647.59	40821.28
647.74	40495.95
647.88	40105.08
648.03	40610.64
648.17	40282.96
648.32	40287.64
648.47	40383.60
648.61	40247.85
648.76	40484.25
648.90	40304.02
649.05	40037.20
649.20	40278.28
649.34	40257.21
649.49	39756.34
649.63	40311.05
649.78	40168.27
649.92	39861.66
650.07	40343.81
650.21	39899.11
650.36	39835.92
650.51	39613.57
650.65	40088.70
650.80	40381.26
650.94	39969.33
651.09	40271.26
651.23	39744.64
651.38	39978.69
651.52	39578.46
651.67	39807.83
651.81	39833.58
651.96	39569.10
652.10	39529.31
652.25	39447.39
652.39	39828.90
652.54	39487.18
652.68	39622.93
652.83	39541.01
652.97	39817.19
653.12	39531.65
653.26	39674.42
653.41	39756.34
653.55	39620.59
653.70	39290.57
653.84	39651.02
653.99	39407.60
654.13	39189.93
654.27	39171.21
654.42	39220.36
654.56	39381.85
654.71	39096.31
654.85	39468.45
655.00	39213.34
655.14	39126.74
655.29	38679.69
655.43	38866.94
655.57	39084.61
655.72	38209.25
655.86	38710.12
656.01	38181.16
656.15	38450.32
656.30	38321.59
656.44	38483.09
656.58	38258.40
656.73	38359.04
656.87	38572.03
657.01	38064.13
657.16	38246.69
657.30	37926.04
657.45	38349.68
657.59	38904.38
657.73	38443.30
657.88	38412.87
658.02	38499.47
658.16	38319.25
658.31	38560.33
658.45	38424.57
658.60	38518.20
658.74	38424.57
658.88	38433.94
659.03	38029.02
659.17	38356.70
659.31	38085.20
659.46	37816.04
659.60	37879.23
659.74	38148.39
659.89	37462.61
660.03	37982.21
660.17	37930.72
660.32	37656.88
660.46	37989.24
660.60	37890.93
660.74	37577.30
660.89	37797.31
661.03	37464.96
661.17	37266.01
661.32	37387.72
661.46	37099.83
661.60	37523.47
661.74	37607.73
661.89	37383.04
662.03	37684.97
662.17	37139.62
662.31	36919.61
662.46	37525.81
662.60	37567.94
662.74	36877.48
662.88	37317.50
663.03	36877.48
663.17	37221.54
663.31	36655.13
663.45	36701.94
663.60	36474.91
663.74	36261.92
663.88	36479.59
664.02	36081.70
664.17	36175.32
664.31	36451.50
664.45	36320.43
664.59	36432.78
664.73	36491.29
664.88	36659.81
665.02	36095.74
665.16	36172.98
665.30	36100.42
665.44	36315.75
665.59	35887.43
665.73	35447.41
665.87	35639.34
666.01	36226.81
666.15	35784.45
666.29	35728.28
666.44	35882.75
666.58	35737.64
666.72	35211.02
666.86	35995.10
667.00	35634.66
667.14	35761.05
667.28	35662.74
667.43	35346.77
667.57	35625.29
667.71	34920.79
667.85	35115.06
667.99	34850.58
668.13	34735.89
668.27	34611.84
668.41	34651.63
668.56	34602.48
668.70	34792.06
668.84	34869.30
668.98	34623.54
669.12	35002.71
669.26	34576.73
669.40	34279.49
669.54	34213.95
669.68	34330.98
669.82	34087.56
669.96	34302.89
670.10	33802.02
670.25	34052.45
670.39	34356.72
670.53	34129.69
670.67	33989.26
670.81	33841.81
670.95	34110.97
671.09	34295.87
671.23	33975.22
671.37	33975.22
671.51	33589.03
671.65	33446.26
671.79	33345.61
671.93	33109.22
672.07	33219.22
672.21	33532.86
672.35	33230.93
672.49	33483.70
672.63	33233.27
672.77	33223.90
672.91	32877.51
673.05	33249.65
673.19	32910.27
673.33	32854.10
673.47	32985.17
673.61	32858.78
673.75	32659.84
673.89	32360.25
674.03	32093.43
674.17	32116.83
674.31	32210.45
674.45	32299.39
674.59	32371.95
674.73	32114.49
674.87	31969.38
675.01	32236.20
675.15	31936.61
675.29	32161.30
675.43	31824.26
675.56	31332.75
675.70	32023.21
675.84	31241.47
675.98	30375.47
676.12	31470.84
676.26	31316.37
676.40	31002.74
676.54	30881.03
676.68	31063.59
676.82	30433.99
676.96	30740.60
677.10	30663.36
677.23	30829.54
677.37	30614.21
677.51	30235.04
677.65	30712.51
677.79	29954.18
677.93	29993.97
678.07	30085.25
678.21	29797.36
678.34	29989.28
678.48	29729.48
678.62	29783.32
678.76	29511.81
678.90	29193.50
679.04	29338.62
679.18	29832.47
679.31	29167.76
679.45	29275.42
679.59	28893.91
679.73	28914.98
679.87	29474.37
680.00	29170.10
680.14	28589.64
680.28	28811.99
680.42	28615.39
680.56	28432.83
680.70	28727.74
680.83	28456.23
680.97	28086.43
681.11	28180.05
681.25	27733.01
681.39	28027.92
681.52	27735.35
681.66	27843.01
681.80	27585.55
681.94	27943.66
682.07	27763.43
682.21	27452.14
682.35	27494.27
682.49	27805.56
682.62	27770.46
682.76	27344.48
682.90	26874.03
683.04	27138.51
683.17	27187.66
683.31	26871.69
683.45	27072.98
683.59	26780.41
683.72	26307.62
683.86	26403.58
684.00	26529.97
684.13	26380.18
684.27	26270.17
684.41	26143.78
684.55	25656.95
684.68	25781.00
684.82	25680.36
684.96	25673.34
685.09	25495.46
685.23	25645.25
685.37	25106.93
685.50	25710.78
685.64	25284.81
685.78	25060.12
685.91	25324.60
686.05	25200.55
686.19	24650.52
686.32	24865.85
686.46	24538.18
686.60	24458.60
686.73	24278.38
686.87	23943.68
687.01	24418.81
687.14	23763.46
687.28	23309.40
687.42	24044.32
687.55	23555.15
687.69	23611.32
687.82	23356.21
687.96	23381.95
688.10	23690.90
688.23	23587.92
688.37	23063.64
688.50	23152.58
688.64	22916.19
688.78	22471.48
688.91	22902.14
689.05	22766.39
689.18	22651.70
689.32	22431.69
689.46	22888.10
689.59	22824.90
689.73	22649.36
689.86	22618.94
690.00	22307.65
690.13	22431.69
690.27	22408.29
690.41	22380.20
690.54	22293.60
690.68	21991.67
690.81	21982.31
690.95	21741.24
691.08	21736.56
691.22	21769.32
691.35	21556.33
691.49	21802.09
691.62	21689.74
691.76	21848.90
691.89	21266.11
692.03	21319.94
692.16	21186.53
692.30	20978.22
692.43	21025.03
692.57	21102.27
692.70	20751.19
692.84	20924.39
692.97	20535.86
693.11	20531.18
693.24	20475.01
693.38	20168.40
693.51	20219.89
693.65	20437.56
693.78	20671.61
693.92	20184.78
694.05	20236.27
694.19	19969.45
694.32	19796.25
694.45	19840.72
694.59	19592.62
694.72	19555.18
694.86	19571.56
694.99	19459.21
695.13	19049.62
695.26	19147.92
695.39	19002.81
695.53	19300.06
695.66	19391.34
695.80	18995.79
695.93	18717.26
696.07	18707.90
696.20	18600.24
696.33	18761.73
696.47	18665.77
696.60	18743.01
696.73	18459.81
696.87	18396.61
697.00	18508.96
697.14	18731.31
697.27	17989.36
697.40	18190.64
697.54	18087.66
697.67	17874.67
697.80	17956.59
697.94	17923.82
698.07	17401.88
698.21	17614.87
698.34	17848.93
698.47	17612.53
698.61	17490.82
698.74	17151.45
698.87	17263.79
699.01	17207.62
699.14	16950.16
699.27	17025.06
699.40	17216.98
699.54	17174.85
699.67	16812.07
699.80	16652.91
699.94	16489.07
700.07	16552.27
700.20	16383.75
700.34	16280.77
700.47	16252.68
700.60	16285.45
700.73	16369.71
700.87	16407.16
701.00	16414.18
701.13	16107.57
701.26	15999.90
701.40	16084.16
701.53	15726.06
701.66	15707.34
701.79	15714.36
701.93	15445.20
702.06	15239.23
702.19	15428.81
702.32	15349.23
702.46	15283.70
702.59	15154.97
702.72	15363.28
702.85	15559.88
702.99	15234.55
703.12	15314.13
703.25	15169.01
703.38	14593.24
703.51	14752.40
703.65	14672.82
703.78	14480.89
703.91	14759.42
704.04	14696.22
704.17	14464.51
704.31	14429.40
704.44	14413.02
704.57	13947.25
704.70	14148.54
704.83	14298.33
704.96	14052.58
705.10	14415.36
705.23	14036.19
>>>>>End Processed Spectral Data<<<<<
