SpectraSuite Data File
++++++++++++++++++++++++++++++++++++
Date: Fri Oct 25 11:33:33 EDT 2013
User: price-jones
Dark Spectrum Present: No
Reference Spectrum Present: No
Number of Sampled Component Spectra: 1
Spectrometers: USB2+H05261
Integration Time (usec): 100000 (USB2+H05261)
Spectra Averaged: 1 (USB2+H05261)
Boxcar Smoothing: 0 (USB2+H05261)
Correct for Electrical Dark: No (USB2+H05261)
Strobe/Lamp Enabled: No (USB2+H05261)
Correct for Detector Non-linearity: No (USB2+H05261)
Correct for Stray Light: No (USB2+H05261)
Number of Pixels in Processed Spectrum: 2048
>>>>>Begin Processed Spectral Data<<<<<
365.73	311.29
365.92	311.29
366.12	311.29
366.32	212.99
366.52	117.03
366.72	121.71
366.91	126.39
367.11	180.22
367.31	154.48
367.51	170.86
367.70	166.18
367.90	154.48
368.10	161.50
368.30	133.41
368.49	212.99
368.69	177.88
368.89	227.03
369.09	210.65
369.28	238.73
369.48	159.16
369.68	170.86
369.87	264.48
370.07	234.05
370.27	252.78
370.47	362.78
370.66	454.06
370.86	468.11
371.06	514.92
371.25	566.41
371.45	531.30
371.65	610.88
371.84	458.74
372.04	521.94
372.24	550.03
372.44	568.75
372.63	519.60
372.83	617.90
373.03	631.94
373.22	564.07
373.42	514.92
373.62	615.56
373.81	624.92
374.01	655.35
374.21	655.35
374.40	667.05
374.60	645.99
374.79	688.12
374.99	653.01
375.19	624.92
375.38	624.92
375.58	634.29
375.78	664.71
375.97	671.73
376.17	681.10
376.37	660.03
376.56	629.60
376.76	690.46
376.95	678.76
377.15	692.80
377.35	692.80
377.54	671.73
377.74	709.18
377.93	648.33
378.13	653.01
378.33	636.63
378.52	791.10
378.72	692.80
378.91	763.01
379.11	711.52
379.31	751.31
379.50	777.06
379.70	765.36
379.89	697.48
380.09	720.88
380.28	678.76
380.48	704.50
380.68	751.31
380.87	688.12
381.07	732.59
381.26	748.97
381.46	793.44
381.65	774.72
381.85	753.65
382.04	730.25
382.24	697.48
382.43	802.80
382.63	709.18
382.83	821.53
383.02	837.91
383.22	774.72
383.41	763.01
383.61	830.89
383.80	830.89
384.00	807.48
384.19	788.76
384.39	770.04
384.58	837.91
384.78	882.38
384.97	798.12
385.17	936.21
385.36	734.93
385.56	795.78
385.75	814.51
385.95	926.85
386.14	896.43
386.34	851.96
386.53	851.96
386.72	791.10
386.92	933.87
387.11	896.43
387.31	828.55
387.50	936.21
387.70	863.66
387.89	840.25
388.09	842.59
388.28	854.30
388.48	929.19
388.67	968.98
388.86	915.15
389.06	945.58
389.25	931.53
389.45	880.04
389.64	1018.13
389.84	959.62
390.03	987.71
390.22	987.71
390.42	947.92
390.61	961.96
390.81	964.30
391.00	1020.47
391.19	961.96
391.39	1006.43
391.58	1081.33
391.78	1050.90
391.97	1043.88
392.16	1041.54
392.36	1104.73
392.55	1036.86
392.75	1043.88
392.94	1071.97
393.13	1107.07
393.33	1043.88
393.52	1025.15
393.71	1104.73
393.91	1046.22
394.10	1104.73
394.29	1102.39
394.49	1057.92
394.68	1139.84
394.88	1196.01
395.07	1125.80
395.26	1137.50
395.46	1107.07
395.65	1093.03
395.84	1247.51
396.04	1200.69
396.23	1170.27
396.42	1184.31
396.62	1188.99
396.81	1296.66
397.00	1226.44
397.19	1212.40
397.39	1212.40
397.58	1181.97
397.77	1266.23
397.97	1289.64
398.16	1231.12
398.35	1256.87
398.55	1240.48
398.74	1315.38
398.93	1315.38
399.12	1275.59
399.32	1291.98
399.51	1296.66
399.70	1240.48
399.90	1343.47
400.09	1327.08
400.28	1306.02
400.47	1385.60
400.67	1406.66
400.86	1507.30
401.05	1504.96
401.24	1488.58
401.44	1446.45
401.63	1465.18
401.82	1488.58
402.01	1336.45
402.21	1535.39
402.40	1556.46
402.59	1483.90
402.78	1521.35
402.97	1455.81
403.17	1523.69
403.36	1575.18
403.55	1610.29
403.74	1572.84
403.93	1685.19
404.13	1554.12
404.32	1570.50
404.51	1605.61
404.70	1640.72
404.89	1614.97
405.09	1666.46
405.28	1661.78
405.47	1696.89
405.66	1664.12
405.85	1778.81
406.05	1764.76
406.24	1638.38
406.43	1762.42
406.62	1930.94
406.81	1844.34
407.00	1799.87
407.20	1874.77
407.39	1783.49
407.58	1767.10
407.77	1877.11
407.96	1842.00
408.15	1923.92
408.34	1837.32
408.54	1966.05
408.73	1914.56
408.92	2008.18
409.11	1968.39
409.30	1893.49
409.49	2064.35
409.68	1905.20
409.87	1884.13
410.07	1926.26
410.26	2066.69
410.45	2043.29
410.64	2183.72
410.83	2136.91
411.02	2129.89
411.21	2115.84
411.40	2106.48
411.59	2228.19
411.78	2167.34
411.98	2267.98
412.17	2200.10
412.36	2298.41
412.55	2279.68
412.74	2293.72
412.93	2363.94
413.12	2293.72
413.31	2532.46
413.50	2340.54
413.69	2368.62
413.88	2434.16
414.07	2331.17
414.26	2415.43
414.45	2377.98
414.64	2703.32
414.83	2518.42
415.02	2495.01
415.22	2476.29
415.41	2590.97
415.60	2581.61
415.79	2621.40
415.98	2691.62
416.17	2654.17
416.36	2733.75
416.55	2747.79
416.74	2820.35
416.93	2792.26
417.12	2818.00
417.31	2970.14
417.50	2883.54
417.69	2939.71
417.88	2939.71
418.07	2841.41
418.26	2937.37
418.45	3005.25
418.64	3007.59
418.83	3014.61
419.02	3028.65
419.21	3059.08
419.39	3049.72
419.58	3176.11
419.77	3042.70
419.96	3105.89
420.15	3248.66
420.34	3119.93
420.53	3183.13
420.72	3129.30
420.91	3208.87
421.10	3227.60
421.29	3171.43
421.48	3260.37
421.67	3192.49
421.86	3309.52
422.05	3232.28
422.24	3297.81
422.43	3379.73
422.61	3365.69
422.80	3251.00
422.99	3342.28
423.18	3393.78
423.37	3468.67
423.56	3412.50
423.75	3337.60
423.94	3349.31
424.13	3286.11
424.32	3211.22
424.50	3356.33
424.69	3459.31
424.88	3468.67
425.07	3335.26
425.26	3351.65
425.45	3426.54
425.64	3370.37
425.83	3323.56
426.01	3363.35
426.20	3520.17
426.39	3433.57
426.58	3510.80
426.77	3515.48
426.96	3463.99
427.15	3372.71
427.33	3515.48
427.52	3463.99
427.71	3770.60
427.90	3625.49
428.09	3606.77
428.28	3531.87
428.46	3707.41
428.65	3726.13
428.84	3721.45
429.03	3768.26
429.22	3740.18
429.40	3702.73
429.59	3803.37
429.78	3665.28
429.97	3648.90
430.16	3728.47
430.34	3754.22
430.53	3730.81
430.72	3880.61
430.91	3889.97
431.10	3861.88
431.28	3960.19
431.47	3922.74
431.66	4058.49
431.85	4044.45
432.03	3927.42
432.22	4086.58
432.41	4166.15
432.60	4011.68
432.79	4067.85
432.97	4187.22
433.16	4044.45
433.35	3969.55
433.54	4135.73
433.72	4208.28
433.91	4203.60
434.10	4128.70
434.28	4217.65
434.47	4219.99
434.66	4262.12
434.85	4252.75
435.03	4248.07
435.22	4346.37
435.41	4376.80
435.59	4348.72
435.78	4287.86
435.97	4409.57
436.16	4379.14
436.34	4381.48
436.53	4447.02
436.72	4521.92
436.90	4327.65
437.09	4645.96
437.28	4407.23
437.46	4360.42
437.65	4538.30
437.84	4582.77
438.02	4535.96
438.21	4713.84
438.40	4437.66
438.58	4823.84
438.77	4802.78
438.96	4744.27
439.14	4971.30
439.33	4917.47
439.52	5015.77
439.70	4856.61
439.89	4933.85
440.08	5015.77
440.26	5006.41
440.45	4917.47
440.63	5081.30
440.82	4992.36
441.01	5027.47
441.19	5263.86
441.38	5195.99
441.57	5245.14
441.75	5256.84
441.94	5291.95
442.12	5483.88
442.31	5284.93
442.50	5460.47
442.68	5392.59
442.87	5425.36
443.05	5565.79
443.24	5472.17
443.43	5418.34
443.61	5607.92
443.80	5753.04
443.98	5530.69
444.17	5277.91
444.35	5423.02
444.54	5652.39
444.73	5582.18
444.91	5626.65
445.10	5540.05
445.28	5631.33
445.47	5472.17
445.65	5486.22
445.84	5696.86
446.02	5621.97
446.21	5785.80
446.39	5746.02
446.58	5837.30
446.77	5722.61
446.95	5722.61
447.14	5912.19
447.32	5680.48
447.51	5738.99
447.69	5799.85
447.88	5816.23
448.06	5657.07
448.25	5767.08
448.43	5804.53
448.62	5731.97
448.80	5724.95
448.99	5685.16
449.17	5914.53
449.36	5790.49
449.54	5937.94
449.73	6064.33
449.91	5921.56
450.10	6080.71
450.28	6036.24
450.46	6235.19
450.65	6228.17
450.83	6218.80
451.02	6176.67
451.20	5991.77
451.39	6017.52
451.57	6204.76
451.76	6104.12
451.94	6221.14
452.13	6258.59
452.31	6359.24
452.49	6204.76
452.68	6218.80
452.86	6195.40
453.05	6349.87
453.23	6434.13
453.42	6274.98
453.60	6377.96
453.78	6509.03
453.97	6340.51
454.15	6417.75
454.34	6490.31
454.52	6588.61
454.70	6626.06
454.89	6523.07
455.07	6623.72
455.26	6696.27
455.44	6665.85
455.62	6665.85
455.81	6597.97
455.99	6757.13
456.17	6689.25
456.36	6703.29
456.54	6796.92
456.73	6862.45
456.91	6979.48
457.09	6991.18
457.28	6946.71
457.46	7075.44
457.64	7059.06
457.83	7098.84
458.01	7080.12
458.19	7187.79
458.38	7056.72
458.56	7105.87
458.74	7087.14
458.93	7068.42
459.11	7136.29
459.29	7241.62
459.48	7407.80
459.66	7248.64
459.84	7363.33
460.03	7428.86
460.21	7403.11
460.39	7513.12
460.57	7382.05
460.76	7517.80
460.94	7468.65
461.12	7534.18
461.31	7412.48
461.49	7531.84
461.67	7517.80
461.85	7602.06
462.04	7611.42
462.22	7960.16
462.40	7735.47
462.59	7667.60
462.77	7742.49
462.95	7850.16
463.13	8116.98
463.32	7695.68
463.50	7756.54
463.68	7957.82
463.86	7768.24
464.05	7667.60
464.23	7756.54
464.41	8002.29
464.59	7761.22
464.78	8170.81
464.96	8016.33
465.14	7864.20
465.32	8147.40
465.50	8121.66
465.69	8056.12
465.87	8116.98
466.05	8025.70
466.23	8299.54
466.41	8154.43
466.60	8421.25
466.78	8386.14
466.96	8241.03
467.14	8140.38
467.32	8332.31
467.51	8353.37
467.69	8163.79
467.87	8315.92
468.05	8381.46
468.23	8372.10
468.41	8372.10
468.60	8409.54
468.78	8519.55
468.96	8414.23
469.14	8692.75
469.32	8664.66
469.50	8545.30
469.69	8657.64
469.87	8793.39
470.05	8748.92
470.23	8723.18
470.41	8645.94
470.59	8854.25
470.77	8699.77
470.95	8849.57
471.14	9006.38
471.32	8922.12
471.50	9081.28
471.68	9137.45
471.86	9092.98
472.04	9144.47
472.22	9366.82
472.40	9090.64
472.58	9144.47
472.77	9273.20
472.95	9441.72
473.13	9664.07
473.31	9568.11
473.49	9341.08
473.67	9423.00
473.85	9366.82
474.03	9792.80
474.21	9502.58
474.39	9923.87
474.57	9720.24
474.75	9858.34
474.93	9921.53
475.12	9989.41
475.30	10031.54
475.48	9935.57
475.66	9987.07
475.84	10190.69
476.02	10251.55
476.20	10169.63
476.38	10218.78
476.56	10569.86
476.74	10558.16
476.92	10717.31
477.10	10574.54
477.28	10794.55
477.46	10663.48
477.64	10693.91
477.82	10991.16
478.00	11311.81
478.18	11061.37
478.36	11077.76
478.54	11225.21
478.72	11143.29
478.90	11295.43
479.08	11485.01
479.26	11543.52
479.44	11875.88
479.62	11611.40
479.80	11742.47
479.98	11901.62
480.16	12322.92
480.34	12107.59
480.52	12102.91
480.70	12208.23
480.88	12072.48
481.06	12351.01
481.24	12587.40
481.41	12650.60
481.59	12809.75
481.77	12699.75
481.95	12950.18
482.13	12849.54
482.31	13029.76
482.49	13488.51
482.67	13336.37
482.85	13268.50
483.03	13902.78
483.21	13607.87
483.39	13834.91
483.57	13687.45
483.74	13804.48
483.92	14038.53
484.10	14106.41
484.28	14232.80
484.46	14508.98
484.64	14630.69
484.82	14459.83
485.00	14640.05
485.18	15014.54
485.35	15176.03
485.53	15152.63
485.71	15133.90
485.89	15630.10
486.07	15321.15
486.25	15419.45
486.43	15592.65
486.61	15702.65
486.78	15597.33
486.96	16009.26
487.14	16346.30
487.32	16168.42
487.50	16269.06
487.68	16236.30
487.85	16879.94
488.03	16465.67
488.21	16926.75
488.39	16938.46
488.57	17132.72
488.75	17156.13
488.92	17502.53
489.10	17837.22
489.28	17905.10
489.46	17755.30
489.64	17877.01
489.81	17898.08
489.99	17820.84
490.17	18139.15
490.35	18588.53
490.53	18270.22
490.70	18644.71
490.88	18647.05
491.06	18759.39
491.24	19023.87
491.41	19197.07
491.59	19311.76
491.77	19239.20
491.95	19571.56
492.13	19463.90
492.30	19693.27
492.48	19400.70
492.66	19609.01
492.84	19868.81
493.01	19932.00
493.19	20168.40
493.37	20280.74
493.54	20669.27
493.72	20741.83
493.90	20561.61
494.08	20872.90
494.25	20807.36
494.43	20800.34
494.61	21165.46
494.79	21355.05
494.96	21198.23
495.14	21612.51
495.32	21614.85
495.49	21694.43
495.67	21937.84
495.85	21858.26
496.02	22244.45
496.20	22246.79
496.38	22277.22
496.55	22637.66
496.73	22927.89
496.91	22623.62
497.09	23147.90
497.26	22852.99
497.44	22721.92
497.62	22932.57
497.79	23480.25
497.97	23227.48
498.14	23431.10
498.32	23800.91
498.50	23850.06
498.67	24098.16
498.85	23948.36
499.03	23908.57
499.20	24041.98
499.38	24437.53
499.56	24212.84
499.73	24233.91
499.91	24510.09
500.08	24606.05
500.26	24531.15
500.44	25142.03
500.61	24891.60
500.79	24805.00
500.97	24849.47
501.14	25460.35
501.32	25179.48
501.49	25050.75
501.67	25385.45
501.84	25448.64
502.02	25177.14
502.20	25699.08
502.37	25827.81
502.55	26047.82
502.72	25743.55
502.90	26059.52
503.07	25738.87
503.25	26359.11
503.43	25799.73
503.60	26059.52
503.78	26223.36
503.95	26228.04
504.13	26583.80
504.30	26359.11
504.48	26635.30
504.65	26478.48
504.83	26731.26
505.01	27307.03
505.18	27262.56
505.36	27391.29
505.53	27110.43
505.71	27278.94
505.88	27255.54
506.06	27674.49
506.23	27491.93
506.41	27353.84
506.58	27536.40
506.76	27491.93
506.93	27981.10
507.11	28020.89
507.28	27796.20
507.46	28189.41
507.63	28404.74
507.81	28519.43
507.98	28065.36
508.16	28687.95
508.33	28528.79
508.50	28697.31
508.68	28240.90
508.85	28627.09
509.03	28914.98
509.20	29003.92
509.38	29186.48
509.55	29422.87
509.73	28987.53
509.90	29205.20
510.08	29350.32
510.25	29441.60
510.42	29209.89
510.60	29558.63
510.77	29912.05
510.95	30089.93
511.12	29919.07
511.30	29909.71
511.47	30342.70
511.64	29811.40
511.82	30611.87
511.99	30164.82
512.17	30246.74
512.34	30464.41
512.51	30639.95
512.69	30862.30
512.86	31019.12
513.04	30677.40
513.21	30859.96
513.38	30948.90
513.56	31000.40
513.73	30838.90
513.90	31084.65
514.08	30951.24
514.25	31136.15
514.43	31536.38
514.60	31288.28
514.77	31580.85
514.95	31669.79
515.12	31606.59
515.29	31850.01
515.47	31950.65
515.64	31517.65
515.81	31615.96
515.99	31997.46
516.16	31981.08
516.33	32116.83
516.51	32507.70
516.68	32165.98
516.85	32144.92
517.03	32620.05
517.20	32327.48
517.37	32854.10
517.54	32367.27
517.72	32914.95
517.89	32952.40
518.06	32737.07
518.24	32975.81
518.41	33041.34
518.58	33092.83
518.75	33043.68
518.93	33420.51
519.10	33364.34
519.27	33490.73
519.45	33317.53
519.62	33141.99
519.79	33488.38
519.96	33776.27
520.14	33736.48
520.31	33450.94
520.48	33708.40
520.65	34075.86
520.83	34237.36
521.00	34490.13
521.17	33862.87
521.34	34450.35
521.52	34586.10
521.69	34866.96
521.86	34637.59
522.03	34679.72
522.20	35124.42
522.38	34925.47
522.55	34738.23
522.72	34820.15
522.89	35040.16
523.07	35388.90
523.24	35384.22
523.41	35227.40
523.58	35185.27
523.75	35667.42
523.92	35426.35
524.10	35503.59
524.27	35894.46
524.44	35798.49
524.61	35962.33
524.78	35653.38
524.96	35962.33
525.13	36201.07
525.30	36144.89
525.47	35723.60
525.64	36177.66
525.81	36212.77
525.98	36177.66
526.16	36172.98
526.33	35894.46
526.50	36627.04
526.67	35997.44
526.84	36732.37
527.01	36374.27
527.18	36786.20
527.36	36884.50
527.53	36634.06
527.70	37088.13
527.87	37191.11
528.04	36835.35
528.21	37010.89
528.38	36849.39
528.55	37106.85
528.72	37088.13
528.89	37603.05
529.07	37017.91
529.24	37081.11
529.41	37558.58
529.58	37397.08
529.75	37684.97
529.92	37694.33
530.09	37830.08
530.26	37846.46
530.43	37783.27
530.60	37553.90
530.77	37567.94
530.94	37654.54
531.11	37816.04
531.28	37797.31
531.46	37778.59
531.63	37963.49
531.80	38171.80
531.97	37947.11
532.14	37710.71
532.31	38132.01
532.48	38199.88
532.65	38520.54
532.82	38574.37
532.99	38813.10
533.16	38040.73
533.33	38361.38
533.50	38864.60
533.67	38761.61
533.84	38277.12
534.01	38822.47
534.18	38590.75
534.35	38937.15
534.52	39168.87
534.69	38986.30
534.86	39445.05
535.03	39374.83
535.20	39393.56
535.37	39332.70
535.54	39938.90
535.71	39416.96
535.88	39800.81
536.05	39676.76
536.22	39901.45
536.38	39655.70
536.55	39470.79
536.72	39515.26
536.89	39667.40
537.06	39866.34
537.23	39974.01
537.40	39681.44
537.57	39653.36
537.74	39842.94
537.91	40250.19
538.08	40179.98
538.25	39814.85
538.42	40233.81
538.59	40418.71
538.75	40229.13
538.92	40498.29
539.09	40634.04
539.26	40163.59
539.43	40135.51
539.60	40058.27
539.77	40786.18
539.94	40804.90
540.11	40847.03
540.28	40392.97
540.44	40711.28
540.61	40758.09
540.78	40556.80
540.95	40458.50
541.12	40957.03
541.29	40320.41
541.46	40907.88
541.62	41148.96
541.79	41284.71
541.96	40821.28
542.13	40570.85
542.30	41034.27
542.47	41343.22
542.63	40638.72
542.80	41474.29
542.97	41757.50
543.14	41926.02
543.31	41680.26
543.48	41539.83
543.64	42071.13
543.81	42155.39
543.98	42031.34
544.15	41752.82
544.32	42103.90
544.48	42707.76
544.65	41944.74
544.82	42412.85
544.99	41804.31
545.16	42333.27
545.32	42291.14
545.49	42642.22
545.66	42707.76
545.83	42595.41
546.00	42267.73
546.16	42333.27
546.33	42197.52
546.50	42677.33
546.67	42777.97
546.83	42146.03
547.00	42777.97
547.17	42649.24
547.34	42450.30
547.50	42873.93
547.67	43358.42
547.84	43019.05
548.00	43033.09
548.17	42834.14
548.34	42962.87
548.51	43192.25
548.67	43276.51
548.84	43288.21
549.01	43267.14
549.18	43356.08
549.34	43358.42
549.51	43688.44
549.68	43789.08
549.84	43194.59
550.01	43386.51
550.18	43147.78
550.34	43585.46
550.51	43459.07
550.68	43718.87
550.84	43402.89
551.01	43985.69
551.18	43634.61
551.34	43299.91
551.51	43484.81
551.68	43402.89
551.84	43739.93
552.01	43491.83
552.18	43871.00
552.34	44268.89
552.51	43498.86
552.68	44126.12
552.84	43730.57
553.01	44034.84
553.18	43716.53
553.34	44528.69
553.51	44208.04
553.67	44514.65
553.84	44795.51
554.01	44603.59
554.17	44505.29
554.34	44505.29
554.51	44299.32
554.67	44982.76
554.84	44467.84
555.00	44896.16
555.17	44320.38
555.33	44828.28
555.50	44519.33
555.67	44570.82
555.83	44729.98
556.00	44919.56
556.16	45214.47
556.33	44882.11
556.50	44821.26
556.66	44722.96
556.83	44893.82
556.99	45390.01
557.16	44751.04
557.32	44886.79
557.49	45015.52
557.65	44903.18
557.82	45055.31
557.98	45099.78
558.15	45081.06
558.32	45001.48
558.48	44966.37
558.65	45153.62
558.81	44978.07
558.98	44760.40
559.14	44816.58
559.31	45507.04
559.47	45598.32
559.64	45429.80
559.80	45446.18
559.97	45118.51
560.13	45198.09
560.30	45284.68
560.46	45633.42
560.63	45329.16
560.79	45523.42
560.96	45944.72
561.12	45256.60
561.29	45537.46
561.45	45617.04
561.61	45226.17
561.78	45539.80
561.94	45469.59
562.11	45593.64
562.27	46059.40
562.44	45797.26
562.60	45577.25
562.77	45977.48
562.93	45841.73
563.10	45851.09
563.26	45530.44
563.42	46525.17
563.59	45858.12
563.75	46134.30
563.92	45708.32
564.08	45806.62
564.24	45975.14
564.41	45841.73
564.57	45921.31
564.74	46162.39
564.90	45668.53
565.07	45897.91
565.23	46206.86
565.39	46422.19
565.56	46101.53
565.72	45900.25
565.88	46256.01
566.05	46129.62
566.21	46146.00
566.38	46190.47
566.54	46106.21
566.70	46466.66
566.87	45942.38
567.03	46244.30
567.19	46464.32
567.36	46134.30
567.52	45914.29
567.68	46447.93
567.85	46452.61
568.01	46696.03
568.17	46796.67
568.34	46525.17
568.50	46401.12
568.66	46129.62
568.83	46609.43
568.99	46440.91
569.15	46375.37
569.32	46192.81
569.48	45951.74
569.64	46660.92
569.81	46614.11
569.97	46564.96
570.13	47063.49
570.30	46028.98
570.46	46616.45
570.62	46340.27
570.78	46429.21
570.95	46710.07
571.11	47047.11
571.27	46614.11
571.43	46351.97
571.60	46747.52
571.76	46356.65
571.92	46354.31
572.09	46562.62
572.25	46719.43
572.41	46316.86
572.57	46408.14
572.74	47381.80
572.90	46918.38
573.06	47058.81
573.22	47002.64
573.38	47098.60
573.55	47065.83
573.71	47292.86
573.87	46836.46
574.03	46777.95
574.20	47461.38
574.36	46904.34
574.52	46855.18
574.68	47337.33
574.84	47016.68
575.01	47388.83
575.17	47035.41
575.33	46939.44
575.49	46784.97
575.65	47133.71
575.82	47056.47
575.98	46791.99
576.14	47344.36
576.30	47309.25
576.46	46906.68
576.62	46726.46
576.79	47035.41
576.95	46548.57
577.11	46855.18
577.27	46672.62
577.43	47150.09
577.59	46958.17
577.75	46960.51
577.92	46831.78
578.08	46583.68
578.24	47161.79
578.40	47061.15
578.56	47437.98
578.72	47058.81
578.88	46939.44
579.04	47295.21
579.21	46719.43
579.37	47138.39
579.53	47257.76
579.69	46932.42
579.85	47157.11
580.01	47096.26
580.17	47061.15
580.33	47047.11
580.49	47339.68
580.65	47580.75
580.82	46803.69
580.98	47098.60
581.14	47292.86
581.30	47089.24
581.46	47136.05
581.62	47154.77
581.78	47168.82
581.94	47262.44
582.10	47136.05
582.26	47182.86
582.42	47360.74
582.58	47423.93
582.74	47168.82
582.90	47297.55
583.06	47241.37
583.22	47138.39
583.38	47590.11
583.54	47533.94
583.70	47580.75
583.86	47171.16
584.02	47246.05
584.18	47590.11
584.34	47613.52
584.50	47842.89
584.66	47433.30
584.82	47505.85
584.98	47723.52
585.14	47505.85
585.30	47494.15
585.46	47229.67
585.62	46913.70
585.78	47494.15
585.94	47133.71
586.10	47248.39
586.26	47019.02
586.42	47323.29
586.58	47669.69
586.74	46962.85
586.90	47019.02
587.06	47529.26
587.22	47524.58
587.38	47173.50
587.54	47138.39
587.70	48053.54
587.86	47791.40
588.02	47391.17
588.18	47613.52
588.34	47557.35
588.49	47299.89
588.65	47019.02
588.81	47072.85
588.97	47416.91
589.13	47232.01
589.29	47650.97
589.45	47491.81
589.61	47629.90
589.77	47583.09
589.93	47707.14
590.08	47421.59
590.24	47962.26
590.40	48311.00
590.56	47920.13
590.72	47929.49
590.88	47454.36
591.04	47501.17
591.20	47910.77
591.35	47927.15
591.51	48278.23
591.67	47941.19
591.83	47927.15
591.99	47716.50
592.15	47730.54
592.31	47491.81
592.46	47723.52
592.62	47924.81
592.78	47831.19
592.94	47999.71
593.10	47798.42
593.26	47833.53
593.41	48245.46
593.57	48189.29
593.73	48058.22
593.89	48315.68
594.05	48275.89
594.20	48208.01
594.36	48470.15
594.52	48404.62
594.68	47999.71
594.84	47789.06
594.99	47959.92
595.15	48177.59
595.31	48421.00
595.47	48076.94
595.62	47744.59
595.78	47744.59
595.94	48261.85
596.10	47892.04
596.25	48046.52
596.41	48488.88
596.57	47875.66
596.73	48411.64
596.88	48168.22
597.04	47735.23
597.20	48418.66
597.36	48083.97
597.51	48243.12
597.67	47690.76
597.83	48156.52
597.99	48154.18
598.14	47882.68
598.30	48137.80
598.46	47683.73
598.61	48858.68
598.77	48254.82
598.93	48030.13
599.09	48186.95
599.24	48435.05
599.40	47744.59
599.56	48406.96
599.71	48744.00
599.87	48470.15
600.03	48727.61
600.18	48416.32
600.34	48076.94
600.50	48381.21
600.65	48289.93
600.81	48470.15
600.97	48556.75
601.12	48636.33
601.28	47679.05
601.44	48516.96
601.59	48479.52
601.75	48350.79
601.91	48189.29
602.06	48254.82
602.22	48423.34
602.37	48399.94
602.53	48561.44
602.69	48538.03
602.84	48055.88
603.00	48039.50
603.16	48273.55
603.31	48315.68
603.47	48395.26
603.62	48629.31
603.78	48303.98
603.94	48175.25
604.09	47997.37
604.25	48439.73
604.40	48020.77
604.56	48332.06
604.71	48521.65
604.87	48076.94
605.03	48069.92
605.18	48439.73
605.34	48392.92
605.49	48205.67
605.65	48467.81
605.80	48100.35
605.96	48011.41
606.12	48046.52
606.27	48294.61
606.43	47697.78
606.58	47859.27
606.74	48285.25
606.89	48378.87
607.05	48147.16
607.20	47990.34
607.36	48399.94
607.51	48484.20
607.67	48231.42
607.82	48156.52
607.98	48191.63
608.13	48191.63
608.29	48090.99
608.44	48037.16
608.60	48439.73
608.75	47910.77
608.91	48261.85
609.06	47746.93
609.22	48119.07
609.37	47980.98
609.53	48163.54
609.68	48083.97
609.84	47725.86
609.99	47772.67
610.15	47985.66
610.30	48311.00
610.46	48041.84
610.61	48151.84
610.76	47931.83
610.92	47985.66
611.07	47672.03
611.23	47756.29
611.38	47964.60
611.54	48165.88
611.69	48051.20
611.84	48203.33
612.00	48198.65
612.15	47861.61
612.31	47880.34
612.46	47435.64
612.62	47604.16
612.77	47746.93
612.92	48011.41
613.08	47760.97
613.23	47789.06
613.39	47555.00
613.54	47632.24
613.69	47533.94
613.85	47847.57
614.00	47648.63
614.15	47569.05
614.31	47728.20
614.46	47440.32
614.62	47388.83
614.77	47461.38
614.92	47704.80
615.08	47665.01
615.23	47756.29
615.38	47913.11
615.54	47290.52
615.69	47735.23
615.84	47213.29
616.00	47491.81
616.15	47475.43
616.30	47746.93
616.46	47407.55
616.61	47526.92
616.76	47412.23
616.92	47351.38
617.07	47353.72
617.22	47267.12
617.37	47058.81
617.53	47346.70
617.68	47114.98
617.83	47089.24
617.99	47445.00
618.14	47428.62
618.29	47339.68
618.45	46850.50
618.60	46707.73
618.75	46988.60
618.90	47164.14
619.06	47124.35
619.21	46763.90
619.36	47196.90
619.51	46913.70
619.67	46777.95
619.82	46857.52
619.97	47529.26
620.12	47234.35
620.28	47463.72
620.43	46939.44
620.58	47131.37
620.73	47196.90
620.89	47180.52
621.04	47288.18
621.19	46820.08
621.34	47058.81
621.49	46866.89
621.65	47103.28
621.80	47004.98
621.95	46815.40
622.10	46866.89
622.25	46653.90
622.41	46459.63
622.56	47189.88
622.71	46480.70
622.86	46361.33
623.01	46894.97
623.16	46770.93
623.32	46742.84
623.47	46670.28
623.62	46162.39
623.77	46784.97
623.92	46501.76
624.07	46560.28
624.23	47119.66
624.38	46660.92
624.53	46539.21
624.68	46288.77
624.83	45872.16
624.98	46553.26
625.13	46209.20
625.29	46160.05
625.44	46237.28
625.59	46057.06
625.74	46609.43
625.89	46000.89
626.04	46211.54
626.19	46089.83
626.34	45907.27
626.49	46141.32
626.65	45577.25
626.80	45982.16
626.95	45970.46
627.10	45375.97
627.25	45911.95
627.40	45963.44
627.55	45701.30
627.70	45837.05
627.85	45804.28
628.00	46087.49
628.15	46380.06
628.30	45434.48
628.45	45696.62
628.60	45509.38
628.76	45556.19
628.91	45553.85
629.06	45558.53
629.21	45607.68
629.36	45118.51
629.51	45167.66
629.66	45485.97
629.81	45490.65
629.96	45546.82
630.11	45425.12
630.26	45359.58
630.41	45441.50
630.56	45305.75
630.71	45455.54
630.86	45380.65
631.01	45104.46
631.16	45106.80
631.31	45385.33
631.46	45514.06
631.61	45511.72
631.76	45202.77
631.91	45366.60
632.06	45453.20
632.21	45720.02
632.36	45656.83
632.51	44945.31
632.66	45001.48
632.81	44779.13
632.96	45549.17
633.10	45254.26
633.25	45104.46
633.40	45207.45
633.55	45251.92
633.70	45104.46
633.85	44741.68
634.00	44514.65
634.15	44839.98
634.30	44839.98
634.45	44425.71
634.60	44968.71
634.75	45078.72
634.90	44935.95
635.05	45055.31
635.19	44835.30
635.34	45036.59
635.49	44432.73
635.64	44676.15
635.79	44879.77
635.94	44659.76
636.09	44472.52
636.24	44807.22
636.39	44615.29
636.53	44360.17
636.68	44617.63
636.83	44512.31
636.98	44474.86
637.13	44282.94
637.28	43913.13
637.43	44191.65
637.57	44308.68
637.72	44165.91
637.87	44402.30
638.02	44261.87
638.17	44154.21
638.32	44016.11
638.46	43658.01
638.61	43798.44
638.76	44105.06
638.91	44114.42
639.06	43756.32
639.20	43908.45
639.35	44105.06
639.50	43461.41
639.65	43910.79
639.80	44091.01
639.94	44327.41
640.09	44453.79
640.24	44210.38
640.39	43590.14
640.54	43388.85
640.68	43995.05
640.83	44062.93
640.98	43723.55
641.13	43262.46
641.27	43854.62
641.42	43786.74
641.57	43702.48
641.72	43906.11
641.86	43533.96
642.01	43482.47
642.16	43335.02
642.31	43096.28
642.45	43320.98
642.60	43234.38
642.75	43545.67
642.90	43620.56
643.04	43320.98
643.19	43398.21
643.34	43384.17
643.48	43061.18
643.63	43063.52
643.78	43313.95
643.93	43377.15
644.07	43477.79
644.22	43122.03
644.37	43040.11
644.51	43526.94
644.66	43515.24
644.81	43208.63
644.95	43386.51
645.10	43330.34
645.25	43009.68
645.39	42897.34
645.54	42923.08
645.69	42494.77
645.83	42869.25
645.98	42733.50
646.13	42480.72
646.27	42927.77
646.42	42351.99
646.57	42890.32
646.71	43075.22
646.86	43203.95
647.00	42274.76
647.15	43374.81
647.30	42850.53
647.44	42480.72
647.59	42419.87
647.74	42742.86
647.88	42693.71
648.03	42803.72
648.17	42763.93
648.32	43246.08
648.47	42684.35
648.61	41743.45
648.76	42593.07
648.90	42298.16
649.05	42515.83
649.20	42265.39
649.34	42581.37
649.49	42536.90
649.63	42532.22
649.78	42366.04
649.92	42279.44
650.07	43007.34
650.21	43040.11
650.36	42150.71
650.51	42351.99
650.65	42567.32
650.80	42326.25
650.94	42209.22
651.09	42085.17
651.23	41867.50
651.38	41687.28
651.52	41734.09
651.67	41790.27
651.81	41645.15
651.96	42190.50
652.10	41420.46
652.25	41572.60
652.39	41689.62
652.54	41696.64
652.68	42148.37
652.83	42103.90
652.97	42038.36
653.12	41631.11
653.26	41631.11
653.41	41944.74
653.55	41965.81
653.70	42302.84
653.84	41895.59
653.99	41808.99
654.13	41715.37
654.27	41329.18
654.42	41769.20
654.56	41514.08
654.71	41397.06
654.85	41507.06
655.00	41680.26
655.14	41986.87
655.29	41598.34
655.43	41677.92
655.57	41329.18
655.72	40692.55
655.86	41383.01
656.01	40971.08
656.15	41010.87
656.30	41043.63
656.44	41518.76
656.58	41060.02
656.73	41413.44
656.87	40793.20
657.01	41078.74
657.16	40907.88
657.30	41053.00
657.45	40776.81
657.59	40526.38
657.73	40428.07
657.88	41193.43
658.02	40732.34
658.16	41268.33
658.31	40818.94
658.45	40835.33
658.60	40517.01
658.74	40524.04
658.88	40692.55
659.03	40336.79
659.17	40453.82
659.31	40540.42
659.46	40268.92
659.60	40528.72
659.74	40311.05
659.89	40011.46
660.03	39651.02
660.17	40385.94
660.32	39845.28
660.46	39995.07
660.60	39725.91
660.74	39903.79
660.89	39831.24
661.03	40053.59
661.17	39566.76
661.32	39529.31
661.46	40006.78
661.60	39878.05
661.74	39517.60
661.89	40135.51
662.03	39878.05
662.17	39693.15
662.31	39299.94
662.46	39646.33
662.60	39351.43
662.74	39075.24
662.88	39133.76
663.03	38916.09
663.17	39187.59
663.31	38888.00
663.45	38831.83
663.60	39414.62
663.74	39019.07
663.88	39236.74
664.02	38782.68
664.17	38895.02
664.31	38419.89
664.45	38752.25
664.59	38827.15
664.73	38663.31
664.88	38998.01
665.02	38366.06
665.16	38705.44
665.30	38239.67
665.44	38483.09
665.59	37890.93
665.73	38227.97
665.87	37752.84
666.01	37780.93
666.15	38073.49
666.29	37794.97
666.44	37876.89
666.58	38031.36
666.72	37598.37
666.86	37830.08
667.00	37469.64
667.14	37542.19
667.28	37589.00
667.43	37703.69
667.57	38036.05
667.71	37858.17
667.85	37968.17
667.99	37518.79
668.13	36818.97
668.27	36928.97
668.41	37111.53
668.56	36425.76
668.70	36561.51
668.84	36378.95
668.98	36921.95
669.12	36978.12
669.26	36914.93
669.40	36701.94
669.54	36914.93
669.68	37031.96
669.82	36669.17
669.96	36168.30
670.10	36449.16
670.25	36411.71
670.39	36058.29
670.53	36486.61
670.67	36107.44
670.81	36435.12
670.95	36318.09
671.09	35651.04
671.23	35791.47
671.37	35854.67
671.51	35854.67
671.65	35316.34
671.79	35744.66
671.93	36147.23
672.07	35861.69
672.21	35627.63
672.35	34920.79
672.49	35878.07
672.63	35356.13
672.77	34902.07
672.91	35494.22
673.05	35182.93
673.19	35225.06
673.33	34967.60
673.47	34759.30
673.61	34728.87
673.75	34473.75
673.89	34501.84
674.03	34220.97
674.17	34204.59
674.31	33748.18
674.45	33982.24
674.59	33963.51
674.73	33729.46
674.87	33916.70
675.01	33439.23
675.15	33738.82
675.29	33399.44
675.43	33352.63
675.56	33441.57
675.70	33500.09
675.84	33151.35
675.98	32334.50
676.12	33448.60
676.26	33233.27
676.40	32926.66
676.54	32804.95
676.68	32905.59
676.82	32439.82
676.96	32903.25
677.10	32395.35
677.23	32570.90
677.37	32645.79
677.51	32418.76
677.65	32374.29
677.79	32648.13
677.93	32006.83
678.07	31835.97
678.21	31697.88
678.34	31723.62
678.48	31292.96
678.62	31058.91
678.76	31267.22
678.90	31182.96
679.04	31318.71
679.18	31026.14
679.31	30836.56
679.45	30700.81
679.59	30558.03
679.73	31007.42
679.87	30672.72
680.00	30782.73
680.14	30668.04
680.28	30663.36
680.42	30621.23
680.56	30178.87
680.70	29954.18
680.83	29839.49
680.97	29797.36
681.11	29724.80
681.25	29455.64
681.39	29462.66
681.52	29415.85
681.66	29380.74
681.80	28835.40
681.94	28690.29
682.07	29301.17
682.21	28826.04
682.35	28783.91
682.49	28950.09
682.62	28917.32
682.76	28687.95
682.90	28561.56
683.04	28128.56
683.17	28500.70
683.31	27960.04
683.45	27805.56
683.59	27742.37
683.72	27491.93
683.86	27845.35
684.00	27704.92
684.13	27915.57
684.27	27084.68
684.41	27456.82
684.55	27449.80
684.68	26951.27
684.82	26595.51
684.96	26902.12
685.09	27297.67
685.23	27119.79
685.37	27353.84
685.50	27215.75
685.64	26845.94
685.78	26752.32
685.91	26333.37
686.05	26150.81
686.19	25736.53
686.32	25933.14
686.46	25455.67
686.60	25230.98
686.73	25813.77
686.87	25514.18
687.01	25570.35
687.14	25907.39
687.28	25621.84
687.42	25362.04
687.55	25479.07
687.69	25205.23
687.82	25109.27
687.96	25202.89
688.10	24980.54
688.23	25053.09
688.37	24900.96
688.50	24781.59
688.64	24589.67
688.78	24645.84
688.91	24381.36
689.05	24025.60
689.18	23676.86
689.32	23793.89
689.46	23915.59
689.59	23751.76
689.73	24151.99
689.86	23901.55
690.00	23660.48
690.13	24086.45
690.27	22986.40
690.41	23606.64
690.54	23391.31
690.68	22862.35
690.81	22963.00
690.95	23070.66
691.08	23084.70
691.22	22412.97
691.35	22434.03
691.49	22384.88
691.62	22740.64
691.76	22354.46
691.89	22237.43
692.03	22162.53
692.16	22045.51
692.30	21855.92
692.43	21935.50
692.57	21502.50
692.70	21783.37
692.84	21226.32
692.97	21322.28
693.11	21626.55
693.24	21284.83
693.38	21390.16
693.51	21186.53
693.65	21113.97
693.78	20739.49
693.92	20727.78
694.05	20886.94
694.19	20676.29
694.32	20563.95
694.45	20917.37
694.59	20870.56
694.72	20659.91
694.86	20332.23
694.99	20245.63
695.13	20224.57
695.26	19648.80
695.39	19740.08
695.53	19836.04
695.66	19763.48
695.80	19342.19
695.93	19585.60
696.07	19236.86
696.20	18991.11
696.33	19229.84
696.47	18923.23
696.60	19180.69
696.73	19419.42
696.87	18937.27
697.00	19211.12
697.14	18466.83
697.27	18384.91
697.40	18387.25
697.54	18607.26
697.67	18621.30
697.80	18394.27
697.94	18242.14
698.07	17975.31
698.21	17956.59
698.34	18026.81
698.47	18125.11
698.61	17827.86
698.74	17497.84
698.87	17310.60
699.01	17563.38
699.14	17497.84
699.27	17392.52
699.40	17177.19
699.54	17266.13
699.67	17181.87
699.80	17165.49
699.94	16842.50
700.07	17184.21
700.20	17055.48
700.34	16718.45
700.47	16648.23
700.60	16865.90
700.73	16547.59
700.87	16210.55
701.00	16341.62
701.13	16362.69
701.26	16173.10
701.40	15936.71
701.53	16016.29
701.66	15934.37
701.79	16002.24
701.93	15709.68
702.06	15449.88
702.19	15473.28
702.32	15763.51
702.46	15564.56
702.59	15695.63
702.72	15681.59
702.85	15421.79
702.99	15276.68
703.12	14984.11
703.25	15133.90
703.38	15117.52
703.51	15016.88
703.65	14768.78
703.78	14850.70
703.91	14651.75
704.04	14747.72
704.17	14338.12
704.31	14188.33
704.44	14391.95
704.57	14377.91
704.70	14394.29
704.83	14143.86
704.96	14113.43
705.10	13968.32
705.23	14001.08
>>>>>End Processed Spectral Data<<<<<
