SpectraSuite Data File
++++++++++++++++++++++++++++++++++++
Date: Fri Oct 25 10:43:58 EDT 2013
User: price-jones
Dark Spectrum Present: No
Reference Spectrum Present: No
Number of Sampled Component Spectra: 1
Spectrometers: USB2+H05261
Integration Time (usec): 100000 (USB2+H05261)
Spectra Averaged: 1 (USB2+H05261)
Boxcar Smoothing: 0 (USB2+H05261)
Correct for Electrical Dark: No (USB2+H05261)
Strobe/Lamp Enabled: No (USB2+H05261)
Correct for Detector Non-linearity: No (USB2+H05261)
Correct for Stray Light: No (USB2+H05261)
Number of Pixels in Processed Spectrum: 2048
>>>>>Begin Processed Spectral Data<<<<<
365.73	124.05
365.92	124.05
366.12	124.05
366.32	65.54
366.52	4.68
366.72	0.00
366.91	0.00
367.11	14.04
367.31	51.49
367.51	53.83
367.70	2.34
367.90	0.00
368.10	0.00
368.30	0.00
368.49	0.00
368.69	14.04
368.89	42.13
369.09	39.79
369.28	72.56
369.48	30.43
369.68	91.28
369.87	154.48
370.07	161.50
370.27	182.56
370.47	266.82
370.66	451.72
370.86	435.34
371.06	491.51
371.25	561.73
371.45	479.81
371.65	479.81
371.84	400.23
372.04	435.34
372.24	463.43
372.44	503.22
372.63	470.45
372.83	507.90
373.03	547.69
373.22	463.43
373.42	573.43
373.62	571.09
373.81	587.47
374.01	498.53
374.21	535.98
374.40	456.40
374.60	585.13
374.79	571.09
374.99	634.29
375.19	554.71
375.38	641.31
375.58	547.69
375.78	543.00
375.97	627.26
376.17	641.31
376.37	657.69
376.56	608.54
376.76	592.16
376.95	559.39
377.15	557.05
377.35	671.73
377.54	676.41
377.74	702.16
377.93	624.92
378.13	676.41
378.33	695.14
378.52	732.59
378.72	678.76
378.91	685.78
379.11	720.88
379.31	622.58
379.50	608.54
379.70	669.39
379.89	725.57
380.09	716.20
380.28	662.37
380.48	706.84
380.68	709.18
380.87	702.16
381.07	697.48
381.26	713.86
381.46	695.14
381.65	697.48
381.85	683.44
382.04	709.18
382.24	767.70
382.43	779.40
382.63	767.70
382.83	795.78
383.02	807.48
383.22	784.08
383.41	667.05
383.61	737.27
383.80	739.61
384.00	795.78
384.19	823.87
384.39	765.36
384.58	753.65
384.78	760.67
384.97	858.98
385.17	814.51
385.36	840.25
385.56	760.67
385.75	786.42
385.95	837.91
386.14	863.66
386.34	772.38
386.53	828.55
386.72	812.17
386.92	926.85
387.11	898.77
387.31	894.08
387.50	842.59
387.70	840.25
387.89	887.06
388.09	891.74
388.28	997.07
388.48	898.77
388.67	968.98
388.86	931.53
389.06	933.87
389.25	959.62
389.45	997.07
389.64	1008.77
389.84	987.71
390.03	990.05
390.22	961.96
390.42	1032.18
390.61	957.28
390.81	1041.54
391.00	1039.20
391.19	1109.41
391.39	1069.62
391.58	1226.44
391.78	1027.50
391.97	1078.99
392.16	1118.78
392.36	1076.65
392.55	1027.50
392.75	1006.43
392.94	952.60
393.13	947.92
393.33	1029.84
393.52	1137.50
393.71	1109.41
393.91	1107.07
394.10	1067.28
394.29	1198.35
394.49	1167.93
394.68	1221.76
394.88	1263.89
395.07	1306.02
395.26	1212.40
395.46	1284.95
395.65	1334.11
395.84	1301.34
396.04	1242.82
396.23	1181.97
396.42	1240.48
396.62	1221.76
396.81	1306.02
397.00	1277.93
397.19	1270.91
397.39	1301.34
397.58	1413.68
397.77	1355.17
397.97	1369.21
398.16	1441.77
398.35	1511.99
398.55	1495.60
398.74	1437.09
398.93	1509.65
399.12	1397.30
399.32	1472.20
399.51	1603.27
399.70	1530.71
399.90	1547.09
400.09	1455.81
400.28	1558.80
400.47	1579.86
400.67	1664.12
400.86	1743.70
401.05	1701.57
401.24	1748.38
401.44	1776.47
401.63	1746.04
401.82	1806.89
402.01	1760.08
402.21	1736.68
402.40	1710.93
402.59	1746.04
402.78	1729.66
402.97	1720.29
403.17	1802.21
403.36	1884.13
403.55	1844.34
403.74	1879.45
403.93	1842.00
404.13	1842.00
404.32	1839.66
404.51	1834.98
404.70	1940.30
404.89	1984.77
405.09	2003.50
405.28	1926.26
405.47	2010.52
405.66	1984.77
405.85	1930.94
406.05	2026.90
406.24	2097.12
406.43	2136.91
406.62	1980.09
406.81	2118.18
407.00	2008.18
407.20	2155.63
407.39	2036.27
407.58	2251.60
407.77	2289.04
407.96	2277.34
408.15	2289.04
408.34	2193.08
408.54	2298.41
408.73	2326.49
408.92	2291.38
409.11	2394.37
409.30	2375.64
409.49	2272.66
409.68	2335.85
409.87	2342.88
410.07	2385.01
410.26	2525.44
410.45	2438.84
410.64	2544.16
410.83	2530.12
411.02	2565.23
411.21	2649.49
411.40	2581.61
411.59	2623.74
411.78	2689.28
411.98	2619.06
412.17	2726.72
412.36	2696.30
412.55	2621.40
412.74	2696.30
412.93	2782.90
413.12	2686.94
413.31	3026.31
413.50	3009.93
413.69	2864.82
413.88	2991.20
414.07	2935.03
414.26	2916.31
414.45	2995.89
414.64	2984.18
414.83	3002.91
415.02	3021.63
415.22	3110.57
415.41	3213.56
415.60	3049.72
415.79	3145.68
415.98	3262.71
416.17	3344.63
416.36	3222.92
416.55	3178.45
416.74	3445.27
416.93	3258.03
417.12	3344.63
417.31	3363.35
417.50	3288.45
417.69	3475.70
417.88	3419.52
418.07	3396.12
418.26	3410.16
418.45	3588.04
418.64	3602.08
418.83	3555.27
419.02	3503.78
419.21	3595.06
419.39	3679.32
419.58	3588.04
419.77	3637.19
419.96	3709.75
420.15	3705.07
420.34	3679.32
420.53	3796.35
420.72	3899.33
420.91	3831.46
421.10	3953.16
421.29	3899.33
421.48	3955.51
421.67	3969.55
421.86	3801.03
422.05	3749.54
422.24	3669.96
422.43	3719.11
422.61	3915.72
422.80	4011.68
422.99	3866.56
423.18	4042.11
423.37	4117.00
423.56	3934.44
423.75	3941.46
423.94	3805.71
424.13	3714.43
424.32	3824.44
424.50	4149.77
424.69	3988.27
424.88	4105.30
425.07	3861.88
425.26	3936.78
425.45	3946.14
425.64	3988.27
425.83	4063.17
426.01	3983.59
426.20	4142.75
426.39	4077.21
426.58	4007.00
426.77	4196.58
426.96	4070.19
427.15	4117.00
427.33	4121.68
427.52	4112.32
427.71	4168.49
427.90	4194.24
428.09	4135.73
428.28	4269.14
428.46	4079.55
428.65	4236.37
428.84	4287.86
429.03	4362.76
429.22	4175.52
429.40	4156.79
429.59	4224.67
429.78	3999.98
429.97	3838.48
430.16	4023.38
430.34	4121.68
430.53	4243.39
430.72	4072.53
430.91	4229.35
431.10	4444.68
431.28	4587.45
431.47	4615.54
431.66	4737.24
431.85	4414.25
432.03	4594.47
432.22	4734.90
432.41	4624.90
432.60	4697.46
432.79	4748.95
432.97	4671.71
433.16	4798.10
433.35	4723.20
433.54	4571.07
433.72	4660.01
433.91	4645.96
434.10	4910.44
434.28	4816.82
434.47	4922.15
434.66	4999.38
434.85	5064.92
435.03	5029.81
435.22	5109.39
435.41	5078.96
435.59	5254.50
435.78	5109.39
435.97	5069.60
436.16	5242.80
436.34	5111.73
436.53	5114.07
436.72	5364.51
436.90	5273.23
437.09	5146.84
437.28	5123.43
437.46	5160.88
437.65	5277.91
437.84	5210.03
438.02	5352.81
438.21	5203.01
438.40	5270.89
438.58	5357.49
438.77	5411.32
438.96	5455.79
439.14	5549.41
439.33	5692.18
439.52	5689.84
439.70	5598.56
439.89	5802.19
440.08	5720.27
440.26	5741.33
440.45	5849.00
440.63	5872.40
440.82	6141.57
441.01	5998.79
441.19	6104.12
441.38	6242.21
441.57	6080.71
441.75	6167.31
441.94	6183.70
442.12	6286.68
442.31	6497.33
442.50	6457.54
442.68	6314.77
442.87	6286.68
443.05	6340.51
443.24	6518.39
443.43	6502.01
443.61	6642.44
443.80	6661.16
443.98	6366.26
444.17	6286.68
444.35	6506.69
444.54	6677.55
444.73	6476.26
444.91	6597.97
445.10	6471.58
445.28	6532.44
445.47	6321.79
445.65	6487.96
445.84	6574.56
446.02	6703.29
446.21	6476.26
446.39	6654.14
446.58	6684.57
446.77	6635.42
446.95	6600.31
447.14	6663.51
447.32	6757.13
447.51	6801.60
447.69	6860.11
447.88	6890.54
448.06	6878.83
448.25	6621.38
448.43	6722.02
448.62	6771.17
448.80	6691.59
448.99	6874.15
449.17	6906.92
449.36	6953.73
449.54	7040.33
449.73	7052.03
449.91	7103.53
450.10	7199.49
450.28	7220.55
450.46	7281.41
450.65	7243.96
450.83	7208.85
451.02	7077.78
451.20	7349.28
451.39	7265.02
451.57	7185.44
451.76	7300.13
451.94	7047.35
452.13	7342.26
452.31	7173.74
452.49	7150.34
452.68	7339.92
452.86	7265.02
453.05	7286.09
453.23	7330.56
453.42	7332.90
453.60	7339.92
453.78	7581.00
453.97	7375.03
454.15	7276.73
454.34	7499.08
454.52	7597.38
454.70	7536.52
454.89	7719.09
455.07	7606.74
455.26	7768.24
455.44	7758.88
455.62	7779.94
455.81	7786.96
455.99	7953.14
456.17	7913.35
456.36	7939.10
456.54	8070.17
456.73	8002.29
456.91	8081.87
457.09	8189.53
457.28	8187.19
457.46	8161.45
457.64	8245.71
457.83	8224.64
458.01	8100.59
458.19	8248.05
458.38	8241.03
458.56	8332.31
458.74	8409.54
458.93	8313.58
459.11	8276.13
459.29	8369.76
459.48	8444.65
459.66	8180.17
459.84	8533.59
460.03	8711.47
460.21	8510.19
460.39	8641.26
460.57	8671.68
460.76	8711.47
460.94	8730.20
461.12	8809.78
461.31	8767.65
461.49	8685.73
461.67	8713.81
461.85	9015.74
462.04	8877.65
462.22	8884.67
462.40	9085.96
462.59	8898.72
462.77	8919.78
462.95	9104.68
463.13	9069.58
463.32	8929.14
463.50	9359.80
463.68	9181.92
463.86	9048.51
464.05	9018.08
464.23	9071.92
464.41	9186.60
464.59	9100.00
464.78	9451.08
464.96	9191.28
465.14	9217.03
465.32	9238.09
465.50	9268.52
465.69	9479.17
465.87	9373.85
466.05	9291.93
466.23	9121.07
466.41	9130.43
466.60	9310.65
466.78	9018.08
466.96	9186.60
467.14	9380.87
467.32	9418.32
467.51	9411.29
467.69	9188.94
467.87	9446.40
468.05	9551.73
468.23	9621.94
468.41	9699.18
468.60	9589.17
468.78	9495.55
468.96	9528.32
469.14	9717.90
469.32	9926.21
469.50	9366.82
469.69	9724.93
469.87	9820.89
470.05	9940.26
470.23	9968.34
470.41	9970.68
470.59	10214.10
470.77	9877.06
470.95	10076.01
471.14	10181.33
471.32	9916.85
471.50	10291.34
471.68	10195.37
471.86	10256.23
472.04	10366.23
472.22	10628.37
472.40	10068.98
472.58	10670.50
472.77	10654.12
472.95	10710.29
473.13	10946.69
473.31	10583.90
473.49	10541.77
473.67	10611.99
473.85	10867.11
474.03	11105.84
474.21	11243.93
474.39	11309.47
474.57	11012.22
474.75	11344.58
474.93	11110.52
475.12	11126.91
475.30	11323.51
475.48	11379.68
475.66	11372.66
475.84	11492.03
476.02	11414.79
476.20	11487.35
476.38	11817.36
476.56	11913.33
476.74	11903.96
476.92	11726.08
477.10	11868.86
477.28	12198.87
477.46	12063.12
477.64	12259.73
477.82	12517.18
478.00	12659.96
478.18	12451.65
478.36	12599.10
478.54	12699.75
478.72	12727.83
478.90	12769.96
479.08	13013.38
479.26	13160.83
479.44	13432.33
479.62	13043.81
479.80	13469.78
479.98	13490.85
480.16	13818.52
480.34	13696.82
480.52	14066.62
480.70	13645.32
480.88	13853.63
481.06	14045.55
481.24	14012.79
481.41	14424.72
481.59	14562.81
481.77	14665.80
481.95	14361.53
482.13	14778.14
482.31	14588.56
482.49	15325.83
482.67	15304.76
482.85	15236.89
483.03	15215.82
483.21	15557.54
483.39	15665.21
483.57	15613.71
483.74	15697.97
483.92	15634.78
484.10	15606.69
484.28	16187.14
484.46	16264.38
484.64	16517.16
484.82	16088.84
485.00	16552.27
485.18	16575.67
485.35	16554.61
485.53	16285.45
485.71	16346.30
485.89	16329.92
486.07	16414.18
486.25	16898.67
486.43	17123.36
486.61	17341.03
486.78	17357.41
486.96	17685.09
487.14	17877.01
487.32	17980.00
487.50	18300.65
487.68	18258.52
487.85	18569.81
488.03	18560.45
488.21	18583.85
488.39	18551.09
488.57	18848.33
488.75	18845.99
488.92	19173.67
489.10	19594.96
489.28	19793.91
489.46	19782.21
489.64	19878.17
489.81	20465.64
489.99	20163.72
490.17	20238.61
490.35	20334.57
490.53	20489.05
490.70	20549.90
490.88	20641.18
491.06	20926.73
491.24	21069.50
491.41	21109.29
491.59	21006.31
491.77	21062.48
491.95	20985.24
492.13	21439.31
492.30	22071.25
492.48	21755.28
492.66	22129.77
492.84	21764.64
493.01	22122.74
493.19	22480.85
493.37	22141.47
493.54	22349.78
493.72	22768.73
493.90	22892.78
494.08	22689.15
494.25	23290.67
494.43	23307.05
494.61	23232.16
494.79	23920.28
494.96	23482.59
495.14	23552.81
495.32	23880.49
495.49	23749.42
495.67	24030.28
495.85	24458.60
496.02	24608.39
496.20	24236.25
496.38	24428.17
496.55	24884.58
496.73	25254.38
496.91	24994.58
497.09	25385.45
497.26	25570.35
497.44	25371.41
497.62	25156.08
497.79	25443.96
497.97	25556.31
498.14	25507.16
498.32	25694.40
498.50	25851.22
498.67	26092.29
498.85	26096.97
499.03	26569.76
499.20	26422.31
499.38	26450.39
499.56	26448.05
499.73	27061.27
499.91	26728.92
500.08	26951.27
500.26	26459.76
500.44	26892.76
500.61	27103.40
500.79	26338.05
500.97	27262.56
501.14	27520.02
501.32	27091.70
501.49	27140.85
501.67	27564.49
501.84	27723.65
502.02	27487.25
502.20	28210.48
502.37	28151.96
502.55	27992.81
502.72	28156.64
502.90	28187.07
503.07	28013.87
503.25	28421.13
503.43	28374.31
503.60	28643.48
503.78	28006.85
503.95	28484.32
504.13	28617.73
504.30	28872.85
504.48	29071.79
504.65	29057.75
504.83	29483.73
505.01	29149.03
505.18	29041.37
505.36	29743.53
505.53	29610.12
505.71	30075.88
505.88	30040.78
506.06	29617.14
506.23	30136.74
506.41	29914.39
506.58	30120.35
506.76	30497.18
506.93	30515.90
507.11	29825.45
507.28	30403.56
507.46	30277.17
507.63	30504.20
507.81	30405.90
507.98	30412.92
508.16	30616.55
508.33	30611.87
508.50	30764.00
508.68	31213.38
508.85	31276.58
509.03	30862.30
509.20	31108.06
509.38	31360.84
509.55	31538.72
509.73	31433.39
509.90	31702.56
510.08	31468.50
510.25	31761.07
510.42	31826.60
510.60	32037.25
510.77	32353.23
510.95	32224.50
511.12	31988.10
511.30	32643.45
511.47	32318.12
511.64	32622.39
511.82	32556.85
511.99	32390.67
512.17	32343.86
512.34	32456.21
512.51	32636.43
512.69	33116.24
512.86	33017.94
513.04	33095.18
513.21	32989.85
513.38	32697.28
513.56	33188.80
513.73	33139.65
513.90	33359.66
514.08	33567.96
514.25	33345.61
514.43	33507.11
514.60	33687.33
514.77	33537.54
514.95	33830.10
515.12	33558.60
515.29	33570.30
515.47	34485.45
515.64	34263.10
515.81	34206.93
515.99	34534.60
516.16	33692.01
516.33	33476.68
516.51	33848.83
516.68	33359.66
516.85	33280.08
517.03	34071.18
517.20	33755.21
517.37	34625.89
517.54	34689.08
517.72	34277.15
517.89	34272.46
518.06	34078.20
518.24	34476.09
518.41	34838.87
518.58	34998.03
518.75	34761.64
518.93	35461.46
519.10	35241.45
519.27	35416.99
519.45	35304.64
519.62	35526.99
519.79	35138.46
519.96	35721.26
520.14	35882.75
520.31	36030.21
520.48	35857.01
520.65	35688.49
520.83	35871.05
521.00	36311.07
521.17	36137.87
521.34	36245.54
521.52	36510.02
521.69	36708.96
521.86	36875.14
522.03	36622.36
522.20	36451.50
522.38	36535.76
522.55	36641.09
522.72	36596.62
522.89	36306.39
523.07	36605.98
523.24	36854.08
523.41	36865.78
523.58	37029.62
523.75	37464.96
523.92	37855.82
524.10	37647.52
524.27	38120.31
524.44	37483.68
524.61	37703.69
524.78	37832.42
524.96	37603.05
525.13	37689.65
525.30	38160.09
525.47	38199.88
525.64	37809.01
525.81	37982.21
525.98	37516.45
526.16	37797.31
526.33	37556.24
526.50	37635.81
526.67	37111.53
526.84	37647.52
527.01	37486.02
527.18	38101.58
527.36	38415.21
527.53	38717.14
527.70	38862.26
527.87	38412.87
528.04	38129.67
528.21	38761.61
528.38	39105.67
528.55	39208.65
528.72	38710.12
528.89	39379.51
529.07	39164.18
529.24	38752.25
529.41	39194.61
529.58	38930.13
529.75	39189.93
529.92	39150.14
530.09	39861.66
530.26	39185.25
530.43	39503.56
530.60	39590.16
530.77	39583.14
530.94	39929.54
531.11	39512.92
531.28	39756.34
531.46	40016.14
531.63	39950.60
531.80	39831.24
531.97	39833.58
532.14	39501.22
532.31	39548.03
532.48	39646.33
532.65	39503.56
532.82	39976.35
532.99	40055.93
533.16	39611.23
533.33	39915.50
533.50	40486.59
533.67	40184.66
533.84	40219.77
534.01	40144.87
534.18	40217.43
534.35	40795.54
534.52	40311.05
534.69	40397.65
534.86	40779.15
535.03	40781.49
535.20	40807.24
535.37	41160.66
535.54	41001.50
535.71	40781.49
535.88	41242.58
536.05	40844.69
536.22	41151.30
536.38	40760.43
536.55	40957.03
536.72	40945.33
536.89	41148.96
537.06	41249.60
537.23	41118.53
537.40	41366.63
537.57	41163.00
537.74	41684.94
537.91	41619.41
538.08	41500.04
538.25	41336.20
538.42	41713.03
538.59	41684.94
538.75	41890.91
538.92	41504.72
539.09	41773.88
539.26	41598.34
539.43	41626.43
539.60	41799.63
539.77	41584.30
539.94	41483.66
540.11	41631.11
540.28	41951.76
540.44	41993.89
540.61	41530.47
540.78	41684.94
540.95	41448.55
541.12	41799.63
541.29	42284.12
541.46	42249.01
541.62	41947.08
541.79	42150.71
541.96	41691.96
542.13	41677.92
542.30	42078.15
542.47	42251.35
542.63	42188.16
542.80	42557.96
542.97	42724.14
543.14	42965.21
543.31	42799.04
543.48	42986.28
543.64	43122.03
543.81	42850.53
543.98	43047.13
544.15	43353.74
544.32	43196.93
544.48	43316.29
544.65	43318.64
544.82	43335.02
544.99	42848.19
545.16	43540.99
545.32	42864.57
545.49	43433.32
545.66	43732.91
545.83	44119.10
546.00	43634.61
546.16	43634.61
546.33	43459.07
546.50	43028.41
546.67	43597.16
546.83	43386.51
547.00	43430.98
547.17	43023.73
547.34	43580.78
547.50	43461.41
547.67	43379.49
547.84	43679.08
548.00	43950.58
548.17	44030.16
548.34	44315.70
548.51	44280.60
548.67	44212.72
548.84	44322.72
549.01	44165.91
549.18	44179.95
549.34	43852.28
549.51	44371.88
549.68	43838.23
549.84	44498.26
550.01	44130.80
550.18	43973.98
550.34	44306.34
550.51	44191.65
550.68	44128.46
550.84	43854.62
551.01	44336.77
551.18	44196.34
551.34	44404.64
551.51	44172.93
551.68	44835.30
551.84	44500.61
552.01	44552.10
552.18	44832.96
552.34	44123.78
552.51	44739.34
552.68	44870.41
552.84	44666.78
553.01	44821.26
553.18	44776.79
553.34	45045.95
553.51	44519.33
553.67	44767.43
553.84	45027.23
554.01	44992.12
554.17	45162.98
554.34	45052.97
554.51	45174.68
554.67	44856.37
554.84	45317.45
555.00	44657.42
555.17	44835.30
555.33	45104.46
555.50	45268.30
555.67	44839.98
555.83	45034.25
556.00	45170.00
556.16	45485.97
556.33	45170.00
556.50	44835.30
556.66	45059.99
556.83	44769.77
556.99	45385.33
557.16	45242.56
557.32	45343.20
557.49	45460.23
557.65	45158.30
557.82	45338.52
557.98	45352.56
558.15	45181.70
558.32	45694.28
558.48	45322.13
558.65	45050.63
558.81	45104.46
558.98	45240.21
559.14	45106.80
559.31	45338.52
559.47	45310.43
559.64	45539.80
559.80	45083.40
559.97	45551.51
560.13	45478.95
560.30	45418.10
560.46	45319.79
560.63	45815.99
560.79	45921.31
560.96	45684.92
561.12	45345.54
561.29	45588.95
561.45	45488.31
561.61	45373.63
561.78	45628.74
561.94	45326.81
562.11	45612.36
562.27	45579.59
562.44	45928.33
562.60	46110.89
562.77	46005.57
562.93	45656.83
563.10	46220.90
563.26	45736.41
563.42	46263.03
563.59	45567.89
563.75	45684.92
563.92	45956.42
564.08	46120.26
564.24	46176.43
564.41	46017.27
564.57	45977.48
564.74	45979.82
564.90	45794.92
565.07	45940.04
565.23	45762.15
565.39	45675.55
565.56	45897.91
565.72	45432.14
565.88	45830.03
566.05	45645.13
566.21	45900.25
566.38	46113.23
566.54	45799.60
566.70	46190.47
566.87	46600.07
567.03	46248.99
567.19	46476.02
567.36	46366.01
567.52	45989.19
567.68	46120.26
567.85	45947.06
568.01	46358.99
568.17	46131.96
568.34	46466.66
568.50	46146.00
568.66	45883.86
568.83	46014.93
568.99	45717.68
569.15	45925.99
569.32	45902.59
569.48	45631.08
569.64	46248.99
569.81	45769.18
569.97	46050.04
570.13	45860.46
570.30	45691.94
570.46	45736.41
570.62	45635.77
570.78	45853.44
570.95	45869.82
571.11	46160.05
571.27	46302.82
571.43	46288.77
571.60	46337.93
571.76	46000.89
571.92	46178.77
572.09	45989.19
572.25	46171.75
572.41	46305.16
572.57	46113.23
572.74	46593.04
572.90	46450.27
573.06	46373.03
573.22	46408.14
573.38	46806.03
573.55	46003.23
573.71	46279.41
573.87	46150.68
574.03	46501.76
574.20	46232.60
574.36	46588.36
574.52	46508.79
574.68	46134.30
574.84	46494.74
575.01	45970.46
575.17	46342.61
575.33	45745.77
575.49	46017.27
575.65	46157.70
575.82	46571.98
575.98	46014.93
576.14	46305.16
576.30	46548.57
576.46	46190.47
576.62	46401.12
576.79	46333.24
576.95	46085.15
577.11	46293.46
577.27	46712.41
577.43	46438.57
577.59	45764.49
577.75	45584.27
577.92	45804.28
578.08	45947.06
578.24	45715.34
578.40	45801.94
578.56	46068.76
578.72	46302.82
578.88	46796.67
579.04	46131.96
579.21	45972.80
579.37	46583.68
579.53	46480.70
579.69	46003.23
579.85	45944.72
580.01	46904.34
580.17	45940.04
580.33	46466.66
580.49	46541.55
580.65	46689.01
580.82	46387.08
580.98	46021.95
581.14	46094.51
581.30	46609.43
581.46	46330.90
581.62	46342.61
581.78	46075.79
581.94	46293.46
582.10	46604.75
582.26	46504.10
582.42	46361.33
582.58	46789.65
582.74	46651.56
582.90	46532.19
583.06	46536.87
583.22	46384.74
583.38	46522.83
583.54	46658.58
583.70	46815.40
583.86	46370.69
584.02	46040.68
584.18	46319.20
584.34	46246.65
584.50	46129.62
584.66	45954.08
584.82	46394.10
584.98	46536.87
585.14	46061.74
585.30	46160.05
585.46	46681.98
585.62	45977.48
585.78	46309.84
585.94	46293.46
586.10	46333.24
586.26	45963.44
586.42	46443.25
586.58	46550.91
586.74	46176.43
586.90	46604.75
587.06	46178.77
587.22	46581.34
587.38	46557.94
587.54	46443.25
587.70	46724.11
587.86	46869.23
588.02	46550.91
588.18	46787.31
588.34	46209.20
588.49	45586.61
588.65	46106.21
588.81	45558.53
588.97	46129.62
589.13	45970.46
589.29	46026.63
589.45	46466.66
589.61	46164.73
589.77	46651.56
589.93	46138.98
590.08	46593.04
590.24	46714.75
590.40	46841.14
590.56	46990.94
590.72	46082.81
590.88	46667.94
591.04	46679.64
591.20	46993.28
591.35	46691.35
591.51	46913.70
591.67	46066.42
591.83	46691.35
591.99	46415.16
592.15	46597.73
592.31	47138.39
592.46	46389.42
592.62	46834.12
592.78	46693.69
592.94	46557.94
593.10	46574.32
593.26	46564.96
593.41	46628.15
593.57	46492.40
593.73	46408.14
593.89	46534.53
594.05	46518.15
594.20	46693.69
594.36	46801.35
594.52	46436.23
594.68	46155.36
594.84	46274.73
594.99	46934.76
595.15	46429.21
595.31	46405.80
595.47	46780.29
595.62	46827.10
595.78	46756.88
595.94	46703.05
596.10	46817.74
596.25	46557.94
596.41	46859.87
596.57	46457.29
596.73	46740.50
596.88	46206.86
597.04	46279.41
597.20	46412.82
597.36	46810.71
597.51	46665.60
597.67	46639.86
597.83	46803.69
597.99	46824.76
598.14	46763.90
598.30	46799.01
598.46	46487.72
598.61	46539.21
598.77	46295.80
598.93	46520.49
599.09	46831.78
599.24	47299.89
599.40	46632.83
599.56	46600.07
599.71	46700.71
599.87	46497.08
600.03	46497.08
600.18	46457.29
600.34	46548.57
600.50	46396.44
600.65	46492.40
600.81	46588.36
600.97	47079.88
601.12	47051.79
601.28	46838.80
601.44	46536.87
601.59	46246.65
601.75	46036.00
601.91	46597.73
602.06	46703.05
602.22	46728.80
602.37	46211.54
602.53	46300.48
602.69	46412.82
602.84	46199.83
603.00	46639.86
603.16	46225.58
603.31	46412.82
603.47	46923.06
603.62	46443.25
603.78	46513.47
603.94	46614.11
604.09	46958.17
604.25	46679.64
604.40	46195.15
604.56	46389.42
604.71	46829.44
604.87	46452.61
605.03	46532.19
605.18	46232.60
605.34	46740.50
605.49	46115.58
605.65	46714.75
605.80	45886.20
605.96	46543.89
606.12	46312.18
606.27	46445.59
606.43	46307.50
606.58	46415.16
606.74	46356.65
606.89	46288.77
607.05	46670.28
607.20	46436.23
607.36	46167.07
607.51	46270.05
607.67	46131.96
607.82	46225.58
607.98	45736.41
608.13	46117.92
608.29	46178.77
608.44	46321.54
608.60	46078.13
608.75	45883.86
608.91	46195.15
609.06	46080.47
609.22	46349.63
609.37	45794.92
609.53	46005.57
609.68	46033.66
609.84	45986.85
609.99	45628.74
610.15	45996.21
610.30	45656.83
610.46	45467.25
610.61	45799.60
610.76	45640.45
610.92	46082.81
611.07	45996.21
611.23	45851.09
611.38	45698.96
611.54	45942.38
611.69	45720.02
611.84	45909.61
612.00	45900.25
612.15	45823.01
612.31	46199.83
612.46	45635.77
612.62	45797.26
612.77	46066.42
612.92	45925.99
613.08	45551.51
613.23	45338.52
613.39	45352.56
613.54	45701.30
613.69	45198.09
613.85	44896.16
614.00	45556.19
614.15	45563.21
614.31	45551.51
614.46	45715.34
614.62	46021.95
614.77	45240.21
614.92	45104.46
615.08	45450.86
615.23	45368.94
615.38	45111.49
615.54	45006.16
615.69	45013.18
615.84	44978.07
616.00	45095.10
616.15	45067.02
616.30	45083.40
616.46	45256.60
616.61	45422.78
616.76	45558.53
616.92	44465.50
617.07	44954.67
617.22	44704.23
617.37	45174.68
617.53	45401.71
617.68	45272.98
617.83	44971.05
617.99	44964.03
618.14	44451.45
618.29	44678.49
618.45	44252.51
618.60	44781.47
618.75	44367.20
618.90	44994.46
619.06	44439.75
619.21	44865.73
619.36	45081.06
619.51	44652.74
619.67	44711.25
619.82	44474.86
619.97	44886.79
620.12	44404.64
620.28	44027.82
620.43	44828.28
620.58	44259.53
620.73	44545.08
620.89	44512.31
621.04	44311.02
621.19	44729.98
621.34	44404.64
621.49	44100.37
621.65	44240.81
621.80	44425.71
621.95	44205.70
622.10	44282.94
622.25	44041.86
622.41	43978.67
622.56	44271.23
622.71	44732.32
622.86	44659.76
623.01	44135.48
623.16	44116.76
623.32	43533.96
623.47	43950.58
623.62	43723.55
623.77	43959.94
623.92	43875.68
624.07	43997.39
624.23	43707.16
624.38	43796.10
624.53	43768.02
624.68	43536.30
624.83	43798.44
624.98	43782.06
625.13	43559.71
625.29	43810.15
625.44	43402.89
625.59	43232.04
625.74	43171.18
625.89	42997.98
626.04	43079.90
626.19	43646.31
626.34	43367.79
626.49	43545.67
626.65	43505.88
626.80	43414.60
626.95	43601.84
627.10	42939.47
627.25	43320.98
627.40	42752.23
627.55	42260.71
627.70	42906.70
627.85	42532.22
628.00	42925.42
628.15	42630.52
628.30	42866.91
628.45	43054.15
628.60	42983.94
628.76	43012.02
628.91	43014.37
629.06	42637.54
629.21	42609.45
629.36	42705.41
629.51	42770.95
629.66	42717.12
629.81	42232.63
629.96	42852.87
630.11	42272.42
630.26	42728.82
630.41	42646.90
630.56	42813.08
630.71	42923.08
630.86	42426.89
631.01	41998.57
631.16	42398.80
631.31	42143.69
631.46	42174.11
631.61	42794.36
631.76	42108.58
631.91	42195.18
632.06	42321.57
632.21	42052.41
632.36	42309.86
632.51	41989.21
632.66	42071.13
632.81	42026.66
632.96	42185.82
633.10	41928.36
633.25	42204.54
633.40	42366.04
633.55	42483.06
633.70	41436.84
633.85	41773.88
634.00	42014.96
634.15	41895.59
634.30	41696.64
634.45	41832.39
634.60	41933.04
634.75	41937.72
634.90	41844.10
635.05	41902.61
635.19	41523.44
635.34	42036.02
635.49	41801.97
635.64	41750.48
635.79	41560.89
635.94	41624.09
636.09	41453.23
636.24	41064.70
636.39	40940.65
636.53	41289.39
636.68	41624.09
636.83	41104.49
636.98	41263.64
637.13	41153.64
637.28	41661.54
637.43	41759.84
637.57	41471.95
637.72	41411.10
637.87	41062.36
638.02	41017.89
638.17	41263.64
638.32	41298.75
638.46	40919.59
638.61	41153.64
638.76	40893.84
638.91	41563.23
639.06	40968.74
639.20	40999.16
639.35	40938.31
639.50	40973.42
639.65	41289.39
639.80	40856.39
639.94	40914.90
640.09	40975.76
640.24	40896.18
640.39	40430.41
640.54	40645.74
640.68	40975.76
640.83	40615.32
640.98	40498.29
641.13	40467.86
641.27	40676.17
641.42	40982.78
641.57	40194.02
641.72	40657.45
641.86	40444.46
642.01	40140.19
642.16	40659.79
642.31	39927.20
642.45	40184.66
642.60	40392.97
642.75	40086.36
642.90	40624.68
643.04	40226.79
643.19	40154.23
643.34	40205.72
643.48	39845.28
643.63	40428.07
643.78	40084.01
643.93	40261.90
644.07	40184.66
644.22	39758.68
644.37	39833.58
644.51	39875.71
644.66	39751.66
644.81	40020.82
644.95	40268.92
645.10	39971.67
645.25	39999.76
645.39	40116.78
645.54	39833.58
645.69	39473.13
645.83	40044.23
645.98	39339.72
646.13	39742.30
646.27	40025.50
646.42	39791.45
646.57	39290.57
646.71	39356.11
646.86	40074.65
647.00	40034.86
647.15	39805.49
647.30	39461.43
647.44	39084.61
647.59	39328.02
647.74	39253.12
647.88	39012.05
648.03	39079.92
648.17	39288.23
648.32	39248.44
648.47	39494.20
648.61	38827.15
648.76	39227.38
648.90	39105.67
649.05	38909.07
649.20	39199.29
649.34	39449.73
649.49	38766.29
649.63	38684.37
649.78	39185.25
649.92	39339.72
650.07	39292.91
650.21	39339.72
650.36	39299.94
650.51	39412.28
650.65	39859.32
650.80	39386.54
650.94	39257.81
651.09	39225.04
651.23	38937.15
651.38	38899.70
651.52	38529.90
651.67	38801.40
651.81	38780.34
651.96	38714.80
652.10	38883.32
652.25	38373.08
652.39	38616.50
652.54	38586.07
652.68	38721.82
652.83	38326.27
652.97	39138.44
653.12	38471.39
653.26	38738.21
653.41	38366.06
653.55	38178.82
653.70	38419.89
653.84	38583.73
653.99	38293.50
654.13	37755.18
654.27	38286.48
654.42	38206.90
654.56	38085.20
654.71	38157.75
654.85	38333.29
655.00	38078.18
655.14	38146.05
655.29	37649.86
655.43	37699.01
655.57	37888.59
655.72	37551.56
655.86	37284.73
656.01	37188.77
656.15	37212.18
656.30	37249.63
656.44	36975.78
656.58	37359.63
656.73	37537.51
656.87	37610.07
657.01	37532.83
657.16	38110.94
657.30	37469.64
657.45	37301.12
657.59	37254.31
657.73	37434.53
657.88	37324.52
658.02	37979.87
658.16	37794.97
658.31	37904.98
658.45	37696.67
658.60	37645.18
658.74	37581.98
658.88	37418.14
659.03	36921.95
659.17	37277.71
659.31	36727.69
659.46	37202.82
659.60	37036.64
659.74	37041.32
659.89	36931.31
660.03	36671.51
660.17	36821.31
660.32	36811.95
660.46	37027.28
660.60	36975.78
660.74	36823.65
660.89	36673.85
661.03	36411.71
661.17	36491.29
661.32	36346.18
661.46	36886.84
661.60	36526.40
661.74	36294.69
661.89	36570.87
662.03	36833.01
662.17	35894.46
662.31	36067.66
662.46	36559.17
662.60	36257.24
662.74	36140.21
662.88	36198.73
663.03	35896.80
663.17	35962.33
663.31	35828.92
663.45	35658.06
663.60	35674.45
663.74	35768.07
663.88	35629.98
664.02	35566.78
664.17	35786.79
664.31	35292.94
664.45	35351.45
664.59	35356.13
664.73	35311.66
664.88	35697.85
665.02	34976.97
665.16	35075.27
665.30	35072.93
665.44	34923.13
665.59	34675.04
665.73	34939.52
665.87	34597.80
666.01	34806.11
666.15	35093.99
666.29	35201.66
666.44	34560.35
666.58	35173.57
666.72	34628.23
666.86	34916.11
667.00	34644.61
667.14	34022.03
667.28	34183.52
667.43	34822.49
667.57	34857.60
667.71	34466.73
667.85	34443.32
667.99	34359.06
668.13	34204.59
668.27	34600.14
668.41	34251.40
668.56	34075.86
668.70	34050.11
668.84	33551.58
668.98	33553.92
669.12	33563.28
669.26	33549.24
669.40	33567.96
669.54	33392.42
669.68	33415.83
669.82	33261.35
669.96	33460.30
670.10	33216.88
670.25	33638.18
670.39	33212.20
670.53	32704.31
670.67	33006.23
670.81	33120.92
670.95	32615.37
671.09	32816.65
671.23	32591.96
671.37	32861.12
671.51	32559.19
671.65	32678.56
671.79	32606.00
671.93	32751.12
672.07	32720.69
672.21	32453.87
672.35	32388.33
672.49	32320.46
672.63	32769.84
672.77	32128.53
672.91	32503.02
673.05	32449.19
673.19	31913.20
673.33	31974.06
673.47	31653.40
673.61	31611.28
673.75	31489.57
673.89	31433.39
674.03	31578.51
674.17	31515.31
674.31	31920.23
674.45	31524.68
674.59	31622.98
674.73	31405.31
674.87	31140.83
675.01	31377.22
675.15	31374.88
675.29	30852.94
675.43	31213.38
675.56	31000.40
675.70	30829.54
675.84	30593.14
675.98	29984.60
676.12	30623.57
676.26	30675.06
676.40	30164.82
676.54	31089.34
676.68	30548.67
676.82	30045.46
676.96	30118.01
677.10	29677.99
677.23	30476.12
677.37	29865.24
677.51	29603.10
677.65	29860.55
677.79	29563.31
677.93	29151.37
678.07	29099.88
678.21	28950.09
678.34	28910.30
678.48	28713.69
678.62	28868.17
678.76	28741.78
678.90	28432.83
679.04	28549.85
679.18	28472.62
679.31	28299.42
679.45	28201.11
679.59	28032.60
679.73	28142.60
679.87	28245.58
680.00	28142.60
680.14	27880.46
680.28	28217.50
680.42	27604.28
680.56	27707.26
680.70	28102.81
680.83	28116.86
680.97	27665.13
681.11	27648.75
681.25	27173.62
681.39	27115.11
681.52	27302.35
681.66	27410.01
681.80	26890.41
681.94	26981.70
682.07	26930.20
682.21	26728.92
682.35	27337.46
682.49	26803.82
682.62	26607.21
682.76	26567.42
682.90	26181.23
683.04	26497.20
683.17	26256.13
683.31	25788.02
683.45	26040.80
683.59	25738.87
683.72	25909.73
683.86	26031.44
684.00	25717.81
684.13	25755.26
684.27	25640.57
684.41	25270.76
684.55	25207.57
684.68	25415.88
684.82	25413.54
684.96	25291.83
685.09	24900.96
685.23	24957.13
685.37	24961.81
685.50	24882.24
685.64	24577.97
685.78	24844.79
685.91	24350.93
686.05	24332.21
686.19	24229.23
686.32	24233.91
686.46	23587.92
686.60	23452.17
686.73	23161.94
686.87	23173.64
687.01	23353.87
687.14	22972.36
687.28	23201.73
687.42	23278.97
687.55	23150.24
687.69	23192.37
687.82	23110.45
687.96	23140.88
688.10	22892.78
688.23	22892.78
688.37	22466.80
688.50	22843.63
688.64	22700.86
688.78	22733.62
688.91	22731.28
689.05	22628.30
689.18	22630.64
689.32	21624.21
689.46	22001.04
689.59	22169.55
689.73	22228.07
689.86	21986.99
690.00	21785.71
690.13	21792.73
690.27	21664.00
690.41	21692.08
690.54	21537.61
690.68	21193.55
690.81	21488.46
690.95	21343.35
691.08	21142.06
691.22	21153.76
691.35	21231.00
691.49	21378.45
691.62	20718.42
691.76	20922.05
691.89	20870.56
692.03	20636.50
692.16	20533.52
692.30	20746.51
692.43	19995.20
692.57	20271.38
692.70	20020.94
692.84	20173.08
692.97	19985.83
693.11	19983.49
693.24	19660.50
693.38	19564.54
693.51	19744.76
693.65	19901.58
693.78	19803.27
693.92	19660.50
694.05	19257.93
694.19	19573.90
694.32	19487.30
694.45	19426.45
694.59	19007.49
694.72	18911.53
694.86	19176.01
694.99	18843.65
695.13	18508.96
695.26	18665.77
695.39	18640.03
695.53	19016.85
695.66	18778.12
695.80	18820.25
695.93	18455.12
696.07	18420.02
696.20	18338.10
696.33	18317.03
696.47	18492.57
696.60	17839.56
696.73	18061.91
696.87	18228.09
697.00	17940.21
697.14	17841.90
697.27	17577.42
697.40	17811.48
697.54	17598.49
697.67	17336.35
697.80	17458.06
697.94	17153.79
698.07	17088.25
698.21	17123.36
698.34	17287.20
698.47	17415.93
698.61	17048.46
698.74	16751.21
698.87	16657.59
699.01	16460.99
699.14	16411.84
699.27	16346.30
699.40	16627.17
699.54	16184.80
699.67	16109.91
699.80	16198.85
699.94	16027.99
700.07	16119.27
700.20	16142.67
700.34	15992.88
700.47	16266.72
700.60	16184.80
700.73	15885.22
700.87	15978.84
701.00	15679.25
701.13	15758.83
701.26	15463.92
701.40	15585.63
701.53	15091.77
701.66	15396.04
701.79	15108.16
701.93	15166.67
702.06	14867.08
702.19	15091.77
702.32	14941.98
702.46	14651.75
702.59	15208.80
702.72	14810.91
702.85	14963.04
702.99	14925.60
703.12	14459.83
703.25	14476.21
703.38	14352.16
703.51	14537.07
703.65	14438.76
703.78	13958.96
703.91	14265.57
704.04	14242.16
704.17	14064.28
704.31	13984.70
704.44	14015.13
704.57	13886.40
704.70	14029.17
704.83	13888.74
704.96	13757.67
705.10	13846.61
705.23	13701.50
>>>>>End Processed Spectral Data<<<<<
