SpectraSuite Data File
++++++++++++++++++++++++++++++++++++
Date: Fri Oct 25 10:48:25 EDT 2013
User: price-jones
Dark Spectrum Present: No
Reference Spectrum Present: No
Number of Sampled Component Spectra: 1
Spectrometers: USB2+H05261
Integration Time (usec): 100000 (USB2+H05261)
Spectra Averaged: 1 (USB2+H05261)
Boxcar Smoothing: 0 (USB2+H05261)
Correct for Electrical Dark: No (USB2+H05261)
Strobe/Lamp Enabled: No (USB2+H05261)
Correct for Detector Non-linearity: No (USB2+H05261)
Correct for Stray Light: No (USB2+H05261)
Number of Pixels in Processed Spectrum: 2048
>>>>>Begin Processed Spectral Data<<<<<
365.73	126.39
365.92	126.39
366.12	126.39
366.32	63.19
366.52	14.04
366.72	74.90
366.91	42.13
367.11	2.34
367.31	107.66
367.51	2.34
367.70	46.81
367.90	9.36
368.10	0.00
368.30	67.88
368.49	0.00
368.69	88.94
368.89	42.13
369.09	88.94
369.28	110.01
369.48	133.41
369.68	91.28
369.87	124.05
370.07	67.88
370.27	110.01
370.47	100.64
370.66	381.51
370.86	442.36
371.06	458.74
371.25	433.00
371.45	564.07
371.65	498.53
371.84	540.66
372.04	407.25
372.24	596.84
372.44	496.19
372.63	489.17
372.83	550.03
373.03	519.60
373.22	517.26
373.42	538.32
373.62	561.73
373.81	531.30
374.01	606.20
374.21	599.18
374.40	458.74
374.60	645.99
374.79	519.60
374.99	645.99
375.19	653.01
375.38	580.45
375.58	561.73
375.78	662.37
375.97	615.56
376.17	648.33
376.37	505.56
376.56	634.29
376.76	657.69
376.95	582.79
377.15	610.88
377.35	641.31
377.54	627.26
377.74	650.67
377.93	578.11
378.13	599.18
378.33	592.16
378.52	561.73
378.72	744.29
378.91	711.52
379.11	664.71
379.31	674.07
379.50	695.14
379.70	676.41
379.89	641.31
380.09	765.36
380.28	650.67
380.48	688.12
380.68	723.23
380.87	709.18
381.07	702.16
381.26	746.63
381.46	704.50
381.65	690.46
381.85	690.46
382.04	678.76
382.24	741.95
382.43	744.29
382.63	692.80
382.83	704.50
383.02	770.04
383.22	779.40
383.41	695.14
383.61	704.50
383.80	830.89
384.00	685.78
384.19	777.06
384.39	751.31
384.58	753.65
384.78	753.65
384.97	732.59
385.17	830.89
385.36	802.80
385.56	805.14
385.75	898.77
385.95	882.38
386.14	856.64
386.34	720.88
386.53	847.27
386.72	744.29
386.92	767.70
387.11	901.11
387.31	858.98
387.50	933.87
387.70	760.67
387.89	842.59
388.09	861.32
388.28	873.02
388.48	933.87
388.67	884.72
388.86	915.15
389.06	961.96
389.25	926.85
389.45	976.00
389.64	861.32
389.84	957.28
390.03	1020.47
390.22	968.98
390.42	957.28
390.61	1001.75
390.81	959.62
391.00	1027.50
391.19	1008.77
391.39	1013.45
391.58	1013.45
391.78	980.68
391.97	1095.37
392.16	1057.92
392.36	1064.94
392.55	1062.60
392.75	1011.11
392.94	987.71
393.13	1022.81
393.33	910.47
393.52	994.73
393.71	1071.97
393.91	1074.31
394.10	1123.46
394.29	1167.93
394.49	1219.42
394.68	1242.82
394.88	1198.35
395.07	1245.16
395.26	1231.12
395.46	1191.33
395.65	1224.10
395.84	1174.95
396.04	1282.61
396.23	1238.14
396.42	1107.07
396.62	1198.35
396.81	1212.40
397.00	1177.29
397.19	1226.44
397.39	1235.80
397.58	1385.60
397.77	1327.08
397.97	1387.94
398.16	1455.81
398.35	1401.98
398.55	1399.64
398.74	1479.22
398.93	1535.39
399.12	1462.83
399.32	1380.92
399.51	1397.30
399.70	1528.37
399.90	1629.01
400.09	1451.13
400.28	1586.88
400.47	1579.86
400.67	1572.84
400.86	1563.48
401.05	1671.14
401.24	1668.80
401.44	1675.82
401.63	1598.59
401.82	1736.68
402.01	1638.38
402.21	1673.48
402.40	1682.85
402.59	1596.25
402.78	1699.23
402.97	1685.19
403.17	1673.48
403.36	1689.87
403.55	1905.20
403.74	1785.83
403.93	1760.08
404.13	1863.07
404.32	1795.19
404.51	1961.37
404.70	1849.02
404.89	1820.94
405.09	1813.92
405.28	1849.02
405.47	1750.72
405.66	1856.04
405.85	1809.23
406.05	1928.60
406.24	1870.09
406.43	1980.09
406.62	1856.04
406.81	2050.31
407.00	2059.67
407.20	1959.03
407.39	1996.48
407.58	2022.22
407.77	2022.22
407.96	2132.23
408.15	2195.42
408.34	2193.08
408.54	2160.31
408.73	2099.46
408.92	2183.72
409.11	2146.27
409.30	2256.28
409.49	2155.63
409.68	2207.13
409.87	2078.40
410.07	2169.68
410.26	2153.29
410.45	2324.15
410.64	2375.64
410.83	2326.49
411.02	2466.92
411.21	2441.18
411.40	2497.35
411.59	2537.14
411.78	2485.65
411.98	2466.92
412.17	2502.03
412.36	2509.05
412.55	2504.37
412.74	2551.18
412.93	2696.30
413.12	2628.42
413.31	2710.34
413.50	2822.69
413.69	2764.17
413.88	2843.75
414.07	2827.37
414.26	2705.66
414.45	2796.94
414.64	2724.38
414.83	2878.86
415.02	2960.78
415.22	2881.20
415.41	2942.05
415.60	3028.65
415.79	3019.29
415.98	3115.25
416.17	3094.19
416.36	3155.04
416.55	3145.68
416.74	3164.40
416.93	3162.06
417.12	3218.24
417.31	3220.58
417.50	3173.77
417.69	3297.81
417.88	3318.88
418.07	3206.53
418.26	3300.16
418.45	3311.86
418.64	3473.36
418.83	3449.95
419.02	3433.57
419.21	3517.83
419.39	3478.04
419.58	3435.91
419.77	3452.29
419.96	3492.08
420.15	3646.55
420.34	3576.34
420.53	3707.41
420.72	3655.92
420.91	3681.66
421.10	3632.51
421.29	3765.92
421.48	3646.55
421.67	3768.26
421.86	3566.98
422.05	3653.58
422.24	3660.60
422.43	3674.64
422.61	3719.11
422.80	3845.50
422.99	3733.15
423.18	3777.62
423.37	3857.20
423.56	3896.99
423.75	3817.41
423.94	3728.47
424.13	3552.93
424.32	3595.06
424.50	3709.75
424.69	3934.44
424.88	3805.71
425.07	3726.13
425.26	3805.71
425.45	3735.50
425.64	3831.46
425.83	3817.41
426.01	3885.29
426.20	4018.70
426.39	3889.97
426.58	3826.78
426.77	3763.58
426.96	3967.21
427.15	3831.46
427.33	3859.54
427.52	4025.72
427.71	3981.25
427.90	3997.64
428.09	4067.85
428.28	4030.40
428.46	4072.53
428.65	4046.79
428.84	4117.00
429.03	4028.06
429.22	3934.44
429.40	4044.45
429.59	4030.40
429.78	4039.76
429.97	3833.80
430.16	3904.01
430.34	4011.68
430.53	4088.92
430.72	4107.64
430.91	4170.83
431.10	4255.09
431.28	4344.03
431.47	4524.26
431.66	4575.75
431.85	4334.67
432.03	4395.53
432.22	4458.72
432.41	4393.19
432.60	4407.23
432.79	4521.92
432.97	4603.83
433.16	4510.21
433.35	4458.72
433.54	4650.64
433.72	4528.94
433.91	4475.10
434.10	4737.24
434.28	4533.62
434.47	4723.20
434.66	4681.07
434.85	4734.90
435.03	4816.82
435.22	4795.76
435.41	4830.87
435.59	4931.51
435.78	4947.89
435.97	4926.83
436.16	5034.49
436.34	4863.63
436.53	4992.36
436.72	5027.47
436.90	5027.47
437.09	5123.43
437.28	5006.41
437.46	4933.85
437.65	5043.85
437.84	5177.26
438.02	5095.35
438.21	5069.60
438.40	5125.77
438.58	5097.69
438.77	5167.90
438.96	5233.44
439.14	5460.47
439.33	5654.73
439.52	5455.79
439.70	5331.74
439.89	5427.70
440.08	5432.38
440.26	5434.72
440.45	5446.43
440.63	5661.76
440.82	5818.57
441.01	5657.07
441.19	5788.14
441.38	5792.83
441.57	5870.06
441.75	5984.75
441.94	6043.26
442.12	5977.73
442.31	6113.48
442.50	6036.24
442.68	6092.41
442.87	6143.91
443.05	6157.95
443.24	6284.34
443.43	6272.64
443.61	6258.59
443.80	6590.95
443.98	6228.17
444.17	6073.69
444.35	6183.70
444.54	6338.17
444.73	6356.90
444.91	6197.74
445.10	6164.97
445.28	6267.95
445.47	6043.26
445.65	6106.46
445.84	6207.10
446.02	6242.21
446.21	6307.74
446.39	6352.21
446.58	6441.15
446.77	6420.09
446.95	6279.66
447.14	6413.07
447.32	6504.35
447.51	6392.00
447.69	6434.13
447.88	6658.82
448.06	6487.96
448.25	6396.68
448.43	6539.46
448.62	6548.82
448.80	6455.20
448.99	6623.72
449.17	6546.48
449.36	6710.32
449.54	6839.05
449.73	6843.73
449.91	6691.59
450.10	6848.41
450.28	6836.70
450.46	6956.07
450.65	6925.65
450.83	6892.88
451.02	6719.68
451.20	6796.92
451.39	6771.17
451.57	6906.92
451.76	6892.88
451.94	7012.24
452.13	6949.05
452.31	6998.20
452.49	6785.21
452.68	6960.75
452.86	6974.80
453.05	7143.32
453.23	7143.32
453.42	6979.48
453.60	6953.73
453.78	7117.57
453.97	7091.82
454.15	7091.82
454.34	7180.76
454.52	7300.13
454.70	7239.28
454.89	7384.39
455.07	7304.81
455.26	7342.26
455.44	7342.26
455.62	7410.14
455.81	7566.95
455.99	7557.59
456.17	7482.69
456.36	7506.10
456.54	7700.36
456.73	7625.47
456.91	7946.12
457.09	7721.43
457.28	7784.62
457.46	7796.32
457.64	7838.45
457.83	7585.68
458.01	7782.28
458.19	7948.46
458.38	7847.82
458.56	8112.30
458.74	7896.97
458.93	7845.48
459.11	8156.77
459.29	7962.50
459.48	8051.44
459.66	8091.23
459.84	8098.25
460.03	8243.37
460.21	8119.32
460.39	8372.10
460.57	8161.45
460.76	8203.58
460.94	8446.99
461.12	8358.05
461.31	8477.42
461.49	8119.32
461.67	8313.58
461.85	8580.40
462.04	8353.37
462.22	9132.77
462.40	8681.05
462.59	8500.83
462.77	8655.30
462.95	8538.27
463.13	8578.06
463.32	8650.62
463.50	8755.94
463.68	8678.71
463.86	8746.58
464.05	8482.10
464.23	8479.76
464.41	8709.13
464.59	8594.45
464.78	8826.16
464.96	8851.91
465.14	8664.66
465.32	8849.57
465.50	8821.48
465.69	8926.80
465.87	9165.54
466.05	8844.88
466.23	8917.44
466.41	8774.67
466.60	9114.05
466.78	9060.21
466.96	9020.42
467.14	8758.28
467.32	9071.92
467.51	9078.94
467.69	8844.88
467.87	9125.75
468.05	9097.66
468.23	9036.81
468.41	9111.71
468.60	9020.42
468.78	9357.46
468.96	9214.69
469.14	9432.36
469.32	9514.28
469.50	9004.04
469.69	9385.55
469.87	9268.52
470.05	9584.49
470.23	9427.68
470.41	9371.50
470.59	9619.60
470.77	9518.96
470.95	9870.04
471.14	9818.55
471.32	9509.60
471.50	9989.41
471.68	9958.98
471.86	9914.51
472.04	10012.81
472.22	10125.16
472.40	9947.28
472.58	9654.71
472.77	10122.82
472.95	10052.60
473.13	10565.18
473.31	10361.55
473.49	10097.07
473.67	10143.88
473.85	10633.05
474.03	10672.84
474.21	10672.84
474.39	10511.35
474.57	10607.31
474.75	10892.85
474.93	10869.45
475.12	11044.99
475.30	10806.25
475.48	10904.56
475.66	10902.22
475.84	11042.65
476.02	10998.18
476.20	11054.35
476.38	11372.66
476.56	11520.12
476.74	11513.10
476.92	11468.62
477.10	11360.96
477.28	11683.95
477.46	11728.42
477.64	11637.14
477.82	11878.22
478.00	12355.69
478.18	12285.47
478.36	12128.66
478.54	12224.62
478.72	12168.45
478.90	12414.20
479.08	12723.15
479.26	12627.19
479.44	12805.07
479.62	13020.40
479.80	12765.28
479.98	13067.21
480.16	13280.20
480.34	13022.74
480.52	13327.01
480.70	13373.82
480.88	13011.04
481.06	13556.38
481.24	13584.47
481.41	13675.75
481.59	14019.81
481.77	14012.79
481.95	13778.73
482.13	14382.59
482.31	14104.07
482.49	14628.35
482.67	14382.59
482.85	14497.28
483.03	14728.99
483.21	14834.32
483.39	14801.55
483.57	15145.61
483.74	15070.71
483.92	15161.99
484.10	15110.50
484.28	15302.42
484.46	15384.34
484.64	15885.22
484.82	15510.73
485.00	15765.85
485.18	16278.43
485.35	16025.65
485.53	15520.09
485.71	15983.52
485.89	16079.48
486.07	16170.76
486.25	16386.09
486.43	16542.91
486.61	16622.48
486.78	16723.13
486.96	17226.34
487.14	17252.09
487.32	17165.49
487.50	17195.92
487.68	17551.68
487.85	17841.90
488.03	18174.26
488.21	18260.86
488.39	17994.04
488.57	18422.36
488.75	18207.03
488.92	18508.96
489.10	18817.91
489.28	18850.67
489.46	19147.92
489.64	19236.86
489.81	19468.58
489.99	19431.13
490.17	19356.23
490.35	20030.30
490.53	19672.20
490.70	19803.27
490.88	19901.58
491.06	20133.29
491.24	19971.79
491.41	20243.29
491.59	20297.13
491.77	20407.13
491.95	20645.87
492.13	20739.49
492.30	20982.90
492.48	21212.28
492.66	21455.69
492.84	21104.61
493.01	21568.04
493.19	21366.75
493.37	21708.47
493.54	22141.47
493.72	21851.24
493.90	21696.77
494.08	22506.59
494.25	22427.01
494.43	22520.63
494.61	22485.53
494.79	23063.64
494.96	22689.15
495.14	23183.01
495.32	22890.44
495.49	23080.02
495.67	23358.55
495.85	23311.74
496.02	23751.76
496.20	24168.37
496.38	23707.29
496.55	23765.80
496.73	24196.46
496.91	24107.52
497.09	23868.78
497.26	24498.39
497.44	24376.68
497.62	24444.56
497.79	24751.17
497.97	24622.44
498.14	24692.65
498.32	24891.60
498.50	25226.29
498.67	25582.06
498.85	25429.92
499.03	25930.80
499.20	25607.80
499.38	25830.15
499.56	25755.26
499.73	25949.52
499.91	26075.91
500.08	26075.91
500.26	25963.56
500.44	25937.82
500.61	25935.48
500.79	26202.30
500.97	26134.42
501.14	26834.24
501.32	26515.93
501.49	26377.84
501.67	26689.13
501.84	26630.62
502.02	26714.87
502.20	27260.22
502.37	27358.52
502.55	27159.58
502.72	27225.11
502.90	27527.04
503.07	27400.65
503.25	27644.07
503.43	27431.08
503.60	27587.89
503.78	27527.04
503.95	27782.16
504.13	27775.14
504.30	27777.48
504.48	28056.00
504.65	28226.86
504.83	28196.43
505.01	28194.09
505.18	28479.64
505.36	28629.43
505.53	28453.89
505.71	28748.80
505.88	28510.07
506.06	28664.54
506.23	28746.46
506.41	28781.57
506.58	29345.64
506.76	28882.21
506.93	29502.45
507.11	29280.10
507.28	29130.31
507.46	29333.93
507.63	29483.73
507.81	29827.79
507.98	29563.31
508.16	29780.98
508.33	29923.75
508.50	30211.64
508.68	29881.62
508.85	30754.64
509.03	30459.73
509.20	30548.67
509.38	30518.25
509.55	30579.10
509.73	30398.88
509.90	30759.32
510.08	30457.39
510.25	31051.89
510.42	30864.64
510.60	30888.05
510.77	31386.58
510.95	31407.65
511.12	31381.90
511.30	31428.71
511.47	31646.38
511.64	31658.09
511.82	31622.98
511.99	31737.66
512.17	31950.65
512.34	31693.19
512.51	32011.51
512.69	31990.44
512.86	31906.18
513.04	32297.05
513.21	32004.49
513.38	32163.64
513.56	32264.28
513.73	32046.62
513.90	32343.86
514.08	32151.94
514.25	32283.01
514.43	32961.76
514.60	32496.00
514.77	32912.61
514.95	32378.97
515.12	32730.05
515.29	32631.75
515.47	33125.60
515.64	33654.56
515.81	33163.05
515.99	32744.09
516.16	33149.01
516.33	33376.04
516.51	33369.02
516.68	32945.38
516.85	32716.01
517.03	32985.17
517.20	33670.95
517.37	33596.05
517.54	33933.09
517.72	33633.50
517.89	33436.89
518.06	33912.02
518.24	33369.02
518.41	33708.40
518.58	33811.38
518.75	33656.90
518.93	34206.93
519.10	33940.11
519.27	34101.61
519.45	34450.35
519.62	34646.95
519.79	34581.42
519.96	35023.78
520.14	35042.50
520.31	35070.59
520.48	35049.52
520.65	34941.86
520.83	35246.13
521.00	35550.40
521.17	35321.02
521.34	35358.47
521.52	35618.27
521.69	35665.08
521.86	35637.00
522.03	35634.66
522.20	36027.87
522.38	35800.83
522.55	35981.06
522.72	36020.84
522.89	35770.41
523.07	35906.16
523.24	35742.32
523.41	36140.21
523.58	36051.27
523.75	36486.61
523.92	36781.52
524.10	36411.71
524.27	36772.16
524.44	36594.28
524.61	36996.85
524.78	36837.69
524.96	36856.42
525.13	36732.37
525.30	37467.30
525.47	37240.26
525.64	37340.91
525.81	37020.25
525.98	36940.68
526.16	36517.04
526.33	36687.90
526.50	36849.39
526.67	36863.44
526.84	37001.53
527.01	37125.58
527.18	37350.27
527.36	37780.93
527.53	37956.47
527.70	37890.93
527.87	38171.80
528.04	37610.07
528.21	37907.32
528.38	37820.72
528.55	38497.13
528.72	38590.75
528.89	38284.14
529.07	38656.29
529.24	38302.87
529.41	38504.15
529.58	37921.36
529.75	38012.64
529.92	38630.54
530.09	38398.83
530.26	38539.26
530.43	38293.50
530.60	38127.33
530.77	38274.78
530.94	39248.44
531.11	38714.80
531.28	38787.36
531.46	38682.03
531.63	39100.99
531.80	39056.52
531.97	38466.70
532.14	39026.09
532.31	38871.62
532.48	38918.43
532.65	38918.43
532.82	38995.67
532.99	39772.72
533.16	38899.70
533.33	39271.85
533.50	39655.70
533.67	38885.66
533.84	39037.80
534.01	39636.97
534.18	39557.39
534.35	40051.25
534.52	39470.79
534.69	39838.26
534.86	40170.61
535.03	39526.97
535.20	40032.52
535.37	40407.01
535.54	40336.79
535.71	39952.94
535.88	40247.85
536.05	40502.97
536.22	40399.99
536.38	40360.20
536.55	40215.08
536.72	40037.20
536.89	40016.14
537.06	40322.75
537.23	40568.51
537.40	40589.57
537.57	40498.29
537.74	40378.92
537.91	40879.80
538.08	40928.95
538.25	40814.26
538.42	40683.19
538.59	40886.82
538.75	40505.31
538.92	40718.30
539.09	40849.37
539.26	40636.38
539.43	41170.02
539.60	40938.31
539.77	40566.16
539.94	41188.75
540.11	40854.05
540.28	41291.73
540.44	40814.26
540.61	40987.46
540.78	41170.02
540.95	40821.28
541.12	40870.43
541.29	41432.16
541.46	41141.94
541.62	41249.60
541.79	41619.41
541.96	41282.37
542.13	41528.13
542.30	41240.24
542.47	41844.10
542.63	41750.48
542.80	41991.55
542.97	42099.22
543.14	42096.88
543.31	42167.09
543.48	42012.62
543.64	42658.60
543.81	42586.05
543.98	42602.43
544.15	42202.20
544.32	42902.02
544.48	42838.83
544.65	42309.86
544.82	42794.36
544.99	42639.88
545.16	42719.46
545.32	42312.20
545.49	42792.01
545.66	42426.89
545.83	42792.01
546.00	42761.59
546.16	42731.16
546.33	42824.78
546.50	42543.92
546.67	42658.60
546.83	42555.62
547.00	42560.30
547.17	42909.04
547.34	42735.84
547.50	43082.24
547.67	42836.48
547.84	43325.66
548.00	43196.93
548.17	43246.08
548.34	43098.62
548.51	43643.97
548.67	43524.60
548.84	43360.76
549.01	43250.76
549.18	43430.98
549.34	43887.39
549.51	43590.14
549.68	43428.64
549.84	43381.83
550.01	43875.68
550.18	43536.30
550.34	43367.79
550.51	43421.62
550.68	43206.29
550.84	43503.54
551.01	43728.23
551.18	43660.35
551.34	43576.09
551.51	43758.66
551.68	43973.98
551.84	43824.19
552.01	43683.76
552.18	43613.54
552.34	43447.36
552.51	44285.28
552.68	43882.70
552.84	43962.28
553.01	44573.16
553.18	43924.83
553.34	43772.70
553.51	43515.24
553.67	44107.40
553.84	44222.08
554.01	44921.90
554.17	44495.92
554.34	44554.44
554.51	44516.99
554.67	44673.81
554.84	44376.56
555.00	44100.37
555.17	44083.99
555.33	44718.28
555.50	44421.03
555.67	44406.98
555.83	44767.43
556.00	44685.51
556.16	45221.49
556.33	44987.44
556.50	44470.18
556.66	44734.66
556.83	44378.90
556.99	44596.57
557.16	44896.16
557.32	44830.62
557.49	44949.99
557.65	44498.26
557.82	44547.42
557.98	44720.62
558.15	44835.30
558.32	45010.84
558.48	44598.91
558.65	44463.16
558.81	44837.64
558.98	45085.74
559.14	45511.72
559.31	44994.46
559.47	44811.90
559.64	45155.96
559.80	45247.24
559.97	44973.39
560.13	45368.94
560.30	45272.98
560.46	45125.53
560.63	44980.42
560.79	45062.33
560.96	45144.25
561.12	45226.17
561.29	45242.56
561.45	45277.66
561.61	44914.88
561.78	44971.05
561.94	44797.85
562.11	44786.15
562.27	45003.82
562.44	45272.98
562.60	45867.48
562.77	45024.89
562.93	45043.61
563.10	45242.56
563.26	44952.33
563.42	45523.42
563.59	45378.31
563.75	45233.19
563.92	46003.23
564.08	45331.50
564.24	45677.90
564.41	45125.53
564.57	45397.03
564.74	45371.28
564.90	45600.66
565.07	45474.27
565.23	45567.89
565.39	45638.11
565.56	45731.73
565.72	45750.45
565.88	45485.97
566.05	45500.01
566.21	45584.27
566.38	45350.22
566.54	45642.79
566.70	45703.64
566.87	46059.40
567.03	45645.13
567.19	46497.08
567.36	45848.75
567.52	45511.72
567.68	45659.17
567.85	45525.76
568.01	45834.71
568.17	45895.56
568.34	45724.71
568.50	45743.43
568.66	45439.16
568.83	45801.94
568.99	45467.25
569.15	45453.20
569.32	45263.62
569.48	44975.73
569.64	46286.43
569.81	45703.64
569.97	45556.19
570.13	45371.28
570.30	45450.86
570.46	45404.05
570.62	45184.04
570.78	45359.58
570.95	45544.48
571.11	45624.06
571.27	46066.42
571.43	45500.01
571.60	45621.72
571.76	45897.91
571.92	45909.61
572.09	46036.00
572.25	45937.69
572.41	45937.69
572.57	45996.21
572.74	46150.68
572.90	45762.15
573.06	46078.13
573.22	46183.45
573.38	45776.20
573.55	45312.77
573.71	45736.41
573.87	45867.48
574.03	45476.61
574.20	45881.52
574.36	45865.14
574.52	45827.69
574.68	45867.48
574.84	45771.52
575.01	45752.79
575.17	45673.21
575.33	45890.88
575.49	45916.63
575.65	45694.28
575.82	46199.83
575.98	45731.73
576.14	46195.15
576.30	45897.91
576.46	45837.05
576.62	45652.15
576.79	45074.04
576.95	45635.77
577.11	45436.82
577.27	45986.85
577.43	45801.94
577.59	45617.04
577.75	46277.07
577.92	45336.18
578.08	45909.61
578.24	45659.17
578.40	45771.52
578.56	46366.01
578.72	46164.73
578.88	46064.08
579.04	45837.05
579.21	45544.48
579.37	45853.44
579.53	46174.09
579.69	45720.02
579.85	45762.15
580.01	46260.69
580.17	46131.96
580.33	46267.71
580.49	46099.19
580.65	45958.76
580.82	46178.77
580.98	46073.45
581.14	45790.24
581.30	46131.96
581.46	45837.05
581.62	46384.74
581.78	45684.92
581.94	46265.37
582.10	46066.42
582.26	46103.87
582.42	45867.48
582.58	45853.44
582.74	45900.25
582.90	46068.76
583.06	46183.45
583.22	46190.47
583.38	46363.67
583.54	46256.01
583.70	46007.91
583.86	46148.34
584.02	45553.85
584.18	45869.82
584.34	45853.44
584.50	45841.73
584.66	46246.65
584.82	45610.02
584.98	46239.62
585.14	46216.22
585.30	46082.81
585.46	46230.26
585.62	45785.56
585.78	46108.55
585.94	45738.75
586.10	46349.63
586.26	46120.26
586.42	46010.25
586.58	46642.20
586.74	45998.55
586.90	46103.87
587.06	45975.14
587.22	46204.52
587.38	45837.05
587.54	46440.91
587.70	46349.63
587.86	46274.73
588.02	46265.37
588.18	46305.16
588.34	46143.66
588.49	45364.26
588.65	45954.08
588.81	45958.76
588.97	45886.20
589.13	45581.93
589.29	45729.39
589.45	45670.87
589.61	46000.89
589.77	46026.63
589.93	46160.05
590.08	46548.57
590.24	46092.17
590.40	46459.63
590.56	46401.12
590.72	46344.95
590.88	46190.47
591.04	46429.21
591.20	46731.14
591.35	46389.42
591.51	46443.25
591.67	46560.28
591.83	46347.29
591.99	46000.89
592.15	45977.48
592.31	46110.89
592.46	46281.75
592.62	46089.83
592.78	46380.06
592.94	46473.68
593.10	46546.23
593.26	46429.21
593.41	46719.43
593.57	46124.94
593.73	46120.26
593.89	46607.09
594.05	46454.95
594.20	46319.20
594.36	46199.83
594.52	46342.61
594.68	46321.54
594.84	46328.56
594.99	46543.89
595.15	46057.06
595.31	46689.01
595.47	46387.08
595.62	46581.34
595.78	46653.90
595.94	46703.05
596.10	46651.56
596.25	46866.89
596.41	46791.99
596.57	46326.22
596.73	46564.96
596.88	45911.95
597.04	46391.76
597.20	46614.11
597.36	46120.26
597.51	46560.28
597.67	46642.20
597.83	46784.97
597.99	46508.79
598.14	46337.93
598.30	46382.40
598.46	46260.69
598.61	46391.76
598.77	46288.77
598.93	46066.42
599.09	46555.60
599.24	46717.09
599.40	46443.25
599.56	46602.41
599.71	46534.53
599.87	46532.19
600.03	46422.19
600.18	46768.58
600.34	46389.42
600.50	46443.25
600.65	46508.79
600.81	46286.43
600.97	46782.63
601.12	46686.67
601.28	46646.88
601.44	46550.91
601.59	46335.59
601.75	46319.20
601.91	46759.22
602.06	46267.71
602.22	46403.46
602.37	46363.67
602.53	46410.48
602.69	46466.66
602.84	46103.87
603.00	46499.42
603.16	46344.95
603.31	46302.82
603.47	46258.35
603.62	46354.31
603.78	46312.18
603.94	46553.26
604.09	46403.46
604.25	46588.36
604.40	46911.36
604.56	46504.10
604.71	46417.50
604.87	46518.15
605.03	46461.97
605.18	46445.59
605.34	46321.54
605.49	45755.13
605.65	45869.82
605.80	46169.41
605.96	46536.87
606.12	46209.20
606.27	46368.35
606.43	46323.88
606.58	46398.78
606.74	46082.81
606.89	46387.08
607.05	46471.34
607.20	46670.28
607.36	46370.69
607.51	46087.49
607.67	46185.79
607.82	46300.48
607.98	46305.16
608.13	45972.80
608.29	46106.21
608.44	45851.09
608.60	45673.21
608.75	45844.07
608.91	45937.69
609.06	45766.84
609.22	46092.17
609.37	45691.94
609.53	46195.15
609.68	46017.27
609.84	45881.52
609.99	46167.07
610.15	45925.99
610.30	46110.89
610.46	45155.96
610.61	45595.98
610.76	45996.21
610.92	45963.44
611.07	46057.06
611.23	45249.58
611.38	46253.67
611.54	45649.81
611.69	45148.93
611.84	45329.16
612.00	45619.38
612.15	45322.13
612.31	45691.94
612.46	45862.80
612.62	45687.26
612.77	45780.88
612.92	45759.81
613.08	45553.85
613.23	45048.29
613.39	45450.86
613.54	45270.64
613.69	44891.48
613.85	45132.55
614.00	45523.42
614.15	45624.06
614.31	45600.66
614.46	44938.29
614.62	45455.54
614.77	45385.33
614.92	44987.44
615.08	45200.43
615.23	45418.10
615.38	45343.20
615.54	45109.14
615.69	45193.40
615.84	44884.45
616.00	44985.10
616.15	45064.67
616.30	45397.03
616.46	44786.15
616.61	44872.75
616.76	44933.60
616.92	44882.11
617.07	44790.83
617.22	45003.82
617.37	44807.22
617.53	45221.49
617.68	45050.63
617.83	45146.59
617.99	45343.20
618.14	44875.09
618.29	45099.78
618.45	45038.93
618.60	44280.60
618.75	44531.03
618.90	44638.70
619.06	44701.89
619.21	45029.57
619.36	44697.21
619.51	44655.08
619.67	44694.87
619.82	44512.31
619.97	44594.23
620.12	44205.70
620.28	44371.88
620.43	44514.65
620.58	44683.17
620.73	44100.37
620.89	44381.24
621.04	44243.15
621.19	44287.62
621.34	44254.85
621.49	44023.14
621.65	44009.09
621.80	44467.84
621.95	44062.93
622.10	43976.33
622.25	44198.68
622.41	44201.02
622.56	44027.82
622.71	44201.02
622.86	43835.89
623.01	44652.74
623.16	44172.93
623.32	44397.62
623.47	44051.22
623.62	44032.50
623.77	43943.56
623.92	44224.42
624.07	44039.52
624.23	43863.98
624.38	43592.48
624.53	43306.93
624.68	43908.45
624.83	43564.39
624.98	43739.93
625.13	43744.61
625.29	43927.17
625.44	43817.17
625.59	43466.09
625.74	43571.41
625.89	43194.59
626.04	43297.57
626.19	43440.34
626.34	43328.00
626.49	43335.02
626.65	43573.75
626.80	43173.52
626.95	43189.91
627.10	42920.74
627.25	43133.73
627.40	42665.63
627.55	42784.99
627.70	42672.65
627.85	42667.97
628.00	42845.85
628.15	43370.13
628.30	42873.93
628.45	42543.92
628.60	42784.99
628.76	43175.86
628.91	43201.61
629.06	42462.00
629.21	42759.25
629.36	42436.25
629.51	42469.02
629.66	42822.44
629.81	42618.81
629.96	42696.05
630.11	42581.37
630.26	42682.01
630.41	42656.26
630.56	41949.42
630.71	42525.19
630.86	43035.43
631.01	42382.42
631.16	42466.68
631.31	42387.10
631.46	42162.41
631.61	42534.56
631.76	42389.44
631.91	42459.66
632.06	42351.99
632.21	42176.45
632.36	42569.66
632.51	42230.29
632.66	42466.68
632.81	42026.66
632.96	42204.54
633.10	42082.83
633.25	42010.28
633.40	42099.22
633.55	42511.15
633.70	42199.86
633.85	42590.73
634.00	41773.88
634.15	42000.91
634.30	42066.45
634.45	41993.89
634.60	41546.85
634.75	42265.39
634.90	41961.12
635.05	41911.97
635.19	41876.86
635.34	41879.21
635.49	42115.60
635.64	41977.51
635.79	41729.41
635.94	41563.23
636.09	41722.39
636.24	41607.70
636.39	41385.35
636.53	41982.19
636.68	41558.55
636.83	41495.36
636.98	41511.74
637.13	41373.65
637.28	41319.82
637.43	41614.72
637.57	41251.94
637.72	41581.96
637.87	41713.03
638.02	41336.20
638.17	41265.99
638.32	41219.17
638.46	41031.93
638.61	41015.55
638.76	40713.62
638.91	41258.96
639.06	40917.25
639.20	41553.87
639.35	41368.97
639.50	41198.11
639.65	41504.72
639.80	41663.88
639.94	41006.19
640.09	40999.16
640.24	41024.91
640.39	40767.45
640.54	40655.11
640.68	40481.91
640.83	40793.20
640.98	40566.16
641.13	40566.16
641.27	40353.18
641.42	41060.02
641.57	40968.74
641.72	40643.40
641.86	40285.30
642.01	40353.18
642.16	40439.78
642.31	40392.97
642.45	40926.61
642.60	39840.60
642.75	40442.12
642.90	40142.53
643.04	40355.52
643.19	40203.38
643.34	40360.20
643.48	40514.67
643.63	40360.20
643.78	40552.12
643.93	40137.85
644.07	39826.56
644.22	40114.44
644.37	40322.75
644.51	39936.56
644.66	40163.59
644.81	40289.98
644.95	40030.18
645.10	40360.20
645.25	40446.80
645.39	40320.41
645.54	40299.34
645.69	40208.06
645.83	39896.77
645.98	39894.43
646.13	40210.40
646.27	39959.97
646.42	39613.57
646.57	39749.32
646.71	39665.06
646.86	39634.63
647.00	39779.74
647.15	39515.26
647.30	39943.58
647.44	39679.10
647.59	39533.99
647.74	39636.97
647.88	39519.95
648.03	39234.40
648.17	39662.72
648.32	39023.75
648.47	39545.69
648.61	39379.51
648.76	39819.53
648.90	39559.73
649.05	39676.76
649.20	39428.66
649.34	39470.79
649.49	38946.51
649.63	38953.54
649.78	39374.83
649.92	39278.87
650.07	39384.19
650.21	39306.96
650.36	39236.74
650.51	39098.65
650.65	39236.74
650.80	39604.20
650.94	39115.03
651.09	39489.52
651.23	39056.52
651.38	39009.71
651.52	38920.77
651.67	38822.47
651.81	38885.66
651.96	38466.70
652.10	38927.79
652.25	38539.26
652.39	38546.28
652.54	38855.23
652.68	39122.05
652.83	38778.00
652.97	39119.71
653.12	39292.91
653.26	38590.75
653.41	38813.10
653.55	38038.39
653.70	38174.14
653.84	38576.71
653.99	38806.08
654.13	38670.33
654.27	38560.33
654.42	38576.71
654.56	38410.53
654.71	38377.76
654.85	38373.08
655.00	38366.06
655.14	38022.00
655.29	37916.68
655.43	37951.79
655.57	37771.57
655.72	37633.47
655.86	37507.08
656.01	37904.98
656.15	37521.13
656.30	37993.92
656.44	38082.86
656.58	37619.43
656.73	37495.38
656.87	37689.65
657.01	37310.48
657.16	37511.77
657.30	37352.61
657.45	37106.85
657.59	37724.75
657.73	37364.31
657.88	37724.75
658.02	37593.68
658.16	37659.22
658.31	37912.00
658.45	37579.64
658.60	37591.34
658.74	37691.99
658.88	37684.97
659.03	37233.24
659.17	37469.64
659.31	37261.33
659.46	36786.20
659.60	36980.46
659.74	37153.66
659.89	36666.83
660.03	37258.99
660.17	37287.07
660.32	36940.68
660.46	37572.62
660.60	37191.11
660.74	37062.38
660.89	37158.34
661.03	36348.52
661.17	36521.72
661.32	36842.37
661.46	36538.10
661.60	36404.69
661.74	36392.99
661.89	36577.89
662.03	36772.16
662.17	36336.82
662.31	36114.47
662.46	36533.42
662.60	36294.69
662.74	36240.86
662.88	36488.95
663.03	36072.34
663.17	36421.08
663.31	36355.54
663.45	36299.37
663.60	35999.78
663.74	35880.41
663.88	35435.71
664.02	35765.73
664.17	36081.70
664.31	35564.44
664.45	35599.55
664.59	35765.73
664.73	35751.68
664.88	35789.13
665.02	35351.45
665.16	35669.76
665.30	35552.74
665.44	35388.90
665.59	35494.22
665.73	35136.12
665.87	35124.42
666.01	35093.99
666.15	34827.17
666.29	35044.84
666.44	34646.95
666.58	35131.44
666.72	34836.53
666.86	35150.17
667.00	35393.58
667.14	34443.32
667.28	34843.56
667.43	34597.80
667.57	34628.23
667.71	34515.88
667.85	34888.03
667.99	34099.26
668.13	34258.42
668.27	33968.19
668.41	34249.06
668.56	34373.11
668.70	34501.84
668.84	34181.18
668.98	33649.88
669.12	33865.21
669.26	34157.78
669.40	33879.25
669.54	33816.06
669.68	34029.05
669.82	33820.74
669.96	33235.61
670.10	33092.83
670.25	33628.82
670.39	33771.59
670.53	33352.63
670.67	32961.76
670.81	33160.71
670.95	33462.64
671.09	33181.77
671.23	32992.19
671.37	33446.26
671.51	32882.19
671.65	33280.08
671.79	32910.27
671.93	32673.88
672.07	33010.92
672.21	32713.67
672.35	32720.69
672.49	32753.46
672.63	32503.02
672.77	32308.76
672.91	32329.82
673.05	32278.33
673.19	32191.73
673.33	32311.10
673.47	32369.61
673.61	32158.96
673.75	32109.81
673.89	31501.27
674.03	31967.04
674.17	31538.72
674.31	31494.25
674.45	31641.70
674.59	31763.41
674.73	31597.23
674.87	31508.29
675.01	31662.77
675.15	31566.81
675.29	31662.77
675.43	31697.88
675.56	31700.22
675.70	31267.22
675.84	31068.27
675.98	30249.08
676.12	30883.37
676.26	30609.53
676.40	30466.75
676.54	30637.61
676.68	30611.87
676.82	29972.90
676.96	30150.78
677.10	29965.88
677.23	30197.59
677.37	30085.25
677.51	30169.51
677.65	29905.02
677.79	29816.08
677.93	29607.78
678.07	29862.90
678.21	29355.00
678.34	29507.13
678.48	29195.84
678.62	29109.24
678.76	29195.84
678.90	28929.02
679.04	28723.05
679.18	29118.60
679.31	28652.84
679.45	28357.93
679.59	28491.34
679.73	28397.72
679.87	28421.13
680.00	28453.89
680.14	28088.77
680.28	28353.25
680.42	28292.40
680.56	27835.99
680.70	27814.93
680.83	27859.40
680.97	27484.91
681.11	27391.29
681.25	27304.69
681.39	27948.34
681.52	27644.07
681.66	27838.33
681.80	27475.55
681.94	27353.84
682.07	27199.37
682.21	26876.37
682.35	27026.17
682.49	26738.28
682.62	27159.58
682.76	26616.57
682.90	26368.48
683.04	26426.99
683.17	26904.46
683.31	26511.25
683.45	26281.88
683.59	26061.87
683.72	26146.12
683.86	25869.94
684.00	25867.60
684.13	26164.85
684.27	25635.89
684.41	25834.83
684.55	25238.00
684.68	25331.62
684.82	25266.08
684.96	25371.41
685.09	25207.57
685.23	25149.06
685.37	25085.86
685.50	24769.89
685.64	25090.54
685.78	24739.46
685.91	24622.44
686.05	24814.36
686.19	23978.79
686.32	24500.73
686.46	24374.34
686.60	23948.36
686.73	23770.48
686.87	23950.70
687.01	23704.95
687.14	23426.42
687.28	23487.28
687.42	23391.31
687.55	23328.12
687.69	23407.70
687.82	23194.71
687.96	23473.23
688.10	23253.22
688.23	23206.41
688.37	22679.79
688.50	22588.51
688.64	22925.55
688.78	22757.03
688.91	22242.11
689.05	22415.31
689.18	22122.74
689.32	22125.08
689.46	22047.85
689.59	22267.86
689.73	22464.46
689.86	22251.47
690.00	22092.32
690.13	22101.68
690.27	21956.57
690.41	21902.73
690.54	21743.58
690.68	21628.89
690.81	21404.20
690.95	21350.37
691.08	21359.73
691.22	21170.15
691.35	21280.15
691.49	21174.83
691.62	21434.63
691.76	21188.87
691.89	21448.67
692.03	21228.66
692.16	20783.96
692.30	20648.21
692.43	20746.51
692.57	20458.62
692.70	20203.50
692.84	20264.36
692.97	20219.89
693.11	19983.49
693.24	20170.74
693.38	19939.02
693.51	19747.10
693.65	20058.39
693.78	20105.20
693.92	19763.48
694.05	19618.37
694.19	19520.07
694.32	19545.81
694.45	19625.39
694.59	19548.15
694.72	19330.48
694.86	19101.11
694.99	18988.77
695.13	18789.82
695.26	18775.78
695.39	18766.42
695.53	18918.55
695.66	19087.07
695.80	18707.90
695.93	18771.10
696.07	18581.51
696.20	18780.46
696.33	18380.23
696.47	18333.42
696.60	18377.89
696.73	18415.34
696.87	18148.51
697.00	17937.87
697.14	18045.53
697.27	18038.51
697.40	17961.27
697.54	17605.51
697.67	17554.02
697.80	17516.57
697.94	17376.14
698.07	17366.78
698.21	17268.47
698.34	17186.55
698.47	17057.82
698.61	16856.54
698.74	16676.32
698.87	16842.50
699.01	16627.17
699.14	16753.55
699.27	16837.81
699.40	16594.40
699.54	16482.05
699.67	16236.30
699.80	16297.15
699.94	16381.41
700.07	16437.58
700.20	16145.02
700.34	15866.49
700.47	16119.27
700.60	15798.62
700.73	16372.05
700.87	15953.09
701.00	15644.14
701.13	15611.37
701.26	15892.24
701.40	15789.25
701.53	15627.76
701.66	15482.64
701.79	15410.09
701.93	15316.47
702.06	15049.64
702.19	15054.33
702.32	15477.96
702.46	15103.48
702.59	15108.16
702.72	14918.57
702.85	14843.68
702.99	14932.62
703.12	15002.83
703.25	14677.50
703.38	14693.88
703.51	14698.56
703.65	14516.00
703.78	14345.14
703.91	14553.45
704.04	14534.73
704.17	14239.82
704.31	14356.85
704.44	13834.91
704.57	13933.21
704.70	14075.98
704.83	14003.43
704.96	13989.38
705.10	13942.57
705.23	13947.25
>>>>>End Processed Spectral Data<<<<<
