SpectraSuite Data File
++++++++++++++++++++++++++++++++++++
Date: Fri Oct 25 10:46:55 EDT 2013
User: price-jones
Dark Spectrum Present: No
Reference Spectrum Present: No
Number of Sampled Component Spectra: 1
Spectrometers: USB2+H05261
Integration Time (usec): 100000 (USB2+H05261)
Spectra Averaged: 1 (USB2+H05261)
Boxcar Smoothing: 0 (USB2+H05261)
Correct for Electrical Dark: No (USB2+H05261)
Strobe/Lamp Enabled: No (USB2+H05261)
Correct for Detector Non-linearity: No (USB2+H05261)
Correct for Stray Light: No (USB2+H05261)
Number of Pixels in Processed Spectrum: 2048
>>>>>Begin Processed Spectral Data<<<<<
365.73	156.82
365.92	156.82
366.12	156.82
366.32	46.81
366.52	70.22
366.72	110.01
366.91	0.00
367.11	0.00
367.31	4.68
367.51	37.45
367.70	23.41
367.90	86.60
368.10	79.58
368.30	30.43
368.49	79.58
368.69	49.15
368.89	18.72
369.09	42.13
369.28	84.26
369.48	7.02
369.68	91.28
369.87	58.51
370.07	147.45
370.27	131.07
370.47	252.78
370.66	346.40
370.86	493.85
371.06	486.83
371.25	512.58
371.45	479.81
371.65	477.47
371.84	517.26
372.04	416.62
372.24	428.32
372.44	524.28
372.63	524.28
372.83	526.62
373.03	571.09
373.22	568.75
373.42	564.07
373.62	526.62
373.81	543.00
374.01	547.69
374.21	585.13
374.40	510.24
374.60	592.16
374.79	580.45
374.99	540.66
375.19	615.56
375.38	610.88
375.58	622.58
375.78	573.43
375.97	610.88
376.17	645.99
376.37	615.56
376.56	592.16
376.76	587.47
376.95	629.60
377.15	638.97
377.35	624.92
377.54	674.07
377.74	622.58
377.93	657.69
378.13	653.01
378.33	720.88
378.52	662.37
378.72	704.50
378.91	657.69
379.11	667.05
379.31	695.14
379.50	599.18
379.70	669.39
379.89	711.52
380.09	697.48
380.28	624.92
380.48	737.27
380.68	678.76
380.87	720.88
381.07	660.03
381.26	765.36
381.46	720.88
381.65	690.46
381.85	706.84
382.04	645.99
382.24	741.95
382.43	690.46
382.63	699.82
382.83	727.91
383.02	844.93
383.22	753.65
383.41	744.29
383.61	774.72
383.80	828.55
384.00	784.08
384.19	791.10
384.39	898.77
384.58	812.17
384.78	800.46
384.97	816.85
385.17	833.23
385.36	830.89
385.56	912.81
385.75	830.89
385.95	779.40
386.14	858.98
386.34	847.27
386.53	844.93
386.72	840.25
386.92	847.27
387.11	877.70
387.31	821.53
387.50	835.57
387.70	833.23
387.89	823.87
388.09	873.02
388.28	924.51
388.48	877.70
388.67	983.02
388.86	957.28
389.06	943.24
389.25	978.34
389.45	1036.86
389.64	896.43
389.84	931.53
390.03	1062.60
390.22	1022.81
390.42	1001.75
390.61	1011.11
390.81	1039.20
391.00	1050.90
391.19	994.73
391.39	1078.99
391.58	1083.67
391.78	1027.50
391.97	1039.20
392.16	1015.79
392.36	1039.20
392.55	1050.90
392.75	1041.54
392.94	997.07
393.13	1041.54
393.33	992.39
393.52	1029.84
393.71	1109.41
393.91	1181.97
394.10	1114.10
394.29	1228.78
394.49	1158.57
394.68	1200.69
394.88	1224.10
395.07	1226.44
395.26	1198.35
395.46	1228.78
395.65	1233.46
395.84	1254.53
396.04	1226.44
396.23	1170.27
396.42	1114.10
396.62	1149.20
396.81	1282.61
397.00	1217.08
397.19	1282.61
397.39	1352.83
397.58	1348.15
397.77	1476.88
397.97	1399.64
398.16	1392.62
398.35	1509.65
398.55	1376.24
398.74	1439.43
398.93	1514.33
399.12	1465.18
399.32	1516.67
399.51	1537.73
399.70	1584.54
399.90	1561.14
400.09	1600.93
400.28	1673.48
400.47	1570.50
400.67	1645.40
400.86	1514.33
401.05	1593.90
401.24	1703.91
401.44	1739.02
401.63	1795.19
401.82	1708.59
402.01	1661.78
402.21	1741.36
402.40	1771.79
402.59	1722.63
402.78	1748.38
402.97	1739.02
403.17	1760.08
403.36	1806.89
403.55	1813.92
403.74	1797.53
403.93	1888.81
404.13	1797.53
404.32	1799.87
404.51	1816.26
404.70	1928.60
404.89	1809.23
405.09	2031.58
405.28	1926.26
405.47	1961.37
405.66	1912.22
405.85	1832.64
406.05	1977.75
406.24	1881.79
406.43	1926.26
406.62	2087.76
406.81	2005.84
407.00	2139.25
407.20	2022.22
407.39	2052.65
407.58	2136.91
407.77	2094.78
407.96	2197.76
408.15	2235.21
408.34	2221.17
408.54	2284.36
408.73	2279.68
408.92	2263.30
409.11	2385.01
409.30	2310.11
409.49	2345.22
409.68	2260.96
409.87	2200.10
410.07	2272.66
410.26	2366.28
410.45	2319.47
410.64	2387.35
410.83	2413.09
411.02	2534.80
411.21	2490.33
411.40	2537.14
411.59	2647.15
411.78	2597.99
411.98	2541.82
412.17	2576.93
412.36	2534.80
412.55	2530.12
412.74	2712.68
412.93	2675.23
413.12	2703.32
413.31	2820.35
413.50	2796.94
413.69	2771.19
413.88	2857.79
414.07	2825.03
414.26	2902.26
414.45	2991.20
414.64	2928.01
414.83	3061.42
415.02	2972.48
415.22	3087.17
415.41	3000.57
415.60	3054.40
415.79	3150.36
415.98	3115.25
416.17	3204.19
416.36	3187.81
416.55	3283.77
416.74	3192.49
416.93	3190.15
417.12	3342.28
417.31	3314.20
417.50	3183.13
417.69	3337.60
417.88	3363.35
418.07	3478.04
418.26	3389.10
418.45	3396.12
418.64	3531.87
418.83	3590.38
419.02	3414.84
419.21	3562.30
419.39	3559.95
419.58	3398.46
419.77	3417.18
419.96	3630.17
420.15	3763.58
420.34	3833.80
420.53	3737.84
420.72	3758.90
420.91	3698.05
421.10	3815.07
421.29	3775.28
421.48	3878.27
421.67	3721.45
421.86	3791.67
422.05	3744.86
422.24	3693.37
422.43	3658.26
422.61	3784.65
422.80	3740.18
422.99	3831.46
423.18	3978.91
423.37	3953.16
423.56	3847.84
423.75	3889.97
423.94	3801.03
424.13	3705.07
424.32	3674.64
424.50	3894.65
424.69	4002.32
424.88	3946.14
425.07	3939.12
425.26	3913.38
425.45	3796.35
425.64	3810.39
425.83	3918.06
426.01	3868.91
426.20	3969.55
426.39	3950.82
426.58	3978.91
426.77	3922.74
426.96	4002.32
427.15	3950.82
427.33	3913.38
427.52	4102.96
427.71	4023.38
427.90	4114.66
428.09	4264.46
428.28	4109.98
428.46	4133.39
428.65	4007.00
428.84	4222.33
429.03	4166.15
429.22	4145.09
429.40	4058.49
429.59	4056.15
429.78	4067.85
429.97	3946.14
430.16	3981.25
430.34	4014.02
430.53	4081.89
430.72	4280.84
430.91	4126.36
431.10	4337.01
431.28	4379.14
431.47	4440.00
431.66	4507.87
431.85	4526.60
432.03	4554.68
432.22	4671.71
432.41	4496.17
432.60	4681.07
432.79	4695.11
432.97	4800.44
433.16	4720.86
433.35	4622.56
433.54	4566.39
433.72	4655.33
433.91	4636.60
434.10	4727.88
434.28	4798.10
434.47	4854.27
434.66	4739.58
434.85	4990.02
435.03	4966.62
435.22	4875.34
435.41	5146.84
435.59	4973.64
435.78	5076.62
435.97	5006.41
436.16	5146.84
436.34	4961.94
436.53	5151.52
436.72	5121.09
436.90	5060.24
437.09	5224.08
437.28	5048.54
437.46	5064.92
437.65	4997.04
437.84	5125.77
438.02	5181.95
438.21	5191.31
438.40	5130.45
438.58	5338.76
438.77	5334.08
438.96	5376.21
439.14	5563.45
439.33	5472.17
439.52	5495.58
439.70	5610.26
439.89	5699.20
440.08	5750.70
440.26	5654.73
440.45	5797.51
440.63	5944.96
440.82	6017.52
441.01	6050.28
441.19	5874.74
441.38	6015.18
441.57	6120.50
441.75	6106.46
441.94	6232.85
442.12	6277.32
442.31	6253.91
442.50	6246.89
442.68	6164.97
442.87	6221.14
443.05	6146.25
443.24	6284.34
443.43	6277.32
443.61	6396.68
443.80	6473.92
443.98	6267.95
444.17	6003.47
444.35	6277.32
444.54	6406.05
444.73	6384.98
444.91	6401.37
445.10	6326.47
445.28	6291.36
445.47	6354.55
445.65	6417.75
445.84	6722.02
446.02	6471.58
446.21	6469.24
446.39	6548.82
446.58	6686.91
446.77	6504.35
446.95	6445.84
447.14	6616.69
447.32	6771.17
447.51	6562.86
447.69	6635.42
447.88	6368.60
448.06	6590.95
448.25	6583.93
448.43	6689.25
448.62	6658.82
448.80	6654.14
448.99	6754.79
449.17	6808.62
449.36	6717.34
449.54	7007.56
449.73	6885.86
449.91	6916.28
450.10	7068.42
450.28	7019.27
450.46	7133.95
450.65	6984.16
450.83	7260.34
451.02	6906.92
451.20	7297.79
451.39	6995.86
451.57	7098.84
451.76	7180.76
451.94	6902.24
452.13	7166.72
452.31	7173.74
452.49	7143.32
452.68	7213.53
452.86	6993.52
453.05	7276.73
453.23	7246.30
453.42	7272.04
453.60	7166.72
453.78	7487.37
453.97	7232.26
454.15	7311.83
454.34	7187.79
454.52	7520.14
454.70	7419.50
454.89	7482.69
455.07	7510.78
455.26	7360.98
455.44	7524.82
455.62	7531.84
455.81	7749.51
455.99	7686.32
456.17	7662.91
456.36	7602.06
456.54	7969.52
456.73	7765.90
456.91	8119.32
457.09	7967.18
457.28	8060.80
457.46	7866.54
457.64	7967.18
457.83	8030.38
458.01	7836.11
458.19	8147.40
458.38	7901.65
458.56	8156.77
458.74	8070.17
458.93	8067.83
459.11	8255.07
459.29	8198.90
459.48	8395.50
459.66	8248.05
459.84	8180.17
460.03	8451.67
460.21	8355.71
460.39	8423.59
460.57	8313.58
460.76	8638.92
460.94	8404.86
461.12	8465.72
461.31	8428.27
461.49	8580.40
461.67	8336.99
461.85	8667.00
462.04	8692.75
462.22	9004.04
462.40	8826.16
462.59	8468.06
462.77	8699.77
462.95	8821.48
463.13	8641.26
463.32	8788.71
463.50	8833.18
463.68	8954.89
463.86	8926.80
464.05	8695.09
464.23	8739.56
464.41	8833.18
464.59	8697.43
464.78	9228.73
464.96	9179.58
465.14	9069.58
465.32	9015.74
465.50	9088.30
465.69	8975.95
465.87	9102.34
466.05	8957.23
466.23	9298.95
466.41	9233.41
466.60	9188.94
466.78	9067.24
466.96	9137.45
467.14	9338.74
467.32	9383.21
467.51	9348.10
467.69	9111.71
467.87	9392.57
468.05	9256.82
468.23	9331.72
468.41	9451.08
468.60	9287.25
468.78	9572.79
468.96	9582.15
469.14	9434.70
469.32	9722.59
469.50	9441.72
469.69	9589.17
469.87	9870.04
470.05	9748.33
470.23	9806.84
470.41	9486.19
470.59	9830.25
470.77	9734.29
470.95	9858.34
471.14	10033.88
471.32	9804.50
471.50	10040.90
471.68	10122.82
471.86	10258.57
472.04	10129.84
472.22	10574.54
472.40	10073.67
472.58	10197.71
472.77	10413.04
472.95	10434.11
473.13	10640.08
473.31	10377.94
473.49	10509.01
473.67	10537.09
473.85	10572.20
474.03	10850.72
474.21	10862.43
474.39	11040.31
474.57	10836.68
474.75	10953.71
474.93	11023.92
475.12	11105.84
475.30	11222.87
475.48	11192.44
475.66	11330.53
475.84	11133.93
476.02	11147.97
476.20	11279.04
476.38	11520.12
476.56	11545.86
476.74	11564.59
476.92	11695.66
477.10	11529.48
477.28	11967.16
477.46	11728.42
477.64	12116.95
477.82	11983.54
478.00	12449.31
478.18	12372.07
478.36	12573.36
478.54	12596.76
478.72	12650.60
478.90	12938.48
479.08	12840.18
479.26	13022.74
479.44	12952.52
479.62	12877.63
479.80	13121.04
479.98	13308.29
480.16	13504.89
480.34	13657.03
480.52	13577.45
480.70	13710.86
480.88	13238.07
481.06	13909.80
481.24	13797.46
481.41	14120.45
481.59	14249.18
481.77	14211.73
481.95	14436.42
482.13	14473.87
482.31	14326.42
482.49	14953.68
482.67	14766.44
482.85	14967.73
483.03	15133.90
483.21	15201.78
483.39	15276.68
483.57	15274.34
483.74	15253.27
483.92	15428.81
484.10	15232.21
484.28	15754.15
484.46	16027.99
484.64	16313.53
484.82	15864.15
485.00	16072.46
485.18	16250.34
485.35	16128.63
485.53	15964.79
485.71	16046.71
485.89	16376.73
486.07	16365.03
486.25	16463.33
486.43	16842.50
486.61	16886.97
486.78	17205.28
486.96	17294.22
487.14	17631.26
487.32	17687.43
487.50	18031.49
487.68	17987.02
487.85	18377.89
488.03	18469.17
488.21	18223.41
488.39	18483.21
488.57	18738.33
488.75	18707.90
488.92	18806.20
489.10	19066.00
489.28	19379.64
489.46	19447.51
489.64	19503.68
489.81	19681.56
489.99	19927.32
490.17	19866.47
490.35	20367.34
490.53	20304.15
490.70	20032.65
490.88	19934.34
491.06	20489.05
491.24	20552.24
491.41	20765.23
491.59	20673.95
491.77	20769.91
491.95	20954.82
492.13	21195.89
492.30	21495.48
492.48	21710.81
492.66	21546.97
492.84	21647.61
493.01	21940.18
493.19	21919.12
493.37	22185.94
493.54	22033.80
493.72	22628.30
493.90	22445.74
494.08	23103.43
494.25	22878.74
494.43	23218.11
494.61	23054.28
494.79	23201.73
494.96	23229.82
495.14	23304.71
495.32	23391.31
495.49	23555.15
495.67	23845.38
495.85	23845.38
496.02	24027.94
496.20	23875.80
496.38	24320.51
496.55	24187.10
496.73	24734.78
496.91	24723.08
497.09	24369.66
497.26	24744.14
497.44	24767.55
497.62	25008.62
497.79	25111.61
497.97	24678.61
498.14	25336.30
498.32	25338.64
498.50	25528.22
498.67	26012.71
498.85	25663.97
499.03	25694.40
499.20	25671.00
499.38	26036.12
499.56	26015.05
499.73	26469.12
499.91	26202.30
500.08	26668.06
500.26	26223.36
500.44	26567.42
500.61	26347.41
500.79	26532.31
500.97	26958.29
501.14	27428.74
501.32	26937.23
501.49	26859.99
501.67	27077.66
501.84	26955.95
502.02	27391.29
502.20	27267.24
502.37	27599.60
502.55	27775.14
502.72	27613.64
502.90	28430.49
503.07	27571.51
503.25	28294.74
503.43	27686.20
503.60	28137.92
503.78	27845.35
503.95	27707.26
504.13	28460.91
504.30	28519.43
504.48	28498.36
504.65	28732.42
504.83	28788.59
505.01	29177.12
505.18	28896.25
505.36	29104.56
505.53	29034.35
505.71	29366.70
505.88	29624.16
506.06	29188.82
506.23	29362.02
506.41	29345.64
506.58	29586.71
506.76	29642.88
506.93	29741.19
507.11	29558.63
507.28	29890.98
507.46	29986.94
507.63	29710.76
507.81	30122.69
507.98	30096.95
508.16	30469.09
508.33	30293.55
508.50	30291.21
508.68	30614.21
508.85	30951.24
509.03	30848.26
509.20	31040.18
509.38	31098.70
509.55	31058.91
509.73	31412.33
509.90	31201.68
510.08	31063.59
510.25	31091.68
510.42	31297.64
510.60	31683.83
510.77	31690.85
510.95	32046.62
511.12	31681.49
511.30	31709.58
511.47	32093.43
511.64	32402.38
511.82	32259.60
511.99	32425.78
512.17	31889.80
512.34	32421.10
512.51	32779.20
512.69	32594.30
512.86	32645.79
513.04	32697.28
513.21	32645.79
513.38	32788.56
513.56	32917.29
513.73	32589.62
513.90	32907.93
514.08	32341.52
514.25	32943.04
514.43	33415.83
514.60	33507.11
514.77	33415.83
514.95	33376.04
515.12	33106.88
515.29	33926.07
515.47	33771.59
515.64	33727.12
515.81	33539.88
515.99	33703.71
516.16	33291.78
516.33	33472.00
516.51	33647.54
516.68	33310.50
516.85	33273.06
517.03	33153.69
517.20	33612.43
517.37	33933.09
517.54	34270.12
517.72	33855.85
517.89	33802.02
518.06	34110.97
518.24	34155.44
518.41	34171.82
518.58	34342.68
518.75	34380.13
518.93	34508.86
519.10	34848.24
519.27	35063.57
519.45	35002.71
519.62	35101.01
519.79	35370.18
519.96	35204.00
520.14	35522.31
520.31	34941.86
520.48	35672.10
520.65	35304.64
520.83	35576.14
521.00	35999.78
521.17	35552.74
521.34	35571.46
521.52	36053.61
521.69	36128.51
521.86	35945.95
522.03	36460.87
522.20	36231.49
522.38	36088.72
522.55	36781.52
522.72	36236.17
522.89	36264.26
523.07	36524.06
523.24	36229.15
523.41	36711.30
523.58	36584.91
523.75	37067.06
523.92	37015.57
524.10	37387.72
524.27	37167.71
524.44	37532.83
524.61	37312.82
524.78	37350.27
524.96	37324.52
525.13	37577.30
525.30	38024.34
525.47	37975.19
525.64	37322.18
525.81	37305.80
525.98	37287.07
526.16	37535.17
526.33	37127.92
526.50	37570.28
526.67	37319.84
526.84	37586.66
527.01	37354.95
527.18	37865.19
527.36	37972.85
527.53	38300.53
527.70	38450.32
527.87	38136.69
528.04	38108.60
528.21	37794.97
528.38	38410.53
528.55	38499.47
528.72	38658.63
528.89	39021.41
529.07	38822.47
529.24	38579.05
529.41	38974.60
529.58	38906.73
529.75	38801.40
529.92	38714.80
530.09	39267.17
530.26	39257.81
530.43	38890.34
530.60	38714.80
530.77	38829.49
530.94	39639.31
531.11	38925.45
531.28	39164.18
531.46	39533.99
531.63	39379.51
531.80	39679.10
531.97	39608.89
532.14	39496.54
532.31	39374.83
532.48	39842.94
532.65	39800.81
532.82	39725.91
532.99	39468.45
533.16	39213.34
533.33	39494.20
533.50	40055.93
533.67	39887.41
533.84	39615.91
534.01	39707.19
534.18	39749.32
534.35	40423.39
534.52	40444.46
534.69	39978.69
534.86	40327.43
535.03	40392.97
535.20	40783.83
535.37	40996.82
535.54	40889.16
535.71	40912.56
535.88	40526.38
536.05	40245.51
536.22	40968.74
536.38	40893.84
536.55	40364.88
536.72	40669.15
536.89	40840.01
537.06	40374.24
537.23	41137.26
537.40	40783.83
537.57	40898.52
537.74	40938.31
537.91	41289.39
538.08	40924.27
538.25	41310.46
538.42	41207.47
538.59	41581.96
538.75	40832.99
538.92	40744.05
539.09	41275.35
539.26	41343.22
539.43	41228.54
539.60	41387.69
539.77	41230.88
539.94	41483.66
540.11	41074.06
540.28	40926.61
540.44	41937.72
540.61	41944.74
540.78	41460.25
540.95	41523.44
541.12	41717.71
541.29	41443.87
541.46	41661.54
541.62	41731.75
541.79	41621.75
541.96	41619.41
542.13	41876.86
542.30	42073.47
542.47	42401.14
542.63	42045.38
542.80	42155.39
542.97	42190.50
543.14	42953.51
543.31	42663.28
543.48	42845.85
543.64	43096.28
543.81	43054.15
543.98	42651.58
544.15	42717.12
544.32	43161.82
544.48	43477.79
544.65	42597.75
544.82	43255.44
544.99	42625.84
545.16	43103.31
545.32	42988.62
545.49	43084.58
545.66	43372.47
545.83	43407.58
546.00	43328.00
546.16	43292.89
546.33	43330.34
546.50	42913.72
546.67	43538.65
546.83	42417.53
547.00	43381.83
547.17	43292.89
547.34	43271.82
547.50	43285.87
547.67	43552.69
547.84	43302.25
548.00	43405.23
548.17	43810.15
548.34	43742.27
548.51	43941.22
548.67	43643.97
548.84	43646.31
549.01	43702.48
549.18	43805.47
549.34	43515.24
549.51	43419.28
549.68	43863.98
549.84	43945.90
550.01	44119.10
550.18	43735.25
550.34	43997.39
550.51	44025.48
550.68	44261.87
550.84	43756.32
551.01	44023.14
551.18	44072.29
551.34	43966.96
551.51	44652.74
551.68	44259.53
551.84	44446.77
552.01	44516.99
552.18	44210.38
552.34	44123.78
552.51	44666.78
552.68	43913.13
552.84	44484.22
553.01	44896.16
553.18	44849.35
553.34	44481.88
553.51	44481.88
553.67	44788.49
553.84	44685.51
554.01	44603.59
554.17	44975.73
554.34	45041.27
554.51	44769.77
554.67	44971.05
554.84	44872.75
555.00	44952.33
555.17	45013.18
555.33	44992.12
555.50	44809.56
555.67	44989.78
555.83	44809.56
556.00	45256.60
556.16	45380.65
556.33	45015.52
556.50	44816.58
556.66	45055.31
556.83	45258.94
556.99	45509.38
557.16	45181.70
557.32	44971.05
557.49	45148.93
557.65	44914.88
557.82	44832.96
557.98	45305.75
558.15	45296.39
558.32	45418.10
558.48	45408.73
558.65	45209.79
558.81	45380.65
558.98	45125.53
559.14	45160.64
559.31	45354.90
559.47	45361.92
559.64	45626.40
559.80	45319.79
559.97	45748.11
560.13	44978.07
560.30	45844.07
560.46	45352.56
560.63	45455.54
560.79	45663.85
560.96	46005.57
561.12	45659.17
561.29	45738.75
561.45	45368.94
561.61	45607.68
561.78	45553.85
561.94	45476.61
562.11	45298.73
562.27	45504.70
562.44	45272.98
562.60	45621.72
562.77	45757.47
562.93	45851.09
563.10	46487.72
563.26	45595.98
563.42	45743.43
563.59	45467.25
563.75	45794.92
563.92	46078.13
564.08	45991.53
564.24	46246.65
564.41	45666.19
564.57	45872.16
564.74	45815.99
564.90	45954.08
565.07	45947.06
565.23	45848.75
565.39	45450.86
565.56	45956.42
565.72	45745.77
565.88	45347.88
566.05	46010.25
566.21	45588.95
566.38	46146.00
566.54	45666.19
566.70	45787.90
566.87	45886.20
567.03	46124.94
567.19	46305.16
567.36	46028.98
567.52	46138.98
567.68	46239.62
567.85	46057.06
568.01	46073.45
568.17	45766.84
568.34	46073.45
568.50	46075.79
568.66	45668.53
568.83	46230.26
568.99	45942.38
569.15	46218.56
569.32	46192.81
569.48	45490.65
569.64	46206.86
569.81	46286.43
569.97	46347.29
570.13	46171.75
570.30	45614.70
570.46	46068.76
570.62	45696.62
570.78	45851.09
570.95	45886.20
571.11	46274.73
571.27	45675.55
571.43	45649.81
571.60	46146.00
571.76	45570.23
571.92	46047.70
572.09	46204.52
572.25	45766.84
572.41	45862.80
572.57	45993.87
572.74	46457.29
572.90	46459.63
573.06	46295.80
573.22	46319.20
573.38	46225.58
573.55	46080.47
573.71	46218.56
573.87	46127.28
574.03	46036.00
574.20	46326.22
574.36	45663.85
574.52	46239.62
574.68	46380.06
574.84	46635.17
575.01	46260.69
575.17	46251.33
575.33	45853.44
575.49	45911.95
575.65	46588.36
575.82	46176.43
575.98	46363.67
576.14	46241.96
576.30	46330.90
576.46	46021.95
576.62	46202.18
576.79	46274.73
576.95	46103.87
577.11	46319.20
577.27	46576.66
577.43	46054.72
577.59	46134.30
577.75	45986.85
577.92	45794.92
578.08	46263.03
578.24	46003.23
578.40	46284.09
578.56	45755.13
578.72	46108.55
578.88	46555.60
579.04	46328.56
579.21	45867.48
579.37	46298.14
579.53	46300.48
579.69	45851.09
579.85	46401.12
580.01	46129.62
580.17	46410.48
580.33	46419.84
580.49	46494.74
580.65	46539.21
580.82	46272.39
580.98	46019.61
581.14	45869.82
581.30	46616.45
581.46	46735.82
581.62	46256.01
581.78	46101.53
581.94	46857.52
582.10	46300.48
582.26	46508.79
582.42	46564.96
582.58	46424.53
582.74	46155.36
582.90	46461.97
583.06	46588.36
583.22	46354.31
583.38	46820.08
583.54	46394.10
583.70	46487.72
583.86	46513.47
584.02	46209.20
584.18	46183.45
584.34	46403.46
584.50	46260.69
584.66	46698.37
584.82	45666.19
584.98	46309.84
585.14	46293.46
585.30	46043.02
585.46	46361.33
585.62	46307.50
585.78	46745.18
585.94	46021.95
586.10	46265.37
586.26	46061.74
586.42	46333.24
586.58	46241.96
586.74	46794.33
586.90	46527.51
587.06	46050.04
587.22	46373.03
587.38	45907.27
587.54	46447.93
587.70	46703.05
587.86	46073.45
588.02	46366.01
588.18	46885.61
588.34	46211.54
588.49	46043.02
588.65	45694.28
588.81	46230.26
588.97	46256.01
589.13	46000.89
589.29	46440.91
589.45	46031.32
589.61	46382.40
589.77	46539.21
589.93	46405.80
590.08	46658.58
590.24	46937.10
590.40	47220.31
590.56	46859.87
590.72	46597.73
590.88	46714.75
591.04	46850.50
591.20	46754.54
591.35	46635.17
591.51	46969.87
591.67	46422.19
591.83	46447.93
591.99	46513.47
592.15	46358.99
592.31	46246.65
592.46	46403.46
592.62	46326.22
592.78	46492.40
592.94	47220.31
593.10	46436.23
593.26	46616.45
593.41	47117.32
593.57	46731.14
593.73	46480.70
593.89	46571.98
594.05	46391.76
594.20	45982.16
594.36	46986.25
594.52	46469.00
594.68	46337.93
594.84	46789.65
594.99	46857.52
595.15	46279.41
595.31	46571.98
595.47	46272.39
595.62	46621.13
595.78	46731.14
595.94	46674.96
596.10	46602.41
596.25	46850.50
596.41	46354.31
596.57	46607.09
596.73	46569.64
596.88	46670.28
597.04	46639.86
597.20	46864.55
597.36	46356.65
597.51	46667.94
597.67	46911.36
597.83	46689.01
597.99	46904.34
598.14	46485.38
598.30	46611.77
598.46	46539.21
598.61	47208.61
598.77	46681.98
598.93	46829.44
599.09	46651.56
599.24	46934.76
599.40	46770.93
599.56	47002.64
599.71	47145.41
599.87	46916.04
600.03	46948.81
600.18	46948.81
600.34	47107.96
600.50	46461.97
600.65	46684.33
600.81	46707.73
600.97	46981.57
601.12	47210.95
601.28	46925.40
601.44	46656.24
601.59	46602.41
601.75	46323.88
601.91	46820.08
602.06	46408.14
602.22	46557.94
602.37	46600.07
602.53	46623.47
602.69	46972.21
602.84	46689.01
603.00	46660.92
603.16	46457.29
603.31	46459.63
603.47	46155.36
603.62	46314.52
603.78	46576.66
603.94	46270.05
604.09	47065.83
604.25	46894.97
604.40	46939.44
604.56	46412.82
604.71	46752.20
604.87	46602.41
605.03	46923.06
605.18	46391.76
605.34	46548.57
605.49	46724.11
605.65	46796.67
605.80	46253.67
605.96	46293.46
606.12	46447.93
606.27	46312.18
606.43	46391.76
606.58	46354.31
606.74	46382.40
606.89	46279.41
607.05	46698.37
607.20	46731.14
607.36	46298.14
607.51	46663.26
607.67	46761.56
607.82	46136.64
607.98	46667.94
608.13	46227.92
608.29	46213.88
608.44	46188.13
608.60	45633.42
608.75	45675.55
608.91	46028.98
609.06	45607.68
609.22	46272.39
609.37	46223.24
609.53	46433.89
609.68	46515.81
609.84	46138.98
609.99	46059.40
610.15	46085.15
610.30	46031.32
610.46	45729.39
610.61	46288.77
610.76	46272.39
610.92	45923.65
611.07	46387.08
611.23	46169.41
611.38	46003.23
611.54	45624.06
611.69	45776.20
611.84	45457.88
612.00	45851.09
612.15	45752.79
612.31	46251.33
612.46	45933.01
612.62	46328.56
612.77	45380.65
612.92	45984.51
613.08	45624.06
613.23	45958.76
613.39	45518.74
613.54	45755.13
613.69	45584.27
613.85	45298.73
614.00	45443.84
614.15	45443.84
614.31	45783.22
614.46	45808.96
614.62	45434.48
614.77	45710.66
614.92	45567.89
615.08	45160.64
615.23	45509.38
615.38	45546.82
615.54	45528.10
615.69	45228.51
615.84	44992.12
616.00	45209.79
616.15	45340.86
616.30	45413.41
616.46	44699.55
616.61	45247.24
616.76	44919.56
616.92	45123.19
617.07	44839.98
617.22	44788.49
617.37	44610.61
617.53	45125.53
617.68	45296.39
617.83	45247.24
617.99	45434.48
618.14	45207.45
618.29	45223.83
618.45	44886.79
618.60	44708.91
618.75	45116.17
618.90	45027.23
619.06	44823.60
619.21	44626.99
619.36	44964.03
619.51	44790.83
619.67	44495.92
619.82	44781.47
619.97	45401.71
620.12	44334.43
620.28	44271.23
620.43	44280.60
620.58	44327.41
620.73	44460.82
620.89	44863.39
621.04	44538.05
621.19	44561.46
621.34	44369.54
621.49	44779.13
621.65	44500.61
621.80	44650.40
621.95	44086.33
622.10	44502.95
622.25	44327.41
622.41	43929.51
622.56	43784.40
622.71	44299.32
622.86	44392.94
623.01	44624.65
623.16	44701.89
623.32	44144.84
623.47	44491.24
623.62	44250.17
623.77	43943.56
623.92	43800.79
624.07	43789.08
624.23	43585.46
624.38	43470.77
624.53	43887.39
624.68	43957.60
624.83	43999.73
624.98	43973.98
625.13	43821.85
625.29	44025.48
625.44	43852.28
625.59	43583.12
625.74	43454.39
625.89	43014.37
626.04	43468.43
626.19	43253.10
626.34	43875.68
626.49	43861.64
626.65	43606.52
626.80	43650.99
626.95	43297.57
627.10	43260.12
627.25	43194.59
627.40	43138.41
627.55	42864.57
627.70	42546.26
627.85	43077.56
628.00	42794.36
628.15	42864.57
628.30	42983.94
628.45	42976.92
628.60	42794.36
628.76	43206.29
628.91	43402.89
629.06	43145.44
629.21	42859.89
629.36	42731.16
629.51	42679.67
629.66	43089.26
629.81	42855.21
629.96	43019.05
630.11	42799.04
630.26	43157.14
630.41	43005.00
630.56	43082.24
630.71	42941.81
630.86	42780.31
631.01	42614.13
631.16	42525.19
631.31	42319.23
631.46	42277.10
631.61	42309.86
631.76	42644.56
631.91	42604.77
632.06	42700.73
632.21	42412.85
632.36	42644.56
632.51	42260.71
632.66	42469.02
632.81	42382.42
632.96	42082.83
633.10	42354.33
633.25	42136.66
633.40	42094.53
633.55	42171.77
633.70	41956.44
633.85	42225.60
634.00	41972.83
634.15	41876.86
634.30	42110.92
634.45	42237.31
634.60	42148.37
634.75	42363.70
634.90	42047.72
635.05	42270.08
635.19	41741.11
635.34	42005.59
635.49	42155.39
635.64	41963.46
635.79	41645.15
635.94	41834.74
636.09	41666.22
636.24	41118.53
636.39	41254.28
636.53	41577.28
636.68	41139.60
636.83	41535.15
636.98	41820.69
637.13	41460.25
637.28	41518.76
637.43	42337.95
637.57	41558.55
637.72	41610.04
637.87	41750.48
638.02	41425.14
638.17	41794.95
638.32	41450.89
638.46	41507.06
638.61	41085.76
638.76	41127.89
638.91	41308.11
639.06	40814.26
639.20	41371.31
639.35	41722.39
639.50	40603.61
639.65	41319.82
639.80	41687.28
639.94	40793.20
640.09	40945.33
640.24	41064.70
640.39	41060.02
640.54	41141.94
640.68	41193.43
640.83	41003.85
640.98	40935.97
641.13	41048.32
641.27	41228.54
641.42	40931.29
641.57	41076.40
641.72	41113.85
641.86	40266.58
642.01	40617.66
642.16	40664.47
642.31	40130.83
642.45	40737.02
642.60	40229.13
642.75	40287.64
642.90	40601.27
643.04	40240.83
643.19	40079.33
643.34	40577.87
643.48	41067.04
643.63	40247.85
643.78	40247.85
643.93	40261.90
644.07	40175.30
644.22	40385.94
644.37	40243.17
644.51	40350.84
644.66	40341.47
644.81	40435.10
644.95	40524.04
645.10	40245.51
645.25	40664.47
645.39	40128.48
645.54	40165.93
645.69	39791.45
645.83	39749.32
645.98	40285.30
646.13	39817.19
646.27	39962.31
646.42	39929.54
646.57	40165.93
646.71	39777.40
646.86	39948.26
647.00	40112.10
647.15	40076.99
647.30	40273.60
647.44	39817.19
647.59	39695.49
647.74	39501.22
647.88	39634.63
648.03	39723.57
648.17	39793.79
648.32	39110.35
648.47	39667.40
648.61	39716.55
648.76	39571.44
648.90	39812.51
649.05	39426.32
649.20	39789.11
649.34	39629.95
649.49	39082.27
649.63	39660.38
649.78	39220.36
649.92	39239.08
650.07	39770.38
650.21	39414.62
650.36	39292.91
650.51	38848.21
650.65	39557.39
650.80	39775.06
650.94	39819.53
651.09	39533.99
651.23	39285.89
651.38	39381.85
651.52	39000.35
651.67	38962.90
651.81	39115.03
651.96	38742.89
652.10	38958.22
652.25	38824.81
652.39	38841.19
652.54	38691.40
652.68	39047.16
652.83	39021.41
652.97	38815.44
653.12	39049.50
653.26	38986.30
653.41	38841.19
653.55	38494.79
653.70	38663.31
653.84	38817.78
653.99	38820.13
654.13	39070.56
654.27	38632.88
654.42	38377.76
654.56	38368.40
654.71	38635.22
654.85	38614.16
655.00	38136.69
655.14	38167.12
655.29	37837.10
655.43	38242.01
655.57	37846.46
655.72	38284.14
655.86	37827.74
656.01	37645.18
656.15	37418.14
656.30	37532.83
656.44	37785.61
656.58	37614.75
656.73	37308.14
656.87	37816.04
657.01	37577.30
657.16	37886.25
657.30	37717.73
657.45	37820.72
657.59	37654.54
657.73	37476.66
657.88	37825.40
658.02	37659.22
658.16	37378.36
658.31	37904.98
658.45	37940.08
658.60	37394.74
658.74	37584.32
658.88	37799.65
659.03	37471.98
659.17	36996.85
659.31	37429.85
659.46	37118.56
659.60	37453.25
659.74	37277.71
659.89	37104.51
660.03	37275.37
660.17	37050.68
660.32	37090.47
660.46	37050.68
660.60	37053.02
660.74	36954.72
660.89	37270.69
661.03	36488.95
661.17	36554.49
661.32	36465.55
661.46	36491.29
661.60	36631.72
661.74	36828.33
661.89	36449.16
662.03	36554.49
662.17	36708.96
662.31	36203.41
662.46	36683.22
662.60	36877.48
662.74	36505.34
662.88	36479.59
663.03	36142.55
663.17	36119.15
663.31	35950.63
663.45	36055.95
663.60	35969.35
663.74	36170.64
663.88	35948.29
664.02	36172.98
664.17	35644.02
664.31	35381.88
664.45	36107.44
664.59	35702.53
664.73	35821.90
664.88	35697.85
665.02	35211.02
665.16	35601.89
665.30	35477.84
665.44	35332.73
665.59	35683.81
665.73	35234.42
665.87	35040.16
666.01	35108.04
666.15	35274.21
666.29	34890.37
666.44	35199.32
666.58	34932.50
666.72	35009.73
666.86	35150.17
667.00	35131.44
667.14	35023.78
667.28	34766.32
667.43	34438.64
667.57	34684.40
667.71	34796.74
667.85	34766.32
667.99	34569.71
668.13	34473.75
668.27	34134.37
668.41	34274.80
668.56	34127.35
668.70	34433.96
668.84	33893.30
668.98	33951.81
669.12	34291.19
669.26	34405.88
669.40	34024.37
669.54	34298.21
669.68	34363.75
669.82	33762.23
669.96	33673.29
670.10	33261.35
670.25	34195.23
670.39	33722.44
670.53	33415.83
670.67	33167.73
670.81	33860.53
670.95	33589.03
671.09	33413.49
671.23	33446.26
671.37	33528.17
671.51	32938.36
671.65	32531.11
671.79	32882.19
671.93	32947.72
672.07	33277.74
672.21	32931.34
672.35	32657.49
672.49	32746.44
672.63	32568.55
672.77	32332.16
672.91	32334.50
673.05	32407.06
673.19	32254.92
673.33	32257.26
673.47	32184.71
673.61	32294.71
673.75	32051.30
673.89	31962.36
674.03	31496.59
674.17	31576.17
674.31	31772.77
674.45	31288.28
674.59	31470.84
674.73	31630.00
674.87	31751.71
675.01	31274.24
675.15	31548.08
675.29	31519.99
675.43	31519.99
675.56	31646.38
675.70	31199.34
675.84	31084.65
675.98	30160.14
676.12	30691.44
676.26	30707.83
676.40	30696.13
676.54	30394.20
676.68	30485.48
676.82	29926.09
676.96	30078.22
677.10	30061.84
677.23	30277.17
677.37	30345.05
677.51	29881.62
677.65	29933.11
677.79	29879.28
677.93	29708.42
678.07	29766.93
678.21	29633.52
678.34	29310.53
678.48	29270.74
678.62	29338.62
678.76	29081.16
678.90	29010.94
679.04	28713.69
679.18	29364.36
679.31	28936.04
679.45	28699.65
679.59	28591.98
679.73	28439.85
679.87	28231.54
680.00	28226.86
680.14	28327.50
680.28	28173.03
680.42	27992.81
680.56	27814.93
680.70	27889.82
680.83	28065.36
680.97	27857.06
681.11	27817.27
681.25	27201.71
681.39	27417.04
681.52	27784.50
681.66	27377.25
681.80	27463.85
681.94	27185.32
682.07	27129.15
682.21	27182.98
682.35	26923.18
682.49	26991.06
682.62	27211.07
682.76	26799.13
682.90	26803.82
683.04	26504.23
683.17	26661.04
683.31	26492.52
683.45	26698.49
683.59	26342.73
683.72	25687.38
683.86	26228.04
684.00	26061.87
684.13	25699.08
684.27	26064.21
684.41	25614.82
684.55	25207.57
684.68	25443.96
684.82	25301.19
684.96	25270.76
685.09	25591.42
685.23	25282.47
685.37	25097.56
685.50	24985.22
685.64	25069.48
685.78	24697.33
685.91	24795.64
686.05	24809.68
686.19	24020.92
686.32	24341.57
686.46	23943.68
686.60	23704.95
686.73	24166.03
686.87	23882.83
687.01	23852.40
687.14	23496.64
687.28	23506.00
687.42	23459.19
687.55	23447.49
687.69	23700.26
687.82	23337.48
687.96	23302.37
688.10	23384.29
688.23	23307.05
688.37	22906.82
688.50	22810.86
688.64	22902.14
688.78	22923.21
688.91	22668.09
689.05	22602.55
689.18	22553.40
689.32	22197.64
689.46	22412.97
689.59	22199.98
689.73	22537.02
689.86	22059.55
690.00	22127.42
690.13	22097.00
690.27	22087.64
690.41	21626.55
690.54	21289.51
690.68	21645.27
690.81	21558.67
690.95	21294.19
691.08	21408.88
691.22	21167.80
691.35	21319.94
691.49	21329.30
691.62	21322.28
691.76	21418.24
691.89	21373.77
692.03	21125.68
692.16	20865.88
692.30	20732.47
692.43	20449.26
692.57	20322.87
692.70	20823.75
692.84	20449.26
692.97	20102.86
693.11	19922.64
693.24	20020.94
693.38	20264.36
693.51	19936.68
693.65	19922.64
693.78	20009.24
693.92	20203.50
694.05	19873.49
694.19	19580.92
694.32	19836.04
694.45	19639.44
694.59	19384.32
694.72	19564.54
694.86	19295.38
694.99	19204.10
695.13	19070.68
695.26	18881.10
695.39	18934.93
695.53	18843.65
695.66	19058.98
695.80	18593.22
695.93	18267.88
696.07	18480.87
696.20	18546.40
696.33	18555.77
696.47	18373.21
696.60	18171.92
696.73	18015.10
696.87	17846.58
697.00	17855.95
697.14	18185.96
697.27	17923.82
697.40	18148.51
697.54	17706.15
697.67	17715.51
697.80	17626.57
697.94	17774.03
698.07	17970.63
698.21	17324.65
698.34	17584.44
698.47	17483.80
698.61	16669.30
698.74	16945.48
698.87	16893.99
699.01	16828.45
699.14	16835.47
699.27	16950.16
699.40	16631.85
699.54	16673.98
699.67	16299.49
699.80	16425.88
699.94	16299.49
700.07	16259.70
700.20	16060.76
700.34	16105.23
700.47	16006.92
700.60	16257.36
700.73	16248.00
700.87	16346.30
701.00	15903.94
701.13	15730.74
701.26	15744.78
701.40	15651.16
701.53	15662.86
701.66	15683.93
701.79	15152.63
701.93	15393.70
702.06	15463.92
702.19	15360.94
702.32	15119.86
702.46	14794.53
702.59	15082.41
702.72	15016.88
702.85	15082.41
702.99	14934.96
703.12	15021.56
703.25	14993.47
703.38	14462.17
703.51	14623.67
703.65	14551.11
703.78	14373.23
703.91	14494.94
704.04	14548.77
704.17	14389.61
704.31	14352.16
704.44	14015.13
704.57	14085.34
704.70	13994.06
704.83	13755.33
704.96	14225.78
705.10	13827.88
705.23	14083.00
>>>>>End Processed Spectral Data<<<<<
