SpectraSuite Data File
++++++++++++++++++++++++++++++++++++
Date: Fri Oct 25 11:34:38 EDT 2013
User: price-jones
Dark Spectrum Present: No
Reference Spectrum Present: No
Number of Sampled Component Spectra: 1
Spectrometers: USB2+H05261
Integration Time (usec): 100000 (USB2+H05261)
Spectra Averaged: 1 (USB2+H05261)
Boxcar Smoothing: 0 (USB2+H05261)
Correct for Electrical Dark: No (USB2+H05261)
Strobe/Lamp Enabled: No (USB2+H05261)
Correct for Detector Non-linearity: No (USB2+H05261)
Correct for Stray Light: No (USB2+H05261)
Number of Pixels in Processed Spectrum: 2048
>>>>>Begin Processed Spectral Data<<<<<
365.73	264.48
365.92	264.48
366.12	264.48
366.32	259.80
366.52	168.52
366.72	201.29
366.91	227.03
367.11	149.79
367.31	220.01
367.51	163.84
367.70	220.01
367.90	184.90
368.10	173.20
368.30	166.18
368.49	147.45
368.69	227.03
368.89	208.31
369.09	210.65
369.28	194.26
369.48	262.14
369.68	180.22
369.87	231.71
370.07	278.52
370.27	257.46
370.47	292.57
370.66	484.49
370.86	475.13
371.06	568.75
371.25	543.00
371.45	543.00
371.65	557.05
371.84	505.56
372.04	543.00
372.24	566.41
372.44	638.97
372.63	582.79
372.83	631.94
373.03	629.60
373.22	550.03
373.42	575.77
373.62	664.71
373.81	617.90
374.01	671.73
374.21	631.94
374.40	699.82
374.60	744.29
374.79	653.01
374.99	636.63
375.19	636.63
375.38	643.65
375.58	589.82
375.78	688.12
375.97	662.37
376.17	723.23
376.37	643.65
376.56	662.37
376.76	653.01
376.95	650.67
377.15	660.03
377.35	664.71
377.54	634.29
377.74	704.50
377.93	688.12
378.13	662.37
378.33	575.77
378.52	706.84
378.72	660.03
378.91	678.76
379.11	697.48
379.31	681.10
379.50	683.44
379.70	711.52
379.89	727.91
380.09	767.70
380.28	676.41
380.48	744.29
380.68	711.52
380.87	711.52
381.07	669.39
381.26	763.01
381.46	805.14
381.65	711.52
381.85	657.69
382.04	716.20
382.24	751.31
382.43	748.97
382.63	781.74
382.83	690.46
383.02	816.85
383.22	844.93
383.41	781.74
383.61	777.06
383.80	746.63
384.00	781.74
384.19	744.29
384.39	805.14
384.58	851.96
384.78	828.55
384.97	725.57
385.17	837.91
385.36	837.91
385.56	716.20
385.75	760.67
385.95	926.85
386.14	812.17
386.34	828.55
386.53	840.25
386.72	828.55
386.92	866.00
387.11	873.02
387.31	866.00
387.50	868.34
387.70	809.83
387.89	854.30
388.09	758.33
388.28	908.13
388.48	931.53
388.67	884.72
388.86	884.72
389.06	936.21
389.25	887.06
389.45	976.00
389.64	917.49
389.84	952.60
390.03	922.17
390.22	1041.54
390.42	959.62
390.61	889.40
390.81	889.40
391.00	952.60
391.19	1062.60
391.39	1032.18
391.58	1046.22
391.78	952.60
391.97	1104.73
392.16	971.32
392.36	1050.90
392.55	1041.54
392.75	999.41
392.94	997.07
393.13	1004.09
393.33	1011.11
393.52	915.15
393.71	1046.22
393.91	1015.79
394.10	1088.35
394.29	1006.43
394.49	978.34
394.68	1057.92
394.88	1050.90
395.07	1093.03
395.26	1097.71
395.46	1064.94
395.65	1050.90
395.84	1160.91
396.04	1146.86
396.23	1069.62
396.42	1081.33
396.62	1203.04
396.81	1181.97
397.00	1226.44
397.19	1179.63
397.39	1165.59
397.58	1160.91
397.77	1196.01
397.97	1111.75
398.16	1217.08
398.35	1306.02
398.55	1217.08
398.74	1247.51
398.93	1401.98
399.12	1203.04
399.32	1252.19
399.51	1235.80
399.70	1294.32
399.90	1357.51
400.09	1277.93
400.28	1345.81
400.47	1338.79
400.67	1336.45
400.86	1324.74
401.05	1331.76
401.24	1465.18
401.44	1409.00
401.63	1397.30
401.82	1416.02
402.01	1476.88
402.21	1331.76
402.40	1345.81
402.59	1483.90
402.78	1406.66
402.97	1399.64
403.17	1483.90
403.36	1558.80
403.55	1551.78
403.74	1458.15
403.93	1455.81
404.13	1549.43
404.32	1542.41
404.51	1540.07
404.70	1561.14
404.89	1556.46
405.09	1509.65
405.28	1652.42
405.47	1687.53
405.66	1633.69
405.85	1647.74
406.05	1619.65
406.24	1561.14
406.43	1680.50
406.62	1633.69
406.81	1722.63
407.00	1734.34
407.20	1727.32
407.39	1757.74
407.58	1734.34
407.77	1764.76
407.96	1696.89
408.15	1753.06
408.34	1692.21
408.54	1872.43
408.73	1834.98
408.92	1820.94
409.11	1877.11
409.30	1783.49
409.49	1797.53
409.68	1928.60
409.87	1952.01
410.07	1973.07
410.26	1816.26
410.45	1961.37
410.64	1980.09
410.83	1966.05
411.02	1991.80
411.21	2001.16
411.40	2101.80
411.59	2071.37
411.78	2069.03
411.98	2085.42
412.17	2106.48
412.36	2129.89
412.55	2108.82
412.74	2265.64
412.93	2270.32
413.12	2111.16
413.31	2314.79
413.50	2319.47
413.69	2338.20
413.88	2139.25
414.07	2319.47
414.26	2349.90
414.45	2349.90
414.64	2429.48
414.83	2462.24
415.02	2380.32
415.22	2504.37
415.41	2504.37
415.60	2499.69
415.79	2539.48
415.98	2607.36
416.17	2574.59
416.36	2626.08
416.55	2562.89
416.74	2754.81
416.93	2696.30
417.12	2733.75
417.31	2740.77
417.50	2754.81
417.69	2796.94
417.88	2752.47
418.07	2729.06
418.26	2848.43
418.45	2773.53
418.64	2918.65
418.83	2883.54
419.02	2923.33
419.21	2913.97
419.39	2918.65
419.58	2963.12
419.77	2956.10
419.96	2916.31
420.15	3089.51
420.34	3030.99
420.53	3129.30
420.72	3080.14
420.91	3056.74
421.10	3059.08
421.29	3162.06
421.48	3176.11
421.67	3084.83
421.86	3152.70
422.05	3190.15
422.24	3035.67
422.43	3098.87
422.61	3192.49
422.80	3239.30
422.99	3101.21
423.18	3190.15
423.37	3211.22
423.56	3309.52
423.75	3136.32
423.94	3363.35
424.13	3019.29
424.32	3133.98
424.50	3246.32
424.69	3351.65
424.88	3419.52
425.07	3405.48
425.26	3236.96
425.45	3141.00
425.64	3318.88
425.83	3108.23
426.01	3283.77
426.20	3337.60
426.39	3527.19
426.58	3351.65
426.77	3152.70
426.96	3405.48
427.15	3293.13
427.33	3466.33
427.52	3492.08
427.71	3365.69
427.90	3300.16
428.09	3414.84
428.28	3426.54
428.46	3548.25
428.65	3651.24
428.84	3536.55
429.03	3702.73
429.22	3569.32
429.40	3604.42
429.59	3545.91
429.78	3595.06
429.97	3574.00
430.16	3630.17
430.34	3641.87
430.53	3609.11
430.72	3730.81
430.91	3627.83
431.10	3599.74
431.28	3805.71
431.47	3740.18
431.66	3625.49
431.85	3735.50
432.03	3941.46
432.22	3920.40
432.41	3843.16
432.60	3936.78
432.79	3880.61
432.97	3950.82
433.16	3794.01
433.35	3878.27
433.54	3847.84
433.72	4051.47
433.91	4023.38
434.10	3868.91
434.28	3969.55
434.47	3957.85
434.66	4067.85
434.85	4098.28
435.03	4138.07
435.22	4046.79
435.41	4175.52
435.59	4042.11
435.78	4007.00
435.97	4231.69
436.16	4180.20
436.34	4142.75
436.53	4320.63
436.72	4386.16
436.90	4203.60
437.09	4337.01
437.28	4280.84
437.46	4259.78
437.65	4351.06
437.84	4299.56
438.02	4447.02
438.21	4292.54
438.40	4266.80
438.58	4444.68
438.77	4608.51
438.96	4610.86
439.14	4718.52
439.33	4596.81
439.52	4624.90
439.70	4547.66
439.89	4751.29
440.08	4690.43
440.26	4770.01
440.45	4624.90
440.63	4847.25
440.82	4922.15
441.01	4732.56
441.19	5011.09
441.38	4997.04
441.57	5064.92
441.75	5064.92
441.94	5062.58
442.12	5144.50
442.31	5259.18
442.50	5362.17
442.68	5238.12
442.87	5198.33
443.05	5263.86
443.24	5397.28
443.43	5191.31
443.61	5317.70
443.80	5268.55
443.98	5380.89
444.17	5151.52
444.35	5305.99
444.54	5664.10
444.73	5153.86
444.91	5322.38
445.10	5284.93
445.28	5280.25
445.47	5207.69
445.65	5404.30
445.84	5322.38
446.02	5324.72
446.21	5521.32
446.39	5474.51
446.58	5404.30
446.77	5430.04
446.95	5315.36
447.14	5352.81
447.32	5488.56
447.51	5568.13
447.69	5497.92
447.88	5427.70
448.06	5549.41
448.25	5420.68
448.43	5584.52
448.62	5462.81
448.80	5544.73
448.99	5483.88
449.17	5448.77
449.36	5404.30
449.54	5701.54
449.73	5746.02
449.91	5717.93
450.10	5734.31
450.28	5806.87
450.46	5713.25
450.65	5858.36
450.83	5748.36
451.02	5959.00
451.20	5998.79
451.39	5783.46
451.57	5785.80
451.76	5713.25
451.94	5750.70
452.13	6003.47
452.31	6043.26
452.49	5870.06
452.68	5942.62
452.86	5954.32
453.05	6045.60
453.23	6038.58
453.42	5865.38
453.60	5935.60
453.78	6270.30
453.97	6092.41
454.15	6043.26
454.34	5980.07
454.52	6216.46
454.70	6244.55
454.89	6314.77
455.07	6244.55
455.26	6214.12
455.44	6408.39
455.62	6307.74
455.81	6349.87
455.99	6354.55
456.17	6455.20
456.36	6525.41
456.54	6665.85
456.73	6579.25
456.91	6534.78
457.09	6724.36
457.28	6794.58
457.46	6511.37
457.64	6874.15
457.83	6827.34
458.01	6614.35
458.19	6759.47
458.38	6750.10
458.56	6946.71
458.74	6876.49
458.93	6832.02
459.11	6942.03
459.29	6855.43
459.48	6974.80
459.66	6965.43
459.84	6970.12
460.03	7089.48
460.21	7007.56
460.39	6799.26
460.57	7084.80
460.76	7054.37
460.94	7047.35
461.12	7068.42
461.31	7297.79
461.49	7148.00
461.67	7140.97
461.85	7302.47
462.04	7178.42
462.22	7683.98
462.40	7274.38
462.59	7339.92
462.77	7262.68
462.95	7293.11
463.13	7433.54
463.32	7449.93
463.50	7414.82
463.68	7454.61
463.86	7597.38
464.05	7433.54
464.23	7412.48
464.41	7555.25
464.59	7470.99
464.78	7740.15
464.96	7569.29
465.14	7349.28
465.32	7695.68
465.50	7641.85
465.69	7611.42
465.87	7557.59
466.05	7730.79
466.23	7714.41
466.41	7707.38
466.60	7831.43
466.78	7573.97
466.96	7789.30
467.14	7850.16
467.32	7939.10
467.51	7803.35
467.69	7740.15
467.87	7960.16
468.05	8028.04
468.23	7833.77
468.41	7810.37
468.60	8231.66
468.78	8159.11
468.96	7974.21
469.14	8037.40
469.32	8222.30
469.50	8030.38
469.69	8329.97
469.87	8332.31
470.05	8278.47
470.23	8374.44
470.41	8292.52
470.59	8390.82
470.77	8313.58
470.95	8461.04
471.14	8697.43
471.32	8580.40
471.50	8655.30
471.68	8575.72
471.86	8615.51
472.04	8671.68
472.22	8730.20
472.40	8805.10
472.58	8884.67
472.77	8636.58
472.95	8950.21
473.13	9132.77
473.31	8861.27
473.49	8840.20
473.67	9050.85
473.85	9020.42
474.03	9210.01
474.21	9179.58
474.39	9013.40
474.57	9312.99
474.75	9324.69
474.93	9350.44
475.12	9441.72
475.30	9767.06
475.48	9362.14
475.66	9577.47
475.84	9540.02
476.02	9753.01
476.20	9806.84
476.38	9916.85
476.56	9961.32
476.74	9706.20
476.92	10040.90
477.10	9933.23
477.28	10211.76
477.46	10265.59
477.64	10178.99
477.82	10417.72
478.00	10576.88
478.18	10394.32
478.36	10476.24
478.54	10684.55
478.72	10822.64
478.90	10895.19
479.08	10902.22
479.26	11059.03
479.44	10832.00
479.62	11265.00
479.80	11248.61
479.98	11375.00
480.16	11412.45
480.34	11442.88
480.52	11658.21
480.70	11587.99
480.88	11730.76
481.06	11658.21
481.24	11768.21
481.41	12102.91
481.59	12025.67
481.77	12002.27
481.95	12278.45
482.13	12315.90
482.31	12311.22
482.49	12470.37
482.67	12561.66
482.85	12840.18
483.03	12744.22
483.21	12975.93
483.39	13018.06
483.57	13015.72
483.74	13221.69
483.92	13184.24
484.10	13067.21
484.28	13252.11
484.46	13881.72
484.64	13968.32
484.82	13610.22
485.00	13844.27
485.18	14139.18
485.35	14235.14
485.53	14342.80
485.71	14352.16
485.89	14579.20
486.07	14394.29
486.25	14572.18
486.43	14871.76
486.61	14700.90
486.78	15105.82
486.96	15108.16
487.14	15489.67
487.32	15309.44
487.50	15405.41
487.68	15800.96
487.85	15616.05
488.03	15819.68
488.21	16159.06
488.39	15819.68
488.57	16194.17
488.75	16194.17
488.92	16439.92
489.10	16521.84
489.28	16704.40
489.46	17095.27
489.64	16886.97
489.81	17312.94
489.99	17064.85
490.17	17343.37
490.35	17539.97
490.53	17380.82
490.70	17518.91
490.88	17287.20
491.06	17764.67
491.24	17853.61
491.41	17905.10
491.59	18134.47
491.77	17926.16
491.95	18171.92
492.13	18565.13
492.30	18618.96
492.48	18686.84
492.66	18771.10
492.84	18815.57
493.01	19016.85
493.19	18932.59
493.37	19316.44
493.54	19316.44
493.72	19377.30
493.90	19463.90
494.08	19702.63
494.25	19463.90
494.43	19978.81
494.61	20088.82
494.79	20086.48
494.96	19836.04
495.14	20072.43
495.32	20629.48
495.49	20240.95
495.67	20702.04
495.85	20854.17
496.02	21123.33
496.20	20968.86
496.38	20924.39
496.55	21233.34
496.73	21563.36
496.91	21399.52
497.09	21511.86
497.26	21741.24
497.44	21364.41
497.62	21837.20
497.79	22204.66
497.97	22008.06
498.14	22157.85
498.32	22366.16
498.50	22204.66
498.67	22527.66
498.85	22609.58
499.03	22944.27
499.20	22661.07
499.38	22841.29
499.56	22972.36
499.73	23180.67
499.91	23147.90
500.08	23321.10
500.26	23592.60
500.44	23330.46
500.61	23374.93
500.79	23496.64
500.97	23676.86
501.14	23826.65
501.32	24154.33
501.49	24037.30
501.67	23964.75
501.84	24297.10
502.02	24360.30
502.20	23854.74
502.37	24135.60
502.55	24470.30
502.72	24603.71
502.90	24545.20
503.07	24353.27
503.25	24449.24
503.43	25001.60
503.60	25111.61
503.78	24893.94
503.95	25111.61
504.13	25111.61
504.30	25303.53
504.48	25102.25
504.65	25511.84
504.83	25467.37
505.01	25607.80
505.18	25752.91
505.36	25680.36
505.53	25853.56
505.71	25895.69
505.88	26082.93
506.06	25893.35
506.23	26499.55
506.41	26347.41
506.58	26012.71
506.76	26663.38
506.93	26335.71
507.11	26092.29
507.28	26478.48
507.46	26969.99
507.63	26614.23
507.81	27197.02
507.98	26670.40
508.16	26829.56
508.33	26757.00
508.50	26979.36
508.68	27358.52
508.85	27520.02
509.03	27550.45
509.20	27339.80
509.38	27768.12
509.55	27674.49
509.73	27957.70
509.90	28034.94
510.08	27651.09
510.25	28318.14
510.42	27948.34
510.60	27751.73
510.77	28184.73
510.95	28226.86
511.12	28308.78
511.30	28189.41
511.47	28505.38
511.64	28591.98
511.82	28699.65
511.99	28486.66
512.17	28727.74
512.34	28779.23
512.51	29076.48
512.69	29064.77
512.86	29315.21
513.04	29247.33
513.21	28950.09
513.38	29303.51
513.56	29343.30
513.73	29397.13
513.90	29364.36
514.08	29387.77
514.25	29596.07
514.43	29804.38
514.60	29984.60
514.77	29764.59
514.95	29986.94
515.12	29715.44
515.29	30015.03
515.47	30607.19
515.64	30506.54
515.81	30260.79
515.99	30300.58
516.16	30471.43
516.33	30455.05
516.51	30869.33
516.68	30455.05
516.85	30663.36
517.03	30941.88
517.20	31047.21
517.37	31091.68
517.54	30820.17
517.72	30967.63
517.89	31136.15
518.06	31133.81
518.24	31424.03
518.41	31208.70
518.58	31309.35
518.75	31222.75
518.93	31304.67
519.10	31337.43
519.27	31424.03
519.45	31519.99
519.62	31835.97
519.79	32067.68
519.96	31512.97
520.14	32091.09
520.31	31725.96
520.48	32114.49
520.65	32048.96
520.83	32481.95
521.00	32643.45
521.17	32102.79
521.34	32830.69
521.52	32910.27
521.69	32353.23
521.86	32905.59
522.03	32978.15
522.20	32512.38
522.38	33301.14
522.55	33111.56
522.72	33003.89
522.89	33174.75
523.07	33500.09
523.24	33638.18
523.41	33474.34
523.58	33228.59
523.75	33750.52
523.92	33406.47
524.10	33795.00
524.27	33813.72
524.44	34005.64
524.61	33539.88
524.78	34106.29
524.96	33965.85
525.13	33816.06
525.30	34082.88
525.47	34326.30
525.64	34340.34
525.81	34871.64
525.98	34204.59
526.16	34272.46
526.33	34244.38
526.50	34665.67
526.67	34122.67
526.84	34445.66
527.01	34422.26
527.18	34536.94
527.36	34937.18
527.53	35002.71
527.70	34899.73
527.87	35175.91
528.04	34426.94
528.21	35372.52
528.38	35475.50
528.55	35225.06
528.72	35119.74
528.89	35358.47
529.07	35002.71
529.24	35459.12
529.41	35503.59
529.58	35218.04
529.75	35182.93
529.92	35108.04
530.09	35681.47
530.26	35585.50
530.43	35714.23
530.60	35112.72
530.77	35234.42
530.94	35622.95
531.11	35683.81
531.28	36072.34
531.46	36224.47
531.63	35875.73
531.80	36084.04
531.97	35686.15
532.14	36388.31
532.31	36161.28
532.48	36297.03
532.65	36350.86
532.82	35948.29
532.99	36432.78
533.16	36142.55
533.33	36453.84
533.50	36935.99
533.67	36292.35
533.84	36191.70
534.01	36662.15
534.18	36849.39
534.35	36940.68
534.52	36847.05
534.69	37432.19
534.86	37383.04
535.03	37106.85
535.20	37390.06
535.37	37317.50
535.54	36847.05
535.71	36945.36
535.88	37371.33
536.05	36996.85
536.22	37956.47
536.38	37596.03
536.55	37303.46
536.72	37490.70
536.89	37338.57
537.06	37762.20
537.23	38129.67
537.40	37666.24
537.57	37567.94
537.74	37610.07
537.91	38237.33
538.08	38204.56
538.25	37986.89
538.42	37778.59
538.59	38305.21
538.75	37874.55
538.92	38171.80
539.09	38417.55
539.26	38057.11
539.43	38146.05
539.60	38518.20
539.77	38368.40
539.94	38663.31
540.11	38213.93
540.28	38426.92
540.44	38426.92
540.61	38412.87
540.78	38705.44
540.95	38272.44
541.12	38625.86
541.29	38382.45
541.46	38419.89
541.62	38553.30
541.79	38932.47
541.96	38529.90
542.13	39126.74
542.30	38836.51
542.47	38829.49
542.63	39292.91
542.80	39405.26
542.97	39416.96
543.14	39349.09
543.31	39292.91
543.48	39330.36
543.64	40320.41
543.81	39859.32
543.98	39864.00
544.15	39864.00
544.32	39831.24
544.48	40297.00
544.65	40418.71
544.82	39903.79
544.99	39615.91
545.16	39592.50
545.32	39763.36
545.49	40208.06
545.66	40149.55
545.83	40247.85
546.00	40203.38
546.16	40128.48
546.33	40184.66
546.50	40154.23
546.67	40751.07
546.83	39821.87
547.00	40100.40
547.17	40538.08
547.34	40210.40
547.50	40720.64
547.67	40872.78
547.84	40877.46
548.00	41174.70
548.17	41263.64
548.34	40802.56
548.51	40973.42
548.67	40942.99
548.84	41249.60
549.01	40484.25
549.18	40563.82
549.34	41118.53
549.51	40945.33
549.68	40840.01
549.84	40910.22
550.01	41352.58
550.18	41048.32
550.34	41153.64
550.51	41530.47
550.68	41633.45
550.84	40865.75
551.01	41357.27
551.18	41308.11
551.34	41858.14
551.51	41502.38
551.68	41268.33
551.84	41532.81
552.01	41844.10
552.18	41684.94
552.34	41387.69
552.51	41687.28
552.68	41371.31
552.84	41961.12
553.01	41996.23
553.18	41567.91
553.34	41663.88
553.51	41675.58
553.67	41675.58
553.84	42092.19
554.01	41970.49
554.17	41926.02
554.34	42232.63
554.51	42043.04
554.67	42513.49
554.84	41797.29
555.00	41902.61
555.17	42256.03
555.33	42564.98
555.50	42845.85
555.67	42181.13
555.83	42440.93
556.00	42588.39
556.16	42902.02
556.33	42337.95
556.50	42389.44
556.66	42419.87
556.83	42157.73
556.99	42579.03
557.16	42377.74
557.32	42815.42
557.49	43175.86
557.65	42387.10
557.82	42412.85
557.98	42646.90
558.15	42405.83
558.32	42801.38
558.48	42714.78
558.65	42859.89
558.81	42759.25
558.98	42796.70
559.14	43222.67
559.31	42953.51
559.47	42955.85
559.64	43194.59
559.80	42871.59
559.97	43222.67
560.13	42988.62
560.30	42988.62
560.46	43257.78
560.63	43257.78
560.79	43643.97
560.96	43536.30
561.12	43082.24
561.29	43669.72
561.45	43222.67
561.61	43564.39
561.78	43255.44
561.94	42724.14
562.11	43026.07
562.27	43012.02
562.44	42745.20
562.60	43311.61
562.77	43316.29
562.93	43639.29
563.10	43828.87
563.26	43627.59
563.42	43517.58
563.59	43489.49
563.75	43395.87
563.92	43346.72
564.08	43632.27
564.24	43690.78
564.41	43814.83
564.57	43629.93
564.74	43358.42
564.90	43770.36
565.07	43494.18
565.23	43676.74
565.39	43957.60
565.56	43847.60
565.72	43875.68
565.88	44126.12
566.05	44119.10
566.21	44067.61
566.38	43847.60
566.54	43859.30
566.70	44126.12
566.87	43784.40
567.03	43936.54
567.19	43910.79
567.36	44081.65
567.52	43948.24
567.68	44346.13
567.85	44170.59
568.01	44034.84
568.17	44025.48
568.34	43885.04
568.50	44329.75
568.66	43976.33
568.83	43992.71
568.99	44060.58
569.15	43999.73
569.32	43793.76
569.48	44039.52
569.64	44416.35
569.81	44353.15
569.97	44069.95
570.13	44196.34
570.30	43938.88
570.46	44463.16
570.62	44121.44
570.78	44418.69
570.95	43702.48
571.11	44629.34
571.27	44091.01
571.43	43966.96
571.60	44186.97
571.76	44336.77
571.92	44322.72
572.09	44381.24
572.25	44006.75
572.41	44149.53
572.57	44170.59
572.74	44992.12
572.90	43910.79
573.06	44411.67
573.22	44535.71
573.38	44542.74
573.55	43969.30
573.71	44474.86
573.87	44360.17
574.03	44280.60
574.20	44945.31
574.36	44575.50
574.52	44708.91
574.68	44289.96
574.84	44430.39
575.01	44449.11
575.17	44685.51
575.33	44369.54
575.49	44638.70
575.65	44868.07
575.82	44652.74
575.98	44154.21
576.14	44636.36
576.30	44861.05
576.46	44411.67
576.62	44481.88
576.79	44608.27
576.95	44212.72
577.11	44596.57
577.27	44467.84
577.43	44643.38
577.59	44680.83
577.75	44751.04
577.92	44044.20
578.08	44533.37
578.24	44645.72
578.40	44612.95
578.56	44786.15
578.72	44519.33
578.88	45045.95
579.04	44367.20
579.21	44463.16
579.37	44847.00
579.53	44863.39
579.69	44657.42
579.85	44725.30
580.01	44945.31
580.17	44308.68
580.33	45130.21
580.49	44580.18
580.65	44854.03
580.82	44488.90
580.98	44512.31
581.14	44711.25
581.30	45001.48
581.46	44774.45
581.62	44669.12
581.78	44720.62
581.94	44856.37
582.10	44472.52
582.26	44449.11
582.42	44865.73
582.58	44683.17
582.74	45177.02
582.90	44938.29
583.06	44858.71
583.22	45031.91
583.38	44886.79
583.54	44959.35
583.70	44886.79
583.86	45071.70
584.02	44889.13
584.18	45116.17
584.34	45043.61
584.50	45052.97
584.66	45179.36
584.82	45043.61
584.98	45294.05
585.14	45289.37
585.30	44987.44
585.46	45001.48
585.62	44921.90
585.78	45120.85
585.94	44701.89
586.10	44849.35
586.26	44727.64
586.42	44896.16
586.58	45333.84
586.74	44830.62
586.90	44554.44
587.06	44875.09
587.22	45261.28
587.38	45024.89
587.54	44928.92
587.70	45397.03
587.86	45085.74
588.02	45177.02
588.18	44886.79
588.34	45102.12
588.49	45048.29
588.65	45294.05
588.81	44474.86
588.97	45226.17
589.13	44650.40
589.29	44980.42
589.45	45095.10
589.61	45326.81
589.77	45411.07
589.93	45270.64
590.08	45193.40
590.24	45783.22
590.40	45586.61
590.56	45888.54
590.72	45064.67
590.88	45432.14
591.04	45148.93
591.20	45734.07
591.35	45717.68
591.51	45804.28
591.67	45462.57
591.83	45294.05
591.99	45502.35
592.15	45343.20
592.31	45298.73
592.46	45029.57
592.62	45397.03
592.78	45125.53
592.94	46333.24
593.10	45844.07
593.26	45448.52
593.41	45830.03
593.57	45895.56
593.73	45401.71
593.89	45881.52
594.05	45935.35
594.20	45951.74
594.36	45834.71
594.52	45776.20
594.68	45556.19
594.84	45771.52
594.99	46241.96
595.15	45773.86
595.31	45914.29
595.47	45282.34
595.62	45478.95
595.78	45572.57
595.94	45940.04
596.10	45542.14
596.25	45682.58
596.41	45804.28
596.57	45476.61
596.73	46167.07
596.88	45958.76
597.04	45720.02
597.20	46211.54
597.36	46026.63
597.51	45570.23
597.67	45244.90
597.83	45937.69
597.99	46047.70
598.14	45481.29
598.30	45701.30
598.46	45256.60
598.61	45975.14
598.77	45907.27
598.93	45752.79
599.09	45619.38
599.24	45792.58
599.40	45734.07
599.56	45909.61
599.71	46293.46
599.87	46237.28
600.03	45883.86
600.18	46031.32
600.34	45827.69
600.50	45949.40
600.65	45911.95
600.81	46206.86
600.97	46038.34
601.12	46344.95
601.28	46183.45
601.44	45427.46
601.59	45886.20
601.75	45680.24
601.91	45851.09
602.06	46000.89
602.22	45710.66
602.37	45689.60
602.53	45876.84
602.69	46314.52
602.84	45635.77
603.00	45659.17
603.16	45813.65
603.31	45530.44
603.47	45607.68
603.62	46155.36
603.78	45984.51
603.94	45654.49
604.09	45867.48
604.25	46033.66
604.40	45635.77
604.56	46122.60
604.71	46291.12
604.87	45783.22
605.03	45509.38
605.18	45738.75
605.34	45680.24
605.49	45603.00
605.65	45942.38
605.80	45837.05
605.96	45970.46
606.12	45787.90
606.27	45993.87
606.43	46129.62
606.58	45839.39
606.74	45776.20
606.89	45635.77
607.05	46216.22
607.20	46043.02
607.36	45682.58
607.51	45617.04
607.67	45530.44
607.82	45347.88
607.98	45633.42
608.13	45521.08
608.29	45567.89
608.44	45675.55
608.60	45656.83
608.75	45750.45
608.91	45610.02
609.06	45219.15
609.22	45600.66
609.37	45287.03
609.53	45769.18
609.68	45666.19
609.84	45703.64
609.99	45691.94
610.15	45591.30
610.30	45874.50
610.46	45361.92
610.61	45158.30
610.76	45471.93
610.92	45024.89
611.07	45148.93
611.23	45453.20
611.38	45553.85
611.54	45605.34
611.69	45565.55
611.84	45546.82
612.00	45010.84
612.15	45511.72
612.31	45427.46
612.46	45113.83
612.62	45198.09
612.77	45137.23
612.92	45382.99
613.08	45284.68
613.23	45289.37
613.39	45216.81
613.54	45186.38
613.69	45375.97
613.85	45464.91
614.00	45450.86
614.15	45792.58
614.31	44879.77
614.46	45160.64
614.62	45001.48
614.77	45345.54
614.92	45188.72
615.08	44875.09
615.23	45095.10
615.38	45249.58
615.54	45155.96
615.69	45450.86
615.84	44900.84
616.00	44959.35
616.15	45017.86
616.30	44814.24
616.46	44898.50
616.61	45099.78
616.76	44905.52
616.92	44680.83
617.07	44921.90
617.22	44711.25
617.37	44917.22
617.53	44856.37
617.68	44659.76
617.83	44744.02
617.99	45404.05
618.14	45148.93
618.29	44758.06
618.45	44549.76
618.60	44690.19
618.75	44458.48
618.90	44446.77
619.06	44481.88
619.21	44418.69
619.36	44875.09
619.51	44467.84
619.67	44371.88
619.82	44390.60
619.97	44790.83
620.12	44491.24
620.28	44067.61
620.43	44802.53
620.58	44617.63
620.73	44594.23
620.89	44563.80
621.04	44687.85
621.19	44402.30
621.34	44343.79
621.49	43997.39
621.65	44369.54
621.80	44830.62
621.95	44589.55
622.10	44023.14
622.25	44381.24
622.41	44020.80
622.56	43854.62
622.71	44343.79
622.86	44091.01
623.01	44519.33
623.16	44210.38
623.32	44254.85
623.47	43938.88
623.62	43746.95
623.77	44083.99
623.92	44179.95
624.07	43999.73
624.23	44133.14
624.38	43847.60
624.53	43608.86
624.68	43976.33
624.83	43976.33
624.98	44191.65
625.13	43253.10
625.29	43667.37
625.44	43814.83
625.59	43662.69
625.74	43559.71
625.89	43714.19
626.04	43414.60
626.19	43503.54
626.34	43868.66
626.49	43112.67
626.65	42955.85
626.80	43505.88
626.95	43487.15
627.10	43618.22
627.25	43711.84
627.40	43606.52
627.55	43299.91
627.70	43185.22
627.85	43459.07
628.00	43555.03
628.15	43618.22
628.30	43182.88
628.45	42700.73
628.60	43323.32
628.76	42927.77
628.91	43234.38
629.06	42960.53
629.21	42700.73
629.36	43241.40
629.51	42916.06
629.66	43260.12
629.81	42934.79
629.96	43166.50
630.11	42857.55
630.26	43037.77
630.41	43264.80
630.56	42976.92
630.71	42988.62
630.86	42389.44
631.01	42773.29
631.16	42726.48
631.31	42892.66
631.46	42693.71
631.61	43297.57
631.76	43206.29
631.91	42703.07
632.06	43522.26
632.21	42422.21
632.36	43164.16
632.51	42586.05
632.66	42672.65
632.81	42656.26
632.96	42614.13
633.10	42862.23
633.25	42899.68
633.40	42593.07
633.55	42993.30
633.70	42696.05
633.85	42614.13
634.00	42176.45
634.15	42354.33
634.30	42335.61
634.45	42227.95
634.60	42197.52
634.75	42431.57
634.90	42595.41
635.05	42515.83
635.19	42466.68
635.34	42160.07
635.49	42508.81
635.64	41986.87
635.79	42656.26
635.94	42370.72
636.09	42478.38
636.24	42073.47
636.39	42153.05
636.53	42127.30
636.68	41794.95
636.83	41551.53
636.98	42033.68
637.13	41329.18
637.28	42052.41
637.43	42017.30
637.57	41806.65
637.72	41432.16
637.87	41612.38
638.02	41895.59
638.17	41825.37
638.32	41823.03
638.46	41542.17
638.61	41294.07
638.76	41680.26
638.91	41708.35
639.06	41336.20
639.20	41329.18
639.35	41273.01
639.50	41277.69
639.65	41698.98
639.80	41607.70
639.94	41284.71
640.09	41397.06
640.24	41024.91
640.39	40910.22
640.54	41141.94
640.68	41277.69
640.83	41462.59
640.98	40966.40
641.13	41078.74
641.27	41626.43
641.42	41003.85
641.57	41345.56
641.72	41223.86
641.86	41036.61
642.01	41078.74
642.16	41375.99
642.31	40231.47
642.45	41144.28
642.60	40903.20
642.75	40847.03
642.90	41167.68
643.04	41076.40
643.19	41069.38
643.34	40502.97
643.48	40297.00
643.63	40493.61
643.78	40919.59
643.93	40502.97
644.07	40954.69
644.22	40893.84
644.37	40591.91
644.51	41034.27
644.66	40500.63
644.81	40781.49
644.95	41092.79
645.10	40502.97
645.25	40524.04
645.39	40093.38
645.54	40336.79
645.69	40161.25
645.83	39945.92
645.98	40287.64
646.13	40418.71
646.27	39861.66
646.42	40168.27
646.57	40280.62
646.71	40495.95
646.86	40320.41
647.00	40629.36
647.15	40844.69
647.30	40395.31
647.44	40170.61
647.59	39997.41
647.74	40491.27
647.88	40261.90
648.03	40222.11
648.17	40486.59
648.32	40292.32
648.47	40509.99
648.61	40170.61
648.76	39770.38
648.90	40240.83
649.05	39683.78
649.20	39887.41
649.34	40053.59
649.49	39899.11
649.63	40257.21
649.78	40020.82
649.92	40187.00
650.07	40184.66
650.21	40229.13
650.36	40233.81
650.51	39737.62
650.65	40084.01
650.80	39700.17
650.94	39805.49
651.09	39824.22
651.23	39253.12
651.38	39641.65
651.52	39234.40
651.67	39646.33
651.81	40067.63
651.96	39391.22
652.10	39381.85
652.25	39126.74
652.39	39571.44
652.54	39489.52
652.68	39129.08
652.83	39503.56
652.97	39487.18
653.12	39470.79
653.26	39063.54
653.41	39643.99
653.55	39433.35
653.70	39615.91
653.84	39447.39
653.99	39323.34
654.13	39349.09
654.27	39028.43
654.42	39047.16
654.56	39199.29
654.71	38785.02
654.85	39246.10
655.00	39194.61
655.14	38698.42
655.29	39131.42
655.43	39192.27
655.57	38742.89
655.72	38733.53
655.86	38536.92
656.01	38249.03
656.15	38873.96
656.30	38888.00
656.44	38958.22
656.58	39070.56
656.73	38904.38
656.87	38700.76
657.01	38436.28
657.16	38829.49
657.30	38321.59
657.45	38843.53
657.59	38532.24
657.73	38022.00
657.88	38216.27
658.02	38644.59
658.16	38946.51
658.31	38824.81
658.45	38319.25
658.60	38274.78
658.74	38352.02
658.88	38019.66
659.03	37972.85
659.17	38199.88
659.31	38181.16
659.46	37591.34
659.60	38106.26
659.74	38333.29
659.89	37937.74
660.03	37635.81
660.17	38164.78
660.32	37603.05
660.46	37951.79
660.60	37376.01
660.74	37600.71
660.89	37586.66
661.03	37504.74
661.17	37242.60
661.32	37315.16
661.46	37251.97
661.60	37172.39
661.74	37205.16
661.89	37464.96
662.03	37322.18
662.17	36950.04
662.31	37085.79
662.46	37347.93
662.60	37111.53
662.74	36655.13
662.88	36582.57
663.03	36842.37
663.17	36617.68
663.31	36575.55
663.45	36613.00
663.60	36926.63
663.74	36896.20
663.88	36638.75
664.02	36545.12
664.17	36851.73
664.31	36397.67
664.45	36055.95
664.59	36325.11
664.73	36023.19
664.88	36105.10
665.02	35903.82
665.16	36247.88
665.30	36369.58
665.44	35800.83
665.59	35786.79
665.73	35683.81
665.87	35454.44
666.01	35697.85
666.15	36105.10
666.29	35845.30
666.44	35929.56
666.58	35562.10
666.72	35665.08
666.86	35161.87
667.00	35180.59
667.14	35241.45
667.28	35213.36
667.43	35000.37
667.57	35531.67
667.71	35613.59
667.85	35440.39
667.99	34909.09
668.13	34815.47
668.27	34864.62
668.41	35072.93
668.56	34499.50
668.70	34478.43
668.84	34565.03
668.98	34440.98
669.12	34763.98
669.26	34703.12
669.40	34628.23
669.54	34167.14
669.68	34368.43
669.82	33811.38
669.96	33851.17
670.10	33816.06
670.25	34050.11
670.39	34129.69
670.53	34309.91
670.67	33729.46
670.81	34183.52
670.95	34312.25
671.09	34031.39
671.23	33677.97
671.37	33811.38
671.51	33357.32
671.65	33823.08
671.79	33455.62
671.93	33343.27
672.07	33287.10
672.21	33399.44
672.35	33376.04
672.49	33275.40
672.63	33167.73
672.77	32971.13
672.91	33060.07
673.05	32921.98
673.19	32577.92
673.33	32474.93
673.47	32364.93
673.61	32627.07
673.75	32385.99
673.89	32493.66
674.03	32048.96
674.17	31962.36
674.31	32435.14
674.45	31730.64
674.59	31901.50
674.73	32004.49
674.87	31859.37
675.01	31323.39
675.15	31367.86
675.29	31337.43
675.43	30955.93
675.56	31330.41
675.70	31587.87
675.84	31192.32
675.98	30106.31
676.12	30857.62
676.26	31337.43
676.40	30855.28
676.54	30691.44
676.68	30745.28
676.82	30300.58
676.96	30986.35
677.10	30422.28
677.23	30494.84
677.37	30171.85
677.51	30338.02
677.65	30398.88
677.79	30094.61
677.93	30195.25
678.07	30015.03
678.21	29710.76
678.34	29572.67
678.48	29455.64
678.62	29738.85
678.76	29780.98
678.90	29563.31
679.04	29429.90
679.18	29467.34
679.31	28980.51
679.45	29156.05
679.59	29214.57
679.73	28929.02
679.87	29020.30
680.00	28858.81
680.14	28673.90
680.28	28692.63
680.42	28872.85
680.56	27988.13
680.70	28210.48
680.83	28121.54
680.97	28020.89
681.11	27929.61
681.25	27374.91
681.39	27552.79
681.52	27564.49
681.66	27337.46
681.80	27154.90
681.94	26597.85
682.07	27094.04
682.21	27152.55
682.35	26874.03
682.49	26981.70
682.62	26883.39
682.76	27180.64
682.90	27091.70
683.04	26635.30
683.17	26532.31
683.31	26457.42
683.45	26497.20
683.59	26111.02
683.72	26108.68
683.86	25916.75
684.00	25502.48
684.13	25656.95
684.27	25425.24
684.41	25837.17
684.55	25553.97
684.68	25806.75
684.82	25238.00
684.96	25221.61
685.09	25195.87
685.23	25214.59
685.37	25408.86
685.50	25259.06
685.64	25135.01
685.78	24463.28
685.91	25006.28
686.05	24395.40
686.19	24159.01
686.32	24559.24
686.46	24154.33
686.60	23915.59
686.73	24231.57
686.87	23817.29
687.01	24212.84
687.14	24187.10
687.28	23908.57
687.42	23569.19
687.55	23400.68
687.69	23695.58
687.82	23379.61
687.96	23672.18
688.10	23669.84
688.23	23496.64
688.37	23175.98
688.50	23506.00
688.64	22970.02
688.78	23037.89
688.91	23007.47
689.05	22888.10
689.18	22862.35
689.32	22064.23
689.46	22632.98
689.59	22436.38
689.73	22558.08
689.86	22647.02
690.00	22333.39
690.13	21876.99
690.27	22129.77
690.41	21867.63
690.54	21781.03
690.68	21434.63
690.81	21458.03
690.95	21549.31
691.08	21479.10
691.22	21055.46
691.35	21029.71
691.49	21528.25
691.62	20994.61
691.76	20779.28
691.89	20292.44
692.03	20512.46
692.16	20252.66
692.30	20622.46
692.43	20269.04
692.57	20166.06
692.70	20379.04
692.84	20219.89
692.97	19920.30
693.11	19990.52
693.24	20201.16
693.38	19768.16
693.51	19704.97
693.65	19613.69
693.78	19438.15
693.92	19438.15
694.05	19491.98
694.19	19398.36
694.32	19105.79
694.45	19674.54
694.59	19590.28
694.72	19400.70
694.86	18958.34
694.99	18670.45
695.13	18939.62
695.26	18499.59
695.39	18310.01
695.53	18412.99
695.66	18710.24
695.80	18375.55
695.93	18494.91
696.07	17832.54
696.20	17980.00
696.33	17673.39
696.47	17745.94
696.60	17872.33
696.73	18068.94
696.87	17781.05
697.00	17977.65
697.14	17614.87
697.27	17458.06
697.40	17392.52
697.54	17408.90
697.67	17240.39
697.80	17350.39
697.94	16968.88
698.07	17158.47
698.21	17144.42
698.34	17027.40
698.47	17074.21
698.61	16547.59
698.74	16472.69
698.87	16484.39
699.01	16056.08
699.14	16475.03
699.27	16189.49
699.40	16257.36
699.54	16217.57
699.67	15878.19
699.80	16072.46
699.94	15873.51
700.07	16196.51
700.20	15899.26
700.34	15688.61
700.47	15484.98
700.60	15815.00
700.73	15721.38
700.87	15527.11
701.00	15466.26
701.13	15044.96
701.26	15183.06
701.40	15194.76
701.53	15016.88
701.66	14970.07
701.79	15005.17
701.93	14813.25
702.06	14909.21
702.19	14579.20
702.32	14637.71
702.46	14677.50
702.59	14764.10
702.72	14593.24
702.85	14609.62
702.99	14525.36
703.12	14125.13
703.25	14221.10
703.38	14092.37
703.51	14080.66
703.65	14274.93
703.78	13738.94
703.91	13987.04
704.04	13703.84
704.17	13912.14
704.31	13832.57
704.44	13689.79
704.57	13418.29
704.70	13404.25
704.83	13369.14
704.96	12971.25
705.10	13139.77
705.23	13256.79
>>>>>End Processed Spectral Data<<<<<
