SpectraSuite Data File
++++++++++++++++++++++++++++++++++++
Date: Fri Oct 25 11:33:25 EDT 2013
User: price-jones
Dark Spectrum Present: No
Reference Spectrum Present: No
Number of Sampled Component Spectra: 1
Spectrometers: USB2+H05261
Integration Time (usec): 100000 (USB2+H05261)
Spectra Averaged: 1 (USB2+H05261)
Boxcar Smoothing: 0 (USB2+H05261)
Correct for Electrical Dark: No (USB2+H05261)
Strobe/Lamp Enabled: No (USB2+H05261)
Correct for Detector Non-linearity: No (USB2+H05261)
Correct for Stray Light: No (USB2+H05261)
Number of Pixels in Processed Spectrum: 2048
>>>>>Begin Processed Spectral Data<<<<<
365.73	290.23
365.92	290.23
366.12	290.23
366.32	154.48
366.52	138.09
366.72	140.43
366.91	166.18
367.11	154.48
367.31	182.56
367.51	121.71
367.70	138.09
367.90	215.33
368.10	184.90
368.30	198.95
368.49	135.75
368.69	187.24
368.89	142.77
369.09	131.07
369.28	248.10
369.48	231.71
369.68	271.50
369.87	217.67
370.07	248.10
370.27	315.97
370.47	351.08
370.66	402.57
370.86	545.34
371.06	613.22
371.25	512.58
371.45	517.26
371.65	561.73
371.84	547.69
372.04	543.00
372.24	620.24
372.44	573.43
372.63	573.43
372.83	517.26
373.03	594.50
373.22	519.60
373.42	617.90
373.62	603.86
373.81	599.18
374.01	657.69
374.21	627.26
374.40	645.99
374.60	601.52
374.79	610.88
374.99	580.45
375.19	688.12
375.38	631.94
375.58	667.05
375.78	627.26
375.97	683.44
376.17	613.22
376.37	685.78
376.56	678.76
376.76	699.82
376.95	688.12
377.15	683.44
377.35	748.97
377.54	674.07
377.74	763.01
377.93	587.47
378.13	660.03
378.33	741.95
378.52	739.61
378.72	730.25
378.91	734.93
379.11	620.24
379.31	734.93
379.50	711.52
379.70	807.48
379.89	660.03
380.09	746.63
380.28	688.12
380.48	741.95
380.68	706.84
380.87	704.50
381.07	798.12
381.26	800.46
381.46	765.36
381.65	765.36
381.85	770.04
382.04	737.27
382.24	725.57
382.43	709.18
382.63	725.57
382.83	828.55
383.02	833.23
383.22	835.57
383.41	779.40
383.61	741.95
383.80	873.02
384.00	816.85
384.19	828.55
384.39	805.14
384.58	802.80
384.78	840.25
384.97	772.38
385.17	889.40
385.36	842.59
385.56	896.43
385.75	856.64
385.95	809.83
386.14	826.21
386.34	873.02
386.53	798.12
386.72	819.19
386.92	898.77
387.11	889.40
387.31	910.47
387.50	858.98
387.70	896.43
387.89	833.23
388.09	858.98
388.28	908.13
388.48	973.66
388.67	999.41
388.86	926.85
389.06	933.87
389.25	971.32
389.45	924.51
389.64	947.92
389.84	950.26
390.03	1020.47
390.22	905.79
390.42	936.21
390.61	1027.50
390.81	950.26
391.00	1057.92
391.19	1029.84
391.39	1013.45
391.58	1064.94
391.78	990.05
391.97	1057.92
392.16	954.94
392.36	1020.47
392.55	1076.65
392.75	1043.88
392.94	1036.86
393.13	1111.75
393.33	1086.01
393.52	1121.12
393.71	1076.65
393.91	1041.54
394.10	1109.41
394.29	1093.03
394.49	1174.95
394.68	1100.05
394.88	1032.18
395.07	1097.71
395.26	1135.16
395.46	1081.33
395.65	1118.78
395.84	1214.74
396.04	1224.10
396.23	1158.57
396.42	1200.69
396.62	1198.35
396.81	1196.01
397.00	1151.54
397.19	1334.11
397.39	1235.80
397.58	1219.42
397.77	1238.14
397.97	1191.33
398.16	1196.01
398.35	1301.34
398.55	1266.23
398.74	1345.81
398.93	1409.00
399.12	1174.95
399.32	1331.76
399.51	1287.29
399.70	1392.62
399.90	1385.60
400.09	1399.64
400.28	1383.26
400.47	1392.62
400.67	1465.18
400.86	1373.89
401.05	1469.86
401.24	1404.32
401.44	1502.62
401.63	1409.00
401.82	1528.37
402.01	1465.18
402.21	1490.92
402.40	1481.56
402.59	1462.83
402.78	1544.75
402.97	1603.27
403.17	1563.48
403.36	1549.43
403.55	1652.42
403.74	1521.35
403.93	1610.29
404.13	1577.52
404.32	1619.65
404.51	1497.94
404.70	1603.27
404.89	1722.63
405.09	1650.08
405.28	1666.46
405.47	1685.19
405.66	1703.91
405.85	1692.21
406.05	1722.63
406.24	1785.83
406.43	1734.34
406.62	1834.98
406.81	1839.66
407.00	1771.79
407.20	1722.63
407.39	1795.19
407.58	1902.86
407.77	1783.49
407.96	1919.24
408.15	1907.54
408.34	1870.09
408.54	1877.11
408.73	1888.81
408.92	1865.41
409.11	1984.77
409.30	1998.82
409.49	1923.92
409.68	1907.54
409.87	1959.03
410.07	2047.97
410.26	2062.01
410.45	2118.18
410.64	2026.90
410.83	2076.06
411.02	2120.53
411.21	2242.23
411.40	2069.03
411.59	2232.87
411.78	2200.10
411.98	2190.74
412.17	2249.25
412.36	2328.83
412.55	2321.81
412.74	2368.62
412.93	2399.05
413.12	2282.02
413.31	2513.74
413.50	2438.84
413.69	2469.27
413.88	2541.82
414.07	2466.92
414.26	2541.82
414.45	2368.62
414.64	2523.10
414.83	2647.15
415.02	2623.74
415.22	2623.74
415.41	2689.28
415.60	2614.38
415.79	2656.51
415.98	2757.15
416.17	2724.38
416.36	2773.53
416.55	2724.38
416.74	2843.75
416.93	2874.18
417.12	2848.43
417.31	2946.73
417.50	2827.37
417.69	2965.46
417.88	2965.46
418.07	2998.23
418.26	3061.42
418.45	2956.10
418.64	3033.33
418.83	3059.08
419.02	3103.55
419.21	3019.29
419.39	3152.70
419.58	3138.66
419.77	3080.14
419.96	3236.96
420.15	3159.72
420.34	3229.94
420.53	3236.96
420.72	3255.69
420.91	3194.83
421.10	3171.43
421.29	3276.75
421.48	3157.38
421.67	3279.09
421.86	3361.01
422.05	3309.52
422.24	3363.35
422.43	3288.45
422.61	3405.48
422.80	3321.22
422.99	3407.82
423.18	3318.88
423.37	3447.61
423.56	3382.07
423.75	3421.86
423.94	3396.12
424.13	3208.87
424.32	3272.07
424.50	3358.67
424.69	3655.92
424.88	3503.78
425.07	3473.36
425.26	3382.07
425.45	3463.99
425.64	3475.70
425.83	3426.54
426.01	3543.57
426.20	3417.18
426.39	3501.44
426.58	3440.59
426.77	3431.23
426.96	3452.29
427.15	3555.27
427.33	3571.66
427.52	3681.66
427.71	3562.30
427.90	3620.81
428.09	3728.47
428.28	3772.94
428.46	3686.34
428.65	3712.09
428.84	3791.67
429.03	3878.27
429.22	3637.19
429.40	3686.34
429.59	3754.22
429.78	3658.26
429.97	3815.07
430.16	3775.28
430.34	3803.37
430.53	3803.37
430.72	3904.01
430.91	3950.82
431.10	3927.42
431.28	3901.67
431.47	3990.61
431.66	4077.21
431.85	3866.56
432.03	4133.39
432.22	4224.67
432.41	4081.89
432.60	4149.77
432.79	4084.23
432.97	4091.26
433.16	4102.96
433.35	4044.45
433.54	4152.11
433.72	4238.71
433.91	4290.20
434.10	4353.40
434.28	4264.46
434.47	4355.74
434.66	4243.39
434.85	4252.75
435.03	4416.59
435.22	4348.72
435.41	4404.89
435.59	4374.46
435.78	4484.47
435.97	4418.93
436.16	4468.08
436.34	4205.94
436.53	4442.34
436.72	4545.32
436.90	4425.95
437.09	4652.98
437.28	4421.27
437.46	4538.30
437.65	4730.22
437.84	4608.51
438.02	4531.28
438.21	4571.07
438.40	4704.48
438.58	4809.80
438.77	4751.29
438.96	4678.73
439.14	4919.81
439.33	4880.02
439.52	4863.63
439.70	5170.24
439.89	4999.38
440.08	5022.79
440.26	5177.26
440.45	5109.39
440.63	5158.54
440.82	5095.35
441.01	5188.97
441.19	5348.12
441.38	5343.44
441.57	5181.95
441.75	5408.98
441.94	5406.64
442.12	5432.38
442.31	5350.46
442.50	5640.69
442.68	5589.20
442.87	5504.94
443.05	5579.84
443.24	5652.39
443.43	5650.05
443.61	5530.69
443.80	5792.83
443.98	5469.83
444.17	5327.06
444.35	5729.63
444.54	5659.42
444.73	5563.45
444.91	5652.39
445.10	5795.17
445.28	5736.65
445.47	5664.10
445.65	5706.23
445.84	5762.40
446.02	5696.86
446.21	5682.82
446.39	5706.23
446.58	5643.03
446.77	5788.14
446.95	5673.46
447.14	5596.22
447.32	5783.46
447.51	5860.70
447.69	5638.35
447.88	5776.44
448.06	5795.17
448.25	5841.98
448.43	5928.58
448.62	5748.36
448.80	5886.45
448.99	5771.76
449.17	5916.87
449.36	5912.19
449.54	5886.45
449.73	6045.60
449.91	6031.56
450.10	6024.54
450.28	6174.33
450.46	6134.54
450.65	6314.77
450.83	6101.78
451.02	6099.44
451.20	6265.61
451.39	6141.57
451.57	6197.74
451.76	6326.47
451.94	6277.32
452.13	6272.64
452.31	6317.11
452.49	6200.08
452.68	6265.61
452.86	6333.49
453.05	6459.88
453.23	6438.81
453.42	6354.55
453.60	6434.13
453.78	6410.73
453.97	6457.54
454.15	6471.58
454.34	6417.75
454.52	6471.58
454.70	6434.13
454.89	6736.06
455.07	6494.99
455.26	6619.04
455.44	6712.66
455.62	6654.14
455.81	6712.66
455.99	6794.58
456.17	6857.77
456.36	6806.28
456.54	6815.64
456.73	7007.56
456.91	7096.50
457.09	6890.54
457.28	7119.91
457.46	6932.67
457.64	6991.18
457.83	7126.93
458.01	7021.61
458.19	7274.38
458.38	7288.43
458.56	7187.79
458.74	7323.54
458.93	7222.89
459.11	7325.88
459.29	7290.77
459.48	7337.58
459.66	7370.35
459.84	7253.32
460.03	7531.84
460.21	7407.80
460.39	7300.13
460.57	7407.80
460.76	7368.01
460.94	7545.89
461.12	7602.06
461.31	7473.33
461.49	7536.52
461.67	7541.21
461.85	7845.48
462.04	7655.89
462.22	8067.83
462.40	7796.32
462.59	7749.51
462.77	7810.37
462.95	7761.22
463.13	7742.49
463.32	7815.05
463.50	8173.15
463.68	7953.14
463.86	7953.14
464.05	7847.82
464.23	7906.33
464.41	8072.51
464.59	8046.76
464.78	8161.45
464.96	8056.12
465.14	7927.39
465.32	8177.83
465.50	7985.91
465.69	8135.70
465.87	8142.72
466.05	8215.28
466.23	8229.32
466.41	8264.43
466.60	8435.29
466.78	8079.53
466.96	8266.77
467.14	8318.26
467.32	8271.45
467.51	8409.54
467.69	8109.96
467.87	8201.24
468.05	8407.20
468.23	8367.42
468.41	8552.32
468.60	8505.51
468.78	8489.12
468.96	8374.44
469.14	8709.13
469.32	8751.26
469.50	8545.30
469.69	8753.60
469.87	8730.20
470.05	8732.54
470.23	8971.27
470.41	8678.71
470.59	8968.93
470.77	8861.27
470.95	8884.67
471.14	9076.60
471.32	9020.42
471.50	9170.22
471.68	9057.87
471.86	9130.43
472.04	9095.32
472.22	9205.33
472.40	9067.24
472.58	9277.88
472.77	9387.89
472.95	9441.72
473.13	9724.93
473.31	9488.53
473.49	9547.05
473.67	9570.45
473.85	9626.62
474.03	9755.35
474.21	9710.88
474.39	9741.31
474.57	9895.78
474.75	9788.12
474.93	9980.04
475.12	9806.84
475.30	9961.32
475.48	9958.98
475.66	10188.35
475.84	9919.19
476.02	10415.38
476.20	10359.21
476.38	10485.60
476.56	10223.46
476.74	10712.63
476.92	10462.19
477.10	10424.75
477.28	10593.26
477.46	10754.76
477.64	10686.89
477.82	11117.54
478.00	11164.36
478.18	11204.14
478.36	11304.79
478.54	11358.62
478.72	11513.10
478.90	11548.20
479.08	11688.64
479.26	11536.50
479.44	11735.45
479.62	11915.67
479.80	12189.51
479.98	11925.03
480.16	12336.96
480.34	12006.95
480.52	12264.41
480.70	12278.45
480.88	12032.69
481.06	12418.88
481.24	12367.39
481.41	12765.28
481.59	12943.16
481.77	12879.97
481.95	13074.23
482.13	13205.30
482.31	13174.88
482.49	13331.69
482.67	13004.02
482.85	13514.25
483.03	13607.87
483.21	13870.01
483.39	13944.91
483.57	13977.68
483.74	14057.26
483.92	14066.62
484.10	13799.80
484.28	14363.87
484.46	14518.34
484.64	14590.90
484.82	14420.04
485.00	14822.61
485.18	14953.68
485.35	15066.03
485.53	15199.44
485.71	15124.54
485.89	15407.75
486.07	15328.17
486.25	15463.92
486.43	15487.32
486.61	15721.38
486.78	15894.58
486.96	15920.32
487.14	15932.03
487.32	16360.34
487.50	16592.06
487.68	16582.70
487.85	17057.82
488.03	17055.48
488.21	16957.18
488.39	17207.62
488.57	17366.78
488.75	17259.11
488.92	17577.42
489.10	17682.75
489.28	17652.32
489.46	17958.93
489.64	17802.11
489.81	18349.80
489.99	18174.26
490.17	18274.90
490.35	18686.84
490.53	18724.29
490.70	18738.33
490.88	18647.05
491.06	18625.98
491.24	18831.95
491.41	19016.85
491.59	19075.37
491.77	19440.49
491.95	19501.34
492.13	19714.33
492.30	19594.96
492.48	19857.10
492.66	19751.78
492.84	19805.61
493.01	20250.32
493.19	20128.61
493.37	20690.34
493.54	20940.77
493.72	20741.83
493.90	20762.89
494.08	20891.62
494.25	20978.22
494.43	21350.37
494.61	21018.01
494.79	21591.44
494.96	21312.92
495.14	21486.12
495.32	21446.33
495.49	21977.63
495.67	21869.97
495.85	21818.47
496.02	22424.67
496.20	22309.99
496.38	22537.02
496.55	22242.11
496.73	23147.90
496.91	22740.64
497.09	22808.52
497.26	22782.77
497.44	22965.34
497.62	22965.34
497.79	23695.58
497.97	23639.41
498.14	23417.06
498.32	23784.52
498.50	23889.85
498.67	24067.73
498.85	23824.31
499.03	23922.62
499.20	24156.67
499.38	24173.05
499.56	24463.28
499.73	24489.03
499.91	24446.90
500.08	24723.08
500.26	24496.05
500.44	25113.95
500.61	24912.66
500.79	24554.56
500.97	25418.22
501.14	25240.34
501.32	25675.68
501.49	25252.04
501.67	25687.38
501.84	25472.05
502.02	25862.92
502.20	25736.53
502.37	25633.55
502.55	26141.44
502.72	26043.14
502.90	26321.66
503.07	26061.87
503.25	26232.72
503.43	26057.18
503.60	26511.25
503.78	26696.15
503.95	26684.45
504.13	26916.16
504.30	26731.26
504.48	26733.60
504.65	27112.77
504.83	26958.29
505.01	27096.38
505.18	27225.11
505.36	27491.93
505.53	27513.00
505.71	27527.04
505.88	27477.89
506.06	27817.27
506.23	27889.82
506.41	27285.97
506.58	28048.98
506.76	27803.22
506.93	27669.81
507.11	27964.72
507.28	28247.93
507.46	28687.95
507.63	28306.44
507.81	28620.07
507.98	28081.75
508.16	28900.94
508.33	28828.38
508.50	28964.13
508.68	28694.97
508.85	29240.31
509.03	28797.95
509.20	29095.20
509.38	29287.12
509.55	29376.06
509.73	29869.92
509.90	29638.20
510.08	29734.17
510.25	29493.09
510.42	29785.66
510.60	29642.88
510.77	29975.24
510.95	30192.91
511.12	29909.71
511.30	29853.53
511.47	30115.67
511.64	30398.88
511.82	30443.35
511.99	30600.16
512.17	30553.35
512.34	30328.66
512.51	31054.23
512.69	30988.69
512.86	31138.49
513.04	31033.16
513.21	30939.54
513.38	31292.96
513.56	31281.26
513.73	31180.62
513.90	31213.38
514.08	31725.96
514.25	31613.62
514.43	31459.14
514.60	31910.86
514.77	31882.78
514.95	31821.92
515.12	31709.58
515.29	31831.29
515.47	31901.50
515.64	32350.88
515.81	32524.08
515.99	32584.94
516.16	32538.13
516.33	32657.49
516.51	32589.62
516.68	32442.17
516.85	32521.74
517.03	32676.22
517.20	32924.32
517.37	32601.32
517.54	32982.83
517.72	33020.28
517.89	32924.32
518.06	33273.06
518.24	33317.53
518.41	33472.00
518.58	33539.88
518.75	33003.89
518.93	33570.30
519.10	33462.64
519.27	33504.77
519.45	33792.65
519.62	34108.63
519.79	33692.01
519.96	33860.53
520.14	33963.51
520.31	34022.03
520.48	34347.36
520.65	34565.03
520.83	34403.53
521.00	34742.91
521.17	34256.08
521.34	34962.92
521.52	34806.11
521.69	34548.65
521.86	34873.98
522.03	34871.64
522.20	35143.14
522.38	35016.75
522.55	35431.03
522.72	35314.00
522.89	35089.31
523.07	35634.66
523.24	35302.30
523.41	35662.74
523.58	35732.96
523.75	36039.57
523.92	35358.47
524.10	35761.05
524.27	35990.42
524.44	35990.42
524.61	35922.54
524.78	36091.06
524.96	36385.97
525.13	36168.30
525.30	36275.96
525.47	36275.96
525.64	36507.68
525.81	36587.25
525.98	36465.55
526.16	36409.37
526.33	36081.70
526.50	36858.76
526.67	36077.02
526.84	36795.56
527.01	36484.27
527.18	36603.64
527.36	37102.17
527.53	37270.69
527.70	37572.62
527.87	37408.78
528.04	37127.92
528.21	36957.06
528.38	37130.26
528.55	37368.99
528.72	37427.51
528.89	37572.62
529.07	37273.03
529.24	37146.64
529.41	37486.02
529.58	37968.17
529.75	37565.60
529.92	37745.82
530.09	37907.32
530.26	37904.98
530.43	37968.17
530.60	37715.39
530.77	37778.59
530.94	38209.25
531.11	38014.98
531.28	38146.05
531.46	38363.72
531.63	38274.78
531.80	38466.70
531.97	38600.12
532.14	39098.65
532.31	38508.83
532.48	38787.36
532.65	38897.36
532.82	38443.30
532.99	39180.57
533.16	38667.99
533.33	38888.00
533.50	38899.70
533.67	38717.14
533.84	38951.20
534.01	39505.90
534.18	38927.79
534.35	39391.22
534.52	39290.57
534.69	39992.73
534.86	39672.08
535.03	39599.52
535.20	39585.48
535.37	39889.75
535.54	39866.34
535.71	39533.99
535.88	39810.17
536.05	39927.20
536.22	39943.58
536.38	39901.45
536.55	39629.95
536.72	39910.82
536.89	39775.06
537.06	40388.28
537.23	40203.38
537.40	40004.44
537.57	39896.77
537.74	40044.23
537.91	40865.75
538.08	40278.28
538.25	40224.45
538.42	40416.37
538.59	40722.98
538.75	40760.43
538.92	40973.42
539.09	40914.90
539.26	40746.39
539.43	40526.38
539.60	40847.03
539.77	40914.90
539.94	40868.09
540.11	41008.53
540.28	41223.86
540.44	40861.07
540.61	40884.48
540.78	40786.18
540.95	41345.56
541.12	40982.78
541.29	40942.99
541.46	41275.35
541.62	41457.91
541.79	41799.63
541.96	41258.96
542.13	40889.16
542.30	41043.63
542.47	41577.28
542.63	41752.82
542.80	41734.09
542.97	42052.41
543.14	42164.75
543.31	41787.92
543.48	41598.34
543.64	42609.45
543.81	41984.53
543.98	42330.93
544.15	42043.04
544.32	42492.43
544.48	42501.79
544.65	42312.20
544.82	42415.19
544.99	42527.53
545.16	42557.96
545.32	42726.48
545.49	42864.57
545.66	43072.88
545.83	42312.20
546.00	42920.74
546.16	43157.14
546.33	42941.81
546.50	42525.19
546.67	42796.70
546.83	42368.38
547.00	42969.90
547.17	42630.52
547.34	42916.06
547.50	43388.85
547.67	43274.16
547.84	42969.90
548.00	43136.07
548.17	43751.63
548.34	43414.60
548.51	43590.14
548.67	43540.99
548.84	43243.74
549.01	43386.51
549.18	43538.65
549.34	43913.13
549.51	43686.10
549.68	43484.81
549.84	43643.97
550.01	43908.45
550.18	43768.02
550.34	43789.08
550.51	44025.48
550.68	44135.48
550.84	43988.03
551.01	44086.33
551.18	43761.00
551.34	44135.48
551.51	44184.63
551.68	43999.73
551.84	43693.12
552.01	44144.84
552.18	44126.12
552.34	44095.69
552.51	44224.42
552.68	44081.65
552.84	44074.63
553.01	44659.76
553.18	44367.20
553.34	44479.54
553.51	44313.36
553.67	44556.78
553.84	44903.18
554.01	44465.50
554.17	44669.12
554.34	44903.18
554.51	44772.11
554.67	44847.00
554.84	44619.97
555.00	44952.33
555.17	44687.85
555.33	45198.09
555.50	44882.11
555.67	45137.23
555.83	45045.95
556.00	45013.18
556.16	45134.89
556.33	45422.78
556.50	45277.66
556.66	44928.92
556.83	44816.58
556.99	45460.23
557.16	45350.22
557.32	45530.44
557.49	45804.28
557.65	45116.17
557.82	45193.40
557.98	45418.10
558.15	45390.01
558.32	45364.26
558.48	45294.05
558.65	45034.25
558.81	45385.33
558.98	45595.98
559.14	45158.30
559.31	45457.88
559.47	45177.02
559.64	45420.44
559.80	45565.55
559.97	45659.17
560.13	45584.27
560.30	45467.25
560.46	46375.37
560.63	45790.24
560.79	45801.94
560.96	46167.07
561.12	45909.61
561.29	46003.23
561.45	45883.86
561.61	45904.93
561.78	45701.30
561.94	45804.28
562.11	45778.54
562.27	46010.25
562.44	46122.60
562.60	46330.90
562.77	46073.45
562.93	46307.50
563.10	46094.51
563.26	45827.69
563.42	46726.46
563.59	46057.06
563.75	46183.45
563.92	45785.56
564.08	46134.30
564.24	46164.73
564.41	46181.11
564.57	46469.00
564.74	45940.04
564.90	46080.47
565.07	46054.72
565.23	46113.23
565.39	46543.89
565.56	46806.03
565.72	46071.10
565.88	46714.75
566.05	45991.53
566.21	46113.23
566.38	46300.48
566.54	46590.70
566.70	46431.55
566.87	46658.58
567.03	46440.91
567.19	46347.29
567.36	46710.07
567.52	46843.48
567.68	46962.85
567.85	46848.16
568.01	46602.41
568.17	46604.75
568.34	46902.00
568.50	46754.54
568.66	46373.03
568.83	46597.73
568.99	46480.70
569.15	46920.72
569.32	46784.97
569.48	46497.08
569.64	46658.58
569.81	46747.52
569.97	46948.81
570.13	47133.71
570.30	46791.99
570.46	46838.80
570.62	46909.02
570.78	47072.85
570.95	46827.10
571.11	46499.42
571.27	46733.48
571.43	47000.30
571.60	47103.28
571.76	47021.36
571.92	46911.36
572.09	46609.43
572.25	46967.53
572.41	46567.30
572.57	46981.57
572.74	47126.69
572.90	46593.04
573.06	47096.26
573.22	47082.22
573.38	47180.52
573.55	46948.81
573.71	47578.41
573.87	47484.79
574.03	47187.54
574.20	47035.41
574.36	47189.88
574.52	47571.39
574.68	47377.12
574.84	47016.68
575.01	47384.15
575.17	47501.17
575.33	47625.22
575.49	46770.93
575.65	47487.13
575.82	47091.58
575.98	47004.98
576.14	47234.35
576.30	47508.19
576.46	47208.61
576.62	47196.90
576.79	47267.12
576.95	46546.23
577.11	46972.21
577.27	47337.33
577.43	47318.61
577.59	46873.91
577.75	47131.37
577.92	47033.07
578.08	47510.53
578.24	47208.61
578.40	47531.60
578.56	47583.09
578.72	47391.17
578.88	47082.22
579.04	47639.26
579.21	47075.19
579.37	47423.93
579.53	47452.02
579.69	47122.01
579.85	47217.97
580.01	47428.62
580.17	47110.30
580.33	46918.38
580.49	47035.41
580.65	47798.42
580.82	47498.83
580.98	47222.65
581.14	46925.40
581.30	47349.04
581.46	47412.23
581.62	47098.60
581.78	47157.11
581.94	47342.02
582.10	47402.87
582.26	47786.72
582.42	47470.75
582.58	47428.62
582.74	47540.96
582.90	47358.40
583.06	47646.29
583.22	47316.27
583.38	47166.48
583.54	47559.69
583.70	47330.31
583.86	47646.29
584.02	47430.96
584.18	47538.62
584.34	47945.87
584.50	47646.29
584.66	47557.35
584.82	47955.24
584.98	47856.93
585.14	47683.73
585.30	47737.57
585.46	47512.88
585.62	47407.55
585.78	47386.49
585.94	47208.61
586.10	47569.05
586.26	47615.86
586.42	47604.16
586.58	47531.60
586.74	47861.61
586.90	47547.98
587.06	47559.69
587.22	47461.38
587.38	46965.19
587.54	47772.67
587.70	47847.57
587.86	47445.00
588.02	47608.84
588.18	47332.65
588.34	47262.44
588.49	47669.69
588.65	47613.52
588.81	48044.18
588.97	47805.44
589.13	48048.86
589.29	47655.65
589.45	47936.51
589.61	47847.57
589.77	47629.90
589.93	47782.04
590.08	47639.26
590.24	48287.59
590.40	48374.19
590.56	48254.82
590.72	48093.33
590.88	47522.24
591.04	47875.66
591.20	48280.57
591.35	48170.57
591.51	48545.05
591.67	48098.01
591.83	48477.18
591.99	48016.09
592.15	47840.55
592.31	48395.26
592.46	47978.64
592.62	48339.08
592.78	47969.28
592.94	48594.20
593.10	48493.56
593.26	48210.35
593.41	48093.33
593.57	48500.58
593.73	48184.61
593.89	48802.51
594.05	48619.95
594.20	48561.44
594.36	48505.26
594.52	48409.30
594.68	48325.04
594.84	48425.68
594.99	48619.95
595.15	48116.73
595.31	48863.36
595.47	48402.28
595.62	48477.18
595.78	47828.85
595.94	48233.76
596.10	48259.51
596.25	48273.55
596.41	48533.35
596.57	48278.23
596.73	48282.91
596.88	48603.56
597.04	48538.03
597.20	48336.74
597.36	48142.48
597.51	48395.26
597.67	48353.13
597.83	48603.56
597.99	48425.68
598.14	48250.14
598.30	48542.71
598.46	48481.86
598.61	48687.82
598.77	48200.99
598.93	48587.18
599.09	48191.63
599.24	48664.42
599.40	48563.78
599.56	48896.13
599.71	48753.36
599.87	48956.99
600.03	48786.13
600.18	48444.41
600.34	48481.86
600.50	48676.12
600.65	48851.66
600.81	48776.76
600.97	48154.18
601.12	48615.27
601.28	48378.87
601.44	48699.53
601.59	48739.32
601.75	48093.33
601.91	48619.95
602.06	48687.82
602.22	48704.21
602.37	48268.87
602.53	48837.62
602.69	48854.00
602.84	48631.65
603.00	48748.68
603.16	48435.05
603.31	48767.40
603.47	48339.08
603.62	48584.84
603.78	48591.86
603.94	48423.34
604.09	48570.80
604.25	48615.27
604.40	48287.59
604.56	48463.13
604.71	48739.32
604.87	48395.26
605.03	48273.55
605.18	48425.68
605.34	48589.52
605.49	48533.35
605.65	48332.06
605.80	48177.59
605.96	48224.40
606.12	48626.97
606.27	48542.71
606.43	48458.45
606.58	48678.46
606.74	48587.18
606.89	48449.09
607.05	48495.90
607.20	48678.46
607.36	48222.06
607.51	48575.48
607.67	48172.91
607.82	48339.08
607.98	47739.91
608.13	48320.36
608.29	48924.22
608.44	48444.41
608.60	48449.09
608.75	48575.48
608.91	48130.78
609.06	48119.07
609.22	48954.64
609.37	48561.44
609.53	48189.29
609.68	48238.44
609.84	48112.05
609.99	48273.55
610.15	48350.79
610.30	48311.00
610.46	48200.99
610.61	48273.55
610.76	48215.04
610.92	47945.87
611.07	48196.31
611.23	47882.68
611.38	47999.71
611.54	48130.78
611.69	48261.85
611.84	48346.11
612.00	48428.02
612.15	47489.47
612.31	47878.00
612.46	47962.26
612.62	47997.37
612.77	48114.39
612.92	47980.98
613.08	47971.62
613.23	48224.40
613.39	47973.96
613.54	48112.05
613.69	47969.28
613.85	47976.30
614.00	47758.63
614.15	47824.17
614.31	47606.50
614.46	47950.56
614.62	47620.54
614.77	47562.03
614.92	47269.46
615.08	47707.14
615.23	47812.46
615.38	48013.75
615.54	48076.94
615.69	48133.12
615.84	47555.00
616.00	47562.03
616.15	47627.56
616.30	47751.61
616.46	47782.04
616.61	47833.53
616.76	47646.29
616.92	47885.02
617.07	47824.17
617.22	47854.59
617.37	47229.67
617.53	47803.10
617.68	47714.16
617.83	47147.75
617.99	47543.30
618.14	47746.93
618.29	47543.30
618.45	46899.65
618.60	47089.24
618.75	47239.03
618.90	47550.32
619.06	47386.49
619.21	47302.23
619.36	47562.03
619.51	47154.77
619.67	47332.65
619.82	47222.65
619.97	47459.04
620.12	47166.48
620.28	47009.66
620.43	47885.02
620.58	47353.72
620.73	47543.30
620.89	47068.17
621.04	47391.17
621.19	46988.60
621.34	47311.59
621.49	47304.57
621.65	46848.16
621.80	47564.37
621.95	47304.57
622.10	47316.27
622.25	46892.63
622.41	47028.38
622.56	47185.20
622.71	46667.94
622.86	46834.12
623.01	46876.25
623.16	46747.52
623.32	46546.23
623.47	47213.29
623.62	46286.43
623.77	46979.23
623.92	46913.70
624.07	47026.04
624.23	46651.56
624.38	46878.59
624.53	46801.35
624.68	46686.67
624.83	46866.89
624.98	46602.41
625.13	46649.22
625.29	46300.48
625.44	46066.42
625.59	46541.55
625.74	46581.34
625.89	46021.95
626.04	46248.99
626.19	46153.02
626.34	46277.07
626.49	46124.94
626.65	45933.01
626.80	46162.39
626.95	46150.68
627.10	46082.81
627.25	46293.46
627.40	46288.77
627.55	46415.16
627.70	45933.01
627.85	46241.96
628.00	45993.87
628.15	46316.86
628.30	45680.24
628.45	45474.27
628.60	45308.09
628.76	46050.04
628.91	45900.25
629.06	45769.18
629.21	45516.40
629.36	45745.77
629.51	45460.23
629.66	46146.00
629.81	45780.88
629.96	45862.80
630.11	45834.71
630.26	45521.08
630.41	45935.35
630.56	45397.03
630.71	45591.30
630.86	45467.25
631.01	45406.39
631.16	45509.38
631.31	45687.26
631.46	45724.71
631.61	45605.34
631.76	45485.97
631.91	45855.78
632.06	45998.55
632.21	45626.40
632.36	45855.78
632.51	45008.50
632.66	45628.74
632.81	45090.42
632.96	45661.51
633.10	44964.03
633.25	45160.64
633.40	45448.52
633.55	45886.20
633.70	45172.34
633.85	45230.85
634.00	44786.15
634.15	44980.42
634.30	44765.09
634.45	44779.13
634.60	45022.54
634.75	45062.33
634.90	44837.64
635.05	45027.23
635.19	45366.60
635.34	44942.97
635.49	44362.51
635.64	45139.57
635.79	45071.70
635.94	44566.14
636.09	44816.58
636.24	44580.18
636.39	45048.29
636.53	44465.50
636.68	44622.31
636.83	44320.38
636.98	44671.46
637.13	43929.51
637.28	44512.31
637.43	44488.90
637.57	44563.80
637.72	44156.55
637.87	44404.64
638.02	44837.64
638.17	44631.68
638.32	43922.49
638.46	44259.53
638.61	43913.13
638.76	44437.41
638.91	44299.32
639.06	44479.54
639.20	43690.78
639.35	44009.09
639.50	43992.71
639.65	44444.43
639.80	44203.36
639.94	44245.49
640.09	44725.30
640.24	43948.24
640.39	44135.48
640.54	43594.82
640.68	43948.24
640.83	44020.80
640.98	43613.54
641.13	43548.01
641.27	44205.70
641.42	43564.39
641.57	44088.67
641.72	43835.89
641.86	43941.22
642.01	43445.02
642.16	43723.55
642.31	43229.69
642.45	44140.16
642.60	43393.53
642.75	43529.28
642.90	43971.64
643.04	43969.30
643.19	43442.68
643.34	43807.81
643.48	43262.46
643.63	43234.38
643.78	43615.88
643.93	44011.43
644.07	43540.99
644.22	43351.40
644.37	43164.16
644.51	43512.90
644.66	43428.64
644.81	42993.30
644.95	43236.72
645.10	43306.93
645.25	43133.73
645.39	42944.15
645.54	43126.71
645.69	43119.69
645.83	43005.00
645.98	43358.42
646.13	42969.90
646.27	43117.35
646.42	42738.18
646.57	43295.23
646.71	43026.07
646.86	42728.82
647.00	43098.62
647.15	43014.37
647.30	43365.45
647.44	43145.44
647.59	42829.46
647.74	42541.58
647.88	42862.23
648.03	42955.85
648.17	43313.95
648.32	42829.46
648.47	43079.90
648.61	42906.70
648.76	42904.36
648.90	42532.22
649.05	42588.39
649.20	43091.60
649.34	42714.78
649.49	42700.73
649.63	42541.58
649.78	42450.30
649.92	42660.94
650.07	43402.89
650.21	42824.78
650.36	42550.94
650.51	42780.31
650.65	42895.00
650.80	42630.52
650.94	42663.28
651.09	42354.33
651.23	42031.34
651.38	42373.06
651.52	41780.90
651.67	42284.12
651.81	42096.88
651.96	42452.64
652.10	42014.96
652.25	41996.23
652.39	41998.57
652.54	42351.99
652.68	41862.82
652.83	41811.33
652.97	42089.85
653.12	42520.51
653.26	41729.41
653.41	42120.28
653.55	41706.01
653.70	41918.99
653.84	41968.15
653.99	42150.71
654.13	42223.26
654.27	41830.05
654.42	41839.42
654.56	42139.00
654.71	41748.14
654.85	41539.83
655.00	41956.44
655.14	41710.69
655.29	41785.58
655.43	41649.83
655.57	41766.86
655.72	41127.89
655.86	41549.19
656.01	41537.49
656.15	41312.80
656.30	41371.31
656.44	41865.16
656.58	41235.56
656.73	41432.16
656.87	41230.88
657.01	40741.71
657.16	41280.03
657.30	40975.76
657.45	41048.32
657.59	40620.00
657.73	41097.47
657.88	40926.61
658.02	41167.68
658.16	41258.96
658.31	40748.73
658.45	40849.37
658.60	40545.10
658.74	41181.73
658.88	40247.85
659.03	41031.93
659.17	40591.91
659.31	40575.53
659.46	40631.70
659.60	40765.11
659.74	40158.91
659.89	40264.24
660.03	40341.47
660.17	40341.47
660.32	40273.60
660.46	40545.10
660.60	39966.99
660.74	40058.27
660.89	40933.63
661.03	39985.71
661.17	39910.82
661.32	40091.04
661.46	40339.13
661.60	39718.89
661.74	39765.70
661.89	39395.90
662.03	40182.32
662.17	39590.16
662.31	39838.26
662.46	39917.84
662.60	39381.85
662.74	39035.45
662.88	39257.81
663.03	39199.29
663.17	38911.41
663.31	39161.84
663.45	39218.02
663.60	39433.35
663.74	39487.18
663.88	39117.37
664.02	38560.33
664.17	39498.88
664.31	38904.38
664.45	38672.67
664.59	39098.65
664.73	38639.90
664.88	38918.43
665.02	38749.91
665.16	38794.38
665.30	38476.07
665.44	39002.69
665.59	38211.59
665.73	38347.34
665.87	37916.68
666.01	38483.09
666.15	38337.98
666.29	37982.21
666.44	38541.60
666.58	38478.41
666.72	38117.96
666.86	37666.24
667.00	37844.12
667.14	37787.95
667.28	37825.40
667.43	38146.05
667.57	38209.25
667.71	38150.73
667.85	38029.02
667.99	37832.42
668.13	37656.88
668.27	37172.39
668.41	37118.56
668.56	36650.45
668.70	36701.94
668.84	36753.43
668.98	36868.12
669.12	37282.39
669.26	37102.17
669.40	36914.93
669.54	37069.40
669.68	36781.52
669.82	36622.36
669.96	36720.66
670.10	36449.16
670.25	36554.49
670.39	36271.28
670.53	36353.20
670.67	35885.09
670.81	36491.29
670.95	36229.15
671.09	35889.77
671.23	36093.40
671.37	36095.74
671.51	35894.46
671.65	36051.27
671.79	35566.78
671.93	36046.59
672.07	36165.96
672.21	35852.33
672.35	35482.52
672.49	35374.86
672.63	35725.94
672.77	35192.30
672.91	35840.62
673.05	35243.79
673.19	35309.32
673.33	34569.71
673.47	34693.76
673.61	35033.14
673.75	34838.87
673.89	34717.17
674.03	34272.46
674.17	34235.02
674.31	34230.33
674.45	34071.18
674.59	34328.64
674.73	34288.85
674.87	33926.07
675.01	33797.34
675.15	33591.37
675.29	33862.87
675.43	33474.34
675.56	33645.20
675.70	33429.87
675.84	33979.90
675.98	32849.42
676.12	33682.65
676.26	33490.73
676.40	32917.29
676.54	33310.50
676.68	33137.30
676.82	32720.69
676.96	33476.68
677.10	33083.47
677.23	32575.58
677.37	32936.02
677.51	32643.45
677.65	32210.45
677.79	32245.56
677.93	32727.71
678.07	31737.66
678.21	31725.96
678.34	31901.50
678.48	31714.26
678.62	31517.65
678.76	31669.79
678.90	31850.01
679.04	31405.31
679.18	31936.61
679.31	31346.79
679.45	30993.37
679.59	30848.26
679.73	31110.40
679.87	30593.14
680.00	30796.77
680.14	31126.78
680.28	30483.14
680.42	30539.31
680.56	30078.22
680.70	30560.37
680.83	30132.06
680.97	30064.18
681.11	30057.16
681.25	29970.56
681.39	29514.16
681.52	30075.88
681.66	29418.19
681.80	29104.56
681.94	29284.78
682.07	29071.79
682.21	29013.28
682.35	28629.43
682.49	28875.19
682.62	28807.31
682.76	28582.62
682.90	28893.91
683.04	28599.01
683.17	28711.35
683.31	28020.89
683.45	28238.56
683.59	27894.50
683.72	27931.95
683.86	27889.82
684.00	27665.13
684.13	28137.92
684.27	27878.12
684.41	27585.55
684.55	27639.39
684.68	27021.48
684.82	27082.34
684.96	27147.87
685.09	27126.81
685.23	27150.21
685.37	27213.41
685.50	27290.65
685.64	26721.90
685.78	26642.32
685.91	26834.24
686.05	26302.94
686.19	25883.98
686.32	26043.14
686.46	26099.31
686.60	25820.79
686.73	26155.49
686.87	26045.48
687.01	26080.59
687.14	25933.14
687.28	25249.70
687.42	25631.21
687.55	25319.92
687.69	25404.17
687.82	24992.24
687.96	25137.35
688.10	25221.61
688.23	25034.37
688.37	25001.60
688.50	25350.34
688.64	24854.15
688.78	24486.68
688.91	24620.10
689.05	24755.85
689.18	24233.91
689.32	23962.40
689.46	23882.83
689.59	23723.67
689.73	24273.70
689.86	24177.73
690.00	24041.98
690.13	23943.68
690.27	23714.31
690.41	23777.50
690.54	23129.17
690.68	23269.61
690.81	23119.81
690.95	23201.73
691.08	23208.75
691.22	22717.24
691.35	22754.69
691.49	22974.70
691.62	22752.35
691.76	22120.40
691.89	22333.39
692.03	21893.37
692.16	22071.25
692.30	22141.47
692.43	21958.91
692.57	21771.66
692.70	21486.12
692.84	21685.06
692.97	21404.20
693.11	21429.94
693.24	21359.73
693.38	21231.00
693.51	21507.18
693.65	21296.53
693.78	21135.04
693.92	21104.61
694.05	20798.00
694.19	20905.66
694.32	20570.97
694.45	21032.05
694.59	21088.23
694.72	20837.79
694.86	20666.93
694.99	20102.86
695.13	20257.34
695.26	19690.93
695.39	19917.96
695.53	19786.89
695.66	19892.21
695.80	19655.82
695.93	19822.00
696.07	19562.20
696.20	19255.59
696.33	18874.08
696.47	18946.64
696.60	18892.80
696.73	19159.63
696.87	19391.34
697.00	19119.84
697.14	19063.66
697.27	18731.31
697.40	18960.68
697.54	18867.06
697.67	18462.15
697.80	18487.89
697.94	18249.16
698.07	18115.75
698.21	18281.92
698.34	18108.72
698.47	18260.86
698.61	17556.36
698.74	17664.02
698.87	17762.33
699.01	17664.02
699.14	17745.94
699.27	17486.14
699.40	17434.65
699.54	17324.65
699.67	17586.79
699.80	17294.22
699.94	16727.81
700.07	17453.37
700.20	17334.01
700.34	16968.88
700.47	17025.06
700.60	16908.03
700.73	16578.01
700.87	16702.06
701.00	16381.41
701.13	16451.63
701.26	16374.39
701.40	16301.83
701.53	16042.03
701.66	16170.76
701.79	16009.26
701.93	15833.72
702.06	15454.56
702.19	15592.65
702.32	15704.99
702.46	15789.25
702.59	15620.74
702.72	15679.25
702.85	15555.20
702.99	15405.41
703.12	15389.02
703.25	15110.50
703.38	15154.97
703.51	14941.98
703.65	14754.74
703.78	14537.07
703.91	14796.87
704.04	14789.85
704.17	14408.34
704.31	14567.49
704.44	14382.59
704.57	14469.19
704.70	14487.92
704.83	14345.14
704.96	14113.43
705.10	14005.77
705.23	14312.38
>>>>>End Processed Spectral Data<<<<<
