SpectraSuite Data File
++++++++++++++++++++++++++++++++++++
Date: Fri Oct 25 10:48:05 EDT 2013
User: price-jones
Dark Spectrum Present: No
Reference Spectrum Present: No
Number of Sampled Component Spectra: 1
Spectrometers: USB2+H05261
Integration Time (usec): 100000 (USB2+H05261)
Spectra Averaged: 1 (USB2+H05261)
Boxcar Smoothing: 0 (USB2+H05261)
Correct for Electrical Dark: No (USB2+H05261)
Strobe/Lamp Enabled: No (USB2+H05261)
Correct for Detector Non-linearity: No (USB2+H05261)
Correct for Stray Light: No (USB2+H05261)
Number of Pixels in Processed Spectrum: 2048
>>>>>Begin Processed Spectral Data<<<<<
365.73	121.71
365.92	121.71
366.12	121.71
366.32	37.45
366.52	0.00
366.72	60.85
366.91	49.15
367.11	93.62
367.31	0.00
367.51	30.43
367.70	65.54
367.90	93.62
368.10	86.60
368.30	0.00
368.49	74.90
368.69	37.45
368.89	98.30
369.09	53.83
369.28	93.62
369.48	42.13
369.68	102.98
369.87	72.56
370.07	114.69
370.27	93.62
370.47	194.26
370.66	393.21
370.86	379.17
371.06	489.17
371.25	393.21
371.45	402.57
371.65	393.21
371.84	409.59
372.04	472.79
372.24	475.13
372.44	421.30
372.63	468.11
372.83	627.26
373.03	489.17
373.22	472.79
373.42	421.30
373.62	458.74
373.81	571.09
374.01	615.56
374.21	627.26
374.40	543.00
374.60	578.11
374.79	582.79
374.99	559.39
375.19	528.96
375.38	545.34
375.58	559.39
375.78	601.52
375.97	568.75
376.17	578.11
376.37	585.13
376.56	571.09
376.76	578.11
376.95	559.39
377.15	645.99
377.35	615.56
377.54	599.18
377.74	615.56
377.93	610.88
378.13	631.94
378.33	620.24
378.52	688.12
378.72	587.47
378.91	606.20
379.11	615.56
379.31	592.16
379.50	589.82
379.70	589.82
379.89	720.88
380.09	624.92
380.28	662.37
380.48	599.18
380.68	669.39
380.87	617.90
381.07	697.48
381.26	676.41
381.46	667.05
381.65	657.69
381.85	557.05
382.04	564.07
382.24	641.31
382.43	709.18
382.63	655.35
382.83	664.71
383.02	685.78
383.22	603.86
383.41	636.63
383.61	688.12
383.80	730.25
384.00	753.65
384.19	662.37
384.39	753.65
384.58	725.57
384.78	741.95
384.97	770.04
385.17	718.54
385.36	730.25
385.56	774.72
385.75	774.72
385.95	730.25
386.14	739.61
386.34	807.48
386.53	807.48
386.72	725.57
386.92	901.11
387.11	791.10
387.31	835.57
387.50	837.91
387.70	772.38
387.89	779.40
388.09	856.64
388.28	847.27
388.48	791.10
388.67	908.13
388.86	840.25
389.06	784.08
389.25	887.06
389.45	894.08
389.64	779.40
389.84	800.46
390.03	889.40
390.22	854.30
390.42	1001.75
390.61	882.38
390.81	957.28
391.00	940.90
391.19	1022.81
391.39	1029.84
391.58	973.66
391.78	968.98
391.97	943.24
392.16	922.17
392.36	1015.79
392.55	973.66
392.75	1029.84
392.94	961.96
393.13	1029.84
393.33	954.94
393.52	968.98
393.71	968.98
393.91	994.73
394.10	997.07
394.29	1018.13
394.49	1050.90
394.68	1125.80
394.88	987.71
395.07	1235.80
395.26	1151.54
395.46	1090.69
395.65	1128.14
395.84	1160.91
396.04	1172.61
396.23	1137.50
396.42	1015.79
396.62	1153.88
396.81	1139.84
397.00	1064.94
397.19	1090.69
397.39	1273.25
397.58	1240.48
397.77	1163.25
397.97	1149.20
398.16	1315.38
398.35	1205.38
398.55	1357.51
398.74	1282.61
398.93	1359.85
399.12	1313.04
399.32	1277.93
399.51	1306.02
399.70	1310.70
399.90	1334.11
400.09	1390.28
400.28	1299.00
400.47	1331.76
400.67	1399.64
400.86	1334.11
401.05	1465.18
401.24	1467.52
401.44	1474.54
401.63	1467.52
401.82	1425.39
402.01	1406.66
402.21	1519.01
402.40	1523.69
402.59	1411.34
402.78	1474.54
402.97	1493.26
403.17	1472.20
403.36	1507.30
403.55	1598.59
403.74	1664.12
403.93	1558.80
404.13	1570.50
404.32	1488.58
404.51	1633.69
404.70	1692.21
404.89	1636.03
405.09	1713.27
405.28	1617.31
405.47	1605.61
405.66	1769.44
405.85	1657.10
406.05	1699.23
406.24	1701.57
406.43	1675.82
406.62	1727.32
406.81	1895.83
407.00	1849.02
407.20	1762.42
407.39	1813.92
407.58	1795.19
407.77	1825.62
407.96	1933.28
408.15	1912.22
408.34	1823.28
408.54	1834.98
408.73	1895.83
408.92	1891.15
409.11	2094.78
409.30	2080.74
409.49	1963.71
409.68	2012.86
409.87	1973.07
410.07	2047.97
410.26	2150.95
410.45	2080.74
410.64	2169.68
410.83	2085.42
411.02	2094.78
411.21	2101.80
411.40	2275.00
411.59	2207.13
411.78	2242.23
411.98	2310.11
412.17	2246.91
412.36	2317.13
412.55	2319.47
412.74	2263.30
412.93	2466.92
413.12	2356.92
413.31	2513.74
413.50	2420.11
413.69	2385.01
413.88	2471.61
414.07	2509.05
414.26	2560.55
414.45	2593.31
414.64	2614.38
414.83	2698.64
415.02	2621.40
415.22	2572.25
415.41	2729.06
415.60	2637.78
415.79	2754.81
415.98	2892.90
416.17	2738.43
416.36	2782.90
416.55	2818.00
416.74	2956.10
416.93	2832.05
417.12	2810.98
417.31	2918.65
417.50	2850.77
417.69	3082.49
417.88	3042.70
418.07	2935.03
418.26	2953.76
418.45	3033.33
418.64	3148.02
418.83	3103.55
419.02	3159.72
419.21	3159.72
419.39	3054.40
419.58	3131.64
419.77	3075.46
419.96	3126.96
420.15	3267.39
420.34	3243.98
420.53	3321.22
420.72	3133.98
420.91	3342.28
421.10	3272.07
421.29	3274.41
421.48	3288.45
421.67	3253.34
421.86	3330.58
422.05	3220.58
422.24	3337.60
422.43	3253.34
422.61	3246.32
422.80	3499.10
422.99	3487.40
423.18	3424.20
423.37	3501.44
423.56	3435.91
423.75	3466.33
423.94	3496.76
424.13	3199.51
424.32	3325.90
424.50	3417.18
424.69	3466.33
424.88	3536.55
425.07	3382.07
425.26	3468.67
425.45	3480.38
425.64	3346.97
425.83	3485.06
426.01	3522.51
426.20	3616.13
426.39	3613.79
426.58	3487.40
426.77	3548.25
426.96	3637.19
427.15	3562.30
427.33	3417.18
427.52	3646.55
427.71	3576.34
427.90	3630.17
428.09	3531.87
428.28	3702.73
428.46	3597.40
428.65	3730.81
428.84	3789.33
429.03	3740.18
429.22	3730.81
429.40	3833.80
429.59	3756.56
429.78	3527.19
429.97	3707.41
430.16	3686.34
430.34	3658.26
430.53	3712.09
430.72	3894.65
430.91	3768.26
431.10	3761.24
431.28	3861.88
431.47	4095.94
431.66	4030.40
431.85	4131.05
432.03	4208.28
432.22	4194.24
432.41	4205.94
432.60	4102.96
432.79	4056.15
432.97	4091.26
433.16	4163.81
433.35	4208.28
433.54	4191.90
433.72	4236.37
433.91	4196.58
434.10	4175.52
434.28	4362.76
434.47	4322.97
434.66	4287.86
434.85	4304.25
435.03	4348.72
435.22	4449.36
435.41	4496.17
435.59	4318.29
435.78	4524.26
435.97	4458.72
436.16	4259.78
436.34	4418.93
436.53	4493.83
436.72	4664.69
436.90	4301.90
437.09	4683.41
437.28	4578.09
437.46	4578.09
437.65	4737.24
437.84	4615.54
438.02	4678.73
438.21	4674.05
438.40	4470.42
438.58	4713.84
438.77	4814.48
438.96	4905.76
439.14	4985.34
439.33	5008.75
439.52	4873.00
439.70	4863.63
439.89	4945.55
440.08	4926.83
440.26	5132.79
440.45	5032.15
440.63	5228.76
440.82	5207.69
441.01	5130.45
441.19	5331.74
441.38	5411.32
441.57	5462.81
441.75	5401.96
441.94	5394.93
442.12	5500.26
442.31	5561.11
442.50	5511.96
442.68	5554.09
442.87	5518.98
443.05	5640.69
443.24	5652.39
443.43	5582.18
443.61	5631.33
443.80	5795.17
443.98	5446.43
444.17	5549.41
444.35	5692.18
444.54	5893.47
444.73	5600.90
444.91	5781.12
445.10	5792.83
445.28	5694.52
445.47	5746.02
445.65	5795.17
445.84	5797.51
446.02	5813.89
446.21	5797.51
446.39	5748.36
446.58	5856.02
446.77	5785.80
446.95	5818.57
447.14	5778.78
447.32	5970.71
447.51	5823.25
447.69	5790.49
447.88	5984.75
448.06	5753.04
448.25	5804.53
448.43	5954.32
448.62	5865.38
448.80	5816.23
448.99	5998.79
449.17	5755.38
449.36	5881.77
449.54	6043.26
449.73	6036.24
449.91	6085.39
450.10	6118.16
450.28	6230.51
450.46	6441.15
450.65	6377.96
450.83	6293.70
451.02	6303.06
451.20	6125.18
451.39	6216.46
451.57	6312.42
451.76	6349.87
451.94	6289.02
452.13	6408.39
452.31	6450.52
452.49	6401.37
452.68	6368.60
452.86	6317.11
453.05	6523.07
453.23	6483.28
453.42	6310.08
453.60	6544.14
453.78	6530.09
453.97	6494.99
454.15	6555.84
454.34	6438.81
454.52	6679.89
454.70	6520.73
454.89	6614.35
455.07	6534.78
455.26	6626.06
455.44	6712.66
455.62	6944.37
455.81	6778.19
455.99	6808.62
456.17	6801.60
456.36	6806.28
456.54	6895.22
456.73	6836.70
456.91	7066.08
457.09	7173.74
457.28	7103.53
457.46	6981.82
457.64	7164.38
457.83	7091.82
458.01	7126.93
458.19	7300.13
458.38	7143.32
458.56	7089.48
458.74	7108.21
458.93	7218.21
459.11	7239.28
459.29	7260.34
459.48	7262.68
459.66	7185.44
459.84	7342.26
460.03	7665.25
460.21	7503.76
460.39	7440.56
460.57	7295.45
460.76	7613.76
460.94	7550.57
461.12	7740.15
461.31	7536.52
461.49	7602.06
461.67	7681.64
461.85	7707.38
462.04	7702.70
462.22	8205.92
462.40	7852.50
462.59	7784.62
462.77	7992.93
462.95	8109.96
463.13	7971.86
463.32	7913.35
463.50	7864.20
463.68	8128.68
463.86	7932.08
464.05	7859.52
464.23	7772.92
464.41	8126.34
464.59	8011.65
464.78	8262.09
464.96	8009.31
465.14	8018.68
465.32	8056.12
465.50	8023.36
465.69	8039.74
465.87	7978.89
466.05	8131.02
466.23	8077.19
466.41	8152.09
466.60	8489.12
466.78	8095.91
466.96	8372.10
467.14	8430.61
467.32	8390.82
467.51	8395.50
467.69	8114.64
467.87	8191.88
468.05	8332.31
468.23	8521.89
468.41	8365.07
468.60	8505.51
468.78	8615.51
468.96	8451.67
469.14	8468.06
469.32	8540.61
469.50	8388.48
469.69	8840.20
469.87	8643.60
470.05	8931.48
470.23	8720.84
470.41	8795.73
470.59	8858.93
470.77	8758.28
470.95	8870.63
471.14	8987.66
471.32	8805.10
471.50	9179.58
471.68	9186.60
471.86	9043.83
472.04	9205.33
472.22	9359.80
472.40	9078.94
472.58	9357.46
472.77	9369.16
472.95	9603.22
473.13	9734.29
473.31	9158.52
473.49	9221.71
473.67	9446.40
473.85	9472.15
474.03	9792.80
474.21	9799.82
474.39	9785.78
474.57	9827.91
474.75	9783.44
474.93	9921.53
475.12	9877.06
475.30	10113.45
475.48	9863.02
475.66	10090.05
475.84	9848.97
476.02	10246.87
476.20	10207.08
476.38	10225.80
476.56	10530.07
476.74	10401.34
476.92	10478.58
477.10	10511.35
477.28	10719.65
477.46	10721.99
477.64	10909.24
477.82	10899.87
478.00	11295.43
478.18	11133.93
478.36	11300.11
478.54	11470.97
478.72	11463.94
478.90	11667.57
479.08	11606.72
479.26	11777.58
479.44	11618.42
479.62	11889.92
479.80	12105.25
479.98	11768.21
480.16	12013.97
480.34	11988.22
480.52	12245.68
480.70	12241.00
480.88	11995.25
481.06	12538.25
481.24	12393.14
481.41	12599.10
481.59	12844.86
481.77	12643.57
481.95	12856.56
482.13	13057.85
482.31	13022.74
482.49	13420.63
482.67	13144.45
482.85	13401.91
483.03	13884.06
483.21	13802.14
483.39	13790.44
483.57	13736.60
483.74	13839.59
483.92	13877.04
484.10	13965.98
484.28	14146.20
484.46	14258.54
484.64	14831.97
484.82	14228.12
485.00	14677.50
485.18	15007.52
485.35	14740.69
485.53	14712.61
485.71	15014.54
485.89	15037.94
486.07	15145.61
486.25	14965.39
486.43	15529.45
486.61	15321.15
486.78	15632.44
486.96	15843.09
487.14	16231.62
487.32	16152.04
487.50	16332.26
487.68	16315.87
487.85	16341.62
488.03	16807.39
488.21	16507.80
488.39	16652.91
488.57	16865.90
488.75	17078.89
488.92	17303.58
489.10	17570.40
489.28	17303.58
489.46	17774.03
489.64	17547.00
489.81	18122.77
489.99	18235.11
490.17	17984.68
490.35	18452.78
490.53	18340.44
490.70	18682.16
490.88	18590.88
491.06	18710.24
491.24	18625.98
491.41	18710.24
491.59	18738.33
491.77	18654.07
491.95	19220.48
492.13	19108.13
492.30	19435.81
492.48	19772.85
492.66	19744.76
492.84	19442.83
493.01	19924.98
493.19	19697.95
493.37	20374.36
493.54	20044.35
493.72	20444.58
493.90	20332.23
494.08	20594.37
494.25	20915.03
494.43	20858.85
494.61	21057.80
494.79	20982.90
494.96	20952.48
495.14	21221.64
495.32	21357.39
495.49	21376.11
495.67	21495.48
495.85	21710.81
496.02	22087.64
496.20	21884.01
496.38	22059.55
496.55	21820.81
496.73	22649.36
496.91	22321.69
497.09	22497.23
497.26	22855.33
497.44	22647.02
497.62	22628.30
497.79	23269.61
497.97	22892.78
498.14	22941.93
498.32	23314.08
498.50	23555.15
498.67	23435.78
498.85	23676.86
499.03	23634.73
499.20	23899.21
499.38	23559.83
499.56	23606.64
499.73	24159.01
499.91	23775.16
500.08	24261.99
500.26	24128.58
500.44	24304.12
500.61	24369.66
500.79	24334.55
500.97	24250.29
501.14	24987.56
501.32	24767.55
501.49	24652.86
501.67	24821.38
501.84	24994.58
502.02	25113.95
502.20	25188.85
502.37	25142.03
502.55	25560.99
502.72	25715.47
502.90	25404.17
503.07	25439.28
503.25	25610.14
503.43	25621.84
503.60	25612.48
503.78	25916.75
503.95	26008.03
504.13	25930.80
504.30	26375.50
504.48	26384.86
504.65	26450.39
504.83	26576.78
505.01	26560.40
505.18	26611.89
505.36	26595.51
505.53	26913.82
505.71	26967.65
505.88	26799.13
506.06	26749.98
506.23	26892.76
506.41	26843.60
506.58	27194.68
506.76	27159.58
506.93	27421.72
507.11	27388.95
507.28	27290.65
507.46	27061.27
507.63	27520.02
507.81	27676.83
507.98	28065.36
508.16	27431.08
508.33	27906.21
508.50	28135.58
508.68	28034.94
508.85	28493.68
509.03	28009.19
509.20	28505.38
509.38	28304.10
509.55	28531.13
509.73	28797.95
509.90	28479.64
510.08	28760.50
510.25	28545.17
510.42	28907.96
510.60	29097.54
510.77	29179.46
510.95	29439.26
511.12	29013.28
511.30	29380.74
511.47	29869.92
511.64	29495.43
511.82	29359.68
511.99	29350.32
512.17	29825.45
512.34	29717.78
512.51	29326.91
512.69	30335.68
512.86	30082.91
513.04	30492.50
513.21	30017.37
513.38	30101.63
513.56	30288.87
513.73	29914.39
513.90	30476.12
514.08	30684.42
514.25	30679.74
514.43	30333.34
514.60	30295.89
514.77	30169.51
514.95	30621.23
515.12	30607.19
515.29	30761.66
515.47	31318.71
515.64	31187.64
515.81	30972.31
515.99	31068.27
516.16	31189.98
516.33	31449.78
516.51	31709.58
516.68	30984.01
516.85	31208.70
517.03	31665.11
517.20	30955.93
517.37	31807.88
517.54	31674.47
517.72	31782.13
517.89	31786.82
518.06	31419.35
518.24	31842.99
518.41	31714.26
518.58	32217.47
518.75	31751.71
518.93	32400.04
519.10	31756.39
519.27	32610.68
519.45	32095.77
519.62	32858.78
519.79	32439.82
519.96	32954.74
520.14	32760.48
520.31	32608.34
520.48	33055.39
520.65	32622.39
520.83	33083.47
521.00	33331.57
521.17	33207.52
521.34	33539.88
521.52	33287.10
521.69	33118.58
521.86	33481.36
522.03	33514.13
522.20	33427.53
522.38	33514.13
522.55	33827.76
522.72	33579.67
522.89	33340.93
523.07	33846.49
523.24	33900.32
523.41	33970.54
523.58	33883.94
523.75	34426.94
523.92	34239.70
524.10	34363.75
524.27	34539.29
524.44	34630.57
524.61	34649.29
524.78	34600.14
524.96	34565.03
525.13	34951.22
525.30	34721.85
525.47	34876.32
525.64	34778.02
525.81	35110.38
525.98	35150.17
526.16	35175.91
526.33	34897.39
526.50	35079.95
526.67	35068.25
526.84	34895.05
527.01	35234.42
527.18	35077.61
527.36	35590.19
527.53	35335.07
527.70	35702.53
527.87	35779.77
528.04	35641.68
528.21	35651.04
528.38	35770.41
528.55	35957.65
528.72	35725.94
528.89	36158.94
529.07	36149.57
529.24	35716.58
529.41	36009.14
529.58	35948.29
529.75	36313.41
529.92	36533.42
530.09	36400.01
530.26	36652.79
530.43	36322.77
530.60	36231.49
530.77	36353.20
530.94	36912.59
531.11	36308.73
531.28	36638.75
531.46	36847.05
531.63	36786.20
531.80	36449.16
531.97	36776.84
532.14	37177.07
532.31	36959.40
532.48	36776.84
532.65	37113.87
532.82	36975.78
532.99	37361.97
533.16	37127.92
533.33	37242.60
533.50	37413.46
533.67	37385.38
533.84	37106.85
534.01	37553.90
534.18	37584.32
534.35	37642.84
534.52	37151.32
534.69	37759.86
534.86	37589.00
535.03	37258.99
535.20	37792.63
535.37	38136.69
535.54	37869.87
535.71	37935.40
535.88	37551.56
536.05	37851.14
536.22	38447.98
536.38	37954.13
536.55	38099.24
536.72	38057.11
536.89	37876.89
537.06	38078.18
537.23	38462.02
537.40	38759.27
537.57	38359.04
537.74	38415.21
537.91	38675.01
538.08	38778.00
538.25	38139.03
538.42	38525.22
538.59	39068.22
538.75	38178.82
538.92	38597.77
539.09	38960.56
539.26	39093.97
539.43	38864.60
539.60	38763.95
539.77	38583.73
539.94	38815.44
540.11	39077.58
540.28	39014.39
540.44	38864.60
540.61	38787.36
540.78	38770.97
540.95	38810.76
541.12	39274.19
541.29	39126.74
541.46	38885.66
541.62	39459.09
541.79	39445.05
541.96	39084.61
542.13	39222.70
542.30	39669.74
542.47	39655.70
542.63	39641.65
542.80	39648.68
542.97	40292.32
543.14	39835.92
543.31	40168.27
543.48	39971.67
543.64	40559.14
543.81	40339.13
543.98	40259.55
544.15	40004.44
544.32	40051.25
544.48	40385.94
544.65	40610.64
544.82	40535.74
544.99	39838.26
545.16	40430.41
545.32	39969.33
545.49	40858.73
545.66	40669.15
545.83	40748.73
546.00	40526.38
546.16	40610.64
546.33	40587.23
546.50	40435.10
546.67	40891.50
546.83	40140.19
547.00	40509.99
547.17	40701.92
547.34	40793.20
547.50	40914.90
547.67	40987.46
547.84	41240.24
548.00	41291.73
548.17	41298.75
548.34	41008.53
548.51	41331.52
548.67	41317.48
548.84	41392.37
549.01	41235.56
549.18	41331.52
549.34	41308.11
549.51	41406.42
549.68	41759.84
549.84	41486.00
550.01	41839.42
550.18	41158.32
550.34	41511.74
550.51	41523.44
550.68	41394.71
550.84	41684.94
551.01	41539.83
551.18	41869.84
551.34	42164.75
551.51	41518.76
551.68	41897.93
551.84	41921.34
552.01	41687.28
552.18	41418.12
552.34	41790.27
552.51	41879.21
552.68	41940.06
552.84	42021.98
553.01	42054.75
553.18	41780.90
553.34	42050.06
553.51	41628.77
553.67	41567.91
553.84	42286.46
554.01	42637.54
554.17	42237.31
554.34	42597.75
554.51	42298.16
554.67	42415.19
554.84	42085.17
555.00	42553.28
555.17	42029.00
555.33	42607.11
555.50	42522.85
555.67	42494.77
555.83	42740.52
556.00	42747.54
556.16	43023.73
556.33	42560.30
556.50	42759.25
556.66	42490.09
556.83	42937.13
556.99	42761.59
557.16	42904.36
557.32	42747.54
557.49	42623.50
557.65	42906.70
557.82	42756.91
557.98	43196.93
558.15	42576.69
558.32	43133.73
558.48	43049.47
558.65	43423.96
558.81	42920.74
558.98	42925.42
559.14	43243.74
559.31	42492.43
559.47	43187.56
559.64	43461.41
559.80	43475.45
559.97	43119.69
560.13	43187.56
560.30	43398.21
560.46	43178.20
560.63	43225.01
560.79	43180.54
560.96	43328.00
561.12	43328.00
561.29	42806.06
561.45	43143.09
561.61	43323.32
561.78	43019.05
561.94	43159.48
562.11	43428.64
562.27	42850.53
562.44	43129.05
562.60	43398.21
562.77	43489.49
562.93	43405.23
563.10	43821.85
563.26	43475.45
563.42	43166.50
563.59	43288.21
563.75	43835.89
563.92	43409.92
564.08	43555.03
564.24	43821.85
564.41	43707.16
564.57	43515.24
564.74	43452.05
564.90	43950.58
565.07	43454.39
565.23	43540.99
565.39	43325.66
565.56	43824.19
565.72	43290.55
565.88	43938.88
566.05	43613.54
566.21	43491.83
566.38	43828.87
566.54	43473.11
566.70	43810.15
566.87	43917.81
567.03	43985.69
567.19	44051.22
567.36	43964.62
567.52	43557.37
567.68	43732.91
567.85	43473.11
568.01	43590.14
568.17	43550.35
568.34	43943.56
568.50	43962.28
568.66	43519.92
568.83	43849.94
568.99	43281.19
569.15	43728.23
569.32	43849.94
569.48	43463.75
569.64	44109.74
569.81	44371.88
569.97	43866.32
570.13	43906.11
570.30	43650.99
570.46	44107.40
570.62	43412.26
570.78	43779.72
570.95	44280.60
571.11	44318.04
571.27	43805.47
571.43	43861.64
571.60	43810.15
571.76	44254.85
571.92	43896.75
572.09	44046.54
572.25	44191.65
572.41	44165.91
572.57	44044.20
572.74	44083.99
572.90	44430.39
573.06	44371.88
573.22	44439.75
573.38	43971.64
573.55	43791.42
573.71	44313.36
573.87	44098.03
574.03	44065.27
574.20	43973.98
574.36	43817.17
574.52	44648.06
574.68	43863.98
574.84	44507.63
575.01	43948.24
575.17	44182.29
575.33	44102.71
575.49	44250.17
575.65	44320.38
575.82	44739.34
575.98	43824.19
576.14	44484.22
576.30	44390.60
576.46	43985.69
576.62	43753.97
576.79	44037.18
576.95	43749.29
577.11	44268.89
577.27	43948.24
577.43	43948.24
577.59	43955.26
577.75	44278.25
577.92	44165.91
578.08	43873.34
578.24	43583.12
578.40	44020.80
578.56	44058.24
578.72	44119.10
578.88	44638.70
579.04	44135.48
579.21	44119.10
579.37	43929.51
579.53	44247.83
579.69	43981.01
579.85	44142.50
580.01	44233.78
580.17	44299.32
580.33	44713.59
580.49	44196.34
580.65	44369.54
580.82	44306.34
580.98	44341.45
581.14	43901.43
581.30	44264.21
581.46	44011.43
581.62	44383.58
581.78	44451.45
581.94	44598.91
582.10	43931.86
582.26	44999.14
582.42	44346.13
582.58	44329.75
582.74	44451.45
582.90	44470.18
583.06	44392.94
583.22	44626.99
583.38	44465.50
583.54	44458.48
583.70	44296.98
583.86	44509.97
584.02	43878.02
584.18	44273.57
584.34	44350.81
584.50	44648.06
584.66	44051.22
584.82	44320.38
584.98	44760.40
585.14	44275.91
585.30	44446.77
585.46	44294.64
585.62	44500.61
585.78	44205.70
585.94	44119.10
586.10	43936.54
586.26	44095.69
586.42	44105.06
586.58	44851.69
586.74	44343.79
586.90	44245.49
587.06	44477.20
587.22	44425.71
587.38	44236.12
587.54	44549.76
587.70	44313.36
587.86	44509.97
588.02	44772.11
588.18	44259.53
588.34	44481.88
588.49	44306.34
588.65	43955.26
588.81	43936.54
588.97	44074.63
589.13	44465.50
589.29	44212.72
589.45	44280.60
589.61	45052.97
589.77	44830.62
589.93	45078.72
590.08	44692.53
590.24	44612.95
590.40	44566.14
590.56	45202.77
590.72	44519.33
590.88	44629.34
591.04	44814.24
591.20	44790.83
591.35	44830.62
591.51	45109.14
591.67	44325.07
591.83	44666.78
591.99	44369.54
592.15	44404.64
592.31	44961.69
592.46	44643.38
592.62	44924.24
592.78	44818.92
592.94	45216.81
593.10	44594.23
593.26	44905.52
593.41	44650.40
593.57	44692.53
593.73	44825.94
593.89	45003.82
594.05	44755.72
594.20	44732.32
594.36	44692.53
594.52	44421.03
594.68	45172.34
594.84	44467.84
594.99	45242.56
595.15	44973.39
595.31	45024.89
595.47	45106.80
595.62	44708.91
595.78	44484.22
595.94	44617.63
596.10	44664.44
596.25	45228.51
596.41	44701.89
596.57	44842.32
596.73	45059.99
596.88	44622.31
597.04	44828.28
597.20	44619.97
597.36	44917.22
597.51	44889.13
597.67	45151.27
597.83	45272.98
597.99	44980.42
598.14	44903.18
598.30	44818.92
598.46	44933.60
598.61	45249.58
598.77	44367.20
598.93	44818.92
599.09	45212.13
599.24	45130.21
599.40	45050.63
599.56	45083.40
599.71	45064.67
599.87	45160.64
600.03	45050.63
600.18	44882.11
600.34	44411.67
600.50	44891.48
600.65	44928.92
600.81	45558.53
600.97	45188.72
601.12	44851.69
601.28	45167.66
601.44	44811.90
601.59	45083.40
601.75	44570.82
601.91	44374.22
602.06	44942.97
602.22	44889.13
602.37	44769.77
602.53	45017.86
602.69	45359.58
602.84	44643.38
603.00	44891.48
603.16	45167.66
603.31	44591.89
603.47	44727.64
603.62	44858.71
603.78	45031.91
603.94	45167.66
604.09	45116.17
604.25	44912.54
604.40	44807.22
604.56	44575.50
604.71	45057.65
604.87	44800.19
605.03	45076.38
605.18	44797.85
605.34	44416.35
605.49	44257.19
605.65	45191.06
605.80	45031.91
605.96	45074.04
606.12	44971.05
606.27	44556.78
606.43	44458.48
606.58	45146.59
606.74	44875.09
606.89	44676.15
607.05	44634.02
607.20	44762.75
607.36	44732.32
607.51	44872.75
607.67	44767.43
607.82	44942.97
607.98	44577.84
608.13	44811.90
608.29	44343.79
608.44	44189.31
608.60	44069.95
608.75	44388.26
608.91	44128.46
609.06	44619.97
609.22	44790.83
609.37	43927.17
609.53	44692.53
609.68	44437.41
609.84	44135.48
609.99	44575.50
610.15	44212.72
610.30	44664.44
610.46	43929.51
610.61	44289.96
610.76	44282.94
610.92	44048.88
611.07	44088.67
611.23	43969.30
611.38	43859.30
611.54	44304.00
611.69	44123.78
611.84	43957.60
612.00	44566.14
612.15	44018.46
612.31	44769.77
612.46	44292.30
612.62	44711.25
612.77	43826.53
612.92	44619.97
613.08	43707.16
613.23	44004.41
613.39	43875.68
613.54	43861.64
613.69	43875.68
613.85	44381.24
614.00	44161.23
614.15	44194.00
614.31	44208.04
614.46	44121.44
614.62	43952.92
614.77	43751.63
614.92	44093.35
615.08	43695.46
615.23	44039.52
615.38	43543.33
615.54	43688.44
615.69	43583.12
615.84	43576.09
616.00	43753.97
616.15	43988.03
616.30	43777.38
616.46	43496.52
616.61	43459.07
616.76	43653.33
616.92	43749.29
617.07	43126.71
617.22	43501.20
617.37	43318.64
617.53	43976.33
617.68	43629.93
617.83	43817.17
617.99	43716.53
618.14	43063.52
618.29	43381.83
618.45	43152.46
618.60	43206.29
618.75	43248.42
618.90	43491.83
619.06	43597.16
619.21	43309.27
619.36	43580.78
619.51	43711.84
619.67	43302.25
619.82	43438.00
619.97	43372.47
620.12	43452.05
620.28	42827.12
620.43	43044.79
620.58	42913.72
620.73	43250.76
620.89	43583.12
621.04	42906.70
621.19	42677.33
621.34	42834.14
621.49	42962.87
621.65	42843.51
621.80	43063.52
621.95	42946.49
622.10	43220.33
622.25	42754.57
622.41	42595.41
622.56	42382.42
622.71	42749.88
622.86	42630.52
623.01	42611.79
623.16	42960.53
623.32	42796.70
623.47	42693.71
623.62	43110.33
623.77	42543.92
623.92	42480.72
624.07	42394.12
624.23	42099.22
624.38	42019.64
624.53	42518.17
624.68	42588.39
624.83	42600.09
624.98	42607.11
625.13	42234.97
625.29	42625.84
625.44	42618.81
625.59	42120.28
625.74	41989.21
625.89	41879.21
626.04	42038.36
626.19	41848.78
626.34	41902.61
626.49	42043.04
626.65	42113.26
626.80	42234.97
626.95	41710.69
627.10	41532.81
627.25	41436.84
627.40	41769.20
627.55	41808.99
627.70	41532.81
627.85	41621.75
628.00	41890.91
628.15	41640.47
628.30	41677.92
628.45	41986.87
628.60	41687.28
628.76	41694.30
628.91	41682.60
629.06	41579.62
629.21	41675.58
629.36	41340.88
629.51	41076.40
629.66	41387.69
629.81	41071.72
629.96	41413.44
630.11	41446.21
630.26	41801.97
630.41	41682.60
630.56	41420.46
630.71	41296.41
630.86	41102.15
631.01	41464.93
631.16	41031.93
631.31	40975.76
631.46	40570.85
631.61	41212.15
631.76	41315.14
631.91	41406.42
632.06	41317.48
632.21	41375.99
632.36	41139.60
632.51	40938.31
632.66	41060.02
632.81	40737.02
632.96	40861.07
633.10	40744.05
633.25	40889.16
633.40	40961.72
633.55	40940.65
633.70	40832.99
633.85	40737.02
634.00	40818.94
634.15	40573.19
634.30	40662.13
634.45	40968.74
634.60	40627.02
634.75	40704.26
634.90	40474.88
635.05	40683.19
635.19	40664.47
635.34	40919.59
635.49	40648.08
635.64	40423.39
635.79	40470.20
635.94	40493.61
636.09	40596.59
636.24	40416.37
636.39	40388.28
636.53	40456.16
636.68	40037.20
636.83	40187.00
636.98	40165.93
637.13	39852.30
637.28	40315.73
637.43	40477.22
637.57	40254.87
637.72	40343.81
637.87	40294.66
638.02	40474.88
638.17	39782.09
638.32	40081.67
638.46	39819.53
638.61	39913.16
638.76	40163.59
638.91	39910.82
639.06	39590.16
639.20	39955.29
639.35	39880.39
639.50	39950.60
639.65	39812.51
639.80	40069.97
639.94	39674.42
640.09	40006.78
640.24	39529.31
640.39	39438.03
640.54	39784.43
640.68	39133.76
640.83	39555.05
640.98	39194.61
641.13	39651.02
641.27	39707.19
641.42	39669.74
641.57	39379.51
641.72	39608.89
641.86	39288.23
642.01	38983.96
642.16	39377.17
642.31	38738.21
642.45	39519.95
642.60	38962.90
642.75	38700.76
642.90	39012.05
643.04	39143.12
643.19	39203.97
643.34	39344.41
643.48	39243.76
643.63	39484.84
643.78	39185.25
643.93	39026.09
644.07	39218.02
644.22	38913.75
644.37	38796.72
644.51	38960.56
644.66	39145.46
644.81	38974.60
644.95	39269.51
645.10	39370.15
645.25	38955.88
645.39	39037.80
645.54	38979.28
645.69	38930.13
645.83	38562.67
645.98	38981.62
646.13	39182.91
646.27	38553.30
646.42	38349.68
646.57	38721.82
646.71	38447.98
646.86	38572.03
647.00	38590.75
647.15	38885.66
647.30	38712.46
647.44	38672.67
647.59	38534.58
647.74	38342.66
647.88	38506.49
648.03	38073.49
648.17	38204.56
648.32	38288.82
648.47	38307.55
648.61	38553.30
648.76	38232.65
648.90	38595.43
649.05	38347.34
649.20	38164.78
649.34	38574.37
649.49	37991.58
649.63	38110.94
649.78	38045.41
649.92	38176.48
650.07	38586.07
650.21	37874.55
650.36	38511.17
650.51	37921.36
650.65	38249.03
650.80	38700.76
650.94	37951.79
651.09	37914.34
651.23	38141.37
651.38	37986.89
651.52	37827.74
651.67	37942.42
651.81	37539.85
651.96	37944.76
652.10	37825.40
652.25	37699.01
652.39	37720.07
652.54	37787.95
652.68	37876.89
652.83	37804.33
652.97	37958.81
653.12	37715.39
653.26	37998.60
653.41	37652.20
653.55	37263.67
653.70	37759.86
653.84	37490.70
653.99	37464.96
654.13	37408.78
654.27	37193.45
654.42	37130.26
654.56	37603.05
654.71	37706.03
654.85	37422.83
655.00	37577.30
655.14	37230.90
655.29	36921.95
655.43	37067.06
655.57	36793.22
655.72	36811.95
655.86	36973.44
656.01	37069.40
656.15	36732.37
656.30	36975.78
656.44	36828.33
656.58	36840.03
656.73	36931.31
656.87	36917.27
657.01	36301.71
657.16	36407.03
657.30	36325.11
657.45	36107.44
657.59	36636.41
657.73	36369.58
657.88	36507.68
658.02	36577.89
658.16	36999.19
658.31	36840.03
658.45	37216.86
658.60	36100.42
658.74	36718.32
658.88	36364.90
659.03	36666.83
659.17	36081.70
659.31	36498.31
659.46	36112.13
659.60	36109.78
659.74	35962.33
659.89	36025.53
660.03	36416.40
660.17	36219.79
660.32	35938.93
660.46	36425.76
660.60	36058.29
660.74	35955.31
660.89	36175.32
661.03	35585.50
661.17	35711.89
661.32	35505.93
661.46	35358.47
661.60	35421.67
661.74	35615.93
661.89	35332.73
662.03	35559.76
662.17	35047.18
662.31	35585.50
662.46	35316.34
662.60	35718.92
662.74	35276.55
662.88	35424.01
663.03	35131.44
663.17	35161.87
663.31	34813.13
663.45	35138.46
663.60	35208.68
663.74	35040.16
663.88	35227.40
664.02	35079.95
664.17	34801.43
664.31	34286.51
664.45	34803.77
664.59	34672.70
664.73	34780.36
664.88	34607.16
665.02	34600.14
665.16	34663.33
665.30	34700.78
665.44	34452.69
665.59	33972.88
665.73	34092.24
665.87	33979.90
666.01	34368.43
666.15	34117.99
666.29	34075.86
666.44	34066.50
666.58	34050.11
666.72	34232.68
666.86	34352.04
667.00	34218.63
667.14	33813.72
667.28	33614.77
667.43	33823.08
667.57	33699.03
667.71	33291.78
667.85	33663.93
667.99	33249.65
668.13	33172.41
668.27	33387.74
668.41	33500.09
668.56	33287.10
668.70	33055.39
668.84	33376.04
668.98	33130.28
669.12	32950.06
669.26	33139.65
669.40	32797.93
669.54	32671.54
669.68	32816.65
669.82	32863.46
669.96	32720.69
670.10	32257.26
670.25	32849.42
670.39	33039.00
670.53	32762.82
670.67	32173.00
670.81	32732.39
670.95	32397.70
671.09	33013.26
671.23	32275.99
671.37	32524.08
671.51	32238.54
671.65	32432.80
671.79	32144.92
671.93	31592.55
672.07	32149.60
672.21	31948.31
672.35	31482.55
672.49	31449.78
672.63	31833.63
672.77	31859.37
672.91	31693.19
673.05	31744.69
673.19	31304.67
673.33	31569.15
673.47	31325.73
673.61	31295.30
673.75	31173.60
673.89	30939.54
674.03	31204.02
674.17	30895.07
674.31	30661.02
674.45	30698.47
674.59	30810.81
674.73	30979.33
674.87	30644.63
675.01	30473.78
675.15	30991.03
675.29	30319.30
675.43	30663.36
675.56	30499.52
675.70	30284.19
675.84	29991.62
675.98	28978.17
676.12	29872.26
676.26	30094.61
676.40	29930.77
676.54	29340.96
676.68	29790.34
676.82	28905.62
676.96	29626.50
677.10	29284.78
677.23	29071.79
677.37	29373.72
677.51	29039.03
677.65	29074.13
677.79	28835.40
677.93	29188.82
678.07	28968.81
678.21	28549.85
678.34	28704.33
678.48	28531.13
678.62	28350.91
678.76	28364.95
678.90	28456.23
679.04	28386.02
679.18	28177.71
679.31	28135.58
679.45	27606.62
679.59	27337.46
679.73	27737.69
679.87	27747.05
680.00	27749.39
680.14	27854.72
680.28	27271.92
680.42	27442.78
680.56	27021.48
680.70	27304.69
680.83	27601.94
680.97	26817.86
681.11	26890.41
681.25	26642.32
681.39	26698.49
681.52	26843.60
681.66	26728.92
681.80	26841.26
681.94	26408.26
682.07	26260.81
682.21	26434.01
682.35	26139.10
682.49	26354.43
682.62	26190.59
682.76	25762.28
682.90	25956.54
683.04	25776.32
683.17	25769.30
683.31	25399.49
683.45	25935.48
683.59	25184.16
683.72	25242.68
683.86	25432.26
684.00	25373.75
684.13	25209.91
684.27	25465.03
684.41	24961.81
684.55	24484.34
684.68	24943.09
684.82	24659.88
684.96	24797.98
685.09	24538.18
685.23	24273.70
685.37	24229.23
685.50	24109.86
685.64	24404.77
685.78	24156.67
685.91	24308.80
686.05	24149.65
686.19	23974.11
686.32	23510.68
686.46	23847.72
686.60	23269.61
686.73	23393.65
686.87	23325.78
687.01	23515.36
687.14	22958.31
687.28	23009.81
687.42	22881.08
687.55	22792.14
687.69	22740.64
687.82	22792.14
687.96	22852.99
688.10	22590.85
688.23	22600.21
688.37	22485.53
688.50	22307.65
688.64	22288.92
688.78	22115.72
688.91	21942.52
689.05	22066.57
689.18	21930.82
689.32	21642.93
689.46	21961.25
689.59	21898.05
689.73	21837.20
689.86	21549.31
690.00	21427.60
690.13	21614.85
690.27	21750.60
690.41	21745.92
690.54	21341.00
690.68	21036.74
690.81	21010.99
690.95	20723.10
691.08	20814.38
691.22	20987.58
691.35	20931.41
691.49	20826.09
691.62	20819.07
691.76	20673.95
691.89	20819.07
692.03	20510.11
692.16	20463.30
692.30	20301.81
692.43	20152.01
692.57	19955.41
692.70	19910.94
692.84	20002.22
692.97	19770.51
693.11	19585.60
693.24	19590.28
693.38	19644.12
693.51	19377.30
693.65	19620.71
693.78	19609.01
693.92	19407.72
694.05	19300.06
694.19	19337.51
694.32	19400.70
694.45	19035.58
694.59	18883.44
694.72	18869.40
694.86	18717.26
694.99	18977.06
695.13	18312.35
695.26	18462.15
695.39	18178.94
695.53	18295.97
695.66	18534.70
695.80	18230.43
695.93	18162.56
696.07	18092.34
696.20	18099.36
696.33	17984.68
696.47	17895.74
696.60	18171.92
696.73	17671.04
696.87	17640.62
697.00	17664.02
697.14	17317.62
697.27	17509.55
697.40	17523.59
697.54	17053.14
697.67	17212.30
697.80	17322.30
697.94	17240.39
698.07	16933.78
698.21	16842.50
698.34	16957.18
698.47	16657.59
698.61	16470.35
698.74	16531.20
698.87	16180.12
699.01	16315.87
699.14	16306.51
699.27	16137.99
699.40	16245.66
699.54	16173.10
699.67	16121.61
699.80	16278.43
699.94	15667.55
700.07	15887.56
700.20	15873.51
700.34	15875.85
700.47	15906.28
700.60	16100.55
700.73	15990.54
700.87	15398.38
701.00	15405.41
701.13	15136.24
701.26	15660.52
701.40	15449.88
701.53	15101.14
701.66	15197.10
701.79	14984.11
701.93	14974.75
702.06	14757.08
702.19	14824.95
702.32	14792.19
702.46	14710.27
702.59	14628.35
702.72	14487.92
702.85	14654.09
702.99	14618.99
703.12	14555.79
703.25	14581.54
703.38	14141.52
703.51	14218.75
703.65	14548.77
703.78	14424.72
703.91	14012.79
704.04	14193.01
704.17	14253.86
704.31	13682.77
704.44	13497.87
704.57	13736.60
704.70	13626.60
704.83	13502.55
704.96	13502.55
705.10	13624.26
705.23	13699.16
>>>>>End Processed Spectral Data<<<<<
