SpectraSuite Data File
++++++++++++++++++++++++++++++++++++
Date: Fri Oct 25 10:43:53 EDT 2013
User: price-jones
Dark Spectrum Present: No
Reference Spectrum Present: No
Number of Sampled Component Spectra: 1
Spectrometers: USB2+H05261
Integration Time (usec): 100000 (USB2+H05261)
Spectra Averaged: 1 (USB2+H05261)
Boxcar Smoothing: 0 (USB2+H05261)
Correct for Electrical Dark: No (USB2+H05261)
Strobe/Lamp Enabled: No (USB2+H05261)
Correct for Detector Non-linearity: No (USB2+H05261)
Correct for Stray Light: No (USB2+H05261)
Number of Pixels in Processed Spectrum: 2048
>>>>>Begin Processed Spectral Data<<<<<
365.73	196.60
365.92	196.60
366.12	196.60
366.32	77.24
366.52	25.75
366.72	42.13
366.91	21.06
367.11	30.43
367.31	7.02
367.51	0.00
367.70	32.77
367.90	28.09
368.10	28.09
368.30	4.68
368.49	0.00
368.69	0.00
368.89	35.11
369.09	35.11
369.28	81.92
369.48	21.06
369.68	30.43
369.87	112.35
370.07	121.71
370.27	95.96
370.47	215.33
370.66	388.53
370.86	423.64
371.06	470.45
371.25	477.47
371.45	425.98
371.65	491.51
371.84	470.45
372.04	484.49
372.24	486.83
372.44	496.19
372.63	500.87
372.83	482.15
373.03	533.64
373.22	603.86
373.42	512.58
373.62	486.83
373.81	510.24
374.01	578.11
374.21	587.47
374.40	528.96
374.60	592.16
374.79	620.24
374.99	629.60
375.19	559.39
375.38	617.90
375.58	535.98
375.78	629.60
375.97	608.54
376.17	645.99
376.37	615.56
376.56	589.82
376.76	664.71
376.95	592.16
377.15	601.52
377.35	622.58
377.54	629.60
377.74	660.03
377.93	662.37
378.13	732.59
378.33	667.05
378.52	585.13
378.72	730.25
378.91	706.84
379.11	585.13
379.31	610.88
379.50	727.91
379.70	800.46
379.89	791.10
380.09	678.76
380.28	636.63
380.48	741.95
380.68	723.23
380.87	737.27
381.07	683.44
381.26	748.97
381.46	737.27
381.65	784.08
381.85	737.27
382.04	643.65
382.24	753.65
382.43	709.18
382.63	713.86
382.83	758.33
383.02	856.64
383.22	784.08
383.41	688.12
383.61	711.52
383.80	915.15
384.00	800.46
384.19	795.78
384.39	791.10
384.58	856.64
384.78	777.06
384.97	826.21
385.17	858.98
385.36	823.87
385.56	812.17
385.75	765.36
385.95	788.76
386.14	856.64
386.34	793.44
386.53	894.08
386.72	833.23
386.92	912.81
387.11	884.72
387.31	844.93
387.50	816.85
387.70	819.19
387.89	882.38
388.09	901.11
388.28	908.13
388.48	891.74
388.67	978.34
388.86	936.21
389.06	959.62
389.25	978.34
389.45	976.00
389.64	1036.86
389.84	1109.41
390.03	1027.50
390.22	971.32
390.42	985.37
390.61	1071.97
390.81	997.07
391.00	1114.10
391.19	1128.14
391.39	1074.31
391.58	1053.24
391.78	1132.82
391.97	1078.99
392.16	1064.94
392.36	1088.35
392.55	1048.56
392.75	1034.52
392.94	1004.09
393.13	1053.24
393.33	987.71
393.52	1020.47
393.71	1088.35
393.91	1132.82
394.10	1149.20
394.29	1114.10
394.49	1151.54
394.68	1153.88
394.88	1249.85
395.07	1198.35
395.26	1378.58
395.46	1327.08
395.65	1224.10
395.84	1261.55
396.04	1247.51
396.23	1280.27
396.42	1254.53
396.62	1184.31
396.81	1203.04
397.00	1324.74
397.19	1263.89
397.39	1444.11
397.58	1467.52
397.77	1451.13
397.97	1453.47
398.16	1476.88
398.35	1497.94
398.55	1472.20
398.74	1516.67
398.93	1614.97
399.12	1647.74
399.32	1591.56
399.51	1675.82
399.70	1593.90
399.90	1591.56
400.09	1561.14
400.28	1666.46
400.47	1654.76
400.67	1739.02
400.86	1717.95
401.05	1680.50
401.24	1729.66
401.44	1717.95
401.63	1713.27
401.82	1781.15
402.01	1764.76
402.21	1680.50
402.40	1741.36
402.59	1720.29
402.78	1949.67
402.97	1900.52
403.17	1870.09
403.36	1703.91
403.55	1823.28
403.74	1952.01
403.93	1912.22
404.13	1872.43
404.32	1844.34
404.51	1919.24
404.70	1944.99
404.89	1991.80
405.09	2001.16
405.28	2062.01
405.47	1959.03
405.66	2031.58
405.85	2078.40
406.05	2047.97
406.24	1989.46
406.43	2026.90
406.62	2260.96
406.81	2249.25
407.00	2092.44
407.20	2134.57
407.39	2186.06
407.58	2237.55
407.77	2314.79
407.96	2235.21
408.15	2277.34
408.34	2176.70
408.54	2413.09
408.73	2487.99
408.92	2324.15
409.11	2385.01
409.30	2385.01
409.49	2385.01
409.68	2335.85
409.87	2265.64
410.07	2289.04
410.26	2441.18
410.45	2530.12
410.64	2485.65
410.83	2499.69
411.02	2560.55
411.21	2602.68
411.40	2602.68
411.59	2628.42
411.78	2700.98
411.98	2693.96
412.17	2684.59
412.36	2782.90
412.55	2801.62
412.74	2810.98
412.93	2818.00
413.12	2764.17
413.31	2942.05
413.50	2775.88
413.69	2909.29
413.88	3033.33
414.07	2902.26
414.26	2935.03
414.45	3075.46
414.64	3066.10
414.83	3166.74
415.02	3150.36
415.22	3190.15
415.41	3213.56
415.60	3325.90
415.79	3222.92
415.98	3351.65
416.17	3279.09
416.36	3459.31
416.55	3243.98
416.74	3337.60
416.93	3363.35
417.12	3496.76
417.31	3440.59
417.50	3452.29
417.69	3637.19
417.88	3665.28
418.07	3496.76
418.26	3578.68
418.45	3566.98
418.64	3744.86
418.83	3742.52
419.02	3742.52
419.21	3744.86
419.39	3749.54
419.58	3639.53
419.77	3756.56
419.96	3754.22
420.15	3852.52
420.34	3775.28
420.53	3925.08
420.72	3932.10
420.91	3995.29
421.10	4084.23
421.29	3852.52
421.48	4039.76
421.67	4018.70
421.86	3831.46
422.05	3871.25
422.24	3854.86
422.43	3850.18
422.61	3908.69
422.80	4037.42
422.99	3906.35
423.18	4119.34
423.37	4056.15
423.56	4070.19
423.75	4079.55
423.94	3999.98
424.13	3836.14
424.32	3857.20
424.50	4119.34
424.69	3995.29
424.88	4175.52
425.07	3985.93
425.26	3904.01
425.45	4184.88
425.64	4198.92
425.83	4107.64
426.01	4170.83
426.20	4109.98
426.39	4093.60
426.58	4102.96
426.77	4072.53
426.96	4039.76
427.15	4142.75
427.33	4290.20
427.52	4266.80
427.71	4194.24
427.90	4390.84
428.09	4280.84
428.28	4189.56
428.46	4304.25
428.65	4430.63
428.84	4458.72
429.03	4456.38
429.22	4194.24
429.40	4276.16
429.59	4227.01
429.78	4100.62
429.97	3871.25
430.16	4070.19
430.34	4231.69
430.53	4241.05
430.72	4325.31
430.91	4381.48
431.10	4428.29
431.28	4550.00
431.47	4805.12
431.66	4676.39
431.85	4812.14
432.03	4884.70
432.22	4840.23
432.41	4784.06
432.60	5011.09
432.79	4917.47
432.97	4884.70
433.16	4770.01
433.35	4858.95
433.54	4720.86
433.72	4812.14
433.91	4711.50
434.10	4835.55
434.28	4882.36
434.47	4968.96
434.66	4901.08
434.85	5146.84
435.03	5046.20
435.22	5172.58
435.41	5322.38
435.59	5282.59
435.78	5289.61
435.97	5195.99
436.16	5179.61
436.34	5397.28
436.53	5385.57
436.72	5343.44
436.90	5308.34
437.09	5401.96
437.28	5369.19
437.46	5280.25
437.65	5418.34
437.84	5364.51
438.02	5380.89
438.21	5371.53
438.40	5369.19
438.58	5439.40
438.77	5446.43
438.96	5582.18
439.14	5736.65
439.33	5626.65
439.52	5858.36
439.70	5727.29
439.89	5975.39
440.08	5715.59
440.26	5933.26
440.45	5895.81
440.63	5991.77
440.82	6195.40
441.01	6153.27
441.19	6300.72
441.38	6249.23
441.57	6279.66
441.75	6150.93
441.94	6408.39
442.12	6160.29
442.31	6576.91
442.50	6497.33
442.68	6586.27
442.87	6399.02
443.05	6415.41
443.24	6729.04
443.43	6569.88
443.61	6534.78
443.80	6789.89
443.98	6616.69
444.17	6366.26
444.35	6719.68
444.54	6803.94
444.73	6789.89
444.91	6700.95
445.10	6693.93
445.28	6661.16
445.47	6766.49
445.65	6504.35
445.84	6841.39
446.02	6796.92
446.21	6909.26
446.39	6913.94
446.58	6766.49
446.77	6869.47
446.95	6717.34
447.14	6878.83
447.32	7007.56
447.51	6736.06
447.69	6829.68
447.88	6967.77
448.06	6972.46
448.25	6799.26
448.43	6899.90
448.62	6970.12
448.80	6836.70
448.99	7180.76
449.17	7063.74
449.36	6906.92
449.54	7164.38
449.73	7265.02
449.91	7543.55
450.10	7288.43
450.28	7466.31
450.46	7527.16
450.65	7456.95
450.83	7489.71
451.02	7117.57
451.20	7445.24
451.39	7576.31
451.57	7300.13
451.76	7349.28
451.94	7466.31
452.13	7639.51
452.31	7489.71
452.49	7349.28
452.68	7449.93
452.86	7368.01
453.05	7466.31
453.23	7588.02
453.42	7524.82
453.60	7595.04
453.78	7772.92
453.97	7665.25
454.15	7695.68
454.34	7534.18
454.52	7564.61
454.70	7763.56
454.89	7801.01
455.07	7588.02
455.26	7913.35
455.44	8070.17
455.62	7836.11
455.81	7906.33
455.99	8126.34
456.17	8088.89
456.36	7999.95
456.54	8098.25
456.73	8238.69
456.91	8514.87
457.09	8327.63
457.28	8582.74
457.46	8245.71
457.64	8245.71
457.83	8336.99
458.01	8407.20
458.19	8533.59
458.38	8339.33
458.56	8367.42
458.74	8442.31
458.93	8397.84
459.11	8578.06
459.29	8393.16
459.48	8444.65
459.66	8573.38
459.84	8638.92
460.03	8753.60
460.21	8727.86
460.39	8809.78
460.57	8905.74
460.76	9078.94
460.94	9118.73
461.12	8868.29
461.31	9020.42
461.49	8943.19
461.67	8802.75
461.85	9149.15
462.04	9088.30
462.22	9085.96
462.40	9104.68
462.59	9315.33
462.77	9235.75
462.95	9011.06
463.13	9245.12
463.32	9238.09
463.50	9228.73
463.68	9247.46
463.86	9095.32
464.05	9191.28
464.23	9331.72
464.41	9383.21
464.59	9135.11
464.78	9420.66
464.96	9507.26
465.14	9500.23
465.32	9577.47
465.50	9682.80
465.69	9790.46
465.87	9570.45
466.05	9425.34
466.23	9495.55
466.41	9547.05
466.60	9783.44
466.78	9495.55
466.96	9511.94
467.14	9500.23
467.32	9525.98
467.51	9654.71
467.69	9617.26
467.87	9554.07
468.05	9708.54
468.23	9645.35
468.41	9659.39
468.60	9884.08
468.78	9973.02
468.96	9916.85
469.14	9818.55
469.32	9984.73
469.50	9675.77
469.69	10101.75
469.87	10083.03
470.05	9944.94
470.23	10043.24
470.41	9877.06
470.59	10120.48
470.77	10064.30
470.95	10375.59
471.14	10366.23
471.32	10164.95
471.50	10796.89
471.68	10567.52
471.86	10480.92
472.04	10843.70
472.22	10764.12
472.40	10602.63
472.58	10738.38
472.77	10923.28
472.95	11157.33
473.13	11218.19
473.31	11021.58
473.49	10918.60
473.67	11002.86
473.85	10869.45
474.03	11185.42
474.21	11183.08
474.39	11585.65
474.57	11449.90
474.75	11485.01
474.93	11580.97
475.12	11204.14
475.30	11623.10
475.48	11620.76
475.66	11693.32
475.84	11414.79
476.02	11847.79
476.20	11779.92
476.38	11946.09
476.56	12173.13
476.74	11997.59
476.92	12142.70
477.10	11995.25
477.28	12411.86
477.46	12362.71
477.64	12409.52
477.82	12772.30
478.00	12884.65
478.18	12940.82
478.36	12844.86
478.54	12875.29
478.72	13174.88
478.90	13156.15
479.08	13352.76
479.26	13710.86
479.44	13408.93
479.62	13554.04
479.80	13680.43
479.98	13982.36
480.16	14127.47
480.34	14162.58
480.52	14188.33
480.70	14253.86
480.88	14148.54
481.06	14207.05
481.24	14403.66
481.41	14614.30
481.59	14799.21
481.77	14918.57
481.95	14595.58
482.13	15234.55
482.31	14965.39
482.49	15157.31
482.67	15143.27
482.85	15470.94
483.03	15613.71
483.21	15815.00
483.39	15978.84
483.57	15782.23
483.74	16079.48
483.92	16025.65
484.10	16035.01
484.28	16582.70
484.46	16549.93
484.64	16877.60
484.82	16435.24
485.00	16699.72
485.18	16695.04
485.35	16861.22
485.53	16540.57
485.71	16444.60
485.89	16524.18
486.07	16826.11
486.25	16985.27
486.43	17296.56
486.61	17476.78
486.78	17657.00
486.96	17888.71
487.14	17905.10
487.32	18214.05
487.50	18101.70
487.68	18757.05
487.85	18618.96
488.03	18801.52
488.21	18956.00
488.39	19302.40
488.57	19077.71
488.75	19325.80
488.92	19403.04
489.10	19831.36
489.28	19871.15
489.46	19901.58
489.64	20276.06
489.81	20460.96
489.99	20624.80
490.17	20760.55
490.35	21029.71
490.53	21111.63
490.70	20844.81
490.88	20912.69
491.06	21219.30
491.24	21193.55
491.41	21219.30
491.59	21406.54
491.77	21083.55
491.95	21467.39
492.13	21785.71
492.30	21898.05
492.48	22429.35
492.66	22188.28
492.84	22291.26
493.01	22721.92
493.19	22593.19
493.37	22977.04
493.54	22719.58
493.72	23206.41
493.90	23271.95
494.08	23548.13
494.25	23381.95
494.43	24004.53
494.61	24056.03
494.79	24397.74
494.96	24212.84
495.14	24121.56
495.32	24428.17
495.49	24332.21
495.67	24458.60
495.85	24730.10
496.02	24631.80
496.20	24917.34
496.38	25165.44
496.55	25043.73
496.73	25516.52
496.91	25266.08
497.09	25771.64
497.26	25919.09
497.44	25661.63
497.62	25809.09
497.79	26103.99
497.97	25935.48
498.14	25872.28
498.32	25972.92
498.50	25979.95
498.67	26471.46
498.85	26841.26
499.03	26799.13
499.20	26806.16
499.38	27051.91
499.56	26986.38
499.73	27051.91
499.91	27346.82
500.08	27232.13
500.26	26775.73
500.44	27716.62
500.61	27679.18
500.79	27438.10
500.97	27323.41
501.14	27810.25
501.32	27435.76
501.49	27414.69
501.67	27892.16
501.84	27992.81
502.02	27964.72
502.20	28491.34
502.37	28371.97
502.55	28425.81
502.72	28631.77
502.90	28547.51
503.07	28765.18
503.25	28800.29
503.43	28865.83
503.60	28622.41
503.78	28601.35
503.95	28421.13
504.13	29226.27
504.30	29233.29
504.48	29244.99
504.65	29677.99
504.83	29713.10
505.01	30010.35
505.18	29659.27
505.36	29706.08
505.53	29827.79
505.71	30532.29
505.88	30239.72
506.06	30309.94
506.23	30075.88
506.41	30251.42
506.58	30630.59
506.76	30431.65
506.93	30878.69
507.11	30675.06
507.28	30888.05
507.46	30656.34
507.63	30892.73
507.81	30864.64
507.98	30747.62
508.16	31344.45
508.33	31456.80
508.50	31328.07
508.68	31379.56
508.85	31709.58
509.03	31704.90
509.20	31763.41
509.38	32002.14
509.55	31583.19
509.73	32137.90
509.90	32037.25
510.08	32210.45
510.25	32477.27
510.42	32271.31
510.60	32163.64
510.77	32428.12
510.95	32699.62
511.12	32641.11
511.30	32837.72
511.47	33282.42
511.64	33078.79
511.82	33097.52
511.99	33017.94
512.17	33186.46
512.34	33333.91
512.51	33010.92
512.69	33427.53
512.86	33439.23
513.04	33628.82
513.21	33357.32
513.38	33631.16
513.56	33614.77
513.73	33486.04
513.90	33909.68
514.08	33626.48
514.25	33844.15
514.43	34010.32
514.60	34178.84
514.77	34117.99
514.95	34546.31
515.12	34302.89
515.29	34469.07
515.47	34560.35
515.64	35154.85
515.81	34195.23
515.99	34558.01
516.16	34565.03
516.33	34279.49
516.51	34082.88
516.68	34059.48
516.85	33799.68
517.03	34181.18
517.20	34857.60
517.37	35353.79
517.54	35248.47
517.72	34920.79
517.89	34614.18
518.06	34871.64
518.24	34668.02
518.41	35161.87
518.58	35466.14
518.75	35491.88
518.93	35501.25
519.10	35414.65
519.27	35534.01
519.45	35381.88
519.62	36084.04
519.79	36226.81
519.96	35887.43
520.14	36767.48
520.31	36182.34
520.48	36051.27
520.65	36257.24
520.83	36781.52
521.00	36563.85
521.17	36765.14
521.34	36699.60
521.52	37006.21
521.69	36889.18
521.86	36891.52
522.03	37099.83
522.20	37137.28
522.38	36751.09
522.55	37191.11
522.72	37041.32
522.89	37249.63
523.07	37352.61
523.24	37673.26
523.41	37357.29
523.58	37675.60
523.75	37970.51
523.92	38127.33
524.10	37689.65
524.27	37598.37
524.44	38209.25
524.61	38366.06
524.78	37991.58
524.96	38190.52
525.13	38169.46
525.30	38902.04
525.47	38234.99
525.64	38370.74
525.81	38134.35
525.98	38213.93
526.16	37979.87
526.33	38115.62
526.50	38190.52
526.67	37958.81
526.84	37937.74
527.01	38022.00
527.18	38455.00
527.36	38646.93
527.53	39124.40
527.70	38969.92
527.87	38941.83
528.04	39138.44
528.21	39187.59
528.38	39117.37
528.55	39393.56
528.72	39786.77
528.89	39868.69
529.07	39849.96
529.24	39246.10
529.41	39508.24
529.58	39440.37
529.75	39665.06
529.92	40009.12
530.09	39728.25
530.26	39791.45
530.43	40084.01
530.60	40404.67
530.77	39765.70
530.94	40271.26
531.11	40027.84
531.28	40360.20
531.46	40091.04
531.63	40442.12
531.80	40554.46
531.97	40095.72
532.14	40360.20
532.31	39751.66
532.48	40126.14
532.65	40421.05
532.82	40521.69
532.99	40713.62
533.16	40563.82
533.33	40788.52
533.50	40959.38
533.67	40844.69
533.84	40720.64
534.01	41003.85
534.18	40779.15
534.35	41106.83
534.52	40840.01
534.69	41174.70
534.86	41439.18
535.03	41055.34
535.20	41591.32
535.37	41612.38
535.54	41823.03
535.71	41490.68
535.88	41745.80
536.05	41155.98
536.22	41890.91
536.38	41530.47
536.55	41687.28
536.72	41588.98
536.89	41296.41
537.06	41621.75
537.23	41717.71
537.40	42040.70
537.57	41759.84
537.74	42134.32
537.91	42281.78
538.08	41991.55
538.25	41516.42
538.42	41607.70
538.59	42103.90
538.75	41956.44
538.92	42314.55
539.09	41942.40
539.26	42071.13
539.43	42403.49
539.60	42218.58
539.77	42101.56
539.94	42431.57
540.11	41790.27
540.28	42110.92
540.44	42532.22
540.61	42307.52
540.78	42237.31
540.95	42534.56
541.12	42066.45
541.29	42656.26
541.46	42473.70
541.62	43009.68
541.79	42986.28
541.96	42794.36
542.13	42656.26
542.30	42703.07
542.47	42831.80
542.63	43049.47
542.80	42808.40
542.97	43248.42
543.14	43337.36
543.31	43430.98
543.48	43665.03
543.64	43929.51
543.81	43784.40
543.98	43604.18
544.15	43643.97
544.32	43882.70
544.48	44114.42
544.65	43688.44
544.82	43768.02
544.99	43620.56
545.16	43578.43
545.32	43721.21
545.49	43971.64
545.66	44322.72
545.83	44133.14
546.00	44278.25
546.16	44376.56
546.33	43526.94
546.50	43962.28
546.67	44175.27
546.83	43571.41
547.00	43971.64
547.17	43672.06
547.34	43405.23
547.50	43917.81
547.67	44311.02
547.84	44083.99
548.00	44322.72
548.17	44540.39
548.34	44662.10
548.51	44484.22
548.67	44498.26
548.84	44318.04
549.01	44439.75
549.18	44025.48
549.34	44495.92
549.51	44889.13
549.68	44945.31
549.84	44816.58
550.01	44921.90
550.18	44507.63
550.34	44774.45
550.51	44505.29
550.68	44392.94
550.84	44676.15
551.01	44575.50
551.18	44598.91
551.34	44746.36
551.51	45137.23
551.68	44856.37
551.84	45050.63
552.01	44732.32
552.18	45212.13
552.34	44692.53
552.51	44699.55
552.68	44907.86
552.84	45263.62
553.01	45003.82
553.18	44500.61
553.34	45326.81
553.51	44706.57
553.67	45144.25
553.84	45804.28
554.01	45425.12
554.17	46038.34
554.34	45677.90
554.51	45380.65
554.67	45429.80
554.84	45633.42
555.00	45247.24
555.17	45193.40
555.33	45235.53
555.50	45603.00
555.67	45687.26
555.83	45329.16
556.00	45497.67
556.16	45893.22
556.33	45476.61
556.50	45202.77
556.66	45804.28
556.83	45209.79
556.99	46061.74
557.16	45450.86
557.32	45858.12
557.49	45741.09
557.65	45305.75
557.82	45951.74
557.98	45614.70
558.15	45911.95
558.32	46050.04
558.48	45815.99
558.65	45745.77
558.81	45715.34
558.98	45762.15
559.14	45867.48
559.31	45918.97
559.47	45902.59
559.64	46024.29
559.80	45593.64
559.97	45874.50
560.13	46263.03
560.30	46239.62
560.46	45942.38
560.63	46054.72
560.79	46082.81
560.96	46459.63
561.12	46068.76
561.29	46157.70
561.45	46113.23
561.61	46021.95
561.78	46284.09
561.94	45933.01
562.11	45862.80
562.27	45841.73
562.44	46391.76
562.60	46148.34
562.77	46171.75
562.93	45954.08
563.10	46550.91
563.26	45727.05
563.42	46204.52
563.59	45869.82
563.75	46246.65
563.92	46433.89
564.08	46621.13
564.24	46501.76
564.41	46043.02
564.57	46316.86
564.74	46199.83
564.90	46213.88
565.07	46146.00
565.23	46534.53
565.39	46436.23
565.56	46291.12
565.72	45933.01
565.88	46539.21
566.05	46092.17
566.21	46586.02
566.38	46223.24
566.54	46422.19
566.70	46569.64
566.87	46691.35
567.03	46747.52
567.19	47075.19
567.36	46894.97
567.52	46651.56
567.68	46686.67
567.85	46291.12
568.01	46595.38
568.17	46583.68
568.34	46525.17
568.50	46398.78
568.66	46728.80
568.83	46131.96
568.99	46108.55
569.15	46333.24
569.32	46674.96
569.48	46197.49
569.64	46614.11
569.81	46377.72
569.97	46263.03
570.13	46319.20
570.30	46148.34
570.46	45918.97
570.62	46150.68
570.78	46211.54
570.95	46464.32
571.11	46078.13
571.27	46588.36
571.43	46354.31
571.60	46808.37
571.76	46625.81
571.92	46380.06
572.09	46623.47
572.25	46403.46
572.41	46513.47
572.57	46564.96
572.74	46644.54
572.90	46787.31
573.06	46658.58
573.22	46710.07
573.38	46354.31
573.55	46333.24
573.71	46794.33
573.87	46813.05
574.03	46454.95
574.20	47009.66
574.36	46574.32
574.52	46518.15
574.68	46712.41
574.84	46604.75
575.01	46705.39
575.17	46899.65
575.33	46106.21
575.49	46426.87
575.65	46653.90
575.82	46588.36
575.98	46684.33
576.14	46979.23
576.30	47042.43
576.46	46616.45
576.62	46178.77
576.79	46902.00
576.95	46546.23
577.11	46806.03
577.27	46373.03
577.43	46391.76
577.59	46829.44
577.75	46169.41
577.92	46263.03
578.08	46349.63
578.24	46518.15
578.40	46728.80
578.56	46897.31
578.72	46356.65
578.88	46904.34
579.04	47140.73
579.21	46836.46
579.37	46866.89
579.53	46827.10
579.69	46454.95
579.85	46202.18
580.01	46717.09
580.17	46871.57
580.33	46972.21
580.49	47201.58
580.65	46642.20
580.82	46604.75
580.98	47049.45
581.14	46590.70
581.30	47182.86
581.46	46813.05
581.62	46848.16
581.78	46759.22
581.94	47119.66
582.10	47037.75
582.26	46707.73
582.42	46831.78
582.58	46834.12
582.74	46548.57
582.90	46944.12
583.06	46925.40
583.22	47037.75
583.38	46808.37
583.54	47313.93
583.70	46707.73
583.86	46817.74
584.02	46766.24
584.18	46564.96
584.34	46920.72
584.50	46646.88
584.66	46581.34
584.82	46567.30
584.98	46721.77
585.14	46902.00
585.30	46312.18
585.46	46586.02
585.62	46319.20
585.78	46199.83
585.94	46267.71
586.10	46672.62
586.26	46539.21
586.42	47030.72
586.58	46567.30
586.74	46892.63
586.90	46759.22
587.06	46632.83
587.22	47236.69
587.38	46663.26
587.54	46705.39
587.70	47269.46
587.86	46766.24
588.02	47086.90
588.18	46976.89
588.34	46506.44
588.49	46248.99
588.65	46309.84
588.81	46171.75
588.97	46405.80
589.13	46417.50
589.29	46639.86
589.45	46176.43
589.61	46700.71
589.77	47014.34
589.93	46728.80
590.08	46976.89
590.24	46993.28
590.40	47377.12
590.56	47384.15
590.72	46972.21
590.88	46768.58
591.04	46555.60
591.20	47248.39
591.35	46763.90
591.51	47004.98
591.67	46328.56
591.83	46902.00
591.99	46569.64
592.15	46930.08
592.31	47323.29
592.46	46681.98
592.62	47089.24
592.78	47096.26
592.94	47255.42
593.10	46777.95
593.26	47054.13
593.41	46796.67
593.57	46857.52
593.73	46436.23
593.89	47157.11
594.05	46567.30
594.20	46677.30
594.36	46967.53
594.52	46806.03
594.68	46717.09
594.84	47009.66
594.99	46930.08
595.15	47122.01
595.31	46803.69
595.47	46997.96
595.62	46459.63
595.78	46660.92
595.94	47161.79
596.10	46930.08
596.25	47112.64
596.41	46918.38
596.57	46866.89
596.73	47119.66
596.88	46843.48
597.04	46930.08
597.20	46686.67
597.36	46681.98
597.51	47576.07
597.67	47234.35
597.83	47019.02
597.99	47452.02
598.14	46993.28
598.30	46932.42
598.46	46848.16
598.61	47194.56
598.77	46859.87
598.93	46796.67
599.09	46719.43
599.24	47428.62
599.40	47360.74
599.56	46630.49
599.71	46848.16
599.87	47161.79
600.03	47236.69
600.18	46838.80
600.34	46817.74
600.50	46745.18
600.65	47075.19
600.81	47061.15
600.97	47009.66
601.12	47388.83
601.28	46993.28
601.44	46335.59
601.59	46787.31
601.75	46454.95
601.91	47068.17
602.06	46705.39
602.22	47246.05
602.37	46885.61
602.53	46843.48
602.69	47002.64
602.84	46967.53
603.00	47129.03
603.16	46997.96
603.31	46866.89
603.47	46600.07
603.62	46663.26
603.78	46890.29
603.94	46965.19
604.09	46976.89
604.25	47035.41
604.40	46529.85
604.56	46667.94
604.71	47393.51
604.87	46983.91
605.03	46431.55
605.18	46630.49
605.34	47178.18
605.49	46536.87
605.65	46883.27
605.80	46770.93
605.96	46979.23
606.12	47096.26
606.27	47110.30
606.43	46419.84
606.58	46742.84
606.74	46724.11
606.89	46461.97
607.05	46490.06
607.20	46911.36
607.36	46686.67
607.51	46831.78
607.67	46981.57
607.82	46799.01
607.98	46398.78
608.13	46784.97
608.29	46424.53
608.44	46300.48
608.60	46024.29
608.75	45921.31
608.91	46567.30
609.06	46536.87
609.22	46623.47
609.37	46323.88
609.53	46431.55
609.68	46700.71
609.84	46129.62
609.99	46333.24
610.15	45806.62
610.30	46089.83
610.46	45930.67
610.61	46307.50
610.76	46143.66
610.92	46361.33
611.07	46684.33
611.23	46057.06
611.38	46103.87
611.54	45680.24
611.69	45865.14
611.84	45691.94
612.00	45759.81
612.15	45902.59
612.31	46450.27
612.46	46333.24
612.62	46005.57
612.77	45504.70
612.92	46040.68
613.08	45701.30
613.23	45909.61
613.39	45773.86
613.54	45867.48
613.69	45666.19
613.85	45806.62
614.00	45897.91
614.15	45745.77
614.31	45705.98
614.46	45844.07
614.62	45729.39
614.77	45696.62
614.92	45865.14
615.08	46059.40
615.23	45504.70
615.38	45546.82
615.54	45464.91
615.69	45752.79
615.84	45422.78
616.00	45705.98
616.15	45181.70
616.30	45504.70
616.46	45446.18
616.61	45027.23
616.76	45214.47
616.92	44636.36
617.07	45043.61
617.22	45099.78
617.37	45411.07
617.53	45326.81
617.68	45361.92
617.83	45406.39
617.99	45448.52
618.14	45036.59
618.29	45001.48
618.45	44933.60
618.60	44800.19
618.75	45038.93
618.90	45036.59
619.06	44790.83
619.21	44636.36
619.36	45228.51
619.51	45216.81
619.67	44594.23
619.82	45059.99
619.97	45045.95
620.12	44287.62
620.28	44484.22
620.43	44662.10
620.58	44421.03
620.73	45006.16
620.89	44875.09
621.04	44765.09
621.19	44425.71
621.34	44868.07
621.49	44472.52
621.65	44488.90
621.80	44868.07
621.95	44584.86
622.10	44673.81
622.25	44687.85
622.41	44355.49
622.56	44502.95
622.71	44964.03
622.86	44821.26
623.01	44601.25
623.16	44451.45
623.32	44133.14
623.47	44154.21
623.62	44126.12
623.77	44329.75
623.92	44130.80
624.07	44072.29
624.23	44247.83
624.38	44189.31
624.53	44044.20
624.68	44025.48
624.83	44196.34
624.98	44201.02
625.13	43730.57
625.29	43377.15
625.44	43468.43
625.59	43475.45
625.74	43775.04
625.89	43517.58
626.04	43660.35
626.19	43817.17
626.34	43655.67
626.49	43477.79
626.65	43217.99
626.80	43814.83
626.95	43679.08
627.10	43234.38
627.25	43063.52
627.40	43079.90
627.55	43091.60
627.70	43452.05
627.85	42880.95
628.00	43412.26
628.15	43515.24
628.30	43264.80
628.45	43550.35
628.60	43323.32
628.76	43086.92
628.91	43131.39
629.06	42726.48
629.21	42944.15
629.36	42550.94
629.51	42932.45
629.66	42969.90
629.81	42792.01
629.96	43044.79
630.11	43049.47
630.26	43587.80
630.41	43152.46
630.56	42976.92
630.71	42862.23
630.86	42698.39
631.01	42602.43
631.16	42836.48
631.31	42473.70
631.46	42312.20
631.61	42319.23
631.76	42342.63
631.91	42618.81
632.06	42887.98
632.21	42665.63
632.36	42066.45
632.51	42094.53
632.66	42389.44
632.81	42059.43
632.96	42887.98
633.10	42209.22
633.25	42440.93
633.40	41972.83
633.55	42649.24
633.70	42368.38
633.85	41827.71
634.00	41961.12
634.15	42366.04
634.30	41979.85
634.45	42464.34
634.60	41996.23
634.75	42068.79
634.90	41970.49
635.05	42351.99
635.19	41968.15
635.34	41890.91
635.49	41961.12
635.64	42064.11
635.79	41614.72
635.94	41839.42
636.09	41404.08
636.24	41518.76
636.39	41200.45
636.53	41654.51
636.68	41769.20
636.83	41106.83
636.98	41614.72
637.13	41097.47
637.28	41441.53
637.43	41635.79
637.57	41902.61
637.72	41551.53
637.87	41776.22
638.02	41951.76
638.17	41483.66
638.32	41418.12
638.46	41446.21
638.61	41186.41
638.76	41511.74
638.91	41399.40
639.06	41209.81
639.20	41596.00
639.35	41642.81
639.50	41146.62
639.65	41118.53
639.80	41488.34
639.94	40919.59
640.09	41104.49
640.24	41130.23
640.39	41020.23
640.54	40980.44
640.68	41111.51
640.83	40903.20
640.98	40727.66
641.13	40631.70
641.27	40844.69
641.42	40788.52
641.57	40666.81
641.72	40933.63
641.86	40694.89
642.01	39840.60
642.16	40437.44
642.31	40105.08
642.45	40542.76
642.60	40458.50
642.75	41069.38
642.90	40793.20
643.04	40650.42
643.19	40198.70
643.34	40374.24
643.48	40254.87
643.63	40662.13
643.78	40203.38
643.93	40416.37
644.07	40334.45
644.22	40121.46
644.37	40233.81
644.51	40179.98
644.66	40664.47
644.81	40456.16
644.95	40327.43
645.10	40456.16
645.25	40165.93
645.39	40151.89
645.54	40091.04
645.69	39669.74
645.83	40203.38
645.98	40067.63
646.13	40020.82
646.27	39847.62
646.42	39793.79
646.57	39978.69
646.71	39643.99
646.86	39826.56
647.00	39758.68
647.15	39234.40
647.30	39643.99
647.44	39363.13
647.59	39484.84
647.74	39847.62
647.88	39856.98
648.03	39592.50
648.17	40053.59
648.32	39323.34
648.47	39533.99
648.61	39526.97
648.76	39962.31
648.90	39519.95
649.05	39655.70
649.20	39594.84
649.34	39262.49
649.49	39182.91
649.63	39229.72
649.78	39487.18
649.92	39721.23
650.07	39824.22
650.21	39414.62
650.36	39615.91
650.51	39433.35
650.65	40081.67
650.80	40325.09
650.94	39508.24
651.09	39103.33
651.23	39187.59
651.38	39131.42
651.52	38469.04
651.67	38705.44
651.81	38550.96
651.96	38745.23
652.10	38969.92
652.25	38962.90
652.39	38906.73
652.54	38843.53
652.68	38803.74
652.83	38719.48
652.97	39208.65
653.12	38911.41
653.26	38508.83
653.41	38450.32
653.55	38518.20
653.70	38962.90
653.84	38632.88
653.99	38190.52
654.13	38124.99
654.27	38288.82
654.42	38309.89
654.56	38096.90
654.71	38429.26
654.85	38590.75
655.00	38447.98
655.14	38155.41
655.29	38040.73
655.43	37909.66
655.57	37600.71
655.72	37624.11
655.86	37801.99
656.01	37713.05
656.15	37350.27
656.30	37420.48
656.44	37537.51
656.58	37935.40
656.73	37881.57
656.87	37530.49
657.01	37532.83
657.16	37757.52
657.30	37572.62
657.45	37287.07
657.59	37713.05
657.73	37696.67
657.88	37790.29
658.02	37612.41
658.16	37984.55
658.31	38066.47
658.45	37942.42
658.60	37415.80
658.74	37493.04
658.88	37708.37
659.03	37904.98
659.17	37404.10
659.31	37528.15
659.46	37036.64
659.60	37350.27
659.74	37635.81
659.89	37741.14
660.03	37062.38
660.17	37336.23
660.32	37535.17
660.46	37163.03
660.60	36882.16
660.74	37081.11
660.89	37280.05
661.03	36847.05
661.17	36467.89
661.32	36062.97
661.46	36905.57
661.60	36535.76
661.74	35880.41
661.89	36577.89
662.03	36545.12
662.17	36563.85
662.31	36460.87
662.46	36538.10
662.60	36783.86
662.74	36261.92
662.88	36032.55
663.03	36261.92
663.17	36561.51
663.31	35967.01
663.45	35899.14
663.60	35901.48
663.74	35637.00
663.88	35824.24
664.02	35929.56
664.17	36053.61
664.31	35534.01
664.45	35730.62
664.59	35381.88
664.73	35920.20
664.88	35683.81
665.02	35360.81
665.16	35398.26
665.30	35477.84
665.44	35220.38
665.59	34822.49
665.73	35227.40
665.87	34663.33
666.01	35428.69
666.15	34703.12
666.29	35306.98
666.44	35328.05
666.58	34712.49
666.72	34721.85
666.86	34918.45
667.00	34913.77
667.14	34480.77
667.28	34384.81
667.43	34834.19
667.57	34562.69
667.71	34436.30
667.85	34902.07
667.99	34600.14
668.13	34377.79
668.27	34707.80
668.41	34330.98
668.56	34462.05
668.70	34007.98
668.84	34401.19
668.98	33773.93
669.12	33809.04
669.26	34120.33
669.40	34440.98
669.54	33792.65
669.68	33652.22
669.82	33457.96
669.96	33415.83
670.10	33511.79
670.25	33603.07
670.39	33556.26
670.53	33230.93
670.67	33677.97
670.81	33380.72
670.95	33244.97
671.09	33191.14
671.23	33214.54
671.37	33104.54
671.51	32947.72
671.65	32685.58
671.79	32348.54
671.93	33216.88
672.07	32847.08
672.21	32718.35
672.35	32353.23
672.49	32676.22
672.63	32833.04
672.77	32629.41
672.91	32215.13
673.05	32156.62
673.19	32275.99
673.33	31826.60
673.47	31952.99
673.61	32165.98
673.75	31714.26
673.89	31627.66
674.03	31424.03
674.17	31622.98
674.31	31438.08
674.45	31798.52
674.59	31400.63
674.73	31999.80
674.87	31683.83
675.01	31304.67
675.15	31515.31
675.29	30958.27
675.43	30927.84
675.56	31328.07
675.70	30808.47
675.84	31087.00
675.98	29942.47
676.12	31054.23
676.26	31000.40
676.40	30930.18
676.54	30541.65
676.68	30696.13
676.82	30239.72
676.96	30651.66
677.10	30457.39
677.23	30050.14
677.37	29790.34
677.51	30155.46
677.65	29738.85
677.79	29179.46
677.93	29766.93
678.07	29322.23
678.21	29521.18
678.34	29039.03
678.48	28978.17
678.62	28889.23
678.76	28535.81
678.90	28800.29
679.04	29048.39
679.18	28840.08
679.31	28615.39
679.45	28821.36
679.59	28332.18
679.73	28154.30
679.87	28521.77
680.00	28311.12
680.14	28444.53
680.28	28280.69
680.42	27821.95
680.56	28053.66
680.70	27814.93
680.83	27955.36
680.97	27962.38
681.11	27573.85
681.25	27173.62
681.39	27264.90
681.52	27505.98
681.66	27236.81
681.80	26881.05
681.94	27147.87
682.07	26934.88
682.21	26885.73
682.35	26717.22
682.49	26871.69
682.62	26628.27
682.76	26485.50
682.90	26546.36
683.04	26560.40
683.17	26211.66
683.31	26064.21
683.45	26260.81
683.59	25883.98
683.72	25872.28
683.86	25809.09
684.00	26108.68
684.13	25823.13
684.27	25322.26
684.41	25537.59
684.55	25530.56
684.68	25233.32
684.82	25303.53
684.96	24879.89
685.09	25235.66
685.23	24711.38
685.37	24959.47
685.50	24919.68
685.64	24987.56
685.78	24416.47
685.91	24631.80
686.05	24367.32
686.19	24067.73
686.32	24100.50
686.46	23864.10
686.60	23688.56
686.73	23630.05
686.87	23218.11
687.01	23269.61
687.14	23150.24
687.28	22808.52
687.42	23435.78
687.55	23374.93
687.69	23166.62
687.82	23281.31
687.96	23246.20
688.10	23117.47
688.23	22885.76
688.37	22965.34
688.50	23002.78
688.64	22831.93
688.78	23126.83
688.91	22494.89
689.05	22401.27
689.18	22293.60
689.32	22057.21
689.46	22424.67
689.59	22415.31
689.73	22309.99
689.86	22199.98
690.00	21792.73
690.13	22097.00
690.27	21553.99
690.41	21759.96
690.54	21392.50
690.68	21088.23
690.81	21425.26
690.95	21689.74
691.08	21282.49
691.22	21240.36
691.35	21301.22
691.49	21247.38
691.62	21132.70
691.76	21125.68
691.89	20994.61
692.03	20762.89
692.16	20900.98
692.30	20683.31
692.43	20524.16
692.57	20273.72
692.70	20273.72
692.84	20201.16
692.97	20137.97
693.11	20128.61
693.24	19981.15
693.38	20224.57
693.51	19733.06
693.65	19976.47
693.78	19747.10
693.92	19775.19
694.05	19384.32
694.19	19461.55
694.32	19564.54
694.45	19520.07
694.59	19344.53
694.72	19084.73
694.86	19288.35
694.99	18757.05
695.13	18986.43
695.26	18810.89
695.39	18750.03
695.53	18927.91
695.66	19030.90
695.80	18810.89
695.93	18712.58
696.07	18466.83
696.20	18618.96
696.33	18609.60
696.47	18221.07
696.60	18169.58
696.73	18068.94
696.87	17916.80
697.00	18104.04
697.14	17743.60
697.27	17860.63
697.40	17759.98
697.54	17476.78
697.67	17710.83
697.80	17579.76
697.94	17301.24
698.07	17193.58
698.21	17436.99
698.34	17228.68
698.47	17224.00
698.61	16905.69
698.74	16870.58
698.87	16856.54
699.01	16748.87
699.14	16472.69
699.27	16395.45
699.40	16695.04
699.54	16428.22
699.67	16388.43
699.80	16535.88
699.94	16116.93
700.07	15981.18
700.20	16023.31
700.34	16163.74
700.47	16060.76
700.60	16222.25
700.73	15882.88
700.87	16009.26
701.00	15763.51
701.13	15559.88
701.26	15609.03
701.40	15550.52
701.53	15080.07
701.66	15499.03
701.79	15157.31
701.93	15094.11
702.06	15061.35
702.19	14850.70
702.32	14977.09
702.46	14871.76
702.59	14958.36
702.72	14925.60
702.85	14712.61
702.99	14808.57
703.12	14757.08
703.25	14450.47
703.38	14689.20
703.51	14462.17
703.65	14567.49
703.78	14293.65
703.91	14183.65
704.04	14260.88
704.17	14202.37
704.31	14057.26
704.44	14265.57
704.57	13774.05
704.70	13710.86
704.83	13923.85
704.96	13535.32
705.10	13870.01
705.23	13584.47
>>>>>End Processed Spectral Data<<<<<
