SpectraSuite Data File
++++++++++++++++++++++++++++++++++++
Date: Fri Oct 25 10:47:57 EDT 2013
User: price-jones
Dark Spectrum Present: No
Reference Spectrum Present: No
Number of Sampled Component Spectra: 1
Spectrometers: USB2+H05261
Integration Time (usec): 100000 (USB2+H05261)
Spectra Averaged: 1 (USB2+H05261)
Boxcar Smoothing: 0 (USB2+H05261)
Correct for Electrical Dark: No (USB2+H05261)
Strobe/Lamp Enabled: No (USB2+H05261)
Correct for Detector Non-linearity: No (USB2+H05261)
Correct for Stray Light: No (USB2+H05261)
Number of Pixels in Processed Spectrum: 2048
>>>>>Begin Processed Spectral Data<<<<<
365.73	142.77
365.92	142.77
366.12	142.77
366.32	25.75
366.52	145.11
366.72	98.30
366.91	35.11
367.11	79.58
367.31	32.77
367.51	39.79
367.70	11.70
367.90	0.00
368.10	11.70
368.30	79.58
368.49	46.81
368.69	28.09
368.89	30.43
369.09	60.85
369.28	100.64
369.48	23.41
369.68	100.64
369.87	65.54
370.07	138.09
370.27	191.92
370.47	222.35
370.66	397.89
370.86	465.77
371.06	379.17
371.25	496.19
371.45	477.47
371.65	533.64
371.84	425.98
372.04	475.13
372.24	472.79
372.44	454.06
372.63	456.40
372.83	535.98
373.03	461.09
373.22	454.06
373.42	433.00
373.62	456.40
373.81	482.15
374.01	575.77
374.21	503.22
374.40	550.03
374.60	547.69
374.79	550.03
374.99	552.37
375.19	575.77
375.38	533.64
375.58	543.00
375.78	592.16
375.97	655.35
376.17	580.45
376.37	498.53
376.56	498.53
376.76	617.90
376.95	587.47
377.15	582.79
377.35	610.88
377.54	578.11
377.74	667.05
377.93	589.82
378.13	585.13
378.33	648.33
378.52	685.78
378.72	585.13
378.91	667.05
379.11	678.76
379.31	624.92
379.50	638.97
379.70	657.69
379.89	641.31
380.09	653.01
380.28	629.60
380.48	629.60
380.68	622.58
380.87	589.82
381.07	613.22
381.26	699.82
381.46	631.94
381.65	683.44
381.85	664.71
382.04	662.37
382.24	725.57
382.43	692.80
382.63	681.10
382.83	784.08
383.02	765.36
383.22	814.51
383.41	643.65
383.61	660.03
383.80	730.25
384.00	725.57
384.19	753.65
384.39	791.10
384.58	664.71
384.78	699.82
384.97	744.29
385.17	758.33
385.36	760.67
385.56	805.14
385.75	732.59
385.95	816.85
386.14	816.85
386.34	828.55
386.53	814.51
386.72	725.57
386.92	791.10
387.11	858.98
387.31	926.85
387.50	737.27
387.70	812.17
387.89	889.40
388.09	755.99
388.28	807.48
388.48	861.32
388.67	851.96
388.86	901.11
389.06	882.38
389.25	882.38
389.45	931.53
389.64	884.72
389.84	922.17
390.03	971.32
390.22	945.58
390.42	936.21
390.61	922.17
390.81	922.17
391.00	912.81
391.19	922.17
391.39	929.19
391.58	957.28
391.78	933.87
391.97	983.02
392.16	999.41
392.36	1050.90
392.55	968.98
392.75	997.07
392.94	901.11
393.13	961.96
393.33	947.92
393.52	1015.79
393.71	1062.60
393.91	1041.54
394.10	1118.78
394.29	1074.31
394.49	1093.03
394.68	1107.07
394.88	1062.60
395.07	1102.39
395.26	1053.24
395.46	1071.97
395.65	1165.59
395.84	1137.50
396.04	1121.12
396.23	1144.52
396.42	1128.14
396.62	1193.67
396.81	1067.28
397.00	1114.10
397.19	1191.33
397.39	1165.59
397.58	1172.61
397.77	1214.74
397.97	1294.32
398.16	1350.49
398.35	1357.51
398.55	1238.14
398.74	1331.76
398.93	1331.76
399.12	1282.61
399.32	1411.34
399.51	1364.53
399.70	1394.96
399.90	1383.26
400.09	1427.73
400.28	1469.86
400.47	1465.18
400.67	1511.99
400.86	1462.83
401.05	1432.41
401.24	1547.09
401.44	1481.56
401.63	1462.83
401.82	1516.67
402.01	1446.45
402.21	1455.81
402.40	1451.13
402.59	1504.96
402.78	1565.82
402.97	1519.01
403.17	1549.43
403.36	1579.86
403.55	1579.86
403.74	1603.27
403.93	1650.08
404.13	1614.97
404.32	1640.72
404.51	1619.65
404.70	1706.25
404.89	1659.44
405.09	1767.10
405.28	1633.69
405.47	1776.47
405.66	1846.68
405.85	1762.42
406.05	1699.23
406.24	1757.74
406.43	1886.47
406.62	1802.21
406.81	1867.75
407.00	1919.24
407.20	1790.51
407.39	1849.02
407.58	1886.47
407.77	1865.41
407.96	1881.79
408.15	2031.58
408.34	1940.30
408.54	1984.77
408.73	1940.30
408.92	1935.62
409.11	2062.01
409.30	2071.37
409.49	2052.65
409.68	2047.97
409.87	2090.10
410.07	2069.03
410.26	2045.63
410.45	2153.29
410.64	2066.69
410.83	2129.89
411.02	2162.66
411.21	2338.20
411.40	2179.04
411.59	2366.28
411.78	2347.56
411.98	2284.36
412.17	2380.32
412.36	2289.04
412.55	2349.90
412.74	2532.46
412.93	2457.56
413.12	2249.25
413.31	2530.12
413.50	2509.05
413.69	2527.78
413.88	2506.71
414.07	2532.46
414.26	2579.27
414.45	2525.44
414.64	2590.97
414.83	2651.83
415.02	2712.68
415.22	2675.23
415.41	2810.98
415.60	2761.83
415.79	2836.73
415.98	2855.45
416.17	2850.77
416.36	2932.69
416.55	2925.67
416.74	2841.41
416.93	2853.11
417.12	2913.97
417.31	2956.10
417.50	2953.76
417.69	3052.06
417.88	3042.70
418.07	3019.29
418.26	2972.48
418.45	3098.87
418.64	3239.30
418.83	3225.26
419.02	3148.02
419.21	3276.75
419.39	3122.27
419.58	3183.13
419.77	3133.98
419.96	3288.45
420.15	3286.11
420.34	3258.03
420.53	3403.14
420.72	3316.54
420.91	3428.88
421.10	3407.82
421.29	3473.36
421.48	3239.30
421.67	3459.31
421.86	3375.05
422.05	3515.48
422.24	3351.65
422.43	3461.65
422.61	3461.65
422.80	3506.12
422.99	3527.19
423.18	3468.67
423.37	3609.11
423.56	3660.60
423.75	3597.40
423.94	3475.70
424.13	3300.16
424.32	3386.76
424.50	3527.19
424.69	3499.10
424.88	3531.87
425.07	3480.38
425.26	3410.16
425.45	3578.68
425.64	3459.31
425.83	3440.59
426.01	3571.66
426.20	3630.17
426.39	3700.39
426.58	3552.93
426.77	3475.70
426.96	3665.28
427.15	3403.14
427.33	3737.84
427.52	3648.90
427.71	3660.60
427.90	3557.61
428.09	3684.00
428.28	3770.60
428.46	3843.16
428.65	3737.84
428.84	3831.46
429.03	3850.18
429.22	3613.79
429.40	3826.78
429.59	3817.41
429.78	3574.00
429.97	3613.79
430.16	3721.45
430.34	3794.01
430.53	3866.56
430.72	4032.74
430.91	3999.98
431.10	3887.63
431.28	4060.83
431.47	4112.32
431.66	4042.11
431.85	4037.42
432.03	4107.64
432.22	4400.21
432.41	4177.86
432.60	4182.54
432.79	4177.86
432.97	4210.62
433.16	4198.92
433.35	4121.68
433.54	4217.65
433.72	4227.01
433.91	4280.84
434.10	4105.30
434.28	4222.33
434.47	4407.23
434.66	4470.42
434.85	4390.84
435.03	4320.63
435.22	4418.93
435.41	4627.24
435.59	4535.96
435.78	4674.05
435.97	4587.45
436.16	4610.86
436.34	4599.15
436.53	4606.17
436.72	4716.18
436.90	4650.64
437.09	4486.81
437.28	4720.86
437.46	4802.78
437.65	4697.46
437.84	4655.33
438.02	4770.01
438.21	4695.11
438.40	4617.88
438.58	4823.84
438.77	4943.21
438.96	4685.75
439.14	5027.47
439.33	4901.08
439.52	5018.11
439.70	4973.64
439.89	5018.11
440.08	5029.81
440.26	5240.46
440.45	5181.95
440.63	5198.33
440.82	5408.98
441.01	5343.44
441.19	5350.46
441.38	5418.34
441.57	5322.38
441.75	5504.94
441.94	5731.97
442.12	5610.26
442.31	5603.24
442.50	5530.69
442.68	5701.54
442.87	5481.53
443.05	5640.69
443.24	5727.29
443.43	5668.78
443.61	5633.67
443.80	5926.24
443.98	5657.07
444.17	5448.77
444.35	5781.12
444.54	5823.25
444.73	5858.36
444.91	5657.07
445.10	5790.49
445.28	5738.99
445.47	5771.76
445.65	5799.85
445.84	5755.38
446.02	5926.24
446.21	6015.18
446.39	5916.87
446.58	5888.79
446.77	5891.13
446.95	5736.65
447.14	5935.60
447.32	6078.37
447.51	6078.37
447.69	5977.73
447.88	6003.47
448.06	6019.86
448.25	5884.11
448.43	6167.31
448.62	6202.42
448.80	6083.05
448.99	6052.63
449.17	6146.25
449.36	6033.90
449.54	6244.55
449.73	6207.10
449.91	6221.14
450.10	6193.06
450.28	6487.96
450.46	6392.00
450.65	6471.58
450.83	6218.80
451.02	6394.34
451.20	6476.26
451.39	6363.92
451.57	6211.78
451.76	6209.44
451.94	6445.84
452.13	6410.73
452.31	6424.77
452.49	6324.13
452.68	6471.58
452.86	6628.40
453.05	6712.66
453.23	6560.52
453.42	6466.90
453.60	6686.91
453.78	6792.23
453.97	6565.20
454.15	6595.63
454.34	6401.37
454.52	6703.29
454.70	6909.26
454.89	6757.13
455.07	6750.10
455.26	6801.60
455.44	6801.60
455.62	6710.32
455.81	6806.28
455.99	6920.96
456.17	7040.33
456.36	6960.75
456.54	7117.57
456.73	7098.84
456.91	7138.63
457.09	7332.90
457.28	7419.50
457.46	7150.34
457.64	7391.41
457.83	7262.68
458.01	7096.50
458.19	7346.94
458.38	7243.96
458.56	7339.92
458.74	7419.50
458.93	7321.20
459.11	7222.89
459.29	7335.24
459.48	7674.62
459.66	7768.24
459.84	7258.00
460.03	7597.38
460.21	7559.93
460.39	7808.03
460.57	7604.40
460.76	7602.06
460.94	7801.01
461.12	7765.90
461.31	7723.77
461.49	7726.11
461.67	7859.52
461.85	8002.29
462.04	7819.73
462.22	8203.58
462.40	7911.01
462.59	7777.60
462.77	7810.37
462.95	7866.54
463.13	7918.03
463.32	8074.85
463.50	8042.08
463.68	7939.10
463.86	7974.21
464.05	7992.93
464.23	7929.74
464.41	8119.32
464.59	7983.57
464.78	8264.43
464.96	8205.92
465.14	8079.53
465.32	8145.06
465.50	8430.61
465.69	8313.58
465.87	8269.11
466.05	8367.42
466.23	8362.73
466.41	8390.82
466.60	8407.20
466.78	8114.64
466.96	8245.71
467.14	8519.55
467.32	8327.63
467.51	8491.46
467.69	8355.71
467.87	8463.38
468.05	8557.00
468.23	8369.76
468.41	8575.72
468.60	8404.86
468.78	8566.36
468.96	8606.15
469.14	8468.06
469.32	8798.07
469.50	8470.40
469.69	8720.84
469.87	9022.77
470.05	8802.75
470.23	8882.33
470.41	8788.71
470.59	9116.39
470.77	8990.00
470.95	9146.81
471.14	9516.62
471.32	8915.10
471.50	9472.15
471.68	9238.09
471.86	9413.63
472.04	9544.70
472.22	9338.74
472.40	9102.34
472.58	9525.98
472.77	9263.84
472.95	9404.27
473.13	10022.17
473.31	9516.62
473.49	9664.07
473.67	9572.79
473.85	9680.46
474.03	9848.97
474.21	9717.90
474.39	9888.76
474.57	10078.35
474.75	10003.45
474.93	10132.18
475.12	10085.37
475.30	10319.42
475.48	10134.52
475.66	10015.15
475.84	10258.57
476.02	10377.94
476.20	10441.13
476.38	10583.90
476.56	10864.77
476.74	10597.95
476.92	10558.16
477.10	10651.78
477.28	10698.59
477.46	11073.07
477.64	11033.29
477.82	10995.84
478.00	11314.15
478.18	11091.80
478.36	11344.58
478.54	11562.25
478.72	11337.56
478.90	11761.19
479.08	11716.72
479.26	11960.14
479.44	12046.74
479.62	11815.02
479.80	12116.95
479.98	12170.79
480.16	12535.91
480.34	12170.79
480.52	12500.80
480.70	12498.46
480.88	12351.01
481.06	12514.84
481.24	12767.62
481.41	13015.72
481.59	12959.55
481.77	12933.80
481.95	13039.12
482.13	13247.43
482.31	13114.02
482.49	13722.56
482.67	13540.00
482.85	13537.66
483.03	13713.20
483.21	13867.67
483.39	13886.40
483.57	13891.08
483.74	14363.87
483.92	14136.84
484.10	13994.06
484.28	14422.38
484.46	14565.15
484.64	14932.62
484.82	14597.92
485.00	14647.07
485.18	14956.02
485.35	15400.72
485.53	15112.84
485.71	14857.72
485.89	15353.91
486.07	15211.14
486.25	15379.66
486.43	15531.80
486.61	15669.89
486.78	15976.50
486.96	15847.77
487.14	16086.50
487.32	16458.65
487.50	16451.63
487.68	16468.01
487.85	16840.15
488.03	16692.70
488.21	17043.78
488.39	16919.73
488.57	16996.97
488.75	17179.53
488.92	17305.92
489.10	17507.21
489.28	17858.29
489.46	17989.36
489.64	17710.83
489.81	18569.81
489.99	18520.66
490.17	18541.72
490.35	18726.63
490.53	18382.57
490.70	18743.01
490.88	18738.33
491.06	19084.73
491.24	19000.47
491.41	18946.64
491.59	19201.76
491.77	19042.60
491.95	19353.89
492.13	19976.47
492.30	19772.85
492.48	19946.05
492.66	19814.98
492.84	19826.68
493.01	20563.95
493.19	20142.65
493.37	20446.92
493.54	20535.86
493.72	20746.51
493.90	20723.10
494.08	21018.01
494.25	21443.99
494.43	21067.16
494.61	21212.28
494.79	21305.90
494.96	21443.99
495.14	21317.60
495.32	21809.11
495.49	21907.41
495.67	21504.84
495.85	21942.52
496.02	22087.64
496.20	22230.41
496.38	22422.33
496.55	22389.56
496.73	23070.66
496.91	22757.03
497.09	22883.42
497.26	23035.55
497.44	22944.27
497.62	23105.77
497.79	23508.34
497.97	23187.69
498.14	23702.61
498.32	23300.03
498.50	23864.10
498.67	23791.55
498.85	23838.36
499.03	24229.23
499.20	24175.39
499.38	24130.92
499.56	24208.16
499.73	24308.80
499.91	24070.07
500.08	24694.99
500.26	24484.34
500.44	24680.95
500.61	24648.18
500.79	24648.18
500.97	24999.26
501.14	25240.34
501.32	25172.46
501.49	24950.11
501.67	25116.29
501.84	25303.53
502.02	25479.07
502.20	25596.10
502.37	25832.49
502.55	25792.70
502.72	25666.31
502.90	25874.62
503.07	25839.51
503.25	25881.64
503.43	26223.36
503.60	26209.32
503.78	26380.18
503.95	26331.03
504.13	26333.37
504.30	26375.50
504.48	26544.02
504.65	26487.84
504.83	26513.59
505.01	27168.94
505.18	26670.40
505.36	27110.43
505.53	26705.51
505.71	27241.50
505.88	27470.87
506.06	27208.73
506.23	27009.78
506.41	27613.64
506.58	27695.56
506.76	27690.88
506.93	27997.49
507.11	27707.26
507.28	27887.48
507.46	27421.72
507.63	27967.06
507.81	28187.07
507.98	28093.45
508.16	27981.10
508.33	28208.14
508.50	28301.76
508.68	28327.50
508.85	28844.76
509.03	28556.88
509.20	28751.14
509.38	28999.24
509.55	28727.74
509.73	28994.56
509.90	29029.66
510.08	29425.22
510.25	29465.00
510.42	29399.47
510.60	29048.39
510.77	29741.19
510.95	29703.74
511.12	29235.63
511.30	30026.73
511.47	30209.29
511.64	29970.56
511.82	29933.11
511.99	29940.13
512.17	30448.03
512.34	30134.40
512.51	30366.11
512.69	30443.35
512.86	30703.15
513.04	30628.25
513.21	30864.64
513.38	30450.37
513.56	30815.49
513.73	30714.85
513.90	30651.66
514.08	30553.35
514.25	30925.50
514.43	30726.55
514.60	31220.41
514.77	31058.91
514.95	31108.06
515.12	31042.53
515.29	31491.91
515.47	31784.48
515.64	31463.82
515.81	31285.94
515.99	31395.95
516.16	31625.32
516.33	31620.64
516.51	31637.02
516.68	31391.26
516.85	31681.49
517.03	31838.31
517.20	31997.46
517.37	32428.12
517.54	32046.62
517.72	32554.51
517.89	31997.46
518.06	32598.98
518.24	32233.86
518.41	32088.74
518.58	32196.41
518.75	32348.54
518.93	32620.05
519.10	32842.40
519.27	32591.96
519.45	33001.55
519.62	33113.90
519.79	32879.85
519.96	32924.32
520.14	32996.87
520.31	33209.86
520.48	33287.10
520.65	33123.26
520.83	33633.50
521.00	33551.58
521.17	33745.84
521.34	33600.73
521.52	33872.23
521.69	34087.56
521.86	34164.80
522.03	34211.61
522.20	34169.48
522.38	34277.15
522.55	34342.68
522.72	34291.19
522.89	34230.33
523.07	34302.89
523.24	33933.09
523.41	34534.60
523.58	34403.53
523.75	34810.79
523.92	34731.21
524.10	34979.31
524.27	34972.28
524.44	34937.18
524.61	35070.59
524.78	35262.51
524.96	35342.09
525.13	35112.72
525.30	35445.07
525.47	35112.72
525.64	35648.70
525.81	35445.07
525.98	35395.92
526.16	35211.02
526.33	35061.22
526.50	35777.43
526.67	35428.69
526.84	35304.64
527.01	35234.42
527.18	35676.79
527.36	35606.57
527.53	35812.54
527.70	36533.42
527.87	36133.19
528.04	35765.73
528.21	35913.18
528.38	36121.49
528.55	36734.71
528.72	36151.91
528.89	36463.21
529.07	36545.12
529.24	36304.05
529.41	36547.47
529.58	36404.69
529.75	36472.57
529.92	36488.95
530.09	36875.14
530.26	37296.44
530.43	36935.99
530.60	36776.84
530.77	36746.41
530.94	37373.67
531.11	37113.87
531.28	37050.68
531.46	37177.07
531.63	37464.96
531.80	37378.36
531.97	37053.02
532.14	37450.91
532.31	37139.62
532.48	37565.60
532.65	37443.89
532.82	37691.99
532.99	37848.80
533.16	37303.46
533.33	37722.41
533.50	37497.72
533.67	37879.23
533.84	37528.15
534.01	38033.71
534.18	38045.41
534.35	37757.52
534.52	38059.45
534.69	37956.47
534.86	37912.00
535.03	38120.31
535.20	38499.47
535.37	38321.59
535.54	38298.19
535.71	38560.33
535.88	38134.35
536.05	38284.14
536.22	38581.39
536.38	38557.99
536.55	38693.74
536.72	38831.83
536.89	38096.90
537.06	38691.40
537.23	38642.24
537.40	38799.06
537.57	38740.55
537.74	38618.84
537.91	38969.92
538.08	38710.12
538.25	38635.22
538.42	38726.50
538.59	39243.76
538.75	38937.15
538.92	39009.71
539.09	39335.04
539.26	39157.16
539.43	39349.09
539.60	39033.11
539.77	39363.13
539.94	39110.35
540.11	39234.40
540.28	39316.32
540.44	39166.52
540.61	39112.69
540.78	39304.62
540.95	39557.39
541.12	39868.69
541.29	39524.63
541.46	39875.71
541.62	39744.64
541.79	39681.44
541.96	39622.93
542.13	39938.90
542.30	39793.79
542.47	40084.01
542.63	39718.89
542.80	40184.66
542.97	40285.30
543.14	40549.78
543.31	40112.10
543.48	40737.02
543.64	41034.27
543.81	40409.35
543.98	40243.17
544.15	40617.66
544.32	40737.02
544.48	41282.37
544.65	40898.52
544.82	40650.42
544.99	40825.96
545.16	40893.84
545.32	40800.22
545.49	40699.58
545.66	40996.82
545.83	41029.59
546.00	41062.36
546.16	41148.96
546.33	40931.29
546.50	40622.34
546.67	40942.99
546.83	40694.89
547.00	40795.54
547.17	41188.75
547.34	41048.32
547.50	41289.39
547.67	41801.97
547.84	41574.94
548.00	41698.98
548.17	41652.17
548.34	41696.64
548.51	41703.67
548.67	41750.48
548.84	42237.31
549.01	41605.36
549.18	41872.18
549.34	41560.89
549.51	41551.53
549.68	41610.04
549.84	42099.22
550.01	41769.20
550.18	41460.25
550.34	41687.28
550.51	41977.51
550.68	41846.44
550.84	41928.36
551.01	41972.83
551.18	41750.48
551.34	42080.49
551.51	42225.60
551.68	42326.25
551.84	42387.10
552.01	42342.63
552.18	42029.00
552.34	42117.94
552.51	42501.79
552.68	42220.92
552.84	42658.60
553.01	42770.95
553.18	42288.80
553.34	42335.61
553.51	41911.97
553.67	42321.57
553.84	42611.79
554.01	42529.87
554.17	43367.79
554.34	42836.48
554.51	42705.41
554.67	42904.36
554.84	42780.31
555.00	42625.84
555.17	42670.31
555.33	42775.63
555.50	42997.98
555.67	43147.78
555.83	42895.00
556.00	42667.97
556.16	43187.56
556.33	43243.74
556.50	42876.27
556.66	42962.87
556.83	42892.66
556.99	43328.00
557.16	43498.86
557.32	43332.68
557.49	43290.55
557.65	43061.18
557.82	42857.55
557.98	42857.55
558.15	43328.00
558.32	43477.79
558.48	42979.26
558.65	43105.65
558.81	43374.81
558.98	42920.74
559.14	43489.49
559.31	43353.74
559.47	43449.70
559.64	43915.47
559.80	43859.30
559.97	43407.58
560.13	43555.03
560.30	43442.68
560.46	43562.05
560.63	43611.20
560.79	43700.14
560.96	43629.93
561.12	43821.85
561.29	43749.29
561.45	43536.30
561.61	43880.36
561.78	43515.24
561.94	43618.22
562.11	43875.68
562.27	43835.89
562.44	43335.02
562.60	43365.45
562.77	43882.70
562.93	43711.84
563.10	44025.48
563.26	43466.09
563.42	43735.25
563.59	43639.29
563.75	43819.51
563.92	44215.06
564.08	43681.42
564.24	44114.42
564.41	44315.70
564.57	43943.56
564.74	44044.20
564.90	43910.79
565.07	44076.97
565.23	43959.94
565.39	43955.26
565.56	44236.12
565.72	44149.53
565.88	43803.13
566.05	44016.11
566.21	43889.73
566.38	43913.13
566.54	43828.87
566.70	44058.24
566.87	44472.52
567.03	43981.01
567.19	44676.15
567.36	44128.46
567.52	43761.00
567.68	44065.27
567.85	43777.38
568.01	43704.82
568.17	44065.27
568.34	44229.10
568.50	44067.61
568.66	44128.46
568.83	44119.10
568.99	43634.61
569.15	43833.55
569.32	44046.54
569.48	44156.55
569.64	44289.96
569.81	44112.08
569.97	44254.85
570.13	44463.16
570.30	44147.18
570.46	44259.53
570.62	44315.70
570.78	44076.97
570.95	44058.24
571.11	44243.15
571.27	44105.06
571.43	44224.42
571.60	44528.69
571.76	43908.45
571.92	44821.26
572.09	44252.51
572.25	43981.01
572.41	44156.55
572.57	44399.96
572.74	44844.66
572.90	44135.48
573.06	44306.34
573.22	44657.42
573.38	44215.06
573.55	44238.47
573.71	44659.76
573.87	44041.86
574.03	44381.24
574.20	44406.98
574.36	43964.62
574.52	44500.61
574.68	44266.55
574.84	44769.77
575.01	44584.86
575.17	44442.09
575.33	44531.03
575.49	44399.96
575.65	44727.64
575.82	44959.35
575.98	44608.27
576.14	44776.79
576.30	44177.61
576.46	44505.29
576.62	44233.78
576.79	44308.68
576.95	44203.36
577.11	44119.10
577.27	43978.67
577.43	44772.11
577.59	44563.80
577.75	43995.05
577.92	44425.71
578.08	44526.35
578.24	44287.62
578.40	44540.39
578.56	44421.03
578.72	44406.98
578.88	44591.89
579.04	44669.12
579.21	44444.43
579.37	44692.53
579.53	44250.17
579.69	44247.83
579.85	44737.00
580.01	44711.25
580.17	44713.59
580.33	44741.68
580.49	44800.19
580.65	44935.95
580.82	44652.74
580.98	44594.23
581.14	44357.83
581.30	44830.62
581.46	44545.08
581.62	44898.50
581.78	44744.02
581.94	45165.32
582.10	44610.61
582.26	44942.97
582.42	44486.56
582.58	44903.18
582.74	44886.79
582.90	44959.35
583.06	44814.24
583.22	44706.57
583.38	45092.76
583.54	44809.56
583.70	44954.67
583.86	44706.57
584.02	44273.57
584.18	44184.63
584.34	44655.08
584.50	45057.65
584.66	44673.81
584.82	44280.60
584.98	44458.48
585.14	44746.36
585.30	44882.11
585.46	44907.86
585.62	44477.20
585.78	44280.60
585.94	43856.96
586.10	44364.85
586.26	44683.17
586.42	44605.93
586.58	45022.54
586.74	44463.16
586.90	44203.36
587.06	44626.99
587.22	45078.72
587.38	44486.56
587.54	45045.95
587.70	44877.43
587.86	45074.04
588.02	44615.29
588.18	45008.50
588.34	44502.95
588.49	44285.28
588.65	44477.20
588.81	44498.26
588.97	44264.21
589.13	44502.95
589.29	44552.10
589.45	44844.66
589.61	45036.59
589.77	45027.23
589.93	44430.39
590.08	45228.51
590.24	45317.45
590.40	44662.10
590.56	45588.95
590.72	44631.68
590.88	44870.41
591.04	44879.77
591.20	44938.29
591.35	45340.86
591.51	45703.64
591.67	45038.93
591.83	44926.58
591.99	44477.20
592.15	44598.91
592.31	44882.11
592.46	44992.12
592.62	44947.65
592.78	45069.36
592.94	45020.20
593.10	44631.68
593.26	45385.33
593.41	45207.45
593.57	45074.04
593.73	44800.19
593.89	45144.25
594.05	44334.43
594.20	44837.64
594.36	45024.89
594.52	44891.48
594.68	45055.31
594.84	45144.25
594.99	45633.42
595.15	45071.70
595.31	45244.90
595.47	45371.28
595.62	45181.70
595.78	45062.33
595.94	45492.99
596.10	45085.74
596.25	45244.90
596.41	44982.76
596.57	45525.76
596.73	45680.24
596.88	45179.36
597.04	45027.23
597.20	45074.04
597.36	45172.34
597.51	45656.83
597.67	45289.37
597.83	45148.93
597.99	45240.21
598.14	45507.04
598.30	45460.23
598.46	45230.85
598.61	45591.30
598.77	44863.39
598.93	45743.43
599.09	45090.42
599.24	45272.98
599.40	45191.06
599.56	45434.48
599.71	45373.63
599.87	45443.84
600.03	45104.46
600.18	45088.08
600.34	45055.31
600.50	45177.02
600.65	44978.07
600.81	45687.26
600.97	45813.65
601.12	45595.98
601.28	45345.54
601.44	45036.59
601.59	45329.16
601.75	45139.57
601.91	44697.21
602.06	45006.16
602.22	45055.31
602.37	44708.91
602.53	45170.00
602.69	45099.78
602.84	45305.75
603.00	44945.31
603.16	45549.17
603.31	44786.15
603.47	45158.30
603.62	44971.05
603.78	45474.27
603.94	45436.82
604.09	44893.82
604.25	45460.23
604.40	44807.22
604.56	45141.91
604.71	45113.83
604.87	44825.94
605.03	45151.27
605.18	44877.43
605.34	44734.66
605.49	44987.44
605.65	45041.27
605.80	45212.13
605.96	45235.53
606.12	45502.35
606.27	45268.30
606.43	45013.18
606.58	44989.78
606.74	44809.56
606.89	45092.76
607.05	44959.35
607.20	44570.82
607.36	45067.02
607.51	45523.42
607.67	44769.77
607.82	45106.80
607.98	45174.68
608.13	44945.31
608.29	45158.30
608.44	44781.47
608.60	44392.94
608.75	44678.49
608.91	44673.81
609.06	44732.32
609.22	44973.39
609.37	44208.04
609.53	45034.25
609.68	45146.59
609.84	45123.19
609.99	45081.06
610.15	44425.71
610.30	44842.32
610.46	44463.16
610.61	43920.15
610.76	44797.85
610.92	45244.90
611.07	44622.31
611.23	44364.85
611.38	44704.23
611.54	44423.37
611.69	44856.37
611.84	44547.42
612.00	44790.83
612.15	44804.88
612.31	44451.45
612.46	44655.08
612.62	44779.13
612.77	44332.09
612.92	44542.74
613.08	44521.67
613.23	44500.61
613.39	43910.79
613.54	44348.47
613.69	44247.83
613.85	44055.90
614.00	44402.30
614.15	44582.52
614.31	44849.35
614.46	44306.34
614.62	44189.31
614.77	43969.30
614.92	44006.75
615.08	43863.98
615.23	43892.07
615.38	43817.17
615.54	43690.78
615.69	43826.53
615.84	43821.85
616.00	44034.84
616.15	44102.71
616.30	44273.57
616.46	43812.49
616.61	43981.01
616.76	43786.74
616.92	43367.79
617.07	43552.69
617.22	43840.57
617.37	43360.76
617.53	43882.70
617.68	44123.78
617.83	43693.12
617.99	44414.01
618.14	43761.00
618.29	43849.94
618.45	43533.96
618.60	43416.94
618.75	43934.20
618.90	43318.64
619.06	43606.52
619.21	43732.91
619.36	44055.90
619.51	43894.41
619.67	43487.15
619.82	43545.67
619.97	43580.78
620.12	43103.31
620.28	43138.41
620.43	42990.96
620.58	43531.62
620.73	43206.29
620.89	42932.45
621.04	43086.92
621.19	43454.39
621.34	43339.70
621.49	42850.53
621.65	42906.70
621.80	42859.89
621.95	43086.92
622.10	43239.06
622.25	42852.87
622.41	43096.28
622.56	42997.98
622.71	43295.23
622.86	42719.46
623.01	43100.97
623.16	42792.01
623.32	43274.16
623.47	43107.99
623.62	43009.68
623.77	43105.65
623.92	42581.37
624.07	42927.77
624.23	42883.30
624.38	42148.37
624.53	42796.70
624.68	42939.47
624.83	42906.70
624.98	42892.66
625.13	42354.33
625.29	42349.65
625.44	42419.87
625.59	42520.51
625.74	42328.59
625.89	41764.52
626.04	42199.86
626.19	42335.61
626.34	42328.59
626.49	41998.57
626.65	42576.69
626.80	42396.46
626.95	42202.20
627.10	42314.55
627.25	42174.11
627.40	41928.36
627.55	41837.08
627.70	41918.99
627.85	41460.25
628.00	41614.72
628.15	42237.31
628.30	42029.00
628.45	42277.10
628.60	42061.77
628.76	41961.12
628.91	41914.31
629.06	42029.00
629.21	41926.02
629.36	41764.52
629.51	41631.11
629.66	41488.34
629.81	41567.91
629.96	41642.81
630.11	41581.96
630.26	41839.42
630.41	41691.96
630.56	41621.75
630.71	41614.72
630.86	41588.98
631.01	41193.43
631.16	41572.60
631.31	41504.72
631.46	40900.86
631.61	41329.18
631.76	41675.58
631.91	41778.56
632.06	41579.62
632.21	41471.95
632.36	41670.90
632.51	41308.11
632.66	41497.70
632.81	41043.63
632.96	41137.26
633.10	40830.65
633.25	40814.26
633.40	41163.00
633.55	41401.74
633.70	40856.39
633.85	41170.02
634.00	40919.59
634.15	41240.24
634.30	41036.61
634.45	41034.27
634.60	40863.41
634.75	41099.81
634.90	40718.30
635.05	40594.25
635.19	40847.03
635.34	41134.92
635.49	40889.16
635.64	40669.15
635.79	41064.70
635.94	40617.66
636.09	40849.37
636.24	40598.93
636.39	39882.73
636.53	40734.68
636.68	40631.70
636.83	40343.81
636.98	40769.79
637.13	39992.73
637.28	40772.13
637.43	40645.74
637.57	40725.32
637.72	40505.31
637.87	40605.95
638.02	40378.92
638.17	40179.98
638.32	40058.27
638.46	40285.30
638.61	39894.43
638.76	39866.34
638.91	40332.11
639.06	39810.17
639.20	40100.40
639.35	40517.01
639.50	40046.57
639.65	40378.92
639.80	40236.15
639.94	40388.28
640.09	39889.75
640.24	39679.10
640.39	39725.91
640.54	39927.20
640.68	39971.67
640.83	39496.54
640.98	39763.36
641.13	39442.71
641.27	39817.19
641.42	39463.77
641.57	39543.35
641.72	39997.41
641.86	39459.09
642.01	39669.74
642.16	39498.88
642.31	39161.84
642.45	39482.50
642.60	39440.37
642.75	39283.55
642.90	39416.96
643.04	39519.95
643.19	39459.09
643.34	39253.12
643.48	39423.98
643.63	39681.44
643.78	39665.06
643.93	39168.87
644.07	39512.92
644.22	39281.21
644.37	38789.70
644.51	38890.34
644.66	39075.24
644.81	39241.42
644.95	38955.88
645.10	39302.28
645.25	39075.24
645.39	38993.32
645.54	39096.31
645.69	38902.04
645.83	39100.99
645.98	38962.90
646.13	39084.61
646.27	38562.67
646.42	38639.90
646.57	38719.48
646.71	38909.07
646.86	38965.24
647.00	38848.21
647.15	38667.99
647.30	38967.58
647.44	39143.12
647.59	38768.63
647.74	38646.93
647.88	38586.07
648.03	38349.68
648.17	38829.49
648.32	38342.66
648.47	38548.62
648.61	38452.66
648.76	39215.68
648.90	38242.01
649.05	38574.37
649.20	38286.48
649.34	38787.36
649.49	38188.18
649.63	38508.83
649.78	38642.24
649.92	38513.52
650.07	39058.86
650.21	38141.37
650.36	38361.38
650.51	38141.37
650.65	38572.03
650.80	38445.64
650.94	38117.96
651.09	38220.95
651.23	38246.69
651.38	37827.74
651.52	37832.42
651.67	37916.68
651.81	38047.75
651.96	38263.08
652.10	37919.02
652.25	37745.82
652.39	37832.42
652.54	38087.54
652.68	38557.99
652.83	38223.29
652.97	38281.80
653.12	38115.62
653.26	37652.20
653.41	38071.15
653.55	37961.15
653.70	37502.40
653.84	38019.66
653.99	37462.61
654.13	37811.35
654.27	37724.75
654.42	37691.99
654.56	37303.46
654.71	38263.08
654.85	37146.64
655.00	37635.81
655.14	37411.12
655.29	37034.30
655.43	37188.77
655.57	36996.85
655.72	36835.35
655.86	37212.18
656.01	37041.32
656.15	37118.56
656.30	37092.81
656.44	37043.66
656.58	37113.87
656.73	36802.58
656.87	36802.58
657.01	36503.00
657.16	36994.51
657.30	37198.13
657.45	36528.74
657.59	36875.14
657.73	36863.44
657.88	36767.48
658.02	36577.89
658.16	37062.38
658.31	36849.39
658.45	36959.40
658.60	36762.79
658.74	36435.12
658.88	36964.08
659.03	36582.57
659.17	36376.61
659.31	36430.44
659.46	36203.41
659.60	36503.00
659.74	36540.44
659.89	35988.08
660.03	36020.84
660.17	36285.33
660.32	36297.03
660.46	36177.66
660.60	36486.61
660.74	36116.81
660.89	36273.62
661.03	35812.54
661.17	36233.83
661.32	35945.95
661.46	36121.49
661.60	35674.45
661.74	35924.88
661.89	35557.42
662.03	35730.62
662.17	35557.42
662.31	35440.39
662.46	35608.91
662.60	35573.80
662.74	35541.03
662.88	35522.31
663.03	35377.20
663.17	35150.17
663.31	35426.35
663.45	35234.42
663.60	35358.47
663.74	35014.41
663.88	34991.01
664.02	34684.40
664.17	35269.53
664.31	34738.23
664.45	34972.28
664.59	34932.50
664.73	34972.28
664.88	34487.79
665.02	34686.74
665.16	34389.49
665.30	34513.54
665.44	34841.21
665.59	34452.69
665.73	34321.62
665.87	34368.43
666.01	34204.59
666.15	34440.98
666.29	34153.10
666.44	34452.69
666.58	34155.44
666.72	34270.12
666.86	34267.78
667.00	34366.09
667.14	33787.97
667.28	34220.97
667.43	33460.30
667.57	33759.89
667.71	33741.16
667.85	33979.90
667.99	33486.04
668.13	33666.27
668.27	33481.36
668.41	33710.74
668.56	33479.02
668.70	33046.02
668.84	33516.47
668.98	33282.42
669.12	33343.27
669.26	33055.39
669.40	32762.82
669.54	33198.16
669.68	33247.31
669.82	33046.02
669.96	32496.00
670.10	32510.04
670.25	33001.55
670.39	32870.48
670.53	32730.05
670.67	32474.93
670.81	33057.73
670.95	32856.44
671.09	32582.60
671.23	32493.66
671.37	32587.28
671.51	32407.06
671.65	31934.27
671.79	32212.79
671.93	32362.59
672.07	32360.25
672.21	32151.94
672.35	31908.52
672.49	31349.14
672.63	31779.79
672.77	32100.45
672.91	31901.50
673.05	31667.45
673.19	31641.70
673.33	31489.57
673.47	31608.93
673.61	31414.67
673.75	31311.69
673.89	31035.50
674.03	30930.18
674.17	30890.39
674.31	31442.76
674.45	30859.96
674.59	31087.00
674.73	30728.89
674.87	30707.83
675.01	31002.74
675.15	30831.88
675.29	30803.79
675.43	30586.12
675.56	30565.06
675.70	30410.58
675.84	30483.14
675.98	29532.88
676.12	30354.41
676.26	30298.23
676.40	29376.06
676.54	30029.07
676.68	29937.79
676.82	29252.02
676.96	29350.32
677.10	29160.73
677.23	29450.96
677.37	29074.13
677.51	29186.48
677.65	29497.77
677.79	28961.79
677.93	28922.00
678.07	29174.78
678.21	28617.73
678.34	28741.78
678.48	28823.70
678.62	28683.27
678.76	28467.94
678.90	28313.46
679.04	28091.11
679.18	28542.83
679.31	28615.39
679.45	27828.97
679.59	27716.62
679.73	28037.28
679.87	27716.62
680.00	27683.86
680.14	27482.57
680.28	27756.41
680.42	27431.08
680.56	27754.07
680.70	27145.53
680.83	27391.29
680.97	26923.18
681.11	26869.35
681.25	27161.92
681.39	26511.25
681.52	27197.02
681.66	26843.60
681.80	26759.34
681.94	26874.03
682.07	26647.00
682.21	26522.95
682.35	26396.56
682.49	26288.90
682.62	26431.67
682.76	25919.09
682.90	25853.56
683.04	26003.35
683.17	26242.09
683.31	25762.28
683.45	25951.86
683.59	25530.56
683.72	25289.49
683.86	25366.73
684.00	25432.26
684.13	25352.68
684.27	25572.69
684.41	25144.38
684.55	24943.09
684.68	24816.70
684.82	24786.27
684.96	24624.78
685.09	24807.34
685.23	24376.68
685.37	24411.79
685.50	24568.60
685.64	24430.51
685.78	24379.02
685.91	24416.47
686.05	24367.32
686.19	23948.36
686.32	24016.24
686.46	23807.93
686.60	23522.38
686.73	23442.81
686.87	23393.65
687.01	23358.55
687.14	23386.63
687.28	23183.01
687.42	22888.10
687.55	22941.93
687.69	22874.06
687.82	22782.77
687.96	22745.33
688.10	22773.41
688.23	22675.11
688.37	22450.42
688.50	22335.73
688.64	22375.52
688.78	22221.05
688.91	22214.02
689.05	22099.34
689.18	22097.00
689.32	21902.73
689.46	22195.30
689.59	21977.63
689.73	22085.30
689.86	21624.21
690.00	21956.57
690.13	21734.21
690.27	21642.93
690.41	21661.66
690.54	21462.71
690.68	21179.51
690.81	20851.83
690.95	21130.36
691.08	20816.72
691.22	21010.99
691.35	21067.16
691.49	20851.83
691.62	20599.05
691.76	20704.38
691.89	20704.38
692.03	20271.38
692.16	20219.89
692.30	20486.71
692.43	20133.29
692.57	20343.94
692.70	20231.59
692.84	19915.62
692.97	19655.82
693.11	19976.47
693.24	19885.19
693.38	19805.61
693.51	19400.70
693.65	19520.07
693.78	19651.14
693.92	19372.61
694.05	19040.26
694.19	19276.65
694.32	19049.62
694.45	19164.31
694.59	19133.88
694.72	19119.84
694.86	18834.29
694.99	18867.06
695.13	18625.98
695.26	18532.36
695.39	18361.50
695.53	18656.41
695.66	18649.39
695.80	18405.97
695.93	18412.99
696.07	18314.69
696.20	18382.57
696.33	18068.94
696.47	18122.77
696.60	17855.95
696.73	17748.28
696.87	17715.51
697.00	17645.30
697.14	17495.50
697.27	17659.34
697.40	17727.22
697.54	17472.10
697.67	17167.83
697.80	17385.50
697.94	17167.83
698.07	17312.94
698.21	16980.59
698.34	16844.84
698.47	16863.56
698.61	16573.33
698.74	16570.99
698.87	16561.63
699.01	16339.28
699.14	16407.16
699.27	16414.18
699.40	16350.98
699.54	16123.95
699.67	16088.84
699.80	16217.57
699.94	15859.47
700.07	15974.16
700.20	15758.83
700.34	15910.96
700.47	15648.82
700.60	15674.57
700.73	15983.52
700.87	15644.14
701.00	15468.60
701.13	15651.16
701.26	15496.69
701.40	15501.37
701.53	15468.60
701.66	15400.72
701.79	15384.34
701.93	15112.84
702.06	14834.32
702.19	15229.87
702.32	14710.27
702.46	14569.83
702.59	14864.74
702.72	14740.69
702.85	14782.82
702.99	14658.78
703.12	14925.60
703.25	14700.90
703.38	14590.90
703.51	14279.61
703.65	14511.32
703.78	14356.85
703.91	14434.08
704.04	14094.71
704.17	14090.02
704.31	13909.80
704.44	13652.34
704.57	13724.90
704.70	13659.37
704.83	13689.79
704.96	13694.47
705.10	13862.99
705.23	13830.23
>>>>>End Processed Spectral Data<<<<<
