SpectraSuite Data File
++++++++++++++++++++++++++++++++++++
Date: Fri Oct 25 11:33:50 EDT 2013
User: price-jones
Dark Spectrum Present: No
Reference Spectrum Present: No
Number of Sampled Component Spectra: 1
Spectrometers: USB2+H05261
Integration Time (usec): 100000 (USB2+H05261)
Spectra Averaged: 1 (USB2+H05261)
Boxcar Smoothing: 0 (USB2+H05261)
Correct for Electrical Dark: No (USB2+H05261)
Strobe/Lamp Enabled: No (USB2+H05261)
Correct for Detector Non-linearity: No (USB2+H05261)
Correct for Stray Light: No (USB2+H05261)
Number of Pixels in Processed Spectrum: 2048
>>>>>Begin Processed Spectral Data<<<<<
365.73	306.61
365.92	306.61
366.12	306.61
366.32	238.73
366.52	154.48
366.72	276.18
366.91	273.84
367.11	138.09
367.31	70.22
367.51	135.75
367.70	161.50
367.90	236.39
368.10	161.50
368.30	119.37
368.49	205.97
368.69	208.31
368.89	184.90
369.09	168.52
369.28	227.03
369.48	222.35
369.68	173.20
369.87	248.10
370.07	266.82
370.27	287.89
370.47	386.19
370.66	423.64
370.86	489.17
371.06	482.15
371.25	528.96
371.45	557.05
371.65	528.96
371.84	545.34
372.04	505.56
372.24	568.75
372.44	535.98
372.63	617.90
372.83	585.13
373.03	573.43
373.22	573.43
373.42	622.58
373.62	622.58
373.81	596.84
374.01	716.20
374.21	603.86
374.40	667.05
374.60	653.01
374.79	664.71
374.99	587.47
375.19	678.76
375.38	685.78
375.58	645.99
375.78	730.25
375.97	744.29
376.17	720.88
376.37	669.39
376.56	580.45
376.76	723.23
376.95	543.00
377.15	617.90
377.35	709.18
377.54	753.65
377.74	744.29
377.93	636.63
378.13	624.92
378.33	676.41
378.52	748.97
378.72	821.53
378.91	751.31
379.11	697.48
379.31	660.03
379.50	706.84
379.70	711.52
379.89	758.33
380.09	713.86
380.28	692.80
380.48	746.63
380.68	725.57
380.87	739.61
381.07	814.51
381.26	755.99
381.46	737.27
381.65	882.38
381.85	774.72
382.04	784.08
382.24	866.00
382.43	753.65
382.63	713.86
382.83	741.95
383.02	777.06
383.22	863.66
383.41	849.61
383.61	763.01
383.80	763.01
384.00	828.55
384.19	861.32
384.39	901.11
384.58	807.48
384.78	830.89
384.97	896.43
385.17	751.31
385.36	894.08
385.56	873.02
385.75	755.99
385.95	828.55
386.14	901.11
386.34	819.19
386.53	842.59
386.72	858.98
386.92	819.19
387.11	844.93
387.31	940.90
387.50	926.85
387.70	896.43
387.89	887.06
388.09	922.17
388.28	922.17
388.48	898.77
388.67	910.47
388.86	889.40
389.06	985.37
389.25	887.06
389.45	978.34
389.64	1055.58
389.84	931.53
390.03	912.81
390.22	910.47
390.42	931.53
390.61	866.00
390.81	957.28
391.00	961.96
391.19	990.05
391.39	1013.45
391.58	1074.31
391.78	999.41
391.97	1078.99
392.16	1025.15
392.36	1039.20
392.55	990.05
392.75	1053.24
392.94	1048.56
393.13	1011.11
393.33	1032.18
393.52	1015.79
393.71	1123.46
393.91	1130.48
394.10	1107.07
394.29	1121.12
394.49	1116.44
394.68	1118.78
394.88	1137.50
395.07	1146.86
395.26	1200.69
395.46	1132.82
395.65	1160.91
395.84	1160.91
396.04	1153.88
396.23	1132.82
396.42	1163.25
396.62	1174.95
396.81	1132.82
397.00	1224.10
397.19	1231.12
397.39	1224.10
397.58	1186.65
397.77	1203.04
397.97	1327.08
398.16	1275.59
398.35	1270.91
398.55	1238.14
398.74	1320.06
398.93	1411.34
399.12	1261.55
399.32	1331.76
399.51	1324.74
399.70	1362.19
399.90	1331.76
400.09	1324.74
400.28	1451.13
400.47	1324.74
400.67	1357.51
400.86	1411.34
401.05	1345.81
401.24	1448.79
401.44	1476.88
401.63	1504.96
401.82	1394.96
402.01	1413.68
402.21	1483.90
402.40	1511.99
402.59	1441.77
402.78	1537.73
402.97	1495.60
403.17	1603.27
403.36	1404.32
403.55	1533.05
403.74	1582.20
403.93	1507.30
404.13	1596.25
404.32	1596.25
404.51	1523.69
404.70	1544.75
404.89	1577.52
405.09	1717.95
405.28	1724.97
405.47	1755.40
405.66	1685.19
405.85	1624.33
406.05	1652.42
406.24	1661.78
406.43	1699.23
406.62	1755.40
406.81	1764.76
407.00	1743.70
407.20	1851.36
407.39	1837.32
407.58	1713.27
407.77	1809.23
407.96	1870.09
408.15	1916.90
408.34	1949.67
408.54	1900.52
408.73	1893.49
408.92	1991.80
409.11	1998.82
409.30	1937.96
409.49	1952.01
409.68	2043.29
409.87	1989.46
410.07	2022.22
410.26	1940.30
410.45	2169.68
410.64	2026.90
410.83	2094.78
411.02	2043.29
411.21	2132.23
411.40	2036.27
411.59	2085.42
411.78	2260.96
411.98	2221.17
412.17	2265.64
412.36	2342.88
412.55	2284.36
412.74	2373.30
412.93	2373.30
413.12	2282.02
413.31	2396.71
413.50	2427.14
413.69	2438.84
413.88	2368.62
414.07	2497.35
414.26	2399.05
414.45	2490.33
414.64	2502.03
414.83	2614.38
415.02	2534.80
415.22	2644.81
415.41	2670.55
415.60	2677.57
415.79	2764.17
415.98	2839.07
416.17	2710.34
416.36	2630.76
416.55	2747.79
416.74	2717.36
416.93	2801.62
417.12	2768.85
417.31	2930.35
417.50	2843.75
417.69	2899.92
417.88	2937.37
418.07	2899.92
418.26	2960.78
418.45	2881.20
418.64	3077.80
418.83	3059.08
419.02	3091.85
419.21	3045.04
419.39	3063.76
419.58	3101.21
419.77	3129.30
419.96	3089.51
420.15	3211.22
420.34	3131.64
420.53	3070.78
420.72	3304.84
420.91	3337.60
421.10	3304.84
421.29	3199.51
421.48	3222.92
421.67	3281.43
421.86	3232.28
422.05	3393.78
422.24	3283.77
422.43	3375.05
422.61	3426.54
422.80	3438.25
422.99	3290.79
423.18	3384.41
423.37	3503.78
423.56	3311.86
423.75	3480.38
423.94	3428.88
424.13	3232.28
424.32	3248.66
424.50	3459.31
424.69	3595.06
424.88	3414.84
425.07	3335.26
425.26	3314.20
425.45	3499.10
425.64	3492.08
425.83	3342.28
426.01	3529.53
426.20	3522.51
426.39	3466.33
426.58	3475.70
426.77	3576.34
426.96	3609.11
427.15	3501.44
427.33	3447.61
427.52	3566.98
427.71	3749.54
427.90	3522.51
428.09	3606.77
428.28	3529.53
428.46	3632.51
428.65	3609.11
428.84	3723.79
429.03	3721.45
429.22	3721.45
429.40	3824.44
429.59	3632.51
429.78	3648.90
429.97	3655.92
430.16	3740.18
430.34	3836.14
430.53	4053.81
430.72	3777.62
430.91	3786.99
431.10	3906.35
431.28	3918.06
431.47	3896.99
431.66	4030.40
431.85	3997.64
432.03	4007.00
432.22	4198.92
432.41	4084.23
432.60	3995.29
432.79	4037.42
432.97	4140.41
433.16	4142.75
433.35	4086.58
433.54	4168.49
433.72	4245.73
433.91	4159.13
434.10	4135.73
434.28	4140.41
434.47	4175.52
434.66	4461.06
434.85	4231.69
435.03	4353.40
435.22	4292.54
435.41	4512.55
435.59	4397.87
435.78	4435.32
435.97	4416.59
436.16	4414.25
436.34	4315.95
436.53	4402.55
436.72	4664.69
436.90	4468.08
437.09	4622.56
437.28	4512.55
437.46	4444.68
437.65	4545.32
437.84	4493.83
438.02	4681.07
438.21	4725.54
438.40	4505.53
438.58	4844.91
438.77	4662.35
438.96	4692.77
439.14	4945.55
439.33	4795.76
439.52	4863.63
439.70	4884.70
439.89	4990.02
440.08	4957.25
440.26	5015.77
440.45	5053.22
440.63	4987.68
440.82	5125.77
441.01	5064.92
441.19	5184.29
441.38	5282.59
441.57	5366.85
441.75	5301.31
441.94	5394.93
442.12	5376.21
442.31	5385.57
442.50	5502.60
442.68	5273.23
442.87	5338.76
443.05	5526.00
443.24	5572.82
443.43	5479.19
443.61	5458.13
443.80	5738.99
443.98	5636.01
444.17	5282.59
444.35	5547.07
444.54	5694.52
444.73	5589.20
444.91	5516.64
445.10	5659.42
445.28	5558.77
445.47	5626.65
445.65	5710.91
445.84	5701.54
446.02	5708.57
446.21	5790.49
446.39	5652.39
446.58	5671.12
446.77	5750.70
446.95	5584.52
447.14	5757.72
447.32	5799.85
447.51	5652.39
447.69	5729.63
447.88	5710.91
448.06	5792.83
448.25	5797.51
448.43	5837.30
448.62	5888.79
448.80	5827.93
448.99	5856.02
449.17	5930.92
449.36	5839.64
449.54	5959.00
449.73	6050.28
449.91	6125.18
450.10	6017.52
450.28	6122.84
450.46	6120.50
450.65	6066.67
450.83	6057.31
451.02	6066.67
451.20	6204.76
451.39	6361.58
451.57	6242.21
451.76	5968.37
451.94	6019.86
452.13	6326.47
452.31	6235.19
452.49	6293.70
452.68	6258.59
452.86	6209.44
453.05	6209.44
453.23	6352.21
453.42	6331.15
453.60	6314.77
453.78	6499.67
453.97	6406.05
454.15	6466.90
454.34	6347.53
454.52	6487.96
454.70	6544.14
454.89	6494.99
455.07	6700.95
455.26	6600.31
455.44	6696.27
455.62	6457.54
455.81	6616.69
455.99	6677.55
456.17	6799.26
456.36	6825.00
456.54	6925.65
456.73	6897.56
456.91	7253.32
457.09	7176.08
457.28	6942.03
457.46	6991.18
457.64	7087.14
457.83	7110.55
458.01	7012.24
458.19	7157.36
458.38	7026.29
458.56	7199.49
458.74	7360.98
458.93	7098.84
459.11	7110.55
459.29	7073.10
459.48	7066.08
459.66	7157.36
459.84	7307.15
460.03	7382.05
460.21	7316.51
460.39	7344.60
460.57	7349.28
460.76	7335.24
460.94	7515.46
461.12	7426.52
461.31	7428.86
461.49	7419.50
461.67	7576.31
461.85	7627.81
462.04	7688.66
462.22	7920.37
462.40	7791.64
462.59	7733.13
462.77	7686.32
462.95	7545.89
463.13	7751.85
463.32	7681.64
463.50	7918.03
463.68	7805.69
463.86	7896.97
464.05	7953.14
464.23	7815.05
464.41	7962.50
464.59	7831.43
464.78	8168.47
464.96	8159.11
465.14	8072.51
465.32	8121.66
465.50	8105.28
465.69	7960.16
465.87	7906.33
466.05	8262.09
466.23	7861.86
466.41	8086.55
466.60	8395.50
466.78	8109.96
466.96	8121.66
467.14	8121.66
467.32	8004.63
467.51	8428.27
467.69	8238.69
467.87	8280.82
468.05	8521.89
468.23	8273.79
468.41	8243.37
468.60	8320.60
468.78	8561.68
468.96	8414.23
469.14	8620.19
469.32	8554.66
469.50	8428.27
469.69	8395.50
469.87	8667.00
470.05	8610.83
470.23	8688.07
470.41	8858.93
470.59	8791.05
470.77	8854.25
470.95	8922.12
471.14	8903.40
471.32	8777.01
471.50	9069.58
471.68	9022.77
471.86	8954.89
472.04	9118.73
472.22	9352.78
472.40	9156.18
472.58	9123.41
472.77	9327.03
472.95	9434.70
473.13	9348.10
473.31	9364.48
473.49	9301.29
473.67	9483.85
473.85	9547.05
474.03	9570.45
474.21	9432.36
474.39	9975.36
474.57	9703.86
474.75	9912.17
474.93	9984.73
475.12	10019.83
475.30	10118.14
475.48	10029.20
475.66	10242.18
475.84	9942.60
476.02	10047.92
476.20	10202.40
476.38	10377.94
476.56	10420.06
476.74	10579.22
476.92	10621.35
477.10	10452.83
477.28	10633.05
477.46	10651.78
477.64	11108.18
477.82	11145.63
478.00	11169.04
478.18	11066.05
478.36	11276.70
478.54	11412.45
478.72	11293.08
478.90	11456.92
479.08	11660.55
479.26	11763.53
479.44	11730.76
479.62	11793.96
479.80	11751.83
479.98	11992.90
480.16	12030.35
480.34	12131.00
480.52	12491.44
480.70	12170.79
480.88	12210.57
481.06	12479.74
481.24	12217.60
481.41	12500.80
481.59	12725.49
481.77	12716.13
481.95	13039.12
482.13	13046.15
482.31	12882.31
482.49	13195.94
482.67	13226.37
482.85	13446.38
483.03	13371.48
483.21	13846.61
483.39	13926.19
483.57	13734.26
483.74	13841.93
483.92	14050.24
484.10	13895.76
484.28	14359.19
484.46	14506.64
484.64	14747.72
484.82	14567.49
485.00	14492.60
485.18	14766.44
485.35	14909.21
485.53	14661.12
485.71	15234.55
485.89	15405.41
486.07	15211.14
486.25	15590.31
486.43	15557.54
486.61	15632.44
486.78	15676.91
486.96	15758.83
487.14	16119.27
487.32	16042.03
487.50	16123.95
487.68	16470.35
487.85	16575.67
488.03	16655.25
488.21	16805.05
488.39	17003.99
488.57	16826.11
488.75	17298.90
488.92	17273.15
489.10	17537.63
489.28	17600.83
489.46	17708.49
489.64	17731.90
489.81	17977.65
489.99	17879.35
490.17	18068.94
490.35	18459.81
490.53	18548.75
490.70	18710.24
490.88	18499.59
491.06	18848.33
491.24	18984.09
491.41	19080.05
491.59	18946.64
491.77	19208.78
491.95	18984.09
492.13	19487.30
492.30	19496.66
492.48	19468.58
492.66	19562.20
492.84	19957.75
493.01	19967.11
493.19	19990.52
493.37	20460.96
493.54	20610.76
493.72	20547.56
493.90	20671.61
494.08	20755.87
494.25	20699.70
494.43	20854.17
494.61	21064.82
494.79	21226.32
494.96	21394.84
495.14	21364.41
495.32	21755.28
495.49	21806.77
495.67	21823.16
495.85	22064.23
496.02	21963.59
496.20	22216.36
496.38	22085.30
496.55	22424.67
496.73	23234.50
496.91	22445.74
497.09	22799.16
497.26	23009.81
497.44	22895.12
497.62	23129.17
497.79	23552.81
497.97	23084.70
498.14	23651.11
498.32	23812.61
498.50	23466.21
498.67	23843.04
498.85	23564.51
499.03	24194.12
499.20	24009.22
499.38	24367.32
499.56	24474.98
499.73	24411.79
499.91	24692.65
500.08	24856.49
500.26	24486.68
500.44	24961.81
500.61	24788.61
500.79	24793.29
500.97	25127.99
501.14	25455.67
501.32	25289.49
501.49	25088.20
501.67	25333.96
501.84	25586.74
502.02	25450.99
502.20	25619.50
502.37	25649.93
502.55	25612.48
502.72	25848.88
502.90	26167.19
503.07	26167.19
503.25	26424.65
503.43	25844.20
503.60	26188.25
503.78	26441.03
503.95	26001.01
504.13	26684.45
504.30	26548.70
504.48	26728.92
504.65	26464.44
504.83	26890.41
505.01	27246.18
505.18	26965.31
505.36	27030.85
505.53	27234.47
505.71	27365.54
505.88	27414.69
506.06	27131.49
506.23	27379.59
506.41	27637.05
506.58	27473.21
506.76	27618.32
506.93	28175.37
507.11	28025.57
507.28	28191.75
507.46	28254.95
507.63	28425.81
507.81	28154.30
507.98	27906.21
508.16	28280.69
508.33	28891.57
508.50	28250.27
508.68	28826.04
508.85	28659.86
509.03	28542.83
509.20	28716.03
509.38	29186.48
509.55	29296.49
509.73	28868.17
509.90	29542.24
510.08	29291.80
510.25	29677.99
510.42	29481.39
510.60	29472.03
510.77	29656.93
510.95	30155.46
511.12	29586.71
511.30	29687.36
511.47	29975.24
511.64	29710.76
511.82	30246.74
511.99	30768.68
512.17	30459.73
512.34	30106.31
512.51	30785.07
512.69	30747.62
512.86	30672.72
513.04	31044.87
513.21	30899.75
513.38	31033.16
513.56	31431.05
513.73	31082.31
513.90	31164.23
514.08	30700.81
514.25	31447.44
514.43	31452.12
514.60	31449.78
514.77	31704.90
514.95	31564.46
515.12	31456.80
515.29	31969.38
515.47	31803.20
515.64	32208.11
515.81	31646.38
515.99	32114.49
516.16	32112.15
516.33	32589.62
516.51	32390.67
516.68	32011.51
516.85	32437.48
517.03	32608.34
517.20	32708.99
517.37	32374.29
517.54	32687.92
517.72	32704.31
517.89	32821.33
518.06	33181.77
518.24	32905.59
518.41	32900.91
518.58	33418.17
518.75	32830.69
518.93	33230.93
519.10	32933.68
519.27	33366.68
519.45	33556.26
519.62	33738.82
519.79	33446.26
519.96	33802.02
520.14	33766.91
520.31	33839.47
520.48	33666.27
520.65	33979.90
520.83	34288.85
521.00	34436.30
521.17	34288.85
521.34	34384.81
521.52	34553.33
521.69	34366.09
521.86	34583.76
522.03	34794.40
522.20	34993.35
522.38	34965.26
522.55	35152.51
522.72	35047.18
522.89	34562.69
523.07	35091.65
523.24	34836.53
523.41	35161.87
523.58	34906.75
523.75	35363.15
523.92	35264.85
524.10	35232.08
524.27	35552.74
524.44	35697.85
524.61	35604.23
524.78	35629.98
524.96	35887.43
525.13	35915.52
525.30	36161.28
525.47	36191.70
525.64	36254.90
525.81	36409.37
525.98	36332.14
526.16	36119.15
526.33	36116.81
526.50	36009.14
526.67	35969.35
526.84	36348.52
527.01	36341.50
527.18	36622.36
527.36	36788.54
527.53	36488.95
527.70	37109.19
527.87	36898.55
528.04	37134.94
528.21	37113.87
528.38	36985.15
528.55	36987.49
528.72	36947.70
528.89	37289.42
529.07	37228.56
529.24	36671.51
529.41	37240.26
529.58	37408.78
529.75	37577.30
529.92	37488.36
530.09	37694.33
530.26	37738.80
530.43	38110.94
530.60	37464.96
530.77	37958.81
530.94	37563.26
531.11	37713.05
531.28	37771.57
531.46	37881.57
531.63	38012.64
531.80	38146.05
531.97	38146.05
532.14	38394.15
532.31	38033.71
532.48	38525.22
532.65	38850.55
532.82	38422.23
532.99	38363.72
533.16	38459.68
533.33	38073.49
533.50	38698.42
533.67	38827.15
533.84	38433.94
534.01	38363.72
534.18	38761.61
534.35	39318.66
534.52	39145.46
534.69	39419.30
534.86	39309.30
535.03	38953.54
535.20	39278.87
535.37	39533.99
535.54	39445.05
535.71	39423.98
535.88	39599.52
536.05	39681.44
536.22	39730.59
536.38	39791.45
536.55	39299.94
536.72	39318.66
536.89	39276.53
537.06	39817.19
537.23	40023.16
537.40	39814.85
537.57	39548.03
537.74	39786.77
537.91	40350.84
538.08	39943.58
538.25	39538.67
538.42	40069.97
538.59	40907.88
538.75	40329.77
538.92	40086.36
539.09	40287.64
539.26	40519.35
539.43	39985.71
539.60	40542.76
539.77	39938.90
539.94	40790.86
540.11	40634.04
540.28	40566.16
540.44	40542.76
540.61	40973.42
540.78	40645.74
540.95	40577.87
541.12	40645.74
541.29	40795.54
541.46	40825.96
541.62	40961.72
541.79	41317.48
541.96	40582.55
542.13	40912.56
542.30	40840.01
542.47	41120.87
542.63	41057.68
542.80	41301.09
542.97	41764.52
543.14	41532.81
543.31	41729.41
543.48	41198.11
543.64	42099.22
543.81	42026.66
543.98	42103.90
544.15	41818.35
544.32	42113.26
544.48	42639.88
544.65	42026.66
544.82	42295.82
544.99	41881.55
545.16	42284.12
545.32	42155.39
545.49	42522.85
545.66	42277.10
545.83	42136.66
546.00	42635.20
546.16	42384.76
546.33	42384.76
546.50	42096.88
546.67	42417.53
546.83	42073.47
547.00	42363.70
547.17	42602.43
547.34	42431.57
547.50	42937.13
547.67	43187.56
547.84	42663.28
548.00	43035.43
548.17	43056.50
548.34	43051.81
548.51	43388.85
548.67	43283.53
548.84	43367.79
549.01	43302.25
549.18	43185.22
549.34	43470.77
549.51	43330.34
549.68	43517.58
549.84	43248.42
550.01	43255.44
550.18	43044.79
550.34	43466.09
550.51	43349.06
550.68	43674.40
550.84	43292.89
551.01	43634.61
551.18	43433.32
551.34	43613.54
551.51	43550.35
551.68	43868.66
551.84	43569.07
552.01	43531.62
552.18	43915.47
552.34	43674.40
552.51	43913.13
552.68	43742.27
552.84	43913.13
553.01	44201.02
553.18	43564.39
553.34	44011.43
553.51	43873.34
553.67	44058.24
553.84	44304.00
554.01	44095.69
554.17	44229.10
554.34	44364.85
554.51	44217.40
554.67	44779.13
554.84	44662.10
555.00	44179.95
555.17	44519.33
555.33	44655.08
555.50	44556.78
555.67	44870.41
555.83	44378.90
556.00	44589.55
556.16	45001.48
556.33	44847.00
556.50	44554.44
556.66	44760.40
556.83	44446.77
556.99	44779.13
557.16	45233.19
557.32	45338.52
557.49	45146.59
557.65	44865.73
557.82	44863.39
557.98	44926.58
558.15	44538.05
558.32	45078.72
558.48	45102.12
558.65	45200.43
558.81	45179.36
558.98	44912.54
559.14	45083.40
559.31	44910.20
559.47	45490.65
559.64	45478.95
559.80	45130.21
559.97	45270.64
560.13	44868.07
560.30	45600.66
560.46	45696.62
560.63	45485.97
560.79	45258.94
560.96	45743.43
561.12	45907.27
561.29	45935.35
561.45	45591.30
561.61	45773.86
561.78	45453.20
561.94	45289.37
562.11	45296.39
562.27	45291.71
562.44	45502.35
562.60	45638.11
562.77	45593.64
562.93	45305.75
563.10	45610.02
563.26	45975.14
563.42	46391.76
563.59	45872.16
563.75	45764.49
563.92	45848.75
564.08	46136.64
564.24	45996.21
564.41	45720.02
564.57	45940.04
564.74	46068.76
564.90	45830.03
565.07	45617.04
565.23	45867.48
565.39	46103.87
565.56	45956.42
565.72	46171.75
565.88	45825.35
566.05	46050.04
566.21	45972.80
566.38	45975.14
566.54	46225.58
566.70	46075.79
566.87	46373.03
567.03	46230.26
567.19	46347.29
567.36	46314.52
567.52	46099.19
567.68	46550.91
567.85	46293.46
568.01	45954.08
568.17	46459.63
568.34	46726.46
568.50	46160.05
568.66	45862.80
568.83	46256.01
568.99	45900.25
569.15	46181.11
569.32	46684.33
569.48	46525.17
569.64	46553.26
569.81	46681.98
569.97	46679.64
570.13	46574.32
570.30	46129.62
570.46	46190.47
570.62	46710.07
570.78	46501.76
570.95	46483.04
571.11	46897.31
571.27	46520.49
571.43	46244.30
571.60	46791.99
571.76	46452.61
571.92	46232.60
572.09	46525.17
572.25	46501.76
572.41	46342.61
572.57	46639.86
572.74	47035.41
572.90	46391.76
573.06	46560.28
573.22	47072.85
573.38	46211.54
573.55	46871.57
573.71	46784.97
573.87	46504.10
574.03	46913.70
574.20	46808.37
574.36	46724.11
574.52	46855.18
574.68	46581.34
574.84	47351.38
575.01	46817.74
575.17	47157.11
575.33	47363.08
575.49	46639.86
575.65	47021.36
575.82	46806.03
575.98	46852.84
576.14	46995.62
576.30	47302.23
576.46	46827.10
576.62	46918.38
576.79	46756.88
576.95	46216.22
577.11	46717.09
577.27	46689.01
577.43	46937.10
577.59	46834.12
577.75	46689.01
577.92	46443.25
578.08	47019.02
578.24	47051.79
578.40	47054.13
578.56	46770.93
578.72	46649.22
578.88	47243.71
579.04	47157.11
579.21	46820.08
579.37	47290.52
579.53	47103.28
579.69	46602.41
579.85	47107.96
580.01	47063.49
580.17	46773.27
580.33	46796.67
580.49	46974.55
580.65	46876.25
580.82	47096.26
580.98	47143.07
581.14	46623.47
581.30	47154.77
581.46	46693.69
581.62	47131.37
581.78	46871.57
581.94	47161.79
582.10	47033.07
582.26	47522.24
582.42	47035.41
582.58	46850.50
582.74	46862.21
582.90	47304.57
583.06	47147.75
583.22	46700.71
583.38	47208.61
583.54	47430.96
583.70	47466.06
583.86	47239.03
584.02	47063.49
584.18	47133.71
584.34	46876.25
584.50	47473.09
584.66	47004.98
584.82	47452.02
584.98	47721.18
585.14	47440.32
585.30	47009.66
585.46	47770.33
585.62	47255.42
585.78	47569.05
585.94	46930.08
586.10	47393.51
586.26	46672.62
586.42	47051.79
586.58	46993.28
586.74	46906.68
586.90	47054.13
587.06	47175.84
587.22	47257.76
587.38	46866.89
587.54	47384.15
587.70	47524.58
587.86	46932.42
588.02	47180.52
588.18	47000.30
588.34	47161.79
588.49	47381.80
588.65	47112.64
588.81	47489.47
588.97	47758.63
589.13	47145.41
589.29	47302.23
589.45	47447.34
589.61	47702.46
589.77	47796.08
589.93	47519.90
590.08	47882.68
590.24	47356.06
590.40	48044.18
590.56	47941.19
590.72	47646.29
590.88	47175.84
591.04	47217.97
591.20	47870.98
591.35	47826.51
591.51	47634.58
591.67	47618.20
591.83	48006.73
591.99	47433.30
592.15	47772.67
592.31	47569.05
592.46	47241.37
592.62	47676.71
592.78	47887.36
592.94	47784.38
593.10	48037.16
593.26	48397.60
593.41	48025.45
593.57	47468.40
593.73	47880.34
593.89	48231.42
594.05	47777.36
594.20	47896.72
594.36	48229.08
594.52	47814.80
594.68	47782.04
594.84	47854.59
594.99	48229.08
595.15	47800.76
595.31	47842.89
595.47	48090.99
595.62	47845.23
595.78	47985.66
595.94	48062.90
596.10	47618.20
596.25	47800.76
596.41	48114.39
596.57	47908.43
596.73	48385.89
596.88	48231.42
597.04	47849.91
597.20	48275.89
597.36	47880.34
597.51	48100.35
597.67	48233.76
597.83	47767.99
597.99	48009.07
598.14	47456.70
598.30	48020.77
598.46	47824.17
598.61	48559.09
598.77	47966.94
598.93	48039.50
599.09	48378.87
599.24	48617.61
599.40	48261.85
599.56	48018.43
599.71	48591.86
599.87	48467.81
600.03	48610.59
600.18	48170.57
600.34	48168.22
600.50	48217.38
600.65	47831.19
600.81	48341.42
600.97	48282.91
601.12	47777.36
601.28	48339.08
601.44	48308.66
601.59	48027.79
601.75	47915.45
601.91	48339.08
602.06	48100.35
602.22	47943.53
602.37	47927.15
602.53	48217.38
602.69	47936.51
602.84	48081.63
603.00	48048.86
603.16	48486.54
603.31	48278.23
603.47	48493.56
603.62	48044.18
603.78	48390.58
603.94	48009.07
604.09	47969.28
604.25	48198.65
604.40	48158.86
604.56	47929.49
604.71	48659.74
604.87	48191.63
605.03	47913.11
605.18	48044.18
605.34	48275.89
605.49	48313.34
605.65	47983.32
605.80	47772.67
605.96	47936.51
606.12	47784.38
606.27	48020.77
606.43	47943.53
606.58	48067.58
606.74	47796.08
606.89	47913.11
607.05	48357.81
607.20	48170.57
607.36	47950.56
607.51	47863.96
607.67	48100.35
607.82	47863.96
607.98	48004.39
608.13	48135.46
608.29	47817.14
608.44	48025.45
608.60	47136.05
608.75	48268.87
608.91	47840.55
609.06	47784.38
609.22	47894.38
609.37	47875.66
609.53	48130.78
609.68	48072.26
609.84	47784.38
609.99	48294.61
610.15	48137.80
610.30	47716.50
610.46	47615.86
610.61	47510.53
610.76	47873.32
610.92	47536.28
611.07	47674.37
611.23	47718.84
611.38	47545.64
611.54	47562.03
611.69	48039.50
611.84	48004.39
612.00	47578.41
612.15	47718.84
612.31	47765.65
612.46	47571.39
612.62	47480.11
612.77	47154.77
612.92	47695.44
613.08	47379.46
613.23	47543.30
613.39	47461.38
613.54	47026.04
613.69	47695.44
613.85	47646.29
614.00	47742.25
614.15	47695.44
614.31	47257.76
614.46	47150.09
614.62	47342.02
614.77	47281.16
614.92	47566.71
615.08	47501.17
615.23	47580.75
615.38	47501.17
615.54	47611.18
615.69	47672.03
615.84	47599.47
616.00	47388.83
616.15	47503.51
616.30	47435.64
616.46	46913.70
616.61	47456.70
616.76	47168.82
616.92	47110.30
617.07	47056.47
617.22	47278.82
617.37	46873.91
617.53	47007.32
617.68	47100.94
617.83	47035.41
617.99	47562.03
618.14	47077.54
618.29	47323.29
618.45	46937.10
618.60	46562.62
618.75	46946.47
618.90	46845.82
619.06	46588.36
619.21	47143.07
619.36	47414.57
619.51	47103.28
619.67	46307.50
619.82	46813.05
619.97	46948.81
620.12	46827.10
620.28	46873.91
620.43	46960.51
620.58	46979.23
620.73	46658.58
620.89	46581.34
621.04	46761.56
621.19	47206.26
621.34	46677.30
621.49	46429.21
621.65	46642.20
621.80	46831.78
621.95	46539.21
622.10	46824.76
622.25	46590.70
622.41	46567.30
622.56	46291.12
622.71	46600.07
622.86	46799.01
623.01	46068.76
623.16	46274.73
623.32	46710.07
623.47	46202.18
623.62	46277.07
623.77	46377.72
623.92	46164.73
624.07	46274.73
624.23	46490.06
624.38	46614.11
624.53	46277.07
624.68	46178.77
624.83	46110.89
624.98	46050.04
625.13	45820.67
625.29	46241.96
625.44	45970.46
625.59	46012.59
625.74	45954.08
625.89	45935.35
626.04	45895.56
626.19	46302.82
626.34	45759.81
626.49	45614.70
626.65	45221.49
626.80	45577.25
626.95	45844.07
627.10	45553.85
627.25	45553.85
627.40	45818.33
627.55	45923.65
627.70	45705.98
627.85	45610.02
628.00	45855.78
628.15	45661.51
628.30	45200.43
628.45	45308.09
628.60	44762.75
628.76	45813.65
628.91	45326.81
629.06	44870.41
629.21	45181.70
629.36	45345.54
629.51	45757.47
629.66	45338.52
629.81	45343.20
629.96	45647.47
630.11	45603.00
630.26	45394.69
630.41	45406.39
630.56	45317.45
630.71	45441.50
630.86	45008.50
631.01	45116.17
631.16	45071.70
631.31	45179.36
631.46	44945.31
631.61	45085.74
631.76	45162.98
631.91	44690.19
632.06	45406.39
632.21	45059.99
632.36	45340.86
632.51	44538.05
632.66	45392.35
632.81	44926.58
632.96	45036.59
633.10	44952.33
633.25	44643.38
633.40	44652.74
633.55	45352.56
633.70	44715.93
633.85	44573.16
634.00	44800.19
634.15	44552.10
634.30	44774.45
634.45	44502.95
634.60	44542.74
634.75	44683.17
634.90	44215.06
635.05	44797.85
635.19	44926.58
635.34	44687.85
635.49	44877.43
635.64	44847.00
635.79	45024.89
635.94	44673.81
636.09	44811.90
636.24	44641.04
636.39	44332.09
636.53	44191.65
636.68	44112.08
636.83	43931.86
636.98	44112.08
637.13	44002.07
637.28	44292.30
637.43	44179.95
637.57	44294.64
637.72	43653.33
637.87	44226.76
638.02	44650.40
638.17	44278.25
638.32	43835.89
638.46	43739.93
638.61	43784.40
638.76	43955.26
638.91	44301.66
639.06	43873.34
639.20	43435.66
639.35	43723.55
639.50	43697.80
639.65	43966.96
639.80	43658.01
639.94	43842.92
640.09	43903.77
640.24	44098.03
640.39	43489.49
640.54	43323.32
640.68	43508.22
640.83	44306.34
640.98	43627.59
641.13	43552.69
641.27	43835.89
641.42	43931.86
641.57	43576.09
641.72	43948.24
641.86	43590.14
642.01	43564.39
642.16	42850.53
642.31	43033.09
642.45	43592.48
642.60	43215.65
642.75	42986.28
642.90	43370.13
643.04	43438.00
643.19	43246.08
643.34	42745.20
643.48	42756.91
643.63	42763.93
643.78	43061.18
643.93	43210.97
644.07	43075.22
644.22	43260.12
644.37	42576.69
644.51	43131.39
644.66	42792.01
644.81	43115.01
644.95	42892.66
645.10	43084.58
645.25	42848.19
645.39	42969.90
645.54	42967.55
645.69	42232.63
645.83	42466.68
645.98	42333.27
646.13	42354.33
646.27	42698.39
646.42	42405.83
646.57	42693.71
646.71	42806.06
646.86	42724.14
647.00	42974.58
647.15	42504.13
647.30	42347.31
647.44	42735.84
647.59	42234.97
647.74	42417.53
647.88	43005.00
648.03	42532.22
648.17	42986.28
648.32	42733.50
648.47	42782.65
648.61	42078.15
648.76	41799.63
648.90	42335.61
649.05	42457.32
649.20	42244.33
649.34	41998.57
649.49	42518.17
649.63	41965.81
649.78	42031.34
649.92	41991.55
650.07	42555.62
650.21	42499.45
650.36	42581.37
650.51	42209.22
650.65	42443.27
650.80	41811.33
650.94	41965.81
651.09	42085.17
651.23	41783.24
651.38	41317.48
651.52	41668.56
651.67	41738.77
651.81	41661.54
651.96	42223.26
652.10	41329.18
652.25	41368.97
652.39	41797.29
652.54	41659.20
652.68	41525.78
652.83	41471.95
652.97	41450.89
653.12	41478.97
653.26	41298.75
653.41	41448.55
653.55	41460.25
653.70	41572.60
653.84	41722.39
653.99	41551.53
654.13	41706.01
654.27	41319.82
654.42	41607.70
654.56	41811.33
654.71	40905.54
654.85	41652.17
655.00	41345.56
655.14	41677.92
655.29	41432.16
655.43	41628.77
655.57	41228.54
655.72	40872.78
655.86	40992.14
656.01	41027.25
656.15	40830.65
656.30	40924.27
656.44	40947.67
656.58	40882.14
656.73	41123.21
656.87	40926.61
657.01	40491.27
657.16	41071.72
657.30	41102.15
657.45	40488.93
657.59	40545.10
657.73	40568.51
657.88	40914.90
658.02	41038.95
658.16	40786.18
658.31	40620.00
658.45	40594.25
658.60	40730.00
658.74	40634.04
658.88	40470.20
659.03	40720.64
659.17	40376.58
659.31	40116.78
659.46	40203.38
659.60	40243.17
659.74	39978.69
659.89	39629.95
660.03	39646.33
660.17	40179.98
660.32	40046.57
660.46	39807.83
660.60	39765.70
660.74	39786.77
660.89	39789.11
661.03	39482.50
661.17	39491.86
661.32	39810.17
661.46	40168.27
661.60	39522.29
661.74	39210.99
661.89	39494.20
662.03	39346.75
662.17	39332.70
662.31	39522.29
662.46	39384.19
662.60	39241.42
662.74	38604.80
662.88	39171.21
663.03	38660.97
663.17	38529.90
663.31	38829.49
663.45	39562.08
663.60	39440.37
663.74	39150.14
663.88	38822.47
664.02	38998.01
664.17	38728.84
664.31	38443.30
664.45	38431.60
664.59	39129.08
664.73	38141.37
664.88	38429.26
665.02	38239.67
665.16	38539.26
665.30	38511.17
665.44	37916.68
665.59	38246.69
665.73	38321.59
665.87	37731.78
666.01	37993.92
666.15	37930.72
666.29	37909.66
666.44	37816.04
666.58	37631.13
666.72	37462.61
666.86	37916.68
667.00	36973.44
667.14	37177.07
667.28	37174.73
667.43	37638.15
667.57	37883.91
667.71	37308.14
667.85	37315.16
667.99	37034.30
668.13	37216.86
668.27	36861.10
668.41	36800.24
668.56	36800.24
668.70	36912.59
668.84	36474.91
668.98	36713.64
669.12	36921.95
669.26	36374.27
669.40	36933.65
669.54	36610.66
669.68	36425.76
669.82	36481.93
669.96	36215.11
670.10	36189.36
670.25	35559.76
670.39	36180.00
670.53	36348.52
670.67	35854.67
670.81	36100.42
670.95	36128.51
671.09	36016.16
671.23	35421.67
671.37	35779.77
671.51	35655.72
671.65	35402.94
671.79	35402.94
671.93	35611.25
672.07	35852.33
672.21	35484.86
672.35	34799.08
672.49	35147.82
672.63	35126.76
672.77	34876.32
672.91	35082.29
673.05	35131.44
673.19	34298.21
673.33	34663.33
673.47	34618.86
673.61	34176.50
673.75	34263.10
673.89	34335.66
674.03	33841.81
674.17	33869.89
674.31	33764.57
674.45	33965.85
674.59	33797.34
674.73	33902.66
674.87	33780.95
675.01	33380.72
675.15	33244.97
675.29	33036.66
675.43	33317.53
675.56	33350.29
675.70	33312.84
675.84	33076.45
675.98	32023.21
676.12	32987.51
676.26	33109.22
676.40	32596.64
676.54	32697.28
676.68	32329.82
676.82	31859.37
676.96	32133.21
677.10	32533.45
677.23	32620.05
677.37	32191.73
677.51	32002.14
677.65	32376.63
677.79	31728.30
677.93	31728.30
678.07	31887.46
678.21	31826.60
678.34	31386.58
678.48	30976.99
678.62	31433.39
678.76	31002.74
678.90	31171.25
679.04	31103.38
679.18	31349.14
679.31	30768.68
679.45	30941.88
679.59	30939.54
679.73	30820.17
679.87	30471.43
680.00	30555.69
680.14	30281.85
680.28	30244.40
680.42	30553.35
680.56	29610.12
680.70	29928.43
680.83	29654.59
680.97	29963.54
681.11	29488.41
681.25	29446.28
681.39	28999.24
681.52	29411.17
681.66	29254.36
681.80	28947.75
681.94	28865.83
682.07	28793.27
682.21	28734.76
682.35	28797.95
682.49	28762.84
682.62	28559.22
682.76	28379.00
682.90	28341.55
683.04	28039.62
683.17	28173.03
683.31	28105.15
683.45	27901.53
683.59	27562.15
683.72	27850.03
683.86	27569.17
684.00	27466.19
684.13	27810.25
684.27	27197.02
684.41	27257.88
684.55	26724.24
684.68	27236.81
684.82	26967.65
684.96	26930.20
685.09	26951.27
685.23	26813.18
685.37	27339.80
685.50	27164.26
685.64	26661.04
685.78	26405.92
685.91	26347.41
686.05	25923.77
686.19	25799.73
686.32	26066.55
686.46	25556.31
686.60	25572.69
686.73	25654.61
686.87	25188.85
687.01	25591.42
687.14	25516.52
687.28	25282.47
687.42	25638.23
687.55	25158.42
687.69	25207.57
687.82	24844.79
687.96	24896.28
688.10	24982.88
688.23	24699.67
688.37	24884.58
688.50	24875.21
688.64	24559.24
688.78	24184.76
688.91	24320.51
689.05	24301.78
689.18	24173.05
689.32	23431.10
689.46	23718.99
689.59	24079.43
689.73	23976.45
689.86	23728.35
690.00	23634.73
690.13	23548.13
690.27	23236.84
690.41	23716.65
690.54	23225.14
690.68	22710.22
690.81	22939.59
690.95	22789.80
691.08	22834.27
691.22	22263.18
691.35	22377.86
691.49	22576.81
691.62	22476.16
691.76	22326.37
691.89	22167.21
692.03	21724.85
692.16	21984.65
692.30	21844.22
692.43	21738.90
692.57	21539.95
692.70	21647.61
692.84	21458.03
692.97	21200.57
693.11	21245.04
693.24	20865.88
693.38	21120.99
693.51	20844.81
693.65	21001.63
693.78	20856.51
693.92	20659.91
694.05	20559.27
694.19	20477.35
694.32	20526.50
694.45	20732.47
694.59	20643.52
694.72	20566.29
694.86	20308.83
694.99	19934.34
695.13	19782.21
695.26	19531.77
695.39	19557.52
695.53	19330.48
695.66	19599.65
695.80	19578.58
695.93	19541.13
696.07	19377.30
696.20	19049.62
696.33	18764.07
696.47	18827.27
696.60	18829.61
696.73	19094.09
696.87	18902.17
697.00	18698.54
697.14	18801.52
697.27	18560.45
697.40	18445.76
697.54	18279.58
697.67	18548.75
697.80	18469.17
697.94	18043.19
698.07	18223.41
698.21	17827.86
698.34	17767.01
698.47	17844.24
698.61	17362.09
698.74	17497.84
698.87	17558.70
699.01	17352.73
699.14	17312.94
699.27	17387.84
699.40	17357.41
699.54	17181.87
699.67	17294.22
699.80	17224.00
699.94	16673.98
700.07	16943.14
700.20	16746.53
700.34	16580.36
700.47	16968.88
700.60	16697.38
700.73	16566.31
700.87	16325.24
701.00	16107.57
701.13	16154.38
701.26	16077.14
701.40	15920.32
701.53	15590.31
701.66	15908.62
701.79	15791.59
701.93	15641.80
702.06	15407.75
702.19	15576.27
702.32	15564.56
702.46	15587.97
702.59	15421.79
702.72	15740.10
702.85	15534.14
702.99	15370.30
703.12	15225.18
703.25	15033.26
703.38	14927.94
703.51	14855.38
703.65	14567.49
703.78	14576.86
703.91	14565.15
704.04	14684.52
704.17	14396.64
704.31	14621.33
704.44	14178.97
704.57	14443.45
704.70	14242.16
704.83	14003.43
704.96	14185.99
705.10	13771.71
705.23	13991.72
>>>>>End Processed Spectral Data<<<<<
