SpectraSuite Data File
++++++++++++++++++++++++++++++++++++
Date: Fri Oct 25 10:43:24 EDT 2013
User: price-jones
Dark Spectrum Present: No
Reference Spectrum Present: No
Number of Sampled Component Spectra: 1
Spectrometers: USB2+H05261
Integration Time (usec): 100000 (USB2+H05261)
Spectra Averaged: 1 (USB2+H05261)
Boxcar Smoothing: 0 (USB2+H05261)
Correct for Electrical Dark: No (USB2+H05261)
Strobe/Lamp Enabled: No (USB2+H05261)
Correct for Detector Non-linearity: No (USB2+H05261)
Correct for Stray Light: No (USB2+H05261)
Number of Pixels in Processed Spectrum: 2048
>>>>>Begin Processed Spectral Data<<<<<
365.73	121.71
365.92	121.71
366.12	121.71
366.32	56.17
366.52	0.00
366.72	133.41
366.91	30.43
367.11	0.00
367.31	0.00
367.51	21.06
367.70	0.00
367.90	53.83
368.10	51.49
368.30	4.68
368.49	14.04
368.69	93.62
368.89	28.09
369.09	91.28
369.28	44.47
369.48	25.75
369.68	23.41
369.87	46.81
370.07	0.00
370.27	138.09
370.47	142.77
370.66	280.86
370.86	334.70
371.06	442.36
371.25	456.40
371.45	505.56
371.65	461.09
371.84	416.62
372.04	510.24
372.24	461.09
372.44	491.51
372.63	503.22
372.83	428.32
373.03	540.66
373.22	414.27
373.42	535.98
373.62	528.96
373.81	507.90
374.01	561.73
374.21	535.98
374.40	507.90
374.60	578.11
374.79	538.32
374.99	575.77
375.19	580.45
375.38	559.39
375.58	585.13
375.78	573.43
375.97	557.05
376.17	587.47
376.37	592.16
376.56	627.26
376.76	606.20
376.95	543.00
377.15	580.45
377.35	578.11
377.54	622.58
377.74	580.45
377.93	669.39
378.13	613.22
378.33	669.39
378.52	585.13
378.72	606.20
378.91	667.05
379.11	564.07
379.31	564.07
379.50	662.37
379.70	699.82
379.89	702.16
380.09	564.07
380.28	716.20
380.48	671.73
380.68	716.20
380.87	622.58
381.07	704.50
381.26	713.86
381.46	730.25
381.65	704.50
381.85	748.97
382.04	688.12
382.24	671.73
382.43	664.71
382.63	629.60
382.83	739.61
383.02	755.99
383.22	727.91
383.41	688.12
383.61	685.78
383.80	744.29
384.00	713.86
384.19	788.76
384.39	812.17
384.58	732.59
384.78	751.31
384.97	823.87
385.17	880.04
385.36	802.80
385.56	765.36
385.75	777.06
385.95	760.67
386.14	786.42
386.34	856.64
386.53	800.46
386.72	833.23
386.92	873.02
387.11	866.00
387.31	823.87
387.50	966.64
387.70	854.30
387.89	798.12
388.09	858.98
388.28	896.43
388.48	863.66
388.67	966.64
388.86	945.58
389.06	957.28
389.25	997.07
389.45	1008.77
389.64	868.34
389.84	957.28
390.03	973.66
390.22	1055.58
390.42	901.11
390.61	961.96
390.81	961.96
391.00	922.17
391.19	1144.52
391.39	1036.86
391.58	1062.60
391.78	1055.58
391.97	1081.33
392.16	999.41
392.36	1069.62
392.55	1004.09
392.75	985.37
392.94	896.43
393.13	1008.77
393.33	985.37
393.52	1078.99
393.71	1081.33
393.91	1111.75
394.10	1053.24
394.29	987.71
394.49	1174.95
394.68	1212.40
394.88	1214.74
395.07	1212.40
395.26	1144.52
395.46	1214.74
395.65	1160.91
395.84	1219.42
396.04	1238.14
396.23	1217.08
396.42	1165.59
396.62	1142.18
396.81	1146.86
397.00	1165.59
397.19	1280.27
397.39	1291.98
397.58	1313.04
397.77	1352.83
397.97	1409.00
398.16	1460.49
398.35	1526.03
398.55	1413.68
398.74	1490.92
398.93	1516.67
399.12	1399.64
399.32	1453.47
399.51	1420.71
399.70	1554.12
399.90	1500.28
400.09	1607.95
400.28	1596.25
400.47	1533.05
400.67	1661.78
400.86	1568.16
401.05	1652.42
401.24	1673.48
401.44	1659.44
401.63	1603.27
401.82	1678.16
402.01	1689.87
402.21	1680.50
402.40	1680.50
402.59	1624.33
402.78	1743.70
402.97	1678.16
403.17	1715.61
403.36	1760.08
403.55	1708.59
403.74	1886.47
403.93	1788.17
404.13	1863.07
404.32	1830.30
404.51	1797.53
404.70	1858.39
404.89	1839.66
405.09	1933.28
405.28	1879.45
405.47	1973.07
405.66	1968.39
405.85	1886.47
406.05	1937.96
406.24	1989.46
406.43	1916.90
406.62	2017.54
406.81	2113.50
407.00	2062.01
407.20	1947.33
407.39	1984.77
407.58	2045.63
407.77	2066.69
407.96	2111.16
408.15	2186.06
408.34	2057.33
408.54	2136.91
408.73	2169.68
408.92	2230.53
409.11	2214.15
409.30	2253.94
409.49	2167.34
409.68	2284.36
409.87	2246.91
410.07	2228.19
410.26	2354.58
410.45	2382.67
410.64	2363.94
410.83	2511.39
411.02	2495.01
411.21	2532.46
411.40	2544.16
411.59	2605.02
411.78	2544.16
411.98	2509.05
412.17	2612.04
412.36	2548.84
412.55	2689.28
412.74	2703.32
412.93	2635.44
413.12	2698.64
413.31	2939.71
413.50	2799.28
413.69	2836.73
413.88	2937.37
414.07	2848.43
414.26	2913.97
414.45	2867.16
414.64	2876.52
414.83	2984.18
415.02	2991.20
415.22	2925.67
415.41	2995.89
415.60	3115.25
415.79	3218.24
415.98	3185.47
416.17	3066.10
416.36	3108.23
416.55	3185.47
416.74	3253.34
416.93	3220.58
417.12	3328.24
417.31	3300.16
417.50	3274.41
417.69	3393.78
417.88	3424.20
418.07	3487.40
418.26	3346.97
418.45	3412.50
418.64	3618.47
418.83	3571.66
419.02	3428.88
419.21	3588.04
419.39	3485.06
419.58	3447.61
419.77	3386.76
419.96	3545.91
420.15	3698.05
420.34	3681.66
420.53	3803.37
420.72	3868.91
420.91	3838.48
421.10	3735.50
421.29	3957.85
421.48	3726.13
421.67	3812.73
421.86	3796.35
422.05	3777.62
422.24	3639.53
422.43	3756.56
422.61	3737.84
422.80	3763.58
422.99	3812.73
423.18	3857.20
423.37	3864.22
423.56	3786.99
423.75	3824.44
423.94	3796.35
424.13	3658.26
424.32	3751.88
424.50	3911.04
424.69	3976.57
424.88	4004.66
425.07	3852.52
425.26	3789.33
425.45	3777.62
425.64	3843.16
425.83	3794.01
426.01	4105.30
426.20	3971.89
426.39	4011.68
426.58	3967.21
426.77	3826.78
426.96	3918.06
427.15	3882.95
427.33	3885.29
427.52	4081.89
427.71	4147.43
427.90	4152.11
428.09	4184.88
428.28	3976.57
428.46	4133.39
428.65	4182.54
428.84	4060.83
429.03	4152.11
429.22	4049.13
429.40	4128.70
429.59	4100.62
429.78	3939.12
429.97	3920.40
430.16	3812.73
430.34	3997.64
430.53	4161.47
430.72	4093.60
430.91	4184.88
431.10	4304.25
431.28	4514.89
431.47	4386.16
431.66	4664.69
431.85	4447.02
432.03	4535.96
432.22	4585.11
432.41	4620.22
432.60	4528.94
432.79	4454.04
432.97	4578.09
433.16	4723.20
433.35	4568.73
433.54	4566.39
433.72	4638.94
433.91	4627.24
434.10	4608.51
434.28	4627.24
434.47	4718.52
434.66	4732.56
434.85	4858.95
435.03	4849.59
435.22	4798.10
435.41	4945.55
435.59	4884.70
435.78	5064.92
435.97	5001.72
436.16	5100.03
436.34	4964.28
436.53	4971.30
436.72	5165.56
436.90	4807.46
437.09	5097.69
437.28	5008.75
437.46	5095.35
437.65	5284.93
437.84	5053.22
438.02	5078.96
438.21	5114.07
438.40	5071.94
438.58	5156.20
438.77	5298.97
438.96	5256.84
439.14	5359.83
439.33	5401.96
439.52	5619.63
439.70	5593.88
439.89	5668.78
440.08	5624.31
440.26	5678.14
440.45	5547.07
440.63	5844.32
440.82	5975.39
441.01	5734.31
441.19	5886.45
441.38	6148.59
441.57	6040.92
441.75	6022.20
441.94	6167.31
442.12	6054.97
442.31	6036.24
442.50	6230.51
442.68	6094.76
442.87	6122.84
443.05	6282.00
443.24	6202.42
443.43	6359.24
443.61	6342.85
443.80	6504.35
443.98	6256.25
444.17	6083.05
444.35	6399.02
444.54	6415.41
444.73	6476.26
444.91	6197.74
445.10	6298.38
445.28	6279.66
445.47	6286.68
445.65	6246.89
445.84	6284.34
446.02	6434.13
446.21	6380.30
446.39	6452.86
446.58	6871.81
446.77	6738.40
446.95	6363.92
447.14	6586.27
447.32	6581.59
447.51	6609.67
447.69	6604.99
447.88	6441.15
448.06	6597.97
448.25	6525.41
448.43	6736.06
448.62	6429.45
448.80	6750.10
448.99	6661.16
449.17	6794.58
449.36	6619.04
449.54	6878.83
449.73	7021.61
449.91	7042.67
450.10	7056.72
450.28	7225.23
450.46	7042.67
450.65	7119.91
450.83	7052.03
451.02	6813.30
451.20	7148.00
451.39	6970.12
451.57	7136.29
451.76	7023.95
451.94	7119.91
452.13	7241.62
452.31	7166.72
452.49	6974.80
452.68	7126.93
452.86	7096.50
453.05	7059.06
453.23	7218.21
453.42	7117.57
453.60	7194.81
453.78	7262.68
453.97	7246.30
454.15	7314.17
454.34	7232.26
454.52	7595.04
454.70	7478.01
454.89	7375.03
455.07	7260.34
455.26	7506.10
455.44	7698.02
455.62	7548.23
455.81	7489.71
455.99	7543.55
456.17	7693.34
456.36	7459.29
456.54	7885.26
456.73	7960.16
456.91	7990.59
457.09	7953.14
457.28	8002.29
457.46	7866.54
457.64	8011.65
457.83	8049.10
458.01	7878.24
458.19	8018.68
458.38	7913.35
458.56	8098.25
458.74	8121.66
458.93	7999.95
459.11	8105.28
459.29	8077.19
459.48	8248.05
459.66	8376.78
459.84	8262.09
460.03	8376.78
460.21	8432.95
460.39	8290.18
460.57	8297.20
460.76	8285.50
460.94	8507.85
461.12	8557.00
461.31	8388.48
461.49	8557.00
461.67	8610.83
461.85	8734.88
462.04	8662.32
462.22	8966.59
462.40	8662.32
462.59	8755.94
462.77	8594.45
462.95	8774.67
463.13	8809.78
463.32	8631.90
463.50	8683.39
463.68	8833.18
463.86	8987.66
464.05	8648.28
464.23	8713.81
464.41	8795.73
464.59	8746.58
464.78	9064.89
464.96	8912.76
465.14	9100.00
465.32	9036.81
465.50	9036.81
465.69	9104.68
465.87	9139.79
466.05	8854.25
466.23	9125.75
466.41	9132.77
466.60	9408.95
466.78	9025.11
466.96	9027.45
467.14	9018.08
467.32	9355.12
467.51	9282.56
467.69	9022.77
467.87	9200.65
468.05	9542.36
468.23	9263.84
468.41	9205.33
468.60	9114.05
468.78	9406.61
468.96	9266.18
469.14	9488.53
469.32	9514.28
469.50	9291.93
469.69	9549.39
469.87	9813.87
470.05	9657.05
470.23	9600.88
470.41	9650.03
470.59	9689.82
470.77	9540.02
470.95	9741.31
471.14	10043.24
471.32	9701.52
471.50	10045.58
471.68	10083.03
471.86	10097.07
472.04	10223.46
472.22	10389.64
472.40	9928.55
472.58	10256.23
472.77	10281.97
472.95	10572.20
473.13	10670.50
473.31	10335.81
473.49	10340.49
473.67	10590.92
473.85	10595.61
474.03	10703.27
474.21	10644.76
474.39	10897.53
474.57	10813.28
474.75	10988.82
474.93	10890.51
475.12	10799.23
475.30	11101.16
475.48	10890.51
475.66	11014.56
475.84	10834.34
476.02	11290.74
476.20	11164.36
476.38	11562.25
476.56	11838.43
476.74	11634.80
476.92	11545.86
477.10	11662.89
477.28	12004.61
477.46	11880.56
477.64	11859.49
477.82	12226.96
478.00	12320.58
478.18	12241.00
478.36	12088.87
478.54	12468.03
478.72	12446.97
478.90	12554.63
479.08	12772.30
479.26	12697.41
479.44	12945.50
479.62	12908.05
479.80	12896.35
479.98	13193.60
480.16	13415.95
480.34	13308.29
480.52	13453.40
480.70	13497.87
480.88	13493.19
481.06	13437.02
481.24	13905.12
481.41	14115.77
481.59	14111.09
481.77	14183.65
481.95	14214.07
482.13	14253.86
482.31	14328.76
482.49	14841.34
482.67	14719.63
482.85	14782.82
483.03	15117.52
483.21	15147.95
483.39	15192.42
483.57	15054.33
483.74	15138.58
483.92	15323.49
484.10	15499.03
484.28	15573.92
484.46	16060.76
484.64	16119.27
484.82	15761.17
485.00	15770.53
485.18	16049.05
485.35	16514.82
485.53	15840.75
485.71	15999.90
485.89	16257.36
486.07	16037.35
486.25	16538.23
486.43	16566.31
486.61	16940.80
486.78	16966.54
486.96	17149.11
487.14	17373.80
487.32	17486.14
487.50	17734.24
487.68	17692.11
487.85	17994.04
488.03	18003.40
488.21	18251.50
488.39	17965.95
488.57	18560.45
488.75	18232.77
488.92	19016.85
489.10	18560.45
489.28	19215.80
489.46	18977.06
489.64	19115.16
489.81	19864.13
489.99	19840.72
490.17	19868.81
490.35	20273.72
490.53	19709.65
490.70	20072.43
490.88	20526.50
491.06	20535.86
491.24	20170.74
491.41	20482.03
491.59	20357.98
491.77	20383.73
491.95	20608.42
492.13	20989.92
492.30	21312.92
492.48	21537.61
492.66	21151.42
492.84	21280.15
493.01	21284.83
493.19	21687.40
493.37	21905.07
493.54	22052.53
493.72	22082.95
493.90	22075.93
494.08	22656.39
494.25	22728.94
494.43	22651.70
494.61	22862.35
494.79	23227.48
494.96	23019.17
495.14	23117.47
495.32	23133.86
495.49	23145.56
495.67	23545.79
495.85	23676.86
496.02	24065.39
496.20	23946.02
496.38	24102.84
496.55	24088.79
496.73	24379.02
496.91	24149.65
497.09	24699.67
497.26	24657.54
497.44	24692.65
497.62	24694.99
497.79	24966.49
497.97	24694.99
498.14	25013.31
498.32	25500.14
498.50	25345.66
498.67	25612.48
498.85	25329.28
499.03	25811.43
499.20	25558.65
499.38	25837.17
499.56	25781.00
499.73	26092.29
499.91	26169.53
500.08	26466.78
500.26	25862.92
500.44	26319.32
500.61	26326.35
500.79	25886.32
500.97	26101.65
501.14	26693.81
501.32	26878.71
501.49	26700.83
501.67	26682.11
501.84	26939.57
502.02	26775.73
502.20	27206.39
502.37	27454.48
502.55	27246.18
502.72	27199.37
502.90	27754.07
503.07	27405.33
503.25	27501.29
503.43	27220.43
503.60	27576.19
503.78	27637.05
503.95	27618.32
504.13	27964.72
504.30	28271.33
504.48	27885.14
504.65	28287.71
504.83	28783.91
505.01	28877.53
505.18	28458.57
505.36	29139.67
505.53	29174.78
505.71	28961.79
505.88	29144.35
506.06	28840.08
506.23	28952.43
506.41	29034.35
506.58	29053.07
506.76	29371.38
506.93	29158.39
507.11	29696.72
507.28	29369.04
507.46	29586.71
507.63	29603.10
507.81	29935.45
507.98	29888.64
508.16	29893.32
508.33	30644.63
508.50	30174.19
508.68	30426.96
508.85	30771.02
509.03	30387.18
509.20	30366.11
509.38	31178.28
509.55	30529.95
509.73	30764.00
509.90	31220.41
510.08	30965.29
510.25	30864.64
510.42	31454.46
510.60	30998.06
510.77	31168.91
510.95	31782.13
511.12	31332.75
511.30	31271.90
511.47	31550.42
511.64	31407.65
511.82	32055.98
511.99	31859.37
512.17	31985.76
512.34	31534.04
512.51	32048.96
512.69	32095.77
512.86	32034.91
513.04	32311.10
513.21	32070.02
513.38	32517.06
513.56	32308.76
513.73	32170.66
513.90	32243.22
514.08	32325.14
514.25	32608.34
514.43	33017.94
514.60	32488.98
514.77	32720.69
514.95	32816.65
515.12	32790.91
515.29	33343.27
515.47	33415.83
515.64	33886.28
515.81	33280.08
515.99	32877.51
516.16	33237.95
516.33	33429.87
516.51	33256.67
516.68	32903.25
516.85	32505.36
517.03	32816.65
517.20	33792.65
517.37	33998.62
517.54	33940.11
517.72	33486.04
517.89	33642.86
518.06	33656.90
518.24	33479.02
518.41	33912.02
518.58	33933.09
518.75	34101.61
518.93	34277.15
519.10	34134.37
519.27	34630.57
519.45	34314.59
519.62	34572.05
519.79	35021.44
519.96	34810.79
520.14	34852.92
520.31	34831.85
520.48	34771.00
520.65	35084.63
520.83	35325.71
521.00	35379.54
521.17	35438.05
521.34	35452.09
521.52	35754.02
521.69	35372.52
521.86	36191.70
522.03	35859.35
522.20	35849.99
522.38	35868.71
522.55	36023.19
522.72	36006.80
522.89	35725.94
523.07	36280.64
523.24	36067.66
523.41	36503.00
523.58	36392.99
523.75	36694.92
523.92	36601.30
524.10	36491.29
524.27	36662.15
524.44	36290.01
524.61	37034.30
524.78	36980.46
524.96	36807.26
525.13	36968.76
525.30	36973.44
525.47	37221.54
525.64	37038.98
525.81	37120.90
525.98	37120.90
526.16	36947.70
526.33	36650.45
526.50	37390.06
526.67	36884.50
526.84	37298.78
527.01	37191.11
527.18	37404.10
527.36	37811.35
527.53	37502.40
527.70	38071.15
527.87	37954.13
528.04	37394.74
528.21	37837.10
528.38	37970.51
528.55	38403.51
528.72	37851.14
528.89	38375.42
529.07	37970.51
529.24	38295.85
529.41	38230.31
529.58	38466.70
529.75	38277.12
529.92	38728.84
530.09	38389.47
530.26	38487.77
530.43	39021.41
530.60	38618.84
530.77	38979.28
530.94	38918.43
531.11	38831.83
531.28	39180.57
531.46	38796.72
531.63	38873.96
531.80	39012.05
531.97	38799.06
532.14	38850.55
532.31	38476.07
532.48	38848.21
532.65	39082.27
532.82	39159.50
532.99	39442.71
533.16	39049.50
533.33	39182.91
533.50	39849.96
533.67	39557.39
533.84	39306.96
534.01	39608.89
534.18	39576.12
534.35	39639.31
534.52	39690.80
534.69	39765.70
534.86	40100.40
535.03	39943.58
535.20	40285.30
535.37	39948.26
535.54	40484.25
535.71	40112.10
535.88	40435.10
536.05	40271.26
536.22	40512.33
536.38	40329.77
536.55	39784.43
536.72	40367.22
536.89	39901.45
537.06	40294.66
537.23	40493.61
537.40	40577.87
537.57	40676.17
537.74	40411.69
537.91	40856.39
538.08	40446.80
538.25	40657.45
538.42	40825.96
538.59	40982.78
538.75	40706.60
538.92	40788.52
539.09	41146.62
539.26	40722.98
539.43	40818.94
539.60	40622.34
539.77	40950.01
539.94	41113.85
540.11	40748.73
540.28	41165.34
540.44	41200.45
540.61	41265.99
540.78	41116.19
540.95	41219.17
541.12	41308.11
541.29	40978.10
541.46	41549.19
541.62	40959.38
541.79	41911.97
541.96	40760.43
542.13	41471.95
542.30	41567.91
542.47	41404.08
542.63	41200.45
542.80	41621.75
542.97	41588.98
543.14	42216.24
543.31	42160.07
543.48	42078.15
543.64	42635.20
543.81	42590.73
543.98	42359.02
544.15	42274.76
544.32	42368.38
544.48	42618.81
544.65	42471.36
544.82	42534.56
544.99	42298.16
545.16	42426.89
545.32	41909.63
545.49	42567.32
545.66	42670.31
545.83	42363.70
546.00	42623.50
546.16	42438.59
546.33	42024.32
546.50	42272.42
546.67	42841.17
546.83	42227.95
547.00	42700.73
547.17	42459.66
547.34	42497.11
547.50	42859.89
547.67	42784.99
547.84	42855.21
548.00	42682.01
548.17	43166.50
548.34	42983.94
548.51	43302.25
548.67	43339.70
548.84	43210.97
549.01	43105.65
549.18	43297.57
549.34	43473.11
549.51	43419.28
549.68	43363.11
549.84	43468.43
550.01	43494.18
550.18	43512.90
550.34	43405.23
550.51	43583.12
550.68	43192.25
550.84	43072.88
551.01	43152.46
551.18	43278.85
551.34	43391.19
551.51	43943.56
551.68	44020.80
551.84	43639.29
552.01	43564.39
552.18	43562.05
552.34	43498.86
552.51	43761.00
552.68	43770.36
552.84	43847.60
553.01	43744.61
553.18	43833.55
553.34	43910.79
553.51	44222.08
553.67	44041.86
553.84	44797.85
554.01	44584.86
554.17	44311.02
554.34	43875.68
554.51	44065.27
554.67	44341.45
554.84	44336.77
555.00	43913.13
555.17	43936.54
555.33	44428.05
555.50	44603.59
555.67	44194.00
555.83	43880.36
556.00	44280.60
556.16	44538.05
556.33	44102.71
556.50	44243.15
556.66	44631.68
556.83	44271.23
556.99	44519.33
557.16	44526.35
557.32	43945.90
557.49	44346.13
557.65	44245.49
557.82	44051.22
557.98	44493.58
558.15	44423.37
558.32	44875.09
558.48	44322.72
558.65	44486.56
558.81	44311.02
558.98	44421.03
559.14	44224.42
559.31	44559.12
559.47	44971.05
559.64	44369.54
559.80	44772.11
559.97	44655.08
560.13	44622.31
560.30	44626.99
560.46	44816.58
560.63	44804.88
560.79	44898.50
560.96	44971.05
561.12	45184.04
561.29	44704.23
561.45	44715.93
561.61	44659.76
561.78	44788.49
561.94	44687.85
562.11	44582.52
562.27	44886.79
562.44	44957.01
562.60	45055.31
562.77	44729.98
562.93	44638.70
563.10	45598.32
563.26	44877.43
563.42	45282.34
563.59	44484.22
563.75	45081.06
563.92	45270.64
564.08	45111.49
564.24	45525.76
564.41	44793.17
564.57	44811.90
564.74	45064.67
564.90	45069.36
565.07	45184.04
565.23	45045.95
565.39	45181.70
565.56	45249.58
565.72	45059.99
565.88	44964.03
566.05	44921.90
566.21	44701.89
566.38	44865.73
566.54	45322.13
566.70	45572.57
566.87	45476.61
567.03	45598.32
567.19	45834.71
567.36	45537.46
567.52	45635.77
567.68	45586.61
567.85	45160.64
568.01	45109.14
568.17	45717.68
568.34	45251.92
568.50	45200.43
568.66	45371.28
568.83	45385.33
568.99	45165.32
569.15	45198.09
569.32	45015.52
569.48	45059.99
569.64	45769.18
569.81	45390.01
569.97	45635.77
570.13	45294.05
570.30	45081.06
570.46	44737.00
570.62	44751.04
570.78	45076.38
570.95	45200.43
571.11	45315.11
571.27	45261.28
571.43	45397.03
571.60	45329.16
571.76	45052.97
571.92	45329.16
572.09	45155.96
572.25	45659.17
572.41	45535.12
572.57	45432.14
572.74	45925.99
572.90	45722.37
573.06	45628.74
573.22	45710.66
573.38	45352.56
573.55	45514.06
573.71	45329.16
573.87	45799.60
574.03	45507.04
574.20	45757.47
574.36	45404.05
574.52	45509.38
574.68	45509.38
574.84	45249.58
575.01	45275.32
575.17	45511.72
575.33	45581.93
575.49	45256.60
575.65	45551.51
575.82	45792.58
575.98	45282.34
576.14	45523.42
576.30	45771.52
576.46	45638.11
576.62	45429.80
576.79	45553.85
576.95	45474.27
577.11	45214.47
577.27	45397.03
577.43	45757.47
577.59	45247.24
577.75	45167.66
577.92	45118.51
578.08	45195.74
578.24	44868.07
578.40	45404.05
578.56	45148.93
578.72	45553.85
578.88	45687.26
579.04	45792.58
579.21	45352.56
579.37	45265.96
579.53	45560.87
579.69	45359.58
579.85	45188.72
580.01	45429.80
580.17	45563.21
580.33	45394.69
580.49	45691.94
580.65	45373.63
580.82	45647.47
580.98	45460.23
581.14	45570.23
581.30	45453.20
581.46	45233.19
581.62	45916.63
581.78	45586.61
581.94	46012.59
582.10	45689.60
582.26	46110.89
582.42	45556.19
582.58	45556.19
582.74	45572.57
582.90	45874.50
583.06	45827.69
583.22	45787.90
583.38	45799.60
583.54	45844.07
583.70	45661.51
583.86	45256.60
584.02	45291.71
584.18	46204.52
584.34	45329.16
584.50	45764.49
584.66	45450.86
584.82	45867.48
584.98	45619.38
585.14	45750.45
585.30	45364.26
585.46	45478.95
585.62	45514.06
585.78	45542.14
585.94	45254.26
586.10	45771.52
586.26	45450.86
586.42	45691.94
586.58	45610.02
586.74	45661.51
586.90	45649.81
587.06	45134.89
587.22	45492.99
587.38	45371.28
587.54	45823.01
587.70	45979.82
587.86	45778.54
588.02	45923.65
588.18	45979.82
588.34	45731.73
588.49	44734.66
588.65	45078.72
588.81	45228.51
588.97	45535.12
589.13	45139.57
589.29	45464.91
589.45	45837.05
589.61	45881.52
589.77	45895.56
589.93	45921.31
590.08	45497.67
590.24	45862.80
590.40	45947.06
590.56	46274.73
590.72	45853.44
590.88	45654.49
591.04	46288.77
591.20	45757.47
591.35	46155.36
591.51	46251.33
591.67	45539.80
591.83	45731.73
591.99	45558.53
592.15	45581.93
592.31	45921.31
592.46	45581.93
592.62	45748.11
592.78	45830.03
592.94	45673.21
593.10	45949.40
593.26	46206.86
593.41	46270.05
593.57	45640.45
593.73	45457.88
593.89	46021.95
594.05	46094.51
594.20	45443.84
594.36	45436.82
594.52	45771.52
594.68	45492.99
594.84	45813.65
594.99	45986.85
595.15	45823.01
595.31	45897.91
595.47	45556.19
595.62	46354.31
595.78	45818.33
595.94	45645.13
596.10	45729.39
596.25	46148.34
596.41	45874.50
596.57	45879.18
596.73	45823.01
596.88	45497.67
597.04	45563.21
597.20	45787.90
597.36	45954.08
597.51	46368.35
597.67	45925.99
597.83	45984.51
597.99	46031.32
598.14	46110.89
598.30	45989.19
598.46	46057.06
598.61	46036.00
598.77	46223.24
598.93	45593.64
599.09	45933.01
599.24	46597.73
599.40	45998.55
599.56	45883.86
599.71	46075.79
599.87	45965.78
600.03	46106.21
600.18	45797.26
600.34	45755.13
600.50	45921.31
600.65	45682.58
600.81	45598.32
600.97	46333.24
601.12	46375.37
601.28	45392.35
601.44	45577.25
601.59	45670.87
601.75	45619.38
601.91	45881.52
602.06	45530.44
602.22	45694.28
602.37	46031.32
602.53	45911.95
602.69	46005.57
602.84	45799.60
603.00	45780.88
603.16	45797.26
603.31	45687.26
603.47	45670.87
603.62	45663.85
603.78	46005.57
603.94	45621.72
604.09	45504.70
604.25	45780.88
604.40	45642.79
604.56	45682.58
604.71	45684.92
604.87	45495.33
605.03	45745.77
605.18	45500.01
605.34	45897.91
605.49	45734.07
605.65	45340.86
605.80	45474.27
605.96	45661.51
606.12	45406.39
606.27	46000.89
606.43	45640.45
606.58	45336.18
606.74	45635.77
606.89	45492.99
607.05	46005.57
607.20	46045.36
607.36	45830.03
607.51	46028.98
607.67	45436.82
607.82	45322.13
607.98	45504.70
608.13	45071.70
608.29	45020.20
608.44	45254.26
608.60	45174.68
608.75	45645.13
608.91	45614.70
609.06	45504.70
609.22	45661.51
609.37	45434.48
609.53	45478.95
609.68	45179.36
609.84	45188.72
609.99	45305.75
610.15	45319.79
610.30	45420.44
610.46	44870.41
610.61	45095.10
610.76	45106.80
610.92	45537.46
611.07	45619.38
611.23	45275.32
611.38	45808.96
611.54	44772.11
611.69	45102.12
611.84	44992.12
612.00	44980.42
612.15	45102.12
612.31	45081.06
612.46	45085.74
612.62	45097.44
612.77	44924.24
612.92	45008.50
613.08	45116.17
613.23	44973.39
613.39	44442.09
613.54	44699.55
613.69	44797.85
613.85	44353.15
614.00	44732.32
614.15	44765.09
614.31	44442.09
614.46	45214.47
614.62	44437.41
614.77	44861.05
614.92	44774.45
615.08	44629.34
615.23	44568.48
615.38	44271.23
615.54	44271.23
615.69	44378.90
615.84	44161.23
616.00	44500.61
616.15	44659.76
616.30	44582.52
616.46	44315.70
616.61	44002.07
616.76	44133.14
616.92	44264.21
617.07	44414.01
617.22	44189.31
617.37	43976.33
617.53	44605.93
617.68	44395.28
617.83	44219.74
617.99	44280.60
618.14	44069.95
618.29	44105.06
618.45	43964.62
618.60	44006.75
618.75	43852.28
618.90	43840.57
619.06	43723.55
619.21	43875.68
619.36	43807.81
619.51	43796.10
619.67	44280.60
619.82	43917.81
619.97	43831.21
620.12	43320.98
620.28	43426.30
620.43	43861.64
620.58	44032.50
620.73	43349.06
620.89	43655.67
621.04	43871.00
621.19	43679.08
621.34	43707.16
621.49	43573.75
621.65	43641.63
621.80	43566.73
621.95	43100.97
622.10	43765.68
622.25	43716.53
622.41	43576.09
622.56	43484.81
622.71	43695.46
622.86	43203.95
623.01	43824.19
623.16	43398.21
623.32	43629.93
623.47	43316.29
623.62	43620.56
623.77	42899.68
623.92	43587.80
624.07	42855.21
624.23	43129.05
624.38	42742.86
624.53	43227.35
624.68	43112.67
624.83	43693.12
624.98	42845.85
625.13	42658.60
625.29	42749.88
625.44	43217.99
625.59	42796.70
625.74	43096.28
625.89	42754.57
626.04	42508.81
626.19	42749.88
626.34	42766.27
626.49	42983.94
626.65	42417.53
626.80	42560.30
626.95	42293.48
627.10	42440.93
627.25	42593.07
627.40	42508.81
627.55	42089.85
627.70	42068.79
627.85	42550.94
628.00	42539.24
628.15	42536.90
628.30	42300.50
628.45	42546.26
628.60	42141.35
628.76	42230.29
628.91	42101.56
629.06	42209.22
629.21	42256.03
629.36	41776.22
629.51	41956.44
629.66	41890.91
629.81	41603.02
629.96	41970.49
630.11	42408.17
630.26	42064.11
630.41	41989.21
630.56	41642.81
630.71	41792.61
630.86	42047.72
631.01	41757.50
631.16	41607.70
631.31	41457.91
631.46	41275.35
631.61	41551.53
631.76	41600.68
631.91	42047.72
632.06	41858.14
632.21	41668.56
632.36	42007.94
632.51	41448.55
632.66	41848.78
632.81	41399.40
632.96	41460.25
633.10	41216.83
633.25	41785.58
633.40	41804.31
633.55	41394.71
633.70	41261.30
633.85	41256.62
634.00	41418.12
634.15	41373.65
634.30	40849.37
634.45	41457.91
634.60	41191.09
634.75	41038.95
634.90	40793.20
635.05	41116.19
635.19	41071.72
635.34	41448.55
635.49	41340.88
635.64	41095.13
635.79	40950.01
635.94	40631.70
636.09	40751.07
636.24	40648.08
636.39	40470.20
636.53	40664.47
636.68	40863.41
636.83	40507.65
636.98	40636.38
637.13	40603.61
637.28	41134.92
637.43	41343.22
637.57	41214.49
637.72	41041.29
637.87	40739.36
638.02	40641.06
638.17	40568.51
638.32	40519.35
638.46	40371.90
638.61	40278.28
638.76	40336.79
638.91	40329.77
639.06	40474.88
639.20	40727.66
639.35	40484.25
639.50	39981.03
639.65	40388.28
639.80	40201.04
639.94	40437.44
640.09	40081.67
640.24	40182.32
640.39	40095.72
640.54	40112.10
640.68	40257.21
640.83	40130.83
640.98	39959.97
641.13	39608.89
641.27	40287.64
641.42	40041.88
641.57	40009.12
641.72	40407.01
641.86	39817.19
642.01	40229.13
642.16	40013.80
642.31	39669.74
642.45	39613.57
642.60	39257.81
642.75	39782.09
642.90	39849.96
643.04	40058.27
643.19	39466.11
643.34	39772.72
643.48	39599.52
643.63	39229.72
643.78	39419.30
643.93	39938.90
644.07	39098.65
644.22	39356.11
644.37	39407.60
644.51	39498.88
644.66	39662.72
644.81	39519.95
644.95	39414.62
645.10	39253.12
645.25	39023.75
645.39	39138.44
645.54	39620.59
645.69	39215.68
645.83	38899.70
645.98	38930.13
646.13	39168.87
646.27	39154.82
646.42	39290.57
646.57	38911.41
646.71	39150.14
646.86	39208.65
647.00	39328.02
647.15	38927.79
647.30	39264.83
647.44	38937.15
647.59	38916.09
647.74	38918.43
647.88	38471.39
648.03	38778.00
648.17	39175.89
648.32	38440.96
648.47	38422.23
648.61	38618.84
648.76	38586.07
648.90	38569.69
649.05	38553.30
649.20	38990.98
649.34	38342.66
649.49	38403.51
649.63	38478.41
649.78	38464.36
649.92	38169.46
650.07	38677.35
650.21	38745.23
650.36	38506.49
650.51	38595.43
650.65	38288.82
650.80	38902.04
650.94	38237.33
651.09	38424.57
651.23	38270.10
651.38	37727.10
651.52	37717.73
651.67	37991.58
651.81	37982.21
651.96	38024.34
652.10	38043.07
652.25	38047.75
652.39	38127.33
652.54	37818.38
652.68	38218.61
652.83	37972.85
652.97	38157.75
653.12	37968.17
653.26	37989.24
653.41	38045.41
653.55	37933.06
653.70	37853.48
653.84	37528.15
653.99	37521.13
654.13	37942.42
654.27	37326.86
654.42	37645.18
654.56	38113.28
654.71	37469.64
654.85	37385.38
655.00	38045.41
655.14	37631.13
655.29	37029.62
655.43	37048.34
655.57	36713.64
655.72	36917.27
655.86	37027.28
656.01	36685.56
656.15	36240.86
656.30	37127.92
656.44	37493.04
656.58	37261.33
656.73	37249.63
656.87	37027.28
657.01	36954.72
657.16	36613.00
657.30	36524.06
657.45	36650.45
657.59	36900.89
657.73	36364.90
657.88	36872.80
658.02	37289.42
658.16	37350.27
658.31	37244.94
658.45	36746.41
658.60	36697.26
658.74	36809.61
658.88	36659.81
659.03	36524.06
659.17	36353.20
659.31	36465.55
659.46	36503.00
659.60	36540.44
659.74	36392.99
659.89	35997.44
660.03	36549.81
660.17	36472.57
660.32	36732.37
660.46	36112.13
660.60	36474.91
660.74	36048.93
660.89	36322.77
661.03	36133.19
661.17	35407.62
661.32	36018.50
661.46	35971.69
661.60	35786.79
661.74	35536.35
661.89	35934.24
662.03	35824.24
662.17	35957.65
662.31	35669.76
662.46	36013.82
662.60	35920.20
662.74	35580.82
662.88	35332.73
663.03	35309.32
663.17	35503.59
663.31	35140.80
663.45	35096.33
663.60	35204.00
663.74	34817.81
663.88	34883.34
664.02	35049.52
664.17	35072.93
664.31	34838.87
664.45	35133.78
664.59	35204.00
664.73	34810.79
664.88	35016.75
665.02	34178.84
665.16	34529.92
665.30	34307.57
665.44	34249.06
665.59	34408.22
665.73	34117.99
665.87	34017.35
666.01	34251.40
666.15	34581.42
666.29	33907.34
666.44	34726.53
666.58	33923.72
666.72	34235.02
666.86	33853.51
667.00	33909.68
667.14	33673.29
667.28	33776.27
667.43	33827.76
667.57	33947.13
667.71	33886.28
667.85	33844.15
667.99	33797.34
668.13	33893.30
668.27	34012.66
668.41	33823.08
668.56	33366.68
668.70	33214.54
668.84	33586.69
668.98	33083.47
669.12	33158.37
669.26	33399.44
669.40	33202.84
669.54	32952.40
669.68	33003.89
669.82	32697.28
669.96	32818.99
670.10	32542.81
670.25	32933.68
670.39	32402.38
670.53	32540.47
670.67	32432.80
670.81	32503.02
670.95	32470.25
671.09	32701.96
671.23	32257.26
671.37	32191.73
671.51	32423.44
671.65	32254.92
671.79	31931.93
671.93	31885.12
672.07	31709.58
672.21	31840.65
672.35	31857.03
672.49	31791.50
672.63	31674.47
672.77	31529.36
672.91	31922.57
673.05	31442.76
673.19	31538.72
673.33	31119.76
673.47	31477.86
673.61	31431.05
673.75	30976.99
673.89	30972.31
674.03	30859.96
674.17	31054.23
674.31	31222.75
674.45	31257.85
674.59	30733.57
674.73	30906.77
674.87	30780.39
675.01	30841.24
675.15	30459.73
675.29	30815.49
675.43	30328.66
675.56	30307.60
675.70	30340.36
675.84	30410.58
675.98	29254.36
676.12	30010.35
676.26	30288.87
676.40	29813.74
676.54	29855.87
676.68	29855.87
676.82	29469.69
676.96	29617.14
677.10	29804.38
677.23	29490.75
677.37	29472.03
677.51	29481.39
677.65	29003.92
677.79	28620.07
677.93	28992.22
678.07	28580.28
678.21	28472.62
678.34	28407.08
678.48	28364.95
678.62	28290.06
678.76	28044.30
678.90	28196.43
679.04	28259.63
679.18	28397.72
679.31	27648.75
679.45	27967.06
679.59	27901.53
679.73	27901.53
679.87	27758.75
680.00	27672.15
680.14	27667.47
680.28	27367.88
680.42	27145.53
680.56	27267.24
680.70	27325.75
680.83	27393.63
680.97	27138.51
681.11	27414.69
681.25	26801.47
681.39	26462.10
681.52	27101.06
681.66	26749.98
681.80	26654.02
681.94	26586.15
682.07	26541.68
682.21	26340.39
682.35	26075.91
682.49	26352.09
682.62	26052.50
682.76	25813.77
682.90	25984.63
683.04	25722.49
683.17	25589.08
683.31	25511.84
683.45	25200.55
683.59	25881.64
683.72	25546.95
683.86	25230.98
684.00	25181.82
684.13	24856.49
684.27	24489.03
684.41	24517.11
684.55	24533.50
684.68	24549.88
684.82	24767.55
684.96	24673.93
685.09	24723.08
685.23	24819.04
685.37	24559.24
685.50	24407.11
685.64	24606.05
685.78	24133.26
685.91	24121.56
686.05	23873.46
686.19	23658.14
686.32	23740.05
686.46	23702.61
686.60	23105.77
686.73	23234.50
686.87	23147.90
687.01	23204.07
687.14	22771.07
687.28	23014.49
687.42	22642.34
687.55	22810.86
687.69	22707.88
687.82	23005.13
687.96	22808.52
688.10	22384.88
688.23	22789.80
688.37	22387.22
688.50	22520.63
688.64	22300.62
688.78	22349.78
688.91	22122.74
689.05	22040.82
689.18	21785.71
689.32	21741.24
689.46	21937.84
689.59	21907.41
689.73	21963.59
689.86	21612.51
690.00	21516.54
690.13	21469.73
690.27	21036.74
690.41	21542.29
690.54	21048.44
690.68	21315.26
690.81	21102.27
690.95	20975.88
691.08	21099.93
691.22	20910.35
691.35	20613.10
691.49	20968.86
691.62	20613.10
691.76	20601.40
691.89	20695.02
692.03	20519.48
692.16	20100.52
692.30	20271.38
692.43	20353.30
692.57	20222.23
692.70	19576.24
692.84	19889.87
692.97	19538.79
693.11	19494.32
693.24	19386.66
693.38	19356.23
693.51	19349.21
693.65	19201.76
693.78	19239.20
693.92	19489.64
694.05	19269.63
694.19	19180.69
694.32	19215.80
694.45	19176.01
694.59	19199.41
694.72	18916.21
694.86	18635.35
694.99	18754.71
695.13	18616.62
695.26	18258.52
695.39	18480.87
695.53	18621.30
695.66	18342.78
695.80	17919.14
695.93	18532.36
696.07	18097.02
696.20	18148.51
696.33	18026.81
696.47	17884.03
696.60	17692.11
696.73	17921.48
696.87	17582.10
697.00	17582.10
697.14	17238.05
697.27	17216.98
697.40	17425.29
697.54	17240.39
697.67	17043.78
697.80	17078.89
697.94	17055.48
698.07	16994.63
698.21	17071.87
698.34	17083.57
698.47	16723.13
698.61	16582.70
698.74	16549.93
698.87	16898.67
699.01	16477.37
699.14	16606.10
699.27	16140.33
699.40	16526.52
699.54	16044.37
699.67	16112.25
699.80	16079.48
699.94	16030.33
700.07	16203.53
700.20	15798.62
700.34	15700.31
700.47	15592.65
700.60	15749.46
700.73	15807.98
700.87	15562.22
701.00	15438.17
701.13	15281.36
701.26	15363.28
701.40	15524.77
701.53	14881.13
701.66	15138.58
701.79	14878.79
701.93	14834.32
702.06	14864.74
702.19	14501.96
702.32	15054.33
702.46	14874.10
702.59	14668.14
702.72	14717.29
702.85	14373.23
702.99	14204.71
703.12	14492.60
703.25	13914.48
703.38	14242.16
703.51	14305.35
703.65	14197.69
703.78	13682.77
703.91	13743.63
704.04	13935.55
704.17	13816.18
704.31	14015.13
704.44	13713.20
704.57	13734.26
704.70	13708.52
704.83	13532.98
704.96	13460.42
705.10	13542.34
705.23	13247.43
>>>>>End Processed Spectral Data<<<<<
