SpectraSuite Data File
++++++++++++++++++++++++++++++++++++
Date: Fri Oct 25 10:47:51 EDT 2013
User: price-jones
Dark Spectrum Present: No
Reference Spectrum Present: No
Number of Sampled Component Spectra: 1
Spectrometers: USB2+H05261
Integration Time (usec): 100000 (USB2+H05261)
Spectra Averaged: 1 (USB2+H05261)
Boxcar Smoothing: 0 (USB2+H05261)
Correct for Electrical Dark: No (USB2+H05261)
Strobe/Lamp Enabled: No (USB2+H05261)
Correct for Detector Non-linearity: No (USB2+H05261)
Correct for Stray Light: No (USB2+H05261)
Number of Pixels in Processed Spectrum: 2048
>>>>>Begin Processed Spectral Data<<<<<
365.73	175.54
365.92	175.54
366.12	175.54
366.32	70.22
366.52	32.77
366.72	9.36
366.91	53.83
367.11	168.52
367.31	2.34
367.51	11.70
367.70	0.00
367.90	0.00
368.10	23.41
368.30	67.88
368.49	46.81
368.69	56.17
368.89	46.81
369.09	72.56
369.28	98.30
369.48	70.22
369.68	72.56
369.87	88.94
370.07	117.03
370.27	166.18
370.47	250.44
370.66	372.15
370.86	425.98
371.06	416.62
371.25	477.47
371.45	407.25
371.65	533.64
371.84	421.30
372.04	440.02
372.24	472.79
372.44	550.03
372.63	519.60
372.83	526.62
373.03	559.39
373.22	510.24
373.42	568.75
373.62	571.09
373.81	517.26
374.01	599.18
374.21	575.77
374.40	547.69
374.60	655.35
374.79	538.32
374.99	507.90
375.19	528.96
375.38	613.22
375.58	489.17
375.78	566.41
375.97	554.71
376.17	594.50
376.37	622.58
376.56	599.18
376.76	580.45
376.95	624.92
377.15	580.45
377.35	596.84
377.54	498.53
377.74	617.90
377.93	615.56
378.13	589.82
378.33	524.28
378.52	535.98
378.72	676.41
378.91	627.26
379.11	571.09
379.31	629.60
379.50	711.52
379.70	634.29
379.89	671.73
380.09	643.65
380.28	653.01
380.48	669.39
380.68	636.63
380.87	627.26
381.07	676.41
381.26	739.61
381.46	575.77
381.65	667.05
381.85	739.61
382.04	699.82
382.24	613.22
382.43	746.63
382.63	624.92
382.83	725.57
383.02	706.84
383.22	795.78
383.41	770.04
383.61	723.23
383.80	629.60
384.00	760.67
384.19	674.07
384.39	744.29
384.58	697.48
384.78	767.70
384.97	734.93
385.17	734.93
385.36	779.40
385.56	784.08
385.75	709.18
385.95	772.38
386.14	798.12
386.34	781.74
386.53	826.21
386.72	751.31
386.92	851.96
387.11	849.61
387.31	774.72
387.50	919.83
387.70	809.83
387.89	858.98
388.09	802.80
388.28	830.89
388.48	901.11
388.67	854.30
388.86	915.15
389.06	945.58
389.25	905.79
389.45	898.77
389.64	947.92
389.84	873.02
390.03	873.02
390.22	901.11
390.42	908.13
390.61	945.58
390.81	983.02
391.00	947.92
391.19	968.98
391.39	973.66
391.58	940.90
391.78	917.49
391.97	957.28
392.16	924.51
392.36	950.26
392.55	1095.37
392.75	990.05
392.94	957.28
393.13	910.47
393.33	940.90
393.52	985.37
393.71	1062.60
393.91	1071.97
394.10	1001.75
394.29	1064.94
394.49	1015.79
394.68	1114.10
394.88	1088.35
395.07	1146.86
395.26	1186.65
395.46	1153.88
395.65	1151.54
395.84	1111.75
396.04	1132.82
396.23	1191.33
396.42	1153.88
396.62	1104.73
396.81	1181.97
397.00	1210.06
397.19	1217.08
397.39	1231.12
397.58	1191.33
397.77	1228.78
397.97	1303.68
398.16	1275.59
398.35	1261.55
398.55	1254.53
398.74	1399.64
398.93	1317.72
399.12	1364.53
399.32	1177.29
399.51	1387.94
399.70	1329.42
399.90	1355.17
400.09	1366.87
400.28	1413.68
400.47	1359.85
400.67	1490.92
400.86	1460.49
401.05	1425.39
401.24	1481.56
401.44	1486.24
401.63	1411.34
401.82	1535.39
402.01	1465.18
402.21	1530.71
402.40	1544.75
402.59	1600.93
402.78	1554.12
402.97	1516.67
403.17	1671.14
403.36	1500.28
403.55	1650.08
403.74	1680.50
403.93	1614.97
404.13	1675.82
404.32	1720.29
404.51	1572.84
404.70	1626.67
404.89	1673.48
405.09	1727.32
405.28	1750.72
405.47	1643.06
405.66	1699.23
405.85	1783.49
406.05	1710.93
406.24	1617.31
406.43	1729.66
406.62	1970.73
406.81	1839.66
407.00	1842.00
407.20	1774.13
407.39	1879.45
407.58	1907.54
407.77	1963.71
407.96	1916.90
408.15	1909.88
408.34	2040.95
408.54	1949.67
408.73	1975.41
408.92	1935.62
409.11	2017.54
409.30	2047.97
409.49	2120.53
409.68	2040.95
409.87	2094.78
410.07	2022.22
410.26	2101.80
410.45	2146.27
410.64	2214.15
410.83	2092.44
411.02	2167.34
411.21	2310.11
411.40	2221.17
411.59	2272.66
411.78	2258.62
411.98	2349.90
412.17	2340.54
412.36	2424.80
412.55	2457.56
412.74	2305.43
412.93	2399.05
413.12	2394.37
413.31	2537.14
413.50	2406.07
413.69	2593.31
413.88	2616.72
414.07	2548.84
414.26	2574.59
414.45	2553.52
414.64	2576.93
414.83	2700.98
415.02	2736.09
415.22	2698.64
415.41	2733.75
415.60	2724.38
415.79	2871.84
415.98	2874.18
416.17	2932.69
416.36	2864.82
416.55	2717.36
416.74	2885.88
416.93	2913.97
417.12	3005.25
417.31	3059.08
417.50	2958.44
417.69	3052.06
417.88	3112.91
418.07	2977.16
418.26	3066.10
418.45	3164.40
418.64	3246.32
418.83	3190.15
419.02	3084.83
419.21	3335.26
419.39	3248.66
419.58	3269.73
419.77	3220.58
419.96	3321.22
420.15	3302.50
420.34	3211.22
420.53	3239.30
420.72	3281.43
420.91	3459.31
421.10	3403.14
421.29	3407.82
421.48	3480.38
421.67	3428.88
421.86	3442.93
422.05	3393.78
422.24	3297.81
422.43	3524.85
422.61	3428.88
422.80	3541.23
422.99	3454.63
423.18	3508.46
423.37	3632.51
423.56	3620.81
423.75	3585.70
423.94	3346.97
424.13	3295.47
424.32	3307.18
424.50	3627.83
424.69	3520.17
424.88	3616.13
425.07	3492.08
425.26	3609.11
425.45	3529.53
425.64	3499.10
425.83	3496.76
426.01	3609.11
426.20	3545.91
426.39	3653.58
426.58	3583.36
426.77	3463.99
426.96	3651.24
427.15	3644.21
427.33	3667.62
427.52	3660.60
427.71	3688.68
427.90	3658.26
428.09	3698.05
428.28	3700.39
428.46	3801.03
428.65	3796.35
428.84	3882.95
429.03	3850.18
429.22	3803.37
429.40	3794.01
429.59	3843.16
429.78	3613.79
429.97	3597.40
430.16	3882.95
430.34	3875.93
430.53	3723.79
430.72	3932.10
430.91	3840.82
431.10	3805.71
431.28	4072.53
431.47	4145.09
431.66	4196.58
431.85	4119.34
432.03	4217.65
432.22	4294.88
432.41	4229.35
432.60	4117.00
432.79	4205.94
432.97	4259.78
433.16	4374.46
433.35	4159.13
433.54	4149.77
433.72	4351.06
433.91	4257.43
434.10	4390.84
434.28	4386.16
434.47	4313.61
434.66	4482.13
434.85	4479.79
435.03	4507.87
435.22	4512.55
435.41	4671.71
435.59	4557.02
435.78	4521.92
435.97	4524.26
436.16	4528.94
436.34	4620.22
436.53	4650.64
436.72	4725.54
436.90	4542.98
437.09	4599.15
437.28	4519.57
437.46	4713.84
437.65	4657.67
437.84	4734.90
438.02	4688.09
438.21	4627.24
438.40	4456.38
438.58	4702.14
438.77	4800.44
438.96	4954.91
439.14	5004.07
439.33	5139.82
439.52	4999.38
439.70	4929.17
439.89	5165.56
440.08	5081.30
440.26	5107.05
440.45	5125.77
440.63	5212.37
440.82	5432.38
441.01	5416.00
441.19	5275.57
441.38	5528.35
441.57	5511.96
441.75	5652.39
441.94	5544.73
442.12	5535.37
442.31	5682.82
442.50	5762.40
442.68	5687.50
442.87	5682.82
443.05	5664.10
443.24	5736.65
443.43	5764.74
443.61	5717.93
443.80	5947.30
443.98	5769.42
444.17	5481.53
444.35	5624.31
444.54	5907.51
444.73	5891.13
444.91	5898.15
445.10	5998.79
445.28	5933.26
445.47	5870.06
445.65	5863.04
445.84	5774.10
446.02	5912.19
446.21	5912.19
446.39	5921.56
446.58	6001.13
446.77	5994.11
446.95	5804.53
447.14	6094.76
447.32	6181.35
447.51	6033.90
447.69	5865.38
447.88	5888.79
448.06	5860.70
448.25	5834.96
448.43	6015.18
448.62	5991.77
448.80	6040.92
448.99	6148.59
449.17	6141.57
449.36	6108.80
449.54	6251.57
449.73	6401.37
449.91	6494.99
450.10	6434.13
450.28	6506.69
450.46	6434.13
450.65	6363.92
450.83	6525.41
451.02	6424.77
451.20	6630.74
451.39	6516.05
451.57	6284.34
451.76	6340.51
451.94	6469.24
452.13	6469.24
452.31	6356.90
452.49	6216.46
452.68	6396.68
452.86	6487.96
453.05	6602.65
453.23	6649.46
453.42	6349.87
453.60	6511.37
453.78	6548.82
453.97	6614.35
454.15	6506.69
454.34	6427.11
454.52	6820.32
454.70	6792.23
454.89	6759.47
455.07	6738.40
455.26	6885.86
455.44	6953.73
455.62	6789.89
455.81	6913.94
455.99	7222.89
456.17	6888.20
456.36	6981.82
456.54	7061.40
456.73	6993.52
456.91	7316.51
457.09	7265.02
457.28	7382.05
457.46	7091.82
457.64	7328.22
457.83	7243.96
458.01	7169.06
458.19	7398.43
458.38	7351.62
458.56	7431.20
458.74	7424.18
458.93	7206.51
459.11	7330.56
459.29	7375.03
459.48	7616.10
459.66	7396.09
459.84	7597.38
460.03	7433.54
460.21	7765.90
460.39	7815.05
460.57	7634.83
460.76	7721.43
460.94	7786.96
461.12	7763.56
461.31	7845.48
461.49	7578.65
461.67	7639.51
461.85	7941.44
462.04	7777.60
462.22	8252.73
462.40	8058.46
462.59	7819.73
462.77	7896.97
462.95	8028.04
463.13	8058.46
463.32	8154.43
463.50	8180.17
463.68	8175.49
463.86	7742.49
464.05	8049.10
464.23	8095.91
464.41	8170.81
464.59	8035.06
464.78	8416.57
464.96	8212.94
465.14	8060.80
465.32	8203.58
465.50	8407.20
465.69	8446.99
465.87	8236.35
466.05	8365.07
466.23	8559.34
466.41	8390.82
466.60	8475.08
466.78	8320.60
466.96	8360.39
467.14	8470.40
467.32	8489.12
467.51	8559.34
467.69	8390.82
467.87	8652.96
468.05	8547.64
468.23	8484.44
468.41	8425.93
468.60	8573.38
468.78	8674.03
468.96	8432.95
469.14	8903.40
469.32	8837.86
469.50	8475.08
469.69	8755.94
469.87	8821.48
470.05	8854.25
470.23	8847.22
470.41	8903.40
470.59	9083.62
470.77	8968.93
470.95	9067.24
471.14	9261.50
471.32	8877.65
471.50	9308.31
471.68	9415.98
471.86	9465.13
472.04	9277.88
472.22	9488.53
472.40	9254.48
472.58	9547.05
472.77	9472.15
472.95	9631.30
473.13	9799.82
473.31	9525.98
473.49	9607.90
473.67	9884.08
473.85	9893.44
474.03	9916.85
474.21	9989.41
474.39	9937.91
474.57	10094.73
474.75	10232.82
474.93	10029.20
475.12	10090.05
475.30	10246.87
475.48	10057.28
475.66	10338.15
475.84	10141.54
476.02	10228.14
476.20	10448.15
476.38	10757.10
476.56	10792.21
476.74	10705.61
476.92	10597.95
477.10	10738.38
477.28	10925.62
477.46	10956.05
477.64	10927.96
477.82	11103.50
478.00	11447.56
478.18	11431.18
478.36	11377.34
478.54	11655.87
478.72	11578.63
478.90	11721.40
479.08	11899.28
479.26	11922.69
479.44	11861.84
479.62	11819.71
479.80	12250.36
479.98	12065.46
480.16	12266.75
480.34	12299.52
480.52	12556.97
480.70	12603.78
480.88	12365.05
481.06	12528.89
481.24	12638.89
481.41	12744.22
481.59	12807.41
481.77	13121.04
481.95	13408.93
482.13	13350.42
482.31	13446.38
482.49	13762.35
482.67	13490.85
482.85	13570.43
483.03	13703.84
483.21	13699.16
483.39	14162.58
483.57	14087.68
483.74	14204.71
483.92	14352.16
484.10	13954.27
484.28	14691.54
484.46	14539.41
484.64	14932.62
484.82	14738.35
485.00	14864.74
485.18	15019.22
485.35	14965.39
485.53	14949.00
485.71	15208.80
485.89	15232.21
486.07	15080.07
486.25	15185.40
486.43	15454.56
486.61	15477.96
486.78	16102.89
486.96	15845.43
487.14	16311.19
487.32	16411.84
487.50	16482.05
487.68	16552.27
487.85	16994.63
488.03	16999.31
488.21	17020.38
488.39	16973.56
488.57	17064.85
488.75	17263.79
488.92	17486.14
489.10	17767.01
489.28	17759.98
489.46	17879.35
489.64	17839.56
489.81	18015.10
489.99	18366.18
490.17	18246.82
490.35	18787.48
490.53	18438.74
490.70	18600.24
490.88	18878.76
491.06	19063.66
491.24	19243.88
491.41	19042.60
491.59	19194.73
491.77	19351.55
491.95	19534.11
492.13	19873.49
492.30	19985.83
492.48	19880.51
492.66	20018.60
492.84	19793.91
493.01	20091.16
493.19	20077.12
493.37	20486.71
493.54	20592.03
493.72	20884.60
493.90	20727.78
494.08	20751.19
494.25	21013.33
494.43	21050.78
494.61	21270.79
494.79	21198.23
494.96	21832.52
495.14	21682.72
495.32	21937.84
495.49	21687.40
495.67	21781.03
495.85	22129.77
496.02	22216.36
496.20	22443.40
496.38	22307.65
496.55	22579.15
496.73	22885.76
496.91	22572.13
497.09	22995.76
497.26	23049.60
497.44	22930.23
497.62	23042.57
497.79	23562.17
497.97	23159.60
498.14	23342.16
498.32	23550.47
498.50	23447.49
498.67	23868.78
498.85	23922.62
499.03	24058.37
499.20	23859.42
499.38	24002.19
499.56	24407.11
499.73	24428.17
499.91	24334.55
500.08	24746.48
500.26	24720.74
500.44	24704.35
500.61	24837.76
500.79	24568.60
500.97	24716.06
501.14	25490.77
501.32	25006.28
501.49	25043.73
501.67	25326.94
501.84	25273.10
502.02	25518.86
502.20	25762.28
502.37	26202.30
502.55	25773.98
502.72	26176.55
502.90	26277.19
503.07	25649.93
503.25	25846.54
503.43	25912.07
503.60	26150.81
503.78	26005.69
503.95	26724.24
504.13	26515.93
504.30	26356.77
504.48	26501.89
504.65	26799.13
504.83	27117.45
505.01	27225.11
505.18	26867.01
505.36	27246.18
505.53	26941.91
505.71	27349.16
505.88	27447.46
506.06	27316.39
506.23	27440.44
506.41	27168.94
506.58	27545.76
506.76	27576.19
506.93	27653.43
507.11	28046.64
507.28	27843.01
507.46	27978.76
507.63	27843.01
507.81	27847.69
507.98	27721.30
508.16	28374.31
508.33	28683.27
508.50	28273.67
508.68	28744.12
508.85	28851.78
509.03	28814.34
509.20	28828.38
509.38	29022.64
509.55	28882.21
509.73	29106.90
509.90	28971.15
510.08	29191.16
510.25	29298.83
510.42	28957.11
510.60	29923.75
510.77	29301.17
510.95	30024.39
511.12	29560.97
511.30	29411.17
511.47	29956.52
511.64	30099.29
511.82	30218.66
511.99	30096.95
512.17	29979.92
512.34	30323.98
512.51	30319.30
512.69	30471.43
512.86	30342.70
513.04	30473.78
513.21	30799.11
513.38	30366.11
513.56	30370.79
513.73	30455.05
513.90	30817.83
514.08	30925.50
514.25	30974.65
514.43	31119.76
514.60	30806.13
514.77	31194.66
514.95	31681.49
515.12	31627.66
515.29	31817.24
515.47	31805.54
515.64	31622.98
515.81	31915.54
515.99	31590.21
516.16	31510.63
516.33	31887.46
516.51	31400.63
516.68	31842.99
516.85	31484.89
517.03	31779.79
517.20	31845.33
517.37	32006.83
517.54	32156.62
517.72	32512.38
517.89	32144.92
518.06	32414.08
518.24	32100.45
518.41	32100.45
518.58	32477.27
518.75	32299.39
518.93	33055.39
519.10	32526.42
519.27	32783.88
519.45	32856.44
519.62	33039.00
519.79	33029.64
519.96	33324.55
520.14	33425.19
520.31	32940.70
520.48	33298.80
520.65	33174.75
520.83	33722.44
521.00	33851.17
521.17	33511.79
521.34	33745.84
521.52	33853.51
521.69	34125.01
521.86	34033.73
522.03	34096.92
522.20	34059.48
522.38	34562.69
522.55	34227.99
522.72	34284.17
522.89	34089.90
523.07	34569.71
523.24	34284.17
523.41	34527.58
523.58	34520.56
523.75	35154.85
523.92	34693.76
524.10	34639.93
524.27	35213.36
524.44	34710.14
524.61	34981.65
524.78	35131.44
524.96	35445.07
525.13	35360.81
525.30	34962.92
525.47	35775.09
525.64	35409.96
525.81	35239.11
525.98	35716.58
526.16	35126.76
526.33	35257.83
526.50	35768.07
526.67	35489.54
526.84	35398.26
527.01	35110.38
527.18	35807.86
527.36	36163.62
527.53	35761.05
527.70	36395.33
527.87	36362.56
528.04	36128.51
528.21	36006.80
528.38	36121.49
528.55	36318.09
528.72	36318.09
528.89	36673.85
529.07	36367.24
529.24	36301.71
529.41	36622.36
529.58	36378.95
529.75	36481.93
529.92	36744.07
530.09	37083.45
530.26	36980.46
530.43	36912.59
530.60	36676.19
530.77	37092.81
530.94	37425.17
531.11	37139.62
531.28	37326.86
531.46	37287.07
531.63	37326.86
531.80	37116.22
531.97	37626.45
532.14	37134.94
532.31	37347.93
532.48	37539.85
532.65	37858.17
532.82	37518.79
532.99	37532.83
533.16	37816.04
533.33	37380.70
533.50	37970.51
533.67	37806.67
533.84	37425.17
534.01	38153.07
534.18	38045.41
534.35	38377.76
534.52	38122.65
534.69	38087.54
534.86	38113.28
535.03	37855.82
535.20	38195.20
535.37	38892.68
535.54	38522.88
535.71	38293.50
535.88	38625.86
536.05	38169.46
536.22	38855.23
536.38	38223.29
536.55	38410.53
536.72	38525.22
536.89	38658.63
537.06	38340.32
537.23	38363.72
537.40	38520.54
537.57	38536.92
537.74	38675.01
537.91	39548.03
538.08	39009.71
538.25	38953.54
538.42	39023.75
538.59	39264.83
538.75	38752.25
538.92	39049.50
539.09	39321.00
539.26	39201.63
539.43	39218.02
539.60	39122.05
539.77	39161.84
539.94	39613.57
540.11	39349.09
540.28	39541.01
540.44	39082.27
540.61	39374.83
540.78	39480.16
540.95	39309.30
541.12	39150.14
541.29	39227.38
541.46	39604.20
541.62	39487.18
541.79	40013.80
541.96	39742.30
542.13	39550.37
542.30	40144.87
542.47	40032.52
542.63	40060.61
542.80	39746.98
542.97	40699.58
543.14	40362.54
543.31	40678.51
543.48	40364.88
543.64	40704.26
543.81	40540.42
543.98	40273.60
544.15	40657.45
544.32	40753.41
544.48	40652.76
544.65	40601.27
544.82	41090.44
544.99	40554.46
545.16	40701.92
545.32	40980.44
545.49	40758.09
545.66	41270.67
545.83	40875.12
546.00	41481.31
546.16	41181.73
546.33	41198.11
546.50	40758.09
546.67	41167.68
546.83	40671.49
547.00	41111.51
547.17	40849.37
547.34	41317.48
547.50	41284.71
547.67	41603.02
547.84	41141.94
548.00	41818.35
548.17	41642.81
548.34	41605.36
548.51	41790.27
548.67	41801.97
548.84	41890.91
549.01	41443.87
549.18	41769.20
549.34	41654.51
549.51	41483.66
549.68	41902.61
549.84	41858.14
550.01	41991.55
550.18	41834.74
550.34	41588.98
550.51	41827.71
550.68	41837.08
550.84	42050.06
551.01	41944.74
551.18	41947.08
551.34	42064.11
551.51	42188.16
551.68	42412.85
551.84	42272.42
552.01	42256.03
552.18	42370.72
552.34	41942.40
552.51	42419.87
552.68	42567.32
552.84	42359.02
553.01	43047.13
553.18	42583.71
553.34	42270.08
553.51	42333.27
553.67	42527.53
553.84	42801.38
554.01	42756.91
554.17	42686.69
554.34	42857.55
554.51	43124.37
554.67	42944.15
554.84	42490.09
555.00	42862.23
555.17	42803.72
555.33	42866.91
555.50	42462.00
555.67	42969.90
555.83	42895.00
556.00	42993.30
556.16	43246.08
556.33	43365.45
556.50	43487.15
556.66	43426.30
556.83	42679.67
556.99	43136.07
557.16	43292.89
557.32	43203.95
557.49	43655.67
557.65	43047.13
557.82	42988.62
557.98	42775.63
558.15	43306.93
558.32	43543.33
558.48	43061.18
558.65	43468.43
558.81	42995.64
558.98	43285.87
559.14	43028.41
559.31	43391.19
559.47	43592.48
559.64	43714.19
559.80	43737.59
559.97	43828.87
560.13	43356.08
560.30	43786.74
560.46	43683.76
560.63	43627.59
560.79	43430.98
560.96	43906.11
561.12	43089.26
561.29	43491.83
561.45	43529.28
561.61	43777.38
561.78	43316.29
561.94	43454.39
562.11	43409.92
562.27	43786.74
562.44	44072.29
562.60	43910.79
562.77	43470.77
562.93	43419.28
563.10	43777.38
563.26	43798.44
563.42	43985.69
563.59	43976.33
563.75	43969.30
563.92	44016.11
564.08	43796.10
564.24	44289.96
564.41	43859.30
564.57	43931.86
564.74	44404.64
564.90	44409.32
565.07	44161.23
565.23	44257.19
565.39	44076.97
565.56	44006.75
565.72	44076.97
565.88	43555.03
566.05	44088.67
566.21	44100.37
566.38	43791.42
566.54	44421.03
566.70	44147.18
566.87	44385.92
567.03	44144.84
567.19	44622.31
567.36	44318.04
567.52	43896.75
567.68	44294.64
567.85	44308.68
568.01	44208.04
568.17	44580.18
568.34	44406.98
568.50	44350.81
568.66	44079.31
568.83	44467.84
568.99	44140.16
569.15	44226.76
569.32	44247.83
569.48	44215.06
569.64	44060.58
569.81	44346.13
569.97	43840.57
570.13	44350.81
570.30	44037.18
570.46	44215.06
570.62	44053.56
570.78	44105.06
570.95	43931.86
571.11	44296.98
571.27	44327.41
571.43	44514.65
571.60	44568.48
571.76	44842.32
571.92	43992.71
572.09	44538.05
572.25	44069.95
572.41	44648.06
572.57	44341.45
572.74	44549.76
572.90	44989.78
573.06	44339.11
573.22	44509.97
573.38	44186.97
573.55	44339.11
573.71	44795.51
573.87	44608.27
574.03	44428.05
574.20	44362.51
574.36	44481.88
574.52	44704.23
574.68	44741.68
574.84	44421.03
575.01	44219.74
575.17	44266.55
575.33	44168.25
575.49	44137.82
575.65	44987.44
575.82	44650.40
575.98	44343.79
576.14	44942.97
576.30	44715.93
576.46	44456.14
576.62	44212.72
576.79	44191.65
576.95	44339.11
577.11	44755.72
577.27	44292.30
577.43	44690.19
577.59	44694.87
577.75	44285.28
577.92	44350.81
578.08	44011.43
578.24	44538.05
578.40	44140.16
578.56	44655.08
578.72	44722.96
578.88	44493.58
579.04	45167.66
579.21	44678.49
579.37	44584.86
579.53	44650.40
579.69	44334.43
579.85	44790.83
580.01	44641.04
580.17	44781.47
580.33	45013.18
580.49	45057.65
580.65	44388.26
580.82	44626.99
580.98	44626.99
581.14	44514.65
581.30	44816.58
581.46	44940.63
581.62	44680.83
581.78	44458.48
581.94	45200.43
582.10	44264.21
582.26	45254.26
582.42	45027.23
582.58	44566.14
582.74	44842.32
582.90	44968.71
583.06	44816.58
583.22	44931.26
583.38	44751.04
583.54	44783.81
583.70	45134.89
583.86	44669.12
584.02	44577.84
584.18	44975.73
584.34	44809.56
584.50	44847.00
584.66	44664.44
584.82	44746.36
584.98	45081.06
585.14	44926.58
585.30	44945.31
585.46	44811.90
585.62	44304.00
585.78	44603.59
585.94	44353.15
586.10	44610.61
586.26	44697.21
586.42	44781.47
586.58	44870.41
586.74	45270.64
586.90	44683.17
587.06	44690.19
587.22	45071.70
587.38	44631.68
587.54	44554.44
587.70	44889.13
587.86	45265.96
588.02	44835.30
588.18	44830.62
588.34	44563.80
588.49	44575.50
588.65	44456.14
588.81	44570.82
588.97	44425.71
589.13	44573.16
589.29	44725.30
589.45	44809.56
589.61	44807.22
589.77	45102.12
589.93	44905.52
590.08	45076.38
590.24	45045.95
590.40	45287.03
590.56	45102.12
590.72	45029.57
590.88	44961.69
591.04	44891.48
591.20	45041.27
591.35	45181.70
591.51	45038.93
591.67	44563.80
591.83	44755.72
591.99	44699.55
592.15	44744.02
592.31	44889.13
592.46	45034.25
592.62	44486.56
592.78	44608.27
592.94	45200.43
593.10	44985.10
593.26	45139.57
593.41	44891.48
593.57	44938.29
593.73	44949.99
593.89	45198.09
594.05	45104.46
594.20	45202.77
594.36	45329.16
594.52	44905.52
594.68	44987.44
594.84	45158.30
594.99	45303.41
595.15	44968.71
595.31	45275.32
595.47	44917.22
595.62	44718.28
595.78	45207.45
595.94	45298.73
596.10	45385.33
596.25	45450.86
596.41	45212.13
596.57	44957.01
596.73	44971.05
596.88	44858.71
597.04	45289.37
597.20	45408.73
597.36	44961.69
597.51	45607.68
597.67	44978.07
597.83	45167.66
597.99	45457.88
598.14	45050.63
598.30	45572.57
598.46	45216.81
598.61	44989.78
598.77	44760.40
598.93	44809.56
599.09	45390.01
599.24	45717.68
599.40	45516.40
599.56	45717.68
599.71	45317.45
599.87	44900.84
600.03	44816.58
600.18	45336.18
600.34	45455.54
600.50	45495.33
600.65	45399.37
600.81	45333.84
600.97	45432.14
601.12	45193.40
601.28	45879.18
601.44	45375.97
601.59	45415.76
601.75	44655.08
601.91	45394.69
602.06	45308.09
602.22	45364.26
602.37	45174.68
602.53	45038.93
602.69	45357.24
602.84	45450.86
603.00	44875.09
603.16	44636.36
603.31	44767.43
603.47	45160.64
603.62	44790.83
603.78	45654.49
603.94	45106.80
604.09	45354.90
604.25	45462.57
604.40	45191.06
604.56	45095.10
604.71	45610.02
604.87	45242.56
605.03	45184.04
605.18	45434.48
605.34	44989.78
605.49	44847.00
605.65	45106.80
605.80	45462.57
605.96	45464.91
606.12	45055.31
606.27	44996.80
606.43	45116.17
606.58	45221.49
606.74	44985.10
606.89	44626.99
607.05	45099.78
607.20	44793.17
607.36	44884.45
607.51	45219.15
607.67	44828.28
607.82	44926.58
607.98	44945.31
608.13	45270.64
608.29	44385.92
608.44	44444.43
608.60	44231.44
608.75	44100.37
608.91	44449.11
609.06	44868.07
609.22	45127.87
609.37	44957.01
609.53	44671.46
609.68	44437.41
609.84	44727.64
609.99	44968.71
610.15	44825.94
610.30	44404.64
610.46	44292.30
610.61	44608.27
610.76	44617.63
610.92	44758.06
611.07	44083.99
611.23	44580.18
611.38	44395.28
611.54	44409.32
611.69	44629.34
611.84	44289.96
612.00	44594.23
612.15	44659.76
612.31	44685.51
612.46	44676.15
612.62	44395.28
612.77	44577.84
612.92	44715.93
613.08	44442.09
613.23	44507.63
613.39	44156.55
613.54	43871.00
613.69	44392.94
613.85	44589.55
614.00	44540.39
614.15	44559.12
614.31	44563.80
614.46	44727.64
614.62	44320.38
614.77	43880.36
614.92	44196.34
615.08	44100.37
615.23	44261.87
615.38	43557.37
615.54	43475.45
615.69	43981.01
615.84	43540.99
616.00	44091.01
616.15	43941.22
616.30	44219.74
616.46	43826.53
616.61	43339.70
616.76	44006.75
616.92	43796.10
617.07	44044.20
617.22	43859.30
617.37	43786.74
617.53	43674.40
617.68	43756.32
617.83	43655.67
617.99	44149.53
618.14	43735.25
618.29	43501.20
618.45	43519.92
618.60	43147.78
618.75	43615.88
618.90	43665.03
619.06	44236.12
619.21	43217.99
619.36	43187.56
619.51	43292.89
619.67	43278.85
619.82	43400.55
619.97	43821.85
620.12	43274.16
620.28	43000.32
620.43	43227.35
620.58	43091.60
620.73	43414.60
620.89	43225.01
621.04	43416.94
621.19	43189.91
621.34	42859.89
621.49	43161.82
621.65	43253.10
621.80	43098.62
621.95	43058.84
622.10	43133.73
622.25	42878.61
622.41	42642.22
622.56	42820.10
622.71	43232.04
622.86	42815.42
623.01	43222.67
623.16	42913.72
623.32	43126.71
623.47	43107.99
623.62	42990.96
623.77	42740.52
623.92	43126.71
624.07	42478.38
624.23	42621.16
624.38	42777.97
624.53	42557.96
624.68	42770.95
624.83	42686.69
624.98	42693.71
625.13	42508.81
625.29	42417.53
625.44	42642.22
625.59	42447.96
625.74	42190.50
625.89	42298.16
626.04	42195.18
626.19	42473.70
626.34	41916.65
626.49	42616.47
626.65	42054.75
626.80	42471.36
626.95	42494.77
627.10	42251.35
627.25	41954.10
627.40	41926.02
627.55	42033.68
627.70	41394.71
627.85	42115.60
628.00	42134.32
628.15	42244.33
628.30	42014.96
628.45	41949.42
628.60	42085.17
628.76	42153.05
628.91	42209.22
629.06	42014.96
629.21	41563.23
629.36	41368.97
629.51	41354.93
629.66	41659.20
629.81	41701.32
629.96	41319.82
630.11	41383.01
630.26	41291.73
630.41	41654.51
630.56	41563.23
630.71	41581.96
630.86	41773.88
631.01	41401.74
631.16	41390.03
631.31	41088.10
631.46	40964.06
631.61	41560.89
631.76	41549.19
631.91	41860.48
632.06	41483.66
632.21	41263.64
632.36	41790.27
632.51	41502.38
632.66	41373.65
632.81	40704.26
632.96	41219.17
633.10	40807.24
633.25	41212.15
633.40	41085.76
633.55	41233.22
633.70	41001.50
633.85	41167.68
634.00	41448.55
634.15	41170.02
634.30	41116.19
634.45	40748.73
634.60	41036.61
634.75	41165.34
634.90	40928.95
635.05	40919.59
635.19	40655.11
635.34	40950.01
635.49	40573.19
635.64	40828.30
635.79	40535.74
635.94	40793.20
636.09	40491.27
636.24	40837.67
636.39	40430.41
636.53	40217.43
636.68	40294.66
636.83	40722.98
636.98	40830.65
637.13	40423.39
637.28	40465.52
637.43	40451.48
637.57	40517.01
637.72	40484.25
637.87	40849.37
638.02	40432.75
638.17	40612.98
638.32	40432.75
638.46	39983.37
638.61	39990.39
638.76	40126.14
638.91	40079.33
639.06	40278.28
639.20	40086.36
639.35	40690.21
639.50	39894.43
639.65	40481.91
639.80	39995.07
639.94	40062.95
640.09	40130.83
640.24	40201.04
640.39	39770.38
640.54	39922.52
640.68	39985.71
640.83	40034.86
640.98	39800.81
641.13	39480.16
641.27	40116.78
641.42	39810.17
641.57	40285.30
641.72	39711.87
641.86	39756.34
642.01	39512.92
642.16	39409.94
642.31	39131.42
642.45	39438.03
642.60	39370.15
642.75	39402.92
642.90	39225.04
643.04	39597.18
643.19	39641.65
643.34	39660.38
643.48	39239.08
643.63	39941.24
643.78	39164.18
643.93	39159.50
644.07	39030.77
644.22	39304.62
644.37	38749.91
644.51	39311.64
644.66	39009.71
644.81	39346.75
644.95	39098.65
645.10	39119.71
645.25	39786.77
645.39	39241.42
645.54	39145.46
645.69	39203.97
645.83	39002.69
645.98	38983.96
646.13	39021.41
646.27	39002.69
646.42	39227.38
646.57	38712.46
646.71	38981.62
646.86	38831.83
647.00	39122.05
647.15	38742.89
647.30	39168.87
647.44	38464.36
647.59	38920.77
647.74	38871.62
647.88	38679.69
648.03	38834.17
648.17	38595.43
648.32	38382.45
648.47	38452.66
648.61	38333.29
648.76	38869.28
648.90	39030.77
649.05	38494.79
649.20	38534.58
649.34	38548.62
649.49	38799.06
649.63	38239.67
649.78	38099.24
649.92	38274.78
650.07	38829.49
650.21	38316.91
650.36	38410.53
650.51	38089.88
650.65	38646.93
650.80	38859.91
650.94	38773.31
651.09	38167.12
651.23	38305.21
651.38	38113.28
651.52	37874.55
651.67	37839.44
651.81	37972.85
651.96	37778.59
652.10	38497.13
652.25	38092.22
652.39	37762.20
652.54	38029.02
652.68	38029.02
652.83	38036.05
652.97	38707.78
653.12	38029.02
653.26	37818.38
653.41	38080.52
653.55	37577.30
653.70	37560.92
653.84	38019.66
653.99	38071.15
654.13	37626.45
654.27	37862.85
654.42	37677.94
654.56	37666.24
654.71	37668.58
654.85	37256.65
655.00	37324.52
655.14	37102.17
655.29	37130.26
655.43	37134.94
655.57	37163.03
655.72	37106.85
655.86	37301.12
656.01	36847.05
656.15	37141.96
656.30	37111.53
656.44	36847.05
656.58	37266.01
656.73	36772.16
656.87	37031.96
657.01	36673.85
657.16	36900.89
657.30	36549.81
657.45	36715.98
657.59	36678.54
657.73	37013.23
657.88	36783.86
658.02	36968.76
658.16	36804.92
658.31	37301.12
658.45	36971.10
658.60	37053.02
658.74	36966.42
658.88	36992.17
659.03	36156.60
659.17	36182.34
659.31	36144.89
659.46	36219.79
659.60	36589.59
659.74	36416.40
659.89	36109.78
660.03	36306.39
660.17	36271.28
660.32	36285.33
660.46	36500.65
660.60	36203.41
660.74	36402.35
660.89	35936.59
661.03	36006.80
661.17	35983.40
661.32	35702.53
661.46	35683.81
661.60	35721.26
661.74	35864.03
661.89	35929.56
662.03	35878.07
662.17	36065.31
662.31	35129.10
662.46	35416.99
662.60	36091.06
662.74	35449.75
662.88	35424.01
663.03	35129.10
663.17	35218.04
663.31	35103.35
663.45	35077.61
663.60	35194.64
663.74	35363.15
663.88	35253.15
664.02	34998.03
664.17	34913.77
664.31	35065.91
664.45	35021.44
664.59	34834.19
664.73	34852.92
664.88	34749.93
665.02	34607.16
665.16	34686.74
665.30	35021.44
665.44	34490.13
665.59	34148.42
665.73	34476.09
665.87	34183.52
666.01	34384.81
666.15	34129.69
666.29	34199.91
666.44	34492.47
666.58	34363.75
666.72	34405.88
666.86	34801.43
667.00	34391.83
667.14	33996.28
667.28	33940.11
667.43	33626.48
667.57	33853.51
667.71	33741.16
667.85	33841.81
667.99	33528.17
668.13	33212.20
668.27	33179.43
668.41	33221.56
668.56	33312.84
668.70	33621.80
668.84	33294.12
668.98	32971.13
669.12	33469.66
669.26	33352.63
669.40	32833.04
669.54	33411.15
669.68	33120.92
669.82	32943.04
669.96	32821.33
670.10	32730.05
670.25	32498.34
670.39	32943.04
670.53	32606.00
670.67	32788.56
670.81	32854.10
670.95	32617.71
671.09	32917.29
671.23	32666.86
671.37	32573.24
671.51	32425.78
671.65	32456.21
671.79	32084.06
671.93	32271.31
672.07	32011.51
672.21	32114.49
672.35	31988.10
672.49	31854.69
672.63	32081.72
672.77	31611.28
672.91	31559.78
673.05	31534.04
673.19	31564.46
673.33	31489.57
673.47	31417.01
673.61	31477.86
673.75	31189.98
673.89	31292.96
674.03	31321.05
674.17	30892.73
674.31	30801.45
674.45	30567.40
674.59	30869.33
674.73	31068.27
674.87	30696.13
675.01	30895.07
675.15	31019.12
675.29	30735.92
675.43	30485.48
675.56	30384.83
675.70	30293.55
675.84	30143.76
675.98	29525.86
676.12	30604.84
676.26	30141.42
676.40	29757.57
676.54	29755.23
676.68	29736.51
676.82	29303.51
676.96	29483.73
677.10	29481.39
677.23	29682.67
677.37	29151.37
677.51	29310.53
677.65	29069.45
677.79	28620.07
677.93	28938.38
678.07	29247.33
678.21	28844.76
678.34	28655.18
678.48	28744.12
678.62	28751.14
678.76	28346.23
678.90	28397.72
679.04	28273.67
679.18	28320.48
679.31	28271.33
679.45	28020.89
679.59	28032.60
679.73	27758.75
679.87	27768.12
680.00	27716.62
680.14	27723.65
680.28	27892.16
680.42	27424.06
680.56	27398.31
680.70	27548.11
680.83	27498.95
680.97	26820.20
681.11	26939.57
681.25	26485.50
681.39	26621.25
681.52	26780.41
681.66	26925.52
681.80	26490.18
681.94	26553.38
682.07	26602.53
682.21	26480.82
682.35	26382.52
682.49	26712.53
682.62	26338.05
682.76	25874.62
682.90	26204.64
683.04	25940.16
683.17	25837.17
683.31	25900.37
683.45	26115.70
683.59	25500.14
683.72	25504.82
683.86	25301.19
684.00	25432.26
684.13	25633.55
684.27	25298.85
684.41	25174.80
684.55	24964.15
684.68	24905.64
684.82	24765.21
684.96	24996.92
685.09	24889.26
685.23	24482.00
685.37	24800.32
685.50	24355.61
685.64	24315.83
685.78	24133.26
685.91	24364.98
686.05	24018.58
686.19	23868.78
686.32	23953.04
686.46	23810.27
686.60	23405.36
686.73	23470.89
686.87	23566.85
687.01	23344.50
687.14	23213.43
687.28	23056.62
687.42	22754.69
687.55	23094.07
687.69	23124.49
687.82	23014.49
687.96	22993.42
688.10	22974.70
688.23	22279.56
688.37	22155.51
688.50	22363.82
688.64	22270.20
688.78	22108.70
688.91	21785.71
689.05	22045.51
689.18	22017.42
689.32	21715.49
689.46	21766.98
689.59	22293.60
689.73	21839.54
689.86	21717.83
690.00	21621.87
690.13	21631.23
690.27	21514.20
690.41	21490.80
690.54	21310.58
690.68	21418.24
690.81	21259.09
690.95	21102.27
691.08	20938.43
691.22	20931.41
691.35	20760.55
691.49	20863.54
691.62	21015.67
691.76	20547.56
691.89	20688.00
692.03	20423.51
692.16	20140.31
692.30	20458.62
692.43	20500.75
692.57	19990.52
692.70	20159.03
692.84	20058.39
692.97	20006.90
693.11	19620.71
693.24	19936.68
693.38	19934.34
693.51	19363.25
693.65	19688.59
693.78	19555.18
693.92	19365.59
694.05	19262.61
694.19	19091.75
694.32	19094.09
694.45	19400.70
694.59	19105.79
694.72	18967.70
694.86	18890.46
694.99	18656.41
695.13	18604.92
695.26	18724.29
695.39	18249.16
695.53	18314.69
695.66	18361.50
695.80	18469.17
695.93	18359.16
696.07	18146.17
696.20	18314.69
696.33	17998.72
696.47	17905.10
696.60	17919.14
696.73	17886.37
696.87	17554.02
697.00	17635.94
697.14	17544.66
697.27	17406.56
697.40	17687.43
697.54	17198.26
697.67	17167.83
697.80	17167.83
697.94	16992.29
698.07	16940.80
698.21	17221.66
698.34	17055.48
698.47	16767.60
698.61	16727.81
698.74	16776.96
698.87	16716.11
699.01	16243.32
699.14	16645.89
699.27	16496.10
699.40	16411.84
699.54	16264.38
699.67	16336.94
699.80	16248.00
699.94	16257.36
700.07	15985.86
700.20	15782.23
700.34	15826.70
700.47	15934.37
700.60	15812.66
700.73	15957.77
700.87	15679.25
701.00	15667.55
701.13	15552.86
701.26	15421.79
701.40	15346.89
701.53	15140.93
701.66	15344.55
701.79	15159.65
701.93	15166.67
702.06	15030.92
702.19	14726.65
702.32	14944.32
702.46	14670.48
702.59	14602.60
702.72	14792.19
702.85	15033.26
702.99	14747.72
703.12	14911.55
703.25	14813.25
703.38	14511.32
703.51	14478.55
703.65	14441.11
703.78	14452.81
703.91	14291.31
704.04	14368.55
704.17	14090.02
704.31	14010.45
704.44	13671.07
704.57	13444.04
704.70	13472.12
704.83	13488.51
704.96	13846.61
705.10	13729.58
705.23	13603.19
>>>>>End Processed Spectral Data<<<<<
