SpectraSuite Data File
++++++++++++++++++++++++++++++++++++
Date: Fri Oct 25 10:47:09 EDT 2013
User: price-jones
Dark Spectrum Present: No
Reference Spectrum Present: No
Number of Sampled Component Spectra: 1
Spectrometers: USB2+H05261
Integration Time (usec): 100000 (USB2+H05261)
Spectra Averaged: 1 (USB2+H05261)
Boxcar Smoothing: 0 (USB2+H05261)
Correct for Electrical Dark: No (USB2+H05261)
Strobe/Lamp Enabled: No (USB2+H05261)
Correct for Detector Non-linearity: No (USB2+H05261)
Correct for Stray Light: No (USB2+H05261)
Number of Pixels in Processed Spectrum: 2048
>>>>>Begin Processed Spectral Data<<<<<
365.73	168.52
365.92	168.52
366.12	168.52
366.32	84.26
366.52	39.79
366.72	23.41
366.91	105.32
367.11	11.70
367.31	16.38
367.51	9.36
367.70	46.81
367.90	88.94
368.10	112.35
368.30	0.00
368.49	0.00
368.69	84.26
368.89	77.24
369.09	49.15
369.28	133.41
369.48	65.54
369.68	112.35
369.87	72.56
370.07	126.39
370.27	131.07
370.47	212.99
370.66	348.74
370.86	379.17
371.06	454.06
371.25	463.43
371.45	388.53
371.65	463.43
371.84	458.74
372.04	458.74
372.24	491.51
372.44	456.40
372.63	451.72
372.83	505.56
373.03	524.28
373.22	479.81
373.42	517.26
373.62	543.00
373.81	510.24
374.01	601.52
374.21	578.11
374.40	510.24
374.60	526.62
374.79	447.04
374.99	608.54
375.19	648.33
375.38	528.96
375.58	512.58
375.78	585.13
375.97	582.79
376.17	568.75
376.37	564.07
376.56	482.15
376.76	468.11
376.95	613.22
377.15	662.37
377.35	603.86
377.54	674.07
377.74	594.50
377.93	573.43
378.13	592.16
378.33	692.80
378.52	575.77
378.72	706.84
378.91	631.94
379.11	603.86
379.31	599.18
379.50	578.11
379.70	645.99
379.89	702.16
380.09	713.86
380.28	596.84
380.48	594.50
380.68	622.58
380.87	688.12
381.07	653.01
381.26	667.05
381.46	660.03
381.65	634.29
381.85	704.50
382.04	624.92
382.24	617.90
382.43	681.10
382.63	692.80
382.83	667.05
383.02	674.07
383.22	730.25
383.41	662.37
383.61	716.20
383.80	763.01
384.00	653.01
384.19	770.04
384.39	655.35
384.58	748.97
384.78	711.52
384.97	734.93
385.17	713.86
385.36	737.27
385.56	767.70
385.75	734.93
385.95	788.76
386.14	781.74
386.34	777.06
386.53	786.42
386.72	744.29
386.92	844.93
387.11	755.99
387.31	781.74
387.50	795.78
387.70	798.12
387.89	929.19
388.09	887.06
388.28	870.68
388.48	823.87
388.67	793.44
388.86	898.77
389.06	856.64
389.25	835.57
389.45	915.15
389.64	861.32
389.84	887.06
390.03	964.30
390.22	880.04
390.42	863.66
390.61	868.34
390.81	877.70
391.00	983.02
391.19	910.47
391.39	898.77
391.58	877.70
391.78	908.13
391.97	940.90
392.16	896.43
392.36	1022.81
392.55	957.28
392.75	966.64
392.94	884.72
393.13	980.68
393.33	898.77
393.52	983.02
393.71	987.71
393.91	999.41
394.10	938.55
394.29	1022.81
394.49	1097.71
394.68	994.73
394.88	1095.37
395.07	1097.71
395.26	1050.90
395.46	1083.67
395.65	1076.65
395.84	1069.62
396.04	1149.20
396.23	1095.37
396.42	985.37
396.62	1093.03
396.81	1114.10
397.00	1203.04
397.19	1107.07
397.39	1170.27
397.58	1167.93
397.77	1174.95
397.97	1235.80
398.16	1177.29
398.35	1359.85
398.55	1226.44
398.74	1263.89
398.93	1348.15
399.12	1247.51
399.32	1247.51
399.51	1247.51
399.70	1406.66
399.90	1249.85
400.09	1446.45
400.28	1336.45
400.47	1320.06
400.67	1371.55
400.86	1345.81
401.05	1390.28
401.24	1526.03
401.44	1437.09
401.63	1474.54
401.82	1523.69
402.01	1547.09
402.21	1483.90
402.40	1540.07
402.59	1483.90
402.78	1530.71
402.97	1467.52
403.17	1657.10
403.36	1565.82
403.55	1502.62
403.74	1568.16
403.93	1570.50
404.13	1572.84
404.32	1666.46
404.51	1474.54
404.70	1579.86
404.89	1689.87
405.09	1696.89
405.28	1753.06
405.47	1598.59
405.66	1757.74
405.85	1661.78
406.05	1694.55
406.24	1764.76
406.43	1661.78
406.62	1853.70
406.81	1757.74
407.00	1818.60
407.20	1748.38
407.39	1818.60
407.58	1879.45
407.77	1884.13
407.96	1975.41
408.15	1898.17
408.34	1940.30
408.54	1856.04
408.73	1954.35
408.92	1961.37
409.11	1977.75
409.30	1996.48
409.49	1947.33
409.68	1944.99
409.87	1900.52
410.07	1996.48
410.26	2005.84
410.45	2106.48
410.64	2108.82
410.83	2148.61
411.02	2122.87
411.21	2197.76
411.40	2153.29
411.59	2193.08
411.78	2237.55
411.98	2139.25
412.17	2181.38
412.36	2335.85
412.55	2331.17
412.74	2450.54
412.93	2333.51
413.12	2401.39
413.31	2497.35
413.50	2359.26
413.69	2380.32
413.88	2518.42
414.07	2492.67
414.26	2567.57
414.45	2555.86
414.64	2588.63
414.83	2600.34
415.02	2682.25
415.22	2686.94
415.41	2693.96
415.60	2855.45
415.79	2686.94
415.98	2752.47
416.17	2766.51
416.36	2782.90
416.55	2843.75
416.74	2867.16
416.93	2775.88
417.12	2981.84
417.31	3005.25
417.50	2958.44
417.69	2981.84
417.88	2932.69
418.07	2935.03
418.26	3091.85
418.45	3045.04
418.64	3180.79
418.83	3056.74
419.02	3094.19
419.21	3089.51
419.39	3019.29
419.58	3150.36
419.77	3136.32
419.96	3173.77
420.15	3169.09
420.34	3138.66
420.53	3159.72
420.72	3309.52
420.91	3260.37
421.10	3349.31
421.29	3311.86
421.48	3302.50
421.67	3449.95
421.86	3248.66
422.05	3353.99
422.24	3391.44
422.43	3398.46
422.61	3353.99
422.80	3473.36
422.99	3426.54
423.18	3384.41
423.37	3435.91
423.56	3342.28
423.75	3412.50
423.94	3311.86
424.13	3215.90
424.32	3300.16
424.50	3482.72
424.69	3449.95
424.88	3452.29
425.07	3510.80
425.26	3410.16
425.45	3447.61
425.64	3592.72
425.83	3400.80
426.01	3667.62
426.20	3403.14
426.39	3478.04
426.58	3440.59
426.77	3613.79
426.96	3487.40
427.15	3609.11
427.33	3576.34
427.52	3585.70
427.71	3588.04
427.90	3611.45
428.09	3611.45
428.28	3662.94
428.46	3758.90
428.65	3674.64
428.84	3819.75
429.03	3824.44
429.22	3733.15
429.40	3791.67
429.59	3709.75
429.78	3499.10
429.97	3557.61
430.16	3538.89
430.34	3843.16
430.53	3822.09
430.72	3871.25
430.91	3889.97
431.10	3871.25
431.28	4081.89
431.47	4107.64
431.66	4177.86
431.85	4107.64
432.03	4194.24
432.22	4208.28
432.41	4109.98
432.60	4009.34
432.79	4079.55
432.97	4365.10
433.16	4128.70
433.35	4081.89
433.54	4166.15
433.72	4234.03
433.91	4173.18
434.10	4210.62
434.28	4219.99
434.47	4404.89
434.66	4322.97
434.85	4430.63
435.03	4454.04
435.22	4360.42
435.41	4587.45
435.59	4486.81
435.78	4496.17
435.97	4554.68
436.16	4423.61
436.34	4519.57
436.53	4369.78
436.72	4638.94
436.90	4491.49
437.09	4517.23
437.28	4645.96
437.46	4606.17
437.65	4540.64
437.84	4699.80
438.02	4592.13
438.21	4636.60
438.40	4559.36
438.58	4807.46
438.77	4926.83
438.96	4798.10
439.14	4861.29
439.33	4833.21
439.52	4922.15
439.70	4903.42
439.89	4978.32
440.08	4992.36
440.26	5081.30
440.45	4943.21
440.63	5142.16
440.82	5226.42
441.01	5104.71
441.19	5174.92
441.38	5210.03
441.57	5364.51
441.75	5441.75
441.94	5624.31
442.12	5507.28
442.31	5383.23
442.50	5483.88
442.68	5401.96
442.87	5497.92
443.05	5645.37
443.24	5809.21
443.43	5561.11
443.61	5626.65
443.80	5940.28
443.98	5605.58
444.17	5554.09
444.35	5600.90
444.54	5802.19
444.73	5579.84
444.91	5776.44
445.10	5750.70
445.28	5792.83
445.47	5778.78
445.65	5696.86
445.84	5638.35
446.02	5729.63
446.21	5717.93
446.39	5762.40
446.58	5830.27
446.77	5743.67
446.95	5624.31
447.14	5919.21
447.32	6033.90
447.51	5783.46
447.69	5755.38
447.88	5797.51
448.06	6015.18
448.25	5949.64
448.43	5921.56
448.62	5891.13
448.80	5760.06
448.99	5912.19
449.17	6129.86
449.36	6113.48
449.54	6171.99
449.73	6108.80
449.91	6162.63
450.10	6251.57
450.28	6352.21
450.46	6197.74
450.65	6256.25
450.83	6345.19
451.02	6303.06
451.20	6363.92
451.39	6132.20
451.57	6342.85
451.76	6239.87
451.94	6324.13
452.13	6328.81
452.31	6417.75
452.49	6314.77
452.68	6462.22
452.86	6392.00
453.05	6349.87
453.23	6476.26
453.42	6431.79
453.60	6382.64
453.78	6532.44
453.97	6497.33
454.15	6417.75
454.34	6408.39
454.52	6715.00
454.70	6677.55
454.89	6757.13
455.07	6565.20
455.26	6609.67
455.44	6773.51
455.62	6799.26
455.81	6689.25
455.99	6862.45
456.17	6923.30
456.36	6918.62
456.54	6778.19
456.73	6960.75
456.91	7056.72
457.09	7145.66
457.28	7176.08
457.46	6902.24
457.64	7047.35
457.83	7103.53
458.01	6986.50
458.19	7360.98
458.38	7077.78
458.56	7438.22
458.74	7396.09
458.93	7372.69
459.11	7438.22
459.29	7236.94
459.48	7332.90
459.66	7274.38
459.84	7419.50
460.03	7522.48
460.21	7515.46
460.39	7412.48
460.57	7826.75
460.76	7438.22
460.94	7480.35
461.12	7674.62
461.31	7770.58
461.49	7576.31
461.67	7630.15
461.85	7705.04
462.04	7644.19
462.22	8241.03
462.40	7826.75
462.59	7927.39
462.77	7775.26
462.95	7777.60
463.13	7740.15
463.32	7892.29
463.50	7875.90
463.68	7878.24
463.86	7985.91
464.05	7789.30
464.23	8112.30
464.41	7976.55
464.59	7934.42
464.78	8138.04
464.96	8044.42
465.14	8077.19
465.32	8159.11
465.50	8409.54
465.69	8201.24
465.87	8168.47
466.05	8226.98
466.23	8196.56
466.41	8236.35
466.60	8519.55
466.78	8308.90
466.96	8304.22
467.14	8241.03
467.32	8409.54
467.51	8299.54
467.69	8088.89
467.87	8360.39
468.05	8524.23
468.23	8311.24
468.41	8437.63
468.60	8559.34
468.78	8531.25
468.96	8486.78
469.14	8734.88
469.32	8620.19
469.50	8540.61
469.69	8791.05
469.87	8753.60
470.05	8765.31
470.23	8692.75
470.41	8662.32
470.59	8826.16
470.77	8798.07
470.95	8823.82
471.14	8947.87
471.32	8819.14
471.50	9043.83
471.68	9039.15
471.86	9282.56
472.04	9298.95
472.22	9392.57
472.40	9359.80
472.58	9198.31
472.77	9219.37
472.95	9500.23
473.13	9778.76
473.31	9408.95
473.49	9305.97
473.67	9390.23
473.85	9516.62
474.03	9720.24
474.21	9767.06
474.39	10001.11
474.57	9776.42
474.75	10094.73
474.93	9909.83
475.12	9745.99
475.30	10099.41
475.48	10057.28
475.66	9912.17
475.84	10080.69
476.02	10235.16
476.20	10251.55
476.38	10396.66
476.56	10501.98
476.74	10572.20
476.92	10532.41
477.10	10483.26
477.28	10806.25
477.46	10810.93
477.64	10949.03
477.82	11042.65
478.00	10909.24
478.18	10981.79
478.36	11286.06
478.54	11211.17
478.72	11199.46
478.90	11494.37
479.08	11527.14
479.26	11686.29
479.44	11620.76
479.62	11985.88
479.80	11831.41
479.98	12018.65
480.16	12421.22
480.34	12248.02
480.52	12343.99
480.70	12290.15
480.88	12145.04
481.06	12343.99
481.24	12360.37
481.41	12746.56
481.59	12753.58
481.77	12748.90
481.95	12931.46
482.13	13069.55
482.31	13158.49
482.49	13247.43
482.67	13214.66
482.85	13378.50
483.03	13486.17
483.21	13462.76
483.39	13715.54
483.57	13860.65
483.74	13886.40
483.92	13949.59
484.10	13926.19
484.28	14377.91
484.46	14712.61
484.64	14684.52
484.82	14410.68
485.00	14682.18
485.18	14869.42
485.35	15000.49
485.53	14869.42
485.71	14904.53
485.89	15136.24
486.07	15255.61
486.25	15300.08
486.43	15459.24
486.61	15377.32
486.78	15517.75
486.96	15756.49
487.14	16238.64
487.32	15836.06
487.50	16362.69
487.68	16397.79
487.85	16596.74
488.03	16765.26
488.21	16741.85
488.39	16695.04
488.57	17064.85
488.75	17018.04
488.92	17514.23
489.10	17572.74
489.28	17757.64
489.46	17504.87
489.64	17364.43
489.81	18221.07
489.99	18064.25
490.17	18410.65
490.35	18457.46
490.53	18174.26
490.70	18347.46
490.88	18492.57
491.06	18595.56
491.24	18993.45
491.41	19082.39
491.59	18834.29
491.77	19026.21
491.95	18963.02
492.13	19222.82
492.30	19187.71
492.48	19419.42
492.66	19506.02
492.84	19693.27
493.01	19859.45
493.19	19740.08
493.37	20315.85
493.54	20411.81
493.72	20533.52
493.90	20304.15
494.08	20844.81
494.25	20851.83
494.43	21008.65
494.61	21231.00
494.79	21156.10
494.96	21198.23
495.14	21128.02
495.32	21472.07
495.49	21418.24
495.67	21610.17
495.85	21769.32
496.02	21617.19
496.20	21942.52
496.38	22157.85
496.55	22218.71
496.73	22396.59
496.91	22345.09
497.09	22469.14
497.26	22857.67
497.44	22742.99
497.62	22890.44
497.79	23030.87
497.97	22930.23
498.14	23309.40
498.32	23501.32
498.50	23431.10
498.67	23623.03
498.85	23477.91
499.03	23948.36
499.20	23999.85
499.38	23506.00
499.56	24086.45
499.73	23924.96
499.91	23843.04
500.08	24201.14
500.26	24067.73
500.44	24643.50
500.61	24472.64
500.79	24404.77
500.97	24386.04
501.14	24833.08
501.32	25053.09
501.49	24917.34
501.67	24723.08
501.84	25156.08
502.02	25076.50
502.20	25443.96
502.37	25596.10
502.55	25076.50
502.72	25628.87
502.90	25493.12
503.07	25603.12
503.25	25797.38
503.43	25537.59
503.60	25759.94
503.78	26054.84
503.95	25776.32
504.13	26022.08
504.30	26101.65
504.48	26401.24
504.65	26457.42
504.83	26841.26
505.01	26431.67
505.18	26644.66
505.36	26888.07
505.53	26644.66
505.71	27187.66
505.88	27129.15
506.06	26698.49
506.23	26991.06
506.41	27075.32
506.58	27300.01
506.76	27339.80
506.93	27377.25
507.11	27370.22
507.28	27637.05
507.46	27651.09
507.63	27424.06
507.81	27814.93
507.98	27840.67
508.16	27985.79
508.33	27845.35
508.50	28168.35
508.68	28168.35
508.85	28512.41
509.03	28238.56
509.20	28180.05
509.38	28652.84
509.55	28524.11
509.73	28851.78
509.90	28460.91
510.08	28842.42
510.25	28774.55
510.42	29312.87
510.60	28898.59
510.77	28790.93
510.95	29436.92
511.12	29146.69
511.30	29687.36
511.47	29432.24
511.64	29638.20
511.82	29516.50
511.99	29390.11
512.17	29738.85
512.34	30022.05
512.51	30012.69
512.69	29778.64
512.86	29825.45
513.04	30373.13
513.21	30085.25
513.38	30588.46
513.56	30396.54
513.73	30068.86
513.90	30319.30
514.08	30478.46
514.25	30696.13
514.43	30789.75
514.60	30206.95
514.77	30775.70
514.95	31112.74
515.12	31068.27
515.29	31014.44
515.47	31307.01
515.64	31164.23
515.81	31185.30
515.99	31257.85
516.16	31241.47
516.33	31519.99
516.51	31557.44
516.68	31377.22
516.85	31255.51
517.03	31379.56
517.20	31510.63
517.37	31484.89
517.54	31908.52
517.72	31566.81
517.89	31175.94
518.06	31868.73
518.24	32039.59
518.41	32079.38
518.58	32130.87
518.75	32168.32
518.93	32259.60
519.10	32109.81
519.27	32716.01
519.45	32561.53
519.62	32833.04
519.79	32753.46
519.96	32755.80
520.14	33219.22
520.31	32844.74
520.48	32900.91
520.65	33141.99
520.83	33263.69
521.00	33287.10
521.17	33039.00
521.34	33544.56
521.52	33525.83
521.69	33383.06
521.86	33766.91
522.03	33556.26
522.20	33603.07
522.38	33860.53
522.55	33954.15
522.72	33811.38
522.89	33930.75
523.07	33652.22
523.24	34071.18
523.41	34026.71
523.58	34110.97
523.75	34873.98
523.92	34370.77
524.10	34403.53
524.27	34452.69
524.44	34560.35
524.61	34829.51
524.78	34740.57
524.96	34595.46
525.13	34747.59
525.30	35159.53
525.47	35047.18
525.64	35093.99
525.81	35014.41
525.98	35241.45
526.16	35044.84
526.33	35115.06
526.50	35564.44
526.67	35330.39
526.84	35037.82
527.01	34735.89
527.18	35152.51
527.36	35557.42
527.53	35634.66
527.70	35962.33
527.87	35903.82
528.04	35681.47
528.21	36130.85
528.38	35697.85
528.55	35859.35
528.72	35768.07
528.89	36493.63
529.07	36119.15
529.24	36154.26
529.41	36086.38
529.58	36177.66
529.75	35899.14
529.92	36170.64
530.09	36474.91
530.26	36435.12
530.43	36538.10
530.60	35901.48
530.77	36212.77
530.94	36615.34
531.11	36491.29
531.28	36346.18
531.46	36825.99
531.63	36800.24
531.80	36751.09
531.97	37296.44
532.14	37226.22
532.31	37235.58
532.48	36959.40
532.65	37137.28
532.82	37584.32
532.99	37383.04
533.16	36830.67
533.33	37294.10
533.50	37612.41
533.67	37411.12
533.84	37404.10
534.01	37013.23
534.18	37427.51
534.35	37727.10
534.52	37560.92
534.69	37673.26
534.86	37556.24
535.03	37443.89
535.20	37909.66
535.37	38026.68
535.54	38106.26
535.71	37858.17
535.88	37965.83
536.05	38005.62
536.22	38061.79
536.38	38347.34
536.55	38218.61
536.72	38202.22
536.89	37762.20
537.06	38160.09
537.23	38581.39
537.40	38483.09
537.57	38340.32
537.74	38616.50
537.91	38689.06
538.08	38747.57
538.25	38377.76
538.42	38689.06
538.59	38616.50
538.75	38712.46
538.92	38869.28
539.09	38782.68
539.26	39028.43
539.43	39119.71
539.60	38955.88
539.77	38604.80
539.94	39112.69
540.11	38983.96
540.28	39276.53
540.44	39332.70
540.61	39131.42
540.78	39152.48
540.95	39545.69
541.12	39072.90
541.29	39178.23
541.46	39480.16
541.62	39461.43
541.79	39615.91
541.96	38972.26
542.13	38904.38
542.30	38916.09
542.47	39470.79
542.63	39517.60
542.80	39999.76
542.97	40123.80
543.14	39999.76
543.31	39859.32
543.48	39985.71
543.64	40610.64
543.81	40105.08
543.98	40196.36
544.15	40158.91
544.32	40556.80
544.48	40282.96
544.65	40280.62
544.82	40156.57
544.99	40212.74
545.16	40863.41
545.32	40610.64
545.49	40828.30
545.66	40830.65
545.83	40718.30
546.00	41064.70
546.16	40802.56
546.33	40751.07
546.50	39995.07
546.67	40673.83
546.83	40266.58
547.00	40870.43
547.17	40842.35
547.34	40685.53
547.50	41013.21
547.67	41125.55
547.84	40631.70
548.00	41078.74
548.17	41130.23
548.34	41036.61
548.51	41991.55
548.67	41563.23
548.84	41347.90
549.01	41331.52
549.18	41258.96
549.34	41535.15
549.51	41247.26
549.68	41926.02
549.84	41495.36
550.01	41507.06
550.18	41640.47
550.34	41542.17
550.51	41177.04
550.68	41486.00
550.84	41249.60
551.01	42040.70
551.18	41460.25
551.34	41621.75
551.51	41949.42
551.68	42089.85
551.84	41696.64
552.01	41926.02
552.18	41551.53
552.34	41684.94
552.51	42202.20
552.68	41888.57
552.84	42085.17
553.01	42312.20
553.18	42052.41
553.34	42075.81
553.51	41902.61
553.67	42319.23
553.84	42726.48
554.01	42642.22
554.17	42359.02
554.34	42471.36
554.51	42209.22
554.67	42649.24
554.84	42579.03
555.00	42478.38
555.17	41818.35
555.33	42300.50
555.50	42527.53
555.67	42738.18
555.83	42759.25
556.00	42815.42
556.16	42763.93
556.33	42794.36
556.50	42911.38
556.66	42909.04
556.83	42213.90
556.99	42916.06
557.16	42932.45
557.32	42990.96
557.49	42789.67
557.65	42354.33
557.82	42644.56
557.98	42815.42
558.15	42899.68
558.32	42918.40
558.48	42749.88
558.65	42663.28
558.81	43250.76
558.98	42993.30
559.14	43065.86
559.31	42787.33
559.47	43012.02
559.64	43182.88
559.80	43299.91
559.97	42904.36
560.13	42946.49
560.30	43136.07
560.46	43166.50
560.63	43138.41
560.79	43356.08
560.96	43239.06
561.12	43302.25
561.29	43105.65
561.45	43271.82
561.61	43578.43
561.78	43168.84
561.94	43133.73
562.11	43262.46
562.27	43482.47
562.44	43276.51
562.60	43316.29
562.77	43533.96
562.93	42848.19
563.10	43346.72
563.26	43086.92
563.42	43583.12
563.59	43559.71
563.75	43072.88
563.92	43557.37
564.08	43648.65
564.24	43585.46
564.41	43578.43
564.57	43428.64
564.74	43702.48
564.90	43732.91
565.07	43784.40
565.23	43297.57
565.39	43489.49
565.56	43878.02
565.72	43515.24
565.88	43571.41
566.05	43597.16
566.21	43728.23
566.38	43370.13
566.54	43646.31
566.70	43681.42
566.87	44208.04
567.03	44119.10
567.19	43924.83
567.36	43922.49
567.52	43744.61
567.68	43838.23
567.85	43791.42
568.01	43866.32
568.17	43667.37
568.34	44271.23
568.50	43688.44
568.66	43655.67
568.83	43784.40
568.99	43473.11
569.15	43835.89
569.32	43585.46
569.48	43838.23
569.64	44020.80
569.81	43971.64
569.97	43906.11
570.13	43744.61
570.30	43931.86
570.46	43522.26
570.62	43931.86
570.78	43695.46
570.95	44074.63
571.11	44196.34
571.27	44039.52
571.43	43957.60
571.60	44229.10
571.76	43854.62
571.92	44222.08
572.09	43924.83
572.25	44098.03
572.41	44030.16
572.57	43856.96
572.74	44205.70
572.90	44133.14
573.06	43922.49
573.22	44027.82
573.38	44158.89
573.55	43924.83
573.71	43702.48
573.87	43510.56
574.03	43749.29
574.20	44374.22
574.36	43955.26
574.52	44280.60
574.68	44259.53
574.84	44561.46
575.01	44100.37
575.17	44250.17
575.33	43906.11
575.49	43758.66
575.65	44315.70
575.82	44694.87
575.98	44051.22
576.14	44617.63
576.30	44430.39
576.46	44034.84
576.62	43875.68
576.79	44369.54
576.95	43936.54
577.11	43901.43
577.27	44500.61
577.43	44240.81
577.59	44545.08
577.75	44519.33
577.92	43728.23
578.08	44121.44
578.24	43976.33
578.40	44519.33
578.56	43863.98
578.72	44037.18
578.88	44395.28
579.04	44591.89
579.21	44362.51
579.37	44088.67
579.53	44126.12
579.69	43948.24
579.85	44353.15
580.01	44273.57
580.17	44559.12
580.33	44196.34
580.49	44472.52
580.65	44371.88
580.82	44559.12
580.98	44582.52
581.14	44329.75
581.30	44362.51
581.46	44355.49
581.62	44449.11
581.78	43957.60
581.94	44409.32
582.10	44208.04
582.26	44339.11
582.42	44444.43
582.58	44751.04
582.74	44041.86
582.90	44509.97
583.06	44587.21
583.22	44524.01
583.38	44746.36
583.54	44577.84
583.70	44004.41
583.86	44140.16
584.02	43805.47
584.18	44137.82
584.34	44467.84
584.50	44861.05
584.66	43938.88
584.82	44341.45
584.98	44830.62
585.14	44797.85
585.30	44584.86
585.46	44573.16
585.62	44250.17
585.78	44584.86
585.94	44224.42
586.10	44449.11
586.26	44584.86
586.42	44732.32
586.58	44690.19
586.74	44378.90
586.90	44175.27
587.06	44271.23
587.22	44987.44
587.38	44072.29
587.54	44336.77
587.70	44509.97
587.86	44612.95
588.02	44926.58
588.18	44760.40
588.34	44439.75
588.49	43756.32
588.65	44339.11
588.81	43758.66
588.97	44414.01
589.13	44435.07
589.29	44320.38
589.45	44509.97
589.61	44725.30
589.77	44947.65
589.93	44907.86
590.08	44428.05
590.24	44729.98
590.40	44706.57
590.56	44591.89
590.72	44112.08
590.88	44891.48
591.04	45022.54
591.20	44563.80
591.35	44942.97
591.51	44982.76
591.67	44622.31
591.83	44502.95
591.99	44631.68
592.15	44313.36
592.31	44907.86
592.46	44617.63
592.62	44685.51
592.78	45223.83
592.94	44896.16
593.10	45008.50
593.26	44739.34
593.41	44594.23
593.57	44783.81
593.73	44425.71
593.89	44954.67
594.05	44554.44
594.20	44304.00
594.36	44357.83
594.52	44619.97
594.68	44498.26
594.84	44940.63
594.99	45284.68
595.15	45296.39
595.31	44898.50
595.47	44893.82
595.62	44795.51
595.78	45425.12
595.94	45024.89
596.10	44886.79
596.25	45195.74
596.41	45106.80
596.57	44362.51
596.73	45111.49
596.88	44765.09
597.04	44816.58
597.20	45069.36
597.36	44910.20
597.51	45034.25
597.67	45067.02
597.83	44879.77
597.99	45261.28
598.14	44690.19
598.30	44985.10
598.46	44722.96
598.61	45038.93
598.77	44622.31
598.93	44919.56
599.09	44619.97
599.24	45125.53
599.40	44987.44
599.56	45048.29
599.71	45436.82
599.87	44779.13
600.03	45184.04
600.18	44421.03
600.34	44753.38
600.50	44744.02
600.65	44732.32
600.81	44854.03
600.97	45345.54
601.12	44978.07
601.28	45041.27
601.44	44491.24
601.59	45090.42
601.75	44980.42
601.91	44830.62
602.06	44858.71
602.22	44968.71
602.37	44514.65
602.53	45017.86
602.69	45280.00
602.84	44851.69
603.00	44624.65
603.16	44638.70
603.31	44659.76
603.47	44823.60
603.62	44690.19
603.78	45071.70
603.94	44580.18
604.09	45127.87
604.25	45336.18
604.40	45226.17
604.56	44816.58
604.71	45284.68
604.87	44758.06
605.03	45069.36
605.18	44587.21
605.34	44889.13
605.49	44779.13
605.65	44825.94
605.80	44917.22
605.96	44542.74
606.12	45240.21
606.27	45340.86
606.43	44863.39
606.58	45202.77
606.74	44474.86
606.89	44626.99
607.05	44832.96
607.20	44701.89
607.36	44875.09
607.51	45010.84
607.67	44800.19
607.82	44690.19
607.98	44573.16
608.13	44835.30
608.29	44495.92
608.44	44758.06
608.60	43597.16
608.75	44203.36
608.91	43873.34
609.06	43973.98
609.22	44760.40
609.37	44619.97
609.53	44491.24
609.68	44402.30
609.84	44552.10
609.99	44013.77
610.15	44315.70
610.30	44041.86
610.46	43889.73
610.61	44538.05
610.76	44254.85
610.92	44161.23
611.07	44863.39
611.23	44692.53
611.38	44395.28
611.54	44032.50
611.69	43931.86
611.84	44301.66
612.00	44163.57
612.15	44451.45
612.31	43896.75
612.46	44069.95
612.62	44596.57
612.77	44081.65
612.92	44196.34
613.08	44161.23
613.23	44481.88
613.39	44116.76
613.54	43688.44
613.69	44037.18
613.85	44259.53
614.00	44402.30
614.15	44231.44
614.31	44151.87
614.46	44378.90
614.62	43983.35
614.77	44107.40
614.92	43934.20
615.08	43810.15
615.23	43732.91
615.38	43849.94
615.54	43739.93
615.69	43688.44
615.84	43433.32
616.00	43800.79
616.15	43997.39
616.30	44191.65
616.46	43332.68
616.61	43374.81
616.76	43559.71
616.92	43285.87
617.07	43526.94
617.22	43517.58
617.37	43264.80
617.53	43349.06
617.68	43805.47
617.83	43152.46
617.99	43625.25
618.14	43749.29
618.29	43147.78
618.45	43213.31
618.60	43496.52
618.75	43407.58
618.90	43604.18
619.06	43512.90
619.21	43243.74
619.36	43297.57
619.51	43168.84
619.67	43072.88
619.82	43143.09
619.97	43536.30
620.12	42820.10
620.28	42817.76
620.43	42572.00
620.58	43297.57
620.73	43248.42
620.89	42899.68
621.04	42976.92
621.19	42944.15
621.34	42902.02
621.49	42759.25
621.65	43138.41
621.80	43105.65
621.95	42639.88
622.10	42754.57
622.25	42700.73
622.41	42450.30
622.56	42997.98
622.71	42972.24
622.86	43030.75
623.01	42564.98
623.16	42878.61
623.32	42532.22
623.47	42899.68
623.62	42436.25
623.77	42518.17
623.92	42494.77
624.07	42185.82
624.23	42492.43
624.38	42368.38
624.53	42246.67
624.68	42241.99
624.83	42719.46
624.98	42272.42
625.13	42417.53
625.29	42508.81
625.44	42387.10
625.59	41996.23
625.74	41635.79
625.89	41750.48
626.04	41780.90
626.19	42321.57
626.34	42384.76
626.49	42113.26
626.65	42293.48
626.80	41970.49
626.95	41895.59
627.10	41614.72
627.25	41909.63
627.40	41572.60
627.55	41830.05
627.70	41401.74
627.85	41434.50
628.00	41769.20
628.15	41720.05
628.30	41666.22
628.45	42190.50
628.60	41710.69
628.76	41738.77
628.91	41647.49
629.06	41996.23
629.21	41581.96
629.36	41338.54
629.51	41460.25
629.66	41249.60
629.81	41698.98
629.96	41303.43
630.11	41567.91
630.26	41708.35
630.41	41799.63
630.56	41387.69
630.71	41680.26
630.86	41155.98
631.01	41319.82
631.16	41240.24
631.31	41188.75
631.46	40816.60
631.61	41324.50
631.76	41303.43
631.91	41530.47
632.06	41207.47
632.21	41034.27
632.36	41469.61
632.51	40690.21
632.66	41350.24
632.81	40526.38
632.96	41010.87
633.10	40781.49
633.25	40465.52
633.40	41092.79
633.55	40978.10
633.70	41230.88
633.85	40830.65
634.00	40655.11
634.15	40416.37
634.30	40685.53
634.45	40528.72
634.60	40940.65
634.75	40814.26
634.90	40795.54
635.05	40397.65
635.19	40741.71
635.34	41155.98
635.49	40648.08
635.64	40575.53
635.79	40414.03
635.94	40381.26
636.09	40594.25
636.24	40297.00
636.39	39983.37
636.53	40100.40
636.68	39887.41
636.83	39693.15
636.98	40563.82
637.13	39882.73
637.28	40133.17
637.43	40315.73
637.57	40474.88
637.72	40481.91
637.87	40079.33
638.02	40135.51
638.17	39852.30
638.32	39831.24
638.46	39929.54
638.61	40016.14
638.76	39667.40
638.91	39775.06
639.06	39882.73
639.20	39716.55
639.35	40325.09
639.50	40165.93
639.65	40201.04
639.80	40109.76
639.94	39812.51
640.09	40123.80
640.24	39718.89
640.39	39882.73
640.54	39423.98
640.68	39779.74
640.83	39777.40
640.98	39243.76
641.13	39201.63
641.27	40074.65
641.42	39405.26
641.57	39765.70
641.72	39295.25
641.86	39356.11
642.01	38841.19
642.16	39180.57
642.31	38838.85
642.45	38967.58
642.60	38754.59
642.75	39440.37
642.90	39346.75
643.04	39126.74
643.19	38983.96
643.34	39885.07
643.48	39330.36
643.63	39264.83
643.78	39009.71
643.93	38824.81
644.07	38380.10
644.22	38621.18
644.37	38663.31
644.51	38951.20
644.66	38843.53
644.81	38983.96
644.95	39262.49
645.10	39232.06
645.25	39199.29
645.39	38925.45
645.54	38864.60
645.69	38387.13
645.83	38394.15
645.98	38588.41
646.13	39054.18
646.27	38775.66
646.42	38920.77
646.57	38728.84
646.71	38785.02
646.86	38829.49
647.00	38658.63
647.15	39061.20
647.30	38827.15
647.44	38396.49
647.59	38270.10
647.74	38459.68
647.88	38457.34
648.03	38298.19
648.17	38522.88
648.32	38539.26
648.47	38370.74
648.61	38005.62
648.76	38384.79
648.90	38375.42
649.05	38204.56
649.20	38141.37
649.34	38326.27
649.49	38375.42
649.63	38445.64
649.78	38579.05
649.92	38260.74
650.07	38337.98
650.21	37858.17
650.36	38139.03
650.51	37956.47
650.65	38298.19
650.80	38403.51
650.94	38447.98
651.09	37970.51
651.23	37493.04
651.38	37977.53
651.52	37528.15
651.67	37874.55
651.81	37610.07
651.96	37659.22
652.10	37984.55
652.25	37759.86
652.39	37928.38
652.54	37415.80
652.68	37759.86
652.83	38005.62
652.97	37811.35
653.12	37902.64
653.26	37457.93
653.41	37783.27
653.55	37371.33
653.70	37628.79
653.84	37858.17
653.99	37645.18
654.13	37792.63
654.27	37757.52
654.42	37368.99
654.56	37521.13
654.71	37251.97
654.85	37504.74
655.00	37659.22
655.14	37116.22
655.29	36528.74
655.43	37223.88
655.57	37254.31
655.72	37102.17
655.86	37053.02
656.01	36999.19
656.15	36954.72
656.30	37017.91
656.44	36577.89
656.58	37036.64
656.73	36706.62
656.87	36697.26
657.01	36858.76
657.16	36643.43
657.30	37043.66
657.45	36336.82
657.59	36587.25
657.73	36318.09
657.88	37038.98
658.02	36648.11
658.16	36732.37
658.31	36943.02
658.45	36840.03
658.60	36404.69
658.74	36505.34
658.88	36542.78
659.03	36575.55
659.17	36367.24
659.31	36500.65
659.46	36032.55
659.60	36196.38
659.74	36226.81
659.89	35852.33
660.03	36147.23
660.17	36215.11
660.32	35868.71
660.46	35936.59
660.60	36041.91
660.74	35728.28
660.89	35901.48
661.03	35725.94
661.17	35920.20
661.32	35590.19
661.46	35763.39
661.60	35054.20
661.74	35662.74
661.89	35295.28
662.03	35674.45
662.17	35505.93
662.31	35168.89
662.46	35622.95
662.60	35325.71
662.74	35463.80
662.88	35517.63
663.03	34855.26
663.17	35402.94
663.31	35295.28
663.45	35222.72
663.60	34824.83
663.74	34859.94
663.88	34913.77
664.02	34918.45
664.17	34955.90
664.31	34625.89
664.45	34375.45
664.59	34756.96
664.73	34405.88
664.88	34476.09
665.02	33956.49
665.16	34515.88
665.30	34560.35
665.44	34141.39
665.59	34330.98
665.73	33659.24
665.87	33825.42
666.01	33907.34
666.15	34199.91
666.29	33743.50
666.44	34103.95
666.58	34019.69
666.72	33823.08
666.86	34211.61
667.00	34183.52
667.14	33659.24
667.28	33635.84
667.43	33699.03
667.57	33696.69
667.71	33553.92
667.85	33413.49
667.99	33523.49
668.13	33303.48
668.27	33153.69
668.41	33589.03
668.56	33076.45
668.70	33415.83
668.84	33331.57
668.98	33303.48
669.12	33113.90
669.26	33104.54
669.40	33132.62
669.54	32816.65
669.68	33013.26
669.82	32776.86
669.96	32776.86
670.10	32418.76
670.25	32613.02
670.39	32800.27
670.53	32561.53
670.67	32615.37
670.81	32496.00
670.95	32465.57
671.09	32320.46
671.23	32573.24
671.37	32657.49
671.51	31981.08
671.65	32325.14
671.79	31793.84
671.93	31864.05
672.07	32121.51
672.21	31988.10
672.35	31805.54
672.49	31847.67
672.63	32027.89
672.77	31587.87
672.91	31386.58
673.05	31524.68
673.19	31365.52
673.33	31047.21
673.47	31175.94
673.61	31126.78
673.75	31082.31
673.89	30735.92
674.03	30810.81
674.17	30864.64
674.31	31070.61
674.45	31005.08
674.59	30820.17
674.73	31229.77
674.87	30789.75
675.01	30485.48
675.15	30305.26
675.29	30600.16
675.43	30277.17
675.56	30433.99
675.70	30192.91
675.84	29937.79
675.98	29282.44
676.12	29958.86
676.26	29708.42
676.40	29715.44
676.54	29858.21
676.68	29565.65
676.82	29301.17
676.96	29481.39
677.10	29273.08
677.23	29331.59
677.37	29399.47
677.51	28758.16
677.65	28868.17
677.79	28922.00
677.93	28723.05
678.07	28533.47
678.21	28484.32
678.34	28854.12
678.48	28098.13
678.62	28589.64
678.76	28222.18
678.90	28285.37
679.04	28041.96
679.18	28060.68
679.31	27573.85
679.45	27929.61
679.59	27777.48
679.73	27571.51
679.87	27751.73
680.00	27548.11
680.14	27510.66
680.28	27353.84
680.42	27475.55
680.56	27433.42
680.70	27475.55
680.83	27154.90
680.97	26859.99
681.11	26639.98
681.25	26827.22
681.39	26731.26
681.52	26817.86
681.66	26925.52
681.80	26749.98
681.94	26391.88
682.07	26548.70
682.21	26033.78
682.35	25972.92
682.49	26167.19
682.62	26366.13
682.76	26106.34
682.90	25628.87
683.04	26188.25
683.17	25568.01
683.31	25867.60
683.45	25720.15
683.59	25710.78
683.72	25245.02
683.86	25223.95
684.00	25355.02
684.13	25376.09
684.27	25282.47
684.41	25268.42
684.55	24856.49
684.68	24561.58
684.82	24177.73
684.96	24996.92
685.09	24561.58
685.23	24240.93
685.37	24706.70
685.50	24175.39
685.64	24484.34
685.78	24425.83
685.91	24299.44
686.05	24046.66
686.19	23915.59
686.32	23803.25
686.46	23927.30
686.60	23564.51
686.73	23623.03
686.87	23278.97
687.01	23213.43
687.14	23300.03
687.28	23215.77
687.42	22916.19
687.55	23012.15
687.69	22628.30
687.82	22761.71
687.96	22937.25
688.10	22808.52
688.23	22478.50
688.37	22483.19
688.50	22115.72
688.64	22244.45
688.78	22005.72
688.91	22164.87
689.05	22085.30
689.18	21916.78
689.32	21891.03
689.46	21954.22
689.59	22216.36
689.73	22228.07
689.86	21785.71
690.00	21397.18
690.13	21745.92
690.27	21399.52
690.41	21404.20
690.54	20982.90
690.68	21151.42
690.81	20851.83
690.95	21116.31
691.08	20936.09
691.22	20472.67
691.35	20875.24
691.49	20908.01
691.62	20713.74
691.76	20606.08
691.89	20879.92
692.03	19983.49
692.16	19988.18
692.30	20212.87
692.43	19936.68
692.57	19950.73
692.70	20123.93
692.84	20002.22
692.97	19253.25
693.11	19688.59
693.24	19573.90
693.38	19655.82
693.51	19131.54
693.65	19475.60
693.78	19730.72
693.92	19522.41
694.05	18909.19
694.19	18956.00
694.32	19154.94
694.45	19218.14
694.59	18904.51
694.72	18916.21
694.86	18944.30
694.99	18782.80
695.13	18883.44
695.26	18525.34
695.39	18398.95
695.53	18200.01
695.66	18178.94
695.80	18284.26
695.93	17984.68
696.07	18134.47
696.20	18082.98
696.33	18019.78
696.47	17914.46
696.60	18146.17
696.73	17640.62
696.87	17612.53
697.00	17642.96
697.14	17621.89
697.27	17511.89
697.40	17909.78
697.54	17472.10
697.67	17280.18
697.80	16971.22
697.94	17364.43
698.07	16851.86
698.21	16793.34
698.34	16903.35
698.47	17067.19
698.61	16620.14
698.74	16711.42
698.87	16374.39
699.01	16479.71
699.14	16145.02
699.27	16404.81
699.40	16320.56
699.54	15997.56
699.67	15807.98
699.80	16077.14
699.94	16025.65
700.07	16159.06
700.20	15840.75
700.34	15679.25
700.47	15655.84
700.60	15765.85
700.73	15955.43
700.87	15592.65
701.00	15241.57
701.13	15707.34
701.26	15639.46
701.40	15264.97
701.53	15063.69
701.66	15007.52
701.79	15047.30
701.93	15073.05
702.06	14637.71
702.19	14862.40
702.32	15035.60
702.46	14750.06
702.59	14537.07
702.72	14817.93
702.85	14394.29
702.99	14431.74
703.12	14771.12
703.25	14401.32
703.38	14211.73
703.51	14265.57
703.65	14178.97
703.78	14068.96
703.91	13870.01
704.04	13998.74
704.17	13872.36
704.31	14120.45
704.44	13818.52
704.57	13762.35
704.70	13441.70
704.83	13362.12
704.96	13460.42
705.10	13785.76
705.23	13675.75
>>>>>End Processed Spectral Data<<<<<
