SpectraSuite Data File
++++++++++++++++++++++++++++++++++++
Date: Fri Oct 25 10:48:32 EDT 2013
User: price-jones
Dark Spectrum Present: No
Reference Spectrum Present: No
Number of Sampled Component Spectra: 1
Spectrometers: USB2+H05261
Integration Time (usec): 100000 (USB2+H05261)
Spectra Averaged: 1 (USB2+H05261)
Boxcar Smoothing: 0 (USB2+H05261)
Correct for Electrical Dark: No (USB2+H05261)
Strobe/Lamp Enabled: No (USB2+H05261)
Correct for Detector Non-linearity: No (USB2+H05261)
Correct for Stray Light: No (USB2+H05261)
Number of Pixels in Processed Spectrum: 2048
>>>>>Begin Processed Spectral Data<<<<<
365.73	191.92
365.92	191.92
366.12	191.92
366.32	79.58
366.52	2.34
366.72	0.00
366.91	32.77
367.11	28.09
367.31	72.56
367.51	16.38
367.70	18.72
367.90	42.13
368.10	51.49
368.30	81.92
368.49	23.41
368.69	37.45
368.89	23.41
369.09	72.56
369.28	100.64
369.48	42.13
369.68	124.05
369.87	100.64
370.07	46.81
370.27	147.45
370.47	170.86
370.66	346.40
370.86	430.66
371.06	486.83
371.25	554.71
371.45	543.00
371.65	507.90
371.84	447.04
372.04	538.32
372.24	512.58
372.44	521.94
372.63	559.39
372.83	512.58
373.03	599.18
373.22	507.90
373.42	566.41
373.62	552.37
373.81	585.13
374.01	550.03
374.21	571.09
374.40	620.24
374.60	695.14
374.79	648.33
374.99	610.88
375.19	596.84
375.38	585.13
375.58	599.18
375.78	650.67
375.97	580.45
376.17	636.63
376.37	699.82
376.56	697.48
376.76	653.01
376.95	627.26
377.15	697.48
377.35	669.39
377.54	688.12
377.74	772.38
377.93	676.41
378.13	671.73
378.33	695.14
378.52	779.40
378.72	774.72
378.91	734.93
379.11	655.35
379.31	669.39
379.50	664.71
379.70	706.84
379.89	711.52
380.09	674.07
380.28	681.10
380.48	760.67
380.68	760.67
380.87	723.23
381.07	704.50
381.26	793.44
381.46	748.97
381.65	734.93
381.85	685.78
382.04	758.33
382.24	772.38
382.43	765.36
382.63	676.41
382.83	809.83
383.02	744.29
383.22	795.78
383.41	823.87
383.61	774.72
383.80	734.93
384.00	854.30
384.19	826.21
384.39	793.44
384.58	875.36
384.78	854.30
384.97	718.54
385.17	816.85
385.36	748.97
385.56	858.98
385.75	861.32
385.95	814.51
386.14	856.64
386.34	854.30
386.53	947.92
386.72	786.42
386.92	945.58
387.11	891.74
387.31	971.32
387.50	898.77
387.70	880.04
387.89	863.66
388.09	884.72
388.28	943.24
388.48	940.90
388.67	940.90
388.86	994.73
389.06	1027.50
389.25	1090.69
389.45	1008.77
389.64	992.39
389.84	1027.50
390.03	1083.67
390.22	1055.58
390.42	1081.33
390.61	1008.77
390.81	1067.28
391.00	1081.33
391.19	1041.54
391.39	1043.88
391.58	1186.65
391.78	1163.25
391.97	1086.01
392.16	1008.77
392.36	1067.28
392.55	1132.82
392.75	1053.24
392.94	1043.88
393.13	1076.65
393.33	1043.88
393.52	1149.20
393.71	1210.06
393.91	1163.25
394.10	1144.52
394.29	1177.29
394.49	1217.08
394.68	1212.40
394.88	1196.01
395.07	1296.66
395.26	1163.25
395.46	1219.42
395.65	1289.64
395.84	1275.59
396.04	1348.15
396.23	1242.82
396.42	1228.78
396.62	1306.02
396.81	1268.57
397.00	1324.74
397.19	1334.11
397.39	1446.45
397.58	1453.47
397.77	1502.62
397.97	1629.01
398.16	1528.37
398.35	1509.65
398.55	1472.20
398.74	1488.58
398.93	1689.87
399.12	1596.25
399.32	1661.78
399.51	1554.12
399.70	1563.48
399.90	1577.52
400.09	1614.97
400.28	1692.21
400.47	1671.14
400.67	1746.04
400.86	1717.95
401.05	1689.87
401.24	1706.25
401.44	1715.61
401.63	1741.36
401.82	1748.38
402.01	1722.63
402.21	1881.79
402.40	1739.02
402.59	1755.40
402.78	1783.49
402.97	1767.10
403.17	1900.52
403.36	1881.79
403.55	1853.70
403.74	1893.49
403.93	1842.00
404.13	1865.41
404.32	1827.96
404.51	1867.75
404.70	2052.65
404.89	1937.96
405.09	1935.62
405.28	2047.97
405.47	1940.30
405.66	2113.50
405.85	2008.18
406.05	2054.99
406.24	2040.95
406.43	2090.10
406.62	2183.72
406.81	2225.85
407.00	2101.80
407.20	2083.08
407.39	2207.13
407.58	2258.62
407.77	2197.76
407.96	2293.72
408.15	2246.91
408.34	2242.23
408.54	2340.54
408.73	2422.45
408.92	2312.45
409.11	2483.31
409.30	2267.98
409.49	2258.62
409.68	2307.77
409.87	2303.09
410.07	2431.82
410.26	2511.39
410.45	2483.31
410.64	2490.33
410.83	2513.74
411.02	2462.24
411.21	2663.53
411.40	2663.53
411.59	2600.34
411.78	2607.36
411.98	2579.27
412.17	2677.57
412.36	2733.75
412.55	2766.51
412.74	2752.47
412.93	2715.02
413.12	2832.05
413.31	2928.01
413.50	2808.64
413.69	2942.05
413.88	3087.17
414.07	2951.42
414.26	2988.86
414.45	3021.63
414.64	3035.67
414.83	3131.64
415.02	3131.64
415.22	3222.92
415.41	3124.62
415.60	3112.91
415.79	3129.30
415.98	3361.01
416.17	3382.07
416.36	3356.33
416.55	3344.63
416.74	3365.69
416.93	3332.92
417.12	3328.24
417.31	3377.39
417.50	3410.16
417.69	3588.04
417.88	3529.53
418.07	3466.33
418.26	3531.87
418.45	3389.10
418.64	3674.64
418.83	3623.15
419.02	3578.68
419.21	3634.85
419.39	3536.55
419.58	3611.45
419.77	3613.79
419.96	3730.81
420.15	3758.90
420.34	3817.41
420.53	3784.65
420.72	3857.20
420.91	3829.12
421.10	3922.74
421.29	3943.80
421.48	3925.08
421.67	3913.38
421.86	3927.42
422.05	3819.75
422.24	3857.20
422.43	3889.97
422.61	3904.01
422.80	3976.57
422.99	3999.98
423.18	3946.14
423.37	4074.87
423.56	4032.74
423.75	4053.81
423.94	4004.66
424.13	3714.43
424.32	3721.45
424.50	4004.66
424.69	3999.98
424.88	4095.94
425.07	3999.98
425.26	3878.27
425.45	4007.00
425.64	3988.27
425.83	3873.59
426.01	4025.72
426.20	4098.28
426.39	4102.96
426.58	4058.49
426.77	4002.32
426.96	4060.83
427.15	4117.00
427.33	4056.15
427.52	4081.89
427.71	4084.23
427.90	4191.90
428.09	4180.20
428.28	4320.63
428.46	4311.27
428.65	4334.67
428.84	4383.82
429.03	4416.59
429.22	4154.45
429.40	4243.39
429.59	4175.52
429.78	3976.57
429.97	3974.23
430.16	4175.52
430.34	4124.02
430.53	4308.93
430.72	4257.43
430.91	4297.22
431.10	4411.91
431.28	4589.79
431.47	4858.95
431.66	4610.86
431.85	4660.01
432.03	4697.46
432.22	4816.82
432.41	4695.11
432.60	4744.27
432.79	4947.89
432.97	4805.12
433.16	4842.57
433.35	4655.33
433.54	4873.00
433.72	4807.46
433.91	4692.77
434.10	4844.91
434.28	4940.87
434.47	4877.68
434.66	4985.34
434.85	4968.96
435.03	5076.62
435.22	5032.15
435.41	5252.16
435.59	5303.65
435.78	5214.71
435.97	5233.44
436.16	5217.05
436.34	5362.17
436.53	5280.25
436.72	5504.94
436.90	5254.50
437.09	5273.23
437.28	5191.31
437.46	5242.80
437.65	5242.80
437.84	5177.26
438.02	5095.35
438.21	5329.40
438.40	5336.42
438.58	5710.91
438.77	5640.69
438.96	5661.76
439.14	5589.20
439.33	5825.59
439.52	5769.42
439.70	5717.93
439.89	5942.62
440.08	5720.27
440.26	6031.56
440.45	5849.00
440.63	5954.32
440.82	5951.98
441.01	5968.37
441.19	6069.01
441.38	6106.46
441.57	6286.68
441.75	6246.89
441.94	6427.11
442.12	6480.94
442.31	6452.86
442.50	6499.67
442.68	6546.48
442.87	6431.79
443.05	6565.20
443.24	6541.80
443.43	6595.63
443.61	6450.52
443.80	6647.12
443.98	6520.73
444.17	6413.07
444.35	6602.65
444.54	6740.74
444.73	6696.27
444.91	6565.20
445.10	6424.77
445.28	6518.39
445.47	6480.94
445.65	6415.41
445.84	6661.16
446.02	6775.85
446.21	6661.16
446.39	6654.14
446.58	6761.81
446.77	6796.92
446.95	6642.44
447.14	6843.73
447.32	6890.54
447.51	6817.98
447.69	6700.95
447.88	6951.39
448.06	6897.56
448.25	6677.55
448.43	6935.01
448.62	6853.09
448.80	6764.15
448.99	7063.74
449.17	6937.35
449.36	6902.24
449.54	7063.74
449.73	7150.34
449.91	7145.66
450.10	7379.71
450.28	7424.18
450.46	7365.67
450.65	7314.17
450.83	7360.98
451.02	7426.52
451.20	7286.09
451.39	7431.20
451.57	7384.39
451.76	7389.07
451.94	7281.41
452.13	7562.27
452.31	7337.58
452.49	7157.36
452.68	7412.48
452.86	7325.88
453.05	7435.88
453.23	7442.90
453.42	7330.56
453.60	7389.07
453.78	7630.15
453.97	7637.17
454.15	7440.56
454.34	7447.58
454.52	7611.42
454.70	7796.32
454.89	7665.25
455.07	7789.30
455.26	7723.77
455.44	7906.33
455.62	7805.69
455.81	7861.86
455.99	7901.65
456.17	8079.53
456.36	7896.97
456.54	8145.06
456.73	8287.84
456.91	8374.44
457.09	8344.01
457.28	8353.37
457.46	8208.26
457.64	8379.12
457.83	8138.04
458.01	8257.41
458.19	8400.18
458.38	8358.05
458.56	8187.19
458.74	8266.77
458.93	8437.63
459.11	8500.83
459.29	8358.05
459.48	8449.33
459.66	8318.26
459.84	8585.08
460.03	8828.50
460.21	8655.30
460.39	8713.81
460.57	8772.33
460.76	8676.37
460.94	8943.19
461.12	8713.81
461.31	8849.57
461.49	9008.72
461.67	8702.11
461.85	8950.21
462.04	8931.48
462.22	9530.66
462.40	9029.79
462.59	9102.34
462.77	9008.72
462.95	9188.94
463.13	9090.64
463.32	9177.24
463.50	9235.75
463.68	9139.79
463.86	9041.49
464.05	9025.11
464.23	9317.67
464.41	9268.52
464.59	9074.26
464.78	9202.99
464.96	9273.20
465.14	9165.54
465.32	9584.49
465.50	9437.04
465.69	9579.81
465.87	9359.80
466.05	9472.15
466.23	9357.46
466.41	9270.86
466.60	9509.60
466.78	9324.69
466.96	9298.95
467.14	9570.45
467.32	9570.45
467.51	9696.84
467.69	9327.03
467.87	9558.75
468.05	9682.80
468.23	9671.09
468.41	9650.03
468.60	9621.94
468.78	9696.84
468.96	9767.06
469.14	9923.87
469.32	10026.86
469.50	9710.88
469.69	10001.11
469.87	9956.64
470.05	10104.09
470.23	10174.31
470.41	10008.13
470.59	9933.23
470.77	10111.11
470.95	10211.76
471.14	10382.62
471.32	10284.31
471.50	10342.83
471.68	10349.85
471.86	10511.35
472.04	10314.74
472.22	10817.96
472.40	10303.04
472.58	10569.86
472.77	10686.89
472.95	10841.36
473.13	11068.39
473.31	10406.02
473.49	10764.12
473.67	10668.16
473.85	10876.47
474.03	11012.22
474.21	11133.93
474.39	11344.58
474.57	11133.93
474.75	11470.97
474.93	11262.66
475.12	11349.26
475.30	11674.59
475.48	11494.37
475.66	11349.26
475.84	11468.62
476.02	11695.66
476.20	11466.28
476.38	11908.65
476.56	12100.57
476.74	12105.25
476.92	11798.64
477.10	11948.43
477.28	12290.15
477.46	12299.52
477.64	12301.86
477.82	12638.89
478.00	12699.75
478.18	12828.48
478.36	12655.28
478.54	12947.84
478.72	13069.55
478.90	13099.98
479.08	13289.56
479.26	13284.88
479.44	13617.24
479.62	13523.62
479.80	13610.22
479.98	13631.28
480.16	13727.24
480.34	13825.54
480.52	14134.50
480.70	14113.43
480.88	13834.91
481.06	13865.33
481.24	14157.90
481.41	14345.14
481.59	14663.46
481.77	14841.34
481.95	14361.53
482.13	14855.38
482.31	14944.32
482.49	15248.59
482.67	15309.44
482.85	15192.42
483.03	15506.05
483.21	15580.95
483.39	15950.75
483.57	15548.18
483.74	15868.83
483.92	16084.16
484.10	15807.98
484.28	16130.97
484.46	16294.81
484.64	16748.87
484.82	16304.17
485.00	16456.31
485.18	16727.81
485.35	16608.44
485.53	16437.58
485.71	16868.24
485.89	16554.61
486.07	16828.45
486.25	17015.69
486.43	17198.26
486.61	17490.82
486.78	17547.00
486.96	17975.31
487.14	18225.75
487.32	17851.27
487.50	18326.39
487.68	18796.84
487.85	18459.81
488.03	18764.07
488.21	19005.15
488.39	18707.90
488.57	19030.90
488.75	19026.21
488.92	19346.87
489.10	19711.99
489.28	19709.65
489.46	20175.42
489.64	19700.29
489.81	20423.51
489.99	20503.09
490.17	20472.67
490.35	20592.03
490.53	20837.79
490.70	20854.17
490.88	20790.98
491.06	21343.35
491.24	21270.79
491.41	20996.95
491.59	21443.99
491.77	21046.10
491.95	21343.35
492.13	21640.59
492.30	22249.13
492.48	22099.34
492.66	22178.92
492.84	21825.50
493.01	22637.66
493.19	22171.89
493.37	22590.85
493.54	22930.23
493.72	22813.20
493.90	23089.38
494.08	23644.09
494.25	23674.52
494.43	23917.93
494.61	23557.49
494.79	24217.52
494.96	23800.91
495.14	24060.71
495.32	23864.10
495.49	24072.41
495.67	24212.84
495.85	24634.14
496.02	25120.97
496.20	24828.40
496.38	24790.95
496.55	24545.20
496.73	25663.97
496.91	25233.32
497.09	25333.96
497.26	25518.86
497.44	25970.58
497.62	25891.01
497.79	25869.94
497.97	25729.51
498.14	25736.53
498.32	26171.87
498.50	26038.46
498.67	26583.80
498.85	26604.87
499.03	26852.97
499.20	26588.49
499.38	26801.47
499.56	27077.66
499.73	26918.50
499.91	27152.55
500.08	27194.68
500.26	26773.39
500.44	27353.84
500.61	27648.75
500.79	26829.56
500.97	27555.13
501.14	27669.81
501.32	27833.65
501.49	27782.16
501.67	27576.19
501.84	28074.73
502.02	28259.63
502.20	27990.47
502.37	28449.21
502.55	28135.58
502.72	28638.80
502.90	28828.38
503.07	29172.44
503.25	28692.63
503.43	28343.89
503.60	28762.84
503.78	29013.28
503.95	29125.63
504.13	28779.23
504.30	29177.12
504.48	29123.29
504.65	29530.54
504.83	29280.10
505.01	30019.71
505.18	29448.62
505.36	29809.06
505.53	29958.86
505.71	30597.82
505.88	30782.73
506.06	30281.85
506.23	30560.37
506.41	30183.55
506.58	30419.94
506.76	30539.31
506.93	30558.03
507.11	30520.59
507.28	30639.95
507.46	30483.14
507.63	30426.96
507.81	30850.60
507.98	30522.93
508.16	30902.09
508.33	31164.23
508.50	31477.86
508.68	31489.57
508.85	31819.58
509.03	31498.93
509.20	31627.66
509.38	31737.66
509.55	31957.67
509.73	31793.84
509.90	32191.73
510.08	32053.64
510.25	32020.87
510.42	32294.71
510.60	32430.46
510.77	32526.42
510.95	32491.32
511.12	32486.64
511.30	32954.74
511.47	32924.32
511.64	33242.63
511.82	32964.10
511.99	32774.52
512.17	32992.19
512.34	32816.65
512.51	33141.99
512.69	33191.14
512.86	33539.88
513.04	33399.44
513.21	33490.73
513.38	33235.61
513.56	33439.23
513.73	33352.63
513.90	33659.24
514.08	33790.31
514.25	33965.85
514.43	33930.75
514.60	33642.86
514.77	34015.01
514.95	34457.37
515.12	33972.88
515.29	34054.79
515.47	34679.72
515.64	34389.49
515.81	34410.56
515.99	34520.56
516.16	34171.82
516.33	33464.98
516.51	34541.63
516.68	33610.09
516.85	34445.66
517.03	34443.32
517.20	34749.93
517.37	34768.66
517.54	34658.65
517.72	35138.46
517.89	34789.72
518.06	34745.25
518.24	34881.00
518.41	35054.20
518.58	34986.33
518.75	34925.47
518.93	35510.61
519.10	35571.46
519.27	35697.85
519.45	35573.80
519.62	36156.60
519.79	35945.95
519.96	36395.33
520.14	36414.05
520.31	35489.54
520.48	36208.09
520.65	36774.50
520.83	36563.85
521.00	36524.06
521.17	36650.45
521.34	36425.76
521.52	36980.46
521.69	36914.93
521.86	37181.75
522.03	36652.79
522.20	36800.24
522.38	37392.40
522.55	37298.78
522.72	37429.85
522.89	36987.49
523.07	37361.97
523.24	37132.60
523.41	37502.40
523.58	37427.51
523.75	37958.81
523.92	37684.97
524.10	38176.48
524.27	38120.31
524.44	38424.57
524.61	37778.59
524.78	38455.00
524.96	38218.61
525.13	38223.29
525.30	38651.61
525.47	38749.91
525.64	38501.81
525.81	38319.25
525.98	38511.17
526.16	38050.09
526.33	37752.84
526.50	38934.81
526.67	38000.94
526.84	38337.98
527.01	38160.09
527.18	38527.56
527.36	39178.23
527.53	38988.64
527.70	39552.71
527.87	39199.29
528.04	39505.90
528.21	39175.89
528.38	38536.92
528.55	39646.33
528.72	39590.16
528.89	39456.75
529.07	39428.66
529.24	39105.67
529.41	39325.68
529.58	39765.70
529.75	39503.56
529.92	39550.37
530.09	39672.08
530.26	39922.52
530.43	40060.61
530.60	39812.51
530.77	39885.07
530.94	40245.51
531.11	40189.34
531.28	40119.12
531.46	40430.41
531.63	40212.74
531.80	40479.57
531.97	40367.22
532.14	40404.67
532.31	39782.09
532.48	39786.77
532.65	40715.96
532.82	40222.11
532.99	40875.12
533.16	40751.07
533.33	40332.11
533.50	40612.98
533.67	40767.45
533.84	40591.91
534.01	40889.16
534.18	40636.38
534.35	41521.10
534.52	41223.86
534.69	40741.71
534.86	41539.83
535.03	40964.06
535.20	41523.44
535.37	41741.11
535.54	41865.16
535.71	41460.25
535.88	41127.89
536.05	41268.33
536.22	41853.46
536.38	41488.34
536.55	41340.88
536.72	41523.44
536.89	41085.76
537.06	41750.48
537.23	42103.90
537.40	42082.83
537.57	41780.90
537.74	41755.16
537.91	42579.03
538.08	42295.82
538.25	41677.92
538.42	42431.57
538.59	41970.49
538.75	41436.84
538.92	42293.48
539.09	42415.19
539.26	42124.96
539.43	41848.78
539.60	42183.48
539.77	42141.35
539.94	42162.41
540.11	42307.52
540.28	42164.75
540.44	42284.12
540.61	42462.00
540.78	42185.82
540.95	42527.53
541.12	42628.18
541.29	42452.64
541.46	42553.28
541.62	42639.88
541.79	42895.00
541.96	42412.85
542.13	42459.66
542.30	42859.89
542.47	42855.21
542.63	42930.11
542.80	43208.63
542.97	43449.70
543.14	43487.15
543.31	43672.06
543.48	43501.20
543.64	43791.42
543.81	44044.20
543.98	43842.92
544.15	43246.08
544.32	43707.16
544.48	44189.31
544.65	44201.02
544.82	44011.43
544.99	43559.71
545.16	43576.09
545.32	43407.58
545.49	44088.67
545.66	44250.17
545.83	43885.04
546.00	44039.52
546.16	44552.10
546.33	44179.95
546.50	43775.04
546.67	44285.28
546.83	43819.51
547.00	44676.15
547.17	43641.63
547.34	44009.09
547.50	44236.12
547.67	44301.66
547.84	44130.80
548.00	44746.36
548.17	44708.91
548.34	44767.43
548.51	44725.30
548.67	44830.62
548.84	44701.89
549.01	44526.35
549.18	44229.10
549.34	44484.22
549.51	44856.37
549.68	44837.64
549.84	44582.52
550.01	44891.48
550.18	44634.02
550.34	44954.67
550.51	44547.42
550.68	44643.38
550.84	44519.33
551.01	44835.30
551.18	44591.89
551.34	44601.25
551.51	45057.65
551.68	45165.32
551.84	45401.71
552.01	45198.09
552.18	44982.76
552.34	44608.27
552.51	45483.63
552.68	44720.62
552.84	45579.59
553.01	45586.61
553.18	45125.53
553.34	45268.30
553.51	45139.57
553.67	44994.46
553.84	45708.32
554.01	45757.47
554.17	45544.48
554.34	45397.03
554.51	45794.92
554.67	45638.11
554.84	45574.91
555.00	45495.33
555.17	45537.46
555.33	45736.41
555.50	45565.55
555.67	45804.28
555.83	45748.11
556.00	45947.06
556.16	46160.05
556.33	45825.35
556.50	45507.04
556.66	45982.16
556.83	45434.48
556.99	45933.01
557.16	46218.56
557.32	45867.48
557.49	46211.54
557.65	45680.24
557.82	45645.13
557.98	45804.28
558.15	45956.42
558.32	45869.82
558.48	45516.40
558.65	46157.70
558.81	45911.95
558.98	45815.99
559.14	45954.08
559.31	45514.06
559.47	46085.15
559.64	46660.92
559.80	45998.55
559.97	46583.68
560.13	46096.85
560.30	46293.46
560.46	46162.39
560.63	46040.68
560.79	46410.48
560.96	46419.84
561.12	46696.03
561.29	46078.13
561.45	46153.02
561.61	46270.05
561.78	46401.12
561.94	46115.58
562.11	46536.87
562.27	46066.42
562.44	46487.72
562.60	46691.35
562.77	46955.83
562.93	46267.71
563.10	46815.40
563.26	46492.40
563.42	46445.59
563.59	46415.16
563.75	46209.20
563.92	46791.99
564.08	46717.09
564.24	46681.98
564.41	46431.55
564.57	46639.86
564.74	46850.50
564.90	46806.03
565.07	46834.12
565.23	46712.41
565.39	46506.44
565.56	46260.69
565.72	46454.95
565.88	46321.54
566.05	46649.22
566.21	46637.51
566.38	46457.29
566.54	47002.64
566.70	46597.73
566.87	47339.68
567.03	46696.03
567.19	47049.45
567.36	46810.71
567.52	46880.93
567.68	46667.94
567.85	46611.77
568.01	46628.15
568.17	46426.87
568.34	46602.41
568.50	46497.08
568.66	46642.20
568.83	46873.91
568.99	46384.74
569.15	46845.82
569.32	46672.62
569.48	46555.60
569.64	46700.71
569.81	47154.77
569.97	46700.71
570.13	46321.54
570.30	46412.82
570.46	46550.91
570.62	46480.70
570.78	46766.24
570.95	46277.07
571.11	46541.55
571.27	46906.68
571.43	46829.44
571.60	47173.50
571.76	46897.31
571.92	46791.99
572.09	46492.40
572.25	47042.43
572.41	46918.38
572.57	47342.02
572.74	47257.76
572.90	46976.89
573.06	47047.11
573.22	46962.85
573.38	47051.79
573.55	46724.11
573.71	47210.95
573.87	46630.49
574.03	46845.82
574.20	47201.58
574.36	46850.50
574.52	46747.52
574.68	47040.09
574.84	47262.44
575.01	46871.57
575.17	46628.15
575.33	46583.68
575.49	46747.52
575.65	47278.82
575.82	47475.43
575.98	46803.69
576.14	47512.88
576.30	46944.12
576.46	46756.88
576.62	47077.54
576.79	46911.36
576.95	46309.84
577.11	46726.46
577.27	46848.16
577.43	46862.21
577.59	47082.22
577.75	46773.27
577.92	46742.84
578.08	46305.16
578.24	46691.35
578.40	46920.72
578.56	46866.89
578.72	46885.61
578.88	47285.84
579.04	46948.81
579.21	46597.73
579.37	46953.49
579.53	46953.49
579.69	46691.35
579.85	47171.16
580.01	47133.71
580.17	46674.96
580.33	47454.36
580.49	47103.28
580.65	47236.69
580.82	47028.38
580.98	47203.92
581.14	46780.29
581.30	47236.69
581.46	47767.99
581.62	47068.17
581.78	46876.25
581.94	47313.93
582.10	47416.91
582.26	47278.82
582.42	47063.49
582.58	47175.84
582.74	46902.00
582.90	47166.48
583.06	47313.93
583.22	47161.79
583.38	47679.05
583.54	47232.01
583.70	47367.76
583.86	47379.46
584.02	47065.83
584.18	47154.77
584.34	46897.31
584.50	47164.14
584.66	47217.97
584.82	46609.43
584.98	47262.44
585.14	46918.38
585.30	47246.05
585.46	46824.76
585.62	46665.60
585.78	47091.58
585.94	47086.90
586.10	46927.74
586.26	47091.58
586.42	47037.75
586.58	47056.47
586.74	47117.32
586.90	47171.16
587.06	46789.65
587.22	47487.13
587.38	47012.00
587.54	46920.72
587.70	47440.32
587.86	46698.37
588.02	46965.19
588.18	47068.17
588.34	46899.65
588.49	46941.78
588.65	46307.50
588.81	46373.03
588.97	46473.68
589.13	46820.08
589.29	46827.10
589.45	46897.31
589.61	46789.65
589.77	46995.62
589.93	47147.75
590.08	47164.14
590.24	47323.29
590.40	47042.43
590.56	47477.77
590.72	47093.92
590.88	46887.95
591.04	47487.13
591.20	47522.24
591.35	47217.97
591.51	47599.47
591.67	47468.40
591.83	47531.60
591.99	46974.55
592.15	46960.51
592.31	47519.90
592.46	47079.88
592.62	46951.15
592.78	47627.56
592.94	47264.78
593.10	47093.92
593.26	47498.83
593.41	47236.69
593.57	47110.30
593.73	47295.21
593.89	47180.52
594.05	47248.39
594.20	46979.23
594.36	47512.88
594.52	47653.31
594.68	46988.60
594.84	47555.00
594.99	47611.18
595.15	47346.70
595.31	47358.40
595.47	47440.32
595.62	47012.00
595.78	47313.93
595.94	47599.47
596.10	47414.57
596.25	47665.01
596.41	47590.11
596.57	47100.94
596.73	47608.84
596.88	47122.01
597.04	47086.90
597.20	47367.76
597.36	47365.42
597.51	47721.18
597.67	47742.25
597.83	47470.75
597.99	47096.26
598.14	47210.95
598.30	46885.61
598.46	47281.16
598.61	47384.15
598.77	47576.07
598.93	47086.90
599.09	47313.93
599.24	47934.17
599.40	47489.47
599.56	47679.05
599.71	47145.41
599.87	47782.04
600.03	47517.56
600.18	47445.00
600.34	47086.90
600.50	47580.75
600.65	47480.11
600.81	47559.69
600.97	47332.65
601.12	47789.06
601.28	47693.10
601.44	47445.00
601.59	47449.68
601.75	46836.46
601.91	47330.31
602.06	47337.33
602.22	47367.76
602.37	47143.07
602.53	47262.44
602.69	47426.28
602.84	47089.24
603.00	47447.34
603.16	47334.99
603.31	47103.28
603.47	47697.78
603.62	47035.41
603.78	47234.35
603.94	47320.95
604.09	47435.64
604.25	47480.11
604.40	47262.44
604.56	47278.82
604.71	47290.52
604.87	46850.50
605.03	47091.58
605.18	46995.62
605.34	47330.31
605.49	47182.86
605.65	47320.95
605.80	47267.12
605.96	47079.88
606.12	46958.17
606.27	47915.45
606.43	47295.21
606.58	47208.61
606.74	46944.12
606.89	47049.45
607.05	47374.78
607.20	47299.89
607.36	46759.22
607.51	47384.15
607.67	46546.23
607.82	47117.32
607.98	46967.53
608.13	47070.51
608.29	46497.08
608.44	46632.83
608.60	46431.55
608.75	46586.02
608.91	46934.76
609.06	47014.34
609.22	47124.35
609.37	46808.37
609.53	46415.16
609.68	46759.22
609.84	46862.21
609.99	46995.62
610.15	46857.52
610.30	46820.08
610.46	46457.29
610.61	46471.34
610.76	46284.09
610.92	46574.32
611.07	46546.23
611.23	46616.45
611.38	46588.36
611.54	46532.19
611.69	46113.23
611.84	46333.24
612.00	46129.62
612.15	46454.95
612.31	46726.46
612.46	46569.64
612.62	46796.67
612.77	45958.76
612.92	46433.89
613.08	46429.21
613.23	46394.10
613.39	46553.26
613.54	45972.80
613.69	46571.98
613.85	46639.86
614.00	46438.57
614.15	46749.86
614.31	46700.71
614.46	46312.18
614.62	46328.56
614.77	46085.15
614.92	45640.45
615.08	46293.46
615.23	46087.49
615.38	46080.47
615.54	46003.23
615.69	46281.75
615.84	45607.68
616.00	46174.09
616.15	46024.29
616.30	45909.61
616.46	45881.52
616.61	45134.89
616.76	45677.90
616.92	45588.95
617.07	45392.35
617.22	45509.38
617.37	45551.51
617.53	45909.61
617.68	45867.48
617.83	45947.06
617.99	46176.43
618.14	46171.75
618.29	45715.34
618.45	44928.92
618.60	45373.63
618.75	45745.77
618.90	45834.71
619.06	45485.97
619.21	45338.52
619.36	45595.98
619.51	45504.70
619.67	45521.08
619.82	45780.88
619.97	45848.75
620.12	45378.31
620.28	45230.85
620.43	44889.13
620.58	45581.93
620.73	45265.96
620.89	45474.27
621.04	45734.07
621.19	45085.74
621.34	44942.97
621.49	44701.89
621.65	45132.55
621.80	44994.46
621.95	44797.85
622.10	45230.85
622.25	44856.37
622.41	44685.51
622.56	44872.75
622.71	45050.63
622.86	44870.41
623.01	44903.18
623.16	45130.21
623.32	44769.77
623.47	45038.93
623.62	44966.37
623.77	44612.95
623.92	44903.18
624.07	44577.84
624.23	44385.92
624.38	44549.76
624.53	44465.50
624.68	44591.89
624.83	44816.58
624.98	44854.03
625.13	44154.21
625.29	44652.74
625.44	44030.16
625.59	44172.93
625.74	43533.96
625.89	43943.56
626.04	43927.17
626.19	43910.79
626.34	44039.52
626.49	44194.00
626.65	44210.38
626.80	44165.91
626.95	44081.65
627.10	43739.93
627.25	43735.25
627.40	43938.88
627.55	43512.90
627.70	43536.30
627.85	43636.95
628.00	43533.96
628.15	43519.92
628.30	43833.55
628.45	44161.23
628.60	43739.93
628.76	43955.26
628.91	43274.16
629.06	43765.68
629.21	43421.62
629.36	43433.32
629.51	43618.22
629.66	43133.73
629.81	43370.13
629.96	43627.59
630.11	43257.78
630.26	42969.90
630.41	43484.81
630.56	43693.12
630.71	43583.12
630.86	42974.58
631.01	43262.46
631.16	42789.67
631.31	42815.42
631.46	42717.12
631.61	43332.68
631.76	43161.82
631.91	43077.56
632.06	43201.61
632.21	42969.90
632.36	43058.84
632.51	42972.24
632.66	43117.35
632.81	42550.94
632.96	42824.78
633.10	42705.41
633.25	42665.63
633.40	43119.69
633.55	42803.72
633.70	42958.19
633.85	42801.38
634.00	42817.76
634.15	42782.65
634.30	42815.42
634.45	42862.23
634.60	42323.91
634.75	42766.27
634.90	43005.00
635.05	42417.53
635.19	42497.11
635.34	42438.59
635.49	42476.04
635.64	42272.42
635.79	42134.32
635.94	42733.50
636.09	42642.22
636.24	42440.93
636.39	42443.27
636.53	42113.26
636.68	42162.41
636.83	42178.79
636.98	42220.92
637.13	41879.21
637.28	42178.79
637.43	42401.14
637.57	42511.15
637.72	41975.17
637.87	42190.50
638.02	41993.89
638.17	42192.84
638.32	41731.75
638.46	41860.48
638.61	41956.44
638.76	41858.14
638.91	41977.51
639.06	41811.33
639.20	41670.90
639.35	41996.23
639.50	41764.52
639.65	41867.50
639.80	41696.64
639.94	41748.14
640.09	41226.20
640.24	41177.04
640.39	41581.96
640.54	41380.67
640.68	41347.90
640.83	41584.30
640.98	41312.80
641.13	40863.41
641.27	41343.22
641.42	41427.48
641.57	41502.38
641.72	41277.69
641.86	40898.52
642.01	41123.21
642.16	41045.97
642.31	40886.82
642.45	41155.98
642.60	40938.31
642.75	40870.43
642.90	40493.61
643.04	40807.24
643.19	41038.95
643.34	41031.93
643.48	41048.32
643.63	41172.36
643.78	40928.95
643.93	40914.90
644.07	40690.21
644.22	40704.26
644.37	40727.66
644.51	40458.50
644.66	40758.09
644.81	40767.45
644.95	41081.08
645.10	41148.96
645.25	41277.69
645.39	40776.81
645.54	41137.26
645.69	40622.34
645.83	40638.72
645.98	40486.59
646.13	41038.95
646.27	40531.06
646.42	40327.43
646.57	39896.77
646.71	40322.75
646.86	40442.12
647.00	40414.03
647.15	40470.20
647.30	40596.59
647.44	40832.99
647.59	40297.00
647.74	40484.25
647.88	39786.77
648.03	40240.83
648.17	40179.98
648.32	39924.86
648.47	40364.88
648.61	40079.33
648.76	40631.70
648.90	39878.05
649.05	40233.81
649.20	40123.80
649.34	40142.53
649.49	40065.29
649.63	39557.39
649.78	40109.76
649.92	39716.55
650.07	40634.04
650.21	39985.71
650.36	39660.38
650.51	39704.85
650.65	39903.79
650.80	40191.68
650.94	40172.96
651.09	40142.53
651.23	39416.96
651.38	39653.36
651.52	39639.31
651.67	39634.63
651.81	39248.44
651.96	39152.48
652.10	39416.96
652.25	39449.73
652.39	39019.07
652.54	39246.10
652.68	39735.27
652.83	39533.99
652.97	39449.73
653.12	39435.69
653.26	39168.87
653.41	39332.70
653.55	38817.78
653.70	39044.82
653.84	39173.55
653.99	39213.34
654.13	39056.52
654.27	38618.84
654.42	39302.28
654.56	39271.85
654.71	39098.65
654.85	39171.21
655.00	38726.50
655.14	38843.53
655.29	38534.58
655.43	38637.56
655.57	38625.86
655.72	38256.06
655.86	38211.59
656.01	38136.69
656.15	38422.23
656.30	38270.10
656.44	38630.54
656.58	38150.73
656.73	38410.53
656.87	38043.07
657.01	38022.00
657.16	38314.57
657.30	38171.80
657.45	38045.41
657.59	38029.02
657.73	37942.42
657.88	38082.86
658.02	38211.59
658.16	38094.56
658.31	38457.34
658.45	38504.15
658.60	38347.34
658.74	38312.23
658.88	38237.33
659.03	37832.42
659.17	37532.83
659.31	37659.22
659.46	37996.26
659.60	38202.22
659.74	37560.92
659.89	37855.82
660.03	37486.02
660.17	37900.29
660.32	37715.39
660.46	38029.02
660.60	37921.36
660.74	37340.91
660.89	37975.19
661.03	37675.60
661.17	36973.44
661.32	36910.25
661.46	37769.22
661.60	37230.90
661.74	36781.52
661.89	37361.97
662.03	37139.62
662.17	37132.60
662.31	37031.96
662.46	37570.28
662.60	37034.30
662.74	36879.82
662.88	36671.51
663.03	36809.61
663.17	37193.45
663.31	36458.52
663.45	36835.35
663.60	36739.39
663.74	36023.19
663.88	36685.56
664.02	36290.01
664.17	36517.04
664.31	35796.15
664.45	36282.98
664.59	36105.10
664.73	36046.59
664.88	36432.78
665.02	35908.50
665.16	36184.68
665.30	36182.34
665.44	36154.26
665.59	35782.11
665.73	35721.26
665.87	35473.16
666.01	35814.88
666.15	35744.66
666.29	36126.17
666.44	35484.86
666.58	35428.69
666.72	35679.13
666.86	35395.92
667.00	35857.01
667.14	35622.95
667.28	35487.20
667.43	35054.20
667.57	35133.78
667.71	34962.92
667.85	34871.64
667.99	34885.68
668.13	34595.46
668.27	34761.64
668.41	35152.51
668.56	34906.75
668.70	34497.16
668.84	34628.23
668.98	34588.44
669.12	34707.80
669.26	34190.55
669.40	34349.70
669.54	34480.77
669.68	34419.92
669.82	33890.96
669.96	34036.07
670.10	33462.64
670.25	33928.41
670.39	34066.50
670.53	33947.13
670.67	33692.01
670.81	33965.85
670.95	34216.29
671.09	33713.08
671.23	33930.75
671.37	33968.19
671.51	33689.67
671.65	33888.62
671.79	33427.53
671.93	32994.53
672.07	33570.30
672.21	33315.19
672.35	33275.40
672.49	33097.52
672.63	33153.69
672.77	33001.55
672.91	33055.39
673.05	32795.59
673.19	32907.93
673.33	32699.62
673.47	32507.70
673.61	32236.20
673.75	32423.44
673.89	32060.66
674.03	31981.08
674.17	32287.69
674.31	31784.48
674.45	31737.66
674.59	31992.78
674.73	31812.56
674.87	32201.09
675.01	31861.71
675.15	31948.31
675.29	31812.56
675.43	31625.32
675.56	31821.92
675.70	31171.25
675.84	31084.65
675.98	30614.21
676.12	31140.83
676.26	31157.21
676.40	30831.88
676.54	30698.47
676.68	31021.46
676.82	30738.26
676.96	30541.65
677.10	30480.80
677.23	30401.22
677.37	30522.93
677.51	30338.02
677.65	30338.02
677.79	30064.18
677.93	30059.50
678.07	30211.64
678.21	29989.28
678.34	29837.15
678.48	29525.86
678.62	29654.59
678.76	29453.30
678.90	29439.26
679.04	29345.64
679.18	29476.71
679.31	29053.07
679.45	28755.82
679.59	28641.14
679.73	28849.44
679.87	28762.84
680.00	28929.02
680.14	28341.55
680.28	28844.76
680.42	28463.25
680.56	28460.91
680.70	28411.76
680.83	28194.09
680.97	28224.52
681.11	28238.56
681.25	28210.48
681.39	27676.83
681.52	27931.95
681.66	27955.36
681.80	28133.24
681.94	27615.98
682.07	27695.56
682.21	27300.01
682.35	27335.12
682.49	26930.20
682.62	26911.48
682.76	27225.11
682.90	26813.18
683.04	26696.15
683.17	26984.04
683.31	26733.60
683.45	26787.43
683.59	26434.01
683.72	26319.32
683.86	26108.68
684.00	26335.71
684.13	26064.21
684.27	26284.22
684.41	26157.83
684.55	25565.67
684.68	25898.03
684.82	25872.28
684.96	25909.73
685.09	25425.24
685.23	25263.74
685.37	25476.73
685.50	25448.64
685.64	25177.14
685.78	25046.07
685.91	25544.61
686.05	24861.17
686.19	24697.33
686.32	24891.60
686.46	24549.88
686.60	23962.40
686.73	24198.80
686.87	23702.61
687.01	23878.15
687.14	23983.47
687.28	23990.49
687.42	23674.52
687.55	23522.38
687.69	23190.03
687.82	23393.65
687.96	23339.82
688.10	23360.89
688.23	23496.64
688.37	23028.53
688.50	22951.29
688.64	23096.41
688.78	23206.41
688.91	22644.68
689.05	22864.69
689.18	22773.41
689.32	22331.05
689.46	22932.57
689.59	22843.63
689.73	22696.17
689.86	22464.46
690.00	22387.22
690.13	22410.63
690.27	22298.28
690.41	22324.03
690.54	22033.80
690.68	22075.93
690.81	21685.06
690.95	21483.78
691.08	21462.71
691.22	21561.02
691.35	21671.02
691.49	21661.66
691.62	21656.98
691.76	21312.92
691.89	21500.16
692.03	21383.13
692.16	20828.43
692.30	21064.82
692.43	20980.56
692.57	20762.89
692.70	21020.35
692.84	20762.89
692.97	20912.69
693.11	20336.91
693.24	20510.11
693.38	20233.93
693.51	20290.10
693.65	20037.33
693.78	20039.67
693.92	20252.66
694.05	19995.20
694.19	19683.91
694.32	19676.88
694.45	19719.01
694.59	19709.65
694.72	19611.35
694.86	19344.53
694.99	19040.26
695.13	19262.61
695.26	19077.71
695.39	18820.25
695.53	18941.96
695.66	19372.61
695.80	18827.27
695.93	18911.53
696.07	18487.89
696.20	19140.90
696.33	18738.33
696.47	18527.68
696.60	18511.30
696.73	18523.00
696.87	18127.45
697.00	18354.48
697.14	18242.14
697.27	18178.94
697.40	18054.89
697.54	17954.25
697.67	18010.42
697.80	17769.35
697.94	17642.96
698.07	17584.44
698.21	17268.47
698.34	17647.64
698.47	17256.77
698.61	17270.81
698.74	17266.13
698.87	16999.31
699.01	16933.78
699.14	16849.52
699.27	16966.54
699.40	16798.02
699.54	16622.48
699.67	16805.05
699.80	16774.62
699.94	16507.80
700.07	16409.50
700.20	16257.36
700.34	16219.91
700.47	16126.29
700.60	16526.52
700.73	16414.18
700.87	16166.08
701.00	15962.45
701.13	16046.71
701.26	15887.56
701.40	15906.28
701.53	15566.90
701.66	15796.28
701.79	15590.31
701.93	15585.63
702.06	15300.08
702.19	15351.57
702.32	15470.94
702.46	15143.27
702.59	15260.29
702.72	15091.77
702.85	14995.81
702.99	15084.75
703.12	14974.75
703.25	14930.28
703.38	14963.04
703.51	14693.88
703.65	14827.29
703.78	14817.93
703.91	14743.03
704.04	14516.00
704.17	14544.09
704.31	14473.87
704.44	14188.33
704.57	14328.76
704.70	14307.69
704.83	13965.98
704.96	14321.74
705.10	14120.45
705.23	14265.57
>>>>>End Processed Spectral Data<<<<<
