SpectraSuite Data File
++++++++++++++++++++++++++++++++++++
Date: Fri Oct 25 10:47:35 EDT 2013
User: price-jones
Dark Spectrum Present: No
Reference Spectrum Present: No
Number of Sampled Component Spectra: 1
Spectrometers: USB2+H05261
Integration Time (usec): 100000 (USB2+H05261)
Spectra Averaged: 1 (USB2+H05261)
Boxcar Smoothing: 0 (USB2+H05261)
Correct for Electrical Dark: No (USB2+H05261)
Strobe/Lamp Enabled: No (USB2+H05261)
Correct for Detector Non-linearity: No (USB2+H05261)
Correct for Stray Light: No (USB2+H05261)
Number of Pixels in Processed Spectrum: 2048
>>>>>Begin Processed Spectral Data<<<<<
365.73	126.39
365.92	126.39
366.12	126.39
366.32	74.90
366.52	74.90
366.72	0.00
366.91	93.62
367.11	51.49
367.31	0.00
367.51	58.51
367.70	107.66
367.90	56.17
368.10	79.58
368.30	112.35
368.49	98.30
368.69	81.92
368.89	58.51
369.09	100.64
369.28	124.05
369.48	49.15
369.68	110.01
369.87	25.75
370.07	93.62
370.27	131.07
370.47	222.35
370.66	341.72
370.86	503.22
371.06	465.77
371.25	519.60
371.45	451.72
371.65	535.98
371.84	390.87
372.04	449.38
372.24	458.74
372.44	442.36
372.63	468.11
372.83	521.94
373.03	493.85
373.22	543.00
373.42	435.34
373.62	526.62
373.81	505.56
374.01	491.51
374.21	617.90
374.40	535.98
374.60	617.90
374.79	582.79
374.99	580.45
375.19	596.84
375.38	578.11
375.58	617.90
375.78	631.94
375.97	610.88
376.17	615.56
376.37	547.69
376.56	585.13
376.76	615.56
376.95	594.50
377.15	627.26
377.35	650.67
377.54	634.29
377.74	554.71
377.93	564.07
378.13	711.52
378.33	601.52
378.52	627.26
378.72	748.97
378.91	615.56
379.11	578.11
379.31	662.37
379.50	631.94
379.70	624.92
379.89	648.33
380.09	683.44
380.28	610.88
380.48	650.67
380.68	575.77
380.87	606.20
381.07	641.31
381.26	713.86
381.46	594.50
381.65	676.41
381.85	683.44
382.04	730.25
382.24	603.86
382.43	674.07
382.63	688.12
382.83	730.25
383.02	718.54
383.22	748.97
383.41	678.76
383.61	704.50
383.80	753.65
384.00	753.65
384.19	730.25
384.39	763.01
384.58	788.76
384.78	819.19
384.97	765.36
385.17	732.59
385.36	709.18
385.56	777.06
385.75	720.88
385.95	781.74
386.14	767.70
386.34	746.63
386.53	774.72
386.72	814.51
386.92	840.25
387.11	809.83
387.31	840.25
387.50	856.64
387.70	800.46
387.89	889.40
388.09	826.21
388.28	851.96
388.48	866.00
388.67	896.43
388.86	870.68
389.06	828.55
389.25	901.11
389.45	870.68
389.64	887.06
389.84	891.74
390.03	912.81
390.22	847.27
390.42	954.94
390.61	819.19
390.81	851.96
391.00	950.26
391.19	940.90
391.39	961.96
391.58	987.71
391.78	983.02
391.97	1001.75
392.16	983.02
392.36	940.90
392.55	954.94
392.75	971.32
392.94	954.94
393.13	954.94
393.33	959.62
393.52	978.34
393.71	950.26
393.91	931.53
394.10	917.49
394.29	1018.13
394.49	1048.56
394.68	1090.69
394.88	1076.65
395.07	1160.91
395.26	1048.56
395.46	1090.69
395.65	1006.43
395.84	1149.20
396.04	1139.84
396.23	1219.42
396.42	999.41
396.62	1146.86
396.81	1132.82
397.00	1146.86
397.19	1153.88
397.39	1198.35
397.58	1196.01
397.77	1341.13
397.97	1170.27
398.16	1299.00
398.35	1231.12
398.55	1303.68
398.74	1329.42
398.93	1352.83
399.12	1299.00
399.32	1317.72
399.51	1320.06
399.70	1359.85
399.90	1348.15
400.09	1348.15
400.28	1486.24
400.47	1446.45
400.67	1551.78
400.86	1394.96
401.05	1425.39
401.24	1397.30
401.44	1413.68
401.63	1549.43
401.82	1446.45
402.01	1519.01
402.21	1472.20
402.40	1547.09
402.59	1490.92
402.78	1460.49
402.97	1481.56
403.17	1544.75
403.36	1575.18
403.55	1643.06
403.74	1511.99
403.93	1600.93
404.13	1699.23
404.32	1624.33
404.51	1650.08
404.70	1666.46
404.89	1717.95
405.09	1715.61
405.28	1636.03
405.47	1643.06
405.66	1748.38
405.85	1671.14
406.05	1710.93
406.24	1757.74
406.43	1816.26
406.62	1853.70
406.81	1907.54
407.00	1720.29
407.20	1891.15
407.39	1823.28
407.58	1877.11
407.77	1888.81
407.96	1956.69
408.15	1954.35
408.34	1933.28
408.54	2036.27
408.73	1996.48
408.92	1994.14
409.11	2003.50
409.30	2062.01
409.49	2026.90
409.68	2050.31
409.87	2031.58
410.07	2029.24
410.26	2043.29
410.45	2190.74
410.64	2108.82
410.83	2143.93
411.02	2197.76
411.21	2197.76
411.40	2237.55
411.59	2361.60
411.78	2305.43
411.98	2347.56
412.17	2328.83
412.36	2239.89
412.55	2385.01
412.74	2450.54
412.93	2441.18
413.12	2422.45
413.31	2583.95
413.50	2452.88
413.69	2532.46
413.88	2509.05
414.07	2516.08
414.26	2518.42
414.45	2628.42
414.64	2567.57
414.83	2675.23
415.02	2691.62
415.22	2825.03
415.41	2754.81
415.60	2801.62
415.79	2806.30
415.98	2888.22
416.17	2876.52
416.36	2766.51
416.55	2967.80
416.74	2841.41
416.93	2850.77
417.12	2834.39
417.31	3021.63
417.50	2799.28
417.69	3131.64
417.88	3049.72
418.07	3028.65
418.26	3075.46
418.45	3052.06
418.64	3145.68
418.83	3094.19
419.02	3038.02
419.21	3164.40
419.39	3274.41
419.58	3192.49
419.77	3286.11
419.96	3199.51
420.15	3258.03
420.34	3255.69
420.53	3316.54
420.72	3286.11
420.91	3372.71
421.10	3318.88
421.29	3456.97
421.48	3325.90
421.67	3370.37
421.86	3426.54
422.05	3520.17
422.24	3407.82
422.43	3403.14
422.61	3368.03
422.80	3517.83
422.99	3414.84
423.18	3398.46
423.37	3557.61
423.56	3585.70
423.75	3398.46
423.94	3433.57
424.13	3241.64
424.32	3370.37
424.50	3520.17
424.69	3559.95
424.88	3503.78
425.07	3648.90
425.26	3403.14
425.45	3473.36
425.64	3480.38
425.83	3660.60
426.01	3536.55
426.20	3782.31
426.39	3684.00
426.58	3503.78
426.77	3515.48
426.96	3571.66
427.15	3632.51
427.33	3602.08
427.52	3578.68
427.71	3749.54
427.90	3688.68
428.09	3737.84
428.28	3735.50
428.46	3803.37
428.65	3714.43
428.84	3852.52
429.03	3836.14
429.22	3653.58
429.40	3803.37
429.59	3857.20
429.78	3632.51
429.97	3651.24
430.16	3772.94
430.34	3866.56
430.53	3908.69
430.72	3899.33
430.91	3843.16
431.10	3819.75
431.28	4032.74
431.47	4180.20
431.66	4252.75
431.85	3962.53
432.03	4018.70
432.22	4187.22
432.41	4210.62
432.60	4234.03
432.79	4301.90
432.97	4133.39
433.16	4327.65
433.35	4173.18
433.54	4299.56
433.72	4292.54
433.91	4212.96
434.10	4273.82
434.28	4257.43
434.47	4313.61
434.66	4329.99
434.85	4395.53
435.03	4435.32
435.22	4409.57
435.41	4634.26
435.59	4496.17
435.78	4575.75
435.97	4638.94
436.16	4454.04
436.34	4411.91
436.53	4540.64
436.72	4795.76
436.90	4566.39
437.09	4648.30
437.28	4737.24
437.46	4573.41
437.65	4652.98
437.84	4648.30
438.02	4636.60
438.21	4781.71
438.40	4636.60
438.58	4819.16
438.77	4891.72
438.96	4894.06
439.14	4961.94
439.33	4947.89
439.52	4971.30
439.70	5071.94
439.89	5046.20
440.08	5235.78
440.26	5041.51
440.45	5336.42
440.63	5210.03
440.82	5343.44
441.01	5411.32
441.19	5247.48
441.38	5338.76
441.57	5423.02
441.75	5460.47
441.94	5490.90
442.12	5650.05
442.31	5547.07
442.50	5769.42
442.68	5724.95
442.87	5593.88
443.05	5703.89
443.24	5788.14
443.43	5664.10
443.61	5774.10
443.80	6008.16
443.98	5753.04
444.17	5626.65
444.35	5905.17
444.54	5851.34
444.73	5870.06
444.91	5734.31
445.10	5874.74
445.28	5790.49
445.47	5734.31
445.65	5846.66
445.84	5849.00
446.02	5778.78
446.21	5907.51
446.39	5879.43
446.58	6022.20
446.77	5956.66
446.95	5823.25
447.14	6043.26
447.32	5996.45
447.51	5895.81
447.69	5940.28
447.88	5881.77
448.06	5928.58
448.25	5944.96
448.43	6111.14
448.62	6104.12
448.80	6017.52
448.99	6106.46
449.17	6279.66
449.36	6125.18
449.54	6134.54
449.73	6427.11
449.91	6317.11
450.10	6279.66
450.28	6434.13
450.46	6455.20
450.65	6415.41
450.83	6303.06
451.02	6298.38
451.20	6448.18
451.39	6256.25
451.57	6422.43
451.76	6457.54
451.94	6394.34
452.13	6534.78
452.31	6518.39
452.49	6441.15
452.68	6424.77
452.86	6401.37
453.05	6363.92
453.23	6581.59
453.42	6417.75
453.60	6537.12
453.78	6616.69
453.97	6677.55
454.15	6572.22
454.34	6670.53
454.52	6684.57
454.70	6766.49
454.89	6593.29
455.07	6820.32
455.26	6766.49
455.44	6970.12
455.62	6984.16
455.81	6932.67
455.99	6956.07
456.17	7056.72
456.36	6946.71
456.54	7005.22
456.73	7131.61
456.91	7438.22
457.09	7234.60
457.28	7391.41
457.46	7063.74
457.64	7243.96
457.83	7246.30
458.01	7316.51
458.19	7435.88
458.38	7302.47
458.56	7581.00
458.74	7398.43
458.93	7452.27
459.11	7440.56
459.29	7290.77
459.48	7433.54
459.66	7564.61
459.84	7421.84
460.03	7707.38
460.21	7529.50
460.39	7616.10
460.57	7644.19
460.76	7669.94
460.94	7625.47
461.12	7576.31
461.31	7779.94
461.49	7613.76
461.67	7868.88
461.85	7768.24
462.04	7918.03
462.22	8250.39
462.40	8121.66
462.59	8046.76
462.77	7922.71
462.95	8156.77
463.13	7978.89
463.32	8116.98
463.50	8283.16
463.68	8119.32
463.86	8030.38
464.05	8056.12
464.23	8016.33
464.41	8255.07
464.59	8028.04
464.78	8346.35
464.96	8105.28
465.14	7990.59
465.32	8070.17
465.50	8313.58
465.69	8409.54
465.87	8234.00
466.05	8219.96
466.23	8344.01
466.41	8215.28
466.60	8547.64
466.78	8149.75
466.96	8486.78
467.14	8767.65
467.32	8397.84
467.51	8554.66
467.69	8306.56
467.87	8402.52
468.05	8697.43
468.23	8475.08
468.41	8493.80
468.60	8622.53
468.78	8720.84
468.96	8573.38
469.14	8760.63
469.32	8898.72
469.50	8734.88
469.69	8854.25
469.87	8985.32
470.05	9004.04
470.23	8950.21
470.41	8990.00
470.59	8987.66
470.77	8994.68
470.95	9146.81
471.14	9121.07
471.32	9029.79
471.50	9296.61
471.68	9184.26
471.86	9329.38
472.04	9357.46
472.22	9577.47
472.40	9224.05
472.58	9320.01
472.77	9291.93
472.95	9518.96
473.13	9872.38
473.31	9495.55
473.49	9570.45
473.67	9624.28
473.85	9598.54
474.03	10031.54
474.21	10169.63
474.39	9970.68
474.57	9984.73
474.75	10104.09
474.93	10076.01
475.12	10097.07
475.30	10270.27
475.48	10174.31
475.66	10452.83
475.84	10363.89
476.02	10118.14
476.20	10291.34
476.38	10455.17
476.56	10675.18
476.74	10647.10
476.92	10590.92
477.10	10721.99
477.28	11068.39
477.46	11105.84
477.64	10965.41
477.82	11215.85
478.00	11232.23
478.18	11325.85
478.36	11180.74
478.54	11543.52
478.72	11548.20
478.90	11723.74
479.08	11651.19
479.26	11737.79
479.44	12109.93
479.62	11969.50
479.80	12056.10
479.98	11936.73
480.16	12578.04
480.34	12248.02
480.52	12451.65
480.70	12486.76
480.88	12332.28
481.06	12519.53
481.24	12601.44
481.41	12982.95
481.59	13174.88
481.77	12912.74
481.95	13142.11
482.13	13322.33
482.31	12971.25
482.49	13434.68
482.67	13195.94
482.85	13556.38
483.03	13811.50
483.21	13547.02
483.39	13830.23
483.57	13862.99
483.74	13935.55
483.92	14413.02
484.10	14328.76
484.28	14279.61
484.46	14689.20
484.64	15164.33
484.82	14731.33
485.00	14686.86
485.18	15049.64
485.35	15117.52
485.53	14782.82
485.71	15204.12
485.89	15304.76
486.07	15405.41
486.25	15510.73
486.43	15489.67
486.61	15719.04
486.78	15913.30
486.96	15950.75
487.14	16116.93
487.32	16210.55
487.50	16369.71
487.68	16468.01
487.85	16563.97
488.03	16795.68
488.21	17060.16
488.39	16849.52
488.57	17064.85
488.75	17205.28
488.92	17554.02
489.10	17385.50
489.28	17591.47
489.46	17860.63
489.64	18019.78
489.81	18363.84
489.99	18171.92
490.17	18523.00
490.35	18700.88
490.53	18775.78
490.70	18918.55
490.88	18726.63
491.06	19096.43
491.24	19145.58
491.41	19374.95
491.59	19115.16
491.77	19110.47
491.95	19278.99
492.13	19473.26
492.30	19702.63
492.48	19850.08
492.66	19742.42
492.84	20280.74
493.01	20049.03
493.19	20084.14
493.37	20559.27
493.54	20652.89
493.72	20556.93
493.90	20830.77
494.08	21069.50
494.25	20964.18
494.43	20842.47
494.61	21568.04
494.79	21301.22
494.96	21226.32
495.14	21617.19
495.32	21633.57
495.49	21972.95
495.67	21881.67
495.85	22207.00
496.02	22223.39
496.20	22270.20
496.38	22106.36
496.55	22160.19
496.73	23016.83
496.91	22710.22
497.09	22803.84
497.26	23269.61
497.44	22878.74
497.62	23110.45
497.79	23337.48
497.97	23084.70
498.14	23442.81
498.32	23669.84
498.50	23480.25
498.67	24018.58
498.85	23861.76
499.03	24142.63
499.20	23819.63
499.38	24320.51
499.56	24582.65
499.73	24329.87
499.91	24496.05
500.08	24559.24
500.26	24376.68
500.44	24966.49
500.61	24856.49
500.79	24573.28
500.97	24566.26
501.14	25170.12
501.32	24903.30
501.49	25240.34
501.67	25132.67
501.84	25202.89
502.02	25174.80
502.20	25860.58
502.37	25745.89
502.55	25757.60
502.72	25823.13
502.90	25996.33
503.07	25823.13
503.25	25502.48
503.43	25919.09
503.60	26314.64
503.78	25977.61
503.95	26068.89
504.13	26118.04
504.30	26775.73
504.48	26511.25
504.65	26817.86
504.83	26845.94
505.01	26974.67
505.18	26785.09
505.36	27271.92
505.53	27005.10
505.71	27398.31
505.88	27391.29
506.06	27140.85
506.23	27557.47
506.41	27410.01
506.58	27168.94
506.76	27597.26
506.93	27826.63
507.11	27737.69
507.28	27903.87
507.46	27899.19
507.63	28095.79
507.81	28318.14
507.98	28032.60
508.16	28231.54
508.33	28367.29
508.50	28643.48
508.68	28683.27
508.85	28903.28
509.03	28704.33
509.20	28718.37
509.38	28737.10
509.55	28849.44
509.73	28917.32
509.90	29144.35
510.08	28954.77
510.25	29572.67
510.42	29457.98
510.60	29670.97
510.77	29450.96
510.95	29558.63
511.12	29479.05
511.30	29827.79
511.47	30057.16
511.64	30190.57
511.82	30221.00
511.99	29989.28
512.17	29729.48
512.34	29979.92
512.51	30323.98
512.69	30813.15
512.86	30668.04
513.04	30265.47
513.21	30801.45
513.38	30654.00
513.56	30726.55
513.73	30525.27
513.90	30881.03
514.08	30979.33
514.25	30962.95
514.43	31147.85
514.60	30843.58
514.77	31189.98
514.95	31463.82
515.12	31218.07
515.29	31150.19
515.47	31725.96
515.64	31711.92
515.81	31440.42
515.99	31955.33
516.16	31686.17
516.33	31576.17
516.51	31845.33
516.68	31220.41
516.85	31613.62
517.03	31690.85
517.20	32247.90
517.37	31960.02
517.54	31681.49
517.72	32360.25
517.89	32385.99
518.06	32589.62
518.24	31999.80
518.41	32053.64
518.58	32507.70
518.75	32336.84
518.93	32790.91
519.10	32659.84
519.27	33160.71
519.45	32924.32
519.62	33324.55
519.79	33139.65
519.96	32615.37
520.14	33144.33
520.31	33291.78
520.48	33315.19
520.65	33443.91
520.83	33834.78
521.00	33682.65
521.17	33528.17
521.34	33773.93
521.52	33762.23
521.69	34003.30
521.86	33816.06
522.03	34213.95
522.20	34117.99
522.38	34443.32
522.55	34476.09
522.72	34132.03
522.89	34007.98
523.07	34405.88
523.24	34513.54
523.41	34630.57
523.58	34536.94
523.75	34848.24
523.92	34976.97
524.10	34991.01
524.27	35023.78
524.44	35196.98
524.61	34972.28
524.78	35297.62
524.96	35101.01
525.13	35342.09
525.30	35363.15
525.47	35372.52
525.64	35496.56
525.81	35494.22
525.98	35447.41
526.16	35386.56
526.33	35332.73
526.50	35690.83
526.67	35363.15
526.84	35461.46
527.01	35250.81
527.18	35625.29
527.36	35728.28
527.53	35882.75
527.70	36165.96
527.87	36055.95
528.04	35910.84
528.21	35779.77
528.38	36128.51
528.55	36594.28
528.72	36297.03
528.89	36971.10
529.07	36744.07
529.24	36503.00
529.41	36821.31
529.58	36720.66
529.75	36198.73
529.92	36804.92
530.09	36655.13
530.26	36917.27
530.43	36753.43
530.60	36591.94
530.77	36961.74
530.94	37413.46
531.11	37219.20
531.28	37186.43
531.46	36858.76
531.63	37221.54
531.80	36985.15
531.97	37258.99
532.14	37542.19
532.31	37399.42
532.48	37572.62
532.65	37610.07
532.82	37401.76
532.99	37521.13
533.16	37535.17
533.33	37694.33
533.50	38017.32
533.67	37794.97
533.84	37790.29
534.01	37769.22
534.18	37530.49
534.35	38167.12
534.52	38022.00
534.69	38136.69
534.86	38246.69
535.03	37944.76
535.20	38176.48
535.37	38574.37
535.54	38738.21
535.71	38555.64
535.88	38419.89
536.05	38644.59
536.22	38473.73
536.38	38569.69
536.55	38799.06
536.72	38319.25
536.89	38616.50
537.06	38508.83
537.23	38993.32
537.40	38560.33
537.57	38754.59
537.74	38843.53
537.91	38958.22
538.08	39133.76
538.25	38675.01
538.42	38951.20
538.59	39718.89
538.75	38770.97
538.92	38958.22
539.09	39269.51
539.26	39236.74
539.43	39283.55
539.60	39117.37
539.77	39313.98
539.94	39344.41
540.11	39110.35
540.28	39309.30
540.44	39541.01
540.61	39065.88
540.78	39662.72
540.95	39552.71
541.12	39761.02
541.29	39342.06
541.46	39276.53
541.62	39585.48
541.79	40203.38
541.96	39894.43
542.13	39475.48
542.30	39880.39
542.47	40121.46
542.63	40095.72
542.80	40137.85
542.97	40411.69
543.14	40563.82
543.31	40453.82
543.48	40765.11
543.64	40645.74
543.81	40924.27
543.98	40744.05
544.15	40491.27
544.32	40795.54
544.48	40886.82
544.65	41085.76
544.82	40821.28
544.99	40641.06
545.16	40907.88
545.32	40435.10
545.49	41221.52
545.66	40975.76
545.83	41111.51
546.00	41120.87
546.16	41324.50
546.33	41088.10
546.50	40289.98
546.67	41060.02
546.83	40818.94
547.00	41038.95
547.17	41383.01
547.34	41177.04
547.50	41345.56
547.67	41415.78
547.84	41478.97
548.00	41673.24
548.17	41528.13
548.34	41338.54
548.51	41848.78
548.67	41617.07
548.84	41839.42
549.01	41766.86
549.18	41883.89
549.34	42047.72
549.51	42073.47
549.68	41883.89
549.84	41687.28
550.01	42492.43
550.18	41888.57
550.34	41844.10
550.51	41673.24
550.68	41663.88
550.84	41605.36
551.01	41935.38
551.18	41581.96
551.34	41881.55
551.51	42080.49
551.68	42274.76
551.84	42438.59
552.01	42244.33
552.18	42171.77
552.34	41914.31
552.51	42366.04
552.68	42124.96
552.84	42003.25
553.01	42719.46
553.18	42197.52
553.34	42497.11
553.51	42579.03
553.67	42375.40
553.84	43009.68
554.01	42707.76
554.17	42932.45
554.34	42993.30
554.51	42649.24
554.67	42988.62
554.84	43157.14
555.00	42836.48
555.17	42911.38
555.33	42930.11
555.50	43042.45
555.67	43248.42
555.83	42639.88
556.00	42632.86
556.16	43227.35
556.33	43290.55
556.50	43157.14
556.66	43662.69
556.83	43107.99
556.99	43388.85
557.16	42976.92
557.32	42909.04
557.49	43056.50
557.65	42712.44
557.82	42735.84
557.98	43100.97
558.15	43505.88
558.32	43358.42
558.48	43501.20
558.65	43107.99
558.81	42887.98
558.98	43377.15
559.14	43271.82
559.31	43913.13
559.47	43346.72
559.64	44095.69
559.80	43730.57
559.97	43583.12
560.13	43463.75
560.30	43021.39
560.46	43906.11
560.63	43503.54
560.79	43910.79
560.96	43978.67
561.12	43763.34
561.29	43889.73
561.45	43363.11
561.61	43723.55
561.78	43604.18
561.94	43590.14
562.11	42990.96
562.27	43938.88
562.44	43821.85
562.60	44069.95
562.77	44179.95
562.93	43714.19
563.10	43854.62
563.26	43082.24
563.42	43650.99
563.59	43693.12
563.75	43817.17
563.92	44245.49
564.08	44203.36
564.24	44360.17
564.41	44444.43
564.57	43721.21
564.74	44154.21
564.90	44009.09
565.07	44018.46
565.23	44055.90
565.39	43583.12
565.56	44336.77
565.72	43861.64
565.88	43543.33
566.05	44161.23
566.21	43936.54
566.38	43983.35
566.54	44069.95
566.70	44065.27
566.87	44631.68
567.03	43718.87
567.19	44687.85
567.36	44201.02
567.52	43887.39
567.68	44093.35
567.85	44170.59
568.01	44325.07
568.17	44079.31
568.34	44388.26
568.50	44416.35
568.66	44058.24
568.83	44189.31
568.99	43999.73
569.15	44341.45
569.32	44603.59
569.48	44163.57
569.64	44685.51
569.81	44832.96
569.97	44271.23
570.13	44444.43
570.30	43929.51
570.46	44432.73
570.62	44123.78
570.78	44107.40
570.95	43885.04
571.11	44495.92
571.27	44355.49
571.43	44273.57
571.60	44891.48
571.76	44327.41
571.92	44243.15
572.09	44442.09
572.25	44725.30
572.41	44418.69
572.57	44259.53
572.74	45085.74
572.90	44369.54
573.06	44577.84
573.22	44603.59
573.38	44591.89
573.55	44282.94
573.71	44619.97
573.87	44722.96
574.03	44671.46
574.20	44877.43
574.36	44516.99
574.52	44449.11
574.68	44823.60
574.84	44793.17
575.01	44231.44
575.17	44641.04
575.33	44205.70
575.49	44238.47
575.65	44568.48
575.82	44870.41
575.98	44636.36
576.14	44678.49
576.30	44472.52
576.46	44484.22
576.62	44538.05
576.79	44411.67
576.95	43948.24
577.11	44615.29
577.27	44615.29
577.43	44706.57
577.59	44643.38
577.75	44610.61
577.92	44306.34
578.08	44123.78
578.24	44186.97
578.40	44509.97
578.56	44652.74
578.72	44947.65
578.88	44910.20
579.04	44182.29
579.21	44612.95
579.37	44296.98
579.53	44348.47
579.69	44737.00
579.85	44474.86
580.01	45244.90
580.17	44844.66
580.33	45003.82
580.49	44741.68
580.65	44472.52
580.82	44790.83
580.98	44596.57
581.14	44641.04
581.30	44711.25
581.46	44376.56
581.62	43945.90
581.78	44458.48
581.94	44910.20
582.10	44975.73
582.26	45013.18
582.42	45123.19
582.58	44690.19
582.74	44765.09
582.90	44662.10
583.06	45118.51
583.22	44996.80
583.38	44561.46
583.54	44830.62
583.70	44954.67
583.86	44793.17
584.02	44247.83
584.18	44648.06
584.34	44807.22
584.50	44832.96
584.66	44430.39
584.82	44624.65
584.98	44844.66
585.14	44849.35
585.30	44568.48
585.46	44685.51
585.62	44762.75
585.78	44854.03
585.94	44339.11
586.10	44751.04
586.26	44734.66
586.42	44472.52
586.58	45083.40
586.74	44713.59
586.90	44580.18
587.06	44594.23
587.22	44875.09
587.38	44907.86
587.54	45280.00
587.70	45088.08
587.86	45001.48
588.02	45081.06
588.18	45471.93
588.34	44622.31
588.49	44631.68
588.65	44701.89
588.81	44444.43
588.97	44371.88
589.13	44617.63
589.29	44336.77
589.45	45209.79
589.61	44704.23
589.77	45031.91
589.93	44971.05
590.08	45116.17
590.24	45460.23
590.40	45170.00
590.56	45186.38
590.72	44896.16
590.88	44959.35
591.04	44715.93
591.20	45333.84
591.35	45097.44
591.51	45368.94
591.67	45200.43
591.83	44659.76
591.99	44715.93
592.15	44786.15
592.31	45055.31
592.46	45017.86
592.62	45116.17
592.78	44809.56
592.94	45326.81
593.10	45366.60
593.26	45287.03
593.41	45268.30
593.57	44594.23
593.73	44999.14
593.89	45008.50
594.05	44957.01
594.20	45017.86
594.36	45221.49
594.52	44673.81
594.68	45219.15
594.84	45237.87
594.99	45268.30
595.15	45247.24
595.31	45825.35
595.47	45579.59
595.62	45350.22
595.78	45247.24
595.94	45429.80
596.10	45310.43
596.25	45064.67
596.41	45249.58
596.57	45254.26
596.73	45340.86
596.88	44645.72
597.04	44987.44
597.20	45347.88
597.36	45240.21
597.51	45778.54
597.67	45439.16
597.83	45261.28
597.99	45312.77
598.14	45209.79
598.30	45254.26
598.46	45130.21
598.61	45212.13
598.77	45008.50
598.93	45249.58
599.09	45064.67
599.24	45535.12
599.40	45319.79
599.56	45523.42
599.71	44987.44
599.87	45382.99
600.03	45265.96
600.18	45247.24
600.34	45371.28
600.50	45071.70
600.65	45078.72
600.81	45104.46
600.97	45165.32
601.12	45872.16
601.28	45144.25
601.44	45280.00
601.59	45284.68
601.75	44800.19
601.91	45057.65
602.06	44947.65
602.22	45062.33
602.37	45272.98
602.53	44924.24
602.69	45326.81
602.84	44903.18
603.00	45050.63
603.16	45450.86
603.31	45071.70
603.47	44758.06
603.62	45240.21
603.78	45022.54
603.94	45113.83
604.09	45544.48
604.25	44994.46
604.40	45186.38
604.56	45102.12
604.71	45099.78
604.87	44566.14
605.03	44868.07
605.18	44924.24
605.34	44994.46
605.49	44985.10
605.65	45059.99
605.80	45003.82
605.96	45511.72
606.12	45495.33
606.27	45291.71
606.43	45371.28
606.58	45144.25
606.74	44755.72
606.89	45193.40
607.05	45059.99
607.20	45113.83
607.36	45013.18
607.51	45511.72
607.67	45198.09
607.82	45069.36
607.98	44690.19
608.13	44615.29
608.29	44755.72
608.44	44608.27
608.60	44243.15
608.75	44556.78
608.91	44463.16
609.06	44596.57
609.22	45052.97
609.37	44634.02
609.53	44612.95
609.68	44570.82
609.84	44760.40
609.99	44495.92
610.15	44863.39
610.30	44467.84
610.46	44521.67
610.61	44596.57
610.76	44795.51
610.92	44325.07
611.07	44488.90
611.23	44430.39
611.38	44395.28
611.54	44556.78
611.69	44411.67
611.84	44439.75
612.00	44502.95
612.15	44336.77
612.31	44439.75
612.46	44552.10
612.62	45027.23
612.77	44264.21
612.92	44580.18
613.08	44453.79
613.23	44371.88
613.39	44074.63
613.54	44013.77
613.69	44369.54
613.85	44189.31
614.00	44149.53
614.15	44524.01
614.31	44463.16
614.46	44657.42
614.62	44194.00
614.77	44240.81
614.92	43938.88
615.08	44289.96
615.23	43943.56
615.38	44004.41
615.54	43913.13
615.69	43995.05
615.84	43306.93
616.00	44275.91
616.15	43992.71
616.30	44322.72
616.46	43971.64
616.61	43459.07
616.76	44112.08
616.92	43915.47
617.07	43606.52
617.22	43379.49
617.37	43709.50
617.53	43882.70
617.68	44011.43
617.83	43880.36
617.99	43983.35
618.14	44053.56
618.29	43667.37
618.45	43217.99
618.60	43491.83
618.75	43550.35
618.90	43878.02
619.06	44098.03
619.21	43981.01
619.36	43945.90
619.51	43456.73
619.67	43765.68
619.82	43360.76
619.97	43707.16
620.12	43337.36
620.28	42653.92
620.43	43533.96
620.58	43412.26
620.73	43330.34
620.89	43335.02
621.04	43407.58
621.19	42976.92
621.34	42768.61
621.49	43313.95
621.65	43086.92
621.80	43089.26
621.95	43313.95
622.10	43091.60
622.25	42878.61
622.41	43030.75
622.56	42721.80
622.71	43597.16
622.86	43384.17
623.01	43225.01
623.16	43161.82
623.32	42850.53
623.47	42937.13
623.62	42948.83
623.77	42684.35
623.92	42859.89
624.07	42855.21
624.23	42579.03
624.38	42522.85
624.53	42660.94
624.68	42990.96
624.83	42845.85
624.98	42986.28
625.13	42876.27
625.29	42745.20
625.44	42586.05
625.59	42557.96
625.74	42679.67
625.89	42164.75
626.04	42218.58
626.19	42326.25
626.34	42536.90
626.49	42354.33
626.65	42174.11
626.80	42593.07
626.95	42089.85
627.10	42342.63
627.25	42483.06
627.40	41778.56
627.55	41605.36
627.70	41574.94
627.85	41581.96
628.00	41993.89
628.15	42241.99
628.30	42220.92
628.45	42457.32
628.60	41979.85
628.76	42359.02
628.91	42110.92
629.06	42106.24
629.21	41830.05
629.36	41642.81
629.51	41724.73
629.66	41441.53
629.81	41390.03
629.96	41762.18
630.11	41493.02
630.26	41907.29
630.41	42043.04
630.56	41588.98
630.71	41474.29
630.86	41242.58
631.01	41207.47
631.16	41446.21
631.31	41167.68
631.46	41020.23
631.61	41565.57
631.76	41553.87
631.91	41425.14
632.06	41605.36
632.21	41406.42
632.36	41972.83
632.51	40992.14
632.66	41577.28
632.81	41045.97
632.96	41202.79
633.10	41045.97
633.25	41102.15
633.40	41008.53
633.55	41476.63
633.70	41010.87
633.85	40823.62
634.00	40952.35
634.15	40725.32
634.30	40832.99
634.45	41045.97
634.60	40844.69
634.75	40933.63
634.90	40758.09
635.05	40730.00
635.19	40669.15
635.34	40739.36
635.49	40907.88
635.64	40765.11
635.79	40648.08
635.94	40844.69
636.09	41076.40
636.24	40547.44
636.39	40404.67
636.53	39948.26
636.68	40261.90
636.83	40407.01
636.98	40713.62
637.13	40137.85
637.28	40334.45
637.43	40760.43
637.57	40734.68
637.72	40430.41
637.87	40287.64
638.02	40472.54
638.17	40278.28
638.32	40093.38
638.46	40327.43
638.61	40123.80
638.76	39887.41
638.91	39880.39
639.06	40187.00
639.20	40170.61
639.35	40385.94
639.50	40018.48
639.65	40201.04
639.80	40282.96
639.94	39976.35
640.09	40126.14
640.24	39845.28
640.39	39732.93
640.54	39974.01
640.68	39648.68
640.83	40079.33
640.98	40030.18
641.13	39161.84
641.27	39583.14
641.42	39896.77
641.57	40203.38
641.72	39690.80
641.86	39742.30
642.01	39571.44
642.16	39447.39
642.31	39201.63
642.45	39264.83
642.60	39402.92
642.75	39648.68
642.90	39484.84
643.04	39629.95
643.19	39068.22
643.34	39297.59
643.48	39379.51
643.63	39302.28
643.78	38986.30
643.93	39363.13
644.07	38787.36
644.22	39189.93
644.37	38527.56
644.51	39154.82
644.66	39431.01
644.81	39435.69
644.95	39047.16
645.10	39131.42
645.25	39489.52
645.39	39175.89
645.54	39379.51
645.69	39079.92
645.83	38869.28
645.98	38948.85
646.13	39016.73
646.27	39201.63
646.42	38693.74
646.57	38817.78
646.71	38665.65
646.86	39086.95
647.00	38965.24
647.15	38878.64
647.30	39021.41
647.44	38735.87
647.59	38595.43
647.74	38572.03
647.88	38646.93
648.03	38455.00
648.17	38520.54
648.32	38492.45
648.47	38286.48
648.61	38185.84
648.76	38902.04
648.90	38735.87
649.05	38609.48
649.20	38476.07
649.34	38417.55
649.49	38345.00
649.63	38557.99
649.78	38525.22
649.92	38134.35
650.07	38469.04
650.21	38043.07
650.36	38557.99
650.51	38139.03
650.65	38455.00
650.80	38691.40
650.94	38478.41
651.09	38464.36
651.23	37787.95
651.38	38181.16
651.52	37942.42
651.67	38267.76
651.81	37979.87
651.96	38174.14
652.10	38281.80
652.25	38150.73
652.39	37942.42
652.54	38274.78
652.68	38050.09
652.83	38141.37
652.97	38045.41
653.12	38148.39
653.26	37448.57
653.41	38169.46
653.55	37851.14
653.70	37378.36
653.84	37167.71
653.99	38216.27
654.13	37624.11
654.27	37177.07
654.42	37600.71
654.56	37113.87
654.71	37591.34
654.85	37799.65
655.00	37979.87
655.14	37301.12
655.29	37134.94
655.43	37296.44
655.57	37359.63
655.72	37010.89
655.86	37186.43
656.01	37125.58
656.15	36947.70
656.30	37282.39
656.44	36580.23
656.58	37170.05
656.73	36884.50
656.87	36870.46
657.01	36746.41
657.16	37163.03
657.30	36510.02
657.45	36378.95
657.59	36631.72
657.73	36758.11
657.88	37160.69
658.02	36884.50
658.16	36589.59
658.31	36985.15
658.45	36919.61
658.60	36825.99
658.74	36879.82
658.88	36648.11
659.03	36851.73
659.17	36290.01
659.31	36694.92
659.46	36381.29
659.60	36596.62
659.74	36182.34
659.89	35983.40
660.03	35674.45
660.17	36184.68
660.32	35887.43
660.46	36474.91
660.60	36030.21
660.74	36233.83
660.89	36247.88
661.03	35747.00
661.17	35976.37
661.32	35646.36
661.46	35756.36
661.60	35070.59
661.74	35332.73
661.89	35751.68
662.03	35704.87
662.17	34969.94
662.31	35594.87
662.46	35920.20
662.60	35882.75
662.74	35353.79
662.88	35571.46
663.03	35468.48
663.17	35332.73
663.31	35182.93
663.45	35728.28
663.60	35243.79
663.74	35215.70
663.88	34927.81
664.02	35096.33
664.17	35211.02
664.31	34923.13
664.45	34621.20
664.59	35218.04
664.73	34918.45
664.88	34902.07
665.02	34298.21
665.16	34312.25
665.30	34960.58
665.44	34724.19
665.59	34232.68
665.73	34330.98
665.87	34050.11
666.01	34134.37
666.15	34546.31
666.29	33823.08
666.44	34646.95
666.58	34026.71
666.72	34213.95
666.86	34054.79
667.00	34469.07
667.14	33766.91
667.28	33914.36
667.43	33804.36
667.57	33799.68
667.71	33647.54
667.85	33795.00
667.99	33743.50
668.13	33607.75
668.27	33022.62
668.41	33450.94
668.56	33118.58
668.70	33310.50
668.84	33488.38
668.98	33294.12
669.12	33277.74
669.26	33130.28
669.40	32879.85
669.54	32774.52
669.68	33191.14
669.82	33317.53
669.96	32849.42
670.10	32528.77
670.25	33062.41
670.39	33071.77
670.53	32929.00
670.67	32442.17
670.81	32769.84
670.95	33041.34
671.09	32608.34
671.23	32598.98
671.37	32498.34
671.51	32346.20
671.65	32423.44
671.79	31807.88
671.93	32011.51
672.07	32311.10
672.21	32109.81
672.35	31854.69
672.49	32039.59
672.63	31945.97
672.77	31873.42
672.91	31510.63
673.05	31562.12
673.19	31615.96
673.33	31522.34
673.47	31826.60
673.61	30960.61
673.75	31328.07
673.89	30909.11
674.03	30845.92
674.17	31206.36
674.31	30803.79
674.45	30808.47
674.59	31056.57
674.73	31180.62
674.87	30803.79
675.01	30981.67
675.15	31016.78
675.29	31278.92
675.43	30941.88
675.56	30588.46
675.70	30443.35
675.84	29846.51
675.98	29263.72
676.12	30616.55
676.26	29963.54
676.40	30286.53
676.54	29825.45
676.68	29937.79
676.82	29284.78
676.96	30012.69
677.10	29633.52
677.23	29317.55
677.37	29298.83
677.51	29350.32
677.65	29303.51
677.79	29284.78
677.93	29364.36
678.07	29137.33
678.21	28856.46
678.34	28690.29
678.48	28922.00
678.62	28870.51
678.76	28404.74
678.90	28266.65
679.04	28762.84
679.18	28662.20
679.31	28060.68
679.45	28191.75
679.59	27557.47
679.73	27936.63
679.87	28301.76
680.00	27541.08
680.14	27896.85
680.28	27529.38
680.42	27770.46
680.56	27620.66
680.70	27615.98
680.83	27559.81
680.97	26532.31
681.11	27204.05
681.25	26548.70
681.39	26700.83
681.52	26923.18
681.66	27075.32
681.80	26611.89
681.94	26668.06
682.07	26478.48
682.21	26398.90
682.35	26155.49
682.49	26263.15
682.62	26038.46
682.76	26012.71
682.90	26181.23
683.04	26164.85
683.17	26118.04
683.31	25731.85
683.45	25584.40
683.59	25624.18
683.72	25731.85
683.86	25214.59
684.00	25046.07
684.13	25022.67
684.27	25528.22
684.41	24952.45
684.55	25130.33
684.68	24945.43
684.82	24802.66
684.96	24748.82
685.09	24858.83
685.23	24603.71
685.37	24606.05
685.50	24594.35
685.64	24482.00
685.78	24372.00
685.91	24311.14
686.05	24423.49
686.19	23953.04
686.32	23978.79
686.46	23723.67
686.60	23498.98
686.73	23903.89
686.87	23344.50
687.01	23527.06
687.14	23140.88
687.28	23157.26
687.42	23051.94
687.55	22689.15
687.69	23250.88
687.82	22754.69
687.96	23058.96
688.10	23058.96
688.23	22939.59
688.37	22398.93
688.50	22305.31
688.64	22492.55
688.78	22216.36
688.91	22242.11
689.05	22242.11
689.18	21940.18
689.32	21525.91
689.46	22087.64
689.59	22223.39
689.73	22169.55
689.86	21577.40
690.00	21511.86
690.13	21685.06
690.27	21481.44
690.41	21167.80
690.54	20989.92
690.68	21191.21
690.81	21315.26
690.95	20896.30
691.08	20765.23
691.22	20889.28
691.35	20872.90
691.49	20638.84
691.62	20589.69
691.76	20753.53
691.89	20727.78
692.03	20620.12
692.16	20278.40
692.30	20376.70
692.43	20498.41
692.57	19990.52
692.70	19988.18
692.84	19960.09
692.97	19960.09
693.11	19508.37
693.24	19793.91
693.38	19557.52
693.51	19363.25
693.65	19550.49
693.78	19346.87
693.92	19433.47
694.05	19531.77
694.19	19180.69
694.32	19232.18
694.45	19197.07
694.59	18934.93
694.72	18951.32
694.86	18719.60
694.99	19176.01
695.13	18806.20
695.26	18377.89
695.39	18380.23
695.53	18225.75
695.66	18611.94
695.80	18438.74
695.93	18005.74
696.07	18129.79
696.20	18181.28
696.33	17942.55
696.47	18082.98
696.60	18101.70
696.73	17827.86
696.87	17666.36
697.00	17818.50
697.14	17781.05
697.27	17479.12
697.40	17680.41
697.54	17364.43
697.67	17231.02
697.80	17207.62
697.94	17188.89
698.07	16985.27
698.21	16961.86
698.34	16940.80
698.47	17081.23
698.61	16538.23
698.74	16514.82
698.87	16552.27
699.01	16325.24
699.14	16285.45
699.27	16205.87
699.40	16271.40
699.54	16156.72
699.67	16226.93
699.80	16133.31
699.94	16046.71
700.07	16140.33
700.20	16037.35
700.34	15538.82
700.47	15864.15
700.60	15763.51
700.73	15728.40
700.87	15875.85
701.00	15651.16
701.13	15358.60
701.26	15578.61
701.40	15382.00
701.53	15250.93
701.66	15253.27
701.79	15098.80
701.93	15152.63
702.06	14822.61
702.19	14745.38
702.32	14972.41
702.46	14768.78
702.59	14841.34
702.72	14939.64
702.85	14647.07
702.99	14654.09
703.12	14675.16
703.25	14614.30
703.38	14640.05
703.51	14244.50
703.65	14445.79
703.78	14253.86
703.91	13944.91
704.04	14120.45
704.17	14183.65
704.31	13699.16
704.44	13818.52
704.57	13511.91
704.70	13640.64
704.83	13642.98
704.96	13607.87
705.10	13844.27
705.23	13701.50
>>>>>End Processed Spectral Data<<<<<
