SpectraSuite Data File
++++++++++++++++++++++++++++++++++++
Date: Fri Oct 25 11:33:45 EDT 2013
User: price-jones
Dark Spectrum Present: No
Reference Spectrum Present: No
Number of Sampled Component Spectra: 1
Spectrometers: USB2+H05261
Integration Time (usec): 100000 (USB2+H05261)
Spectra Averaged: 1 (USB2+H05261)
Boxcar Smoothing: 0 (USB2+H05261)
Correct for Electrical Dark: No (USB2+H05261)
Strobe/Lamp Enabled: No (USB2+H05261)
Correct for Detector Non-linearity: No (USB2+H05261)
Correct for Stray Light: No (USB2+H05261)
Number of Pixels in Processed Spectrum: 2048
>>>>>Begin Processed Spectral Data<<<<<
365.73	301.93
365.92	301.93
366.12	301.93
366.32	250.44
366.52	238.73
366.72	217.67
366.91	175.54
367.11	180.22
367.31	163.84
367.51	145.11
367.70	245.76
367.90	205.97
368.10	198.95
368.30	124.05
368.49	198.95
368.69	231.71
368.89	205.97
369.09	255.12
369.28	250.44
369.48	194.26
369.68	128.73
369.87	290.23
370.07	236.39
370.27	365.12
370.47	292.57
370.66	482.15
370.86	489.17
371.06	566.41
371.25	566.41
371.45	559.39
371.65	540.66
371.84	564.07
372.04	491.51
372.24	538.32
372.44	613.22
372.63	557.05
372.83	615.56
373.03	552.37
373.22	500.87
373.42	596.84
373.62	636.63
373.81	615.56
374.01	601.52
374.21	636.63
374.40	709.18
374.60	667.05
374.79	601.52
374.99	653.01
375.19	638.97
375.38	718.54
375.58	634.29
375.78	683.44
375.97	622.58
376.17	760.67
376.37	674.07
376.56	695.14
376.76	685.78
376.95	664.71
377.15	671.73
377.35	683.44
377.54	704.50
377.74	669.39
377.93	594.50
378.13	653.01
378.33	755.99
378.52	723.23
378.72	788.76
378.91	695.14
379.11	681.10
379.31	648.33
379.50	683.44
379.70	695.14
379.89	788.76
380.09	788.76
380.28	723.23
380.48	706.84
380.68	734.93
380.87	674.07
381.07	704.50
381.26	751.31
381.46	688.12
381.65	800.46
381.85	774.72
382.04	770.04
382.24	784.08
382.43	774.72
382.63	798.12
382.83	706.84
383.02	706.84
383.22	854.30
383.41	788.76
383.61	716.20
383.80	842.59
384.00	863.66
384.19	866.00
384.39	870.68
384.58	798.12
384.78	889.40
384.97	844.93
385.17	882.38
385.36	840.25
385.56	842.59
385.75	835.57
385.95	842.59
386.14	849.61
386.34	840.25
386.53	936.21
386.72	908.13
386.92	873.02
387.11	880.04
387.31	875.36
387.50	875.36
387.70	868.34
387.89	903.45
388.09	961.96
388.28	950.26
388.48	826.21
388.67	903.45
388.86	966.64
389.06	936.21
389.25	945.58
389.45	954.94
389.64	1022.81
389.84	1036.86
390.03	957.28
390.22	990.05
390.42	980.68
390.61	973.66
390.81	908.13
391.00	1018.13
391.19	1036.86
391.39	987.71
391.58	994.73
391.78	1022.81
391.97	1055.58
392.16	1025.15
392.36	1034.52
392.55	973.66
392.75	1067.28
392.94	1139.84
393.13	1107.07
393.33	1036.86
393.52	1022.81
393.71	1071.97
393.91	1100.05
394.10	936.21
394.29	1095.37
394.49	1100.05
394.68	1111.75
394.88	1188.99
395.07	1217.08
395.26	1184.31
395.46	1156.22
395.65	1121.12
395.84	1116.44
396.04	1205.38
396.23	1167.93
396.42	1191.33
396.62	1249.85
396.81	1200.69
397.00	1203.04
397.19	1299.00
397.39	1200.69
397.58	1235.80
397.77	1198.35
397.97	1303.68
398.16	1289.64
398.35	1252.19
398.55	1329.42
398.74	1254.53
398.93	1245.16
399.12	1366.87
399.32	1263.89
399.51	1277.93
399.70	1301.34
399.90	1287.29
400.09	1399.64
400.28	1308.36
400.47	1427.73
400.67	1523.69
400.86	1341.13
401.05	1500.28
401.24	1453.47
401.44	1336.45
401.63	1542.41
401.82	1378.58
402.01	1387.94
402.21	1387.94
402.40	1486.24
402.59	1479.22
402.78	1561.14
402.97	1528.37
403.17	1624.33
403.36	1586.88
403.55	1584.54
403.74	1504.96
403.93	1577.52
404.13	1593.90
404.32	1598.59
404.51	1600.93
404.70	1671.14
404.89	1540.07
405.09	1699.23
405.28	1568.16
405.47	1729.66
405.66	1605.61
405.85	1724.97
406.05	1682.85
406.24	1675.82
406.43	1703.91
406.62	1832.64
406.81	1804.55
407.00	1860.73
407.20	1757.74
407.39	1839.66
407.58	1872.43
407.77	1970.73
407.96	1956.69
408.15	1888.81
408.34	1879.45
408.54	1895.83
408.73	1872.43
408.92	2003.50
409.11	2001.16
409.30	1980.09
409.49	2001.16
409.68	2008.18
409.87	2069.03
410.07	2066.69
410.26	2026.90
410.45	2125.21
410.64	2085.42
410.83	2078.40
411.02	2162.66
411.21	2120.53
411.40	2155.63
411.59	2155.63
411.78	2207.13
411.98	2235.21
412.17	2256.28
412.36	2204.78
412.55	2359.26
412.74	2403.73
412.93	2375.64
413.12	2256.28
413.31	2441.18
413.50	2373.30
413.69	2422.45
413.88	2445.86
414.07	2497.35
414.26	2483.31
414.45	2525.44
414.64	2590.97
414.83	2551.18
415.02	2485.65
415.22	2668.21
415.41	2665.87
415.60	2544.16
415.79	2705.66
415.98	2747.79
416.17	2789.92
416.36	2759.49
416.55	2621.40
416.74	2712.68
416.93	2794.60
417.12	2761.83
417.31	2818.00
417.50	2864.82
417.69	2906.95
417.88	2928.01
418.07	2946.73
418.26	2970.14
418.45	2991.20
418.64	3155.04
418.83	3068.44
419.02	3030.99
419.21	2956.10
419.39	3105.89
419.58	3021.63
419.77	2965.46
419.96	3138.66
420.15	3199.51
420.34	3236.96
420.53	3108.23
420.72	3159.72
420.91	3183.13
421.10	3265.05
421.29	3169.09
421.48	3248.66
421.67	3321.22
421.86	3288.45
422.05	3173.77
422.24	3330.58
422.43	3323.56
422.61	3440.59
422.80	3466.33
422.99	3478.04
423.18	3325.90
423.37	3487.40
423.56	3410.16
423.75	3410.16
423.94	3414.84
424.13	3187.81
424.32	3372.71
424.50	3478.04
424.69	3459.31
424.88	3503.78
425.07	3447.61
425.26	3456.97
425.45	3466.33
425.64	3410.16
425.83	3389.10
426.01	3492.08
426.20	3461.65
426.39	3576.34
426.58	3421.86
426.77	3454.63
426.96	3487.40
427.15	3536.55
427.33	3695.71
427.52	3543.57
427.71	3618.47
427.90	3672.30
428.09	3733.15
428.28	3667.62
428.46	3726.13
428.65	3618.47
428.84	3857.20
429.03	3808.05
429.22	3700.39
429.40	3728.47
429.59	3740.18
429.78	3763.58
429.97	3623.15
430.16	3686.34
430.34	3974.23
430.53	3913.38
430.72	3922.74
430.91	3754.22
431.10	3927.42
431.28	3934.44
431.47	3833.80
431.66	3995.29
431.85	4011.68
432.03	4131.05
432.22	4035.08
432.41	4046.79
432.60	4070.19
432.79	4028.06
432.97	4234.03
433.16	4042.11
433.35	4058.49
433.54	4107.64
433.72	4156.79
433.91	4266.80
434.10	4337.01
434.28	4138.07
434.47	4362.76
434.66	4334.67
434.85	4318.29
435.03	4379.14
435.22	4327.65
435.41	4313.61
435.59	4365.10
435.78	4351.06
435.97	4400.21
436.16	4428.29
436.34	4482.13
436.53	4348.72
436.72	4486.81
436.90	4447.02
437.09	4578.09
437.28	4404.89
437.46	4568.73
437.65	4491.49
437.84	4592.13
438.02	4676.39
438.21	4720.86
438.40	4547.66
438.58	4887.04
438.77	4795.76
438.96	4786.40
439.14	4915.12
439.33	4947.89
439.52	4898.74
439.70	4957.25
439.89	5153.86
440.08	4980.66
440.26	4992.36
440.45	5123.43
440.63	4950.23
440.82	5130.45
441.01	5095.35
441.19	5336.42
441.38	5214.71
441.57	5203.01
441.75	5198.33
441.94	5313.02
442.12	5247.48
442.31	5511.96
442.50	5535.37
442.68	5397.28
442.87	5441.75
443.05	5579.84
443.24	5570.48
443.43	5612.60
443.61	5526.00
443.80	5687.50
443.98	5277.91
444.17	5387.91
444.35	5575.16
444.54	5832.62
444.73	5708.57
444.91	5724.95
445.10	5678.14
445.28	5600.90
445.47	5778.78
445.65	5696.86
445.84	5708.57
446.02	5708.57
446.21	5645.37
446.39	5680.48
446.58	5771.76
446.77	5738.99
446.95	5652.39
447.14	5755.38
447.32	5790.49
447.51	5713.25
447.69	5867.72
447.88	5867.72
448.06	5804.53
448.25	5767.08
448.43	5844.32
448.62	5832.62
448.80	5884.11
448.99	5858.36
449.17	5898.15
449.36	5802.19
449.54	6033.90
449.73	6099.44
449.91	6094.76
450.10	6090.07
450.28	6139.23
450.46	5991.77
450.65	5935.60
450.83	6061.99
451.02	6204.76
451.20	6244.55
451.39	6106.46
451.57	6251.57
451.76	6127.52
451.94	6113.48
452.13	6368.60
452.31	6321.79
452.49	6335.83
452.68	6373.28
452.86	6345.19
453.05	6377.96
453.23	6303.06
453.42	6239.87
453.60	6347.53
453.78	6593.29
453.97	6171.99
454.15	6359.24
454.34	6455.20
454.52	6441.15
454.70	6516.05
454.89	6513.71
455.07	6612.01
455.26	6668.19
455.44	6663.51
455.62	6679.89
455.81	6829.68
455.99	6597.97
456.17	6878.83
456.36	6815.64
456.54	6801.60
456.73	6920.96
456.91	6951.39
457.09	6885.86
457.28	7012.24
457.46	7213.53
457.64	7108.21
457.83	6953.73
458.01	6998.20
458.19	7162.04
458.38	7009.90
458.56	7105.87
458.74	7098.84
458.93	7171.40
459.11	7117.57
459.29	7316.51
459.48	7145.66
459.66	7279.07
459.84	7496.74
460.03	7426.52
460.21	7478.01
460.39	7377.37
460.57	7398.43
460.76	7440.56
460.94	7534.18
461.12	7583.34
461.31	7564.61
461.49	7487.37
461.67	7534.18
461.85	7740.15
462.04	7510.78
462.22	8006.97
462.40	7735.47
462.59	7775.26
462.77	7761.22
462.95	7831.43
463.13	7866.54
463.32	7868.88
463.50	7953.14
463.68	7974.21
463.86	8030.38
464.05	7939.10
464.23	7925.05
464.41	8112.30
464.59	7878.24
464.78	8175.49
464.96	8124.00
465.14	7868.88
465.32	7964.84
465.50	8121.66
465.69	8109.96
465.87	8107.62
466.05	8116.98
466.23	8201.24
466.41	8299.54
466.60	8423.59
466.78	8011.65
466.96	8259.75
467.14	8236.35
467.32	8131.02
467.51	8432.95
467.69	8229.32
467.87	8369.76
468.05	8313.58
468.23	8470.40
468.41	8264.43
468.60	8285.50
468.78	8514.87
468.96	8470.40
469.14	8692.75
469.32	8779.35
469.50	8549.98
469.69	8657.64
469.87	8917.44
470.05	8695.09
470.23	8631.90
470.41	8945.53
470.59	8912.76
470.77	8908.08
470.95	8826.16
471.14	8987.66
471.32	8964.25
471.50	9071.92
471.68	9004.04
471.86	9273.20
472.04	9158.52
472.22	9537.68
472.40	9128.09
472.58	9149.15
472.77	9263.84
472.95	9479.17
473.13	9635.99
473.31	9334.06
473.49	9327.03
473.67	9404.27
473.85	9841.95
474.03	9755.35
474.21	9647.69
474.39	9858.34
474.57	9769.40
474.75	9757.69
474.93	10108.77
475.12	9809.19
475.30	9975.36
475.48	10092.39
475.66	10242.18
475.84	10160.27
476.02	10274.95
476.20	10162.61
476.38	10312.40
476.56	10567.52
476.74	10696.25
476.92	10284.31
477.10	10291.34
477.28	10583.90
477.46	10551.14
477.64	10675.18
477.82	10843.70
478.00	11204.14
478.18	10967.75
478.36	11138.61
478.54	11279.04
478.72	11234.57
478.90	11510.75
479.08	11527.14
479.26	11819.71
479.44	11438.20
479.62	11702.68
479.80	12013.97
479.98	12051.42
480.16	12252.70
480.34	12037.38
480.52	12465.69
480.70	12194.19
480.88	12461.01
481.06	12250.36
481.24	12500.80
481.41	12842.52
481.59	12645.91
481.77	12692.73
481.95	13064.87
482.13	13109.34
482.31	12685.70
482.49	13497.87
482.67	13287.22
482.85	13680.43
483.03	13537.66
483.21	13563.40
483.39	13888.74
483.57	13593.83
483.74	13928.53
483.92	13900.44
484.10	14118.11
484.28	14420.04
484.46	14249.18
484.64	14750.06
484.82	14665.80
485.00	14614.30
485.18	14836.66
485.35	14998.15
485.53	14789.85
485.71	14998.15
485.89	15489.67
486.07	15470.94
486.25	15503.71
486.43	15793.94
486.61	15484.98
486.78	16142.67
486.96	15889.90
487.14	16163.74
487.32	16219.91
487.50	16322.90
487.68	16465.67
487.85	16807.39
488.03	17053.14
488.21	16992.29
488.39	16762.92
488.57	17055.48
488.75	17022.72
488.92	17259.11
489.10	17514.23
489.28	17788.07
489.46	17724.88
489.64	17912.12
489.81	17954.25
489.99	18223.41
490.17	18097.02
490.35	18462.15
490.53	18427.04
490.70	18916.21
490.88	18377.89
491.06	18878.76
491.24	18944.30
491.41	18799.18
491.59	19208.78
491.77	19337.51
491.95	19473.26
492.13	19449.85
492.30	19550.49
492.48	19669.86
492.66	19613.69
492.84	20018.60
493.01	20168.40
493.19	20372.02
493.37	20348.62
493.54	20154.35
493.72	20779.28
493.90	20631.82
494.08	20786.30
494.25	21116.31
494.43	20992.26
494.61	21404.20
494.79	21095.25
494.96	21268.45
495.14	21439.31
495.32	21853.58
495.49	21469.73
495.67	21598.46
495.85	22073.59
496.02	22410.63
496.20	22408.29
496.38	22317.01
496.55	22347.44
496.73	22953.63
496.91	22799.16
497.09	22476.16
497.26	22672.77
497.44	23077.68
497.62	23335.14
497.79	23601.96
497.97	23515.36
498.14	23548.13
498.32	23798.57
498.50	23821.97
498.67	23922.62
498.85	23744.73
499.03	23953.04
499.20	24123.90
499.38	24276.04
499.56	24503.07
499.73	24772.23
499.91	24615.41
500.08	24732.44
500.26	24453.92
500.44	24783.93
500.61	24779.25
500.79	24861.17
500.97	24622.44
501.14	25092.88
501.32	25259.06
501.49	25315.23
501.67	25322.26
501.84	25694.40
502.02	25523.54
502.20	25687.38
502.37	25589.08
502.55	25680.36
502.72	25956.54
502.90	25972.92
503.07	25773.98
503.25	26312.30
503.43	26225.70
503.60	26251.45
503.78	26244.43
503.95	26534.65
504.13	26977.01
504.30	26787.43
504.48	26761.69
504.65	26710.19
504.83	26841.26
505.01	27058.93
505.18	27002.76
505.36	27124.47
505.53	27255.54
505.71	27278.94
505.88	27164.26
506.06	27075.32
506.23	27681.52
506.41	27433.42
506.58	27721.30
506.76	27887.48
506.93	28025.57
507.11	27896.85
507.28	28201.11
507.46	28388.36
507.63	27927.27
507.81	28444.53
507.98	28343.89
508.16	28437.51
508.33	28961.79
508.50	28790.93
508.68	28601.35
508.85	29039.03
509.03	28774.55
509.20	28814.34
509.38	29242.65
509.55	29631.18
509.73	29476.71
509.90	29734.17
510.08	29565.65
510.25	29551.60
510.42	29806.72
510.60	29951.84
510.77	29905.02
510.95	30623.57
511.12	29811.40
511.30	29998.65
511.47	29998.65
511.64	30312.28
511.82	30426.96
511.99	30246.74
512.17	30504.20
512.34	30548.67
512.51	30939.54
512.69	30801.45
512.86	30897.41
513.04	31094.02
513.21	31271.90
513.38	31267.22
513.56	31199.34
513.73	31234.45
513.90	31541.06
514.08	31136.15
514.25	31634.68
514.43	31828.95
514.60	31796.18
514.77	31922.57
514.95	31859.37
515.12	31945.97
515.29	31419.35
515.47	32264.28
515.64	32210.45
515.81	31850.01
515.99	32088.74
516.16	32409.40
516.33	32247.90
516.51	32645.79
516.68	32350.88
516.85	32596.64
517.03	32311.10
517.20	32725.37
517.37	32435.14
517.54	32680.90
517.72	32982.83
517.89	32996.87
518.06	32603.66
518.24	33081.13
518.41	33188.80
518.58	33118.58
518.75	32966.45
518.93	33228.59
519.10	33270.72
519.27	33537.54
519.45	33921.38
519.62	33865.21
519.79	33731.80
519.96	33858.19
520.14	33876.91
520.31	34000.96
520.48	33823.08
520.65	33991.60
520.83	34040.75
521.00	34733.55
521.17	34080.54
521.34	34452.69
521.52	34361.40
521.69	34328.64
521.86	34728.87
522.03	35136.12
522.20	34939.52
522.38	35196.98
522.55	35175.91
522.72	34628.23
522.89	35089.31
523.07	35239.11
523.24	35199.32
523.41	35314.00
523.58	35407.62
523.75	35775.09
523.92	35615.93
524.10	35674.45
524.27	35754.02
524.44	35660.40
524.61	35810.20
524.78	36004.46
524.96	36327.45
525.13	36072.34
525.30	36081.70
525.47	35981.06
525.64	36182.34
525.81	36315.75
525.98	36123.83
526.16	36479.59
526.33	36378.95
526.50	36336.82
526.67	36823.65
526.84	36685.56
527.01	36762.79
527.18	36575.55
527.36	36596.62
527.53	36849.39
527.70	37624.11
527.87	36954.72
528.04	36994.51
528.21	36900.89
528.38	37235.58
528.55	37750.50
528.72	37095.15
528.89	37516.45
529.07	36734.71
529.24	36893.86
529.41	37560.92
529.58	37235.58
529.75	37502.40
529.92	37303.46
530.09	37448.57
530.26	37329.20
530.43	37790.29
530.60	37174.73
530.77	37879.23
530.94	37556.24
531.11	37317.50
531.28	38436.28
531.46	37785.61
531.63	38192.86
531.80	38064.13
531.97	38410.53
532.14	38064.13
532.31	38747.57
532.48	38298.19
532.65	38581.39
532.82	38497.13
532.99	38370.74
533.16	38761.61
533.33	38892.68
533.50	38595.43
533.67	39264.83
533.84	38366.06
534.01	38761.61
534.18	39056.52
534.35	39105.67
534.52	39208.65
534.69	39473.13
534.86	39779.74
535.03	39232.06
535.20	39409.94
535.37	39393.56
535.54	39842.94
535.71	39672.08
535.88	39894.43
536.05	39337.38
536.22	40172.96
536.38	39625.27
536.55	39819.53
536.72	39643.99
536.89	39517.60
537.06	39803.15
537.23	40144.87
537.40	39608.89
537.57	39742.30
537.74	39552.71
537.91	40285.30
538.08	40128.48
538.25	39569.10
538.42	40322.75
538.59	40266.58
538.75	40346.15
538.92	40135.51
539.09	40339.13
539.26	40414.03
539.43	40570.85
539.60	40779.15
539.77	40325.09
539.94	40783.83
540.11	40877.46
540.28	41031.93
540.44	40868.09
540.61	40533.40
540.78	40875.12
540.95	40641.06
541.12	40566.16
541.29	41083.42
541.46	41134.92
541.62	41013.21
541.79	41254.28
541.96	40961.72
542.13	40715.96
542.30	41394.71
542.47	41226.20
542.63	41551.53
542.80	41378.33
542.97	41972.83
543.14	41518.76
543.31	41579.62
543.48	41825.37
543.64	42382.42
543.81	41860.48
543.98	41752.82
544.15	41794.95
544.32	42024.32
544.48	42466.68
544.65	42239.65
544.82	41963.46
544.99	41968.15
545.16	42309.86
545.32	42347.31
545.49	42674.99
545.66	42962.87
545.83	42342.63
546.00	42525.19
546.16	42770.95
546.33	42642.22
546.50	42115.60
546.67	42639.88
546.83	41869.84
547.00	42684.35
547.17	42717.12
547.34	42536.90
547.50	42642.22
547.67	43105.65
547.84	43267.14
548.00	43168.84
548.17	43236.72
548.34	42974.58
548.51	43285.87
548.67	43171.18
548.84	42576.69
549.01	42892.66
549.18	43320.98
549.34	43468.43
549.51	43295.23
549.68	43517.58
549.84	43555.03
550.01	43950.58
550.18	43536.30
550.34	43395.87
550.51	43320.98
550.68	43910.79
550.84	43468.43
551.01	43966.96
551.18	43438.00
551.34	43599.50
551.51	44004.41
551.68	43407.58
551.84	43849.94
552.01	43768.02
552.18	44165.91
552.34	43761.00
552.51	44133.14
552.68	44060.58
552.84	44194.00
553.01	44236.12
553.18	44470.18
553.34	44746.36
553.51	43796.10
553.67	44072.29
553.84	44355.49
554.01	44296.98
554.17	44767.43
554.34	44837.64
554.51	44458.48
554.67	44634.02
554.84	44252.51
555.00	44435.07
555.17	44329.75
555.33	44758.06
555.50	44231.44
555.67	44463.16
555.83	44662.10
556.00	44643.38
556.16	45172.34
556.33	44629.34
556.50	44634.02
556.66	45031.91
556.83	44219.74
556.99	45085.74
557.16	45338.52
557.32	45315.11
557.49	45223.83
557.65	44861.05
557.82	44896.16
557.98	45230.85
558.15	45081.06
558.32	45226.17
558.48	45420.44
558.65	45404.05
558.81	45216.81
558.98	45106.80
559.14	45418.10
559.31	45113.83
559.47	45202.77
559.64	45434.48
559.80	45317.45
559.97	45893.22
560.13	44942.97
560.30	45750.45
560.46	45642.79
560.63	45617.04
560.79	45780.88
560.96	45717.68
561.12	45933.01
561.29	45319.79
561.45	45773.86
561.61	45558.53
561.78	45483.63
561.94	45993.87
562.11	45518.74
562.27	45272.98
562.44	45755.13
562.60	45825.35
562.77	46457.29
562.93	45832.37
563.10	45591.30
563.26	45937.69
563.42	46358.99
563.59	45736.41
563.75	45696.62
563.92	45958.76
564.08	45841.73
564.24	45736.41
564.41	46127.28
564.57	46270.05
564.74	46167.07
564.90	45404.05
565.07	46440.91
565.23	45968.12
565.39	46089.83
565.56	46586.02
565.72	46099.19
565.88	46714.75
566.05	46286.43
566.21	46316.86
566.38	46237.28
566.54	46361.33
566.70	46543.89
566.87	45968.12
567.03	46281.75
567.19	46553.26
567.36	46321.54
567.52	46085.15
567.68	46557.94
567.85	46527.51
568.01	46335.59
568.17	46263.03
568.34	46443.25
568.50	46721.77
568.66	46066.42
568.83	46110.89
568.99	46316.86
569.15	46113.23
569.32	46431.55
569.48	46335.59
569.64	46426.87
569.81	46913.70
569.97	46621.13
570.13	47248.39
570.30	46363.67
570.46	46562.62
570.62	46925.40
570.78	46312.18
570.95	46628.15
571.11	47323.29
571.27	46433.89
571.43	46518.15
571.60	47150.09
571.76	46490.06
571.92	46459.63
572.09	46763.90
572.25	46220.90
572.41	46609.43
572.57	46749.86
572.74	47136.05
572.90	46951.15
573.06	46632.83
573.22	46948.81
573.38	47023.70
573.55	46611.77
573.71	47358.40
573.87	46967.53
574.03	47185.20
574.20	47248.39
574.36	46574.32
574.52	47114.98
574.68	46756.88
574.84	47107.96
575.01	46916.04
575.17	47311.59
575.33	46749.86
575.49	46794.33
575.65	47285.84
575.82	47138.39
575.98	46958.17
576.14	47681.39
576.30	47379.46
576.46	47051.79
576.62	47016.68
576.79	46834.12
576.95	46993.28
577.11	47077.54
577.27	47065.83
577.43	47510.53
577.59	47337.33
577.75	46909.02
577.92	46862.21
578.08	47342.02
578.24	47260.10
578.40	47426.28
578.56	47136.05
578.72	47437.98
578.88	47327.97
579.04	46808.37
579.21	47288.18
579.37	46906.68
579.53	47110.30
579.69	46639.86
579.85	47131.37
580.01	47203.92
580.17	46932.42
580.33	47309.25
580.49	47089.24
580.65	47227.33
580.82	46953.49
580.98	47037.75
581.14	46990.94
581.30	47295.21
581.46	47136.05
581.62	46768.58
581.78	47028.38
581.94	47309.25
582.10	47140.73
582.26	47505.85
582.42	47147.75
582.58	47342.02
582.74	47236.69
582.90	47377.12
583.06	47648.63
583.22	47213.29
583.38	47337.33
583.54	47449.68
583.70	47166.48
583.86	47447.34
584.02	47367.76
584.18	47515.22
584.34	47732.89
584.50	47683.73
584.66	47501.17
584.82	47494.15
584.98	47861.61
585.14	47473.09
585.30	47386.49
585.46	47391.17
585.62	47168.82
585.78	47332.65
585.94	47311.59
586.10	46878.59
586.26	47566.71
586.42	47262.44
586.58	46969.87
586.74	47536.28
586.90	47234.35
587.06	46890.29
587.22	47777.36
587.38	47484.79
587.54	47564.37
587.70	48013.75
587.86	47482.45
588.02	47459.04
588.18	47126.69
588.34	47288.18
588.49	47536.28
588.65	47166.48
588.81	47445.00
588.97	47573.73
589.13	47676.71
589.29	47643.94
589.45	47903.74
589.61	47374.78
589.77	47526.92
589.93	47302.23
590.08	47732.89
590.24	47938.85
590.40	48053.54
590.56	48006.73
590.72	47917.79
590.88	47739.91
591.04	47646.29
591.20	48339.08
591.35	48339.08
591.51	48088.65
591.67	48222.06
591.83	48215.04
591.99	47744.59
592.15	47564.37
592.31	48090.99
592.46	47908.43
592.62	47920.13
592.78	47906.08
592.94	48428.02
593.10	47861.61
593.26	48065.24
593.41	47730.54
593.57	48144.82
593.73	48130.78
593.89	48556.75
594.05	48102.69
594.20	47980.98
594.36	48374.19
594.52	48306.32
594.68	47866.30
594.84	48055.88
594.99	48193.97
595.15	47849.91
595.31	48362.49
595.47	47854.59
595.62	47878.00
595.78	47875.66
595.94	47924.81
596.10	48191.63
596.25	47899.06
596.41	48243.12
596.57	47798.42
596.73	48247.80
596.88	48271.21
597.04	48423.34
597.20	48594.20
597.36	48348.45
597.51	48456.11
597.67	47889.70
597.83	48406.96
597.99	48217.38
598.14	47948.21
598.30	48416.32
598.46	48329.72
598.61	48411.64
598.77	48350.79
598.93	48650.38
599.09	48493.56
599.24	48669.10
599.40	48231.42
599.56	48542.71
599.71	48507.60
599.87	48306.32
600.03	48570.80
600.18	48280.57
600.34	47999.71
600.50	48282.91
600.65	47950.56
600.81	48921.88
600.97	48278.23
601.12	48325.04
601.28	48229.08
601.44	48507.60
601.59	48479.52
601.75	47908.43
601.91	48308.66
602.06	48371.85
602.22	48495.90
602.37	48163.54
602.53	48168.22
602.69	48545.05
602.84	48299.30
603.00	48088.65
603.16	48102.69
603.31	48306.32
603.47	48147.16
603.62	47983.32
603.78	48165.88
603.94	48102.69
604.09	48055.88
604.25	48329.72
604.40	48210.35
604.56	48481.86
604.71	48678.46
604.87	48332.06
605.03	47910.77
605.18	48591.86
605.34	48596.54
605.49	47838.21
605.65	48037.16
605.80	48172.91
605.96	48320.36
606.12	47828.85
606.27	48090.99
606.43	47831.19
606.58	47971.62
606.74	48165.88
606.89	47725.86
607.05	48641.01
607.20	47952.90
607.36	48311.00
607.51	47976.30
607.67	47999.71
607.82	48208.01
607.98	48083.97
608.13	48371.85
608.29	47681.39
608.44	48013.75
608.60	48247.80
608.75	48177.59
608.91	47800.76
609.06	47978.64
609.22	48266.53
609.37	47491.81
609.53	48177.59
609.68	48163.54
609.84	47707.14
609.99	47995.03
610.15	47707.14
610.30	47934.17
610.46	47924.81
610.61	48013.75
610.76	48264.19
610.92	47753.95
611.07	47866.30
611.23	47573.73
611.38	47861.61
611.54	47786.72
611.69	47964.60
611.84	48156.52
612.00	48025.45
612.15	47873.32
612.31	47672.03
612.46	47665.01
612.62	47870.98
612.77	48102.69
612.92	47903.74
613.08	47559.69
613.23	47833.53
613.39	47627.56
613.54	47377.12
613.69	47264.78
613.85	47980.98
614.00	47297.55
614.15	48186.95
614.31	47405.21
614.46	47337.33
614.62	47496.49
614.77	47594.79
614.92	47374.78
615.08	47583.09
615.23	47681.39
615.38	47381.80
615.54	47861.61
615.69	47973.96
615.84	47725.86
616.00	47737.57
616.15	47388.83
616.30	47573.73
616.46	47468.40
616.61	47126.69
616.76	47466.06
616.92	47255.42
617.07	47224.99
617.22	47618.20
617.37	47072.85
617.53	47082.22
617.68	47299.89
617.83	47187.54
617.99	47473.09
618.14	47538.62
618.29	46691.35
618.45	46817.74
618.60	46733.48
618.75	46632.83
618.90	47412.23
619.06	46955.83
619.21	47290.52
619.36	47309.25
619.51	46784.97
619.67	46768.58
619.82	46927.74
619.97	47292.86
620.12	47445.00
620.28	47217.97
620.43	47313.93
620.58	46817.74
620.73	47063.49
620.89	46803.69
621.04	47000.30
621.19	46976.89
621.34	46761.56
621.49	46653.90
621.65	46925.40
621.80	47047.11
621.95	47009.66
622.10	46897.31
622.25	46665.60
622.41	46543.89
622.56	46492.40
622.71	46742.84
622.86	47276.48
623.01	46749.86
623.16	46766.24
623.32	46485.38
623.47	46518.15
623.62	46534.53
623.77	46707.73
623.92	46770.93
624.07	46637.51
624.23	46546.23
624.38	46408.14
624.53	46508.79
624.68	46279.41
624.83	46389.42
624.98	46291.12
625.13	45689.60
625.29	46328.56
625.44	46459.63
625.59	46148.34
625.74	45965.78
625.89	45844.07
626.04	45790.24
626.19	45799.60
626.34	46330.90
626.49	46157.70
626.65	45769.18
626.80	45837.05
626.95	45904.93
627.10	46096.85
627.25	46160.05
627.40	45930.67
627.55	46155.36
627.70	45270.64
627.85	46024.29
628.00	46483.04
628.15	45972.80
628.30	45399.37
628.45	45563.21
628.60	45272.98
628.76	45710.66
628.91	45762.15
629.06	45347.88
629.21	45977.48
629.36	45546.82
629.51	45532.78
629.66	45619.38
629.81	45404.05
629.96	45762.15
630.11	45481.29
630.26	45464.91
630.41	45308.09
630.56	45212.13
630.71	45471.93
630.86	45031.91
631.01	44678.49
631.16	45155.96
631.31	45455.54
631.46	45139.57
631.61	45240.21
631.76	44896.16
631.91	45282.34
632.06	45827.69
632.21	45287.03
632.36	45345.54
632.51	45170.00
632.66	45401.71
632.81	44877.43
632.96	44907.86
633.10	44924.24
633.25	45008.50
633.40	45141.91
633.55	45687.26
633.70	44900.84
633.85	44662.10
634.00	44488.90
634.15	44832.96
634.30	45013.18
634.45	44671.46
634.60	44964.03
634.75	44851.69
634.90	45076.38
635.05	44626.99
635.19	44666.78
635.34	44657.42
635.49	44591.89
635.64	44617.63
635.79	44690.19
635.94	44301.66
636.09	45038.93
636.24	44488.90
636.39	44666.78
636.53	44851.69
636.68	44123.78
636.83	44327.41
636.98	44065.27
637.13	44030.16
637.28	44233.78
637.43	44320.38
637.57	44233.78
637.72	44076.97
637.87	44147.18
638.02	44144.84
638.17	44212.72
638.32	43821.85
638.46	44039.52
638.61	44053.56
638.76	43784.40
638.91	43601.84
639.06	43913.13
639.20	43807.81
639.35	43782.06
639.50	43800.79
639.65	43978.67
639.80	44163.57
639.94	44184.63
640.09	43999.73
640.24	44147.18
640.39	43367.79
640.54	43613.54
640.68	43798.44
640.83	44086.33
640.98	43653.33
641.13	43538.65
641.27	43594.82
641.42	43316.29
641.57	43803.13
641.72	43728.23
641.86	43646.31
642.01	43351.40
642.16	43454.39
642.31	43140.75
642.45	43732.91
642.60	43068.20
642.75	43040.11
642.90	43288.21
643.04	43552.69
643.19	43112.67
643.34	43002.66
643.48	42885.64
643.63	43007.34
643.78	43419.28
643.93	43494.18
644.07	43463.75
644.22	43484.81
644.37	43098.62
644.51	42932.45
644.66	42983.94
644.81	43187.56
644.95	43503.54
645.10	42899.68
645.25	42789.67
645.39	42487.74
645.54	42553.28
645.69	42761.59
645.83	42412.85
645.98	42473.70
646.13	42944.15
646.27	42939.47
646.42	42838.83
646.57	42784.99
646.71	42930.11
646.86	42660.94
647.00	42639.88
647.15	43175.86
647.30	42770.95
647.44	42953.51
647.59	42754.57
647.74	42384.76
647.88	42520.51
648.03	43110.33
648.17	42920.74
648.32	42899.68
648.47	42899.68
648.61	42351.99
648.76	42398.80
648.90	42328.59
649.05	42557.96
649.20	42515.83
649.34	42593.07
649.49	42012.62
649.63	42541.58
649.78	42717.12
649.92	42520.51
650.07	43302.25
650.21	42712.44
650.36	42518.17
650.51	42405.83
650.65	42588.39
650.80	42621.16
650.94	42415.19
651.09	42176.45
651.23	41682.60
651.38	41745.80
651.52	41331.52
651.67	41743.45
651.81	41907.29
651.96	41951.76
652.10	41535.15
652.25	41640.47
652.39	41755.16
652.54	42146.03
652.68	41935.38
652.83	41853.46
652.97	42162.41
653.12	42204.54
653.26	41734.09
653.41	41659.20
653.55	41958.78
653.70	41778.56
653.84	41806.65
653.99	41682.60
654.13	41706.01
654.27	41509.40
654.42	41511.74
654.56	41769.20
654.71	41474.29
654.85	41408.76
655.00	41244.92
655.14	41677.92
655.29	41504.72
655.43	41427.48
655.57	41298.75
655.72	41109.17
655.86	41804.31
656.01	40715.96
656.15	40886.82
656.30	40598.93
656.44	41277.69
656.58	40708.94
656.73	41242.58
656.87	41338.54
657.01	40549.78
657.16	41385.35
657.30	41113.85
657.45	40397.65
657.59	40655.11
657.73	40875.12
657.88	40905.54
658.02	41261.30
658.16	40872.78
658.31	40835.33
658.45	40905.54
658.60	40484.25
658.74	40835.33
658.88	40896.18
659.03	40687.87
659.17	40203.38
659.31	40538.08
659.46	40399.99
659.60	40598.93
659.74	40069.97
659.89	40128.48
660.03	39814.85
660.17	40481.91
660.32	40041.88
660.46	39824.22
660.60	40107.42
660.74	39716.55
660.89	40285.30
661.03	39173.55
661.17	39634.63
661.32	39489.52
661.46	39791.45
661.60	40025.50
661.74	39526.97
661.89	39782.09
662.03	39749.32
662.17	39440.37
662.31	39831.24
662.46	39543.35
662.60	39180.57
662.74	39166.52
662.88	38831.83
663.03	38862.26
663.17	38998.01
663.31	38670.33
663.45	38726.50
663.60	39330.36
663.74	39194.61
663.88	39028.43
664.02	38550.96
664.17	39068.22
664.31	38946.51
664.45	38618.84
664.59	38562.67
664.73	38679.69
664.88	38565.01
665.02	38316.91
665.16	38007.96
665.30	38770.97
665.44	38225.63
665.59	37942.42
665.73	38356.70
665.87	37825.40
666.01	38005.62
666.15	38443.30
666.29	38272.44
666.44	38120.31
666.58	38089.88
666.72	37832.42
666.86	38054.77
667.00	37776.25
667.14	37340.91
667.28	37675.60
667.43	37303.46
667.57	37635.81
667.71	37422.83
667.85	37528.15
667.99	37207.50
668.13	37191.11
668.27	36868.12
668.41	36959.40
668.56	36907.91
668.70	36833.01
668.84	37060.04
668.98	36407.03
669.12	36992.17
669.26	36966.42
669.40	36870.46
669.54	37008.55
669.68	36414.05
669.82	36297.03
669.96	36446.82
670.10	35995.10
670.25	36610.66
670.39	35859.35
670.53	36290.01
670.67	35941.27
670.81	36706.62
670.95	35892.12
671.09	35494.22
671.23	36048.93
671.37	35688.49
671.51	35976.37
671.65	35826.58
671.79	35564.44
671.93	36180.00
672.07	35800.83
672.21	35047.18
672.35	35316.34
672.49	35573.80
672.63	35723.60
672.77	35384.22
672.91	35054.20
673.05	34948.88
673.19	34450.35
673.33	34864.62
673.47	34979.31
673.61	34644.61
673.75	34941.86
673.89	34511.20
674.03	34239.70
674.17	34291.19
674.31	33879.25
674.45	34066.50
674.59	33905.00
674.73	34272.46
674.87	33940.11
675.01	33373.70
675.15	33390.08
675.29	33001.55
675.43	33200.50
675.56	33825.42
675.70	33539.88
675.84	33411.15
675.98	32315.78
676.12	32980.49
676.26	33120.92
676.40	33181.77
676.54	32945.38
676.68	32854.10
676.82	32357.91
676.96	32690.26
677.10	32390.67
677.23	32971.13
677.37	32491.32
677.51	32147.26
677.65	32624.73
677.79	32140.24
677.93	32044.27
678.07	31761.07
678.21	31431.05
678.34	31728.30
678.48	31592.55
678.62	31379.56
678.76	31512.97
678.90	31037.84
679.04	30874.01
679.18	31716.60
679.31	31002.74
679.45	30735.92
679.59	30911.46
679.73	30630.59
679.87	30731.23
680.00	30646.97
680.14	30443.35
680.28	30469.09
680.42	30625.91
680.56	30008.01
680.70	30129.72
680.83	30129.72
680.97	30267.81
681.11	29926.09
681.25	29539.90
681.39	29408.83
681.52	29392.45
681.66	29216.91
681.80	28931.36
681.94	28868.17
682.07	28685.61
682.21	28652.84
682.35	28599.01
682.49	28556.88
682.62	28709.01
682.76	28828.38
682.90	28353.25
683.04	28379.00
683.17	28297.08
683.31	27772.80
683.45	27735.35
683.59	27562.15
683.72	27674.49
683.86	27990.47
684.00	27690.88
684.13	27765.78
684.27	27676.83
684.41	27489.59
684.55	27585.55
684.68	26984.04
684.82	26696.15
684.96	27115.11
685.09	27295.33
685.23	26979.36
685.37	27346.82
685.50	27143.19
685.64	26789.77
685.78	26611.89
685.91	26300.60
686.05	26176.55
686.19	25935.48
686.32	26380.18
686.46	25535.24
686.60	25483.75
686.73	25914.41
686.87	25841.85
687.01	25692.06
687.14	25638.23
687.28	25165.44
687.42	26148.46
687.55	25495.46
687.69	25104.59
687.82	25104.59
687.96	24994.58
688.10	24936.07
688.23	25214.59
688.37	25249.70
688.50	24971.18
688.64	24547.54
688.78	24584.99
688.91	24617.75
689.05	24374.34
689.18	24051.34
689.32	23735.37
689.46	23709.63
689.59	23201.73
689.73	24086.45
689.86	24037.30
690.00	23702.61
690.13	23447.49
690.27	23325.78
690.41	23424.08
690.54	22883.42
690.68	22972.36
690.81	23243.86
690.95	22948.95
691.08	22850.65
691.22	22614.26
691.35	22593.19
691.49	22558.08
691.62	22911.50
691.76	22359.14
691.89	22263.18
692.03	21944.86
692.16	21671.02
692.30	21891.03
692.43	22054.87
692.57	21415.90
692.70	21575.06
692.84	21895.71
692.97	21200.57
693.11	21439.31
693.24	21060.14
693.38	21223.98
693.51	20865.88
693.65	21078.86
693.78	21025.03
693.92	20793.32
694.05	20613.10
694.19	20547.56
694.32	20369.68
694.45	20732.47
694.59	20685.65
694.72	20526.50
694.86	20269.04
694.99	20112.22
695.13	20093.50
695.26	19861.79
695.39	19576.24
695.53	19896.89
695.66	19440.49
695.80	19447.51
695.93	19564.54
696.07	19704.97
696.20	18960.68
696.33	18902.17
696.47	18906.85
696.60	18773.44
696.73	19276.65
696.87	18780.46
697.00	18958.34
697.14	18853.02
697.27	18574.49
697.40	18642.37
697.54	18724.29
697.67	18623.64
697.80	18527.68
697.94	18363.84
698.07	18129.79
698.21	18209.37
698.34	18036.17
698.47	17816.16
698.61	17458.06
698.74	17537.63
698.87	17659.34
699.01	17654.66
699.14	17439.33
699.27	17551.68
699.40	17202.94
699.54	17362.09
699.67	16879.94
699.80	16989.95
699.94	16980.59
700.07	17195.92
700.20	16891.65
700.34	16847.18
700.47	16580.36
700.60	17015.69
700.73	16884.62
700.87	16690.36
701.00	16400.13
701.13	16161.40
701.26	15964.79
701.40	16093.52
701.53	16046.71
701.66	16177.78
701.79	16077.14
701.93	15695.63
702.06	15704.99
702.19	15496.69
702.32	15674.57
702.46	15807.98
702.59	15761.17
702.72	15550.52
702.85	15501.37
702.99	15442.85
703.12	15101.14
703.25	15344.55
703.38	14857.72
703.51	14941.98
703.65	14925.60
703.78	14726.65
703.91	14581.54
704.04	14499.62
704.17	14354.51
704.31	14326.42
704.44	14506.64
704.57	14258.54
704.70	14249.18
704.83	14235.14
704.96	14080.66
705.10	14019.81
705.23	13769.37
>>>>>End Processed Spectral Data<<<<<
