SpectraSuite Data File
++++++++++++++++++++++++++++++++++++
Date: Fri Oct 25 10:47:00 EDT 2013
User: price-jones
Dark Spectrum Present: No
Reference Spectrum Present: No
Number of Sampled Component Spectra: 1
Spectrometers: USB2+H05261
Integration Time (usec): 100000 (USB2+H05261)
Spectra Averaged: 1 (USB2+H05261)
Boxcar Smoothing: 0 (USB2+H05261)
Correct for Electrical Dark: No (USB2+H05261)
Strobe/Lamp Enabled: No (USB2+H05261)
Correct for Detector Non-linearity: No (USB2+H05261)
Correct for Stray Light: No (USB2+H05261)
Number of Pixels in Processed Spectrum: 2048
>>>>>Begin Processed Spectral Data<<<<<
365.73	220.01
365.92	220.01
366.12	220.01
366.32	23.41
366.52	95.96
366.72	60.85
366.91	88.94
367.11	93.62
367.31	0.00
367.51	42.13
367.70	0.00
367.90	30.43
368.10	28.09
368.30	42.13
368.49	46.81
368.69	102.98
368.89	21.06
369.09	32.77
369.28	11.70
369.48	88.94
369.68	121.71
369.87	156.82
370.07	88.94
370.27	105.32
370.47	210.65
370.66	355.76
370.86	383.85
371.06	442.36
371.25	505.56
371.45	414.27
371.65	512.58
371.84	547.69
372.04	458.74
372.24	507.90
372.44	475.13
372.63	561.73
372.83	416.62
373.03	493.85
373.22	620.24
373.42	547.69
373.62	484.49
373.81	552.37
374.01	528.96
374.21	653.01
374.40	507.90
374.60	566.41
374.79	475.13
374.99	566.41
375.19	566.41
375.38	578.11
375.58	582.79
375.78	557.05
375.97	585.13
376.17	638.97
376.37	662.37
376.56	561.73
376.76	599.18
376.95	585.13
377.15	622.58
377.35	559.39
377.54	620.24
377.74	587.47
377.93	683.44
378.13	547.69
378.33	711.52
378.52	657.69
378.72	653.01
378.91	730.25
379.11	610.88
379.31	622.58
379.50	641.31
379.70	622.58
379.89	674.07
380.09	575.77
380.28	734.93
380.48	690.46
380.68	648.33
380.87	592.16
381.07	709.18
381.26	662.37
381.46	638.97
381.65	734.93
381.85	669.39
382.04	664.71
382.24	730.25
382.43	723.23
382.63	763.01
382.83	685.78
383.02	678.76
383.22	732.59
383.41	692.80
383.61	760.67
383.80	667.05
384.00	781.74
384.19	725.57
384.39	648.33
384.58	758.33
384.78	711.52
384.97	765.36
385.17	671.73
385.36	770.04
385.56	770.04
385.75	730.25
385.95	798.12
386.14	812.17
386.34	798.12
386.53	802.80
386.72	753.65
386.92	760.67
387.11	765.36
387.31	767.70
387.50	779.40
387.70	779.40
387.89	856.64
388.09	828.55
388.28	828.55
388.48	802.80
388.67	940.90
388.86	840.25
389.06	901.11
389.25	936.21
389.45	882.38
389.64	994.73
389.84	952.60
390.03	990.05
390.22	968.98
390.42	952.60
390.61	950.26
390.81	933.87
391.00	945.58
391.19	973.66
391.39	915.15
391.58	952.60
391.78	1036.86
391.97	1104.73
392.16	983.02
392.36	1008.77
392.55	1013.45
392.75	983.02
392.94	990.05
393.13	990.05
393.33	978.34
393.52	1046.22
393.71	1013.45
393.91	1048.56
394.10	1067.28
394.29	1100.05
394.49	1048.56
394.68	1184.31
394.88	1071.97
395.07	1118.78
395.26	1139.84
395.46	1156.22
395.65	1163.25
395.84	1102.39
396.04	1200.69
396.23	1086.01
396.42	1132.82
396.62	1156.22
396.81	1275.59
397.00	1238.14
397.19	1179.63
397.39	1235.80
397.58	1273.25
397.77	1275.59
397.97	1287.29
398.16	1376.24
398.35	1394.96
398.55	1411.34
398.74	1430.07
398.93	1348.15
399.12	1380.92
399.32	1289.64
399.51	1390.28
399.70	1406.66
399.90	1423.05
400.09	1551.78
400.28	1444.11
400.47	1439.43
400.67	1474.54
400.86	1584.54
401.05	1593.90
401.24	1521.35
401.44	1551.78
401.63	1647.74
401.82	1607.95
402.01	1624.33
402.21	1629.01
402.40	1563.48
402.59	1558.80
402.78	1675.82
402.97	1575.18
403.17	1706.25
403.36	1682.85
403.55	1811.57
403.74	1774.13
403.93	1631.35
404.13	1706.25
404.32	1717.95
404.51	1708.59
404.70	1809.23
404.89	1746.04
405.09	1788.17
405.28	1792.85
405.47	1827.96
405.66	1888.81
405.85	1928.60
406.05	1811.57
406.24	1750.72
406.43	1898.17
406.62	1830.30
406.81	1982.43
407.00	1961.37
407.20	1813.92
407.39	1966.05
407.58	1963.71
407.77	1984.77
407.96	2024.56
408.15	1956.69
408.34	2054.99
408.54	2197.76
408.73	2005.84
408.92	2099.46
409.11	2054.99
409.30	2127.55
409.49	2040.95
409.68	2019.88
409.87	2122.87
410.07	2169.68
410.26	2282.02
410.45	2214.15
410.64	2312.45
410.83	2286.70
411.02	2326.49
411.21	2347.56
411.40	2333.51
411.59	2511.39
411.78	2504.37
411.98	2429.48
412.17	2436.50
412.36	2457.56
412.55	2431.82
412.74	2492.67
412.93	2523.10
413.12	2466.92
413.31	2628.42
413.50	2588.63
413.69	2658.85
413.88	2614.38
414.07	2700.98
414.26	2827.37
414.45	2754.81
414.64	2810.98
414.83	2808.64
415.02	2799.28
415.22	2843.75
415.41	2885.88
415.60	2890.56
415.79	3033.33
415.98	3045.04
416.17	2836.73
416.36	2885.88
416.55	3049.72
416.74	3084.83
416.93	2981.84
417.12	3066.10
417.31	3009.93
417.50	3126.96
417.69	3337.60
417.88	3176.11
418.07	3213.56
418.26	3225.26
418.45	3222.92
418.64	3251.00
418.83	3288.45
419.02	3286.11
419.21	3400.80
419.39	3353.99
419.58	3302.50
419.77	3332.92
419.96	3407.82
420.15	3503.78
420.34	3513.14
420.53	3510.80
420.72	3510.80
420.91	3562.30
421.10	3534.21
421.29	3538.89
421.48	3672.30
421.67	3555.27
421.86	3578.68
422.05	3557.61
422.24	3548.25
422.43	3641.87
422.61	3674.64
422.80	3648.90
422.99	3667.62
423.18	3597.40
423.37	3761.24
423.56	3632.51
423.75	3712.09
423.94	3644.21
424.13	3370.37
424.32	3630.17
424.50	3679.32
424.69	3733.15
424.88	3810.39
425.07	3604.42
425.26	3576.34
425.45	3770.60
425.64	3660.60
425.83	3679.32
426.01	3791.67
426.20	3817.41
426.39	3749.54
426.58	3728.47
426.77	3730.81
426.96	3693.37
427.15	3761.24
427.33	3817.41
427.52	3805.71
427.71	3803.37
427.90	3882.95
428.09	3976.57
428.28	3824.44
428.46	3758.90
428.65	3845.50
428.84	3941.46
429.03	4053.81
429.22	3882.95
429.40	3950.82
429.59	4023.38
429.78	3847.84
429.97	3829.12
430.16	3920.40
430.34	3920.40
430.53	4030.40
430.72	4095.94
430.91	3978.91
431.10	4105.30
431.28	4159.13
431.47	4297.22
431.66	4327.65
431.85	4109.98
432.03	4344.03
432.22	4498.51
432.41	4334.67
432.60	4294.88
432.79	4456.38
432.97	4414.25
433.16	4414.25
433.35	4322.97
433.54	4337.01
433.72	4451.70
433.91	4348.72
434.10	4489.15
434.28	4355.74
434.47	4564.04
434.66	4573.41
434.85	4587.45
435.03	4774.69
435.22	4606.17
435.41	4854.27
435.59	4894.06
435.78	4702.14
435.97	4688.09
436.16	4798.10
436.34	4688.09
436.53	4873.00
436.72	4964.28
436.90	4669.37
437.09	4788.74
437.28	4758.31
437.46	4870.65
437.65	4727.88
437.84	4835.55
438.02	4819.16
438.21	4994.70
438.40	4784.06
438.58	5085.98
438.77	5130.45
438.96	5102.37
439.14	5195.99
439.33	5256.84
439.52	5224.08
439.70	5228.76
439.89	5231.10
440.08	5294.29
440.26	5313.02
440.45	5465.15
440.63	5547.07
440.82	5542.39
441.01	5497.92
441.19	5596.22
441.38	5755.38
441.57	5734.31
441.75	5736.65
441.94	5753.04
442.12	5872.40
442.31	5916.87
442.50	5961.34
442.68	5820.91
442.87	5851.34
443.05	5856.02
443.24	5984.75
443.43	5902.83
443.61	6174.33
443.80	6284.34
443.98	5860.70
444.17	5820.91
444.35	5921.56
444.54	6162.63
444.73	6146.25
444.91	6125.18
445.10	5975.39
445.28	5980.07
445.47	6066.67
445.65	5961.34
445.84	5994.11
446.02	6195.40
446.21	6211.78
446.39	6090.07
446.58	6253.91
446.77	6221.14
446.95	6052.63
447.14	6246.89
447.32	6455.20
447.51	6277.32
447.69	6251.57
447.88	6310.08
448.06	6392.00
448.25	6347.53
448.43	6298.38
448.62	6333.49
448.80	6303.06
448.99	6384.98
449.17	6518.39
449.36	6291.36
449.54	6520.73
449.73	6469.24
449.91	6642.44
450.10	6715.00
450.28	6614.35
450.46	6560.52
450.65	6848.41
450.83	6679.89
451.02	6562.86
451.20	6740.74
451.39	6794.58
451.57	6801.60
451.76	6747.76
451.94	6724.36
452.13	6808.62
452.31	6754.79
452.49	6682.23
452.68	6686.91
452.86	6927.99
453.05	6825.00
453.23	6876.49
453.42	6686.91
453.60	6843.73
453.78	6953.73
453.97	6965.43
454.15	6808.62
454.34	6911.60
454.52	6956.07
454.70	6988.84
454.89	7110.55
455.07	7150.34
455.26	7014.59
455.44	7063.74
455.62	7070.76
455.81	7211.19
455.99	7269.70
456.17	7314.17
456.36	7382.05
456.54	7407.80
456.73	7543.55
456.91	7522.48
457.09	7662.91
457.28	7595.04
457.46	7424.18
457.64	7492.05
457.83	7414.82
458.01	7515.46
458.19	7777.60
458.38	7569.29
458.56	7770.58
458.74	7688.66
458.93	7581.00
459.11	7873.56
459.29	7744.83
459.48	7779.94
459.66	7784.62
459.84	7817.39
460.03	7852.50
460.21	7873.56
460.39	7943.78
460.57	7850.16
460.76	8163.79
460.94	8098.25
461.12	8109.96
461.31	7992.93
461.49	8018.68
461.67	8049.10
461.85	8397.84
462.04	8163.79
462.22	8664.66
462.40	8269.11
462.59	8187.19
462.77	8264.43
462.95	8388.48
463.13	8077.19
463.32	8407.20
463.50	8446.99
463.68	8173.15
463.86	8287.84
464.05	8367.42
464.23	8407.20
464.41	8608.49
464.59	8489.12
464.78	8669.34
464.96	8685.73
465.14	8372.10
465.32	8505.51
465.50	8641.26
465.69	8779.35
465.87	8601.47
466.05	8692.75
466.23	8603.81
466.41	8519.55
466.60	8638.92
466.78	8526.57
466.96	8505.51
467.14	8599.13
467.32	9064.89
467.51	9022.77
467.69	8741.90
467.87	9020.42
468.05	9020.42
468.23	8809.78
468.41	8837.86
468.60	9011.06
468.78	9111.71
468.96	8856.59
469.14	8950.21
469.32	9184.26
469.50	9006.38
469.69	9191.28
469.87	9210.01
470.05	9301.29
470.23	9327.03
470.41	9294.27
470.59	9273.20
470.77	9263.84
470.95	9554.07
471.14	9605.56
471.32	9097.66
471.50	9706.20
471.68	9853.66
471.86	9792.80
472.04	9701.52
472.22	9886.42
472.40	9654.71
472.58	9816.21
472.77	9783.44
472.95	9825.57
473.13	10218.78
473.31	10057.28
473.49	9963.66
473.67	10029.20
473.85	10054.94
474.03	10391.98
474.21	10382.62
474.39	10359.21
474.57	10277.29
474.75	10415.38
474.93	10504.32
475.12	10342.83
475.30	10630.71
475.48	10761.78
475.66	10766.46
475.84	10574.54
476.02	10663.48
476.20	10614.33
476.38	10853.06
476.56	11239.25
476.74	11180.74
476.92	11286.06
477.10	11365.64
477.28	11192.44
477.46	11417.13
477.64	11257.98
477.82	11681.61
478.00	11880.56
478.18	11854.81
478.36	11953.12
478.54	11934.39
478.72	12002.27
478.90	11946.09
479.08	12135.68
479.26	12463.35
479.44	12432.93
479.62	12381.43
479.80	12606.13
479.98	12620.17
480.16	12849.54
480.34	12706.77
480.52	12816.77
480.70	12915.08
480.88	12755.92
481.06	13076.57
481.24	13266.16
481.41	13231.05
481.59	13446.38
481.77	13565.74
481.95	13561.06
482.13	13961.30
482.31	13666.39
482.49	14136.84
482.67	14038.53
482.85	14193.01
483.03	14115.77
483.21	14422.38
483.39	14469.19
483.57	14321.74
483.74	14562.81
483.92	14602.60
484.10	14764.10
484.28	14944.32
484.46	15037.94
484.64	15335.19
484.82	15101.14
485.00	15304.76
485.18	15569.24
485.35	15611.37
485.53	15201.78
485.71	15295.40
485.89	15695.63
486.07	15845.43
486.25	16051.39
486.43	16067.78
486.61	16374.39
486.78	16379.07
486.96	16428.22
487.14	16657.59
487.32	16891.65
487.50	16898.67
487.68	17221.66
487.85	17362.09
488.03	17781.05
488.21	17926.16
488.39	17254.43
488.57	17998.72
488.75	17802.11
488.92	18317.03
489.10	18480.87
489.28	18363.84
489.46	18492.57
489.64	18478.53
489.81	19220.48
489.99	19269.63
490.17	19227.50
490.35	19267.29
490.53	19510.71
490.70	19339.85
490.88	19660.50
491.06	19719.01
491.24	19648.80
491.41	19957.75
491.59	19915.62
491.77	19510.71
491.95	19887.53
492.13	20159.03
492.30	20631.82
492.48	20673.95
492.66	20830.77
492.84	20465.64
493.01	21099.93
493.19	20973.54
493.37	21200.57
493.54	21191.21
493.72	21137.38
493.90	21291.85
494.08	21860.60
494.25	21879.33
494.43	22235.09
494.61	21839.54
494.79	22127.42
494.96	22207.00
495.14	22239.77
495.32	22508.93
495.49	22541.70
495.67	22590.85
495.85	22780.43
496.02	22944.27
496.20	23140.88
496.38	23007.47
496.55	23461.53
496.73	23594.94
496.91	23737.71
497.09	23496.64
497.26	23630.05
497.44	23988.15
497.62	23878.15
497.79	24315.83
497.97	23934.32
498.14	24397.74
498.32	24269.01
498.50	24528.81
498.67	24907.98
498.85	24713.72
499.03	24840.11
499.20	25120.97
499.38	25106.93
499.56	25067.14
499.73	25221.61
499.91	25408.86
500.08	25638.23
500.26	25336.30
500.44	25230.98
500.61	25291.83
500.79	25261.40
500.97	25315.23
501.14	26066.55
501.32	26059.52
501.49	25923.77
501.67	25996.33
501.84	26251.45
502.02	26099.31
502.20	26600.19
502.37	26822.54
502.55	26698.49
502.72	26597.85
502.90	26960.63
503.07	26455.08
503.25	26754.66
503.43	26892.76
503.60	26904.46
503.78	26925.52
503.95	27110.43
504.13	27288.31
504.30	27199.37
504.48	27587.89
504.65	27821.95
504.83	27875.78
505.01	27786.84
505.18	28268.99
505.36	28217.50
505.53	27866.42
505.71	28474.96
505.88	28421.13
506.06	27674.49
506.23	28091.11
506.41	28095.79
506.58	28599.01
506.76	28446.87
506.93	29064.77
507.11	28360.27
507.28	29008.60
507.46	28449.21
507.63	29017.96
507.81	28662.20
507.98	28694.97
508.16	29219.25
508.33	29376.06
508.50	29308.19
508.68	29661.61
508.85	29582.03
509.03	29537.56
509.20	30000.99
509.38	29567.99
509.55	29935.45
509.73	29975.24
509.90	30038.44
510.08	30129.72
510.25	30064.18
510.42	30366.11
510.60	30602.50
510.77	30478.46
510.95	30478.46
511.12	30497.18
511.30	30543.99
511.47	30883.37
511.64	30658.68
511.82	31091.68
511.99	30679.74
512.17	30899.75
512.34	31030.82
512.51	31550.42
512.69	31606.59
512.86	31227.43
513.04	31615.96
513.21	31580.85
513.38	31417.01
513.56	31524.68
513.73	31470.84
513.90	31807.88
514.08	31466.16
514.25	31990.44
514.43	32051.30
514.60	31917.89
514.77	32081.72
514.95	31969.38
515.12	32297.05
515.29	32074.70
515.47	32552.17
515.64	32603.66
515.81	32304.07
515.99	32353.23
516.16	32514.72
516.33	32404.72
516.51	32643.45
516.68	32456.21
516.85	32545.15
517.03	32547.49
517.20	32800.27
517.37	32898.57
517.54	33191.14
517.72	32821.33
517.89	32961.76
518.06	32781.54
518.24	32739.41
518.41	32936.02
518.58	33544.56
518.75	33567.96
518.93	33488.38
519.10	33982.24
519.27	33642.86
519.45	33783.29
519.62	34417.58
519.79	34188.21
519.96	34176.50
520.14	34391.83
520.31	34209.27
520.48	33919.04
520.65	34150.76
520.83	34607.16
521.00	34581.42
521.17	34724.19
521.34	34518.22
521.52	34792.06
521.69	34506.52
521.86	34883.34
522.03	35098.67
522.20	34965.26
522.38	34665.67
522.55	35243.79
522.72	35501.25
522.89	35662.74
523.07	34979.31
523.24	35239.11
523.41	35882.75
523.58	35103.35
523.75	35697.85
523.92	36023.19
524.10	35992.76
524.27	36182.34
524.44	36116.81
524.61	36151.91
524.78	36278.30
524.96	36353.20
525.13	36570.87
525.30	36369.58
525.47	36723.01
525.64	36561.51
525.81	36383.63
525.98	36313.41
526.16	36170.64
526.33	35819.56
526.50	36821.31
526.67	36140.21
526.84	36339.16
527.01	36196.38
527.18	36231.49
527.36	36870.46
527.53	36589.59
527.70	37343.25
527.87	37219.20
528.04	37095.15
528.21	37376.01
528.38	37270.69
528.55	37230.90
528.72	37631.13
528.89	37642.84
529.07	37486.02
529.24	37518.79
529.41	37542.19
529.58	37261.33
529.75	37804.33
529.92	37881.57
530.09	37581.98
530.26	37876.89
530.43	37682.62
530.60	37839.44
530.77	37738.80
530.94	38265.42
531.11	38134.35
531.28	38103.92
531.46	38352.02
531.63	38258.40
531.80	38656.29
531.97	38005.62
532.14	38115.62
532.31	37989.24
532.48	38298.19
532.65	38490.11
532.82	38375.42
532.99	38628.20
533.16	38014.98
533.33	38696.08
533.50	39168.87
533.67	38782.68
533.84	38670.33
534.01	39063.54
534.18	38974.60
534.35	39423.98
534.52	39028.43
534.69	38972.26
534.86	39171.21
535.03	39007.37
535.20	39182.91
535.37	39501.22
535.54	39672.08
535.71	39288.23
535.88	39562.08
536.05	39248.44
536.22	39721.23
536.38	39552.71
536.55	39302.28
536.72	39800.81
536.89	39423.98
537.06	39346.75
537.23	39676.76
537.40	39732.93
537.57	39269.51
537.74	39821.87
537.91	39962.31
538.08	40069.97
538.25	39730.59
538.42	39784.43
538.59	40388.28
538.75	39611.23
538.92	39885.07
539.09	40023.16
539.26	40051.25
539.43	40451.48
539.60	40648.08
539.77	39913.16
539.94	40348.50
540.11	40261.90
540.28	40252.53
540.44	40528.72
540.61	40266.58
540.78	40409.35
540.95	40491.27
541.12	39938.90
541.29	40357.86
541.46	40507.65
541.62	40992.14
541.79	41277.69
541.96	40350.84
542.13	40428.07
542.30	40634.04
542.47	40449.14
542.63	40982.78
542.80	41193.43
542.97	41537.49
543.14	41460.25
543.31	41570.25
543.48	41392.37
543.64	41748.14
543.81	41446.21
543.98	41656.85
544.15	41284.71
544.32	41495.36
544.48	42307.52
544.65	42014.96
544.82	41921.34
544.99	41289.39
545.16	41759.84
545.32	41535.15
545.49	41713.03
545.66	42302.84
545.83	41918.99
546.00	42431.57
546.16	41708.35
546.33	42174.11
546.50	42127.30
546.67	42291.14
546.83	41717.71
547.00	42241.99
547.17	42012.62
547.34	41986.87
547.50	42632.86
547.67	42754.57
547.84	42211.56
548.00	42756.91
548.17	42960.53
548.34	42316.89
548.51	42794.36
548.67	42616.47
548.84	42199.86
549.01	42550.94
549.18	42588.39
549.34	42370.72
549.51	43147.78
549.68	42773.29
549.84	42827.12
550.01	43075.22
550.18	42560.30
550.34	42768.61
550.51	42740.52
550.68	43014.37
550.84	42220.92
551.01	42920.74
551.18	43185.22
551.34	42946.49
551.51	43079.90
551.68	42735.84
551.84	43702.48
552.01	42780.31
552.18	42979.26
552.34	42829.46
552.51	43601.84
552.68	43292.89
552.84	43702.48
553.01	43171.18
553.18	43615.88
553.34	43318.64
553.51	43299.91
553.67	43236.72
553.84	43658.01
554.01	43821.85
554.17	43533.96
554.34	43461.41
554.51	43606.52
554.67	43728.23
554.84	43814.83
555.00	43793.76
555.17	43320.98
555.33	43498.86
555.50	43800.79
555.67	43482.47
555.83	43871.00
556.00	43913.13
556.16	44257.19
556.33	43992.71
556.50	43693.12
556.66	43971.64
556.83	43800.79
556.99	44105.06
557.16	43882.70
557.32	44381.24
557.49	44268.89
557.65	43910.79
557.82	44044.20
557.98	43709.50
558.15	43945.90
558.32	44168.25
558.48	43615.88
558.65	43957.60
558.81	44011.43
558.98	44095.69
559.14	44502.95
559.31	44421.03
559.47	44404.64
559.64	44519.33
559.80	44484.22
559.97	44861.05
560.13	43927.17
560.30	44692.53
560.46	44325.07
560.63	44634.02
560.79	44507.63
560.96	44797.85
561.12	44477.20
561.29	44746.36
561.45	44594.23
561.61	44666.78
561.78	44247.83
561.94	44566.14
562.11	44584.86
562.27	44470.18
562.44	44514.65
562.60	44491.24
562.77	44659.76
562.93	44947.65
563.10	44795.51
563.26	44692.53
563.42	44509.97
563.59	44493.58
563.75	44788.49
563.92	44961.69
564.08	44690.19
564.24	44835.30
564.41	44786.15
564.57	44889.13
564.74	44531.03
564.90	45132.55
565.07	45008.50
565.23	45148.93
565.39	44692.53
565.56	44577.84
565.72	44949.99
565.88	44790.83
566.05	45109.14
566.21	44519.33
566.38	44531.03
566.54	44671.46
566.70	45546.82
566.87	45174.68
567.03	44811.90
567.19	45399.37
567.36	44856.37
567.52	45052.97
567.68	45195.74
567.85	44741.68
568.01	45223.83
568.17	45155.96
568.34	45123.19
568.50	44856.37
568.66	45015.52
568.83	45343.20
568.99	45191.06
569.15	45109.14
569.32	45020.20
569.48	44589.55
569.64	45155.96
569.81	45598.32
569.97	44828.28
570.13	44744.02
570.30	44945.31
570.46	44851.69
570.62	44734.66
570.78	44844.66
570.95	44699.55
571.11	45109.14
571.27	44737.00
571.43	44957.01
571.60	45193.40
571.76	44945.31
571.92	44793.17
572.09	45045.95
572.25	44982.76
572.41	45020.20
572.57	45013.18
572.74	45556.19
572.90	45031.91
573.06	45188.72
573.22	45195.74
573.38	45628.74
573.55	44868.07
573.71	45390.01
573.87	45146.59
574.03	45074.04
574.20	45432.14
574.36	45062.33
574.52	45474.27
574.68	45230.85
574.84	45507.04
575.01	45380.65
575.17	45078.72
575.33	45226.17
575.49	45193.40
575.65	45354.90
575.82	45460.23
575.98	45329.16
576.14	45588.95
576.30	45272.98
576.46	45247.24
576.62	45017.86
576.79	45392.35
576.95	44802.53
577.11	45361.92
577.27	45595.98
577.43	45347.88
577.59	45560.87
577.75	45504.70
577.92	45125.53
578.08	45256.60
578.24	44648.06
578.40	45097.44
578.56	45214.47
578.72	45411.07
578.88	45350.22
579.04	45684.92
579.21	45343.20
579.37	45123.19
579.53	45202.77
579.69	45298.73
579.85	45507.04
580.01	45624.06
580.17	45631.08
580.33	45834.71
580.49	45855.78
580.65	45141.91
580.82	45722.37
580.98	45420.44
581.14	45104.46
581.30	45390.01
581.46	45375.97
581.62	45551.51
581.78	45223.83
581.94	45935.35
582.10	45633.42
582.26	45778.54
582.42	45574.91
582.58	45546.82
582.74	45380.65
582.90	45633.42
583.06	46134.30
583.22	45750.45
583.38	45792.58
583.54	45626.40
583.70	45471.93
583.86	45619.38
584.02	44811.90
584.18	45687.26
584.34	45624.06
584.50	45413.41
584.66	45776.20
584.82	45272.98
584.98	45984.51
585.14	45544.48
585.30	45626.40
585.46	45401.71
585.62	45392.35
585.78	45116.17
585.94	44891.48
586.10	45347.88
586.26	45167.66
586.42	45675.55
586.58	45670.87
586.74	45441.50
586.90	45563.21
587.06	45146.59
587.22	45869.82
587.38	45588.95
587.54	45689.60
587.70	45708.32
587.86	45755.13
588.02	45390.01
588.18	45846.41
588.34	45263.62
588.49	44989.78
588.65	45022.54
588.81	45390.01
588.97	45359.58
589.13	45076.38
589.29	45340.86
589.45	45343.20
589.61	45523.42
589.77	45638.11
589.93	45979.82
590.08	45703.64
590.24	46267.71
590.40	46064.08
590.56	45713.00
590.72	45656.83
590.88	45078.72
591.04	45677.90
591.20	45975.14
591.35	45965.78
591.51	46096.85
591.67	45666.19
591.83	45507.04
591.99	45219.15
592.15	45544.48
592.31	45794.92
592.46	46007.91
592.62	45698.96
592.78	45811.31
592.94	45949.40
593.10	45844.07
593.26	45961.10
593.41	46017.27
593.57	45888.54
593.73	45867.48
593.89	45876.84
594.05	45647.47
594.20	45521.08
594.36	45673.21
594.52	45921.31
594.68	45921.31
594.84	45851.09
594.99	46466.66
595.15	45874.50
595.31	46101.53
595.47	45998.55
595.62	45619.38
595.78	45352.56
595.94	46138.98
596.10	45708.32
596.25	45621.72
596.41	46066.42
596.57	46094.51
596.73	46181.11
596.88	45521.08
597.04	45949.40
597.20	45804.28
597.36	45603.00
597.51	45911.95
597.67	45956.42
597.83	45450.86
597.99	46450.27
598.14	45844.07
598.30	45638.11
598.46	45469.59
598.61	45638.11
598.77	45890.88
598.93	45883.86
599.09	45729.39
599.24	46471.34
599.40	46246.65
599.56	46096.85
599.71	46529.85
599.87	46270.05
600.03	45869.82
600.18	45778.54
600.34	46213.88
600.50	45750.45
600.65	45741.09
600.81	45799.60
600.97	46199.83
601.12	46031.32
601.28	45979.82
601.44	45628.74
601.59	45890.88
601.75	45567.89
601.91	46405.80
602.06	45757.47
602.22	45757.47
602.37	45464.91
602.53	45731.73
602.69	45977.48
602.84	46106.21
603.00	45844.07
603.16	45584.27
603.31	45975.14
603.47	45909.61
603.62	45757.47
603.78	45474.27
603.94	45603.00
604.09	46178.77
604.25	46017.27
604.40	46047.70
604.56	45930.67
604.71	46277.07
604.87	45846.41
605.03	45759.81
605.18	45343.20
605.34	45539.80
605.49	45542.14
605.65	45766.84
605.80	45530.44
605.96	45855.78
606.12	45900.25
606.27	46054.72
606.43	45743.43
606.58	45766.84
606.74	45762.15
606.89	45502.35
607.05	45675.55
607.20	45846.41
607.36	45504.70
607.51	45752.79
607.67	45502.35
607.82	45925.99
607.98	45500.01
608.13	45521.08
608.29	45492.99
608.44	45233.19
608.60	45207.45
608.75	45111.49
608.91	45109.14
609.06	45191.06
609.22	45839.39
609.37	45434.48
609.53	45984.51
609.68	45132.55
609.84	45155.96
609.99	45504.70
610.15	45268.30
610.30	45160.64
610.46	45326.81
610.61	45083.40
610.76	45551.51
610.92	45453.20
611.07	45219.15
611.23	44856.37
611.38	45230.85
611.54	45312.77
611.69	44669.12
611.84	44966.37
612.00	44884.45
612.15	44807.22
612.31	45043.61
612.46	45170.00
612.62	45591.30
612.77	44713.59
612.92	45151.27
613.08	45045.95
613.23	45048.29
613.39	44891.48
613.54	44563.80
613.69	44626.99
613.85	44589.55
614.00	44935.95
614.15	45226.17
614.31	45205.11
614.46	45059.99
614.62	44685.51
614.77	44952.33
614.92	44720.62
615.08	44399.96
615.23	44818.92
615.38	44395.28
615.54	44229.10
615.69	44339.11
615.84	44495.92
616.00	44729.98
616.15	44701.89
616.30	44561.46
616.46	44561.46
616.61	44030.16
616.76	44484.22
616.92	44271.23
617.07	44411.67
617.22	44034.84
617.37	44105.06
617.53	44306.34
617.68	44629.34
617.83	44203.36
617.99	44587.21
618.14	44526.35
618.29	44329.75
618.45	44378.90
618.60	44287.62
618.75	43770.36
618.90	44182.29
619.06	44626.99
619.21	44261.87
619.36	44339.11
619.51	44023.14
619.67	44100.37
619.82	44257.19
619.97	43957.60
620.12	43749.29
620.28	43693.12
620.43	43990.37
620.58	44229.10
620.73	43957.60
620.89	43868.66
621.04	43901.43
621.19	43817.17
621.34	43976.33
621.49	43667.37
621.65	43442.68
621.80	43655.67
621.95	43524.60
622.10	43945.90
622.25	43576.09
622.41	43672.06
622.56	43091.60
622.71	43728.23
622.86	43861.64
623.01	43817.17
623.16	43716.53
623.32	43805.47
623.47	44011.43
623.62	43728.23
623.77	43154.80
623.92	43117.35
624.07	43346.72
624.23	43194.59
624.38	43058.84
624.53	43145.44
624.68	43337.36
624.83	43400.55
624.98	43157.14
625.13	42787.33
625.29	43086.92
625.44	43115.01
625.59	43049.47
625.74	42918.40
625.89	42677.33
626.04	42796.70
626.19	42555.62
626.34	42827.12
626.49	43030.75
626.65	42789.67
626.80	42763.93
626.95	42808.40
627.10	42794.36
627.25	42850.53
627.40	42429.23
627.55	42429.23
627.70	42239.65
627.85	42064.11
628.00	42581.37
628.15	42700.73
628.30	42499.45
628.45	42976.92
628.60	42366.04
628.76	42794.36
628.91	42567.32
629.06	42586.05
629.21	42361.36
629.36	42127.30
629.51	42190.50
629.66	42319.23
629.81	42281.78
629.96	42384.76
630.11	42202.20
630.26	42234.97
630.41	42536.90
630.56	42270.08
630.71	41916.65
630.86	42408.17
631.01	42103.90
631.16	42169.43
631.31	41682.60
631.46	41949.42
631.61	42188.16
631.76	41785.58
631.91	42237.31
632.06	41956.44
632.21	41731.75
632.36	42124.96
632.51	41806.65
632.66	41694.30
632.81	41624.09
632.96	42026.66
633.10	41443.87
633.25	41535.15
633.40	41167.68
633.55	41869.84
633.70	41570.25
633.85	42043.04
634.00	41481.31
634.15	41654.51
634.30	41677.92
634.45	41308.11
634.60	40938.31
634.75	41380.67
634.90	41530.47
635.05	41497.70
635.19	41373.65
635.34	41521.10
635.49	41577.28
635.64	41228.54
635.79	41038.95
635.94	40804.90
636.09	41153.64
636.24	40774.47
636.39	40673.83
636.53	41233.22
636.68	40996.82
636.83	41027.25
636.98	40832.99
637.13	40744.05
637.28	40793.20
637.43	41188.75
637.57	41291.73
637.72	40973.42
637.87	40992.14
638.02	41277.69
638.17	40980.44
638.32	40952.35
638.46	40264.24
638.61	40816.60
638.76	40158.91
638.91	40505.31
639.06	40907.88
639.20	40666.81
639.35	41109.17
639.50	40409.35
639.65	40861.07
639.80	40926.61
639.94	40470.20
640.09	40140.19
640.24	40355.52
640.39	40247.85
640.54	40570.85
640.68	40491.27
640.83	40790.86
640.98	40112.10
641.13	40158.91
641.27	40004.44
641.42	40215.08
641.57	40509.99
641.72	40437.44
641.86	39999.76
642.01	39995.07
642.16	39976.35
642.31	39859.32
642.45	39969.33
642.60	39880.39
642.75	39791.45
642.90	40060.61
643.04	39725.91
643.19	40144.87
643.34	40053.59
643.48	40165.93
643.63	39604.20
643.78	39662.72
643.93	39632.29
644.07	39882.73
644.22	40025.50
644.37	39643.99
644.51	39456.75
644.66	39187.59
644.81	39538.67
644.95	39824.22
645.10	39468.45
645.25	39997.41
645.39	40086.36
645.54	39552.71
645.69	39192.27
645.83	39161.84
645.98	39306.96
646.13	39765.70
646.27	39978.69
646.42	39185.25
646.57	39580.80
646.71	39215.68
646.86	39452.07
647.00	39651.02
647.15	39278.87
647.30	39817.19
647.44	39395.90
647.59	39124.40
647.74	39023.75
647.88	39014.39
648.03	39330.36
648.17	39423.98
648.32	38995.67
648.47	39203.97
648.61	38789.70
648.76	39264.83
648.90	39199.29
649.05	38934.81
649.20	38988.64
649.34	39248.44
649.49	38740.55
649.63	39019.07
649.78	38930.13
649.92	38405.85
650.07	38967.58
650.21	38670.33
650.36	38696.08
650.51	38813.10
650.65	39206.31
650.80	38754.59
650.94	39147.80
651.09	38981.62
651.23	38251.38
651.38	38951.20
651.52	38539.26
651.67	38286.48
651.81	38361.38
651.96	38391.81
652.10	38447.98
652.25	38281.80
652.39	38295.85
652.54	38698.42
652.68	38337.98
652.83	38494.79
652.97	38398.83
653.12	38672.67
653.26	38040.73
653.41	38101.58
653.55	38225.63
653.70	38316.91
653.84	38455.00
653.99	38452.66
654.13	38417.55
654.27	38431.60
654.42	37785.61
654.56	38024.34
654.71	38284.14
654.85	38146.05
655.00	37862.85
655.14	37521.13
655.29	37441.55
655.43	37450.91
655.57	37670.92
655.72	37642.84
655.86	37516.45
656.01	37469.64
656.15	37170.05
656.30	37722.41
656.44	37308.14
656.58	37249.63
656.73	37432.19
656.87	37228.56
657.01	37392.40
657.16	37230.90
657.30	37270.69
657.45	37420.48
657.59	37200.47
657.73	36992.17
657.88	36884.50
658.02	37589.00
658.16	37090.47
658.31	37457.93
658.45	37106.85
658.60	37120.90
658.74	36861.10
658.88	37340.91
659.03	36631.72
659.17	36919.61
659.31	36467.89
659.46	36662.15
659.60	36868.12
659.74	36552.15
659.89	36357.88
660.03	36369.58
660.17	36474.91
660.32	36643.43
660.46	36744.07
660.60	36748.75
660.74	36491.29
660.89	36423.42
661.03	36306.39
661.17	36589.59
661.32	35723.60
661.46	35962.33
661.60	35885.09
661.74	35789.13
661.89	36575.55
662.03	36299.37
662.17	35915.52
662.31	35789.13
662.46	35800.83
662.60	36034.89
662.74	36102.76
662.88	35812.54
663.03	36058.29
663.17	36027.87
663.31	35538.69
663.45	35564.44
663.60	35669.76
663.74	35426.35
663.88	35140.80
664.02	35667.42
664.17	35199.32
664.31	35063.57
664.45	35101.01
664.59	35023.78
664.73	35185.27
664.88	35325.71
665.02	34799.08
665.16	34852.92
665.30	35416.99
665.44	35246.13
665.59	34494.82
665.73	35014.41
665.87	34625.89
666.01	34302.89
666.15	34714.83
666.29	34843.56
666.44	34724.19
666.58	34520.56
666.72	34583.76
666.86	34506.52
667.00	34644.61
667.14	34419.92
667.28	34363.75
667.43	33944.79
667.57	34511.20
667.71	34134.37
667.85	33961.17
667.99	34230.33
668.13	33710.74
668.27	33879.25
668.41	34029.05
668.56	33638.18
668.70	33996.28
668.84	33591.37
668.98	33837.12
669.12	33219.22
669.26	33696.69
669.40	33701.37
669.54	33305.82
669.68	33750.52
669.82	33748.18
669.96	33350.29
670.10	33340.93
670.25	33532.86
670.39	33610.09
670.53	33317.53
670.67	32837.72
670.81	33083.47
670.95	32926.66
671.09	32971.13
671.23	32708.99
671.37	32645.79
671.51	32566.21
671.65	32496.00
671.79	32086.40
671.93	32613.02
672.07	32704.31
672.21	32755.80
672.35	32460.89
672.49	32173.00
672.63	32105.13
672.77	31971.72
672.91	31796.18
673.05	32229.18
673.19	31882.78
673.33	32032.57
673.47	32009.17
673.61	31344.45
673.75	31620.64
673.89	31101.04
674.03	31468.50
674.17	31042.53
674.31	31461.48
674.45	31239.13
674.59	31391.26
674.73	31187.64
674.87	31138.49
675.01	31110.40
675.15	31463.82
675.29	31253.17
675.43	31372.54
675.56	30927.84
675.70	30838.90
675.84	30838.90
675.98	30157.80
676.12	30019.71
676.26	30590.80
676.40	30352.07
676.54	30019.71
676.68	30167.16
676.82	29572.67
676.96	30106.31
677.10	29773.95
677.23	29928.43
677.37	29996.31
677.51	29479.05
677.65	29670.97
677.79	29376.06
677.93	29237.97
678.07	29163.08
678.21	29172.44
678.34	29064.77
678.48	28889.23
678.62	28966.47
678.76	28697.31
678.90	28395.38
679.04	28868.17
679.18	28554.54
679.31	28386.02
679.45	28402.40
679.59	27941.32
679.73	28088.77
679.87	27946.00
680.00	27967.06
680.14	27676.83
680.28	27515.34
680.42	27960.04
680.56	27569.17
680.70	27379.59
680.83	27695.56
680.97	27246.18
681.11	27421.72
681.25	27232.13
681.39	27084.68
681.52	27173.62
681.66	26731.26
681.80	26953.61
681.94	27248.52
682.07	26806.16
682.21	26319.32
682.35	26728.92
682.49	26609.55
682.62	26567.42
682.76	26436.35
682.90	26153.15
683.04	25991.65
683.17	26258.47
683.31	26265.49
683.45	26136.76
683.59	26216.34
683.72	25507.16
683.86	25340.98
684.00	25455.67
684.13	25530.56
684.27	25757.60
684.41	25362.04
684.55	25294.17
684.68	25268.42
684.82	24896.28
684.96	25443.96
685.09	25104.59
685.23	24463.28
685.37	24964.15
685.50	24608.39
685.64	24496.05
685.78	24554.56
685.91	24173.05
686.05	24280.72
686.19	23964.75
686.32	24285.40
686.46	23964.75
686.60	23730.69
686.73	23608.98
686.87	23468.55
687.01	23435.78
687.14	23403.02
687.28	23435.78
687.42	23293.01
687.55	23215.77
687.69	23117.47
687.82	23145.56
687.96	22899.80
688.10	23154.92
688.23	22913.84
688.37	22733.62
688.50	22492.55
688.64	22672.77
688.78	22389.56
688.91	22270.20
689.05	22623.62
689.18	22380.20
689.32	22071.25
689.46	22230.41
689.59	22288.92
689.73	22412.97
689.86	21933.16
690.00	21940.18
690.13	21860.60
690.27	21546.97
690.41	22111.04
690.54	21413.56
690.68	21315.26
690.81	21326.96
690.95	21312.92
691.08	21085.89
691.22	21062.48
691.35	20943.11
691.49	20819.07
691.62	20943.11
691.76	20704.38
691.89	20933.75
692.03	20765.23
692.16	20217.55
692.30	20315.85
692.43	20367.34
692.57	20016.26
692.70	20222.23
692.84	20098.18
692.97	19861.79
693.11	20224.57
693.24	19737.74
693.38	19779.87
693.51	19927.32
693.65	19934.34
693.78	19903.92
693.92	19653.48
694.05	19894.55
694.19	19529.43
694.32	19248.57
694.45	18871.74
694.59	19124.52
694.72	19058.98
694.86	18972.38
694.99	19136.22
695.13	18941.96
695.26	18941.96
695.39	18347.46
695.53	18635.35
695.66	18331.08
695.80	18405.97
695.93	18672.79
696.07	18242.14
696.20	18307.67
696.33	18064.25
696.47	18029.15
696.60	18164.90
696.73	18031.49
696.87	17982.34
697.00	17862.97
697.14	17645.30
697.27	17771.69
697.40	18010.42
697.54	17535.29
697.67	17619.55
697.80	17397.20
697.94	17254.43
698.07	17331.67
698.21	16980.59
698.34	17177.19
698.47	17048.46
698.61	16861.22
698.74	16891.65
698.87	16908.03
699.01	16678.66
699.14	16386.09
699.27	16498.44
699.40	16559.29
699.54	16266.72
699.67	15840.75
699.80	16437.58
699.94	16252.68
700.07	16348.64
700.20	16210.55
700.34	16013.95
700.47	16025.65
700.60	15740.10
700.73	16184.80
700.87	15901.60
701.00	15648.82
701.13	15487.32
701.26	15482.64
701.40	15559.88
701.53	15370.30
701.66	15365.62
701.79	15080.07
701.93	14913.89
702.06	15101.14
702.19	15063.69
702.32	14913.89
702.46	14988.79
702.59	14682.18
702.72	14871.76
702.85	14684.52
702.99	14661.12
703.12	14679.84
703.25	14607.28
703.38	14642.39
703.51	14593.24
703.65	14490.26
703.78	14174.28
703.91	14333.44
704.04	14497.28
704.17	14167.26
704.31	14200.03
704.44	14101.73
704.57	13540.00
704.70	13745.97
704.83	13727.24
704.96	13652.34
705.10	13970.66
705.23	13855.97
>>>>>End Processed Spectral Data<<<<<
