SpectraSuite Data File
++++++++++++++++++++++++++++++++++++
Date: Fri Oct 25 10:47:38 EDT 2013
User: price-jones
Dark Spectrum Present: No
Reference Spectrum Present: No
Number of Sampled Component Spectra: 1
Spectrometers: USB2+H05261
Integration Time (usec): 100000 (USB2+H05261)
Spectra Averaged: 1 (USB2+H05261)
Boxcar Smoothing: 0 (USB2+H05261)
Correct for Electrical Dark: No (USB2+H05261)
Strobe/Lamp Enabled: No (USB2+H05261)
Correct for Detector Non-linearity: No (USB2+H05261)
Correct for Stray Light: No (USB2+H05261)
Number of Pixels in Processed Spectrum: 2048
>>>>>Begin Processed Spectral Data<<<<<
365.73	110.01
365.92	110.01
366.12	110.01
366.32	0.00
366.52	35.11
366.72	105.32
366.91	0.00
367.11	14.04
367.31	65.54
367.51	4.68
367.70	16.38
367.90	16.38
368.10	72.56
368.30	0.00
368.49	0.00
368.69	0.00
368.89	81.92
369.09	32.77
369.28	23.41
369.48	25.75
369.68	138.09
369.87	81.92
370.07	135.75
370.27	149.79
370.47	198.95
370.66	402.57
370.86	416.62
371.06	425.98
371.25	491.51
371.45	400.23
371.65	484.49
371.84	442.36
372.04	493.85
372.24	489.17
372.44	489.17
372.63	482.15
372.83	521.94
373.03	463.43
373.22	479.81
373.42	491.51
373.62	451.72
373.81	571.09
374.01	566.41
374.21	519.60
374.40	517.26
374.60	596.84
374.79	634.29
374.99	554.71
375.19	566.41
375.38	596.84
375.58	599.18
375.78	505.56
375.97	528.96
376.17	580.45
376.37	589.82
376.56	613.22
376.76	608.54
376.95	559.39
377.15	617.90
377.35	669.39
377.54	617.90
377.74	578.11
377.93	610.88
378.13	657.69
378.33	720.88
378.52	648.33
378.72	655.35
378.91	643.65
379.11	624.92
379.31	613.22
379.50	617.90
379.70	688.12
379.89	655.35
380.09	601.52
380.28	692.80
380.48	765.36
380.68	627.26
380.87	613.22
381.07	716.20
381.26	774.72
381.46	599.18
381.65	655.35
381.85	636.63
382.04	688.12
382.24	727.91
382.43	622.58
382.63	664.71
382.83	716.20
383.02	681.10
383.22	727.91
383.41	681.10
383.61	702.16
383.80	727.91
384.00	774.72
384.19	777.06
384.39	795.78
384.58	706.84
384.78	662.37
384.97	746.63
385.17	760.67
385.36	798.12
385.56	713.86
385.75	767.70
385.95	730.25
386.14	809.83
386.34	835.57
386.53	812.17
386.72	748.97
386.92	837.91
387.11	751.31
387.31	781.74
387.50	875.36
387.70	793.44
387.89	840.25
388.09	905.79
388.28	814.51
388.48	835.57
388.67	835.57
388.86	917.49
389.06	896.43
389.25	917.49
389.45	938.55
389.64	896.43
389.84	940.90
390.03	896.43
390.22	950.26
390.42	957.28
390.61	896.43
390.81	940.90
391.00	947.92
391.19	1011.11
391.39	880.04
391.58	992.39
391.78	966.64
391.97	959.62
392.16	936.21
392.36	1097.71
392.55	976.00
392.75	877.70
392.94	856.64
393.13	1006.43
393.33	943.24
393.52	1032.18
393.71	1029.84
393.91	992.39
394.10	1034.52
394.29	1062.60
394.49	1151.54
394.68	1139.84
394.88	1060.26
395.07	1104.73
395.26	1055.58
395.46	1170.27
395.65	1149.20
395.84	1151.54
396.04	1153.88
396.23	1046.22
396.42	1109.41
396.62	1100.05
396.81	1104.73
397.00	1207.72
397.19	1277.93
397.39	1310.70
397.58	1219.42
397.77	1226.44
397.97	1275.59
398.16	1219.42
398.35	1334.11
398.55	1291.98
398.74	1291.98
398.93	1383.26
399.12	1294.32
399.32	1247.51
399.51	1336.45
399.70	1385.60
399.90	1394.96
400.09	1359.85
400.28	1544.75
400.47	1387.94
400.67	1401.98
400.86	1448.79
401.05	1460.49
401.24	1535.39
401.44	1483.90
401.63	1530.71
401.82	1558.80
402.01	1530.71
402.21	1514.33
402.40	1516.67
402.59	1511.99
402.78	1542.41
402.97	1551.78
403.17	1570.50
403.36	1659.44
403.55	1575.18
403.74	1640.72
403.93	1652.42
404.13	1633.69
404.32	1652.42
404.51	1673.48
404.70	1743.70
404.89	1661.78
405.09	1792.85
405.28	1699.23
405.47	1675.82
405.66	1767.10
405.85	1846.68
406.05	1717.95
406.24	1837.32
406.43	1839.66
406.62	1905.20
406.81	1914.56
407.00	1914.56
407.20	1790.51
407.39	1802.21
407.58	1921.58
407.77	1973.07
407.96	1949.67
408.15	1944.99
408.34	2057.33
408.54	2104.14
408.73	1973.07
408.92	2069.03
409.11	2062.01
409.30	1952.01
409.49	2012.86
409.68	2066.69
409.87	2076.06
410.07	2083.08
410.26	2223.51
410.45	2249.25
410.64	2197.76
410.83	2249.25
411.02	2127.55
411.21	2293.72
411.40	2331.17
411.59	2300.75
411.78	2270.32
411.98	2363.94
412.17	2380.32
412.36	2385.01
412.55	2483.31
412.74	2513.74
412.93	2509.05
413.12	2537.14
413.31	2581.61
413.50	2555.86
413.69	2541.82
413.88	2644.81
414.07	2693.96
414.26	2731.41
414.45	2684.59
414.64	2605.02
414.83	2693.96
415.02	2750.13
415.22	2834.39
415.41	2754.81
415.60	2825.03
415.79	2956.10
415.98	2871.84
416.17	2857.79
416.36	2977.16
416.55	2937.37
416.74	3023.97
416.93	2904.60
417.12	2958.44
417.31	2998.23
417.50	2944.39
417.69	3176.11
417.88	3007.59
418.07	3087.17
418.26	3077.80
418.45	3054.40
418.64	3150.36
418.83	3323.56
419.02	3323.56
419.21	3251.00
419.39	3241.64
419.58	3169.09
419.77	3159.72
419.96	3304.84
420.15	3370.37
420.34	3384.41
420.53	3262.71
420.72	3370.37
420.91	3316.54
421.10	3206.53
421.29	3545.91
421.48	3482.72
421.67	3452.29
421.86	3421.86
422.05	3527.19
422.24	3485.06
422.43	3618.47
422.61	3417.18
422.80	3623.15
422.99	3344.63
423.18	3623.15
423.37	3555.27
423.56	3616.13
423.75	3620.81
423.94	3620.81
424.13	3293.13
424.32	3473.36
424.50	3723.79
424.69	3641.87
424.88	3721.45
425.07	3513.14
425.26	3506.12
425.45	3508.46
425.64	3634.85
425.83	3698.05
426.01	3733.15
426.20	3733.15
426.39	3749.54
426.58	3609.11
426.77	3606.77
426.96	3576.34
427.15	3681.66
427.33	3658.26
427.52	3700.39
427.71	3815.07
427.90	3768.26
428.09	3798.69
428.28	3936.78
428.46	3768.26
428.65	3709.75
428.84	3946.14
429.03	3927.42
429.22	3796.35
429.40	3838.48
429.59	3803.37
429.78	3705.07
429.97	3768.26
430.16	3786.99
430.34	3885.29
430.53	3950.82
430.72	3911.04
430.91	4002.32
431.10	3969.55
431.28	4086.58
431.47	4259.78
431.66	4304.25
431.85	4187.22
432.03	4126.36
432.22	4283.18
432.41	4208.28
432.60	4248.07
432.79	4262.12
432.97	4215.30
433.16	4271.48
433.35	4327.65
433.54	4362.76
433.72	4442.34
433.91	4203.60
434.10	4402.55
434.28	4414.25
434.47	4524.26
434.66	4482.13
434.85	4486.81
435.03	4554.68
435.22	4547.66
435.41	4477.44
435.59	4535.96
435.78	4704.48
435.97	4645.96
436.16	4484.47
436.34	4674.05
436.53	4706.82
436.72	4734.90
436.90	4582.77
437.09	4826.18
437.28	4671.71
437.46	4681.07
437.65	4758.31
437.84	4884.70
438.02	4734.90
438.21	4861.29
438.40	4676.39
438.58	4957.25
438.77	5097.69
438.96	4997.04
439.14	5055.56
439.33	5093.01
439.52	5125.77
439.70	5263.86
439.89	5270.89
440.08	5228.76
440.26	5287.27
440.45	5039.17
440.63	5268.55
440.82	5441.75
441.01	5500.26
441.19	5497.92
441.38	5561.11
441.57	5523.66
441.75	5582.18
441.94	5664.10
442.12	5816.23
442.31	5746.02
442.50	5692.18
442.68	5643.03
442.87	5760.06
443.05	5664.10
443.24	5804.53
443.43	5858.36
443.61	5811.55
443.80	6003.47
443.98	5764.74
444.17	5673.46
444.35	5898.15
444.54	5947.30
444.73	5881.77
444.91	5844.32
445.10	5811.55
445.28	5668.78
445.47	5937.94
445.65	5963.68
445.84	5898.15
446.02	5956.66
446.21	5959.00
446.39	5984.75
446.58	6066.67
446.77	6073.69
446.95	5923.90
447.14	6195.40
447.32	6209.44
447.51	6141.57
447.69	6111.14
447.88	5937.94
448.06	6061.99
448.25	6195.40
448.43	6186.04
448.62	6097.10
448.80	6052.63
448.99	6052.63
449.17	6113.48
449.36	6209.44
449.54	6356.90
449.73	6361.58
449.91	6408.39
450.10	6464.56
450.28	6553.50
450.46	6600.31
450.65	6537.12
450.83	6612.01
451.02	6548.82
451.20	6738.40
451.39	6586.27
451.57	6642.44
451.76	6485.62
451.94	6707.98
452.13	6661.16
452.31	6310.08
452.49	6581.59
452.68	6675.21
452.86	6771.17
453.05	6883.52
453.23	6705.63
453.42	6820.32
453.60	6693.93
453.78	6733.72
453.97	6902.24
454.15	6803.94
454.34	6754.79
454.52	6888.20
454.70	6750.10
454.89	6991.18
455.07	6796.92
455.26	6904.58
455.44	7002.88
455.62	6958.41
455.81	7131.61
455.99	7119.91
456.17	7056.72
456.36	7080.12
456.54	7293.11
456.73	7311.83
456.91	7419.50
457.09	7335.24
457.28	7480.35
457.46	7236.94
457.64	7356.30
457.83	7365.67
458.01	7353.96
458.19	7508.44
458.38	7349.28
458.56	7939.10
458.74	7595.04
458.93	7651.21
459.11	7515.46
459.29	7323.54
459.48	7747.17
459.66	7590.36
459.84	7840.79
460.03	8039.74
460.21	7728.45
460.39	7700.36
460.57	7749.51
460.76	7805.69
460.94	8091.23
461.12	8004.63
461.31	7976.55
461.49	7871.22
461.67	7744.83
461.85	8084.21
462.04	7899.31
462.22	8500.83
462.40	8210.60
462.59	8002.29
462.77	8109.96
462.95	8201.24
463.13	8058.46
463.32	8009.31
463.50	8367.42
463.68	8292.52
463.86	8271.45
464.05	8280.82
464.23	8292.52
464.41	8320.60
464.59	8257.41
464.78	8493.80
464.96	8589.77
465.14	8358.05
465.32	8444.65
465.50	8454.02
465.69	8582.74
465.87	8496.14
466.05	8615.51
466.23	8374.44
466.41	8549.98
466.60	8671.68
466.78	8538.27
466.96	8423.59
467.14	8667.00
467.32	8578.06
467.51	8718.50
467.69	8458.70
467.87	8879.99
468.05	8938.51
468.23	8849.57
468.41	8767.65
468.60	8631.90
468.78	8823.82
468.96	8924.46
469.14	9041.49
469.32	8884.67
469.50	8716.16
469.69	8980.64
469.87	9001.70
470.05	9092.98
470.23	8872.97
470.41	8957.23
470.59	9043.83
470.77	9174.90
470.95	9186.60
471.14	9296.61
471.32	9130.43
471.50	9561.09
471.68	9661.73
471.86	9282.56
472.04	9355.12
472.22	9696.84
472.40	9242.78
472.58	9673.43
472.77	9673.43
472.95	9720.24
473.13	9954.30
473.31	9760.03
473.49	9865.36
473.67	9724.93
473.85	9764.72
474.03	10108.77
474.21	10246.87
474.39	10384.96
474.57	10167.29
474.75	10263.25
474.93	10340.49
475.12	10207.08
475.30	10441.13
475.48	10090.05
475.66	10677.52
475.84	10317.08
476.02	10492.62
476.20	10759.44
476.38	10979.45
476.56	10951.37
476.74	10796.89
476.92	10956.05
477.10	10909.24
477.28	11110.52
477.46	11253.30
477.64	11124.57
477.82	11440.54
478.00	11826.73
478.18	11538.84
478.36	11707.36
478.54	11585.65
478.72	11925.03
478.90	12046.74
479.08	11950.78
479.26	12044.40
479.44	12245.68
479.62	12299.52
479.80	12367.39
479.98	12369.73
480.16	12521.87
480.34	12489.10
480.52	12580.38
480.70	12578.04
480.88	12709.11
481.06	12779.32
481.24	12692.73
481.41	13092.96
481.59	13186.58
481.77	13392.55
481.95	13327.01
482.13	13270.84
482.31	13589.15
482.49	13617.24
482.67	13743.63
482.85	13790.44
483.03	13958.96
483.21	14204.71
483.39	13970.66
483.57	14143.86
483.74	14190.67
483.92	14424.72
484.10	14403.66
484.28	14738.35
484.46	14913.89
484.64	15133.90
484.82	14860.06
485.00	15133.90
485.18	15159.65
485.35	15632.44
485.53	15218.16
485.71	15302.42
485.89	15389.02
486.07	15555.20
486.25	15721.38
486.43	15744.78
486.61	15932.03
486.78	16035.01
486.96	16079.48
487.14	16510.14
487.32	16610.78
487.50	16643.55
487.68	16510.14
487.85	16978.25
488.03	17266.13
488.21	17254.43
488.39	16891.65
488.57	17624.23
488.75	17502.53
488.92	17907.44
489.10	17743.60
489.28	18331.08
489.46	18188.30
489.64	18307.67
489.81	18801.52
489.99	18658.75
490.17	18918.55
490.35	18906.85
490.53	18906.85
490.70	19119.84
490.88	19000.47
491.06	19318.78
491.24	19293.04
491.41	19552.84
491.59	19506.02
491.77	19309.42
491.95	19658.16
492.13	19803.27
492.30	19950.73
492.48	19915.62
492.66	20416.49
492.84	20084.14
493.01	20306.49
493.19	20744.17
493.37	20512.46
493.54	20353.30
493.72	20922.05
493.90	21209.93
494.08	21137.38
494.25	21408.88
494.43	21404.20
494.61	21832.52
494.79	21453.35
494.96	21855.92
495.14	21855.92
495.32	22202.32
495.49	21984.65
495.67	22188.28
495.85	22235.09
496.02	22632.98
496.20	22464.46
496.38	22927.89
496.55	22897.46
496.73	23178.33
496.91	23161.94
497.09	23363.23
497.26	23377.27
497.44	23405.36
497.62	23293.01
497.79	23747.08
497.97	23506.00
498.14	23723.67
498.32	23880.49
498.50	24032.62
498.67	24030.28
498.85	24065.39
499.03	24250.29
499.20	24049.00
499.38	24425.83
499.56	24205.82
499.73	24687.97
499.91	24793.29
500.08	24898.62
500.26	24678.61
500.44	24929.05
500.61	25172.46
500.79	25027.35
500.97	24982.88
501.14	25441.62
501.32	25266.08
501.49	25785.68
501.67	25404.17
501.84	25479.07
502.02	25745.89
502.20	25886.32
502.37	26066.55
502.55	26075.91
502.72	26251.45
502.90	26272.51
503.07	26085.27
503.25	26211.66
503.43	25813.77
503.60	26787.43
503.78	26637.64
503.95	26785.09
504.13	26560.40
504.30	27119.79
504.48	26621.25
504.65	27037.87
504.83	27555.13
505.01	27536.40
505.18	27529.38
505.36	27571.51
505.53	27321.07
505.71	27592.58
505.88	27880.46
506.06	27924.93
506.23	27821.95
506.41	27770.46
506.58	28006.85
506.76	27604.28
506.93	28077.07
507.11	28276.01
507.28	28020.89
507.46	28386.02
507.63	28334.53
507.81	28170.69
507.98	28130.90
508.16	28687.95
508.33	28821.36
508.50	29085.84
508.68	28863.49
508.85	29230.95
509.03	29024.98
509.20	28891.57
509.38	29132.65
509.55	29467.34
509.73	28971.15
509.90	29174.78
510.08	29457.98
510.25	29734.17
510.42	29593.73
510.60	29928.43
510.77	29930.77
510.95	29972.90
511.12	29928.43
511.30	30314.62
511.47	30291.21
511.64	30529.95
511.82	30944.22
511.99	30331.00
512.17	30490.16
512.34	30431.65
512.51	30759.32
512.69	31044.87
512.86	30679.74
513.04	31342.11
513.21	30899.75
513.38	31173.60
513.56	30998.06
513.73	30609.53
513.90	30902.09
514.08	31632.34
514.25	31089.34
514.43	30937.20
514.60	31288.28
514.77	31482.55
514.95	31763.41
515.12	31681.49
515.29	31611.28
515.47	31777.45
515.64	32250.24
515.81	31971.72
515.99	32077.04
516.16	31789.16
516.33	32002.14
516.51	31803.20
516.68	31976.40
516.85	32006.83
517.03	32240.88
517.20	31735.32
517.37	32786.22
517.54	32687.92
517.72	32861.12
517.89	32594.30
518.06	32734.73
518.24	32451.53
518.41	32613.02
518.58	32744.09
518.75	32830.69
518.93	33333.91
519.10	32936.02
519.27	33315.19
519.45	33130.28
519.62	33490.73
519.79	33383.06
519.96	33312.84
520.14	33776.27
520.31	33872.23
520.48	33741.16
520.65	33848.83
520.83	34225.65
521.00	33881.60
521.17	33780.95
521.34	33907.34
521.52	34429.28
521.69	34501.84
521.86	34235.02
522.03	34352.04
522.20	34518.22
522.38	34813.13
522.55	34761.64
522.72	34550.99
522.89	34763.98
523.07	34993.35
523.24	34349.70
523.41	34810.79
523.58	34686.74
523.75	35342.09
523.92	35222.72
524.10	35585.50
524.27	35424.01
524.44	35192.30
524.61	35807.86
524.78	35632.32
524.96	35632.32
525.13	36004.46
525.30	36184.68
525.47	36187.02
525.64	35906.16
525.81	35964.67
525.98	35840.62
526.16	35302.30
526.33	35311.66
526.50	36304.05
526.67	35695.51
526.84	35796.15
527.01	35721.26
527.18	35606.57
527.36	36495.97
527.53	36451.50
527.70	36828.33
527.87	36940.68
528.04	36802.58
528.21	36540.44
528.38	36432.78
528.55	36694.92
528.72	36737.05
528.89	37184.09
529.07	37046.00
529.24	36636.41
529.41	37071.75
529.58	36673.85
529.75	36877.48
529.92	37427.51
530.09	37167.71
530.26	37441.55
530.43	37626.45
530.60	37076.43
530.77	37251.97
530.94	37923.70
531.11	37198.13
531.28	38134.35
531.46	37380.70
531.63	37745.82
531.80	37354.95
531.97	37581.98
532.14	37385.38
532.31	37521.13
532.48	37331.54
532.65	37801.99
532.82	37521.13
532.99	38155.41
533.16	38204.56
533.33	38361.38
533.50	38323.93
533.67	38380.10
533.84	38124.99
534.01	38314.57
534.18	38487.77
534.35	38249.03
534.52	38108.60
534.69	38375.42
534.86	38766.29
535.03	38806.08
535.20	38866.94
535.37	39019.07
535.54	39171.21
535.71	38871.62
535.88	38656.29
536.05	38759.27
536.22	38682.03
536.38	39061.20
536.55	38775.66
536.72	38873.96
536.89	38972.26
537.06	39119.71
537.23	39398.24
537.40	39297.59
537.57	39175.89
537.74	39271.85
537.91	39922.52
538.08	39452.07
538.25	39241.42
538.42	39489.52
538.59	39384.19
538.75	39290.57
538.92	40011.46
539.09	39700.17
539.26	39452.07
539.43	39651.02
539.60	39796.13
539.77	39278.87
539.94	39864.00
540.11	39449.73
540.28	39735.27
540.44	39758.68
540.61	39672.08
540.78	39842.94
540.95	39754.00
541.12	39789.11
541.29	39779.74
541.46	40009.12
541.62	40032.52
541.79	40498.29
541.96	39866.34
542.13	40023.16
542.30	40346.15
542.47	40435.10
542.63	40477.22
542.80	39889.75
542.97	40744.05
543.14	41043.63
543.31	40961.72
543.48	41029.59
543.64	40847.03
543.81	41043.63
543.98	40999.16
544.15	40961.72
544.32	41069.38
544.48	41413.44
544.65	41277.69
544.82	40818.94
544.99	40830.65
545.16	40739.36
545.32	41315.14
545.49	41254.28
545.66	41448.55
545.83	41675.58
546.00	41621.75
546.16	41474.29
546.33	41249.60
546.50	40758.09
546.67	41551.53
546.83	40971.08
547.00	41387.69
547.17	41668.56
547.34	41509.40
547.50	42038.36
547.67	41783.24
547.84	41694.30
548.00	42300.50
548.17	41996.23
548.34	41600.68
548.51	42204.54
548.67	42263.05
548.84	42410.51
549.01	41942.40
549.18	42211.56
549.34	42288.80
549.51	42277.10
549.68	42150.71
549.84	42410.51
550.01	42162.41
550.18	42183.48
550.34	42216.24
550.51	42419.87
550.68	42223.26
550.84	41701.32
551.01	42319.23
551.18	42504.13
551.34	42548.60
551.51	42712.44
551.68	42515.83
551.84	42628.18
552.01	42518.17
552.18	42459.66
552.34	42066.45
552.51	42892.66
552.68	42937.13
552.84	42944.15
553.01	43185.22
553.18	42674.99
553.34	42972.24
553.51	42761.59
553.67	42974.58
553.84	43107.99
554.01	43442.68
554.17	43363.11
554.34	43227.35
554.51	43002.66
554.67	43241.40
554.84	43559.71
555.00	43033.09
555.17	43356.08
555.33	43529.28
555.50	43416.94
555.67	43676.74
555.83	43438.00
556.00	43260.12
556.16	44062.93
556.33	43878.02
556.50	43531.62
556.66	43470.77
556.83	43241.40
556.99	43782.06
557.16	43220.33
557.32	43601.84
557.49	43604.18
557.65	43613.54
557.82	43381.83
557.98	43255.44
558.15	43484.81
558.32	43601.84
558.48	43669.72
558.65	43234.38
558.81	43643.97
558.98	43751.63
559.14	43821.85
559.31	43629.93
559.47	43842.92
559.64	44039.52
559.80	44210.38
559.97	43863.98
560.13	43613.54
560.30	43838.23
560.46	44112.08
560.63	43981.01
560.79	44161.23
560.96	44596.57
561.12	43690.78
561.29	44137.82
561.45	43997.39
561.61	44074.63
561.78	44109.74
561.94	43976.33
562.11	43995.05
562.27	43620.56
562.44	43856.96
562.60	44655.08
562.77	44048.88
562.93	43880.36
563.10	44229.10
563.26	43758.66
563.42	44105.06
563.59	44399.96
563.75	44350.81
563.92	44725.30
564.08	44369.54
564.24	44552.10
564.41	44561.46
564.57	44390.60
564.74	44395.28
564.90	44463.16
565.07	44383.58
565.23	44186.97
565.39	44573.16
565.56	44495.92
565.72	43985.69
565.88	44453.79
566.05	44376.56
566.21	44311.02
566.38	44421.03
566.54	44374.22
566.70	44406.98
566.87	44655.08
567.03	44587.21
567.19	44680.83
567.36	44535.71
567.52	44336.77
567.68	44776.79
567.85	44168.25
568.01	44678.49
568.17	44196.34
568.34	44727.64
568.50	44634.02
568.66	44215.06
568.83	44671.46
568.99	44327.41
569.15	44917.22
569.32	44402.30
569.48	44226.76
569.64	44626.99
569.81	44737.00
569.97	44144.84
570.13	44830.62
570.30	44217.40
570.46	44453.79
570.62	44666.78
570.78	44502.95
570.95	44289.96
571.11	45045.95
571.27	44704.23
571.43	44203.36
571.60	45022.54
571.76	44547.42
571.92	44994.46
572.09	44891.48
572.25	44610.61
572.41	44512.31
572.57	44685.51
572.74	44917.22
572.90	45141.91
573.06	44825.94
573.22	44931.26
573.38	45001.48
573.55	44306.34
573.71	45137.23
573.87	44346.13
574.03	44549.76
574.20	44980.42
574.36	44336.77
574.52	44825.94
574.68	45130.21
574.84	44549.76
575.01	44996.80
575.17	44964.03
575.33	44776.79
575.49	44959.35
575.65	45102.12
575.82	45067.02
575.98	45071.70
576.14	45549.17
576.30	45202.77
576.46	44722.96
576.62	44839.98
576.79	44912.54
576.95	44659.76
577.11	45022.54
577.27	45029.57
577.43	45106.80
577.59	45050.63
577.75	44559.12
577.92	44425.71
578.08	44582.52
578.24	44809.56
578.40	44746.36
578.56	45071.70
578.72	45015.52
578.88	44910.20
579.04	45083.40
579.21	45116.17
579.37	45024.89
579.53	45144.25
579.69	44872.75
579.85	44797.85
580.01	44737.00
580.17	45277.66
580.33	45104.46
580.49	45134.89
580.65	44949.99
580.82	45219.15
580.98	44898.50
581.14	44851.69
581.30	45235.53
581.46	45041.27
581.62	44898.50
581.78	45315.11
581.94	45258.94
582.10	44666.78
582.26	45029.57
582.42	44928.92
582.58	44931.26
582.74	44882.11
582.90	45408.73
583.06	45497.67
583.22	45038.93
583.38	45249.58
583.54	45488.31
583.70	44814.24
583.86	44636.36
584.02	44921.90
584.18	44870.41
584.34	45265.96
584.50	45092.76
584.66	44921.90
584.82	45062.33
584.98	45661.51
585.14	44957.01
585.30	44577.84
585.46	45041.27
585.62	44641.04
585.78	45188.72
585.94	44718.28
586.10	44776.79
586.26	44886.79
586.42	44994.46
586.58	45184.04
586.74	45006.16
586.90	45223.83
587.06	45006.16
587.22	45364.26
587.38	44659.76
587.54	45322.13
587.70	45247.24
587.86	44905.52
588.02	45315.11
588.18	45184.04
588.34	44954.67
588.49	44652.74
588.65	44594.23
588.81	45088.08
588.97	44718.28
589.13	44500.61
589.29	45003.82
589.45	45024.89
589.61	45247.24
589.77	45200.43
589.93	45249.58
590.08	45181.70
590.24	45373.63
590.40	44999.14
590.56	45167.66
590.72	45102.12
590.88	45172.34
591.04	45532.78
591.20	45610.02
591.35	45324.47
591.51	45612.36
591.67	45764.49
591.83	45537.46
591.99	45109.14
592.15	44978.07
592.31	45333.84
592.46	45401.71
592.62	44947.65
592.78	45214.47
592.94	45380.65
593.10	45081.06
593.26	45469.59
593.41	45448.52
593.57	45359.58
593.73	45074.04
593.89	45247.24
594.05	45380.65
594.20	45275.32
594.36	45710.66
594.52	45193.40
594.68	45366.60
594.84	45097.44
594.99	45595.98
595.15	45560.87
595.31	45984.51
595.47	45448.52
595.62	45113.83
595.78	45642.79
595.94	45586.61
596.10	45773.86
596.25	45207.45
596.41	45764.49
596.57	45343.20
596.73	45467.25
596.88	45116.17
597.04	45254.26
597.20	45418.10
597.36	45565.55
597.51	45872.16
597.67	45617.04
597.83	45670.87
597.99	45675.55
598.14	45422.78
598.30	45333.84
598.46	45099.78
598.61	45331.50
598.77	45296.39
598.93	45361.92
599.09	45490.65
599.24	45989.19
599.40	45727.05
599.56	45586.61
599.71	45485.97
599.87	45301.07
600.03	45518.74
600.18	45401.71
600.34	45453.20
600.50	45481.29
600.65	45516.40
600.81	45853.44
600.97	45563.21
601.12	45535.12
601.28	45776.20
601.44	45460.23
601.59	45287.03
601.75	45572.57
601.91	45460.23
602.06	45462.57
602.22	45511.72
602.37	45464.91
602.53	45411.07
602.69	46064.08
602.84	45254.26
603.00	45450.86
603.16	45525.76
603.31	44821.26
603.47	45139.57
603.62	45549.17
603.78	45537.46
603.94	45399.37
604.09	45333.84
604.25	45832.37
604.40	45303.41
604.56	44989.78
604.71	45460.23
604.87	45317.45
605.03	45207.45
605.18	45420.44
605.34	45057.65
605.49	45167.66
605.65	45179.36
605.80	45059.99
605.96	45380.65
606.12	45272.98
606.27	45635.77
606.43	45378.31
606.58	45642.79
606.74	45174.68
606.89	45303.41
607.05	45511.72
607.20	45160.64
607.36	45062.33
607.51	45455.54
607.67	45237.87
607.82	45432.14
607.98	45382.99
608.13	45188.72
608.29	45059.99
608.44	44816.58
608.60	44753.38
608.75	44744.02
608.91	44891.48
609.06	45067.02
609.22	45294.05
609.37	45041.27
609.53	44882.11
609.68	44739.34
609.84	45298.73
609.99	44938.29
610.15	44910.20
610.30	44519.33
610.46	44779.13
610.61	44802.53
610.76	44996.80
610.92	44996.80
611.07	44809.56
611.23	45013.18
611.38	45375.97
611.54	44587.21
611.69	45057.65
611.84	44491.24
612.00	44758.06
612.15	44818.92
612.31	44313.36
612.46	44519.33
612.62	44793.17
612.77	44554.44
612.92	44889.13
613.08	44685.51
613.23	44320.38
613.39	44388.26
613.54	44388.26
613.69	44418.69
613.85	44313.36
614.00	44676.15
614.15	44683.17
614.31	44964.03
614.46	44638.70
614.62	44680.83
614.77	44165.91
614.92	44439.75
615.08	44371.88
615.23	43889.73
615.38	44580.18
615.54	44020.80
615.69	43810.15
615.84	44105.06
616.00	44149.53
616.15	44252.51
616.30	44444.43
616.46	43463.75
616.61	43746.95
616.76	43901.43
616.92	44208.04
617.07	43924.83
617.22	43856.96
617.37	43400.55
617.53	44044.20
617.68	44292.30
617.83	44006.75
617.99	43981.01
618.14	44318.04
618.29	43966.96
618.45	43632.27
618.60	44264.21
618.75	43840.57
618.90	43852.28
619.06	44144.84
619.21	44156.55
619.36	43973.98
619.51	43594.82
619.67	43711.84
619.82	43215.65
619.97	43936.54
620.12	43550.35
620.28	43421.62
620.43	43402.89
620.58	43669.72
620.73	43578.43
620.89	43606.52
621.04	43482.47
621.19	43260.12
621.34	43253.10
621.49	43058.84
621.65	43107.99
621.80	43178.20
621.95	43271.82
622.10	43138.41
622.25	43384.17
622.41	42927.77
622.56	43061.18
622.71	43634.61
622.86	43480.13
623.01	43449.70
623.16	43164.16
623.32	43468.43
623.47	43295.23
623.62	43578.43
623.77	42824.78
623.92	43019.05
624.07	43021.39
624.23	43079.90
624.38	43171.18
624.53	42864.57
624.68	42773.29
624.83	43105.65
624.98	43051.81
625.13	43056.50
625.29	42639.88
625.44	42684.35
625.59	42740.52
625.74	42607.11
625.89	42866.91
626.04	42227.95
626.19	42497.11
626.34	42866.91
626.49	42749.88
626.65	42417.53
626.80	42696.05
626.95	42792.01
627.10	42141.35
627.25	42071.13
627.40	41895.59
627.55	41963.46
627.70	41890.91
627.85	41792.61
628.00	42122.62
628.15	42246.67
628.30	42529.87
628.45	42459.66
628.60	42309.86
628.76	42342.63
628.91	42415.19
629.06	42281.78
629.21	42036.02
629.36	41874.52
629.51	41841.76
629.66	41818.35
629.81	41918.99
629.96	41502.38
630.11	41909.63
630.26	42010.28
630.41	41869.84
630.56	42064.11
630.71	41865.16
630.86	41567.91
631.01	41684.94
631.16	41670.90
631.31	41364.29
631.46	41539.83
631.61	41647.49
631.76	41661.54
631.91	41701.32
632.06	41359.61
632.21	41273.01
632.36	41593.66
632.51	41486.00
632.66	41923.68
632.81	41020.23
632.96	41287.05
633.10	40872.78
633.25	41446.21
633.40	41212.15
633.55	41287.05
633.70	41607.70
633.85	41523.44
634.00	41610.04
634.15	41146.62
634.30	41235.56
634.45	40959.38
634.60	41116.19
634.75	41251.94
634.90	41352.58
635.05	41158.32
635.19	41375.99
635.34	41565.57
635.49	41343.22
635.64	41205.13
635.79	40950.01
635.94	41113.85
636.09	40708.94
636.24	41036.61
636.39	40472.54
636.53	40889.16
636.68	40512.33
636.83	40737.02
636.98	40641.06
637.13	40463.18
637.28	40793.20
637.43	40704.26
637.57	40570.85
637.72	40680.85
637.87	40559.14
638.02	40638.72
638.17	40172.96
638.32	40287.64
638.46	40109.76
638.61	40196.36
638.76	40004.44
638.91	40046.57
639.06	40659.79
639.20	40189.34
639.35	40842.35
639.50	40807.24
639.65	40825.96
639.80	40282.96
639.94	40250.19
640.09	40449.14
640.24	40107.42
640.39	39742.30
640.54	40236.15
640.68	39711.87
640.83	40245.51
640.98	39920.18
641.13	40428.07
641.27	40151.89
641.42	39571.44
641.57	40374.24
641.72	39751.66
641.86	39800.81
642.01	39456.75
642.16	40350.84
642.31	39615.91
642.45	39985.71
642.60	39676.76
642.75	39210.99
642.90	39756.34
643.04	39063.54
643.19	39934.22
643.34	39732.93
643.48	39824.22
643.63	39260.15
643.78	39592.50
643.93	39082.27
644.07	39255.46
644.22	39299.94
644.37	39225.04
644.51	39297.59
644.66	39552.71
644.81	39761.02
644.95	39555.05
645.10	39576.12
645.25	39557.39
645.39	39236.74
645.54	39697.83
645.69	38923.11
645.83	39210.99
645.98	39255.46
646.13	39255.46
646.27	39384.19
646.42	39136.10
646.57	39056.52
646.71	38838.85
646.86	39304.62
647.00	39019.07
647.15	38810.76
647.30	39072.90
647.44	38817.78
647.59	39077.58
647.74	38614.16
647.88	38176.48
648.03	38518.20
648.17	38698.42
648.32	38279.46
648.47	39058.86
648.61	39100.99
648.76	38761.61
648.90	38588.41
649.05	38852.89
649.20	38724.16
649.34	39044.82
649.49	38948.85
649.63	38562.67
649.78	38747.57
649.92	38321.59
650.07	38614.16
650.21	38394.15
650.36	38632.88
650.51	38550.96
650.65	38607.14
650.80	38993.32
650.94	38738.21
651.09	38852.89
651.23	38230.31
651.38	38124.99
651.52	38066.47
651.67	37881.57
651.81	38342.66
651.96	37930.72
652.10	38054.77
652.25	37794.97
652.39	37804.33
652.54	38066.47
652.68	38281.80
652.83	38197.54
652.97	38012.64
653.12	38263.08
653.26	37940.08
653.41	38323.93
653.55	37617.09
653.70	37668.58
653.84	37574.96
653.99	38127.33
654.13	37584.32
654.27	38155.41
654.42	37699.01
654.56	37415.80
654.71	37965.83
654.85	37610.07
655.00	37904.98
655.14	37713.05
655.29	37518.79
655.43	37380.70
655.57	36980.46
655.72	36879.82
655.86	36950.04
656.01	37357.29
656.15	36975.78
656.30	37179.41
656.44	37151.32
656.58	37230.90
656.73	37317.50
656.87	37464.96
657.01	37048.34
657.16	36968.76
657.30	36442.14
657.45	36655.13
657.59	37193.45
657.73	36563.85
657.88	37364.31
658.02	37006.21
658.16	37083.45
658.31	36893.86
658.45	37148.98
658.60	36837.69
658.74	36802.58
658.88	36968.76
659.03	36463.21
659.17	36556.83
659.31	36650.45
659.46	36708.96
659.60	36385.97
659.74	36720.66
659.89	36154.26
660.03	36402.35
660.17	36261.92
660.32	36507.68
660.46	36769.82
660.60	36598.96
660.74	36081.70
660.89	36299.37
661.03	35859.35
661.17	35962.33
661.32	35466.14
661.46	35718.92
661.60	35744.66
661.74	35718.92
661.89	36039.57
662.03	35913.18
662.17	35920.20
662.31	35665.08
662.46	36086.38
662.60	35887.43
662.74	35541.03
662.88	35288.26
663.03	35756.36
663.17	35517.63
663.31	35576.14
663.45	35318.68
663.60	35353.79
663.74	34962.92
663.88	35119.74
664.02	34876.32
664.17	35187.61
664.31	34871.64
664.45	34923.13
664.59	34991.01
664.73	34923.13
664.88	34913.77
665.02	34476.09
665.16	34785.04
665.30	34962.92
665.44	34532.26
665.59	34249.06
665.73	34363.75
665.87	34445.66
666.01	34494.82
666.15	34658.65
666.29	34141.39
666.44	34696.10
666.58	34265.44
666.72	34260.76
666.86	34668.02
667.00	34410.56
667.14	34284.17
667.28	34443.32
667.43	33874.57
667.57	34036.07
667.71	33759.89
667.85	34026.71
667.99	33862.87
668.13	33383.06
668.27	33687.33
668.41	33977.56
668.56	33329.23
668.70	33516.47
668.84	33607.75
668.98	33474.34
669.12	33153.69
669.26	33179.43
669.40	32921.98
669.54	33137.30
669.68	33184.12
669.82	33310.50
669.96	32954.74
670.10	32961.76
670.25	32615.37
670.39	33338.59
670.53	32987.51
670.67	32313.44
670.81	32662.18
670.95	33039.00
671.09	32591.96
671.23	33078.79
671.37	32566.21
671.51	32320.46
671.65	32512.38
671.79	32320.46
671.93	32102.79
672.07	32631.75
672.21	32542.81
672.35	32058.32
672.49	31929.59
672.63	32306.41
672.77	31723.62
672.91	31524.68
673.05	31620.64
673.19	31845.33
673.33	31555.10
673.47	31878.10
673.61	31297.64
673.75	31126.78
673.89	30906.77
674.03	31349.14
674.17	31009.76
674.31	31126.78
674.45	31098.70
674.59	31281.26
674.73	30965.29
674.87	30916.14
675.01	30881.03
675.15	30993.37
675.29	31608.93
675.43	30639.95
675.56	30710.17
675.70	30494.84
675.84	30534.63
675.98	29352.66
676.12	29914.39
676.26	30382.49
676.40	29785.66
676.54	30015.03
676.68	30167.16
676.82	29802.04
676.96	29633.52
677.10	29434.58
677.23	29675.65
677.37	29355.00
677.51	29343.30
677.65	29495.43
677.79	29137.33
677.93	29109.24
678.07	29268.40
678.21	28769.86
678.34	29287.12
678.48	28643.48
678.62	29090.52
678.76	28503.04
678.90	28739.44
679.04	28687.95
679.18	28449.21
679.31	28350.91
679.45	27974.08
679.59	28077.07
679.73	28121.54
679.87	27585.55
680.00	27960.04
680.14	27826.63
680.28	27576.19
680.42	27288.31
680.56	27672.15
680.70	27557.47
680.83	27330.44
680.97	27339.80
681.11	26930.20
681.25	26909.14
681.39	26808.50
681.52	27168.94
681.66	26925.52
681.80	26796.79
681.94	26803.82
682.07	26775.73
682.21	26749.98
682.35	26764.03
682.49	26546.36
682.62	26560.40
682.76	25951.86
682.90	26345.07
683.04	26244.43
683.17	26331.03
683.31	25895.69
683.45	25841.85
683.59	25352.68
683.72	25392.47
683.86	25530.56
684.00	24929.05
684.13	25453.33
684.27	25420.56
684.41	25132.67
684.55	25198.21
684.68	25020.33
684.82	24802.66
684.96	24915.00
685.09	24903.30
685.23	24685.63
685.37	24666.91
685.50	24589.67
685.64	24224.54
685.78	24292.42
685.91	24386.04
686.05	24584.99
686.19	23957.72
686.32	24063.05
686.46	23768.14
686.60	23438.12
686.73	23545.79
686.87	23250.88
687.01	23419.40
687.14	23356.21
687.28	23321.10
687.42	23173.64
687.55	22719.58
687.69	22862.35
687.82	22792.14
687.96	23037.89
688.10	22820.22
688.23	22937.25
688.37	22513.61
688.50	22522.98
688.64	21984.65
688.78	22448.08
688.91	21968.27
689.05	22298.28
689.18	21912.10
689.32	21694.43
689.46	21872.31
689.59	22019.76
689.73	22141.47
689.86	21628.89
690.00	21755.28
690.13	22003.38
690.27	21778.68
690.41	21305.90
690.54	21113.97
690.68	21392.50
690.81	21319.94
690.95	21116.31
691.08	21008.65
691.22	21139.72
691.35	21041.42
691.49	20856.51
691.62	20982.90
691.76	20882.26
691.89	21003.97
692.03	20706.72
692.16	20533.52
692.30	20603.74
692.43	20465.64
692.57	20025.62
692.70	20365.00
692.84	20004.56
692.97	20039.67
693.11	20020.94
693.24	20034.99
693.38	19929.66
693.51	19562.20
693.65	19810.29
693.78	19805.61
693.92	19290.70
694.05	19379.64
694.19	19377.30
694.32	19037.92
694.45	19545.81
694.59	18965.36
694.72	18923.23
694.86	18937.27
694.99	18677.48
695.13	18534.70
695.26	18633.00
695.39	18368.52
695.53	18738.33
695.66	18583.85
695.80	18534.70
695.93	18434.06
696.07	18274.90
696.20	18256.18
696.33	18143.83
696.47	18064.25
696.60	17987.02
696.73	17893.40
696.87	17848.93
697.00	17797.43
697.14	17640.62
697.27	17734.24
697.40	17455.72
697.54	17174.85
697.67	17549.34
697.80	17170.17
697.94	17266.13
698.07	17022.72
698.21	17085.91
698.34	16947.82
698.47	17090.59
698.61	16423.54
698.74	16678.66
698.87	16982.93
699.01	16599.08
699.14	16353.32
699.27	16231.62
699.40	16463.33
699.54	16547.59
699.67	15824.36
699.80	16479.71
699.94	16219.91
700.07	16219.91
700.20	15777.55
700.34	15513.07
700.47	15955.43
700.60	15939.05
700.73	15995.22
700.87	15690.95
701.00	15611.37
701.13	15477.96
701.26	15400.72
701.40	15372.64
701.53	15211.14
701.66	15300.08
701.79	15019.22
701.93	15178.37
702.06	14890.49
702.19	14836.66
702.32	15019.22
702.46	15042.62
702.59	14656.43
702.72	14764.10
702.85	14703.25
702.99	14611.96
703.12	14941.98
703.25	14644.73
703.38	14717.29
703.51	14511.32
703.65	14293.65
703.78	14150.88
703.91	14277.27
704.04	14113.43
704.17	14211.73
704.31	14157.90
704.44	13626.60
704.57	13671.07
704.70	13547.02
704.83	13764.69
704.96	13715.54
705.10	13760.01
705.23	13827.88
>>>>>End Processed Spectral Data<<<<<
