SpectraSuite Data File
++++++++++++++++++++++++++++++++++++
Date: Fri Oct 25 10:48:36 EDT 2013
User: price-jones
Dark Spectrum Present: No
Reference Spectrum Present: No
Number of Sampled Component Spectra: 1
Spectrometers: USB2+H05261
Integration Time (usec): 100000 (USB2+H05261)
Spectra Averaged: 1 (USB2+H05261)
Boxcar Smoothing: 0 (USB2+H05261)
Correct for Electrical Dark: No (USB2+H05261)
Strobe/Lamp Enabled: No (USB2+H05261)
Correct for Detector Non-linearity: No (USB2+H05261)
Correct for Stray Light: No (USB2+H05261)
Number of Pixels in Processed Spectrum: 2048
>>>>>Begin Processed Spectral Data<<<<<
365.73	121.71
365.92	121.71
366.12	121.71
366.32	58.51
366.52	46.81
366.72	56.17
366.91	32.77
367.11	56.17
367.31	49.15
367.51	44.47
367.70	0.00
367.90	58.51
368.10	74.90
368.30	53.83
368.49	0.00
368.69	39.79
368.89	46.81
369.09	35.11
369.28	112.35
369.48	121.71
369.68	77.24
369.87	98.30
370.07	131.07
370.27	191.92
370.47	205.97
370.66	444.70
370.86	362.78
371.06	461.09
371.25	514.92
371.45	428.32
371.65	557.05
371.84	425.98
372.04	531.30
372.24	517.26
372.44	484.49
372.63	519.60
372.83	575.77
373.03	531.30
373.22	519.60
373.42	627.26
373.62	456.40
373.81	557.05
374.01	592.16
374.21	575.77
374.40	599.18
374.60	638.97
374.79	538.32
374.99	561.73
375.19	585.13
375.38	669.39
375.58	660.03
375.78	709.18
375.97	688.12
376.17	744.29
376.37	634.29
376.56	676.41
376.76	627.26
376.95	678.76
377.15	667.05
377.35	791.10
377.54	720.88
377.74	678.76
377.93	636.63
378.13	648.33
378.33	751.31
378.52	734.93
378.72	770.04
378.91	615.56
379.11	685.78
379.31	716.20
379.50	669.39
379.70	629.60
379.89	683.44
380.09	753.65
380.28	725.57
380.48	667.05
380.68	791.10
380.87	781.74
381.07	812.17
381.26	720.88
381.46	716.20
381.65	685.78
381.85	716.20
382.04	711.52
382.24	751.31
382.43	716.20
382.63	725.57
382.83	763.01
383.02	725.57
383.22	765.36
383.41	695.14
383.61	823.87
383.80	884.72
384.00	828.55
384.19	788.76
384.39	802.80
384.58	938.55
384.78	866.00
384.97	924.51
385.17	830.89
385.36	793.44
385.56	882.38
385.75	849.61
385.95	870.68
386.14	912.81
386.34	791.10
386.53	884.72
386.72	933.87
386.92	983.02
387.11	915.15
387.31	1036.86
387.50	868.34
387.70	903.45
387.89	844.93
388.09	936.21
388.28	938.55
388.48	922.17
388.67	1067.28
388.86	945.58
389.06	917.49
389.25	1055.58
389.45	929.19
389.64	973.66
389.84	1093.03
390.03	1062.60
390.22	1015.79
390.42	1086.01
390.61	1057.92
390.81	1032.18
391.00	1139.84
391.19	1165.59
391.39	1116.44
391.58	1057.92
391.78	1116.44
391.97	1125.80
392.16	1165.59
392.36	1123.46
392.55	1071.97
392.75	1046.22
392.94	1029.84
393.13	1043.88
393.33	1060.26
393.52	1165.59
393.71	1142.18
393.91	1156.22
394.10	1116.44
394.29	1203.04
394.49	1125.80
394.68	1277.93
394.88	1291.98
395.07	1448.79
395.26	1343.47
395.46	1320.06
395.65	1394.96
395.84	1163.25
396.04	1334.11
396.23	1270.91
396.42	1310.70
396.62	1242.82
396.81	1275.59
397.00	1306.02
397.19	1432.41
397.39	1385.60
397.58	1474.54
397.77	1488.58
397.97	1535.39
398.16	1462.83
398.35	1589.22
398.55	1488.58
398.74	1544.75
398.93	1664.12
399.12	1626.67
399.32	1511.99
399.51	1542.41
399.70	1710.93
399.90	1612.63
400.09	1643.06
400.28	1743.70
400.47	1666.46
400.67	1825.62
400.86	1769.44
401.05	1764.76
401.24	1771.79
401.44	1621.99
401.63	1760.08
401.82	1809.23
402.01	1823.28
402.21	1963.71
402.40	1902.86
402.59	1860.73
402.78	1886.47
402.97	1898.17
403.17	1830.30
403.36	1853.70
403.55	1937.96
403.74	2008.18
403.93	1935.62
404.13	1914.56
404.32	1977.75
404.51	1928.60
404.70	2031.58
404.89	1977.75
405.09	2083.08
405.28	2005.84
405.47	2092.44
405.66	2165.00
405.85	2230.53
406.05	2104.14
406.24	2101.80
406.43	2080.74
406.62	2143.93
406.81	2277.34
407.00	2146.27
407.20	1980.09
407.39	2115.84
407.58	2230.53
407.77	2214.15
407.96	2312.45
408.15	2324.15
408.34	2319.47
408.54	2347.56
408.73	2370.96
408.92	2286.70
409.11	2438.84
409.30	2443.52
409.49	2380.32
409.68	2401.39
409.87	2293.72
410.07	2354.58
410.26	2576.93
410.45	2623.74
410.64	2565.23
410.83	2637.78
411.02	2637.78
411.21	2736.09
411.40	2686.94
411.59	2740.77
411.78	2717.36
411.98	2712.68
412.17	2869.50
412.36	2731.41
412.55	2801.62
412.74	2693.96
412.93	2932.69
413.12	2820.35
413.31	3091.85
413.50	3089.51
413.69	2963.12
413.88	3082.49
414.07	3059.08
414.26	3110.57
414.45	2977.16
414.64	3131.64
414.83	3119.93
415.02	3091.85
415.22	3218.24
415.41	3260.37
415.60	3262.71
415.79	3431.23
415.98	3445.27
416.17	3449.95
416.36	3452.29
416.55	3576.34
416.74	3435.91
416.93	3468.67
417.12	3527.19
417.31	3492.08
417.50	3487.40
417.69	3478.04
417.88	3611.45
418.07	3482.72
418.26	3438.25
418.45	3520.17
418.64	3786.99
418.83	3726.13
419.02	3765.92
419.21	3784.65
419.39	3700.39
419.58	3660.60
419.77	3665.28
419.96	3770.60
420.15	3775.28
420.34	3868.91
420.53	3950.82
420.72	3971.89
420.91	3995.29
421.10	4091.26
421.29	4159.13
421.48	3843.16
421.67	3992.95
421.86	3983.59
422.05	3913.38
422.24	3920.40
422.43	3929.76
422.61	4121.68
422.80	4156.79
422.99	4100.62
423.18	4112.32
423.37	4039.76
423.56	4119.34
423.75	4072.53
423.94	3929.76
424.13	3826.78
424.32	3904.01
424.50	3990.61
424.69	4163.81
424.88	4252.75
425.07	4212.96
425.26	3976.57
425.45	3976.57
425.64	4056.15
425.83	4126.36
426.01	4093.60
426.20	4205.94
426.39	4201.26
426.58	4304.25
426.77	4238.71
426.96	3990.61
427.15	4175.52
427.33	4266.80
427.52	4175.52
427.71	4222.33
427.90	4299.56
428.09	4180.20
428.28	4322.97
428.46	4252.75
428.65	4264.46
428.84	4491.49
429.03	4386.16
429.22	4308.93
429.40	4280.84
429.59	4376.80
429.78	3981.25
429.97	4189.56
430.16	4231.69
430.34	4304.25
430.53	4227.01
430.72	4358.08
430.91	4407.23
431.10	4547.66
431.28	4788.74
431.47	4781.71
431.66	4868.31
431.85	4631.92
432.03	4716.18
432.22	4770.01
432.41	4842.57
432.60	4613.20
432.79	4973.64
432.97	4901.08
433.16	4929.17
433.35	4873.00
433.54	4915.12
433.72	4882.36
433.91	4903.42
434.10	4919.81
434.28	5046.20
434.47	5121.09
434.66	5078.96
434.85	5107.05
435.03	5090.67
435.22	5195.99
435.41	5207.69
435.59	5313.02
435.78	5385.57
435.97	5369.19
436.16	5322.38
436.34	5259.18
436.53	5376.21
436.72	5561.11
436.90	5369.19
437.09	5357.49
437.28	5266.21
437.46	5352.81
437.65	5352.81
437.84	5313.02
438.02	5336.42
438.21	5401.96
438.40	5270.89
438.58	5584.52
438.77	5591.54
438.96	5528.35
439.14	5713.25
439.33	5905.17
439.52	5858.36
439.70	5949.64
439.89	5961.34
440.08	5778.78
440.26	5996.45
440.45	5966.03
440.63	6026.88
440.82	6246.89
441.01	6272.64
441.19	6232.85
441.38	6277.32
441.57	6492.65
441.75	6422.43
441.94	6747.76
442.12	6600.31
442.31	6462.22
442.50	6427.11
442.68	6530.09
442.87	6502.01
443.05	6424.77
443.24	6684.57
443.43	6670.53
443.61	6745.42
443.80	6848.41
443.98	6546.48
444.17	6663.51
444.35	6705.63
444.54	6998.20
444.73	6600.31
444.91	6743.08
445.10	6715.00
445.28	6789.89
445.47	6633.08
445.65	6612.01
445.84	6759.47
446.02	6939.69
446.21	6878.83
446.39	6998.20
446.58	7049.69
446.77	6843.73
446.95	6752.45
447.14	6986.50
447.32	7243.96
447.51	6904.58
447.69	6792.23
447.88	6764.15
448.06	7068.42
448.25	7059.06
448.43	7042.67
448.62	6958.41
448.80	7140.97
448.99	7194.81
449.17	7300.13
449.36	7178.42
449.54	7370.35
449.73	7260.34
449.91	7403.11
450.10	7810.37
450.28	7576.31
450.46	7604.40
450.65	7573.97
450.83	7398.43
451.02	7623.12
451.20	7485.03
451.39	7414.82
451.57	7447.58
451.76	7485.03
451.94	7581.00
452.13	7531.84
452.31	7644.19
452.49	7428.86
452.68	7452.27
452.86	7424.18
453.05	7595.04
453.23	7522.48
453.42	7442.90
453.60	7623.12
453.78	7815.05
453.97	7707.38
454.15	7698.02
454.34	7756.54
454.52	7812.71
454.70	7700.36
454.89	7831.43
455.07	8053.78
455.26	7927.39
455.44	8114.64
455.62	7735.47
455.81	8006.97
455.99	7990.59
456.17	8072.51
456.36	8252.73
456.54	8217.62
456.73	8304.22
456.91	8657.64
457.09	8587.43
457.28	8725.52
457.46	8269.11
457.64	8428.27
457.83	8650.62
458.01	8496.14
458.19	8601.47
458.38	8542.96
458.56	8566.36
458.74	8505.51
458.93	8533.59
459.11	8711.47
459.29	8510.19
459.48	8608.49
459.66	8760.63
459.84	8987.66
460.03	8966.59
460.21	8781.69
460.39	9109.36
460.57	8617.85
460.76	9034.47
460.94	8898.72
461.12	8997.02
461.31	8917.44
461.49	8943.19
461.67	8992.34
461.85	9128.09
462.04	9160.86
462.22	9708.54
462.40	9383.21
462.59	9369.16
462.77	9301.29
462.95	9261.50
463.13	9312.99
463.32	9301.29
463.50	9394.91
463.68	9390.23
463.86	9488.53
464.05	9439.38
464.23	9214.69
464.41	9479.17
464.59	9130.43
464.78	9706.20
464.96	9596.20
465.14	9210.01
465.32	9439.38
465.50	9715.56
465.69	9781.10
465.87	9586.83
466.05	9645.35
466.23	9462.79
466.41	9535.34
466.60	9790.46
466.78	9460.45
466.96	9685.14
467.14	9633.64
467.32	9603.22
467.51	9949.62
467.69	9500.23
467.87	9867.70
468.05	9886.42
468.23	9895.78
468.41	9750.67
468.60	9921.53
468.78	10047.92
468.96	9841.95
469.14	10083.03
469.32	10099.41
469.50	10076.01
469.69	9930.89
469.87	10066.64
470.05	10169.63
470.23	10097.07
470.41	10078.35
470.59	10307.72
470.77	10480.92
470.95	10445.81
471.14	10478.58
471.32	10338.15
471.50	10560.50
471.68	10719.65
471.86	10986.47
472.04	10839.02
472.22	11012.22
472.40	10750.08
472.58	10668.16
472.77	10621.35
472.95	11052.01
473.13	11183.08
473.31	11023.92
473.49	11178.40
473.67	10979.45
473.85	11138.61
474.03	11304.79
474.21	11405.43
474.39	11573.95
474.57	11424.15
474.75	11644.17
474.93	11529.48
475.12	11440.54
475.30	11728.42
475.48	11695.66
475.66	11639.48
475.84	11545.86
476.02	11983.54
476.20	11878.22
476.38	12126.32
476.56	12252.70
476.74	12514.84
476.92	12149.72
477.10	12444.63
477.28	12538.25
477.46	12594.42
477.64	12650.60
477.82	13039.12
478.00	13015.72
478.18	12833.16
478.36	13174.88
478.54	13357.44
478.72	13298.92
478.90	13532.98
479.08	13935.55
479.26	13624.26
479.44	13804.48
479.62	13757.67
479.80	13942.57
479.98	13736.60
480.16	14073.64
480.34	13668.73
480.52	14333.44
480.70	14340.46
480.88	14169.60
481.06	14441.11
481.24	14728.99
481.41	14913.89
481.59	15012.20
481.77	14953.68
481.95	14906.87
482.13	15056.67
482.31	15220.50
482.49	15459.24
482.67	15482.64
482.85	15604.35
483.03	15669.89
483.21	15873.51
483.39	16074.80
483.57	15826.70
483.74	16116.93
483.92	16020.97
484.10	16020.97
484.28	16575.67
484.46	16931.44
484.64	16954.84
484.82	16830.79
485.00	16704.40
485.18	16783.98
485.35	17231.02
485.53	16730.15
485.71	16734.83
485.89	16964.20
486.07	16943.14
486.25	17025.06
486.43	17436.99
486.61	17734.24
486.78	17907.44
486.96	17774.03
487.14	18462.15
487.32	18565.13
487.50	18534.70
487.68	18726.63
487.85	19255.59
488.03	19417.08
488.21	19283.67
488.39	19206.44
488.57	19077.71
488.75	19590.28
488.92	19524.75
489.10	19887.53
489.28	19976.47
489.46	20519.48
489.64	20400.11
489.81	20744.17
489.99	20779.28
490.17	20816.72
490.35	21144.40
490.53	21008.65
490.70	21429.94
490.88	21132.70
491.06	21436.97
491.24	21750.60
491.41	21338.66
491.59	21551.65
491.77	21804.43
491.95	21919.12
492.13	21961.25
492.30	22422.33
492.48	22544.04
492.66	22398.93
492.84	22544.04
493.01	22661.07
493.19	23065.98
493.37	22820.22
493.54	23126.83
493.72	23536.43
493.90	23461.53
494.08	23885.17
494.25	24016.24
494.43	24032.62
494.61	24137.94
494.79	24627.12
494.96	24322.85
495.14	24423.49
495.32	24355.61
495.49	24592.01
495.67	24954.79
495.85	25095.22
496.02	24975.86
496.20	25322.26
496.38	25472.05
496.55	25469.71
496.73	25956.54
496.91	25818.45
497.09	25722.49
497.26	26040.80
497.44	25813.77
497.62	25991.65
497.79	26438.69
497.97	26174.21
498.14	26338.05
498.32	26700.83
498.50	26551.04
498.67	26998.08
498.85	27318.73
499.03	27283.62
499.20	27302.35
499.38	27147.87
499.56	27417.04
499.73	27325.75
499.91	27559.81
500.08	27459.16
500.26	27468.53
500.44	27662.79
500.61	27618.32
500.79	27452.14
500.97	27538.74
501.14	28088.77
501.32	28233.88
501.49	28086.43
501.67	28540.49
501.84	28250.27
502.02	28339.21
502.20	28891.57
502.37	28872.85
502.55	29057.75
502.72	28973.49
502.90	29020.30
503.07	29010.94
503.25	29387.77
503.43	29015.62
503.60	29006.26
503.78	29305.85
503.95	29546.92
504.13	29792.68
504.30	29818.42
504.48	29926.09
504.65	30015.03
504.83	29958.86
505.01	30506.54
505.18	29968.22
505.36	30373.13
505.53	30607.19
505.71	30934.86
505.88	30916.14
506.06	30426.96
506.23	30810.81
506.41	30403.56
506.58	30895.07
506.76	30785.07
506.93	31501.27
507.11	31321.05
507.28	30986.35
507.46	30852.94
507.63	31124.44
507.81	31372.54
507.98	31138.49
508.16	31599.57
508.33	31573.83
508.50	31611.28
508.68	31924.91
508.85	32306.41
509.03	31920.23
509.20	32327.48
509.38	32577.92
509.55	32390.67
509.73	32378.97
509.90	32804.95
510.08	32088.74
510.25	32650.47
510.42	32650.47
510.60	33078.79
510.77	33198.16
510.95	33249.65
511.12	32964.10
511.30	33280.08
511.47	33251.99
511.64	33654.56
511.82	33879.25
511.99	33638.18
512.17	33586.69
512.34	33380.72
512.51	33947.13
512.69	34216.29
512.86	33610.09
513.04	33706.05
513.21	33930.75
513.38	34211.61
513.56	34050.11
513.73	33820.74
513.90	34347.36
514.08	34127.35
514.25	34157.78
514.43	34763.98
514.60	34405.88
514.77	34338.00
514.95	34714.83
515.12	34714.83
515.29	34717.17
515.47	34967.60
515.64	35274.21
515.81	34944.20
515.99	35019.10
516.16	34658.65
516.33	34726.53
516.51	34785.04
516.68	34691.42
516.85	34115.65
517.03	34991.01
517.20	35079.95
517.37	35592.53
517.54	35580.82
517.72	35515.29
517.89	35112.72
518.06	35260.17
518.24	35225.06
518.41	35510.61
518.58	35765.73
518.75	36016.16
518.93	35674.45
519.10	35817.22
519.27	36470.23
519.45	36273.62
519.62	36184.68
519.79	36627.04
519.96	36627.04
520.14	36650.45
520.31	36488.95
520.48	37020.25
520.65	36769.82
520.83	37188.77
521.00	37165.37
521.17	37291.76
521.34	37289.42
521.52	37596.03
521.69	37420.48
521.86	37418.14
522.03	37921.36
522.20	37184.09
522.38	37457.93
522.55	37432.19
522.72	37518.79
522.89	37663.90
523.07	37816.04
523.24	37902.64
523.41	38094.56
523.58	38040.73
523.75	38763.95
523.92	38309.89
524.10	38190.52
524.27	38106.26
524.44	38539.26
524.61	38459.68
524.78	38773.31
524.96	38710.12
525.13	38703.10
525.30	39068.22
525.47	39033.11
525.64	39295.25
525.81	38843.53
525.98	38574.37
526.16	38735.87
526.33	38337.98
526.50	38682.03
526.67	38539.26
526.84	39007.37
527.01	38824.81
527.18	39012.05
527.36	39262.49
527.53	39304.62
527.70	39686.12
527.87	39662.72
528.04	39831.24
528.21	40112.10
528.38	39550.37
528.55	40205.72
528.72	40011.46
528.89	40776.81
529.07	40376.58
529.24	39999.76
529.41	40107.42
529.58	40187.00
529.75	39880.39
529.92	40140.19
530.09	40362.54
530.26	40318.07
530.43	40802.56
530.60	40297.00
530.77	40704.26
530.94	41041.29
531.11	40217.43
531.28	40598.93
531.46	40931.29
531.63	40746.39
531.80	40596.59
531.97	40708.94
532.14	41095.13
532.31	40629.36
532.48	40472.54
532.65	40882.14
532.82	40769.79
532.99	41113.85
533.16	41038.95
533.33	40832.99
533.50	41778.56
533.67	41338.54
533.84	40631.70
534.01	41457.91
534.18	41439.18
534.35	41652.17
534.52	41200.45
534.69	41933.04
534.86	41963.46
535.03	41645.15
535.20	42351.99
535.37	42377.74
535.54	42314.55
535.71	42419.87
535.88	42340.29
536.05	41851.12
536.22	42270.08
536.38	41717.71
536.55	42230.29
536.72	41986.87
536.89	41731.75
537.06	42050.06
537.23	42323.91
537.40	42174.11
537.57	42220.92
537.74	42302.84
537.91	42663.28
538.08	42960.53
538.25	42295.82
538.42	42787.33
538.59	42763.93
538.75	42223.26
538.92	42522.85
539.09	42815.42
539.26	42850.53
539.43	42691.37
539.60	42579.03
539.77	42836.48
539.94	43302.25
540.11	42644.56
540.28	42356.67
540.44	42763.93
540.61	42609.45
540.78	42667.97
540.95	43213.31
541.12	42775.63
541.29	43042.45
541.46	42960.53
541.62	43136.07
541.79	43540.99
541.96	42979.26
542.13	42913.72
542.30	43363.11
542.47	43732.91
542.63	43210.97
542.80	43571.41
542.97	44030.16
543.14	44114.42
543.31	44245.49
543.48	43746.95
543.64	44121.44
543.81	44252.51
543.98	44505.29
544.15	43800.79
544.32	43964.62
544.48	44601.25
544.65	44713.59
544.82	44041.86
544.99	43938.88
545.16	43938.88
545.32	44322.72
545.49	44781.47
545.66	44568.48
545.83	44285.28
546.00	44687.85
546.16	44619.97
546.33	44355.49
546.50	43660.35
546.67	44402.30
546.83	44126.12
547.00	44538.05
547.17	44797.85
547.34	44294.64
547.50	44804.88
547.67	44875.09
547.84	44783.81
548.00	45509.38
548.17	44797.85
548.34	44744.02
548.51	45331.50
548.67	45118.51
548.84	45001.48
549.01	45249.58
549.18	44924.24
549.34	45083.40
549.51	45361.92
549.68	45478.95
549.84	45537.46
550.01	45537.46
550.18	44935.95
550.34	45186.38
550.51	45251.92
550.68	44673.81
550.84	45347.88
551.01	45544.48
551.18	45202.77
551.34	45170.00
551.51	45516.40
551.68	45663.85
551.84	45574.91
552.01	45797.26
552.18	45509.38
552.34	45404.05
552.51	45684.92
552.68	45698.96
552.84	45958.76
553.01	46181.11
553.18	45642.79
553.34	45687.26
553.51	45741.09
553.67	45825.35
553.84	45996.21
554.01	46174.09
554.17	46138.98
554.34	46349.63
554.51	46178.77
554.67	46286.43
554.84	45675.55
555.00	46141.32
555.17	45883.86
555.33	46277.07
555.50	45710.66
555.67	46347.29
555.83	46197.49
556.00	46110.89
556.16	46595.38
556.33	46485.38
556.50	46316.86
556.66	46190.47
556.83	46209.20
556.99	46256.01
557.16	46202.18
557.32	46485.38
557.49	46536.87
557.65	46237.28
557.82	46485.38
557.98	46433.89
558.15	46391.76
558.32	46138.98
558.48	46333.24
558.65	46461.97
558.81	46209.20
558.98	46508.79
559.14	46253.67
559.31	46419.84
559.47	46473.68
559.64	46485.38
559.80	46855.18
559.97	46466.66
560.13	46777.95
560.30	46506.44
560.46	46515.81
560.63	46644.54
560.79	46820.08
560.96	47117.32
561.12	46902.00
561.29	46958.17
561.45	46803.69
561.61	46539.21
561.78	46602.41
561.94	46883.27
562.11	46789.65
562.27	46845.82
562.44	46972.21
562.60	46902.00
562.77	47173.50
562.93	47208.61
563.10	47126.69
563.26	46824.76
563.42	47058.81
563.59	46651.56
563.75	46890.29
563.92	47302.23
564.08	46808.37
564.24	47332.65
564.41	47028.38
564.57	47033.07
564.74	46794.33
564.90	46937.10
565.07	47166.48
565.23	46866.89
565.39	46923.06
565.56	47047.11
565.72	46766.24
565.88	46923.06
566.05	47295.21
566.21	46862.21
566.38	46892.63
566.54	47210.95
566.70	47386.49
566.87	47463.72
567.03	47405.21
567.19	47187.54
567.36	47288.18
567.52	47009.66
567.68	47033.07
567.85	46988.60
568.01	47194.56
568.17	46696.03
568.34	47122.01
568.50	47358.40
568.66	47203.92
568.83	47349.04
568.99	47274.14
569.15	46756.88
569.32	47173.50
569.48	47189.88
569.64	47297.55
569.81	47103.28
569.97	47386.49
570.13	47224.99
570.30	46756.88
570.46	47047.11
570.62	46754.54
570.78	46691.35
570.95	46925.40
571.11	46899.65
571.27	46899.65
571.43	46890.29
571.60	47241.37
571.76	47138.39
571.92	47433.30
572.09	47323.29
572.25	47227.33
572.41	47232.01
572.57	47166.48
572.74	47966.94
572.90	47522.24
573.06	47707.14
573.22	47407.55
573.38	47257.76
573.55	47126.69
573.71	47475.43
573.87	47381.80
574.03	47178.18
574.20	47217.97
574.36	47344.36
574.52	47540.96
574.68	47356.06
574.84	47784.38
575.01	47199.24
575.17	47255.42
575.33	47262.44
575.49	47512.88
575.65	47639.26
575.82	47185.20
575.98	47622.88
576.14	47824.17
576.30	47325.63
576.46	47278.82
576.62	47194.56
576.79	47136.05
576.95	46672.62
577.11	47374.78
577.27	47641.60
577.43	47377.12
577.59	47281.16
577.75	47157.11
577.92	47173.50
578.08	47562.03
578.24	46951.15
578.40	47110.30
578.56	47075.19
578.72	47571.39
578.88	47370.10
579.04	47578.41
579.21	47061.15
579.37	47519.90
579.53	47297.55
579.69	47079.88
579.85	47185.20
580.01	47564.37
580.17	47339.68
580.33	47620.54
580.49	47625.22
580.65	47573.73
580.82	47892.04
580.98	48069.92
581.14	46890.29
581.30	47405.21
581.46	47784.38
581.62	47599.47
581.78	47089.24
581.94	48009.07
582.10	47550.32
582.26	47856.93
582.42	47547.98
582.58	47597.13
582.74	47370.10
582.90	47838.21
583.06	47435.64
583.22	47922.47
583.38	47608.84
583.54	47714.16
583.70	47426.28
583.86	47311.59
584.02	47100.94
584.18	47285.84
584.34	47374.78
584.50	47299.89
584.66	47606.50
584.82	47138.39
584.98	47353.72
585.14	47964.60
585.30	47196.90
585.46	47140.73
585.62	47175.84
585.78	47414.57
585.94	47159.45
586.10	47232.01
586.26	47171.16
586.42	47793.74
586.58	47674.37
586.74	47533.94
586.90	47751.61
587.06	47269.46
587.22	47388.83
587.38	47012.00
587.54	47791.40
587.70	47922.47
587.86	47615.86
588.02	47334.99
588.18	47632.24
588.34	47494.15
588.49	46951.15
588.65	46801.35
588.81	46876.25
588.97	46883.27
589.13	47262.44
589.29	47063.49
589.45	47012.00
589.61	47384.15
589.77	47636.92
589.93	47433.30
590.08	48093.33
590.24	47672.03
590.40	47742.25
590.56	47796.08
590.72	47580.75
590.88	47622.88
591.04	47367.76
591.20	47786.72
591.35	47868.64
591.51	47859.27
591.67	47920.13
591.83	47313.93
591.99	47239.03
592.15	47316.27
592.31	47306.91
592.46	47618.20
592.62	47601.82
592.78	47503.51
592.94	47559.69
593.10	47625.22
593.26	47842.89
593.41	47260.10
593.57	47337.33
593.73	47325.63
593.89	47594.79
594.05	47936.51
594.20	47866.30
594.36	47634.58
594.52	47213.29
594.68	47529.26
594.84	47744.59
594.99	47835.87
595.15	47313.93
595.31	47796.08
595.47	47679.05
595.62	47894.38
595.78	47805.44
595.94	47756.29
596.10	48039.50
596.25	48039.50
596.41	47988.00
596.57	47414.57
596.73	47964.60
596.88	47538.62
597.04	48093.33
597.20	47737.57
597.36	47803.10
597.51	47676.71
597.67	47264.78
597.83	47739.91
597.99	47730.54
598.14	47643.94
598.30	47969.28
598.46	47522.24
598.61	47763.31
598.77	47353.72
598.93	47517.56
599.09	47744.59
599.24	47896.72
599.40	47922.47
599.56	47831.19
599.71	47737.57
599.87	47751.61
600.03	47922.47
600.18	47674.37
600.34	47117.32
600.50	47812.46
600.65	47814.80
600.81	47772.67
600.97	48009.07
601.12	48081.63
601.28	47819.49
601.44	47613.52
601.59	47449.68
601.75	47468.40
601.91	47648.63
602.06	47241.37
602.22	48018.43
602.37	47381.80
602.53	47423.93
602.69	47894.38
602.84	47054.13
603.00	47592.45
603.16	47473.09
603.31	47620.54
603.47	47402.87
603.62	47470.75
603.78	47688.42
603.94	47601.82
604.09	47510.53
604.25	48119.07
604.40	47540.96
604.56	47489.47
604.71	47826.51
604.87	47313.93
605.03	47421.59
605.18	47269.46
605.34	47639.26
605.49	47386.49
605.65	47517.56
605.80	47269.46
605.96	47533.94
606.12	47676.71
606.27	47934.17
606.43	47599.47
606.58	47428.62
606.74	47330.31
606.89	47330.31
607.05	47487.13
607.20	47161.79
607.36	47564.37
607.51	47597.13
607.67	47374.78
607.82	47194.56
607.98	47592.45
608.13	47564.37
608.29	47566.71
608.44	47021.36
608.60	46944.12
608.75	47000.30
608.91	46801.35
609.06	47054.13
609.22	47285.84
609.37	46960.51
609.53	46705.39
609.68	47189.88
609.84	47154.77
609.99	46820.08
610.15	46902.00
610.30	47264.78
610.46	46726.46
610.61	47192.22
610.76	47147.75
610.92	47033.07
611.07	46712.41
611.23	46993.28
611.38	47129.03
611.54	46689.01
611.69	46916.04
611.84	46499.42
612.00	46394.10
612.15	46724.11
612.31	47056.47
612.46	46745.18
612.62	46887.95
612.77	46621.13
612.92	47009.66
613.08	46333.24
613.23	46883.27
613.39	46398.78
613.54	46515.81
613.69	46368.35
613.85	46344.95
614.00	46583.68
614.15	46796.67
614.31	46433.89
614.46	46852.84
614.62	46181.11
614.77	46553.26
614.92	46564.96
615.08	46302.82
615.23	46637.51
615.38	46047.70
615.54	45958.76
615.69	46155.36
615.84	46122.60
616.00	46080.47
616.15	46026.63
616.30	46604.75
616.46	45872.16
616.61	45790.24
616.76	46298.14
616.92	46295.80
617.07	46239.62
617.22	45799.60
617.37	45848.75
617.53	46223.24
617.68	46389.42
617.83	46342.61
617.99	46138.98
618.14	46309.84
618.29	46061.74
618.45	45862.80
618.60	45888.54
618.75	45579.59
618.90	45928.33
619.06	45790.24
619.21	45595.98
619.36	46021.95
619.51	45701.30
619.67	45436.82
619.82	45853.44
619.97	45902.59
620.12	45677.90
620.28	45558.53
620.43	45549.17
620.58	45062.33
620.73	45411.07
620.89	45371.28
621.04	45198.09
621.19	45354.90
621.34	45015.52
621.49	45322.13
621.65	45256.60
621.80	45319.79
621.95	45364.26
622.10	45265.96
622.25	45041.27
622.41	45261.28
622.56	44577.84
622.71	45146.59
622.86	45294.05
623.01	45015.52
623.16	45102.12
623.32	44940.63
623.47	44954.67
623.62	45118.51
623.77	44992.12
623.92	44762.75
624.07	44748.70
624.23	44781.47
624.38	44989.78
624.53	44605.93
624.68	45034.25
624.83	44711.25
624.98	44692.53
625.13	44488.90
625.29	44568.48
625.44	44655.08
625.59	44399.96
625.74	44306.34
625.89	44596.57
626.04	44194.00
626.19	44577.84
626.34	44872.75
626.49	44486.56
626.65	45036.59
626.80	44315.70
626.95	44460.82
627.10	43971.64
627.25	43786.74
627.40	43842.92
627.55	44189.31
627.70	43583.12
627.85	43856.96
628.00	43915.47
628.15	44229.10
628.30	44154.21
628.45	44280.60
628.60	44149.53
628.76	43845.26
628.91	44142.50
629.06	43676.74
629.21	43789.08
629.36	43182.88
629.51	43489.49
629.66	43613.54
629.81	43000.32
629.96	43641.63
630.11	44053.56
630.26	43831.21
630.41	44091.01
630.56	43648.65
630.71	43566.73
630.86	44107.40
631.01	43627.59
631.16	43798.44
631.31	43161.82
631.46	42974.58
631.61	43344.38
631.76	43704.82
631.91	43335.02
632.06	43721.21
632.21	43856.96
632.36	43573.75
632.51	43227.35
632.66	43470.77
632.81	42927.77
632.96	43136.07
633.10	42714.78
633.25	43051.81
633.40	43131.39
633.55	43051.81
633.70	42827.12
633.85	43030.75
634.00	42932.45
634.15	43115.01
634.30	43012.02
634.45	42859.89
634.60	42909.04
634.75	42705.41
634.90	42462.00
635.05	42855.21
635.19	42782.65
635.34	42974.58
635.49	43012.02
635.64	42731.16
635.79	42948.83
635.94	42557.96
636.09	42759.25
636.24	42740.52
636.39	42546.26
636.53	42611.79
636.68	42555.62
636.83	42707.76
636.98	42904.36
637.13	42497.11
637.28	42546.26
637.43	42667.97
637.57	42906.70
637.72	42403.49
637.87	42677.33
638.02	42728.82
638.17	42148.37
638.32	42129.64
638.46	42232.63
638.61	42178.79
638.76	41764.52
638.91	42213.90
639.06	42005.59
639.20	42157.73
639.35	42412.85
639.50	42309.86
639.65	42244.33
639.80	42272.42
639.94	42014.96
640.09	41642.81
640.24	41521.10
640.39	41565.57
640.54	41298.75
640.68	41574.94
640.83	41947.08
640.98	41584.30
641.13	41432.16
641.27	41982.19
641.42	41462.59
641.57	41530.47
641.72	41940.06
641.86	41352.58
642.01	41586.64
642.16	41467.27
642.31	41148.96
642.45	41565.57
642.60	41118.53
642.75	41528.13
642.90	41099.81
643.04	41628.77
643.19	41249.60
643.34	41235.56
643.48	41240.24
643.63	41287.05
643.78	41015.55
643.93	40802.56
644.07	40526.38
644.22	41193.43
644.37	40835.33
644.51	40900.86
644.66	40732.34
644.81	41092.79
644.95	41041.29
645.10	40992.14
645.25	41385.35
645.39	41160.66
645.54	40868.09
645.69	41132.57
645.83	40708.94
645.98	40769.79
646.13	41097.47
646.27	40947.67
646.42	40608.29
646.57	40952.35
646.71	40500.63
646.86	40339.13
647.00	40912.56
647.15	40624.68
647.30	40683.19
647.44	40226.79
647.59	40788.52
647.74	40343.81
647.88	40280.62
648.03	40182.32
648.17	40091.04
648.32	40109.76
648.47	40411.69
648.61	39974.01
648.76	41031.93
648.90	40098.06
649.05	40128.48
649.20	40191.68
649.34	40484.25
649.49	39775.06
649.63	40493.61
649.78	40009.12
649.92	40018.48
650.07	40149.55
650.21	40149.55
650.36	40254.87
650.51	39852.30
650.65	40313.39
650.80	40353.18
650.94	40203.38
651.09	40182.32
651.23	40142.53
651.38	39732.93
651.52	39711.87
651.67	39784.43
651.81	39651.02
651.96	39920.18
652.10	39739.96
652.25	40034.86
652.39	39934.22
652.54	39739.96
652.68	39974.01
652.83	39702.51
652.97	40439.78
653.12	39917.84
653.26	39576.12
653.41	40009.12
653.55	39316.32
653.70	39562.08
653.84	39707.19
653.99	39365.47
654.13	39784.43
654.27	38969.92
654.42	39433.35
654.56	39016.73
654.71	39412.28
654.85	38958.22
655.00	39461.43
655.14	39344.41
655.29	38803.74
655.43	38902.04
655.57	38548.62
655.72	38440.96
655.86	38373.08
656.01	38494.79
656.15	37982.21
656.30	38279.46
656.44	38483.09
656.58	38658.63
656.73	38230.31
656.87	38721.82
657.01	38293.50
657.16	38258.40
657.30	38134.35
657.45	38270.10
657.59	38712.46
657.73	38099.24
657.88	38616.50
658.02	38522.88
658.16	38632.88
658.31	38724.16
658.45	38359.04
658.60	38424.57
658.74	38616.50
658.88	38403.51
659.03	38033.71
659.17	38110.94
659.31	38024.34
659.46	37642.84
659.60	38239.67
659.74	38003.28
659.89	37474.32
660.03	37357.29
660.17	38192.86
660.32	37876.89
660.46	37797.31
660.60	37677.94
660.74	37923.70
660.89	37586.66
661.03	37596.03
661.17	37544.53
661.32	37649.86
661.46	37469.64
661.60	37277.71
661.74	36945.36
661.89	37399.42
662.03	37652.20
662.17	37186.43
662.31	37434.53
662.46	37408.78
662.60	37130.26
662.74	37251.97
662.88	37118.56
663.03	36966.42
663.17	36968.76
663.31	37310.48
663.45	36919.61
663.60	36694.92
663.74	36521.72
663.88	36556.83
664.02	36311.07
664.17	36428.10
664.31	36149.57
664.45	36182.34
664.59	36257.24
664.73	36568.53
664.88	36374.27
665.02	36098.08
665.16	36350.86
665.30	36233.83
665.44	36147.23
665.59	35913.18
665.73	35936.59
665.87	35817.22
666.01	35922.54
666.15	35613.59
666.29	36034.89
666.44	35852.33
666.58	35789.13
666.72	35880.41
666.86	35765.73
667.00	35765.73
667.14	35536.35
667.28	35353.79
667.43	35377.20
667.57	35232.08
667.71	35421.67
667.85	35372.52
667.99	35005.05
668.13	34981.65
668.27	35037.82
668.41	34775.68
668.56	34677.38
668.70	35035.48
668.84	35138.46
668.98	34899.73
669.12	34841.21
669.26	34803.77
669.40	34314.59
669.54	34466.73
669.68	34485.45
669.82	34518.22
669.96	34227.99
670.10	34080.54
670.25	34550.99
670.39	34342.68
670.53	34155.44
670.67	33869.89
670.81	34057.14
670.95	34146.08
671.09	34244.38
671.23	33771.59
671.37	33905.00
671.51	33645.20
671.65	33546.90
671.79	33638.18
671.93	33067.09
672.07	33497.75
672.21	33390.08
672.35	33027.30
672.49	33188.80
672.63	33572.64
672.77	33057.73
672.91	33401.79
673.05	33015.60
673.19	32510.04
673.33	32856.44
673.47	33151.35
673.61	32849.42
673.75	32278.33
673.89	32430.46
674.03	32245.56
674.17	32573.24
674.31	32231.52
674.45	32013.85
674.59	32098.11
674.73	32002.14
674.87	32313.44
675.01	32158.96
675.15	32371.95
675.29	31859.37
675.43	31758.73
675.56	32095.77
675.70	31999.80
675.84	31630.00
675.98	30923.16
676.12	31089.34
676.26	31414.67
676.40	31189.98
676.54	31402.97
676.68	31037.84
676.82	30520.59
676.96	31119.76
677.10	30581.44
677.23	30962.95
677.37	31030.82
677.51	30260.79
677.65	30206.95
677.79	30410.58
677.93	29898.00
678.07	29823.11
678.21	29909.71
678.34	29771.61
678.48	30012.69
678.62	29816.08
678.76	29638.20
678.90	29544.58
679.04	29729.48
679.18	29743.53
679.31	29369.04
679.45	29195.84
679.59	28795.61
679.73	29226.27
679.87	29123.29
680.00	29001.58
680.14	29090.52
680.28	28819.02
680.42	28512.41
680.56	28123.88
680.70	28442.19
680.83	28460.91
680.97	28489.00
681.11	28250.27
681.25	27805.56
681.39	28236.22
681.52	27903.87
681.66	28191.75
681.80	27576.19
681.94	27690.88
682.07	27824.29
682.21	27625.34
682.35	27290.65
682.49	27587.89
682.62	27594.92
682.76	27288.31
682.90	26871.69
683.04	27180.64
683.17	26993.40
683.31	26984.04
683.45	27108.08
683.59	26426.99
683.72	26237.41
683.86	26375.50
684.00	26204.64
684.13	26548.70
684.27	26394.22
684.41	26157.83
684.55	25619.50
684.68	25895.69
684.82	25834.83
684.96	25783.34
685.09	25441.62
685.23	25502.48
685.37	25404.17
685.50	25294.17
685.64	25348.00
685.78	24971.18
685.91	25027.35
686.05	25017.99
686.19	24868.19
686.32	24893.94
686.46	24746.48
686.60	24098.16
686.73	24547.54
686.87	24128.58
687.01	24208.16
687.14	23672.18
687.28	23669.84
687.42	24016.24
687.55	23618.35
687.69	23482.59
687.82	23833.68
687.96	23627.71
688.10	23571.54
688.23	23864.10
688.37	23585.58
688.50	22991.08
688.64	23028.53
688.78	23325.78
688.91	22759.37
689.05	22651.70
689.18	22984.06
689.32	22700.86
689.46	22778.09
689.59	22939.59
689.73	22925.55
689.86	22553.40
690.00	22794.48
690.13	22398.93
690.27	22192.96
690.41	22338.07
690.54	22031.46
690.68	22150.83
690.81	21832.52
690.95	21722.51
691.08	21558.67
691.22	21507.18
691.35	21460.37
691.49	21762.30
691.62	21951.88
691.76	21731.87
691.89	21603.14
692.03	21366.75
692.16	21348.03
692.30	21209.93
692.43	20851.83
692.57	20922.05
692.70	20856.51
692.84	20760.55
692.97	20711.40
693.11	20524.16
693.24	20159.03
693.38	20285.42
693.51	20273.72
693.65	20559.27
693.78	20369.68
693.92	20067.75
694.05	19920.30
694.19	19676.88
694.32	19882.85
694.45	19875.83
694.59	19789.23
694.72	19695.61
694.86	19566.88
694.99	19269.63
695.13	19473.26
695.26	19005.15
695.39	19171.33
695.53	19267.29
695.66	19489.64
695.80	19084.73
695.93	19073.03
696.07	18785.14
696.20	18888.12
696.33	18642.37
696.47	18551.09
696.60	18684.50
696.73	18459.81
696.87	18391.93
697.00	18569.81
697.14	18279.58
697.27	18139.15
697.40	18349.80
697.54	18003.40
697.67	17937.87
697.80	17853.61
697.94	17771.69
698.07	17558.70
698.21	17607.85
698.34	17565.72
698.47	17490.82
698.61	17554.02
698.74	17261.45
698.87	17174.85
699.01	17359.75
699.14	17025.06
699.27	17104.64
699.40	16985.27
699.54	16943.14
699.67	16774.62
699.80	16711.42
699.94	16901.01
700.07	16671.64
700.20	16468.01
700.34	16315.87
700.47	16386.09
700.60	16414.18
700.73	16510.14
700.87	16575.67
701.00	15997.56
701.13	16308.85
701.26	15850.11
701.40	15955.43
701.53	15714.36
701.66	15700.31
701.79	15702.65
701.93	15412.43
702.06	15534.14
702.19	15477.96
702.32	15697.97
702.46	15473.28
702.59	15096.46
702.72	15152.63
702.85	15267.31
702.99	15384.34
703.12	15541.16
703.25	14876.44
703.38	14679.84
703.51	14864.74
703.65	14862.40
703.78	14796.87
703.91	14897.51
704.04	14494.94
704.17	14661.12
704.31	14174.28
704.44	14258.54
704.57	14251.52
704.70	14160.24
704.83	14155.56
704.96	14108.75
705.10	14246.84
705.23	14197.69
>>>>>End Processed Spectral Data<<<<<
