SpectraSuite Data File
++++++++++++++++++++++++++++++++++++
Date: Fri Oct 25 10:48:17 EDT 2013
User: price-jones
Dark Spectrum Present: No
Reference Spectrum Present: No
Number of Sampled Component Spectra: 1
Spectrometers: USB2+H05261
Integration Time (usec): 100000 (USB2+H05261)
Spectra Averaged: 1 (USB2+H05261)
Boxcar Smoothing: 0 (USB2+H05261)
Correct for Electrical Dark: No (USB2+H05261)
Strobe/Lamp Enabled: No (USB2+H05261)
Correct for Detector Non-linearity: No (USB2+H05261)
Correct for Stray Light: No (USB2+H05261)
Number of Pixels in Processed Spectrum: 2048
>>>>>Begin Processed Spectral Data<<<<<
365.73	161.50
365.92	161.50
366.12	161.50
366.32	53.83
366.52	0.00
366.72	86.60
366.91	63.19
367.11	72.56
367.31	0.00
367.51	58.51
367.70	37.45
367.90	21.06
368.10	0.00
368.30	18.72
368.49	53.83
368.69	74.90
368.89	67.88
369.09	39.79
369.28	9.36
369.48	58.51
369.68	9.36
369.87	126.39
370.07	159.16
370.27	189.58
370.47	175.54
370.66	404.91
370.86	458.74
371.06	484.49
371.25	484.49
371.45	470.45
371.65	491.51
371.84	482.15
372.04	533.64
372.24	475.13
372.44	505.56
372.63	533.64
372.83	540.66
373.03	510.24
373.22	484.49
373.42	535.98
373.62	493.85
373.81	552.37
374.01	627.26
374.21	582.79
374.40	566.41
374.60	596.84
374.79	575.77
374.99	599.18
375.19	674.07
375.38	671.73
375.58	702.16
375.78	660.03
375.97	648.33
376.17	688.12
376.37	617.90
376.56	662.37
376.76	540.66
376.95	655.35
377.15	631.94
377.35	751.31
377.54	671.73
377.74	653.01
377.93	634.29
378.13	711.52
378.33	592.16
378.52	650.67
378.72	709.18
378.91	638.97
379.11	730.25
379.31	716.20
379.50	695.14
379.70	650.67
379.89	685.78
380.09	688.12
380.28	676.41
380.48	629.60
380.68	695.14
380.87	695.14
381.07	655.35
381.26	720.88
381.46	699.82
381.65	795.78
381.85	685.78
382.04	727.91
382.24	723.23
382.43	805.14
382.63	706.84
382.83	732.59
383.02	753.65
383.22	849.61
383.41	758.33
383.61	849.61
383.80	800.46
384.00	814.51
384.19	758.33
384.39	847.27
384.58	772.38
384.78	882.38
384.97	765.36
385.17	814.51
385.36	826.21
385.56	833.23
385.75	802.80
385.95	758.33
386.14	826.21
386.34	891.74
386.53	861.32
386.72	814.51
386.92	945.58
387.11	891.74
387.31	940.90
387.50	926.85
387.70	903.45
387.89	847.27
388.09	931.53
388.28	957.28
388.48	1018.13
388.67	912.81
388.86	973.66
389.06	985.37
389.25	957.28
389.45	971.32
389.64	915.15
389.84	947.92
390.03	1015.79
390.22	971.32
390.42	1015.79
390.61	1041.54
390.81	1071.97
391.00	1015.79
391.19	1048.56
391.39	1022.81
391.58	1121.12
391.78	1020.47
391.97	1060.26
392.16	1020.47
392.36	1071.97
392.55	1123.46
392.75	1109.41
392.94	997.07
393.13	1020.47
393.33	1053.24
393.52	1102.39
393.71	1111.75
393.91	1088.35
394.10	1167.93
394.29	1203.04
394.49	1299.00
394.68	1205.38
394.88	1179.63
395.07	1254.53
395.26	1259.21
395.46	1259.21
395.65	1284.95
395.84	1212.40
396.04	1256.87
396.23	1135.16
396.42	1135.16
396.62	1184.31
396.81	1146.86
397.00	1233.46
397.19	1277.93
397.39	1289.64
397.58	1327.08
397.77	1411.34
397.97	1434.75
398.16	1460.49
398.35	1509.65
398.55	1530.71
398.74	1507.30
398.93	1495.60
399.12	1474.54
399.32	1507.30
399.51	1526.03
399.70	1650.08
399.90	1568.16
400.09	1577.52
400.28	1610.29
400.47	1593.90
400.67	1694.55
400.86	1816.26
401.05	1713.27
401.24	1710.93
401.44	1792.85
401.63	1713.27
401.82	1762.42
402.01	1666.46
402.21	1694.55
402.40	1830.30
402.59	1771.79
402.78	1727.32
402.97	1771.79
403.17	1820.94
403.36	1727.32
403.55	1818.60
403.74	1980.09
403.93	1827.96
404.13	1933.28
404.32	1877.11
404.51	1886.47
404.70	1916.90
404.89	1895.83
405.09	1956.69
405.28	1935.62
405.47	1907.54
405.66	2005.84
405.85	2003.50
406.05	1996.48
406.24	2010.52
406.43	2099.46
406.62	2090.10
406.81	2111.16
407.00	2125.21
407.20	2045.63
407.39	2031.58
407.58	2239.89
407.77	2197.76
407.96	2246.91
408.15	2310.11
408.34	2340.54
408.54	2298.41
408.73	2277.34
408.92	2305.43
409.11	2347.56
409.30	2352.24
409.49	2382.67
409.68	2275.00
409.87	2349.90
410.07	2443.52
410.26	2464.58
410.45	2282.02
410.64	2511.39
410.83	2476.29
411.02	2579.27
411.21	2677.57
411.40	2602.68
411.59	2633.10
411.78	2726.72
411.98	2656.51
412.17	2663.53
412.36	2626.08
412.55	2696.30
412.74	2764.17
412.93	2794.60
413.12	2679.91
413.31	2869.50
413.50	2801.62
413.69	2766.51
413.88	2867.16
414.07	2869.50
414.26	3047.38
414.45	3019.29
414.64	3054.40
414.83	3045.04
415.02	3028.65
415.22	3211.22
415.41	3159.72
415.60	3169.09
415.79	3206.53
415.98	3351.65
416.17	3307.18
416.36	3171.43
416.55	3225.26
416.74	3435.91
416.93	3265.05
417.12	3169.09
417.31	3361.01
417.50	3272.07
417.69	3485.06
417.88	3461.65
418.07	3447.61
418.26	3574.00
418.45	3513.14
418.64	3691.02
418.83	3527.19
419.02	3478.04
419.21	3581.02
419.39	3625.49
419.58	3655.92
419.77	3569.32
419.96	3719.11
420.15	3676.98
420.34	3716.77
420.53	3894.65
420.72	3873.59
420.91	3859.54
421.10	3999.98
421.29	3918.06
421.48	3852.52
421.67	3988.27
421.86	3761.24
422.05	3854.86
422.24	3770.60
422.43	3871.25
422.61	3908.69
422.80	4007.00
422.99	3854.86
423.18	4014.02
423.37	3915.72
423.56	3904.01
423.75	3901.67
423.94	3974.23
424.13	3784.65
424.32	3852.52
424.50	4011.68
424.69	3957.85
424.88	4023.38
425.07	3939.12
425.26	3871.25
425.45	3939.12
425.64	4028.06
425.83	3995.29
426.01	4053.81
426.20	4004.66
426.39	3901.67
426.58	4030.40
426.77	3864.22
426.96	3962.53
427.15	4074.87
427.33	4124.02
427.52	3999.98
427.71	4177.86
427.90	4180.20
428.09	4250.41
428.28	4119.34
428.46	4222.33
428.65	4175.52
428.84	4180.20
429.03	4367.44
429.22	4196.58
429.40	4131.05
429.59	4086.58
429.78	4028.06
429.97	3957.85
430.16	4044.45
430.34	4135.73
430.53	4203.60
430.72	4156.79
430.91	4294.88
431.10	4418.93
431.28	4465.74
431.47	4594.47
431.66	4683.41
431.85	4636.60
432.03	4671.71
432.22	4868.31
432.41	4711.50
432.60	4718.52
432.79	4723.20
432.97	4924.49
433.16	4828.53
433.35	4767.67
433.54	4638.94
433.72	4770.01
433.91	4905.76
434.10	4929.17
434.28	4851.93
434.47	4863.63
434.66	4873.00
434.85	4950.23
435.03	4898.74
435.22	4903.42
435.41	5172.58
435.59	5025.13
435.78	5135.14
435.97	5228.76
436.16	5261.52
436.34	5132.79
436.53	5144.50
436.72	5327.06
436.90	5151.52
437.09	5411.32
437.28	5039.17
437.46	5263.86
437.65	5345.78
437.84	5228.76
438.02	5151.52
438.21	5165.56
438.40	5207.69
438.58	5460.47
438.77	5467.49
438.96	5423.02
439.14	5507.28
439.33	5547.07
439.52	5591.54
439.70	5881.77
439.89	5577.50
440.08	5731.97
440.26	5561.11
440.45	5605.58
440.63	6010.50
440.82	6054.97
441.01	5968.37
441.19	6111.14
441.38	6022.20
441.57	6080.71
441.75	6230.51
441.94	6380.30
442.12	6282.00
442.31	6352.21
442.50	6380.30
442.68	6494.99
442.87	6424.77
443.05	6525.41
443.24	6670.53
443.43	6583.93
443.61	6494.99
443.80	6497.33
443.98	6436.47
444.17	6541.80
444.35	6490.31
444.54	6773.51
444.73	6597.97
444.91	6574.56
445.10	6614.35
445.28	6492.65
445.47	6537.12
445.65	6478.60
445.84	6548.82
446.02	6478.60
446.21	6569.88
446.39	6607.33
446.58	6726.70
446.77	6670.53
446.95	6633.08
447.14	6738.40
447.32	6820.32
447.51	6700.95
447.69	6626.06
447.88	6927.99
448.06	6736.06
448.25	6651.80
448.43	6656.48
448.62	6691.59
448.80	6869.47
448.99	6895.22
449.17	6991.18
449.36	6785.21
449.54	7122.25
449.73	7103.53
449.91	7164.38
450.10	7211.19
450.28	7349.28
450.46	7274.38
450.65	7351.62
450.83	7129.27
451.02	7260.34
451.20	7377.37
451.39	7229.91
451.57	7288.43
451.76	7222.89
451.94	7283.75
452.13	7438.22
452.31	7239.28
452.49	7084.80
452.68	7208.85
452.86	7286.09
453.05	7400.77
453.23	7536.52
453.42	7295.45
453.60	7513.12
453.78	7524.82
453.97	7459.29
454.15	7351.62
454.34	7424.18
454.52	7691.00
454.70	7588.02
454.89	7618.44
455.07	7646.53
455.26	7744.83
455.44	7726.11
455.62	7838.45
455.81	7822.07
455.99	7871.22
456.17	7985.91
456.36	7868.88
456.54	8173.15
456.73	8154.43
456.91	8180.17
457.09	8299.54
457.28	8332.31
457.46	7871.22
457.64	8236.35
457.83	8088.89
458.01	8161.45
458.19	8299.54
458.38	8173.15
458.56	8402.52
458.74	8257.41
458.93	8231.66
459.11	8248.05
459.29	8428.27
459.48	8559.34
459.66	8491.46
459.84	8585.08
460.03	8676.37
460.21	8461.04
460.39	8533.59
460.57	8587.43
460.76	8535.93
460.94	8830.84
461.12	8585.08
461.31	8737.22
461.49	8762.97
461.67	8877.65
461.85	8975.95
462.04	8896.38
462.22	9219.37
462.40	8858.93
462.59	8833.18
462.77	8929.14
462.95	9008.72
463.13	8788.71
463.32	9263.84
463.50	9146.81
463.68	9198.31
463.86	9158.52
464.05	8889.35
464.23	9102.34
464.41	9149.15
464.59	8917.44
464.78	9355.12
464.96	9291.93
465.14	9069.58
465.32	9195.96
465.50	9418.32
465.69	9350.44
465.87	9268.52
466.05	9261.50
466.23	9184.26
466.41	9296.61
466.60	9476.83
466.78	9193.62
466.96	9102.34
467.14	9277.88
467.32	9535.34
467.51	9565.77
467.69	9263.84
467.87	9619.60
468.05	9600.88
468.23	9678.12
468.41	9570.45
468.60	9607.90
468.78	9769.40
468.96	9675.77
469.14	9785.78
469.32	9921.53
469.50	9586.83
469.69	9701.52
469.87	9830.25
470.05	9966.00
470.23	9841.95
470.41	9923.87
470.59	9944.94
470.77	9970.68
470.95	10120.48
471.14	10363.89
471.32	10115.80
471.50	10588.58
471.68	10562.84
471.86	10363.89
472.04	10581.56
472.22	10707.95
472.40	10235.16
472.58	10452.83
472.77	10597.95
472.95	10616.67
473.13	10794.55
473.31	10511.35
473.49	10672.84
473.67	10714.97
473.85	10927.96
474.03	11098.82
474.21	10855.40
474.39	11162.01
474.57	11023.92
474.75	11183.08
474.93	11220.53
475.12	10927.96
475.30	11571.61
475.48	11400.75
475.66	11456.92
475.84	11473.31
476.02	11700.34
476.20	11597.35
476.38	11634.80
476.56	12170.79
476.74	11936.73
476.92	12016.31
477.10	11782.26
477.28	12184.83
477.46	12112.27
477.64	12418.88
477.82	12430.59
478.00	12556.97
478.18	12751.24
478.36	12809.75
478.54	12901.03
478.72	12830.82
478.90	13032.10
479.08	13137.43
479.26	13008.70
479.44	13261.48
479.62	13261.48
479.80	13483.83
479.98	13556.38
480.16	13722.56
480.34	13614.90
480.52	13867.67
480.70	13940.23
480.88	13907.46
481.06	14038.53
481.24	13968.32
481.41	14225.78
481.59	14787.50
481.77	14511.32
481.95	14520.68
482.13	14796.87
482.31	14626.01
482.49	15082.41
482.67	14822.61
482.85	15220.50
483.03	15384.34
483.21	15452.22
483.39	15513.07
483.57	15211.14
483.74	15648.82
483.92	15990.54
484.10	15646.48
484.28	15826.70
484.46	16568.65
484.64	16362.69
484.82	16051.39
485.00	16334.60
485.18	16449.28
485.35	16542.91
485.53	16255.02
485.71	16402.47
485.89	16741.85
486.07	16664.61
486.25	16959.52
486.43	17032.08
486.61	17174.85
486.78	17621.89
486.96	17158.47
487.14	17916.80
487.32	17893.40
487.50	18022.12
487.68	18113.41
487.85	18731.31
488.03	18537.04
488.21	18712.58
488.39	18562.79
488.57	18801.52
488.75	18876.42
488.92	19187.71
489.10	19674.54
489.28	19599.65
489.46	20084.14
489.64	19735.40
489.81	19981.15
489.99	20390.75
490.17	20486.71
490.35	20542.88
490.53	20636.50
490.70	20760.55
490.88	20912.69
491.06	21067.16
491.24	20592.03
491.41	20828.43
491.59	21294.19
491.77	20891.62
491.95	21399.52
492.13	21558.67
492.30	21500.16
492.48	21706.13
492.66	21713.15
492.84	22054.87
493.01	22157.85
493.19	22115.72
493.37	22422.33
493.54	22466.80
493.72	22845.97
493.90	22724.26
494.08	22963.00
494.25	23318.76
494.43	23618.35
494.61	23295.35
494.79	23726.01
494.96	23786.86
495.14	23704.95
495.32	23999.85
495.49	23723.67
495.67	24222.20
495.85	24706.70
496.02	24290.08
496.20	24947.77
496.38	24774.57
496.55	24793.29
496.73	25139.69
496.91	24753.51
497.09	24961.81
497.26	24980.54
497.44	25359.70
497.62	25432.26
497.79	25488.43
497.97	25415.88
498.14	25729.51
498.32	25806.75
498.50	26061.87
498.67	26008.03
498.85	26302.94
499.03	26602.53
499.20	26417.63
499.38	26588.49
499.56	26665.72
499.73	26621.25
499.91	26677.43
500.08	26719.56
500.26	26761.69
500.44	26576.78
500.61	27075.32
500.79	26913.82
500.97	26984.04
501.14	27412.35
501.32	27538.74
501.49	27517.68
501.67	27367.88
501.84	27323.41
502.02	27718.96
502.20	28048.98
502.37	28070.04
502.55	27985.79
502.72	28154.30
502.90	28109.83
503.07	28350.91
503.25	28395.38
503.43	28505.38
503.60	28386.02
503.78	28458.57
503.95	28489.00
504.13	28912.64
504.30	29216.91
504.48	29057.75
504.65	28978.17
504.83	29518.84
505.01	29563.31
505.18	29301.17
505.36	29958.86
505.53	29649.91
505.71	29944.81
505.88	30380.15
506.06	29593.73
506.23	30389.52
506.41	29890.98
506.58	29886.30
506.76	30251.42
506.93	30169.51
507.11	30387.18
507.28	30209.29
507.46	30635.27
507.63	30529.95
507.81	30412.92
507.98	30527.61
508.16	30499.52
508.33	30974.65
508.50	30967.63
508.68	31236.79
508.85	31470.84
509.03	31351.48
509.20	31016.78
509.38	31576.17
509.55	31433.39
509.73	31597.23
509.90	31889.80
510.08	31426.37
510.25	31845.33
510.42	32072.36
510.60	32446.85
510.77	32378.97
510.95	32584.94
511.12	32299.39
511.30	32531.11
511.47	32657.49
511.64	32582.60
511.82	32879.85
511.99	32465.57
512.17	32858.78
512.34	32503.02
512.51	32996.87
512.69	33214.54
512.86	33343.27
513.04	33289.44
513.21	33120.92
513.38	32926.66
513.56	33156.03
513.73	32917.29
513.90	33399.44
514.08	33369.02
514.25	33661.58
514.43	33699.03
514.60	33743.50
514.77	33362.00
514.95	33895.64
515.12	34005.64
515.29	33713.08
515.47	34396.51
515.64	34792.06
515.81	34256.08
515.99	34157.78
516.16	33991.60
516.33	33626.48
516.51	33790.31
516.68	33567.96
516.85	33848.83
517.03	33869.89
517.20	34373.11
517.37	33811.38
517.54	34403.53
517.72	34405.88
517.89	34527.58
518.06	34281.83
518.24	34656.31
518.41	34693.76
518.58	35023.78
518.75	34951.22
518.93	35206.34
519.10	35000.37
519.27	35744.66
519.45	35618.27
519.62	35393.58
519.79	35739.98
519.96	35573.80
520.14	36091.06
520.31	35978.72
520.48	35868.71
520.65	36355.54
520.83	36360.22
521.00	36336.82
521.17	36360.22
521.34	36392.99
521.52	36634.06
521.69	36645.77
521.86	36603.64
522.03	36804.92
522.20	36863.44
522.38	36809.61
522.55	37006.21
522.72	36685.56
522.89	36545.12
523.07	37020.25
523.24	37008.55
523.41	37415.80
523.58	37284.73
523.75	37357.29
523.92	37343.25
524.10	37961.15
524.27	37574.96
524.44	38003.28
524.61	38096.90
524.78	38218.61
524.96	37979.87
525.13	37907.32
525.30	37975.19
525.47	38642.24
525.64	38096.90
525.81	37610.07
525.98	38206.90
526.16	37383.04
526.33	37441.55
526.50	38234.99
526.67	37722.41
526.84	38106.26
527.01	38080.52
527.18	38014.98
527.36	38873.96
527.53	38712.46
527.70	38979.28
527.87	38691.40
528.04	38562.67
528.21	38422.23
528.38	38618.84
528.55	39206.31
528.72	39349.09
528.89	39744.64
529.07	39342.06
529.24	39131.42
529.41	38857.57
529.58	39131.42
529.75	38820.13
529.92	39459.09
530.09	39611.23
530.26	39796.13
530.43	39548.03
530.60	39290.57
530.77	39456.75
530.94	39966.99
531.11	39742.30
531.28	39974.01
531.46	40098.06
531.63	40350.84
531.80	39854.64
531.97	40210.40
532.14	40257.21
532.31	39646.33
532.48	39896.77
532.65	40086.36
532.82	40240.83
532.99	40170.61
533.16	40294.66
533.33	40629.36
533.50	40741.71
533.67	40725.32
533.84	39959.97
534.01	40435.10
534.18	40528.72
534.35	41184.07
534.52	40659.79
534.69	40744.05
534.86	40816.60
535.03	40964.06
535.20	41024.91
535.37	41343.22
535.54	41661.54
535.71	41015.55
535.88	41308.11
536.05	40861.07
536.22	41298.75
536.38	41507.06
536.55	40842.35
536.72	41184.07
536.89	40978.10
537.06	41462.59
537.23	41434.50
537.40	41434.50
537.57	41558.55
537.74	41556.21
537.91	41958.78
538.08	41954.10
538.25	41202.79
538.42	41963.46
538.59	42157.73
538.75	41516.42
538.92	41972.83
539.09	41804.31
539.26	42071.13
539.43	41638.13
539.60	42073.47
539.77	41797.29
539.94	42143.69
540.11	41902.61
540.28	41806.65
540.44	41696.64
540.61	42080.49
540.78	42483.06
540.95	42293.48
541.12	41750.48
541.29	42164.75
541.46	42382.42
541.62	42326.25
541.79	42443.27
541.96	41923.68
542.13	42536.90
542.30	42253.69
542.47	42436.25
542.63	42962.87
542.80	42642.22
542.97	43215.65
543.14	43505.88
543.31	42890.32
543.48	43201.61
543.64	43283.53
543.81	43318.64
543.98	43276.51
544.15	43367.79
544.32	43636.95
544.48	43910.79
544.65	43203.95
544.82	43459.07
544.99	43107.99
545.16	43494.18
545.32	42990.96
545.49	43798.44
545.66	43786.74
545.83	44107.40
546.00	43969.30
546.16	44062.93
546.33	43749.29
546.50	43159.48
546.67	43856.96
546.83	43367.79
547.00	43653.33
547.17	44048.88
547.34	43611.20
547.50	43660.35
547.67	44240.81
547.84	43910.79
548.00	44154.21
548.17	44215.06
548.34	44189.31
548.51	44428.05
548.67	44322.72
548.84	44479.54
549.01	44945.31
549.18	44348.47
549.34	44301.66
549.51	44924.24
549.68	44481.88
549.84	44680.83
550.01	44804.88
550.18	44376.56
550.34	44346.13
550.51	44839.98
550.68	44112.08
550.84	43819.51
551.01	44928.92
551.18	44547.42
551.34	44425.71
551.51	44339.11
551.68	45205.11
551.84	44896.16
552.01	44451.45
552.18	44765.09
552.34	44341.45
552.51	45230.85
552.68	44423.37
552.84	44980.42
553.01	45137.23
553.18	45001.48
553.34	44800.19
553.51	44905.52
553.67	45118.51
553.84	45013.18
554.01	45443.84
554.17	45441.50
554.34	45443.84
554.51	45476.61
554.67	45841.73
554.84	45287.03
555.00	44973.39
555.17	45001.48
555.33	45380.65
555.50	45287.03
555.67	45399.37
555.83	45930.67
556.00	45600.66
556.16	45778.54
556.33	45500.01
556.50	45191.06
556.66	45715.34
556.83	45336.18
556.99	45495.33
557.16	45645.13
557.32	45455.54
557.49	46143.66
557.65	45846.41
557.82	45476.61
557.98	45549.17
558.15	45783.22
558.32	45439.16
558.48	45937.69
558.65	45579.59
558.81	45734.07
558.98	45935.35
559.14	45874.50
559.31	45521.08
559.47	45862.80
559.64	46354.31
559.80	46164.73
559.97	45806.62
560.13	45619.38
560.30	45631.08
560.46	45867.48
560.63	45970.46
560.79	45958.76
560.96	46169.41
561.12	45724.71
561.29	45743.43
561.45	45855.78
561.61	45867.48
561.78	45727.05
561.94	45818.33
562.11	45921.31
562.27	45785.56
562.44	46040.68
562.60	46513.47
562.77	46026.63
562.93	46136.64
563.10	46473.68
563.26	45944.72
563.42	45909.61
563.59	46270.05
563.75	45759.81
563.92	46590.70
564.08	46611.77
564.24	46190.47
564.41	46213.88
564.57	45909.61
564.74	46433.89
564.90	46408.14
565.07	46380.06
565.23	45942.38
565.39	46043.02
565.56	46361.33
565.72	46361.33
565.88	46291.12
566.05	46071.10
566.21	46532.19
566.38	46405.80
566.54	46394.10
566.70	46663.26
566.87	47065.83
567.03	46593.04
567.19	46658.58
567.36	46426.87
567.52	46307.50
567.68	46485.38
567.85	45972.80
568.01	46253.67
568.17	46476.02
568.34	46398.78
568.50	46305.16
568.66	46260.69
568.83	46457.29
568.99	45914.29
569.15	46756.88
569.32	46541.55
569.48	46274.73
569.64	46391.76
569.81	46663.26
569.97	46492.40
570.13	46351.97
570.30	46234.94
570.46	46368.35
570.62	46272.39
570.78	46387.08
570.95	46344.95
571.11	46363.67
571.27	46424.53
571.43	46473.68
571.60	46454.95
571.76	46373.03
571.92	46473.68
572.09	46574.32
572.25	46431.55
572.41	46712.41
572.57	46801.35
572.74	47463.72
572.90	46873.91
573.06	46660.92
573.22	46986.25
573.38	46862.21
573.55	46457.29
573.71	46576.66
573.87	46813.05
574.03	46679.64
574.20	46663.26
574.36	46646.88
574.52	46862.21
574.68	46937.10
574.84	46784.97
575.01	46546.23
575.17	46562.62
575.33	46473.68
575.49	46749.86
575.65	46726.46
575.82	46834.12
575.98	46670.28
576.14	46836.46
576.30	46646.88
576.46	46593.04
576.62	46883.27
576.79	46494.74
576.95	46237.28
577.11	46653.90
577.27	46546.23
577.43	46693.69
577.59	46506.44
577.75	46443.25
577.92	46574.32
578.08	46483.04
578.24	46363.67
578.40	46651.56
578.56	46389.42
578.72	46761.56
578.88	46852.84
579.04	46972.21
579.21	46206.86
579.37	46457.29
579.53	46677.30
579.69	46721.77
579.85	46923.06
580.01	46719.43
580.17	46637.51
580.33	46894.97
580.49	46696.03
580.65	46787.31
580.82	46939.44
580.98	46752.20
581.14	46504.10
581.30	46986.25
581.46	46859.87
581.62	47072.85
581.78	46623.47
581.94	47428.62
582.10	46979.23
582.26	47033.07
582.42	47079.88
582.58	46894.97
582.74	46370.69
582.90	47243.71
583.06	47159.45
583.22	47037.75
583.38	46857.52
583.54	46614.11
583.70	47023.70
583.86	46684.33
584.02	46583.68
584.18	46581.34
584.34	46560.28
584.50	46955.83
584.66	46637.51
584.82	47049.45
584.98	47374.78
585.14	46780.29
585.30	46719.43
585.46	47000.30
585.62	46789.65
585.78	46993.28
585.94	46293.46
586.10	46211.54
586.26	46340.27
586.42	47037.75
586.58	46827.10
586.74	46946.47
586.90	46864.55
587.06	46557.94
587.22	46827.10
587.38	46789.65
587.54	47363.08
587.70	46829.44
587.86	46941.78
588.02	46815.40
588.18	47112.64
588.34	46639.86
588.49	46426.87
588.65	46471.34
588.81	46162.39
588.97	46370.69
589.13	46218.56
589.29	46513.47
589.45	46319.20
589.61	47246.05
589.77	47346.70
589.93	47143.07
590.08	46787.31
590.24	46714.75
590.40	47166.48
590.56	46649.22
590.72	47136.05
590.88	46742.84
591.04	46745.18
591.20	47002.64
591.35	47540.96
591.51	47723.52
591.67	47122.01
591.83	46749.86
591.99	46857.52
592.15	46958.17
592.31	46869.23
592.46	47061.15
592.62	47173.50
592.78	46848.16
592.94	47007.32
593.10	46916.04
593.26	47208.61
593.41	46962.85
593.57	46962.85
593.73	46831.78
593.89	47098.60
594.05	46843.48
594.20	47201.58
594.36	46904.34
594.52	46623.47
594.68	46674.96
594.84	47119.66
594.99	47498.83
595.15	46906.68
595.31	47082.22
595.47	47023.70
595.62	46770.93
595.78	47016.68
595.94	47189.88
596.10	47161.79
596.25	47529.26
596.41	47000.30
596.57	46972.21
596.73	47327.97
596.88	46941.78
597.04	46782.63
597.20	47313.93
597.36	46698.37
597.51	47463.72
597.67	47171.16
597.83	47257.76
597.99	47119.66
598.14	47234.35
598.30	47077.54
598.46	47159.45
598.61	46927.74
598.77	46962.85
598.93	47217.97
599.09	47353.72
599.24	47372.44
599.40	47126.69
599.56	47484.79
599.71	47356.06
599.87	47161.79
600.03	46930.08
600.18	47229.67
600.34	47281.16
600.50	47049.45
600.65	46946.47
600.81	47480.11
600.97	47175.84
601.12	47402.87
601.28	47023.70
601.44	47194.56
601.59	46995.62
601.75	47044.77
601.91	47187.54
602.06	47035.41
602.22	46714.75
602.37	47026.04
602.53	46782.63
602.69	47564.37
602.84	47136.05
603.00	47573.73
603.16	46916.04
603.31	46930.08
603.47	46859.87
603.62	46745.18
603.78	47070.51
603.94	46958.17
604.09	47236.69
604.25	47166.48
604.40	46969.87
604.56	46965.19
604.71	47072.85
604.87	47217.97
605.03	46969.87
605.18	46588.36
605.34	46775.61
605.49	46686.67
605.65	47171.16
605.80	47061.15
605.96	47037.75
606.12	46892.63
606.27	46937.10
606.43	46920.72
606.58	47241.37
606.74	46761.56
606.89	46763.90
607.05	47192.22
607.20	47103.28
607.36	47016.68
607.51	46754.54
607.67	46969.87
607.82	46850.50
607.98	46733.48
608.13	46735.82
608.29	46876.25
608.44	46735.82
608.60	46101.53
608.75	46284.09
608.91	46319.20
609.06	46344.95
609.22	47026.04
609.37	46389.42
609.53	46822.42
609.68	46450.27
609.84	46473.68
609.99	46454.95
610.15	46581.34
610.30	46660.92
610.46	46251.33
610.61	46373.03
610.76	46569.64
610.92	46527.51
611.07	46337.93
611.23	46263.03
611.38	46504.10
611.54	46019.61
611.69	45951.74
611.84	46307.50
612.00	46356.65
612.15	45951.74
612.31	46234.94
612.46	46284.09
612.62	46574.32
612.77	46047.70
612.92	46134.30
613.08	46094.51
613.23	45830.03
613.39	46031.32
613.54	45853.44
613.69	45900.25
613.85	45834.71
614.00	46298.14
614.15	46459.63
614.31	46391.76
614.46	46639.86
614.62	45879.18
614.77	45771.52
614.92	45844.07
615.08	46113.23
615.23	46010.25
615.38	45553.85
615.54	45174.68
615.69	45418.10
615.84	45422.78
616.00	45928.33
616.15	45476.61
616.30	45750.45
616.46	45485.97
616.61	45308.09
616.76	45528.10
616.92	45174.68
617.07	45680.24
617.22	45315.11
617.37	45399.37
617.53	45837.05
617.68	45921.31
617.83	45638.11
617.99	45820.67
618.14	45378.31
618.29	44961.69
618.45	45315.11
618.60	45385.33
618.75	45256.60
618.90	45289.37
619.06	45593.64
619.21	44811.90
619.36	45492.99
619.51	45567.89
619.67	45109.14
619.82	45504.70
619.97	45247.24
620.12	44753.38
620.28	44877.43
620.43	45406.39
620.58	44966.37
620.73	44919.56
620.89	44823.60
621.04	44718.28
621.19	44938.29
621.34	45081.06
621.49	44343.79
621.65	44687.85
621.80	45228.51
621.95	44666.78
622.10	44568.48
622.25	44760.40
622.41	44318.04
622.56	44439.75
622.71	45045.95
622.86	44664.44
623.01	44825.94
623.16	44561.46
623.32	44432.73
623.47	45118.51
623.62	44617.63
623.77	44437.41
623.92	44009.09
624.07	44266.55
624.23	44374.22
624.38	44467.84
624.53	44013.77
624.68	44369.54
624.83	44650.40
624.98	44432.73
625.13	43910.79
625.29	44186.97
625.44	44285.28
625.59	43768.02
625.74	44142.50
625.89	43309.27
626.04	43814.83
626.19	43679.08
626.34	44076.97
626.49	43856.96
626.65	44292.30
626.80	44158.89
626.95	43386.51
627.10	43538.65
627.25	43861.64
627.40	43070.54
627.55	43562.05
627.70	42911.38
627.85	43737.59
628.00	43260.12
628.15	43758.66
628.30	43079.90
628.45	43913.13
628.60	43241.40
628.76	43419.28
628.91	43915.47
629.06	43569.07
629.21	43131.39
629.36	43316.29
629.51	43042.45
629.66	42782.65
629.81	42836.48
629.96	43323.32
630.11	43077.56
630.26	43629.93
630.41	43267.14
630.56	42689.03
630.71	43107.99
630.86	42997.98
631.01	42918.40
631.16	43271.82
631.31	42632.86
631.46	42024.32
631.61	42857.55
631.76	42689.03
631.91	42841.17
632.06	42988.62
632.21	43292.89
632.36	43014.37
632.51	42817.76
632.66	42714.78
632.81	42941.81
632.96	42658.60
633.10	42227.95
633.25	42691.37
633.40	42827.12
633.55	42934.79
633.70	42951.17
633.85	42424.55
634.00	42967.55
634.15	42520.51
634.30	42272.42
634.45	42707.76
634.60	42424.55
634.75	42326.25
634.90	42618.81
635.05	42270.08
635.19	41717.71
635.34	42728.82
635.49	42328.59
635.64	41928.36
635.79	42153.05
635.94	42225.60
636.09	42258.37
636.24	41914.31
636.39	41806.65
636.53	41893.25
636.68	41577.28
636.83	41963.46
636.98	41808.99
637.13	41823.03
637.28	42288.80
637.43	42249.01
637.57	42150.71
637.72	42160.07
637.87	42066.45
638.02	41886.23
638.17	41970.49
638.32	42031.34
638.46	41502.38
638.61	41975.17
638.76	41722.39
638.91	41708.35
639.06	41806.65
639.20	41563.23
639.35	41710.69
639.50	41610.04
639.65	41724.73
639.80	41663.88
639.94	41670.90
640.09	41303.43
640.24	41282.37
640.39	41048.32
640.54	40994.48
640.68	41273.01
640.83	41254.28
640.98	41113.85
641.13	41301.09
641.27	41326.84
641.42	41078.74
641.57	41083.42
641.72	41153.64
641.86	40971.08
642.01	41265.99
642.16	40748.73
642.31	40744.05
642.45	40788.52
642.60	40474.88
642.75	40662.13
642.90	41357.27
643.04	40889.16
643.19	40858.73
643.34	40940.65
643.48	40458.50
643.63	40744.05
643.78	40676.17
643.93	40620.00
644.07	40627.02
644.22	40341.47
644.37	40144.87
644.51	40584.89
644.66	40484.25
644.81	40470.20
644.95	40505.31
645.10	40570.85
645.25	40699.58
645.39	40580.21
645.54	40765.11
645.69	40425.73
645.83	40514.67
645.98	40346.15
646.13	40399.99
646.27	40442.12
646.42	40360.20
646.57	40016.14
646.71	40156.57
646.86	40184.66
647.00	40414.03
647.15	40224.45
647.30	40187.00
647.44	40395.31
647.59	40072.31
647.74	39620.59
647.88	39686.12
648.03	39931.88
648.17	39772.72
648.32	39653.36
648.47	39796.13
648.61	39892.09
648.76	40032.52
648.90	39931.88
649.05	39812.51
649.20	39824.22
649.34	40013.80
649.49	39377.17
649.63	39723.57
649.78	40055.93
649.92	39653.36
650.07	40179.98
650.21	39372.49
650.36	39976.35
650.51	39634.63
650.65	39974.01
650.80	40172.96
650.94	39775.06
651.09	39524.63
651.23	39611.23
651.38	39405.26
651.52	39384.19
651.67	39658.04
651.81	39416.96
651.96	39187.59
652.10	39077.58
652.25	38761.61
652.39	39262.49
652.54	39442.71
652.68	39564.42
652.83	39377.17
652.97	39400.58
653.12	39234.40
653.26	39363.13
653.41	39288.23
653.55	38766.29
653.70	38752.25
653.84	38649.27
653.99	38780.34
654.13	38988.64
654.27	39108.01
654.42	38983.96
654.56	38852.89
654.71	39112.69
654.85	38820.13
655.00	38522.88
655.14	38494.79
655.29	38260.74
655.43	38675.01
655.57	37855.82
655.72	37940.08
655.86	38057.11
656.01	37771.57
656.15	37867.53
656.30	38277.12
656.44	38398.83
656.58	38099.24
656.73	37661.56
656.87	38047.75
657.01	38146.05
657.16	37780.93
657.30	37827.74
657.45	37879.23
657.59	37961.15
657.73	37968.17
657.88	37717.73
658.02	38239.67
658.16	38124.99
658.31	37897.95
658.45	38614.16
658.60	37996.26
658.74	37998.60
658.88	38183.50
659.03	37591.34
659.17	37507.08
659.31	37453.25
659.46	37832.42
659.60	37912.00
659.74	37460.27
659.89	37322.18
660.03	37116.22
660.17	37624.11
660.32	37600.71
660.46	37607.73
660.60	37553.90
660.74	37446.23
660.89	37144.30
661.03	36917.27
661.17	36687.90
661.32	36919.61
661.46	37029.62
661.60	37380.70
661.74	36985.15
661.89	36512.36
662.03	37085.79
662.17	36460.87
662.31	36790.88
662.46	36662.15
662.60	36987.49
662.74	36470.23
662.88	36921.95
663.03	36570.87
663.17	36877.48
663.31	36006.80
663.45	36882.16
663.60	36538.10
663.74	36006.80
663.88	36287.67
664.02	35945.95
664.17	36411.71
664.31	35803.17
664.45	35997.44
664.59	36175.32
664.73	35541.03
664.88	36168.30
665.02	35938.93
665.16	35835.94
665.30	35957.65
665.44	35522.31
665.59	35204.00
665.73	35772.75
665.87	35629.98
666.01	35098.67
666.15	35145.48
666.29	34960.58
666.44	35660.40
666.58	35524.65
666.72	35498.91
666.86	35716.58
667.00	35431.03
667.14	35185.27
667.28	34962.92
667.43	34682.06
667.57	34855.26
667.71	35108.04
667.85	34703.12
667.99	34508.86
668.13	34691.42
668.27	34302.89
668.41	34604.82
668.56	34775.68
668.70	34679.72
668.84	34529.92
668.98	34298.21
669.12	34476.09
669.26	34593.12
669.40	34197.57
669.54	34073.52
669.68	34075.86
669.82	34436.30
669.96	33813.72
670.10	33780.95
670.25	33823.08
670.39	33680.31
670.53	33970.54
670.67	33474.34
670.81	33986.92
670.95	33710.74
671.09	33741.16
671.23	33970.54
671.37	33446.26
671.51	33591.37
671.65	33401.79
671.79	33284.76
671.93	33425.19
672.07	33287.10
672.21	33113.90
672.35	32488.98
672.49	32900.91
672.63	32767.50
672.77	32690.26
672.91	32844.74
673.05	32711.33
673.19	32383.65
673.33	32353.23
673.47	32348.54
673.61	32325.14
673.75	32367.27
673.89	32095.77
674.03	31658.09
674.17	31896.82
674.31	31950.65
674.45	31349.14
674.59	31981.08
674.73	32116.83
674.87	31800.86
675.01	31700.22
675.15	31740.00
675.29	31590.21
675.43	31543.40
675.56	31791.50
675.70	31388.92
675.84	30951.24
675.98	30529.95
676.12	31534.04
676.26	30881.03
676.40	31042.53
676.54	31164.23
676.68	30724.21
676.82	30448.03
676.96	30792.09
677.10	30459.73
677.23	30443.35
677.37	30478.46
677.51	30033.75
677.65	30375.47
677.79	30101.63
677.93	30019.71
678.07	30024.39
678.21	29596.07
678.34	29722.46
678.48	29385.43
678.62	29752.89
678.76	29184.14
678.90	29092.86
679.04	29411.17
679.18	29411.17
679.31	29106.90
679.45	28816.68
679.59	28503.04
679.73	28844.76
679.87	28877.53
680.00	28680.92
680.14	28645.82
680.28	28327.50
680.42	28203.46
680.56	28395.38
680.70	28250.27
680.83	28203.46
680.97	27632.36
681.11	27812.59
681.25	27098.72
681.39	27924.93
681.52	27880.46
681.66	27772.80
681.80	27744.71
681.94	27407.67
682.07	27311.71
682.21	27405.33
682.35	27040.21
682.49	27094.04
682.62	27103.40
682.76	26848.29
682.90	27342.14
683.04	26944.25
683.17	26906.80
683.31	26515.93
683.45	26768.71
683.59	26242.09
683.72	26057.18
683.86	26471.46
684.00	26015.05
684.13	26162.51
684.27	26106.34
684.41	26066.55
684.55	25701.42
684.68	25397.15
684.82	25476.73
684.96	25170.12
685.09	25443.96
685.23	25301.19
685.37	25235.66
685.50	25298.85
685.64	25263.74
685.78	25132.67
685.91	25291.83
686.05	24828.40
686.19	24582.65
686.32	24844.79
686.46	24322.85
686.60	24049.00
686.73	23843.04
686.87	23924.96
687.01	23875.80
687.14	23381.95
687.28	23503.66
687.42	23669.84
687.55	23475.57
687.69	23623.03
687.82	23339.82
687.96	23302.37
688.10	23253.22
688.23	23360.89
688.37	23040.23
688.50	22850.65
688.64	23002.78
688.78	22530.00
688.91	22815.54
689.05	22752.35
689.18	22387.22
689.32	22197.64
689.46	22085.30
689.59	22525.32
689.73	22717.24
689.86	22417.65
690.00	22361.48
690.13	22312.33
690.27	22221.05
690.41	22286.58
690.54	21675.70
690.68	21642.93
690.81	21804.43
690.95	21724.85
691.08	21308.24
691.22	21635.91
691.35	21649.96
691.49	21598.46
691.62	21406.54
691.76	21296.53
691.89	20992.26
692.03	21331.64
692.16	21088.23
692.30	21284.83
692.43	20882.26
692.57	21113.97
692.70	20648.21
692.84	20662.25
692.97	20425.86
693.11	20456.28
693.24	20276.06
693.38	20233.93
693.51	20004.56
693.65	20100.52
693.78	20191.80
693.92	19854.76
694.05	19964.77
694.19	19669.86
694.32	19903.92
694.45	19660.50
694.59	19529.43
694.72	19342.19
694.86	19082.39
694.99	19028.56
695.13	19147.92
695.26	18803.86
695.39	18897.49
695.53	19016.85
695.66	19112.81
695.80	18731.31
695.93	18497.25
696.07	18562.79
696.20	18656.41
696.33	18403.63
696.47	18515.98
696.60	18569.81
696.73	18618.96
696.87	18288.95
697.00	18092.34
697.14	18157.88
697.27	17919.14
697.40	17987.02
697.54	17783.39
697.67	17848.93
697.80	17832.54
697.94	17467.42
698.07	17598.49
698.21	17621.89
698.34	17617.21
698.47	17542.32
698.61	16854.20
698.74	16933.78
698.87	17011.01
699.01	16933.78
699.14	16760.58
699.27	16926.75
699.40	16783.98
699.54	16837.81
699.67	16503.12
699.80	16229.27
699.94	16554.61
700.07	16657.59
700.20	16482.05
700.34	16187.14
700.47	16077.14
700.60	16086.50
700.73	16119.27
700.87	16280.77
701.00	16126.29
701.13	15850.11
701.26	15948.41
701.40	15871.17
701.53	15798.62
701.66	15580.95
701.79	15456.90
701.93	15239.23
702.06	15239.23
702.19	15073.05
702.32	15435.83
702.46	15260.29
702.59	15346.89
702.72	15047.30
702.85	15061.35
702.99	15033.26
703.12	15110.50
703.25	14874.10
703.38	14813.25
703.51	14836.66
703.65	14757.08
703.78	14721.97
703.91	14586.22
704.04	14406.00
704.17	14614.30
704.31	14356.85
704.44	13987.04
704.57	14003.43
704.70	13998.74
704.83	13893.42
704.96	14104.07
705.10	14141.52
705.23	14024.49
>>>>>End Processed Spectral Data<<<<<
