SpectraSuite Data File
++++++++++++++++++++++++++++++++++++
Date: Fri Oct 25 10:44:20 EDT 2013
User: price-jones
Dark Spectrum Present: No
Reference Spectrum Present: No
Number of Sampled Component Spectra: 1
Spectrometers: USB2+H05261
Integration Time (usec): 100000 (USB2+H05261)
Spectra Averaged: 1 (USB2+H05261)
Boxcar Smoothing: 0 (USB2+H05261)
Correct for Electrical Dark: No (USB2+H05261)
Strobe/Lamp Enabled: No (USB2+H05261)
Correct for Detector Non-linearity: No (USB2+H05261)
Correct for Stray Light: No (USB2+H05261)
Number of Pixels in Processed Spectrum: 2048
>>>>>Begin Processed Spectral Data<<<<<
365.73	145.11
365.92	145.11
366.12	145.11
366.32	39.79
366.52	65.54
366.72	51.49
366.91	35.11
367.11	37.45
367.31	0.00
367.51	0.00
367.70	0.00
367.90	14.04
368.10	11.70
368.30	49.15
368.49	0.00
368.69	0.00
368.89	0.00
369.09	56.17
369.28	102.98
369.48	67.88
369.68	67.88
369.87	51.49
370.07	35.11
370.27	119.37
370.47	170.86
370.66	386.19
370.86	440.02
371.06	510.24
371.25	456.40
371.45	440.02
371.65	454.06
371.84	470.45
372.04	433.00
372.24	538.32
372.44	538.32
372.63	559.39
372.83	580.45
373.03	503.22
373.22	458.74
373.42	667.05
373.62	559.39
373.81	634.29
374.01	526.62
374.21	585.13
374.40	568.75
374.60	641.31
374.79	531.30
374.99	620.24
375.19	601.52
375.38	662.37
375.58	606.20
375.78	638.97
375.97	587.47
376.17	676.41
376.37	566.41
376.56	692.80
376.76	596.84
376.95	599.18
377.15	627.26
377.35	709.18
377.54	767.70
377.74	695.14
377.93	716.20
378.13	622.58
378.33	692.80
378.52	662.37
378.72	653.01
378.91	634.29
379.11	697.48
379.31	702.16
379.50	655.35
379.70	739.61
379.89	664.71
380.09	631.94
380.28	676.41
380.48	744.29
380.68	692.80
380.87	739.61
381.07	709.18
381.26	737.27
381.46	720.88
381.65	716.20
381.85	664.71
382.04	697.48
382.24	709.18
382.43	716.20
382.63	627.26
382.83	664.71
383.02	763.01
383.22	765.36
383.41	748.97
383.61	730.25
383.80	880.04
384.00	755.99
384.19	837.91
384.39	844.93
384.58	807.48
384.78	875.36
384.97	760.67
385.17	884.72
385.36	800.46
385.56	816.85
385.75	763.01
385.95	798.12
386.14	854.30
386.34	819.19
386.53	863.66
386.72	873.02
386.92	950.26
387.11	910.47
387.31	959.62
387.50	875.36
387.70	908.13
387.89	976.00
388.09	922.17
388.28	894.08
388.48	985.37
388.67	931.53
388.86	997.07
389.06	917.49
389.25	1048.56
389.45	1102.39
389.64	1107.07
389.84	978.34
390.03	990.05
390.22	987.71
390.42	1006.43
390.61	1088.35
390.81	999.41
391.00	1100.05
391.19	1139.84
391.39	1118.78
391.58	1167.93
391.78	1135.16
391.97	1071.97
392.16	1046.22
392.36	1020.47
392.55	1015.79
392.75	1151.54
392.94	1013.45
393.13	1090.69
393.33	1029.84
393.52	1006.43
393.71	1174.95
393.91	1135.16
394.10	1135.16
394.29	1139.84
394.49	1196.01
394.68	1167.93
394.88	1151.54
395.07	1266.23
395.26	1205.38
395.46	1301.34
395.65	1343.47
395.84	1268.57
396.04	1268.57
396.23	1261.55
396.42	1184.31
396.62	1205.38
396.81	1203.04
397.00	1303.68
397.19	1324.74
397.39	1338.79
397.58	1373.89
397.77	1420.71
397.97	1448.79
398.16	1465.18
398.35	1563.48
398.55	1507.30
398.74	1540.07
398.93	1561.14
399.12	1535.39
399.32	1579.86
399.51	1659.44
399.70	1621.99
399.90	1558.80
400.09	1626.67
400.28	1664.12
400.47	1661.78
400.67	1647.74
400.86	1797.53
401.05	1806.89
401.24	1732.00
401.44	1736.68
401.63	1870.09
401.82	1694.55
402.01	1816.26
402.21	1785.83
402.40	1954.35
402.59	1776.47
402.78	1767.10
402.97	1863.07
403.17	1820.94
403.36	1856.04
403.55	1842.00
403.74	1769.44
403.93	2050.31
404.13	1933.28
404.32	1952.01
404.51	1991.80
404.70	1947.33
404.89	1952.01
405.09	2031.58
405.28	2097.12
405.47	2080.74
405.66	2001.16
405.85	2038.61
406.05	2064.35
406.24	2064.35
406.43	2141.59
406.62	2097.12
406.81	2129.89
407.00	2125.21
407.20	2118.18
407.39	2148.61
407.58	2244.57
407.77	2230.53
407.96	2321.81
408.15	2333.51
408.34	2361.60
408.54	2466.92
408.73	2389.69
408.92	2340.54
409.11	2307.77
409.30	2429.48
409.49	2349.90
409.68	2450.54
409.87	2450.54
410.07	2373.30
410.26	2403.73
410.45	2511.39
410.64	2590.97
410.83	2593.31
411.02	2583.95
411.21	2607.36
411.40	2689.28
411.59	2609.70
411.78	2602.68
411.98	2665.87
412.17	2736.09
412.36	2810.98
412.55	2794.60
412.74	2822.69
412.93	2759.49
413.12	2733.75
413.31	2963.12
413.50	2951.42
413.69	3075.46
413.88	3068.44
414.07	3082.49
414.26	3012.27
414.45	3014.61
414.64	3117.59
414.83	3110.57
415.02	3204.19
415.22	3000.57
415.41	3070.78
415.60	3297.81
415.79	3272.07
415.98	3501.44
416.17	3337.60
416.36	3260.37
416.55	3433.57
416.74	3253.34
416.93	3368.03
417.12	3389.10
417.31	3393.78
417.50	3421.86
417.69	3534.21
417.88	3651.24
418.07	3550.59
418.26	3632.51
418.45	3662.94
418.64	3805.71
418.83	3676.98
419.02	3740.18
419.21	3747.20
419.39	3719.11
419.58	3726.13
419.77	3667.62
419.96	3782.31
420.15	3721.45
420.34	3770.60
420.53	3967.21
420.72	3953.16
420.91	3943.80
421.10	4060.83
421.29	4032.74
421.48	3918.06
421.67	3999.98
421.86	3906.35
422.05	3981.25
422.24	3791.67
422.43	4056.15
422.61	3875.93
422.80	4079.55
422.99	3997.64
423.18	4018.70
423.37	4065.51
423.56	4063.17
423.75	4191.90
423.94	4126.36
424.13	3817.41
424.32	3882.95
424.50	4231.69
424.69	4182.54
424.88	4131.05
425.07	4124.02
425.26	4095.94
425.45	4105.30
425.64	3943.80
425.83	4273.82
426.01	4257.43
426.20	4063.17
426.39	4201.26
426.58	4025.72
426.77	4084.23
426.96	3981.25
427.15	4114.66
427.33	4187.22
427.52	4187.22
427.71	4313.61
427.90	4304.25
428.09	4294.88
428.28	4264.46
428.46	4383.82
428.65	4264.46
428.84	4255.09
429.03	4327.65
429.22	4070.19
429.40	4124.02
429.59	4381.48
429.78	4049.13
429.97	4044.45
430.16	4079.55
430.34	4222.33
430.53	4311.27
430.72	4393.19
430.91	4252.75
431.10	4531.28
431.28	4667.03
431.47	4772.35
431.66	4765.33
431.85	4620.22
432.03	4685.75
432.22	4774.69
432.41	4631.92
432.60	4657.67
432.79	4924.49
432.97	4901.08
433.16	4873.00
433.35	4746.61
433.54	4697.46
433.72	4812.14
433.91	4730.22
434.10	4931.51
434.28	5008.75
434.47	4894.06
434.66	5055.56
434.85	5149.18
435.03	5179.61
435.22	5200.67
435.41	5210.03
435.59	5245.14
435.78	5371.53
435.97	5259.18
436.16	5277.91
436.34	5390.25
436.53	5373.87
436.72	5408.98
436.90	5203.01
437.09	5210.03
437.28	5430.04
437.46	5371.53
437.65	5305.99
437.84	5420.68
438.02	5348.12
438.21	5359.83
438.40	5296.63
438.58	5614.95
438.77	5593.88
438.96	5638.35
439.14	5760.06
439.33	5888.79
439.52	5980.07
439.70	5832.62
439.89	5806.87
440.08	5846.66
440.26	5909.85
440.45	6043.26
440.63	6132.20
440.82	6146.25
441.01	6132.20
441.19	6183.70
441.38	6361.58
441.57	6429.45
441.75	6319.45
441.94	6494.99
442.12	6485.62
442.31	6642.44
442.50	6473.92
442.68	6406.05
442.87	6502.01
443.05	6431.79
443.24	6705.63
443.43	6572.22
443.61	6614.35
443.80	7000.54
443.98	6717.34
444.17	6476.26
444.35	6752.45
444.54	6906.92
444.73	6806.28
444.91	6574.56
445.10	6757.13
445.28	6712.66
445.47	6602.65
445.65	6710.32
445.84	6764.15
446.02	6787.55
446.21	6583.93
446.39	6705.63
446.58	6895.22
446.77	6944.37
446.95	6902.24
447.14	6937.35
447.32	7047.35
447.51	6885.86
447.69	6897.56
447.88	7145.66
448.06	6846.07
448.25	6841.39
448.43	7101.19
448.62	6803.94
448.80	6820.32
448.99	7084.80
449.17	7300.13
449.36	7045.01
449.54	7049.69
449.73	7283.75
449.91	7370.35
450.10	7311.83
450.28	7569.29
450.46	7513.12
450.65	7527.16
450.83	7332.90
451.02	7440.56
451.20	7351.62
451.39	7508.44
451.57	7606.74
451.76	7290.77
451.94	7508.44
452.13	7400.77
452.31	7346.94
452.49	7536.52
452.68	7506.10
452.86	7302.47
453.05	7520.14
453.23	7468.65
453.42	7353.96
453.60	7728.45
453.78	7843.14
453.97	7595.04
454.15	7758.88
454.34	7536.52
454.52	7786.96
454.70	7854.84
454.89	7803.35
455.07	7866.54
455.26	7992.93
455.44	7946.12
455.62	8077.19
455.81	7922.71
455.99	8072.51
456.17	8285.50
456.36	8145.06
456.54	8273.79
456.73	8163.79
456.91	8547.64
457.09	8484.44
457.28	8512.53
457.46	8231.66
457.64	8578.06
457.83	8283.16
458.01	8278.47
458.19	8430.61
458.38	8269.11
458.56	8418.91
458.74	8458.70
458.93	8557.00
459.11	8531.25
459.29	8568.70
459.48	8510.19
459.66	8531.25
459.84	8528.91
460.03	8954.89
460.21	8652.96
460.39	8767.65
460.57	8746.58
460.76	8868.29
460.94	9018.08
461.12	9015.74
461.31	8947.87
461.49	8912.76
461.67	9055.53
461.85	9139.79
462.04	8910.42
462.22	9376.19
462.40	9392.57
462.59	9259.16
462.77	9224.05
462.95	9287.25
463.13	9104.68
463.32	9011.06
463.50	9411.29
463.68	9460.45
463.86	9261.50
464.05	9114.05
464.23	9137.45
464.41	9394.91
464.59	9153.84
464.78	9666.41
464.96	9425.34
465.14	9217.03
465.32	9427.68
465.50	9685.14
465.69	9811.53
465.87	9565.77
466.05	9453.42
466.23	9287.25
466.41	9476.83
466.60	9535.34
466.78	9483.85
466.96	9486.19
467.14	9633.64
467.32	9790.46
467.51	9834.93
467.69	9467.47
467.87	9666.41
468.05	9811.53
468.23	9951.96
468.41	9724.93
468.60	9736.63
468.78	10036.22
468.96	9813.87
469.14	10043.24
469.32	10225.80
469.50	9832.59
469.69	9844.29
469.87	10155.58
470.05	10017.49
470.23	10036.22
470.41	9977.70
470.59	10267.93
470.77	10251.55
470.95	10265.59
471.14	10469.22
471.32	10300.70
471.50	10719.65
471.68	10693.91
471.86	10611.99
472.04	10810.93
472.22	10846.04
472.40	10602.63
472.58	10527.73
472.77	10850.72
472.95	10909.24
473.13	11330.53
473.31	10895.19
473.49	10934.98
473.67	11183.08
473.85	11171.38
474.03	11173.72
474.21	11391.39
474.39	11246.27
474.57	11330.53
474.75	11510.75
474.93	11468.62
475.12	11363.30
475.30	11604.38
475.48	11543.52
475.66	11782.26
475.84	11496.71
476.02	11494.37
476.20	11950.78
476.38	11896.94
476.56	12231.64
476.74	12161.42
476.92	12147.38
477.10	12217.60
477.28	12575.70
477.46	12526.55
477.64	12507.82
477.82	12798.05
478.00	12791.03
478.18	12823.80
478.36	13018.06
478.54	12964.23
478.72	13018.06
478.90	13310.63
479.08	13516.59
479.26	13715.54
479.44	13380.84
479.62	13516.59
479.80	13818.52
479.98	13965.98
480.16	14228.12
480.34	13678.09
480.52	14293.65
480.70	14200.03
480.88	14057.26
481.06	14457.49
481.24	14525.36
481.41	14682.18
481.59	14654.09
481.77	14878.79
481.95	14721.97
482.13	15110.50
482.31	14963.04
482.49	15538.82
482.67	15260.29
482.85	15447.54
483.03	15655.84
483.21	15573.92
483.39	16056.08
483.57	15541.16
483.74	15999.90
483.92	16044.37
484.10	15955.43
484.28	16432.90
484.46	16381.41
484.64	16837.81
484.82	16477.37
485.00	16711.42
485.18	16957.18
485.35	16828.45
485.53	16713.77
485.71	16372.05
485.89	16847.18
486.07	16774.62
486.25	17102.29
486.43	17523.59
486.61	17303.58
486.78	17680.41
486.96	17881.69
487.14	18118.09
487.32	18384.91
487.50	18731.31
487.68	18761.73
487.85	18918.55
488.03	19262.61
488.21	19033.24
488.39	19260.27
488.57	19075.37
488.75	19323.46
488.92	19414.74
489.10	19901.58
489.28	19964.77
489.46	20252.66
489.64	20166.06
489.81	20886.94
489.99	20699.70
490.17	21032.05
490.35	20893.96
490.53	20835.45
490.70	20816.72
490.88	20734.81
491.06	21443.99
491.24	21591.44
491.41	21256.75
491.59	21476.76
491.77	21404.20
491.95	21724.85
492.13	21994.01
492.30	22181.26
492.48	22438.72
492.66	22773.41
492.84	22560.42
493.01	22525.32
493.19	22977.04
493.37	22750.01
493.54	23180.67
493.72	23426.42
493.90	23077.68
494.08	23653.45
494.25	23800.91
494.43	24049.00
494.61	24023.26
494.79	24252.63
494.96	24037.30
495.14	24112.20
495.32	24594.35
495.49	24219.86
495.67	24383.70
495.85	24797.98
496.02	25097.56
496.20	24926.71
496.38	25305.87
496.55	25144.38
496.73	25823.13
496.91	25247.36
497.09	26008.03
497.26	25713.13
497.44	25853.56
497.62	25923.77
497.79	25975.27
497.97	26061.87
498.14	26082.93
498.32	26127.40
498.50	26630.62
498.67	26817.86
498.85	26789.77
499.03	27009.78
499.20	26972.33
499.38	27215.75
499.56	26778.07
499.73	27168.94
499.91	27255.54
500.08	27747.05
500.26	27194.68
500.44	27037.87
500.61	27594.92
500.79	27051.91
500.97	27311.71
501.14	27786.84
501.32	27749.39
501.49	27850.03
501.67	27601.94
501.84	28173.03
502.02	28123.88
502.20	28542.83
502.37	28591.98
502.55	28624.75
502.72	28601.35
502.90	28423.47
503.07	29060.09
503.25	29165.42
503.43	28893.91
503.60	28659.86
503.78	28856.46
503.95	28767.52
504.13	29198.18
504.30	29661.61
504.48	29310.53
504.65	29876.94
504.83	29996.31
505.01	30127.38
505.18	29872.26
505.36	29886.30
505.53	30354.41
505.71	30747.62
505.88	30651.66
506.06	30576.76
506.23	30471.43
506.41	30228.02
506.58	30569.74
506.76	30789.75
506.93	30822.51
507.11	30522.93
507.28	31103.38
507.46	30749.96
507.63	31115.08
507.81	30923.16
507.98	31030.82
508.16	31056.57
508.33	31571.49
508.50	31264.88
508.68	31747.03
508.85	32180.03
509.03	31592.55
509.20	31868.73
509.38	31999.80
509.55	32311.10
509.73	31969.38
509.90	32151.94
510.08	32067.68
510.25	32053.64
510.42	32226.84
510.60	32875.16
510.77	33106.88
510.95	33046.02
511.12	32797.93
511.30	33048.36
511.47	32795.59
511.64	33174.75
511.82	33338.59
511.99	33036.66
512.17	33104.54
512.34	33055.39
512.51	33521.15
512.69	33567.96
512.86	33504.77
513.04	33806.70
513.21	34022.03
513.38	33839.47
513.56	33654.56
513.73	33476.68
513.90	34087.56
514.08	33521.15
514.25	33970.54
514.43	33975.22
514.60	33928.41
514.77	33914.36
514.95	34614.18
515.12	34501.84
515.29	34815.47
515.47	35126.76
515.64	34878.66
515.81	34398.85
515.99	34696.10
516.16	34431.62
516.33	33979.90
516.51	34101.61
516.68	33710.74
516.85	33996.28
517.03	34132.03
517.20	34864.62
517.37	34885.68
517.54	35147.82
517.72	34937.18
517.89	34492.47
518.06	34834.19
518.24	35278.89
518.41	35072.93
518.58	35316.34
518.75	35463.80
518.93	35690.83
519.10	35475.50
519.27	36105.10
519.45	35983.40
519.62	36257.24
519.79	36182.34
519.96	36830.67
520.14	36584.91
520.31	36144.89
520.48	36676.19
520.65	36400.01
520.83	36858.76
521.00	36659.81
521.17	37024.93
521.34	36952.38
521.52	36821.31
521.69	36854.08
521.86	37088.13
522.03	37298.78
522.20	36907.91
522.38	37376.01
522.55	37383.04
522.72	37476.66
522.89	37516.45
523.07	37336.23
523.24	37659.22
523.41	38043.07
523.58	37780.93
523.75	38501.81
523.92	37790.29
524.10	38141.37
524.27	38396.49
524.44	37755.18
524.61	38593.09
524.78	38181.16
524.96	38443.30
525.13	38380.10
525.30	38834.17
525.47	38782.68
525.64	38955.88
525.81	38476.07
525.98	38094.56
526.16	38225.63
526.33	37970.51
526.50	38466.70
526.67	37633.47
526.84	38143.71
527.01	38169.46
527.18	39171.21
527.36	38834.17
527.53	39096.31
527.70	39255.46
527.87	39201.63
528.04	39400.58
528.21	39566.76
528.38	39367.81
528.55	39754.00
528.72	39814.85
528.89	40105.08
529.07	39627.61
529.24	39695.49
529.41	39910.82
529.58	40030.18
529.75	39627.61
529.92	39604.20
530.09	40058.27
530.26	39983.37
530.43	40137.85
530.60	39786.77
530.77	40268.92
530.94	40353.18
531.11	40289.98
531.28	40341.47
531.46	40395.31
531.63	40418.71
531.80	40208.06
531.97	40404.67
532.14	40601.27
532.31	40079.33
532.48	39924.86
532.65	40439.78
532.82	40528.72
532.99	40814.26
533.16	40240.83
533.33	41385.35
533.50	41394.71
533.67	40961.72
533.84	40545.10
534.01	41305.77
534.18	41036.61
534.35	41521.10
534.52	41251.94
534.69	41490.68
534.86	41319.82
535.03	41450.89
535.20	41874.52
535.37	41427.48
535.54	41769.20
535.71	41404.08
535.88	42038.36
536.05	41598.34
536.22	41670.90
536.38	41736.43
536.55	41797.29
536.72	41708.35
536.89	41947.08
537.06	42038.36
537.23	41783.24
537.40	41808.99
537.57	41619.41
537.74	42141.35
537.91	42092.19
538.08	42230.29
538.25	41897.93
538.42	42146.03
538.59	42012.62
538.75	42026.66
538.92	41911.97
539.09	42202.20
539.26	42344.97
539.43	42054.75
539.60	42216.24
539.77	41949.42
539.94	42506.47
540.11	42363.70
540.28	42237.31
540.44	42363.70
540.61	42197.52
540.78	41918.99
540.95	42462.00
541.12	42234.97
541.29	42389.44
541.46	42515.83
541.62	42356.67
541.79	42691.37
541.96	42480.72
542.13	42909.04
542.30	42445.62
542.47	43103.31
542.63	42876.27
542.80	43026.07
542.97	43683.76
543.14	43924.83
543.31	43400.55
543.48	43363.11
543.64	44130.80
543.81	43810.15
543.98	44245.49
544.15	43508.22
544.32	43784.40
544.48	44091.01
544.65	43969.30
544.82	44011.43
544.99	43711.84
545.16	43728.23
545.32	43639.29
545.49	44067.61
545.66	44334.43
545.83	44383.58
546.00	44201.02
546.16	44091.01
546.33	44034.84
546.50	43620.56
546.67	44348.47
546.83	43770.36
547.00	44243.15
547.17	44083.99
547.34	44292.30
547.50	44673.81
547.67	44383.58
547.84	44161.23
548.00	44509.97
548.17	44378.90
548.34	44823.60
548.51	44912.54
548.67	44662.10
548.84	44851.69
549.01	44580.18
549.18	44327.41
549.34	44802.53
549.51	44947.65
549.68	44552.10
549.84	44676.15
550.01	45109.14
550.18	44992.12
550.34	45116.17
550.51	45256.60
550.68	44687.85
550.84	44451.45
551.01	44919.56
551.18	45270.64
551.34	44903.18
551.51	45078.72
551.68	45287.03
551.84	45270.64
552.01	44959.35
552.18	45233.19
552.34	44720.62
552.51	44917.22
552.68	44893.82
552.84	45031.91
553.01	45713.00
553.18	45603.00
553.34	44928.92
553.51	44914.88
553.67	45244.90
553.84	45619.38
554.01	45930.67
554.17	45441.50
554.34	46024.29
554.51	45771.52
554.67	45755.13
554.84	45619.38
555.00	45544.48
555.17	45439.16
555.33	45691.94
555.50	45567.89
555.67	45411.07
555.83	45727.05
556.00	45661.51
556.16	45902.59
556.33	46057.06
556.50	45514.06
556.66	45354.90
556.83	45415.76
556.99	46160.05
557.16	45710.66
557.32	45972.80
557.49	45717.68
557.65	45371.28
557.82	45588.95
557.98	46204.52
558.15	45743.43
558.32	46021.95
558.48	45916.63
558.65	45621.72
558.81	45567.89
558.98	45455.54
559.14	46003.23
559.31	46174.09
559.47	45984.51
559.64	46349.63
559.80	46043.02
559.97	45762.15
560.13	45790.24
560.30	45862.80
560.46	46061.74
560.63	45956.42
560.79	46286.43
560.96	46190.47
561.12	46511.13
561.29	46129.62
561.45	46171.75
561.61	46337.93
561.78	46426.87
561.94	45975.14
562.11	46087.49
562.27	46099.19
562.44	46518.15
562.60	46478.36
562.77	46157.70
562.93	46146.00
563.10	46216.22
563.26	45916.63
563.42	46546.23
563.59	46202.18
563.75	46494.74
563.92	46270.05
564.08	46665.60
564.24	46080.47
564.41	46321.54
564.57	46492.40
564.74	46422.19
564.90	46480.70
565.07	46637.51
565.23	46518.15
565.39	46153.02
565.56	46373.03
565.72	46199.83
565.88	46667.94
566.05	46309.84
566.21	46337.93
566.38	46394.10
566.54	46607.09
566.70	46843.48
566.87	47072.85
567.03	46927.74
567.19	47096.26
567.36	46693.69
567.52	46541.55
567.68	46644.54
567.85	46745.18
568.01	46586.02
568.17	46263.03
568.34	46813.05
568.50	46656.24
568.66	46141.32
568.83	46770.93
568.99	46314.52
569.15	46553.26
569.32	46808.37
569.48	46117.92
569.64	47152.43
569.81	46181.11
569.97	46494.74
570.13	46450.27
570.30	46230.26
570.46	46197.49
570.62	46309.84
570.78	46185.79
570.95	46351.97
571.11	46721.77
571.27	46759.22
571.43	46576.66
571.60	46632.83
571.76	46770.93
571.92	46656.24
572.09	46791.99
572.25	46894.97
572.41	46651.56
572.57	46696.03
572.74	47337.33
572.90	46997.96
573.06	46791.99
573.22	46618.79
573.38	46714.75
573.55	46487.72
573.71	46719.43
573.87	46571.98
574.03	46436.23
574.20	46880.93
574.36	47044.77
574.52	46733.48
574.68	46827.10
574.84	46703.05
575.01	47201.58
575.17	46777.95
575.33	46838.80
575.49	46204.52
575.65	46527.51
575.82	46827.10
575.98	46618.79
576.14	46967.53
576.30	46756.88
576.46	46834.12
576.62	46953.49
576.79	46916.04
576.95	46639.86
577.11	46728.80
577.27	46911.36
577.43	46918.38
577.59	46646.88
577.75	46948.81
577.92	46480.70
578.08	46885.61
578.24	46749.86
578.40	46527.51
578.56	46747.52
578.72	46700.71
578.88	47171.16
579.04	46864.55
579.21	46756.88
579.37	46560.28
579.53	47192.22
579.69	46841.14
579.85	46651.56
580.01	46747.52
580.17	46965.19
580.33	46522.83
580.49	47206.26
580.65	47173.50
580.82	46972.21
580.98	46796.67
581.14	46560.28
581.30	46857.52
581.46	46820.08
581.62	47138.39
581.78	46719.43
581.94	47271.80
582.10	46555.60
582.26	46571.98
582.42	46658.58
582.58	46710.07
582.74	47122.01
582.90	47201.58
583.06	47552.66
583.22	47143.07
583.38	47505.85
583.54	47309.25
583.70	46810.71
583.86	47213.29
584.02	46653.90
584.18	47334.99
584.34	47164.14
584.50	46719.43
584.66	47089.24
584.82	46731.14
584.98	47021.36
585.14	47100.94
585.30	47033.07
585.46	46770.93
585.62	47224.99
585.78	47185.20
585.94	46527.51
586.10	47004.98
586.26	47026.04
586.42	47297.55
586.58	47437.98
586.74	46967.53
586.90	47356.06
587.06	46501.76
587.22	46909.02
587.38	46384.74
587.54	47068.17
587.70	47114.98
587.86	47208.61
588.02	47004.98
588.18	47304.57
588.34	46838.80
588.49	46258.35
588.65	46040.68
588.81	46316.86
588.97	46733.48
589.13	46630.49
589.29	46309.84
589.45	46366.01
589.61	46927.74
589.77	46768.58
589.93	47107.96
590.08	46810.71
590.24	46880.93
590.40	47124.35
590.56	47126.69
590.72	47086.90
590.88	46845.82
591.04	46969.87
591.20	47393.51
591.35	47014.34
591.51	47374.78
591.67	47037.75
591.83	47145.41
591.99	47012.00
592.15	46981.57
592.31	47035.41
592.46	46916.04
592.62	47168.82
592.78	47105.62
592.94	47206.26
593.10	47082.22
593.26	46986.25
593.41	46979.23
593.57	47122.01
593.73	46990.94
593.89	47377.12
594.05	47012.00
594.20	46663.26
594.36	47384.15
594.52	47040.09
594.68	46799.01
594.84	46979.23
594.99	47206.26
595.15	47068.17
595.31	47220.31
595.47	46705.39
595.62	47098.60
595.78	47210.95
595.94	47576.07
596.10	46986.25
596.25	47316.27
596.41	47276.48
596.57	47035.41
596.73	47583.09
596.88	46808.37
597.04	47241.37
597.20	47136.05
597.36	47452.02
597.51	47175.84
597.67	47405.21
597.83	47180.52
597.99	47454.36
598.14	47063.49
598.30	47082.22
598.46	47072.85
598.61	46983.91
598.77	46775.61
598.93	47110.30
599.09	47086.90
599.24	47709.48
599.40	47147.75
599.56	47339.68
599.71	47152.43
599.87	47374.78
600.03	47395.85
600.18	47402.87
600.34	47082.22
600.50	47072.85
600.65	46906.68
600.81	47334.99
600.97	47224.99
601.12	47208.61
601.28	47316.27
601.44	46803.69
601.59	46993.28
601.75	46433.89
601.91	46824.76
602.06	46539.21
602.22	46632.83
602.37	47454.36
602.53	46806.03
602.69	47327.97
602.84	46815.40
603.00	46822.42
603.16	46543.89
603.31	47004.98
603.47	46817.74
603.62	46909.02
603.78	47288.18
603.94	47353.72
604.09	47061.15
604.25	47248.39
604.40	47185.20
604.56	47201.58
604.71	47026.04
604.87	46958.17
605.03	46665.60
605.18	46789.65
605.34	46878.59
605.49	46541.55
605.65	46988.60
605.80	47180.52
605.96	46997.96
606.12	47133.71
606.27	47079.88
606.43	47217.97
606.58	47019.02
606.74	46621.13
606.89	47021.36
607.05	47056.47
607.20	47140.73
607.36	46576.66
607.51	47157.11
607.67	46899.65
607.82	46721.77
607.98	46850.50
608.13	46536.87
608.29	46944.12
608.44	46557.94
608.60	46351.97
608.75	46817.74
608.91	46794.33
609.06	46319.20
609.22	46663.26
609.37	46639.86
609.53	46658.58
609.68	46380.06
609.84	46536.87
609.99	46153.02
610.15	46321.54
610.30	46487.72
610.46	46457.29
610.61	46454.95
610.76	46167.07
610.92	46639.86
611.07	46424.53
611.23	46504.10
611.38	46295.80
611.54	46511.13
611.69	46373.03
611.84	45961.10
612.00	46136.64
612.15	46307.50
612.31	46256.01
612.46	45832.37
612.62	46227.92
612.77	46115.58
612.92	46447.93
613.08	46099.19
613.23	45935.35
613.39	46131.96
613.54	45972.80
613.69	46057.06
613.85	45748.11
614.00	45628.74
614.15	46412.82
614.31	46169.41
614.46	46366.01
614.62	45900.25
614.77	45993.87
614.92	45996.21
615.08	45841.73
615.23	45544.48
615.38	45392.35
615.54	45572.57
615.69	45340.86
615.84	45762.15
616.00	45876.84
616.15	45507.04
616.30	45738.75
616.46	45429.80
616.61	45500.01
616.76	45015.52
616.92	45076.38
617.07	45256.60
617.22	45357.24
617.37	45167.66
617.53	45141.91
617.68	45570.23
617.83	45474.27
617.99	45528.10
618.14	45565.55
618.29	45284.68
618.45	45015.52
618.60	44739.34
618.75	45432.14
618.90	45844.07
619.06	45237.87
619.21	45380.65
619.36	45195.74
619.51	45516.40
619.67	45090.42
619.82	45698.96
619.97	45443.84
620.12	44814.24
620.28	44825.94
620.43	44772.11
620.58	44706.57
620.73	44758.06
620.89	45062.33
621.04	44910.20
621.19	44680.83
621.34	44971.05
621.49	44849.35
621.65	44821.26
621.80	44751.04
621.95	44786.15
622.10	44589.55
622.25	44315.70
622.41	44032.50
622.56	44311.02
622.71	44758.06
622.86	44896.16
623.01	44348.47
623.16	44411.67
623.32	44371.88
623.47	44713.59
623.62	44215.06
623.77	43786.74
623.92	44416.35
624.07	44313.36
624.23	43988.03
624.38	44060.58
624.53	43814.83
624.68	44229.10
624.83	44088.67
624.98	43833.55
625.13	43824.19
625.29	43782.06
625.44	44037.18
625.59	43922.49
625.74	43573.75
625.89	43349.06
626.04	43339.70
626.19	44091.01
626.34	44027.82
626.49	43856.96
626.65	43653.33
626.80	44112.08
626.95	43908.45
627.10	43856.96
627.25	43613.54
627.40	43674.40
627.55	43063.52
627.70	43056.50
627.85	42810.74
628.00	43203.95
628.15	43335.02
628.30	42885.64
628.45	43548.01
628.60	43384.17
628.76	43400.55
628.91	43564.39
629.06	43452.05
629.21	42831.80
629.36	43122.03
629.51	42768.61
629.66	42988.62
629.81	43012.02
629.96	42747.54
630.11	43283.53
630.26	43145.44
630.41	43372.47
630.56	43203.95
630.71	42742.86
630.86	43063.52
631.01	42588.39
631.16	42792.01
631.31	42499.45
631.46	42267.73
631.61	42794.36
631.76	42710.10
631.91	42663.28
632.06	42504.13
632.21	43395.87
632.36	42796.70
632.51	42600.09
632.66	42621.16
632.81	42480.72
632.96	42749.88
633.10	42450.30
633.25	42492.43
633.40	42209.22
633.55	43133.73
633.70	42113.26
633.85	42265.39
634.00	42099.22
634.15	42508.81
634.30	42422.21
634.45	42454.98
634.60	42099.22
634.75	42642.22
634.90	42333.27
635.05	42330.93
635.19	41567.91
635.34	42291.14
635.49	41998.57
635.64	41874.52
635.79	42094.53
635.94	41837.08
636.09	41659.20
636.24	41656.85
636.39	41691.96
636.53	42082.83
636.68	41443.87
636.83	41663.88
636.98	41792.61
637.13	41558.55
637.28	41684.94
637.43	41879.21
637.57	41612.38
637.72	41979.85
637.87	41333.86
638.02	41104.49
638.17	41844.10
638.32	41907.29
638.46	41638.13
638.61	41921.34
638.76	41673.24
638.91	41263.64
639.06	41542.17
639.20	41666.22
639.35	41736.43
639.50	41139.60
639.65	41839.42
639.80	41223.86
639.94	41219.17
640.09	41155.98
640.24	41242.58
640.39	41027.25
640.54	41045.97
640.68	40926.61
640.83	41134.92
640.98	40765.11
641.13	40772.13
641.27	41249.60
641.42	41053.00
641.57	40985.12
641.72	41221.52
641.86	40580.21
642.01	40439.78
642.16	40802.56
642.31	40289.98
642.45	40854.05
642.60	40545.10
642.75	40900.86
642.90	40727.66
643.04	40928.95
643.19	40615.32
643.34	40952.35
643.48	40554.46
643.63	40664.47
643.78	40121.46
643.93	40580.21
644.07	40067.63
644.22	40179.98
644.37	39903.79
644.51	40184.66
644.66	40678.51
644.81	40730.00
644.95	40730.00
645.10	40397.65
645.25	40416.37
645.39	40257.21
645.54	40243.17
645.69	40121.46
645.83	40142.53
645.98	40437.44
646.13	40346.15
646.27	40245.51
646.42	40414.03
646.57	39828.90
646.71	40076.99
646.86	39866.34
647.00	40594.25
647.15	39871.03
647.30	39983.37
647.44	39875.71
647.59	39913.16
647.74	39758.68
647.88	39899.11
648.03	39597.18
648.17	39819.53
648.32	39974.01
648.47	39566.76
648.61	39309.30
648.76	39620.59
648.90	39618.25
649.05	39201.63
649.20	40002.10
649.34	39512.92
649.49	38976.94
649.63	39433.35
649.78	39100.99
649.92	39269.51
650.07	39765.70
650.21	39470.79
650.36	39330.36
650.51	39756.34
650.65	40198.70
650.80	39992.73
650.94	39756.34
651.09	39145.46
651.23	39435.69
651.38	39306.96
651.52	39255.46
651.67	39063.54
651.81	39290.57
651.96	38855.23
652.10	39030.77
652.25	39260.15
652.39	39356.11
652.54	39210.99
652.68	38850.55
652.83	38787.36
652.97	38995.67
653.12	39180.57
653.26	38916.09
653.41	38169.46
653.55	38574.37
653.70	38459.68
653.84	38817.78
653.99	39030.77
654.13	38611.82
654.27	38352.02
654.42	38188.18
654.56	37942.42
654.71	38871.62
654.85	39100.99
655.00	38719.48
655.14	38314.57
655.29	37762.20
655.43	38010.30
655.57	37933.06
655.72	37584.32
655.86	37598.37
656.01	37879.23
656.15	37434.53
656.30	38092.22
656.44	37886.25
656.58	37811.35
656.73	37584.32
656.87	38099.24
657.01	38256.06
657.16	38401.17
657.30	37560.92
657.45	37488.36
657.59	37448.57
657.73	37942.42
657.88	38087.54
658.02	38047.75
658.16	38410.53
658.31	37996.26
658.45	37947.11
658.60	37944.76
658.74	37968.17
658.88	38073.49
659.03	37387.72
659.17	37460.27
659.31	37518.79
659.46	37287.07
659.60	37490.70
659.74	37783.27
659.89	37219.20
660.03	36964.08
660.17	37748.16
660.32	37298.78
660.46	37312.82
660.60	36978.12
660.74	37546.87
660.89	37228.56
661.03	36737.05
661.17	36971.10
661.32	36608.32
661.46	36919.61
661.60	36620.02
661.74	36636.41
661.89	36884.50
662.03	36828.33
662.17	36528.74
662.31	36388.31
662.46	36868.12
662.60	36783.86
662.74	36282.98
662.88	36222.13
663.03	36060.63
663.17	36168.30
663.31	35938.93
663.45	36013.82
663.60	36584.91
663.74	36154.26
663.88	36210.43
664.02	35683.81
664.17	36297.03
664.31	36095.74
664.45	35742.32
664.59	35782.11
664.73	35505.93
664.88	35548.06
665.02	35297.62
665.16	35463.80
665.30	35653.38
665.44	35349.11
665.59	35587.85
665.73	35187.61
665.87	35180.59
666.01	35098.67
666.15	35220.38
666.29	35318.68
666.44	35211.02
666.58	34728.87
666.72	34932.50
666.86	35164.21
667.00	34941.86
667.14	34668.02
667.28	34710.14
667.43	34693.76
667.57	34775.68
667.71	34696.10
667.85	34494.82
667.99	34466.73
668.13	34129.69
668.27	34239.70
668.41	34813.13
668.56	34260.76
668.70	34440.98
668.84	34356.72
668.98	33879.25
669.12	33928.41
669.26	33975.22
669.40	34026.71
669.54	33750.52
669.68	33961.17
669.82	33591.37
669.96	33755.21
670.10	33209.86
670.25	33481.36
670.39	33551.58
670.53	33605.41
670.67	33120.92
670.81	33504.77
670.95	33420.51
671.09	33652.22
671.23	33120.92
671.37	33111.56
671.51	33069.43
671.65	33305.82
671.79	32912.61
671.93	32868.14
672.07	33282.42
672.21	32959.42
672.35	32287.69
672.49	33069.43
672.63	32692.60
672.77	32868.14
672.91	32430.46
673.05	32439.82
673.19	32306.41
673.33	32278.33
673.47	32032.57
673.61	32477.27
673.75	32034.91
673.89	31618.30
674.03	31253.17
674.17	31824.26
674.31	31447.44
674.45	31751.71
674.59	31732.98
674.73	31754.05
674.87	31402.97
675.01	30981.67
675.15	31374.88
675.29	31538.72
675.43	31199.34
675.56	31283.60
675.70	31058.91
675.84	30696.13
675.98	30019.71
676.12	31234.45
676.26	31110.40
676.40	30827.20
676.54	30773.36
676.68	30808.47
676.82	30129.72
676.96	30361.43
677.10	30345.05
677.23	30232.70
677.37	30125.04
677.51	29972.90
677.65	29848.85
677.79	29790.34
677.93	29862.90
678.07	29371.38
678.21	29364.36
678.34	29563.31
678.48	29095.20
678.62	29165.42
678.76	28730.08
678.90	28788.59
679.04	28584.96
679.18	28800.29
679.31	28484.32
679.45	28622.41
679.59	28479.64
679.73	28591.98
679.87	28355.59
680.00	28135.58
680.14	28084.09
680.28	28428.15
680.42	28072.39
680.56	28051.32
680.70	28180.05
680.83	28254.95
680.97	27850.03
681.11	27826.63
681.25	27580.87
681.39	27695.56
681.52	27623.00
681.66	27349.16
681.80	27339.80
681.94	27620.66
682.07	27501.29
682.21	27197.02
682.35	26911.48
682.49	26981.70
682.62	26757.00
682.76	26719.56
682.90	26808.50
683.04	26562.74
683.17	26267.83
683.31	26162.51
683.45	26122.72
683.59	26150.81
683.72	26015.05
683.86	25986.97
684.00	26068.89
684.13	25930.80
684.27	25612.48
684.41	25642.91
684.55	25404.17
684.68	25453.33
684.82	25350.34
684.96	25600.78
685.09	25104.59
685.23	25535.24
685.37	25062.46
685.50	24893.94
685.64	24919.68
685.78	24753.51
685.91	24505.41
686.05	24666.91
686.19	24400.08
686.32	24269.01
686.46	23929.64
686.60	23646.43
686.73	23545.79
686.87	23225.14
687.01	23208.75
687.14	23370.25
687.28	23154.92
687.42	23358.55
687.55	23461.53
687.69	23513.02
687.82	23241.52
687.96	23253.22
688.10	23136.20
688.23	23047.26
688.37	22623.62
688.50	22607.23
688.64	22852.99
688.78	22951.29
688.91	22625.96
689.05	22644.68
689.18	22745.33
689.32	22415.31
689.46	22600.21
689.59	22209.34
689.73	22232.75
689.86	22513.61
690.00	21872.31
690.13	22005.72
690.27	21802.09
690.41	21818.47
690.54	21596.12
690.68	21439.31
690.81	21614.85
690.95	21558.67
691.08	21341.00
691.22	21462.71
691.35	21193.55
691.49	21406.54
691.62	21139.72
691.76	21308.24
691.89	21216.96
692.03	20767.57
692.16	21027.37
692.30	20559.27
692.43	20798.00
692.57	20521.82
692.70	20507.77
692.84	20395.43
692.97	20025.62
693.11	19833.70
693.24	20114.56
693.38	19847.74
693.51	19812.63
693.65	20318.19
693.78	19988.18
693.92	19920.30
694.05	19810.29
694.19	19564.54
694.32	19704.97
694.45	19499.00
694.59	19353.89
694.72	18974.72
694.86	19225.16
694.99	19208.78
695.13	19239.20
695.26	19012.17
695.39	18946.64
695.53	19033.24
695.66	18768.76
695.80	18941.96
695.93	18661.09
696.07	18595.56
696.20	18462.15
696.33	18246.82
696.47	18513.64
696.60	18352.14
696.73	18164.90
696.87	18012.76
697.00	17989.36
697.14	18190.64
697.27	17671.04
697.40	17949.57
697.54	17727.22
697.67	17481.46
697.80	17565.72
697.94	17146.76
698.07	17418.27
698.21	17322.30
698.34	17352.73
698.47	16980.59
698.61	16858.88
698.74	16908.03
698.87	16875.26
699.01	16365.03
699.14	16791.00
699.27	16608.44
699.40	16458.65
699.54	16336.94
699.67	16367.37
699.80	16706.74
699.94	16231.62
700.07	16339.28
700.20	16063.10
700.34	16257.36
700.47	16009.26
700.60	16248.00
700.73	16168.42
700.87	15822.02
701.00	16044.37
701.13	15810.32
701.26	15604.35
701.40	15714.36
701.53	15492.01
701.66	15503.71
701.79	15246.25
701.93	15412.43
702.06	15353.91
702.19	15183.06
702.32	15250.93
702.46	14785.16
702.59	14920.92
702.72	15108.16
702.85	14911.55
702.99	14934.96
703.12	14864.74
703.25	14527.71
703.38	14714.95
703.51	14349.82
703.65	14745.38
703.78	14469.19
703.91	14427.06
704.04	14422.38
704.17	14277.27
704.31	14406.00
704.44	13998.74
704.57	14143.86
704.70	13860.65
704.83	14045.55
704.96	14061.94
705.10	14075.98
705.23	13851.29
>>>>>End Processed Spectral Data<<<<<
