SpectraSuite Data File
++++++++++++++++++++++++++++++++++++
Date: Fri Oct 25 10:44:09 EDT 2013
User: price-jones
Dark Spectrum Present: No
Reference Spectrum Present: No
Number of Sampled Component Spectra: 1
Spectrometers: USB2+H05261
Integration Time (usec): 100000 (USB2+H05261)
Spectra Averaged: 1 (USB2+H05261)
Boxcar Smoothing: 0 (USB2+H05261)
Correct for Electrical Dark: No (USB2+H05261)
Strobe/Lamp Enabled: No (USB2+H05261)
Correct for Detector Non-linearity: No (USB2+H05261)
Correct for Stray Light: No (USB2+H05261)
Number of Pixels in Processed Spectrum: 2048
>>>>>Begin Processed Spectral Data<<<<<
365.73	133.41
365.92	133.41
366.12	133.41
366.32	35.11
366.52	37.45
366.72	25.75
366.91	65.54
367.11	0.00
367.31	7.02
367.51	7.02
367.70	51.49
367.90	35.11
368.10	11.70
368.30	28.09
368.49	53.83
368.69	9.36
368.89	30.43
369.09	32.77
369.28	60.85
369.48	23.41
369.68	65.54
369.87	138.09
370.07	98.30
370.27	152.13
370.47	194.26
370.66	414.27
370.86	409.59
371.06	451.72
371.25	465.77
371.45	500.87
371.65	496.19
371.84	470.45
372.04	554.71
372.24	514.92
372.44	531.30
372.63	449.38
372.83	503.22
373.03	519.60
373.22	489.17
373.42	475.13
373.62	519.60
373.81	566.41
374.01	531.30
374.21	491.51
374.40	526.62
374.60	573.43
374.79	533.64
374.99	566.41
375.19	596.84
375.38	615.56
375.58	514.92
375.78	657.69
375.97	543.00
376.17	650.67
376.37	568.75
376.56	690.46
376.76	641.31
376.95	681.10
377.15	657.69
377.35	697.48
377.54	641.31
377.74	692.80
377.93	620.24
378.13	580.45
378.33	603.86
378.52	718.54
378.72	648.33
378.91	711.52
379.11	629.60
379.31	608.54
379.50	622.58
379.70	706.84
379.89	706.84
380.09	648.33
380.28	653.01
380.48	730.25
380.68	704.50
380.87	645.99
381.07	748.97
381.26	669.39
381.46	699.82
381.65	751.31
381.85	748.97
382.04	739.61
382.24	645.99
382.43	739.61
382.63	748.97
382.83	739.61
383.02	770.04
383.22	704.50
383.41	650.67
383.61	770.04
383.80	744.29
384.00	676.41
384.19	788.76
384.39	786.42
384.58	760.67
384.78	805.14
384.97	739.61
385.17	744.29
385.36	702.16
385.56	730.25
385.75	748.97
385.95	777.06
386.14	868.34
386.34	760.67
386.53	833.23
386.72	835.57
386.92	926.85
387.11	847.27
387.31	875.36
387.50	842.59
387.70	915.15
387.89	978.34
388.09	866.00
388.28	976.00
388.48	891.74
388.67	901.11
388.86	983.02
389.06	929.19
389.25	961.96
389.45	1067.28
389.64	978.34
389.84	987.71
390.03	1046.22
390.22	926.85
390.42	966.64
390.61	978.34
390.81	1095.37
391.00	1081.33
391.19	1130.48
391.39	1071.97
391.58	1142.18
391.78	1078.99
391.97	1050.90
392.16	1069.62
392.36	1053.24
392.55	1013.45
392.75	1034.52
392.94	919.83
393.13	952.60
393.33	1053.24
393.52	992.39
393.71	1137.50
393.91	1107.07
394.10	1130.48
394.29	1144.52
394.49	1118.78
394.68	1275.59
394.88	1193.67
395.07	1233.46
395.26	1268.57
395.46	1167.93
395.65	1172.61
395.84	1268.57
396.04	1266.23
396.23	1156.22
396.42	1167.93
396.62	1198.35
396.81	1179.63
397.00	1163.25
397.19	1228.78
397.39	1373.89
397.58	1357.51
397.77	1322.40
397.97	1390.28
398.16	1380.92
398.35	1453.47
398.55	1406.66
398.74	1514.33
398.93	1519.01
399.12	1427.73
399.32	1476.88
399.51	1516.67
399.70	1619.65
399.90	1455.81
400.09	1633.69
400.28	1593.90
400.47	1584.54
400.67	1652.42
400.86	1654.76
401.05	1678.16
401.24	1650.08
401.44	1710.93
401.63	1762.42
401.82	1757.74
402.01	1717.95
402.21	1671.14
402.40	1598.59
402.59	1694.55
402.78	1715.61
402.97	1750.72
403.17	1884.13
403.36	1776.47
403.55	1886.47
403.74	1832.64
403.93	1788.17
404.13	1825.62
404.32	1746.04
404.51	1851.36
404.70	1867.75
404.89	1970.73
405.09	1959.03
405.28	1849.02
405.47	1825.62
405.66	1928.60
405.85	2059.67
406.05	1968.39
406.24	2005.84
406.43	1973.07
406.62	2101.80
406.81	2136.91
407.00	2050.31
407.20	2005.84
407.39	2087.76
407.58	2211.81
407.77	2190.74
407.96	2256.28
408.15	2277.34
408.34	2139.25
408.54	2258.62
408.73	2272.66
408.92	2335.85
409.11	2221.17
409.30	2284.36
409.49	2197.76
409.68	2263.30
409.87	2352.24
410.07	2361.60
410.26	2319.47
410.45	2370.96
410.64	2499.69
410.83	2471.61
411.02	2478.63
411.21	2509.05
411.40	2527.78
411.59	2597.99
411.78	2644.81
411.98	2565.23
412.17	2492.67
412.36	2672.89
412.55	2696.30
412.74	2771.19
412.93	2766.51
413.12	2731.41
413.31	2904.60
413.50	2820.35
413.69	2813.32
413.88	3000.57
414.07	2918.65
414.26	2925.67
414.45	3014.61
414.64	2916.31
414.83	3007.59
415.02	3047.38
415.22	2986.52
415.41	3129.30
415.60	3131.64
415.79	3185.47
415.98	3269.73
416.17	3173.77
416.36	3295.47
416.55	3204.19
416.74	3262.71
416.93	3150.36
417.12	3204.19
417.31	3330.58
417.50	3290.79
417.69	3375.05
417.88	3412.50
418.07	3421.86
418.26	3368.03
418.45	3482.72
418.64	3538.89
418.83	3517.83
419.02	3375.05
419.21	3653.58
419.39	3585.70
419.58	3456.97
419.77	3756.56
419.96	3653.58
420.15	3684.00
420.34	3627.83
420.53	3728.47
420.72	3756.56
420.91	3868.91
421.10	3735.50
421.29	3922.74
421.48	3812.73
421.67	3878.27
421.86	3763.58
422.05	3871.25
422.24	3751.88
422.43	3817.41
422.61	3768.26
422.80	3857.20
422.99	3885.29
423.18	3920.40
423.37	3859.54
423.56	3805.71
423.75	3915.72
423.94	4065.51
424.13	3672.30
424.32	3754.22
424.50	3946.14
424.69	4021.04
424.88	3932.10
425.07	3915.72
425.26	3911.04
425.45	3847.84
425.64	4046.79
425.83	3995.29
426.01	4196.58
426.20	3976.57
426.39	4007.00
426.58	3964.87
426.77	3754.22
426.96	3899.33
427.15	3819.75
427.33	4088.92
427.52	3990.61
427.71	4212.96
427.90	4170.83
428.09	4236.37
428.28	4060.83
428.46	4098.28
428.65	4117.00
428.84	4273.82
429.03	4245.73
429.22	4152.11
429.40	4138.07
429.59	4021.04
429.78	3803.37
429.97	4070.19
430.16	3988.27
430.34	3971.89
430.53	4248.07
430.72	4315.95
430.91	4133.39
431.10	4367.44
431.28	4402.55
431.47	4596.81
431.66	4592.13
431.85	4484.47
432.03	4624.90
432.22	4697.46
432.41	4692.77
432.60	4709.16
432.79	4709.16
432.97	4645.96
433.16	4812.14
433.35	4578.09
433.54	4704.48
433.72	4643.62
433.91	4430.63
434.10	4732.56
434.28	4606.17
434.47	4823.84
434.66	4919.81
434.85	4966.62
435.03	4821.50
435.22	5022.79
435.41	5064.92
435.59	4980.66
435.78	5116.41
435.97	5268.55
436.16	5142.16
436.34	4990.02
436.53	5085.98
436.72	5071.94
436.90	5118.75
437.09	5188.97
437.28	5205.35
437.46	5142.16
437.65	5111.73
437.84	5088.32
438.02	5313.02
438.21	5146.84
438.40	5109.39
438.58	5254.50
438.77	5369.19
438.96	5448.77
439.14	5636.01
439.33	5486.22
439.52	5523.66
439.70	5626.65
439.89	5664.10
440.08	5804.53
440.26	5584.52
440.45	5621.97
440.63	5888.79
440.82	5921.56
441.01	5851.34
441.19	5966.03
441.38	5937.94
441.57	6069.01
441.75	6148.59
441.94	6108.80
442.12	6171.99
442.31	6380.30
442.50	6279.66
442.68	6195.40
442.87	6200.08
443.05	6356.90
443.24	6333.49
443.43	6340.51
443.61	6406.05
443.80	6658.82
443.98	6356.90
444.17	6377.96
444.35	6480.94
444.54	6471.58
444.73	6494.99
444.91	6455.20
445.10	6455.20
445.28	6373.28
445.47	6445.84
445.65	6392.00
445.84	6494.99
446.02	6764.15
446.21	6586.27
446.39	6499.67
446.58	6820.32
446.77	6771.17
446.95	6675.21
447.14	6684.57
447.32	6871.81
447.51	6686.91
447.69	6544.14
447.88	6715.00
448.06	6773.51
448.25	6766.49
448.43	6724.36
448.62	6630.74
448.80	6644.78
448.99	6693.93
449.17	6874.15
449.36	6644.78
449.54	6918.62
449.73	6916.28
449.91	7211.19
450.10	6995.86
450.28	7166.72
450.46	7126.93
450.65	7115.23
450.83	7138.63
451.02	7052.03
451.20	7286.09
451.39	7241.62
451.57	7138.63
451.76	7042.67
451.94	7131.61
452.13	7297.79
452.31	6963.09
452.49	7030.97
452.68	7145.66
452.86	7054.37
453.05	7309.49
453.23	7372.69
453.42	6984.16
453.60	7321.20
453.78	7424.18
453.97	7300.13
454.15	7424.18
454.34	7370.35
454.52	7417.16
454.70	7328.22
454.89	7470.99
455.07	7438.22
455.26	7681.64
455.44	7789.30
455.62	7669.94
455.81	7777.60
455.99	7871.22
456.17	7901.65
456.36	7747.17
456.54	7852.50
456.73	7988.25
456.91	8091.23
457.09	8184.85
457.28	8042.08
457.46	8056.12
457.64	8290.18
457.83	7962.50
458.01	7946.12
458.19	8271.45
458.38	7913.35
458.56	8152.09
458.74	8168.47
458.93	8229.32
459.11	8278.47
459.29	8259.75
459.48	8299.54
459.66	8135.70
459.84	8411.89
460.03	8585.08
460.21	8154.43
460.39	8652.96
460.57	8475.08
460.76	8346.35
460.94	8329.97
461.12	8552.32
461.31	8559.34
461.49	8620.19
461.67	8674.03
461.85	8578.06
462.04	8650.62
462.22	8870.63
462.40	8903.40
462.59	8826.16
462.77	8835.52
462.95	8779.35
463.13	8788.71
463.32	8896.38
463.50	9083.62
463.68	9025.11
463.86	8870.63
464.05	8858.93
464.23	8982.98
464.41	9025.11
464.59	8938.51
464.78	9062.55
464.96	9214.69
465.14	8891.70
465.32	9020.42
465.50	9385.55
465.69	9320.01
465.87	9188.94
466.05	9392.57
466.23	8882.33
466.41	9259.16
466.60	9502.58
466.78	9095.32
466.96	9245.12
467.14	9296.61
467.32	9259.16
467.51	9390.23
467.69	9366.82
467.87	9252.14
468.05	9231.07
468.23	9329.38
468.41	9465.13
468.60	9530.66
468.78	9853.66
468.96	9448.74
469.14	9816.21
469.32	9795.14
469.50	9291.93
469.69	9699.18
469.87	9811.53
470.05	9715.56
470.23	9624.28
470.41	9872.38
470.59	9970.68
470.77	9820.89
470.95	10125.16
471.14	9982.38
471.32	9757.69
471.50	10085.37
471.68	10193.03
471.86	10003.45
472.04	10160.27
472.22	10501.98
472.40	10450.49
472.58	10375.59
472.77	10604.97
472.95	10633.05
473.13	10853.06
473.31	10361.55
473.49	10586.24
473.67	10574.54
473.85	10600.29
474.03	10885.83
474.21	10979.45
474.39	10836.68
474.57	11119.89
474.75	11276.70
474.93	11194.78
475.12	11232.23
475.30	11382.03
475.48	10995.84
475.66	11428.84
475.84	11140.95
476.02	11222.87
476.20	11400.75
476.38	11648.85
476.56	11669.91
476.74	11908.65
476.92	11693.32
477.10	11700.34
477.28	12070.14
477.46	12241.00
477.64	12215.26
477.82	12395.48
478.00	12587.40
478.18	12346.33
478.36	12439.95
478.54	12573.36
478.72	12571.02
478.90	12617.83
479.08	12884.65
479.26	13095.30
479.44	13273.18
479.62	13249.77
479.80	13322.33
479.98	13334.03
480.16	13757.67
480.34	13490.85
480.52	13502.55
480.70	13575.11
480.88	13460.42
481.06	13942.57
481.24	13785.76
481.41	14223.44
481.59	14396.64
481.77	14181.31
481.95	14047.90
482.13	14623.67
482.31	14546.43
482.49	14869.42
482.67	14918.57
482.85	15103.48
483.03	15056.67
483.21	15220.50
483.39	15405.41
483.57	15136.24
483.74	15576.27
483.92	15520.09
484.10	15440.51
484.28	15899.26
484.46	16175.44
484.64	16400.13
484.82	15995.22
485.00	16238.64
485.18	16301.83
485.35	16201.19
485.53	16020.97
485.71	16442.26
485.89	16578.01
486.07	16446.94
486.25	16786.32
486.43	16774.62
486.61	16952.50
486.78	17167.83
486.96	17254.43
487.14	17699.13
487.32	17657.00
487.50	17788.07
487.68	18052.55
487.85	18375.55
488.03	18314.69
488.21	18590.88
488.39	18345.12
488.57	18277.24
488.75	18775.78
488.92	19063.66
489.10	19126.86
489.28	19314.10
489.46	19791.57
489.64	19648.80
489.81	19836.04
489.99	19915.62
490.17	20421.17
490.35	20166.06
490.53	20376.70
490.70	20262.02
490.88	20128.61
491.06	20772.25
491.24	20706.72
491.41	20793.32
491.59	20952.48
491.77	20514.80
491.95	20830.77
492.13	21151.42
492.30	21603.14
492.48	21813.79
492.66	21668.68
492.84	21678.04
493.01	22043.17
493.19	22218.71
493.37	22022.10
493.54	22146.15
493.72	22590.85
493.90	22455.10
494.08	22714.90
494.25	23117.47
494.43	23110.45
494.61	23246.20
494.79	23166.62
494.96	23555.15
495.14	23278.97
495.32	23431.10
495.49	23524.72
495.67	23821.97
495.85	24034.96
496.02	24086.45
496.20	24276.04
496.38	24194.12
496.55	24357.96
496.73	24856.49
496.91	25081.18
497.09	24945.43
497.26	24599.03
497.44	24999.26
497.62	25090.54
497.79	25443.96
497.97	25069.48
498.14	25303.53
498.32	25139.69
498.50	25415.88
498.67	25972.92
498.85	25848.88
499.03	25977.61
499.20	26284.22
499.38	26064.21
499.56	26036.12
499.73	26398.90
499.91	26733.60
500.08	26551.04
500.26	26150.81
500.44	26520.61
500.61	26766.37
500.79	26771.05
500.97	26710.19
501.14	26897.44
501.32	27005.10
501.49	26998.08
501.67	27236.81
501.84	27173.62
502.02	27520.02
502.20	27552.79
502.37	27807.90
502.55	27627.68
502.72	27903.87
502.90	28004.51
503.07	27740.03
503.25	28016.21
503.43	27580.87
503.60	27826.63
503.78	28208.14
503.95	28133.24
504.13	28444.53
504.30	28463.25
504.48	28795.61
504.65	29064.77
504.83	28701.99
505.01	28999.24
505.18	28851.78
505.36	29123.29
505.53	29443.94
505.71	29364.36
505.88	29998.65
506.06	29315.21
506.23	29481.39
506.41	29539.90
506.58	29799.70
506.76	29823.11
506.93	29816.08
507.11	30033.75
507.28	29921.41
507.46	29902.68
507.63	29589.05
507.81	30438.67
507.98	29998.65
508.16	30213.98
508.33	30850.60
508.50	30824.86
508.68	30492.50
508.85	31283.60
509.03	30874.01
509.20	30962.95
509.38	31119.76
509.55	31094.02
509.73	31096.36
509.90	31227.43
510.08	31644.04
510.25	31391.26
510.42	31211.04
510.60	31945.97
510.77	31679.15
510.95	31489.57
511.12	31667.45
511.30	32093.43
511.47	32552.17
511.64	32287.69
511.82	32400.04
511.99	31796.18
512.17	32271.31
512.34	32156.62
512.51	32423.44
512.69	32540.47
512.86	32737.07
513.04	33081.13
513.21	32393.01
513.38	32608.34
513.56	32648.13
513.73	32472.59
513.90	32943.04
514.08	32917.29
514.25	32716.01
514.43	33095.18
514.60	33329.23
514.77	33261.35
514.95	33783.29
515.12	33317.53
515.29	33717.76
515.47	34036.07
515.64	34050.11
515.81	33933.09
515.99	33965.85
516.16	33198.16
516.33	33769.25
516.51	33614.77
516.68	33195.82
516.85	33326.89
517.03	33460.30
517.20	34033.73
517.37	34015.01
517.54	34387.15
517.72	34155.44
517.89	33677.97
518.06	34103.95
518.24	33628.82
518.41	34518.22
518.58	34518.22
518.75	34831.85
518.93	35129.10
519.10	34742.91
519.27	34871.64
519.45	35115.06
519.62	35255.49
519.79	35220.38
519.96	35281.24
520.14	35629.98
520.31	35246.13
520.48	35325.71
520.65	35159.53
520.83	35665.08
521.00	35817.22
521.17	35950.63
521.34	36039.57
521.52	36451.50
521.69	36294.69
521.86	36109.78
522.03	36201.07
522.20	36292.35
522.38	36062.97
522.55	36264.26
522.72	36046.59
522.89	36275.96
523.07	36622.36
523.24	36463.21
523.41	36833.01
523.58	36821.31
523.75	37397.08
523.92	37202.82
524.10	36879.82
524.27	37284.73
524.44	37137.28
524.61	37516.45
524.78	37235.58
524.96	37181.75
525.13	37544.53
525.30	37589.00
525.47	37759.86
525.64	37464.96
525.81	37699.01
525.98	37481.34
526.16	37577.30
526.33	37038.98
526.50	37359.63
526.67	37352.61
526.84	37483.68
527.01	37130.26
527.18	37647.52
527.36	37848.80
527.53	38050.09
527.70	38412.87
527.87	37926.04
528.04	37635.81
528.21	38782.68
528.38	38216.27
528.55	38246.69
528.72	39037.80
528.89	39339.72
529.07	38490.11
529.24	38834.17
529.41	38993.32
529.58	38576.71
529.75	39194.61
529.92	38754.59
530.09	39218.02
530.26	39405.26
530.43	39187.59
530.60	38958.22
530.77	39218.02
530.94	39611.23
531.11	39377.17
531.28	39161.84
531.46	39590.16
531.63	39725.91
531.80	39363.13
531.97	39358.45
532.14	39325.68
532.31	39180.57
532.48	39058.86
532.65	39702.51
532.82	39505.90
532.99	39831.24
533.16	39676.76
533.33	40048.91
533.50	40205.72
533.67	39952.94
533.84	39786.77
534.01	40238.49
534.18	40198.70
534.35	40322.75
534.52	40168.27
534.69	40889.16
534.86	40353.18
535.03	40332.11
535.20	41015.55
535.37	41015.55
535.54	40704.26
535.71	40479.57
535.88	41207.47
536.05	40643.40
536.22	40666.81
536.38	40697.24
536.55	40900.86
536.72	40547.44
536.89	40561.48
537.06	41186.41
537.23	41186.41
537.40	41006.19
537.57	40989.80
537.74	40718.30
537.91	41364.29
538.08	41041.29
538.25	41172.36
538.42	41308.11
538.59	41577.28
538.75	41081.08
538.92	41390.03
539.09	41504.72
539.26	41038.95
539.43	41593.66
539.60	41427.48
539.77	41167.68
539.94	41347.90
540.11	41214.49
540.28	41757.50
540.44	41769.20
540.61	41368.97
540.78	41244.92
540.95	41294.07
541.12	41326.84
541.29	41443.87
541.46	41879.21
541.62	41986.87
541.79	42150.71
541.96	41310.46
542.13	41628.77
542.30	42230.29
542.47	41656.85
542.63	41911.97
542.80	42536.90
542.97	42506.47
543.14	43000.32
543.31	42384.76
543.48	42607.11
543.64	42934.79
543.81	43309.27
543.98	42934.79
544.15	42506.47
544.32	43072.88
544.48	43098.62
544.65	42906.70
544.82	42869.25
544.99	42677.33
545.16	42801.38
545.32	42990.96
545.49	43447.36
545.66	43136.07
545.83	43426.30
546.00	42780.31
546.16	43503.54
546.33	43026.07
546.50	42836.48
546.67	43117.35
546.83	43426.30
547.00	43278.85
547.17	43213.31
547.34	43110.33
547.50	43292.89
547.67	43484.81
547.84	43494.18
548.00	43646.31
548.17	43718.87
548.34	43686.10
548.51	44069.95
548.67	43964.62
548.84	43859.30
549.01	43562.05
549.18	43585.46
549.34	43365.45
549.51	44016.11
549.68	44011.43
549.84	43634.61
550.01	44058.24
550.18	43737.59
550.34	43999.73
550.51	44289.96
550.68	43981.01
550.84	43456.73
551.01	43688.44
551.18	44140.16
551.34	44626.99
551.51	44327.41
551.68	43966.96
551.84	44671.46
552.01	44273.57
552.18	44430.39
552.34	43761.00
552.51	44179.95
552.68	44444.43
552.84	44610.61
553.01	44666.78
553.18	44547.42
553.34	44378.90
553.51	43917.81
553.67	44500.61
553.84	44746.36
554.01	44788.49
554.17	45184.04
554.34	44910.20
554.51	45233.19
554.67	44802.53
554.84	44858.71
555.00	44708.91
555.17	44423.37
555.33	44898.50
555.50	44374.22
555.67	45034.25
555.83	44634.02
556.00	44844.66
556.16	45808.96
556.33	44903.18
556.50	44643.38
556.66	44978.07
556.83	44783.81
556.99	44914.88
557.16	45315.11
557.32	45151.27
557.49	45294.05
557.65	45170.00
557.82	44725.30
557.98	45013.18
558.15	44928.92
558.32	45329.16
558.48	45057.65
558.65	44870.41
558.81	44982.76
558.98	45207.45
559.14	45425.12
559.31	45378.31
559.47	45083.40
559.64	45298.73
559.80	45219.15
559.97	45198.09
560.13	45137.23
560.30	45490.65
560.46	45294.05
560.63	45226.17
560.79	45481.29
560.96	45593.64
561.12	45598.32
561.29	45298.73
561.45	45298.73
561.61	45455.54
561.78	45450.86
561.94	44961.69
562.11	45289.37
562.27	45436.82
562.44	45638.11
562.60	45689.60
562.77	45694.28
562.93	46019.61
563.10	45900.25
563.26	45450.86
563.42	45696.62
563.59	45333.84
563.75	45474.27
563.92	45684.92
564.08	45874.50
564.24	45769.18
564.41	45724.71
564.57	46007.91
564.74	46045.36
564.90	45666.19
565.07	45694.28
565.23	45324.47
565.39	45263.62
565.56	45883.86
565.72	45497.67
565.88	45610.02
566.05	45579.59
566.21	45563.21
566.38	46054.72
566.54	45488.31
566.70	45663.85
566.87	46185.79
567.03	45727.05
567.19	46508.79
567.36	46031.32
567.52	45095.10
567.68	45947.06
567.85	45717.68
568.01	46216.22
568.17	45595.98
568.34	45886.20
568.50	46195.15
568.66	45656.83
568.83	46108.55
568.99	45628.74
569.15	45757.47
569.32	45441.50
569.48	45729.39
569.64	45972.80
569.81	46227.92
569.97	46106.21
570.13	46167.07
570.30	45773.86
570.46	45570.23
570.62	45701.30
570.78	45734.07
570.95	45471.93
571.11	46082.81
571.27	45734.07
571.43	45696.62
571.60	46113.23
571.76	45656.83
571.92	45808.96
572.09	46061.74
572.25	46279.41
572.41	45820.67
572.57	46190.47
572.74	46354.31
572.90	46036.00
573.06	46127.28
573.22	46525.17
573.38	46190.47
573.55	45766.84
573.71	46358.99
573.87	46124.94
574.03	46225.58
574.20	45874.50
574.36	45900.25
574.52	46155.36
574.68	46174.09
574.84	46085.15
575.01	46064.08
575.17	46129.62
575.33	46101.53
575.49	45841.73
575.65	46178.77
575.82	46064.08
575.98	45951.74
576.14	46085.15
576.30	46218.56
576.46	45834.71
576.62	45914.29
576.79	46075.79
576.95	45972.80
577.11	45996.21
577.27	46286.43
577.43	46742.84
577.59	45977.48
577.75	45748.11
577.92	46005.57
578.08	45666.19
578.24	45579.59
578.40	46284.09
578.56	45832.37
578.72	46457.29
578.88	46469.00
579.04	46380.06
579.21	46136.64
579.37	46003.23
579.53	45876.84
579.69	46122.60
579.85	46356.65
580.01	46169.41
580.17	45968.12
580.33	46251.33
580.49	46115.58
580.65	46082.81
580.82	46384.74
580.98	45862.80
581.14	46068.76
581.30	46450.27
581.46	46628.15
581.62	46553.26
581.78	46597.73
581.94	46515.81
582.10	46316.86
582.26	46169.41
582.42	45977.48
582.58	46124.94
582.74	46101.53
582.90	46209.20
583.06	46061.74
583.22	46218.56
583.38	46628.15
583.54	46698.37
583.70	46387.08
583.86	46579.00
584.02	46621.13
584.18	46305.16
584.34	46347.29
584.50	46202.18
584.66	46188.13
584.82	45652.15
584.98	46415.16
585.14	46057.06
585.30	46209.20
585.46	46080.47
585.62	46506.44
585.78	46433.89
585.94	45933.01
586.10	46337.93
586.26	46157.70
586.42	46401.12
586.58	46445.59
586.74	46263.03
586.90	46131.96
587.06	45923.65
587.22	46520.49
587.38	46358.99
587.54	46536.87
587.70	46307.50
587.86	46429.21
588.02	46653.90
588.18	46461.97
588.34	45951.74
588.49	45998.55
588.65	45603.00
588.81	45865.14
588.97	46134.30
589.13	45837.05
589.29	45813.65
589.45	46256.01
589.61	46525.17
589.77	46265.37
589.93	46370.69
590.08	46534.53
590.24	46658.58
590.40	46883.27
590.56	46754.54
590.72	46401.12
590.88	46234.94
591.04	46731.14
591.20	46815.40
591.35	46522.83
591.51	46707.73
591.67	46281.75
591.83	46267.71
591.99	46396.44
592.15	46263.03
592.31	46590.70
592.46	46078.13
592.62	46263.03
592.78	46588.36
592.94	46560.28
593.10	46649.22
593.26	46354.31
593.41	46356.65
593.57	46157.70
593.73	46871.57
593.89	46426.87
594.05	46234.94
594.20	46511.13
594.36	46424.53
594.52	46401.12
594.68	46185.79
594.84	46302.82
594.99	46595.38
595.15	46307.50
595.31	46588.36
595.47	46361.33
595.62	46710.07
595.78	46525.17
595.94	46639.86
596.10	46450.27
596.25	46857.52
596.41	46422.19
596.57	46115.58
596.73	46485.38
596.88	46492.40
597.04	46064.08
597.20	46616.45
597.36	46447.93
597.51	46796.67
597.67	47065.83
597.83	46644.54
597.99	46876.25
598.14	46827.10
598.30	46534.53
598.46	46199.83
598.61	46141.32
598.77	46284.09
598.93	46277.07
599.09	46178.77
599.24	46993.28
599.40	46576.66
599.56	46438.57
599.71	46555.60
599.87	46557.94
600.03	46689.01
600.18	46766.24
600.34	46298.14
600.50	46644.54
600.65	46136.64
600.81	46693.69
600.97	46679.64
601.12	47206.26
601.28	46335.59
601.44	45734.07
601.59	46134.30
601.75	46333.24
601.91	46354.31
602.06	46239.62
602.22	46541.55
602.37	46576.66
602.53	46347.29
602.69	46464.32
602.84	46534.53
603.00	46209.20
603.16	46387.08
603.31	46452.61
603.47	46487.72
603.62	46653.90
603.78	46270.05
603.94	46344.95
604.09	46719.43
604.25	46307.50
604.40	45984.51
604.56	46183.45
604.71	46588.36
604.87	46148.34
605.03	46298.14
605.18	45897.91
605.34	46464.32
605.49	46153.02
605.65	46108.55
605.80	45989.19
605.96	46586.02
606.12	46447.93
606.27	46508.79
606.43	46260.69
606.58	46204.52
606.74	46272.39
606.89	46333.24
607.05	46155.36
607.20	46567.30
607.36	45972.80
607.51	46209.20
607.67	46007.91
607.82	46370.69
607.98	46211.54
608.13	46349.63
608.29	46150.68
608.44	45610.02
608.60	45642.79
608.75	45710.66
608.91	45886.20
609.06	45867.48
609.22	45928.33
609.37	45804.28
609.53	45776.20
609.68	45565.55
609.84	45855.78
609.99	45808.96
610.15	45055.31
610.30	45467.25
610.46	45329.16
610.61	45780.88
610.76	45844.07
610.92	45762.15
611.07	45979.82
611.23	45862.80
611.38	45574.91
611.54	45844.07
611.69	45485.97
611.84	45118.51
612.00	45382.99
612.15	45720.02
612.31	45914.29
612.46	45471.93
612.62	45172.34
612.77	45776.20
612.92	45652.15
613.08	45340.86
613.23	45741.09
613.39	45301.07
613.54	45191.06
613.69	45221.49
613.85	45116.17
614.00	45790.24
614.15	45635.77
614.31	45528.10
614.46	45701.30
614.62	45425.12
614.77	45181.70
614.92	45591.30
615.08	45392.35
615.23	44957.01
615.38	45153.62
615.54	45130.21
615.69	44959.35
615.84	45280.00
616.00	45102.12
616.15	44615.29
616.30	45387.67
616.46	44884.45
616.61	44940.63
616.76	44877.43
616.92	44634.02
617.07	44905.52
617.22	44856.37
617.37	44781.47
617.53	45263.62
617.68	45095.10
617.83	45092.76
617.99	44767.43
618.14	45146.59
618.29	44573.16
618.45	44746.36
618.60	44479.54
618.75	44392.94
618.90	44432.73
619.06	44612.95
619.21	44676.15
619.36	44954.67
619.51	44783.81
619.67	44957.01
619.82	44626.99
619.97	44563.80
620.12	44423.37
620.28	44186.97
620.43	44430.39
620.58	44626.99
620.73	44203.36
620.89	44231.44
621.04	44442.09
621.19	44261.87
621.34	44329.75
621.49	44392.94
621.65	44041.86
621.80	44219.74
621.95	43995.05
622.10	43571.41
622.25	43723.55
622.41	43917.81
622.56	43648.65
622.71	44477.20
622.86	43915.47
623.01	43800.79
623.16	43892.07
623.32	43929.51
623.47	44023.14
623.62	43910.79
623.77	43973.98
623.92	44219.74
624.07	43728.23
624.23	43681.42
624.38	43955.26
624.53	43440.34
624.68	43515.24
624.83	43819.51
624.98	43400.55
625.13	43402.89
625.29	43239.06
625.44	42995.64
625.59	43360.76
625.74	42932.45
625.89	43042.45
626.04	43100.97
626.19	43178.20
626.34	43271.82
626.49	43323.32
626.65	43400.55
626.80	43117.35
626.95	43140.75
627.10	42693.71
627.25	43239.06
627.40	42721.80
627.55	42422.21
627.70	42375.40
627.85	42983.94
628.00	42424.55
628.15	42801.38
628.30	42859.89
628.45	42560.30
628.60	43107.99
628.76	43068.20
628.91	43407.58
629.06	42801.38
629.21	42525.19
629.36	42490.09
629.51	42251.35
629.66	42480.72
629.81	42525.19
629.96	42600.09
630.11	42401.14
630.26	42698.39
630.41	42733.50
630.56	42464.34
630.71	42452.64
630.86	42260.71
631.01	41947.08
631.16	42232.63
631.31	41996.23
631.46	42087.51
631.61	42096.88
631.76	42202.20
631.91	42241.99
632.06	42314.55
632.21	42665.63
632.36	42462.00
632.51	42213.90
632.66	42045.38
632.81	42073.47
632.96	42036.02
633.10	41874.52
633.25	42171.77
633.40	42234.97
633.55	41610.04
633.70	42017.30
633.85	41762.18
634.00	42014.96
634.15	41659.20
634.30	41956.44
634.45	41956.44
634.60	41832.39
634.75	41827.71
634.90	41748.14
635.05	42141.35
635.19	41677.92
635.34	42005.59
635.49	41270.67
635.64	41565.57
635.79	41336.20
635.94	41724.73
636.09	41827.71
636.24	41542.17
636.39	41031.93
636.53	40938.31
636.68	41500.04
636.83	41354.93
636.98	41125.55
637.13	41270.67
637.28	41214.49
637.43	41390.03
637.57	41127.89
637.72	41338.54
637.87	41399.40
638.02	41462.59
638.17	41483.66
638.32	41045.97
638.46	40982.78
638.61	41029.59
638.76	41067.04
638.91	41294.07
639.06	41221.52
639.20	41202.79
639.35	41345.56
639.50	41153.64
639.65	41303.43
639.80	40926.61
639.94	40847.03
640.09	40842.35
640.24	40591.91
640.39	40135.51
640.54	40231.47
640.68	40903.20
640.83	40767.45
640.98	40175.30
641.13	40318.07
641.27	40987.46
641.42	40479.57
641.57	40683.19
641.72	40589.57
641.86	40123.80
642.01	40374.24
642.16	40355.52
642.31	40030.18
642.45	40547.44
642.60	39920.18
642.75	40423.39
642.90	40360.20
643.04	39983.37
643.19	40322.75
643.34	40385.94
643.48	39739.96
643.63	40086.36
643.78	40091.04
643.93	39859.32
644.07	40051.25
644.22	39966.99
644.37	39957.63
644.51	40179.98
644.66	39648.68
644.81	39739.96
644.95	40231.47
645.10	39941.24
645.25	39903.79
645.39	39772.72
645.54	39519.95
645.69	40030.18
645.83	40254.87
645.98	39646.33
646.13	39669.74
646.27	39861.66
646.42	39683.78
646.57	39454.41
646.71	39363.13
646.86	39456.75
647.00	39206.31
647.15	39473.13
647.30	39531.65
647.44	39629.95
647.59	39690.80
647.74	39632.29
647.88	39674.42
648.03	39529.31
648.17	39854.64
648.32	39339.72
648.47	38927.79
648.61	39065.88
648.76	39173.55
648.90	39150.14
649.05	39218.02
649.20	39154.82
649.34	39021.41
649.49	39000.35
649.63	39005.03
649.78	38632.88
649.92	38855.23
650.07	38792.04
650.21	38864.60
650.36	39370.15
650.51	39000.35
650.65	39222.70
650.80	39388.88
650.94	39405.26
651.09	39147.80
651.23	38911.41
651.38	39070.56
651.52	39007.37
651.67	38682.03
651.81	38646.93
651.96	38717.14
652.10	38572.03
652.25	38759.27
652.39	38557.99
652.54	38602.46
652.68	38766.29
652.83	38869.28
652.97	38948.85
653.12	38548.62
653.26	38761.61
653.41	38644.59
653.55	37858.17
653.70	38377.76
653.84	38295.85
653.99	38382.45
654.13	38209.25
654.27	38197.54
654.42	37876.89
654.56	37846.46
654.71	38199.88
654.85	38014.98
655.00	37982.21
655.14	38190.52
655.29	38031.36
655.43	37933.06
655.57	37689.65
655.72	37371.33
655.86	37457.93
656.01	37184.09
656.15	37628.79
656.30	37717.73
656.44	37287.07
656.58	37581.98
656.73	37411.12
656.87	37572.62
657.01	37462.61
657.16	37546.87
657.30	37067.06
657.45	37057.70
657.59	37546.87
657.73	37191.11
657.88	37577.30
658.02	37570.28
658.16	37642.84
658.31	38064.13
658.45	37312.82
658.60	37500.06
658.74	37584.32
658.88	37469.64
659.03	37008.55
659.17	37226.22
659.31	37046.00
659.46	36903.23
659.60	36746.41
659.74	37521.13
659.89	36928.97
660.03	36706.62
660.17	36891.52
660.32	36451.50
660.46	37099.83
660.60	36999.19
660.74	36655.13
660.89	37266.01
661.03	36767.48
661.17	36531.08
661.32	36212.77
661.46	36615.34
661.60	36320.43
661.74	36617.68
661.89	36503.00
662.03	36100.42
662.17	36383.63
662.31	36222.13
662.46	36222.13
662.60	36374.27
662.74	36196.38
662.88	36037.23
663.03	35651.04
663.17	36016.16
663.31	35625.29
663.45	35967.01
663.60	35814.88
663.74	35363.15
663.88	35323.36
664.02	35669.76
664.17	35938.93
664.31	35473.16
664.45	35613.59
664.59	35264.85
664.73	35388.90
664.88	35201.66
665.02	35112.72
665.16	35065.91
665.30	35021.44
665.44	35075.27
665.59	35091.65
665.73	34686.74
665.87	35194.64
666.01	35150.17
666.15	34817.81
666.29	34843.56
666.44	35222.72
666.58	34597.80
666.72	34593.12
666.86	34546.31
667.00	34827.17
667.14	34473.75
667.28	34244.38
667.43	34103.95
667.57	34366.09
667.71	33984.58
667.85	34244.38
667.99	34579.07
668.13	33879.25
668.27	34302.89
668.41	34012.66
668.56	34209.27
668.70	34148.42
668.84	34082.88
668.98	33493.07
669.12	33596.05
669.26	33544.56
669.40	33406.47
669.54	33612.43
669.68	33312.84
669.82	33013.26
669.96	33120.92
670.10	33453.28
670.25	33408.81
670.39	33167.73
670.53	33060.07
670.67	32793.25
670.81	33270.72
670.95	33425.19
671.09	33237.95
671.23	32840.06
671.37	32924.32
671.51	32547.49
671.65	32601.32
671.79	32669.20
671.93	32711.33
672.07	32872.82
672.21	32638.77
672.35	32573.24
672.49	32371.95
672.63	32507.70
672.77	32580.26
672.91	32423.44
673.05	32168.32
673.19	32154.28
673.33	32264.28
673.47	31674.47
673.61	32119.17
673.75	31482.55
673.89	31676.81
674.03	31271.90
674.17	31791.50
674.31	31709.58
674.45	31662.77
674.59	31637.02
674.73	31482.55
674.87	31269.56
675.01	30944.22
675.15	31061.25
675.29	31140.83
675.43	30771.02
675.56	30691.44
675.70	30693.79
675.84	30438.67
675.98	29972.90
676.12	30871.67
676.26	30466.75
676.40	30293.55
676.54	30670.38
676.68	30508.88
676.82	29961.20
676.96	30230.36
677.10	29837.15
677.23	29907.37
677.37	29844.17
677.51	29776.30
677.65	29930.77
677.79	29149.03
677.93	29797.36
678.07	29137.33
678.21	28477.30
678.34	29008.60
678.48	29116.26
678.62	28938.38
678.76	28599.01
678.90	28505.38
679.04	28505.38
679.18	28603.69
679.31	28074.73
679.45	27992.81
679.59	28048.98
679.73	28393.04
679.87	28032.60
680.00	27697.90
680.14	28173.03
680.28	28004.51
680.42	28098.13
680.56	27826.63
680.70	27843.01
680.83	27651.09
680.97	27681.52
681.11	27852.38
681.25	26742.96
681.39	27477.89
681.52	27316.39
681.66	27400.65
681.80	27213.41
681.94	27321.07
682.07	26852.97
682.21	26560.40
682.35	26675.09
682.49	26902.12
682.62	26845.94
682.76	26529.97
682.90	26600.19
683.04	26178.89
683.17	26047.82
683.31	25638.23
683.45	26122.72
683.59	25804.41
683.72	26052.50
683.86	25448.64
684.00	25689.72
684.13	25783.34
684.27	25450.99
684.41	25273.10
684.55	24992.24
684.68	25415.88
684.82	25289.49
684.96	25380.77
685.09	24912.66
685.23	25020.33
685.37	24919.68
685.50	24566.26
685.64	24713.72
685.78	24690.31
685.91	24460.94
686.05	24257.31
686.19	23608.98
686.32	24121.56
686.46	23953.04
686.60	23587.92
686.73	23529.41
686.87	23475.57
687.01	23103.43
687.14	23002.78
687.28	23330.46
687.42	23435.78
687.55	23276.63
687.69	23314.08
687.82	23138.54
687.96	23168.96
688.10	23328.12
688.23	22974.70
688.37	22946.61
688.50	22544.04
688.64	22607.23
688.78	22668.09
688.91	22527.66
689.05	22295.94
689.18	22450.42
689.32	22146.15
689.46	22040.82
689.59	22328.71
689.73	22317.01
689.86	22115.72
690.00	22029.12
690.13	21923.80
690.27	21809.11
690.41	21699.11
690.54	21752.94
690.68	21500.16
690.81	21167.80
690.95	21273.13
691.08	21380.79
691.22	21238.02
691.35	20952.48
691.49	21420.58
691.62	21003.97
691.76	20875.24
691.89	20971.20
692.03	20762.89
692.16	20662.25
692.30	20407.13
692.43	20365.00
692.57	20133.29
692.70	20023.28
692.84	20205.84
692.97	20327.55
693.11	20070.09
693.24	19967.11
693.38	19765.82
693.51	19721.35
693.65	19875.83
693.78	19744.76
693.92	19723.69
694.05	19838.38
694.19	19571.56
694.32	19360.91
694.45	19131.54
694.59	18981.74
694.72	19154.94
694.86	18782.80
694.99	18778.12
695.13	18995.79
695.26	18616.62
695.39	18492.57
695.53	18782.80
695.66	18721.95
695.80	18569.81
695.93	18590.88
696.07	18434.06
696.20	18555.77
696.33	18331.08
696.47	18249.16
696.60	18082.98
696.73	17879.35
696.87	17820.84
697.00	17759.98
697.14	18005.74
697.27	18003.40
697.40	17841.90
697.54	17209.96
697.67	17254.43
697.80	17497.84
697.94	17355.07
698.07	17315.28
698.21	16959.52
698.34	17055.48
698.47	17128.04
698.61	16863.56
698.74	16856.54
698.87	16666.95
699.01	16695.04
699.14	16496.10
699.27	16477.37
699.40	16130.97
699.54	16425.88
699.67	16102.89
699.80	16051.39
699.94	16222.25
700.07	16088.84
700.20	16098.20
700.34	15957.77
700.47	15810.32
700.60	16212.89
700.73	16135.65
700.87	15829.04
701.00	15681.59
701.13	15609.03
701.26	15445.20
701.40	15389.02
701.53	15304.76
701.66	15428.81
701.79	15190.08
701.93	15136.24
702.06	15129.22
702.19	15112.84
702.32	14867.08
702.46	14995.81
702.59	15136.24
702.72	15014.54
702.85	14736.01
702.99	14846.02
703.12	14647.07
703.25	14483.24
703.38	14588.56
703.51	14471.53
703.65	14434.08
703.78	14616.65
703.91	14188.33
704.04	14204.71
704.17	13965.98
704.31	14221.10
704.44	14003.43
704.57	14160.24
704.70	13888.74
704.83	13937.89
704.96	13720.22
705.10	13987.04
705.23	13767.03
>>>>>End Processed Spectral Data<<<<<
