SpectraSuite Data File
++++++++++++++++++++++++++++++++++++
Date: Fri Oct 25 11:33:46 EDT 2013
User: price-jones
Dark Spectrum Present: No
Reference Spectrum Present: No
Number of Sampled Component Spectra: 1
Spectrometers: USB2+H05261
Integration Time (usec): 100000 (USB2+H05261)
Spectra Averaged: 1 (USB2+H05261)
Boxcar Smoothing: 0 (USB2+H05261)
Correct for Electrical Dark: No (USB2+H05261)
Strobe/Lamp Enabled: No (USB2+H05261)
Correct for Detector Non-linearity: No (USB2+H05261)
Correct for Stray Light: No (USB2+H05261)
Number of Pixels in Processed Spectrum: 2048
>>>>>Begin Processed Spectral Data<<<<<
365.73	271.50
365.92	271.50
366.12	271.50
366.32	201.29
366.52	180.22
366.72	245.76
366.91	168.52
367.11	149.79
367.31	79.58
367.51	142.77
367.70	210.65
367.90	86.60
368.10	145.11
368.30	126.39
368.49	121.71
368.69	159.16
368.89	105.32
369.09	177.88
369.28	128.73
369.48	173.20
369.68	220.01
369.87	194.26
370.07	222.35
370.27	280.86
370.47	442.36
370.66	510.24
370.86	521.94
371.06	496.19
371.25	580.45
371.45	589.82
371.65	521.94
371.84	524.28
372.04	615.56
372.24	585.13
372.44	573.43
372.63	578.11
372.83	538.32
373.03	575.77
373.22	552.37
373.42	533.64
373.62	645.99
373.81	557.05
374.01	617.90
374.21	629.60
374.40	571.09
374.60	650.67
374.79	648.33
374.99	645.99
375.19	697.48
375.38	645.99
375.58	709.18
375.78	692.80
375.97	692.80
376.17	720.88
376.37	585.13
376.56	589.82
376.76	678.76
376.95	664.71
377.15	674.07
377.35	669.39
377.54	660.03
377.74	674.07
377.93	667.05
378.13	624.92
378.33	711.52
378.52	685.78
378.72	704.50
378.91	725.57
379.11	704.50
379.31	685.78
379.50	760.67
379.70	770.04
379.89	709.18
380.09	765.36
380.28	617.90
380.48	751.31
380.68	704.50
380.87	699.82
381.07	748.97
381.26	688.12
381.46	774.72
381.65	732.59
381.85	685.78
382.04	819.19
382.24	830.89
382.43	767.70
382.63	821.53
382.83	795.78
383.02	732.59
383.22	791.10
383.41	786.42
383.61	814.51
383.80	861.32
384.00	765.36
384.19	828.55
384.39	748.97
384.58	835.57
384.78	875.36
384.97	823.87
385.17	786.42
385.36	873.02
385.56	873.02
385.75	884.72
385.95	802.80
386.14	866.00
386.34	858.98
386.53	863.66
386.72	880.04
386.92	922.17
387.11	821.53
387.31	837.91
387.50	945.58
387.70	833.23
387.89	875.36
388.09	858.98
388.28	816.85
388.48	926.85
388.67	1034.52
388.86	898.77
389.06	964.30
389.25	968.98
389.45	903.45
389.64	929.19
389.84	1001.75
390.03	964.30
390.22	896.43
390.42	992.39
390.61	910.47
390.81	987.71
391.00	1048.56
391.19	1011.11
391.39	957.28
391.58	1032.18
391.78	985.37
391.97	1041.54
392.16	1020.47
392.36	1095.37
392.55	980.68
392.75	1022.81
392.94	1006.43
393.13	1039.20
393.33	1022.81
393.52	1064.94
393.71	1093.03
393.91	1179.63
394.10	1109.41
394.29	1125.80
394.49	1083.67
394.68	1053.24
394.88	1097.71
395.07	1142.18
395.26	1121.12
395.46	1069.62
395.65	1221.76
395.84	1181.97
396.04	1238.14
396.23	1144.52
396.42	1261.55
396.62	1198.35
396.81	1273.25
397.00	1198.35
397.19	1231.12
397.39	1228.78
397.58	1336.45
397.77	1226.44
397.97	1184.31
398.16	1219.42
398.35	1247.51
398.55	1282.61
398.74	1334.11
398.93	1275.59
399.12	1221.76
399.32	1289.64
399.51	1306.02
399.70	1362.19
399.90	1240.48
400.09	1345.81
400.28	1409.00
400.47	1397.30
400.67	1409.00
400.86	1465.18
401.05	1444.11
401.24	1357.51
401.44	1432.41
401.63	1392.62
401.82	1563.48
402.01	1432.41
402.21	1526.03
402.40	1423.05
402.59	1502.62
402.78	1565.82
402.97	1582.20
403.17	1584.54
403.36	1519.01
403.55	1572.84
403.74	1547.09
403.93	1563.48
404.13	1633.69
404.32	1631.35
404.51	1612.63
404.70	1657.10
404.89	1558.80
405.09	1708.59
405.28	1603.27
405.47	1603.27
405.66	1701.57
405.85	1696.89
406.05	1743.70
406.24	1778.81
406.43	1713.27
406.62	1874.77
406.81	1844.34
407.00	1727.32
407.20	1795.19
407.39	1820.94
407.58	1851.36
407.77	1811.57
407.96	1980.09
408.15	1914.56
408.34	1886.47
408.54	1872.43
408.73	1886.47
408.92	2001.16
409.11	2087.76
409.30	1987.11
409.49	2015.20
409.68	1959.03
409.87	2073.71
410.07	2139.25
410.26	2097.12
410.45	2062.01
410.64	2143.93
410.83	2211.81
411.02	2148.61
411.21	2214.15
411.40	2209.47
411.59	2272.66
411.78	2246.91
411.98	2249.25
412.17	2256.28
412.36	2251.60
412.55	2305.43
412.74	2422.45
412.93	2387.35
413.12	2310.11
413.31	2373.30
413.50	2403.73
413.69	2382.67
413.88	2551.18
414.07	2513.74
414.26	2466.92
414.45	2427.14
414.64	2534.80
414.83	2525.44
415.02	2593.31
415.22	2649.49
415.41	2626.08
415.60	2700.98
415.79	2731.41
415.98	2600.34
416.17	2656.51
416.36	2675.23
416.55	2654.17
416.74	2839.07
416.93	2764.17
417.12	2885.88
417.31	2773.53
417.50	2850.77
417.69	2925.67
417.88	2871.84
418.07	2829.71
418.26	2832.05
418.45	3002.91
418.64	3014.61
418.83	3115.25
419.02	2951.42
419.21	3075.46
419.39	3201.85
419.58	3033.33
419.77	2960.78
419.96	3239.30
420.15	3073.12
420.34	3047.38
420.53	3258.03
420.72	3262.71
420.91	3265.05
421.10	3274.41
421.29	3276.75
421.48	3236.96
421.67	3243.98
421.86	3243.98
422.05	3419.52
422.24	3286.11
422.43	3403.14
422.61	3346.97
422.80	3389.10
422.99	3396.12
423.18	3492.08
423.37	3468.67
423.56	3398.46
423.75	3475.70
423.94	3384.41
424.13	3206.53
424.32	3243.98
424.50	3421.86
424.69	3503.78
424.88	3449.95
425.07	3332.92
425.26	3363.35
425.45	3471.01
425.64	3513.14
425.83	3393.78
426.01	3515.48
426.20	3456.97
426.39	3524.85
426.58	3440.59
426.77	3449.95
426.96	3463.99
427.15	3543.57
427.33	3543.57
427.52	3620.81
427.71	3576.34
427.90	3744.86
428.09	3611.45
428.28	3667.62
428.46	3658.26
428.65	3641.87
428.84	3761.24
429.03	3721.45
429.22	3616.13
429.40	3847.84
429.59	3676.98
429.78	3667.62
429.97	3578.68
430.16	3819.75
430.34	3939.12
430.53	3852.52
430.72	3847.84
430.91	3740.18
431.10	3880.61
431.28	3941.46
431.47	4049.13
431.66	3985.93
431.85	3985.93
432.03	4053.81
432.22	4149.77
432.41	4009.34
432.60	3887.63
432.79	3866.56
432.97	4060.83
433.16	4205.94
433.35	4098.28
433.54	4119.34
433.72	4257.43
433.91	4124.02
434.10	4219.99
434.28	4266.80
434.47	4250.41
434.66	4285.52
434.85	4334.67
435.03	4393.19
435.22	4339.35
435.41	4395.53
435.59	4379.14
435.78	4425.95
435.97	4421.27
436.16	4374.46
436.34	4322.97
436.53	4381.48
436.72	4557.02
436.90	4362.76
437.09	4491.49
437.28	4344.03
437.46	4554.68
437.65	4489.15
437.84	4648.30
438.02	4470.42
438.21	4678.73
438.40	4540.64
438.58	4711.50
438.77	4800.44
438.96	4774.69
439.14	4877.68
439.33	4957.25
439.52	4926.83
439.70	4938.53
439.89	5006.41
440.08	4945.55
440.26	4926.83
440.45	5062.58
440.63	5064.92
440.82	5205.35
441.01	5076.62
441.19	5205.35
441.38	5205.35
441.57	5249.82
441.75	5376.21
441.94	5357.49
442.12	5427.70
442.31	5362.17
442.50	5542.39
442.68	5458.13
442.87	5352.81
443.05	5582.18
443.24	5584.52
443.43	5713.25
443.61	5472.17
443.80	5706.23
443.98	5483.88
444.17	5298.97
444.35	5621.97
444.54	5750.70
444.73	5544.73
444.91	5621.97
445.10	5682.82
445.28	5645.37
445.47	5535.37
445.65	5872.40
445.84	5645.37
446.02	5795.17
446.21	5809.21
446.39	5605.58
446.58	5830.27
446.77	5783.46
446.95	5682.82
447.14	5727.29
447.32	5788.14
447.51	5696.86
447.69	5727.29
447.88	5734.31
448.06	5909.85
448.25	5832.62
448.43	5844.32
448.62	5994.11
448.80	5769.42
448.99	5867.72
449.17	5820.91
449.36	5902.83
449.54	6047.94
449.73	6064.33
449.91	6057.31
450.10	6047.94
450.28	6118.16
450.46	6153.27
450.65	6186.04
450.83	6347.53
451.02	6186.04
451.20	6260.93
451.39	6085.39
451.57	6139.23
451.76	6230.51
451.94	6235.19
452.13	6464.56
452.31	6183.70
452.49	6333.49
452.68	6115.82
452.86	6200.08
453.05	6352.21
453.23	6574.56
453.42	6532.44
453.60	6335.83
453.78	6441.15
453.97	6502.01
454.15	6609.67
454.34	6410.73
454.52	6555.84
454.70	6679.89
454.89	6516.05
455.07	6609.67
455.26	6637.76
455.44	6640.10
455.62	6705.63
455.81	6846.07
455.99	6675.21
456.17	6733.72
456.36	6857.77
456.54	6663.51
456.73	7000.54
456.91	7005.22
457.09	7122.25
457.28	7274.38
457.46	7148.00
457.64	7026.29
457.83	7094.16
458.01	6960.75
458.19	7178.42
458.38	7215.87
458.56	7190.13
458.74	7166.72
458.93	7075.44
459.11	7211.19
459.29	7192.47
459.48	7335.24
459.66	7314.17
459.84	7227.57
460.03	7478.01
460.21	7363.33
460.39	7494.40
460.57	7583.34
460.76	7557.59
460.94	7564.61
461.12	7611.42
461.31	7527.16
461.49	7559.93
461.67	7550.57
461.85	7735.47
462.04	7578.65
462.22	7967.18
462.40	7831.43
462.59	7630.15
462.77	7590.36
462.95	7644.19
463.13	7920.37
463.32	7688.66
463.50	7892.29
463.68	8049.10
463.86	8013.99
464.05	7793.98
464.23	7878.24
464.41	8072.51
464.59	7892.29
464.78	8058.46
464.96	8292.52
465.14	7889.95
465.32	8098.25
465.50	8278.47
465.69	8285.50
465.87	8053.78
466.05	8002.29
466.23	8187.19
466.41	8098.25
466.60	8571.04
466.78	8156.77
466.96	8109.96
467.14	8271.45
467.32	8369.76
467.51	8519.55
467.69	8372.10
467.87	8461.04
468.05	8454.02
468.23	8444.65
468.41	8189.53
468.60	8463.38
468.78	8578.06
468.96	8362.73
469.14	8636.58
469.32	8627.21
469.50	8313.58
469.69	8805.10
469.87	8791.05
470.05	8772.33
470.23	8718.50
470.41	8901.06
470.59	8917.44
470.77	8858.93
470.95	8938.51
471.14	8964.25
471.32	8835.52
471.50	9158.52
471.68	8912.76
471.86	9057.87
472.04	9139.79
472.22	9579.81
472.40	9177.24
472.58	9081.28
472.77	9247.46
472.95	9380.87
473.13	9493.21
473.31	9488.53
473.49	9331.72
473.67	9392.57
473.85	9575.13
474.03	9724.93
474.21	9750.67
474.39	9921.53
474.57	9844.29
474.75	9811.53
474.93	9937.91
475.12	9816.21
475.30	10045.58
475.48	9949.62
475.66	10389.64
475.84	10115.80
476.02	10263.25
476.20	10319.42
476.38	10410.70
476.56	10520.71
476.74	10586.24
476.92	10714.97
477.10	10513.69
477.28	10567.52
477.46	10642.42
477.64	10848.38
477.82	10979.45
478.00	11225.21
478.18	11042.65
478.36	11283.72
478.54	11150.31
478.72	11468.62
478.90	11538.84
479.08	11613.74
479.26	11410.11
479.44	11377.34
479.62	11735.45
479.80	11822.05
479.98	11850.13
480.16	12255.04
480.34	12100.57
480.52	12283.13
480.70	12112.27
480.88	12243.34
481.06	12458.67
481.24	12652.94
481.41	12650.60
481.59	12601.44
481.77	12767.62
481.95	12865.92
482.13	12961.89
482.31	12816.77
482.49	13458.08
482.67	13261.48
482.85	13369.14
483.03	13647.66
483.21	13776.39
483.39	13696.82
483.57	13968.32
483.74	13710.86
483.92	14104.07
484.10	13975.34
484.28	14214.07
484.46	14452.81
484.64	14829.63
484.82	14382.59
485.00	14558.13
485.18	14736.01
485.35	15208.80
485.53	14848.36
485.71	15152.63
485.89	15426.47
486.07	15255.61
486.25	15674.57
486.43	15323.49
486.61	15550.52
486.78	15817.34
486.96	15887.56
487.14	16023.31
487.32	16423.54
487.50	16269.06
487.68	16294.81
487.85	16458.65
488.03	16748.87
488.21	17011.01
488.39	17174.85
488.57	16996.97
488.75	17261.45
488.92	17270.81
489.10	17502.53
489.28	17621.89
489.46	17884.03
489.64	18050.21
489.81	17823.18
489.99	18260.86
490.17	18274.90
490.35	18604.92
490.53	18412.99
490.70	18806.20
490.88	18609.60
491.06	18853.02
491.24	19166.65
491.41	19183.03
491.59	19176.01
491.77	19246.23
491.95	19349.21
492.13	19985.83
492.30	19688.59
492.48	19866.47
492.66	19906.26
492.84	20034.99
493.01	20205.84
493.19	20156.69
493.37	20482.03
493.54	20276.06
493.72	20641.18
493.90	20320.53
494.08	20886.94
494.25	21128.02
494.43	21050.78
494.61	21249.72
494.79	21336.32
494.96	21223.98
495.14	21605.49
495.32	21781.03
495.49	21612.51
495.67	22036.14
495.85	21830.18
496.02	22228.07
496.20	22307.65
496.38	22239.77
496.55	22347.44
496.73	22785.12
496.91	22838.95
497.09	22993.42
497.26	23239.18
497.44	22892.78
497.62	22993.42
497.79	23417.06
497.97	23386.63
498.14	23508.34
498.32	23714.31
498.50	23674.52
498.67	23892.19
498.85	23798.57
499.03	24168.37
499.20	24327.53
499.38	24479.66
499.56	24100.50
499.73	24432.85
499.91	24685.63
500.08	24889.26
500.26	24444.56
500.44	24606.05
500.61	24805.00
500.79	24856.49
500.97	24973.52
501.14	25642.91
501.32	25378.43
501.49	25462.69
501.67	25401.83
501.84	25781.00
502.02	25476.73
502.20	25678.02
502.37	25839.51
502.55	25773.98
502.72	25867.60
502.90	25970.58
503.07	26073.57
503.25	25865.26
503.43	26106.34
503.60	26286.56
503.78	26654.02
503.95	26581.46
504.13	26651.68
504.30	26838.92
504.48	26829.56
504.65	27009.78
504.83	26984.04
505.01	26787.43
505.18	27220.43
505.36	27103.40
505.53	27248.52
505.71	27487.25
505.88	27168.94
506.06	27168.94
506.23	27484.91
506.41	27665.13
506.58	28013.87
506.76	28032.60
506.93	28140.26
507.11	28025.57
507.28	28011.53
507.46	28198.77
507.63	28404.74
507.81	28744.12
507.98	28842.42
508.16	28481.98
508.33	28720.71
508.50	28800.29
508.68	28851.78
508.85	28849.44
509.03	28769.86
509.20	28638.80
509.38	28856.46
509.55	28950.09
509.73	29357.34
509.90	29720.12
510.08	29223.93
510.25	29436.92
510.42	29661.61
510.60	29560.97
510.77	29731.83
510.95	30410.58
511.12	29832.47
511.30	30277.17
511.47	30225.68
511.64	30139.08
511.82	30536.97
511.99	30223.34
512.17	30532.29
512.34	30340.36
512.51	30497.18
512.69	31030.82
512.86	30443.35
513.04	30756.98
513.21	30939.54
513.38	31089.34
513.56	31218.07
513.73	31178.28
513.90	30986.35
514.08	31147.85
514.25	31599.57
514.43	31775.11
514.60	31531.70
514.77	31428.71
514.95	31847.67
515.12	31559.78
515.29	31590.21
515.47	32336.84
515.64	31850.01
515.81	32156.62
515.99	32053.64
516.16	32400.04
516.33	32435.14
516.51	32362.59
516.68	32325.14
516.85	32631.75
517.03	32933.68
517.20	32842.40
517.37	32833.04
517.54	32727.71
517.72	32708.99
517.89	33134.96
518.06	32851.76
518.24	33024.96
518.41	33036.66
518.58	32992.19
518.75	32826.01
518.93	33450.94
519.10	33149.01
519.27	33333.91
519.45	33369.02
519.62	33731.80
519.79	33415.83
519.96	34188.21
520.14	33780.95
520.31	33879.25
520.48	33902.66
520.65	34309.91
520.83	34433.96
521.00	34478.43
521.17	34099.26
521.34	34333.32
521.52	34436.30
521.69	34747.59
521.86	34614.18
522.03	34703.12
522.20	35047.18
522.38	34768.66
522.55	35093.99
522.72	34651.63
522.89	35159.53
523.07	35498.91
523.24	35283.58
523.41	35431.03
523.58	35494.22
523.75	35269.53
523.92	35412.31
524.10	35145.48
524.27	36027.87
524.44	35491.88
524.61	35955.31
524.78	35316.34
524.96	35924.88
525.13	35789.13
525.30	36313.41
525.47	36287.67
525.64	36128.51
525.81	36147.23
525.98	36231.49
526.16	36231.49
526.33	36362.56
526.50	36863.44
526.67	36383.63
526.84	36423.42
527.01	36685.56
527.18	37003.87
527.36	36369.58
527.53	36959.40
527.70	37294.10
527.87	37167.71
528.04	36519.38
528.21	37148.98
528.38	36818.97
528.55	37359.63
528.72	37146.64
528.89	37053.02
529.07	37071.75
529.24	37233.24
529.41	37261.33
529.58	37837.10
529.75	37113.87
529.92	37694.33
530.09	37411.12
530.26	37256.65
530.43	37734.12
530.60	37701.35
530.77	37455.59
530.94	37993.92
531.11	37764.54
531.28	38312.23
531.46	38457.34
531.63	38078.18
531.80	38309.89
531.97	38232.65
532.14	38433.94
532.31	38183.50
532.48	38749.91
532.65	38665.65
532.82	38328.61
532.99	38794.38
533.16	38532.24
533.33	38920.77
533.50	38679.69
533.67	38433.94
533.84	38653.95
534.01	38946.51
534.18	38490.11
534.35	39330.36
534.52	38969.92
534.69	39353.77
534.86	39620.59
535.03	38976.94
535.20	39313.98
535.37	39728.25
535.54	39627.61
535.71	39157.16
535.88	39777.40
536.05	39908.47
536.22	40062.95
536.38	39428.66
536.55	39805.49
536.72	39709.53
536.89	39569.10
537.06	39842.94
537.23	40140.19
537.40	39878.05
537.57	39941.24
537.74	40011.46
537.91	40343.81
538.08	40105.08
538.25	39798.47
538.42	40060.61
538.59	40596.59
538.75	40048.91
538.92	40552.12
539.09	40847.03
539.26	40769.79
539.43	40758.09
539.60	40755.75
539.77	40350.84
539.94	40779.15
540.11	41020.23
540.28	40875.12
540.44	40842.35
540.61	41020.23
540.78	40797.88
540.95	40582.55
541.12	40896.18
541.29	40947.67
541.46	40910.22
541.62	41106.83
541.79	41378.33
541.96	41097.47
542.13	40905.54
542.30	41483.66
542.47	41563.23
542.63	40987.46
542.80	41734.09
542.97	41890.91
543.14	41883.89
543.31	41467.27
543.48	42071.13
543.64	42251.35
543.81	42017.30
543.98	41972.83
544.15	42031.34
544.32	42525.19
544.48	42534.56
544.65	42363.70
544.82	42012.62
544.99	41944.74
545.16	42419.87
545.32	42714.78
545.49	42864.57
545.66	42916.06
545.83	42630.52
546.00	42733.50
546.16	42424.55
546.33	42382.42
546.50	42483.06
546.67	42525.19
546.83	42487.74
547.00	42639.88
547.17	42529.87
547.34	42902.02
547.50	42983.94
547.67	43253.10
547.84	43103.31
548.00	42927.77
548.17	43856.96
548.34	43569.07
548.51	43309.27
548.67	43688.44
548.84	43196.93
549.01	43590.14
549.18	43140.75
549.34	42862.23
549.51	43847.60
549.68	43679.08
549.84	43419.28
550.01	43650.99
550.18	42923.08
550.34	43697.80
550.51	43381.83
550.68	44020.80
550.84	43608.86
551.01	43817.17
551.18	43686.10
551.34	43662.69
551.51	44275.91
551.68	43814.83
551.84	44083.99
552.01	44053.56
552.18	43950.58
552.34	44060.58
552.51	43803.13
552.68	43620.56
552.84	44247.83
553.01	44074.63
553.18	44034.84
553.34	44406.98
553.51	44301.66
553.67	44318.04
553.84	44294.64
554.01	44535.71
554.17	44435.07
554.34	44622.31
554.51	44320.38
554.67	44488.90
554.84	44830.62
555.00	44172.93
555.17	44184.63
555.33	44612.95
555.50	45153.62
555.67	44502.95
555.83	44584.86
556.00	45085.74
556.16	45027.23
556.33	45219.15
556.50	44617.63
556.66	45291.71
556.83	44657.42
556.99	45172.34
557.16	45235.53
557.32	45256.60
557.49	45219.15
557.65	45146.59
557.82	45317.45
557.98	44959.35
558.15	45116.17
558.32	45542.14
558.48	45464.91
558.65	45352.56
558.81	44989.78
558.98	45186.38
559.14	45141.91
559.31	45095.10
559.47	45050.63
559.64	45310.43
559.80	45347.88
559.97	45015.52
560.13	44868.07
560.30	45471.93
560.46	45886.20
560.63	45715.34
560.79	45462.57
560.96	45888.54
561.12	45965.78
561.29	45663.85
561.45	45853.44
561.61	45757.47
561.78	45900.25
561.94	45808.96
562.11	45897.91
562.27	45401.71
562.44	45792.58
562.60	45603.00
562.77	45958.76
562.93	45806.62
563.10	46010.25
563.26	45921.31
563.42	46391.76
563.59	45991.53
563.75	45947.06
563.92	45984.51
564.08	45750.45
564.24	45996.21
564.41	45776.20
564.57	46213.88
564.74	46256.01
564.90	45979.82
565.07	46082.81
565.23	45923.65
565.39	45909.61
565.56	46040.68
565.72	46202.18
565.88	46089.83
566.05	46206.86
566.21	45947.06
566.38	46340.27
566.54	46457.29
566.70	46483.04
566.87	46536.87
567.03	46417.50
567.19	46480.70
567.36	46131.96
567.52	46279.41
567.68	46504.10
567.85	46499.42
568.01	46541.55
568.17	46611.77
568.34	46700.71
568.50	46511.13
568.66	46087.49
568.83	46593.04
568.99	46712.41
569.15	46375.37
569.32	46607.09
569.48	46637.51
569.64	46759.22
569.81	46696.03
569.97	46590.70
570.13	46653.90
570.30	46508.79
570.46	46843.48
570.62	46520.49
570.78	46611.77
570.95	46686.67
571.11	46983.91
571.27	46803.69
571.43	46433.89
571.60	46536.87
571.76	46284.09
571.92	46522.83
572.09	46726.46
572.25	46689.01
572.41	46646.88
572.57	47009.66
572.74	46990.94
572.90	46967.53
573.06	47227.33
573.22	47100.94
573.38	46923.06
573.55	47037.75
573.71	47316.27
573.87	47065.83
574.03	46759.22
574.20	47107.96
574.36	47152.43
574.52	46979.23
574.68	46976.89
574.84	47217.97
575.01	47332.65
575.17	47072.85
575.33	47049.45
575.49	46941.78
575.65	47269.46
575.82	47290.52
575.98	46997.96
576.14	47070.51
576.30	47159.45
576.46	46986.25
576.62	47131.37
576.79	47229.67
576.95	46658.58
577.11	46733.48
577.27	47232.01
577.43	46829.44
577.59	47330.31
577.75	46890.29
577.92	46990.94
578.08	47068.17
578.24	46976.89
578.40	47454.36
578.56	47419.25
578.72	47129.03
578.88	47381.80
579.04	47332.65
579.21	46920.72
579.37	47655.65
579.53	47433.30
579.69	46946.47
579.85	47100.94
580.01	46979.23
580.17	47004.98
580.33	47374.78
580.49	47126.69
580.65	47194.56
580.82	46906.68
580.98	47105.62
581.14	47042.43
581.30	47131.37
581.46	47068.17
581.62	46845.82
581.78	46902.00
581.94	47346.70
582.10	46923.06
582.26	47084.56
582.42	47433.30
582.58	47042.43
582.74	47159.45
582.90	47246.05
583.06	47426.28
583.22	47016.68
583.38	47824.17
583.54	47585.43
583.70	47171.16
583.86	47299.89
584.02	47299.89
584.18	47459.04
584.34	47737.57
584.50	47409.89
584.66	47323.29
584.82	47629.90
584.98	47615.86
585.14	47744.59
585.30	47239.03
585.46	47143.07
585.62	47402.87
585.78	47374.78
585.94	46995.62
586.10	47288.18
586.26	46838.80
586.42	47342.02
586.58	47367.76
586.74	47650.97
586.90	47248.39
587.06	47496.49
587.22	47665.01
587.38	46962.85
587.54	47526.92
587.70	47426.28
587.86	47873.32
588.02	47297.55
588.18	47339.68
588.34	47402.87
588.49	47278.82
588.65	47363.08
588.81	47625.22
588.97	47922.47
589.13	47587.77
589.29	47337.33
589.45	47702.46
589.61	47985.66
589.77	47646.29
589.93	47721.18
590.08	47672.03
590.24	48004.39
590.40	48032.47
590.56	47845.23
590.72	48114.39
590.88	47672.03
591.04	47775.02
591.20	47828.85
591.35	48105.03
591.51	48226.74
591.67	48165.88
591.83	47800.76
591.99	47882.68
592.15	47775.02
592.31	47674.37
592.46	47812.46
592.62	47622.88
592.78	48051.20
592.94	48268.87
593.10	48109.71
593.26	48268.87
593.41	48126.10
593.57	47945.87
593.73	48083.97
593.89	48514.62
594.05	48357.81
594.20	47971.62
594.36	48491.22
594.52	48196.31
594.68	47908.43
594.84	48226.74
594.99	48596.54
595.15	48142.48
595.31	48142.48
595.47	47943.53
595.62	48189.29
595.78	47962.26
595.94	48062.90
596.10	48299.30
596.25	48133.12
596.41	48399.94
596.57	47707.14
596.73	48498.24
596.88	48041.84
597.04	48048.86
597.20	48161.20
597.36	47983.32
597.51	48119.07
597.67	47978.64
597.83	48074.60
597.99	48406.96
598.14	47988.00
598.30	47859.27
598.46	48413.98
598.61	48608.25
598.77	47798.42
598.93	48243.12
599.09	48399.94
599.24	47976.30
599.40	48121.41
599.56	48463.13
599.71	48219.72
599.87	48563.78
600.03	48219.72
600.18	48619.95
600.34	48273.55
600.50	48301.64
600.65	48133.12
600.81	48435.05
600.97	48421.00
601.12	48243.12
601.28	48100.35
601.44	48652.72
601.59	48479.52
601.75	48119.07
601.91	48655.06
602.06	48360.15
602.22	47906.08
602.37	48556.75
602.53	48631.65
602.69	48388.24
602.84	48261.85
603.00	48030.13
603.16	48484.20
603.31	48243.12
603.47	48507.60
603.62	48514.62
603.78	48704.21
603.94	48311.00
604.09	48758.04
604.25	48086.31
604.40	48261.85
604.56	48439.73
604.71	48629.31
604.87	47929.49
605.03	47920.13
605.18	48261.85
605.34	48184.61
605.49	48325.04
605.65	48369.51
605.80	48325.04
605.96	47728.20
606.12	48446.75
606.27	48217.38
606.43	47845.23
606.58	48105.03
606.74	48289.93
606.89	48128.44
607.05	48126.10
607.20	48458.45
607.36	48350.79
607.51	48224.40
607.67	48025.45
607.82	47894.38
607.98	48193.97
608.13	48046.52
608.29	48088.65
608.44	47957.58
608.60	48032.47
608.75	48224.40
608.91	48095.67
609.06	47718.84
609.22	48198.65
609.37	48163.54
609.53	47950.56
609.68	47978.64
609.84	47990.34
609.99	47966.94
610.15	48339.08
610.30	48390.58
610.46	47969.28
610.61	47845.23
610.76	48102.69
610.92	47550.32
611.07	47882.68
611.23	47833.53
611.38	47976.30
611.54	47945.87
611.69	47828.85
611.84	47934.17
612.00	48140.14
612.15	47592.45
612.31	47852.25
612.46	47365.42
612.62	47725.86
612.77	47632.24
612.92	47903.74
613.08	47854.59
613.23	47980.98
613.39	47756.29
613.54	47599.47
613.69	47571.39
613.85	47873.32
614.00	47496.49
614.15	47749.27
614.31	47751.61
614.46	46843.48
614.62	47274.14
614.77	47587.77
614.92	47461.38
615.08	47725.86
615.23	48100.35
615.38	48034.81
615.54	47449.68
615.69	47786.72
615.84	47777.36
616.00	47941.19
616.15	47374.78
616.30	47723.52
616.46	47491.81
616.61	47136.05
616.76	47765.65
616.92	47358.40
617.07	47526.92
617.22	47491.81
617.37	46848.16
617.53	47042.43
617.68	47756.29
617.83	47098.60
617.99	47571.39
618.14	47505.85
618.29	47168.82
618.45	46993.28
618.60	46976.89
618.75	46728.80
618.90	47056.47
619.06	47077.54
619.21	47306.91
619.36	47393.51
619.51	46925.40
619.67	46742.84
619.82	46618.79
619.97	47131.37
620.12	46976.89
620.28	47175.84
620.43	47285.84
620.58	46960.51
620.73	46834.12
620.89	47042.43
621.04	47264.78
621.19	46967.53
621.34	47217.97
621.49	46719.43
621.65	46674.96
621.80	47047.11
621.95	46913.70
622.10	47000.30
622.25	46824.76
622.41	46370.69
622.56	46525.17
622.71	46686.67
622.86	46707.73
623.01	46571.98
623.16	46553.26
623.32	46679.64
623.47	46799.01
623.62	46536.87
623.77	46604.75
623.92	46817.74
624.07	46590.70
624.23	47133.71
624.38	46674.96
624.53	46504.10
624.68	46326.22
624.83	46445.59
624.98	46628.15
625.13	46239.62
625.29	45940.04
625.44	46239.62
625.59	46206.86
625.74	46073.45
625.89	46080.47
626.04	46092.17
626.19	46176.43
626.34	46059.40
626.49	46017.27
626.65	46068.76
626.80	46101.53
626.95	45736.41
627.10	45668.53
627.25	45963.44
627.40	45743.43
627.55	45968.12
627.70	45837.05
627.85	45780.88
628.00	46134.30
628.15	46122.60
628.30	45141.91
628.45	45670.87
628.60	45404.05
628.76	45642.79
628.91	45525.76
629.06	45158.30
629.21	45127.87
629.36	44989.78
629.51	45390.01
629.66	46106.21
629.81	45670.87
629.96	45406.39
630.11	45354.90
630.26	45226.17
630.41	45301.07
630.56	45528.10
630.71	45502.35
630.86	45029.57
631.01	45092.76
631.16	45425.12
631.31	45418.10
631.46	45109.14
631.61	45254.26
631.76	45509.38
631.91	45446.18
632.06	45663.85
632.21	45729.39
632.36	45418.10
632.51	44772.11
632.66	45326.81
632.81	45237.87
632.96	44992.12
633.10	45219.15
633.25	44959.35
633.40	45074.04
633.55	45415.76
633.70	44556.78
633.85	44725.30
634.00	44601.25
634.15	45364.26
634.30	44940.63
634.45	44875.09
634.60	44879.77
634.75	44886.79
634.90	44816.58
635.05	44828.28
635.19	44964.03
635.34	45003.82
635.49	45029.57
635.64	44903.18
635.79	44940.63
635.94	44453.79
636.09	45024.89
636.24	44671.46
636.39	44753.38
636.53	45071.70
636.68	44346.13
636.83	44231.44
636.98	44374.22
637.13	44137.82
637.28	44196.34
637.43	44348.47
637.57	44385.92
637.72	44062.93
637.87	44477.20
638.02	44432.73
638.17	43632.27
638.32	44044.20
638.46	43880.36
638.61	43990.37
638.76	43679.08
638.91	44142.50
639.06	43817.17
639.20	43824.19
639.35	43749.29
639.50	44128.46
639.65	44219.74
639.80	43985.69
639.94	43983.35
640.09	44135.48
640.24	44123.78
640.39	43543.33
640.54	44093.35
640.68	43761.00
640.83	44252.51
640.98	43917.81
641.13	43438.00
641.27	44205.70
641.42	43735.25
641.57	43583.12
641.72	44046.54
641.86	44041.86
642.01	43367.79
642.16	43681.42
642.31	43227.35
642.45	43796.10
642.60	43428.64
642.75	43370.13
642.90	43676.74
643.04	43672.06
643.19	43524.60
643.34	43047.13
643.48	42946.49
643.63	43154.80
643.78	42902.02
643.93	43346.72
644.07	43126.71
644.22	43049.47
644.37	42822.44
644.51	43070.54
644.66	43325.66
644.81	43049.47
644.95	43077.56
645.10	43225.01
645.25	43206.29
645.39	42712.44
645.54	43005.00
645.69	42810.74
645.83	42700.73
645.98	42677.33
646.13	42972.24
646.27	43000.32
646.42	42286.46
646.57	43068.20
646.71	42986.28
646.86	42965.21
647.00	42780.31
647.15	42997.98
647.30	42946.49
647.44	42848.19
647.59	42923.08
647.74	42478.38
647.88	42546.26
648.03	42593.07
648.17	43100.97
648.32	42892.66
648.47	42934.79
648.61	42604.77
648.76	42230.29
648.90	42087.51
649.05	42263.05
649.20	42330.93
649.34	42277.10
649.49	42649.24
649.63	42377.74
649.78	42412.85
649.92	42424.55
650.07	42787.33
650.21	42504.13
650.36	42602.43
650.51	42560.30
650.65	42363.70
650.80	42541.58
650.94	42281.78
651.09	42190.50
651.23	41673.24
651.38	41776.22
651.52	41687.28
651.67	41907.29
651.81	41977.51
651.96	41956.44
652.10	41731.75
652.25	41668.56
652.39	41649.83
652.54	41937.72
652.68	41844.10
652.83	41839.42
652.97	42017.30
653.12	41848.78
653.26	41427.48
653.41	41844.10
653.55	41977.51
653.70	41958.78
653.84	41621.75
653.99	41493.02
654.13	41649.83
654.27	41535.15
654.42	41593.66
654.56	41158.32
654.71	41904.95
654.85	41565.57
655.00	41312.80
655.14	41455.57
655.29	41471.95
655.43	41858.14
655.57	41265.99
655.72	41254.28
655.86	41586.64
656.01	40737.02
656.15	40978.10
656.30	41359.61
656.44	41586.64
656.58	41202.79
656.73	41214.49
656.87	40973.42
657.01	40556.80
657.16	41067.04
657.30	41041.29
657.45	40807.24
657.59	40421.05
657.73	40414.03
657.88	40587.23
658.02	41060.02
658.16	41237.90
658.31	40715.96
658.45	40912.56
658.60	40914.90
658.74	40435.10
658.88	41048.32
659.03	40254.87
659.17	39962.31
659.31	40289.98
659.46	40016.14
659.60	40641.06
659.74	40416.37
659.89	40229.13
660.03	40189.34
660.17	40072.31
660.32	40446.80
660.46	40282.96
660.60	39768.04
660.74	40072.31
660.89	39835.92
661.03	39887.41
661.17	39807.83
661.32	39379.51
661.46	39592.50
661.60	39597.18
661.74	39737.62
661.89	39363.13
662.03	39440.37
662.17	39353.77
662.31	39651.02
662.46	39529.31
662.60	39323.34
662.74	39536.33
662.88	38955.88
663.03	38813.10
663.17	39159.50
663.31	38511.17
663.45	39175.89
663.60	39309.30
663.74	39232.06
663.88	38412.87
664.02	38817.78
664.17	38827.15
664.31	38548.62
664.45	38576.71
664.59	38300.53
664.73	38803.74
664.88	38768.63
665.02	38349.68
665.16	38410.53
665.30	38717.14
665.44	38557.99
665.59	38003.28
665.73	38174.14
665.87	37600.71
666.01	37902.64
666.15	37724.75
666.29	38075.84
666.44	38061.79
666.58	38139.03
666.72	37656.88
666.86	37390.06
667.00	37633.47
667.14	37649.86
667.28	37331.54
667.43	37727.10
667.57	37589.00
667.71	37350.27
667.85	37605.39
667.99	37240.26
668.13	37373.67
668.27	37076.43
668.41	37270.69
668.56	37053.02
668.70	36713.64
668.84	37050.68
668.98	36460.87
669.12	36690.24
669.26	36947.70
669.40	36589.59
669.54	36818.97
669.68	36547.47
669.82	36772.16
669.96	36460.87
670.10	36360.22
670.25	36140.21
670.39	36123.83
670.53	36577.89
670.67	36416.40
670.81	36439.80
670.95	35948.29
671.09	35786.79
671.23	35498.91
671.37	36062.97
671.51	35550.40
671.65	35789.13
671.79	35550.40
671.93	35854.67
672.07	35868.71
672.21	35227.40
672.35	35037.82
672.49	35367.84
672.63	35299.96
672.77	35026.12
672.91	35138.46
673.05	34705.46
673.19	34696.10
673.33	34817.81
673.47	34623.54
673.61	34490.13
673.75	34469.07
673.89	34712.49
674.03	33853.51
674.17	34401.19
674.31	33954.15
674.45	33961.17
674.59	33869.89
674.73	33909.68
674.87	33603.07
675.01	33251.99
675.15	33256.67
675.29	33298.80
675.43	33284.76
675.56	34033.73
675.70	33397.10
675.84	33130.28
675.98	32086.40
676.12	33366.68
676.26	32905.59
676.40	33111.56
676.54	32713.67
676.68	32563.87
676.82	32229.18
676.96	32947.72
677.10	32671.54
677.23	32196.41
677.37	32191.73
677.51	32170.66
677.65	32147.26
677.79	32280.67
677.93	31812.56
678.07	31725.96
678.21	31400.63
678.34	30998.06
678.48	31400.63
678.62	31351.48
678.76	31550.42
678.90	31299.98
679.04	31683.83
679.18	31192.32
679.31	30995.71
679.45	30752.30
679.59	30426.96
679.73	31042.53
679.87	30464.41
680.00	30471.43
680.14	30602.50
680.28	30551.01
680.42	30164.82
680.56	30195.25
680.70	30033.75
680.83	29757.57
680.97	29780.98
681.11	29727.14
681.25	29635.86
681.39	29362.02
681.52	29460.32
681.66	29184.14
681.80	28907.96
681.94	29017.96
682.07	28774.55
682.21	28914.98
682.35	28800.29
682.49	28774.55
682.62	28556.88
682.76	29076.48
682.90	28531.13
683.04	28250.27
683.17	28147.28
683.31	28025.57
683.45	27735.35
683.59	27969.40
683.72	27704.92
683.86	27538.74
684.00	27835.99
684.13	27817.27
684.27	27543.42
684.41	27297.67
684.55	27342.14
684.68	27363.20
684.82	26717.22
684.96	27117.45
685.09	26909.14
685.23	26991.06
685.37	26948.93
685.50	27583.21
685.64	27023.83
685.78	26307.62
685.91	26153.15
686.05	26253.79
686.19	25589.08
686.32	25867.60
686.46	25834.83
686.60	25511.84
686.73	25834.83
686.87	25532.90
687.01	25956.54
687.14	25736.53
687.28	25085.86
687.42	25408.86
687.55	24966.49
687.69	25027.35
687.82	25137.35
687.96	24755.85
688.10	24884.58
688.23	24666.91
688.37	24638.82
688.50	24744.14
688.64	24816.70
688.78	24648.18
688.91	24615.41
689.05	24030.28
689.18	23761.12
689.32	23658.14
689.46	23473.23
689.59	23821.97
689.73	24229.23
689.86	23758.78
690.00	23468.55
690.13	23737.71
690.27	23248.54
690.41	23613.66
690.54	23351.52
690.68	23012.15
690.81	22803.84
690.95	22607.23
691.08	22637.66
691.22	22607.23
691.35	22476.16
691.49	23000.44
691.62	22515.95
691.76	22050.19
691.89	22382.54
692.03	22036.14
692.16	21888.69
692.30	22078.27
692.43	21675.70
692.57	21804.43
692.70	21568.04
692.84	21565.70
692.97	21406.54
693.11	21781.03
693.24	21104.61
693.38	21261.43
693.51	20929.07
693.65	20788.64
693.78	21025.03
693.92	20716.08
694.05	20971.20
694.19	20732.47
694.32	20514.80
694.45	20680.97
694.59	20479.69
694.72	20610.76
694.86	20301.81
694.99	19948.39
695.13	19934.34
695.26	19829.02
695.39	19536.45
695.53	19847.74
695.66	19714.33
695.80	19737.74
695.93	19569.22
696.07	19304.74
696.20	19309.42
696.33	19206.44
696.47	18946.64
696.60	19180.69
696.73	19136.22
696.87	19007.49
697.00	18874.08
697.14	18658.75
697.27	18658.75
697.40	18693.86
697.54	18520.66
697.67	18398.95
697.80	18342.78
697.94	18253.84
698.07	18256.18
698.21	18033.83
698.34	18017.44
698.47	18171.92
698.61	17724.88
698.74	17572.74
698.87	17748.28
699.01	17579.76
699.14	17561.04
699.27	17570.40
699.40	17495.50
699.54	16987.61
699.67	17366.78
699.80	17280.18
699.94	17062.51
700.07	17139.74
700.20	16718.45
700.34	16781.64
700.47	16884.62
700.60	16936.12
700.73	16526.52
700.87	16666.95
701.00	16418.86
701.13	16339.28
701.26	16091.18
701.40	16219.91
701.53	15929.69
701.66	16077.14
701.79	15922.66
701.93	15672.23
702.06	15452.22
702.19	15372.64
702.32	15674.57
702.46	15571.58
702.59	15641.80
702.72	15559.88
702.85	15339.87
702.99	15477.96
703.12	15152.63
703.25	15161.99
703.38	14850.70
703.51	14918.57
703.65	14892.83
703.78	14824.95
703.91	14698.56
704.04	14450.47
704.17	14595.58
704.31	14485.58
704.44	14801.55
704.57	14490.26
704.70	14265.57
704.83	14047.90
704.96	13949.59
705.10	14122.79
705.23	13834.91
>>>>>End Processed Spectral Data<<<<<
