SpectraSuite Data File
++++++++++++++++++++++++++++++++++++
Date: Fri Oct 25 10:48:33 EDT 2013
User: price-jones
Dark Spectrum Present: No
Reference Spectrum Present: No
Number of Sampled Component Spectra: 1
Spectrometers: USB2+H05261
Integration Time (usec): 100000 (USB2+H05261)
Spectra Averaged: 1 (USB2+H05261)
Boxcar Smoothing: 0 (USB2+H05261)
Correct for Electrical Dark: No (USB2+H05261)
Strobe/Lamp Enabled: No (USB2+H05261)
Correct for Detector Non-linearity: No (USB2+H05261)
Correct for Stray Light: No (USB2+H05261)
Number of Pixels in Processed Spectrum: 2048
>>>>>Begin Processed Spectral Data<<<<<
365.73	152.13
365.92	152.13
366.12	152.13
366.32	51.49
366.52	35.11
366.72	16.38
366.91	79.58
367.11	58.51
367.31	84.26
367.51	72.56
367.70	98.30
367.90	93.62
368.10	30.43
368.30	117.03
368.49	25.75
368.69	110.01
368.89	128.73
369.09	63.19
369.28	39.79
369.48	142.77
369.68	105.32
369.87	84.26
370.07	166.18
370.27	147.45
370.47	227.03
370.66	421.30
370.86	475.13
371.06	393.21
371.25	540.66
371.45	454.06
371.65	475.13
371.84	454.06
372.04	395.55
372.24	533.64
372.44	505.56
372.63	589.82
372.83	592.16
373.03	547.69
373.22	535.98
373.42	554.71
373.62	589.82
373.81	655.35
374.01	589.82
374.21	653.01
374.40	531.30
374.60	606.20
374.79	575.77
374.99	575.77
375.19	606.20
375.38	629.60
375.58	594.50
375.78	603.86
375.97	608.54
376.17	638.97
376.37	578.11
376.56	643.65
376.76	634.29
376.95	655.35
377.15	664.71
377.35	713.86
377.54	702.16
377.74	711.52
377.93	690.46
378.13	599.18
378.33	732.59
378.52	683.44
378.72	678.76
378.91	730.25
379.11	720.88
379.31	657.69
379.50	655.35
379.70	704.50
379.89	720.88
380.09	692.80
380.28	706.84
380.48	676.41
380.68	711.52
380.87	781.74
381.07	695.14
381.26	763.01
381.46	786.42
381.65	772.38
381.85	770.04
382.04	706.84
382.24	699.82
382.43	753.65
382.63	667.05
382.83	800.46
383.02	774.72
383.22	823.87
383.41	772.38
383.61	793.44
383.80	858.98
384.00	870.68
384.19	835.57
384.39	770.04
384.58	898.77
384.78	861.32
384.97	798.12
385.17	833.23
385.36	800.46
385.56	884.72
385.75	866.00
385.95	835.57
386.14	910.47
386.34	915.15
386.53	870.68
386.72	894.08
386.92	926.85
387.11	847.27
387.31	868.34
387.50	877.70
387.70	798.12
387.89	840.25
388.09	990.05
388.28	1018.13
388.48	950.26
388.67	903.45
388.86	980.68
389.06	933.87
389.25	987.71
389.45	1048.56
389.64	1015.79
389.84	1090.69
390.03	1039.20
390.22	1015.79
390.42	1041.54
390.61	1121.12
390.81	1083.67
391.00	1088.35
391.19	1156.22
391.39	1048.56
391.58	1102.39
391.78	1149.20
391.97	1111.75
392.16	1086.01
392.36	1111.75
392.55	1069.62
392.75	1100.05
392.94	1086.01
393.13	1064.94
393.33	1043.88
393.52	1167.93
393.71	1146.86
393.91	1123.46
394.10	1259.21
394.29	1205.38
394.49	1221.76
394.68	1359.85
394.88	1299.00
395.07	1210.06
395.26	1308.36
395.46	1270.91
395.65	1193.67
395.84	1348.15
396.04	1320.06
396.23	1233.46
396.42	1158.57
396.62	1249.85
396.81	1301.34
397.00	1291.98
397.19	1385.60
397.39	1327.08
397.58	1357.51
397.77	1453.47
397.97	1409.00
398.16	1430.07
398.35	1535.39
398.55	1523.69
398.74	1568.16
398.93	1661.78
399.12	1605.61
399.32	1584.54
399.51	1446.45
399.70	1579.86
399.90	1643.06
400.09	1734.34
400.28	1715.61
400.47	1753.06
400.67	1696.89
400.86	1741.36
401.05	1809.23
401.24	1762.42
401.44	1818.60
401.63	1811.57
401.82	1776.47
402.01	1722.63
402.21	1809.23
402.40	1895.83
402.59	1790.51
402.78	1764.76
402.97	1785.83
403.17	1727.32
403.36	1830.30
403.55	1881.79
403.74	1947.33
403.93	1872.43
404.13	1977.75
404.32	1947.33
404.51	1987.11
404.70	2005.84
404.89	1930.94
405.09	2057.33
405.28	2155.63
405.47	2092.44
405.66	2017.54
405.85	2108.82
406.05	2003.50
406.24	2033.93
406.43	2045.63
406.62	2094.78
406.81	2202.44
407.00	2139.25
407.20	2080.74
407.39	2111.16
407.58	2174.36
407.77	2181.38
407.96	2303.09
408.15	2275.00
408.34	2340.54
408.54	2310.11
408.73	2319.47
408.92	2462.24
409.11	2303.09
409.30	2331.17
409.49	2331.17
409.68	2349.90
409.87	2366.28
410.07	2387.35
410.26	2464.58
410.45	2448.20
410.64	2539.48
410.83	2523.10
411.02	2668.21
411.21	2717.36
411.40	2649.49
411.59	2771.19
411.78	2663.53
411.98	2675.23
412.17	2768.85
412.36	2724.38
412.55	2808.64
412.74	2862.48
412.93	2885.88
413.12	2853.11
413.31	2794.60
413.50	2832.05
413.69	3082.49
413.88	3038.02
414.07	3101.21
414.26	2839.07
414.45	2981.84
414.64	2998.23
414.83	3023.97
415.02	3187.81
415.22	3197.17
415.41	3220.58
415.60	3183.13
415.79	3286.11
415.98	3255.69
416.17	3370.37
416.36	3433.57
416.55	3375.05
416.74	3335.26
416.93	3309.52
417.12	3445.27
417.31	3515.48
417.50	3552.93
417.69	3541.23
417.88	3522.51
418.07	3494.42
418.26	3501.44
418.45	3522.51
418.64	3641.87
418.83	3772.94
419.02	3700.39
419.21	3798.69
419.39	3772.94
419.58	3578.68
419.77	3686.34
419.96	3674.64
420.15	3723.79
420.34	3740.18
420.53	3836.14
420.72	3899.33
420.91	3911.04
421.10	3782.31
421.29	3913.38
421.48	3880.61
421.67	3843.16
421.86	3932.10
422.05	3843.16
422.24	3878.27
422.43	3969.55
422.61	4023.38
422.80	3978.91
422.99	3948.48
423.18	4126.36
423.37	4168.49
423.56	4093.60
423.75	3934.44
423.94	3836.14
424.13	3808.05
424.32	3822.09
424.50	4014.02
424.69	4093.60
424.88	4201.26
425.07	4072.53
425.26	3999.98
425.45	3929.76
425.64	4067.85
425.83	4014.02
426.01	4070.19
426.20	4142.75
426.39	4112.32
426.58	3943.80
426.77	4044.45
426.96	4065.51
427.15	4112.32
427.33	4198.92
427.52	4339.35
427.71	4292.54
427.90	4271.48
428.09	4229.35
428.28	4411.91
428.46	4329.99
428.65	4294.88
428.84	4360.42
429.03	4510.21
429.22	4196.58
429.40	4243.39
429.59	4208.28
429.78	4056.15
429.97	4128.70
430.16	4276.16
430.34	4348.72
430.53	4283.18
430.72	4322.97
430.91	4257.43
431.10	4409.57
431.28	4514.89
431.47	4751.29
431.66	4992.36
431.85	4596.81
432.03	4784.06
432.22	4788.74
432.41	4718.52
432.60	4821.50
432.79	4793.42
432.97	4746.61
433.16	4833.21
433.35	4622.56
433.54	4709.16
433.72	4734.90
433.91	4695.11
434.10	4805.12
434.28	4938.53
434.47	5057.90
434.66	5076.62
434.85	5118.75
435.03	5107.05
435.22	5144.50
435.41	5287.27
435.59	5191.31
435.78	5270.89
435.97	5366.85
436.16	5460.47
436.34	5273.23
436.53	5296.63
436.72	5350.46
436.90	5104.71
437.09	5441.75
437.28	5174.92
437.46	5210.03
437.65	5320.04
437.84	5406.64
438.02	5334.08
438.21	5404.30
438.40	5369.19
438.58	5502.60
438.77	5570.48
438.96	5584.52
439.14	5708.57
439.33	5741.33
439.52	5820.91
439.70	5650.05
439.89	5963.68
440.08	5872.40
440.26	5881.77
440.45	5905.17
440.63	6054.97
440.82	6087.73
441.01	6136.88
441.19	6169.65
441.38	6193.06
441.57	6174.33
441.75	6307.74
441.94	6602.65
442.12	6616.69
442.31	6441.15
442.50	6443.49
442.68	6579.25
442.87	6431.79
443.05	6623.72
443.24	6693.93
443.43	6590.95
443.61	6677.55
443.80	6621.38
443.98	6408.39
444.17	6415.41
444.35	6654.14
444.54	6836.70
444.73	6883.52
444.91	6583.93
445.10	6644.78
445.28	6616.69
445.47	6516.05
445.65	6612.01
445.84	6647.12
446.02	6722.02
446.21	6682.23
446.39	6754.79
446.58	6871.81
446.77	6796.92
446.95	6789.89
447.14	6871.81
447.32	7030.97
447.51	6883.52
447.69	6949.05
447.88	6612.01
448.06	6974.80
448.25	6960.75
448.43	7016.93
448.62	6787.55
448.80	6925.65
448.99	6963.09
449.17	7019.27
449.36	6897.56
449.54	7126.93
449.73	7396.09
449.91	7206.51
450.10	7239.28
450.28	7410.14
450.46	7445.24
450.65	7368.01
450.83	7370.35
451.02	7405.46
451.20	7489.71
451.39	7227.57
451.57	7194.81
451.76	7318.86
451.94	7363.33
452.13	7541.21
452.31	7466.31
452.49	7304.81
452.68	7339.92
452.86	7267.36
453.05	7494.40
453.23	7522.48
453.42	7459.29
453.60	7552.91
453.78	7733.13
453.97	7702.70
454.15	7403.11
454.34	7492.05
454.52	7644.19
454.70	7578.65
454.89	7691.00
455.07	7852.50
455.26	7791.64
455.44	8058.46
455.62	8044.42
455.81	7873.56
455.99	8100.59
456.17	8002.29
456.36	8116.98
456.54	8114.64
456.73	8081.87
456.91	8482.10
457.09	8461.04
457.28	8498.49
457.46	8257.41
457.64	8257.41
457.83	8341.67
458.01	8297.20
458.19	8355.71
458.38	8365.07
458.56	8416.57
458.74	8423.59
458.93	8397.84
459.11	8451.67
459.29	8374.44
459.48	8629.56
459.66	8435.29
459.84	8662.32
460.03	8917.44
460.21	8753.60
460.39	8882.33
460.57	8659.98
460.76	8879.99
460.94	8802.75
461.12	8840.20
461.31	8744.24
461.49	8837.86
461.67	8961.91
461.85	8978.30
462.04	9027.45
462.22	9441.72
462.40	9259.16
462.59	8975.95
462.77	8985.32
462.95	9338.74
463.13	9032.13
463.32	9287.25
463.50	9261.50
463.68	9345.76
463.86	9181.92
464.05	9114.05
464.23	9064.89
464.41	9277.88
464.59	9109.36
464.78	9380.87
464.96	9291.93
465.14	9284.91
465.32	9430.02
465.50	9451.08
465.69	9511.94
465.87	9584.49
466.05	9439.38
466.23	9441.72
466.41	9387.89
466.60	9486.19
466.78	9572.79
466.96	9376.19
467.14	9467.47
467.32	9500.23
467.51	9984.73
467.69	9453.42
467.87	9685.14
468.05	9790.46
468.23	9544.70
468.41	9671.09
468.60	9832.59
468.78	9895.78
468.96	9811.53
469.14	10008.13
469.32	10036.22
469.50	9755.35
469.69	9907.49
469.87	9956.64
470.05	10017.49
470.23	9989.41
470.41	10031.54
470.59	10061.96
470.77	10134.52
470.95	10244.52
471.14	10380.28
471.32	10438.79
471.50	10548.79
471.68	10640.08
471.86	10647.10
472.04	10567.52
472.22	10738.38
472.40	10473.90
472.58	10654.12
472.77	10700.93
472.95	10839.02
473.13	11344.58
473.31	10906.90
473.49	10846.04
473.67	10932.64
473.85	10960.73
474.03	11545.86
474.21	11358.62
474.39	11375.00
474.57	11339.90
474.75	11620.76
474.93	11489.69
475.12	11480.33
475.30	11707.36
475.48	11281.38
475.66	11587.99
475.84	11414.79
476.02	11882.90
476.20	11569.27
476.38	11812.68
476.56	12196.53
476.74	12343.99
476.92	12149.72
477.10	12006.95
477.28	12383.77
477.46	12294.83
477.64	12468.03
477.82	12884.65
478.00	12945.50
478.18	13060.19
478.36	12821.45
478.54	13027.42
478.72	13406.59
478.90	13385.52
479.08	13397.23
479.26	13642.98
479.44	13422.97
479.62	13628.94
479.80	13771.71
479.98	13809.16
480.16	14389.61
480.34	13930.87
480.52	13958.96
480.70	14108.75
480.88	14071.30
481.06	14253.86
481.24	14511.32
481.41	14626.01
481.59	14420.04
481.77	14771.12
481.95	14759.42
482.13	14911.55
482.31	14904.53
482.49	15300.08
482.67	15253.27
482.85	15236.89
483.03	15651.16
483.21	15627.76
483.39	15838.41
483.57	15829.04
483.74	15845.43
483.92	15953.09
484.10	15744.78
484.28	15927.35
484.46	16734.83
484.64	16875.26
484.82	16322.90
485.00	16624.83
485.18	17006.33
485.35	17027.40
485.53	16491.41
485.71	16599.08
485.89	16840.15
486.07	16599.08
486.25	17062.51
486.43	17298.90
486.61	17397.20
486.78	17500.19
486.96	17874.67
487.14	18331.08
487.32	18277.24
487.50	18338.10
487.68	18410.65
487.85	18656.41
488.03	18909.19
488.21	19281.33
488.39	18813.23
488.57	19405.38
488.75	19396.02
488.92	19571.56
489.10	19962.43
489.28	19819.66
489.46	20189.46
489.64	20149.67
489.81	20580.33
489.99	20751.19
490.17	21034.39
490.35	20912.69
490.53	21046.10
490.70	21067.16
490.88	21010.99
491.06	21509.52
491.24	21462.71
491.41	21312.92
491.59	21245.04
491.77	21186.53
491.95	21298.88
492.13	22050.19
492.30	22082.95
492.48	22436.38
492.66	22464.46
492.84	22574.47
493.01	22607.23
493.19	22691.49
493.37	22904.48
493.54	23073.00
493.72	23166.62
493.90	23349.18
494.08	23349.18
494.25	23908.57
494.43	24030.28
494.61	24250.29
494.79	23882.83
494.96	24496.05
495.14	24194.12
495.32	24156.67
495.49	24512.43
495.67	24386.04
495.85	24945.43
496.02	25064.80
496.20	25050.75
496.38	24985.22
496.55	25088.20
496.73	25668.66
496.91	25069.48
497.09	25560.99
497.26	25951.86
497.44	25956.54
497.62	25743.55
497.79	26012.71
497.97	25989.31
498.14	26312.30
498.32	26347.41
498.50	25977.61
498.67	26518.27
498.85	26621.25
499.03	26864.67
499.20	27117.45
499.38	27047.23
499.56	27246.18
499.73	27421.72
499.91	27346.82
500.08	27580.87
500.26	26967.65
500.44	27227.45
500.61	27508.32
500.79	27292.99
500.97	27475.55
501.14	27828.97
501.32	28063.02
501.49	27653.43
501.67	27791.52
501.84	28369.63
502.02	28130.90
502.20	28301.76
502.37	28840.08
502.55	28554.54
502.72	28819.02
502.90	28723.05
503.07	28519.43
503.25	29078.82
503.43	29062.43
503.60	28943.06
503.78	28910.30
503.95	28788.59
504.13	29291.80
504.30	29153.71
504.48	29315.21
504.65	29673.31
504.83	29640.54
505.01	29860.55
505.18	30143.76
505.36	30396.54
505.53	30087.59
505.71	30263.13
505.88	30782.73
506.06	29773.95
506.23	30684.42
506.41	30221.00
506.58	30555.69
506.76	30546.33
506.93	30789.75
507.11	30724.21
507.28	31042.53
507.46	30712.51
507.63	31063.59
507.81	30962.95
507.98	31236.79
508.16	31021.46
508.33	31555.10
508.50	30969.97
508.68	31363.18
508.85	31761.07
509.03	31763.41
509.20	31906.18
509.38	32163.64
509.55	32144.92
509.73	31786.82
509.90	31768.09
510.08	31688.51
510.25	32484.30
510.42	32189.39
510.60	32378.97
510.77	32524.08
510.95	33088.15
511.12	32575.58
511.30	33031.98
511.47	33362.00
511.64	32877.51
511.82	33251.99
511.99	33329.23
512.17	33331.57
512.34	33240.29
512.51	33448.60
512.69	33776.27
512.86	34029.05
513.04	33640.52
513.21	34003.30
513.38	33546.90
513.56	34005.64
513.73	33401.79
513.90	34122.67
514.08	33310.50
514.25	34026.71
514.43	34363.75
514.60	34277.15
514.77	34007.98
514.95	34562.69
515.12	34553.33
515.29	34401.19
515.47	35445.07
515.64	34923.13
515.81	34541.63
515.99	34635.25
516.16	34525.24
516.33	34213.95
516.51	34630.57
516.68	34244.38
516.85	33961.17
517.03	34749.93
517.20	35192.30
517.37	35215.70
517.54	35199.32
517.72	35292.94
517.89	34590.78
518.06	34852.92
518.24	35093.99
518.41	35098.67
518.58	35253.15
518.75	35395.92
518.93	36154.26
519.10	35337.41
519.27	36191.70
519.45	35754.02
519.62	35955.31
519.79	36287.67
519.96	36350.86
520.14	36182.34
520.31	36203.41
520.48	36437.46
520.65	36755.77
520.83	37034.30
521.00	36261.92
521.17	37090.47
521.34	37102.17
521.52	37193.45
521.69	36971.10
521.86	37429.85
522.03	37347.93
522.20	36938.33
522.38	37542.19
522.55	36978.12
522.72	37361.97
522.89	37322.18
523.07	37752.84
523.24	37359.63
523.41	37408.78
523.58	37516.45
523.75	38188.18
523.92	38356.70
524.10	38284.14
524.27	38445.64
524.44	38029.02
524.61	38562.67
524.78	38728.84
524.96	38452.66
525.13	38621.18
525.30	38756.93
525.47	38923.11
525.64	38546.28
525.81	38466.70
525.98	38572.03
526.16	38656.29
526.33	37956.47
526.50	38649.27
526.67	38550.96
526.84	38611.82
527.01	38417.55
527.18	39215.68
527.36	38780.34
527.53	39002.69
527.70	39402.92
527.87	39159.50
528.04	39426.32
528.21	39861.66
528.38	39658.04
528.55	39798.47
528.72	39941.24
528.89	39913.16
529.07	39838.26
529.24	39655.70
529.41	39700.17
529.58	39421.64
529.75	39573.78
529.92	39988.05
530.09	39955.29
530.26	40332.11
530.43	39913.16
530.60	40051.25
530.77	40608.29
530.94	40685.53
531.11	40437.44
531.28	40615.32
531.46	40662.13
531.63	40399.99
531.80	40304.02
531.97	40563.82
532.14	40306.37
532.31	40112.10
532.48	40219.77
532.65	40776.81
532.82	40622.34
532.99	40870.43
533.16	40788.52
533.33	40910.22
533.50	41619.41
533.67	40732.34
533.84	41095.13
534.01	41181.73
534.18	40945.33
534.35	41123.21
534.52	41202.79
534.69	41471.95
534.86	41509.40
535.03	41127.89
535.20	41682.60
535.37	41954.10
535.54	41654.51
535.71	41968.15
535.88	41659.20
536.05	41289.39
536.22	41715.37
536.38	41706.01
536.55	41682.60
536.72	41825.37
536.89	41537.49
537.06	41752.82
537.23	41965.81
537.40	41888.57
537.57	42106.24
537.74	42045.38
537.91	42447.96
538.08	41949.42
538.25	41937.72
538.42	42040.70
538.59	42667.97
538.75	41799.63
538.92	42274.76
539.09	42436.25
539.26	41883.89
539.43	42403.49
539.60	42782.65
539.77	42464.34
539.94	42717.12
540.11	42426.89
540.28	42452.64
540.44	42593.07
540.61	42157.73
540.78	42199.86
540.95	42389.44
541.12	42541.58
541.29	42593.07
541.46	42263.05
541.62	43107.99
541.79	43227.35
541.96	42848.19
542.13	43117.35
542.30	43131.39
542.47	42997.98
542.63	43386.51
542.80	43618.22
542.97	43463.75
543.14	44002.07
543.31	43339.70
543.48	43590.14
543.64	44165.91
543.81	43969.30
543.98	43641.63
544.15	43552.69
544.32	43632.27
544.48	44210.38
544.65	44156.55
544.82	44107.40
544.99	43452.05
545.16	43901.43
545.32	44285.28
545.49	44210.38
545.66	44449.11
545.83	44514.65
546.00	44617.63
546.16	44540.39
546.33	44072.29
546.50	44210.38
546.67	44121.44
546.83	43686.10
547.00	44299.32
547.17	44474.86
547.34	44322.72
547.50	44493.58
547.67	44343.79
547.84	44481.88
548.00	44917.22
548.17	44619.97
548.34	44734.66
548.51	44643.38
548.67	44875.09
548.84	44978.07
549.01	44671.46
549.18	44851.69
549.34	44767.43
549.51	45071.70
549.68	45059.99
549.84	45209.79
550.01	44650.40
550.18	45043.61
550.34	44971.05
550.51	44727.64
550.68	45134.89
550.84	44729.98
551.01	44947.65
551.18	45504.70
551.34	45155.96
551.51	45174.68
551.68	45457.88
551.84	45820.67
552.01	45212.13
552.18	45345.54
552.34	44837.64
552.51	45806.62
552.68	45471.93
552.84	45450.86
553.01	45614.70
553.18	45441.50
553.34	45546.82
553.51	45333.84
553.67	45394.69
553.84	46120.26
554.01	45619.38
554.17	45998.55
554.34	45769.18
554.51	45827.69
554.67	45879.18
554.84	45546.82
555.00	45825.35
555.17	45684.92
555.33	46021.95
555.50	45928.33
555.67	46138.98
555.83	45947.06
556.00	45628.74
556.16	46244.30
556.33	46012.59
556.50	46094.51
556.66	46050.04
556.83	45823.01
556.99	45914.29
557.16	45853.44
557.32	45869.82
557.49	46197.49
557.65	45909.61
557.82	46005.57
557.98	46010.25
558.15	46232.60
558.32	45972.80
558.48	45640.45
558.65	45820.67
558.81	45642.79
558.98	45947.06
559.14	46174.09
559.31	45984.51
559.47	46344.95
559.64	46583.68
559.80	46550.91
559.97	46328.56
560.13	45961.10
560.30	46464.32
560.46	46550.91
560.63	46593.04
560.79	46387.08
560.96	46745.18
561.12	46368.35
561.29	46916.04
561.45	46717.09
561.61	46614.11
561.78	46330.90
561.94	46274.73
562.11	46740.50
562.27	46288.77
562.44	46838.80
562.60	46960.51
562.77	46873.91
562.93	46745.18
563.10	46806.03
563.26	46483.04
563.42	46810.71
563.59	46412.82
563.75	47023.70
563.92	46932.42
564.08	46588.36
564.24	47021.36
564.41	46679.64
564.57	46586.02
564.74	46555.60
564.90	46625.81
565.07	47042.43
565.23	46656.24
565.39	46417.50
565.56	46550.91
565.72	46646.88
565.88	47009.66
566.05	46745.18
566.21	46848.16
566.38	46782.63
566.54	46871.57
566.70	47470.75
566.87	47255.42
567.03	47152.43
567.19	47351.38
567.36	46962.85
567.52	46806.03
567.68	46892.63
567.85	46611.77
568.01	46560.28
568.17	46712.41
568.34	46829.44
568.50	46883.27
568.66	46724.11
568.83	47021.36
568.99	47056.47
569.15	46719.43
569.32	46834.12
569.48	46452.61
569.64	47281.16
569.81	46920.72
569.97	46864.55
570.13	46827.10
570.30	46543.89
570.46	46689.01
570.62	46433.89
570.78	46337.93
570.95	46782.63
571.11	46974.55
571.27	47075.19
571.43	46916.04
571.60	47028.38
571.76	46806.03
571.92	47019.02
572.09	46862.21
572.25	47040.09
572.41	46845.82
572.57	47014.34
572.74	47400.53
572.90	46782.63
573.06	47739.91
573.22	47082.22
573.38	47246.05
573.55	46862.21
573.71	47145.41
573.87	46618.79
574.03	46703.05
574.20	47309.25
574.36	46894.97
574.52	47175.84
574.68	47161.79
574.84	46983.91
575.01	46253.67
575.17	46501.76
575.33	47063.49
575.49	47021.36
575.65	47051.79
575.82	47136.05
575.98	46862.21
576.14	46990.94
576.30	47344.36
576.46	47473.09
576.62	47154.77
576.79	47023.70
576.95	46543.89
577.11	46789.65
577.27	47248.39
577.43	47154.77
577.59	46997.96
577.75	47026.04
577.92	46501.76
578.08	46501.76
578.24	46906.68
578.40	47171.16
578.56	46710.07
578.72	46892.63
578.88	47545.64
579.04	47220.31
579.21	47070.51
579.37	47023.70
579.53	47246.05
579.69	46937.10
579.85	47379.46
580.01	47442.66
580.17	47143.07
580.33	47278.82
580.49	47271.80
580.65	47360.74
580.82	47440.32
580.98	47171.16
581.14	46894.97
581.30	47391.17
581.46	47452.02
581.62	47208.61
581.78	47178.18
581.94	47723.52
582.10	47501.17
582.26	47400.53
582.42	47281.16
582.58	47416.91
582.74	47187.54
582.90	47498.83
583.06	47772.67
583.22	47807.78
583.38	47007.32
583.54	47529.26
583.70	47363.08
583.86	47564.37
584.02	46710.07
584.18	47735.23
584.34	47044.77
584.50	47201.58
584.66	47014.34
584.82	47274.14
584.98	47356.06
585.14	47470.75
585.30	47290.52
585.46	47316.27
585.62	47040.09
585.78	47290.52
585.94	46873.91
586.10	47033.07
586.26	47473.09
586.42	47047.11
586.58	47105.62
586.74	47487.13
586.90	46841.14
587.06	47349.04
587.22	47491.81
587.38	47215.63
587.54	47496.49
587.70	47573.73
587.86	47051.79
588.02	47306.91
588.18	47332.65
588.34	47079.88
588.49	46595.38
588.65	46546.23
588.81	46679.64
588.97	46728.80
589.13	46806.03
589.29	46583.68
589.45	47405.21
589.61	47047.11
589.77	47332.65
589.93	47021.36
590.08	47096.26
590.24	47566.71
590.40	47253.08
590.56	47540.96
590.72	47381.80
590.88	46827.10
591.04	47342.02
591.20	47618.20
591.35	47262.44
591.51	47655.65
591.67	47327.97
591.83	46986.25
591.99	47035.41
592.15	47552.66
592.31	47325.63
592.46	47395.85
592.62	47550.32
592.78	47510.53
592.94	47299.89
593.10	47346.70
593.26	47445.00
593.41	47271.80
593.57	47182.86
593.73	46986.25
593.89	47004.98
594.05	47449.68
594.20	47372.44
594.36	47655.65
594.52	47414.57
594.68	47416.91
594.84	47164.14
594.99	47812.46
595.15	47688.42
595.31	47384.15
595.47	47447.34
595.62	47363.08
595.78	47653.31
595.94	47503.51
596.10	47655.65
596.25	47744.59
596.41	47721.18
596.57	47292.86
596.73	47260.10
596.88	47283.50
597.04	47604.16
597.20	47246.05
597.36	47775.02
597.51	47868.64
597.67	47690.76
597.83	47356.06
597.99	47657.99
598.14	47236.69
598.30	47370.10
598.46	47473.09
598.61	47124.35
598.77	46883.27
598.93	47344.36
599.09	47440.32
599.24	48172.91
599.40	47767.99
599.56	47470.75
599.71	47124.35
599.87	47775.02
600.03	47030.72
600.18	47337.33
600.34	47122.01
600.50	47676.71
600.65	47447.34
600.81	47386.49
600.97	47709.48
601.12	47805.44
601.28	47854.59
601.44	47693.10
601.59	47171.16
601.75	47075.19
601.91	47531.60
602.06	47360.74
602.22	47550.32
602.37	47686.07
602.53	47599.47
602.69	47416.91
602.84	47021.36
603.00	47861.61
603.16	47468.40
603.31	47063.49
603.47	47480.11
603.62	47229.67
603.78	47966.94
603.94	47398.19
604.09	47716.50
604.25	47290.52
604.40	48032.47
604.56	47620.54
604.71	47337.33
604.87	47510.53
605.03	47571.39
605.18	47395.85
605.34	47639.26
605.49	46967.53
605.65	47285.84
605.80	47632.24
605.96	47065.83
606.12	47372.44
606.27	47386.49
606.43	46995.62
606.58	47828.85
606.74	47114.98
606.89	47187.54
607.05	47344.36
607.20	47648.63
607.36	47138.39
607.51	47384.15
607.67	47016.68
607.82	47337.33
607.98	47019.02
608.13	47007.32
608.29	47105.62
608.44	47061.15
608.60	46813.05
608.75	46784.97
608.91	46639.86
609.06	46958.17
609.22	47384.15
609.37	46827.10
609.53	47313.93
609.68	47079.88
609.84	46801.35
609.99	47028.38
610.15	47028.38
610.30	46976.89
610.46	46195.15
610.61	46794.33
610.76	47082.22
610.92	46443.25
611.07	46419.84
611.23	46796.67
611.38	46770.93
611.54	46569.64
611.69	46607.09
611.84	46101.53
612.00	46646.88
612.15	46677.30
612.31	46461.97
612.46	46836.46
612.62	46714.75
612.77	46504.10
612.92	46726.46
613.08	46225.58
613.23	46433.89
613.39	46461.97
613.54	46082.81
613.69	46183.45
613.85	46204.52
614.00	46363.67
614.15	46649.22
614.31	46431.55
614.46	46726.46
614.62	46120.26
614.77	46227.92
614.92	46340.27
615.08	46464.32
615.23	46110.89
615.38	46298.14
615.54	45757.47
615.69	45975.14
615.84	45944.72
616.00	45832.37
616.15	45937.69
616.30	46181.11
616.46	46340.27
616.61	45591.30
616.76	45815.99
616.92	45502.35
617.07	45902.59
617.22	45911.95
617.37	45741.09
617.53	46071.10
617.68	46068.76
617.83	46028.98
617.99	46007.91
618.14	45897.91
618.29	45783.22
618.45	45413.41
618.60	45682.58
618.75	45413.41
618.90	45970.46
619.06	45916.63
619.21	45595.98
619.36	45848.75
619.51	45661.51
619.67	45577.25
619.82	45680.24
619.97	45958.76
620.12	45160.64
620.28	45050.63
620.43	45373.63
620.58	45469.59
620.73	44973.39
620.89	44999.14
621.04	45476.61
621.19	44708.91
621.34	45113.83
621.49	44957.01
621.65	45113.83
621.80	45645.13
621.95	45001.48
622.10	45560.87
622.25	45258.94
622.41	44987.44
622.56	44442.09
622.71	45216.81
622.86	45123.19
623.01	44692.53
623.16	45207.45
623.32	44889.13
623.47	45113.83
623.62	45010.84
623.77	44889.13
623.92	45020.20
624.07	44357.83
624.23	44350.81
624.38	44261.87
624.53	44797.85
624.68	44648.06
624.83	45284.68
624.98	45106.80
625.13	44582.52
625.29	44917.22
625.44	44584.86
625.59	44098.03
625.74	44350.81
625.89	44177.61
626.04	44399.96
626.19	44524.01
626.34	44245.49
626.49	44411.67
626.65	44568.48
626.80	44353.15
626.95	43910.79
627.10	44161.23
627.25	43732.91
627.40	43533.96
627.55	43585.46
627.70	42953.51
627.85	43611.20
628.00	43861.64
628.15	44121.44
628.30	43440.34
628.45	43812.49
628.60	43927.17
628.76	43885.04
628.91	44177.61
629.06	43650.99
629.21	43775.04
629.36	43730.57
629.51	43470.77
629.66	43393.53
629.81	43480.13
629.96	43601.84
630.11	43569.07
630.26	43613.54
630.41	43480.13
630.56	43548.01
630.71	43065.86
630.86	43599.50
631.01	43716.53
631.16	43136.07
631.31	43047.13
631.46	42834.14
631.61	43580.78
631.76	43199.27
631.91	43274.16
632.06	43494.18
632.21	43580.78
632.36	43812.49
632.51	43047.13
632.66	43140.75
632.81	42838.83
632.96	42904.36
633.10	42670.31
633.25	42976.92
633.40	42993.30
633.55	43423.96
633.70	43016.71
633.85	42761.59
634.00	42742.86
634.15	42997.98
634.30	42946.49
634.45	42955.85
634.60	42792.01
634.75	42663.28
634.90	42808.40
635.05	42859.89
635.19	42501.79
635.34	43150.12
635.49	42543.92
635.64	42478.38
635.79	42092.19
635.94	42401.14
636.09	42934.79
636.24	42354.33
636.39	42309.86
636.53	42253.69
636.68	41769.20
636.83	42078.15
636.98	42253.69
637.13	41806.65
637.28	42466.68
637.43	42162.41
637.57	42822.44
637.72	42710.10
637.87	42756.91
638.02	42876.27
638.17	42176.45
638.32	42153.05
638.46	42284.12
638.61	41872.18
638.76	41745.80
638.91	42239.65
639.06	41897.93
639.20	42089.85
639.35	42050.06
639.50	41909.63
639.65	42050.06
639.80	41757.50
639.94	42036.02
640.09	41881.55
640.24	41038.95
640.39	41242.58
640.54	41340.88
640.68	41663.88
640.83	41673.24
640.98	41727.07
641.13	41734.09
641.27	41698.98
641.42	41273.01
641.57	41333.86
641.72	40980.44
641.86	41214.49
642.01	41097.47
642.16	41221.52
642.31	40982.78
642.45	41155.98
642.60	40968.74
642.75	40872.78
642.90	41446.21
643.04	41071.72
643.19	41326.84
643.34	41347.90
643.48	41228.54
643.63	40917.25
643.78	40964.06
643.93	41027.25
644.07	41043.63
644.22	40744.05
644.37	40355.52
644.51	40634.04
644.66	40994.48
644.81	40985.12
644.95	41078.74
645.10	41212.15
645.25	41060.02
645.39	41104.49
645.54	41137.26
645.69	40840.01
645.83	40741.71
645.98	40950.01
646.13	41062.36
646.27	40879.80
646.42	40671.49
646.57	40439.78
646.71	40275.94
646.86	40081.67
647.00	40577.87
647.15	40332.11
647.30	40460.84
647.44	40580.21
647.59	40648.08
647.74	40032.52
647.88	40084.01
648.03	39990.39
648.17	40062.95
648.32	39810.17
648.47	40638.72
648.61	40032.52
648.76	40278.28
648.90	40481.91
649.05	40364.88
649.20	40079.33
649.34	40772.13
649.49	39988.05
649.63	40229.13
649.78	40215.08
649.92	39938.90
650.07	40027.84
650.21	39379.51
650.36	39985.71
650.51	40044.23
650.65	40566.16
650.80	40339.13
650.94	40016.14
651.09	39901.45
651.23	39988.05
651.38	40069.97
651.52	39299.94
651.67	39718.89
651.81	39751.66
651.96	39473.13
652.10	39721.23
652.25	39014.39
652.39	39751.66
652.54	39215.68
652.68	40016.14
652.83	39295.25
652.97	39674.42
653.12	39625.27
653.26	39491.86
653.41	39613.57
653.55	39246.10
653.70	39510.58
653.84	39208.65
653.99	39405.26
654.13	39316.32
654.27	39189.93
654.42	39292.91
654.56	39079.92
654.71	39037.80
654.85	39075.24
655.00	39126.74
655.14	38658.63
655.29	38117.96
655.43	38604.80
655.57	38916.09
655.72	38602.46
655.86	38150.73
656.01	38356.70
656.15	38401.17
656.30	38340.32
656.44	37965.83
656.58	38433.94
656.73	38417.55
656.87	38623.52
657.01	38433.94
657.16	38368.40
657.30	38178.82
657.45	38225.63
657.59	38424.57
657.73	38384.79
657.88	38277.12
658.02	38366.06
658.16	38398.83
658.31	38670.33
658.45	38462.02
658.60	38110.94
658.74	38326.27
658.88	38501.81
659.03	38209.25
659.17	37933.06
659.31	37773.91
659.46	37729.44
659.60	37699.01
659.74	38059.45
659.89	37488.36
660.03	37834.76
660.17	37846.46
660.32	37790.29
660.46	37895.61
660.60	37813.70
660.74	37567.94
660.89	37427.51
661.03	36992.17
661.17	37378.36
661.32	37167.71
661.46	37301.12
661.60	37006.21
661.74	37333.89
661.89	37195.79
662.03	37399.42
662.17	37397.08
662.31	37212.18
662.46	37099.83
662.60	37195.79
662.74	37324.52
662.88	36825.99
663.03	36708.96
663.17	36662.15
663.31	36428.10
663.45	36718.32
663.60	36718.32
663.74	36521.72
663.88	36264.26
664.02	36266.60
664.17	36336.82
664.31	36051.27
664.45	36278.30
664.59	36453.84
664.73	36194.04
664.88	36287.67
665.02	35786.79
665.16	36362.56
665.30	36273.62
665.44	36416.40
665.59	35718.92
665.73	35835.94
665.87	35377.20
666.01	35831.26
666.15	35742.32
666.29	35810.20
666.44	35831.26
666.58	35840.62
666.72	35969.35
666.86	35791.47
667.00	35826.58
667.14	35267.19
667.28	35306.98
667.43	35131.44
667.57	35267.19
667.71	34937.18
667.85	35014.41
667.99	35126.76
668.13	34710.14
668.27	34792.06
668.41	34909.09
668.56	34817.81
668.70	35388.90
668.84	34380.13
668.98	35115.06
669.12	34969.94
669.26	34621.20
669.40	34536.94
669.54	34401.19
669.68	34141.39
669.82	34518.22
669.96	34195.23
670.10	33867.55
670.25	34323.96
670.39	34185.86
670.53	34066.50
670.67	33961.17
670.81	34122.67
670.95	33696.69
671.09	34190.55
671.23	33883.94
671.37	33860.53
671.51	33729.46
671.65	33312.84
671.79	33502.43
671.93	33549.24
672.07	33467.32
672.21	33390.08
672.35	33090.49
672.49	33251.99
672.63	33450.94
672.77	33125.60
672.91	33170.07
673.05	32959.42
673.19	32856.44
673.33	32978.15
673.47	32542.81
673.61	32280.67
673.75	32407.06
673.89	32299.39
674.03	32493.66
674.17	32552.17
674.31	32348.54
674.45	32215.13
674.59	32381.31
674.73	32297.05
674.87	32016.19
675.01	31906.18
675.15	31826.60
675.29	31910.86
675.43	31644.04
675.56	31742.35
675.70	31695.53
675.84	31454.46
675.98	30785.07
676.12	31264.88
676.26	31447.44
676.40	30782.73
676.54	31112.74
676.68	30855.28
676.82	30546.33
676.96	30731.23
677.10	30714.85
677.23	30515.90
677.37	30780.39
677.51	30443.35
677.65	30127.38
677.79	30309.94
677.93	30019.71
678.07	30274.83
678.21	29792.68
678.34	30052.48
678.48	29591.39
678.62	29947.15
678.76	29228.61
678.90	28959.45
679.04	29621.82
679.18	29539.90
679.31	29298.83
679.45	29097.54
679.59	28929.02
679.73	28648.16
679.87	28760.50
680.00	28723.05
680.14	28730.08
680.28	28313.46
680.42	28666.88
680.56	28517.09
680.70	28470.28
680.83	28320.48
680.97	28194.09
681.11	28231.54
681.25	28144.94
681.39	27854.72
681.52	27864.08
681.66	27892.16
681.80	27697.90
681.94	27742.37
682.07	27541.08
682.21	27346.82
682.35	27410.01
682.49	27447.46
682.62	27501.29
682.76	26829.56
682.90	27068.30
683.04	26909.14
683.17	26995.74
683.31	26955.95
683.45	26602.53
683.59	26307.62
683.72	26438.69
683.86	26431.67
684.00	25977.61
684.13	26415.29
684.27	26469.12
684.41	26001.01
684.55	25942.50
684.68	25640.57
684.82	25610.14
684.96	25612.48
685.09	25415.88
685.23	25441.62
685.37	25450.99
685.50	25331.62
685.64	25844.20
685.78	25221.61
685.91	25116.29
686.05	24952.45
686.19	25015.65
686.32	25174.80
686.46	24666.91
686.60	24353.27
686.73	24250.29
686.87	23915.59
687.01	23847.72
687.14	23634.73
687.28	23672.18
687.42	23655.79
687.55	23648.77
687.69	23639.41
687.82	23374.93
687.96	23534.09
688.10	23316.42
688.23	23438.12
688.37	23033.21
688.50	23365.57
688.64	22862.35
688.78	22892.78
688.91	22775.75
689.05	23019.17
689.18	22757.03
689.32	22532.34
689.46	22750.01
689.59	22714.90
689.73	22471.48
689.86	22618.94
690.00	22522.98
690.13	22656.39
690.27	22195.30
690.41	22342.75
690.54	21795.07
690.68	21795.07
690.81	21928.48
690.95	21701.45
691.08	21701.45
691.22	21462.71
691.35	21383.13
691.49	21523.57
691.62	21703.79
691.76	21408.88
691.89	21465.05
692.03	21502.50
692.16	21071.84
692.30	21200.57
692.43	21034.39
692.57	20531.18
692.70	20580.33
692.84	21088.23
692.97	20563.95
693.11	20561.61
693.24	20463.30
693.38	20390.75
693.51	20084.14
693.65	20208.19
693.78	20271.38
693.92	20049.03
694.05	19864.13
694.19	19934.34
694.32	19754.12
694.45	19616.03
694.59	19679.22
694.72	19463.90
694.86	19566.88
694.99	19295.38
695.13	19283.67
695.26	18745.35
695.39	19037.92
695.53	19323.46
695.66	19154.94
695.80	18768.76
695.93	18986.43
696.07	18841.31
696.20	18623.64
696.33	18586.19
696.47	18338.10
696.60	18394.27
696.73	18483.21
696.87	18335.76
697.00	18532.36
697.14	18272.56
697.27	18136.81
697.40	18326.39
697.54	17980.00
697.67	18118.09
697.80	17736.58
697.94	17898.08
698.07	17554.02
698.21	17451.03
698.34	17539.97
698.47	17523.59
698.61	17041.44
698.74	17153.79
698.87	17263.79
699.01	16919.73
699.14	17013.35
699.27	17181.87
699.40	16898.67
699.54	16716.11
699.67	16533.54
699.80	17006.33
699.94	16339.28
700.07	16453.97
700.20	16460.99
700.34	16156.72
700.47	16402.47
700.60	16374.39
700.73	16177.78
700.87	16133.31
701.00	16018.63
701.13	16128.63
701.26	16006.92
701.40	15892.24
701.53	15836.06
701.66	15999.90
701.79	15882.88
701.93	15712.02
702.06	15332.85
702.19	15463.92
702.32	15477.96
702.46	15262.63
702.59	15358.60
702.72	15295.40
702.85	15316.47
702.99	15449.88
703.12	15337.53
703.25	14906.87
703.38	15136.24
703.51	14984.11
703.65	14892.83
703.78	15082.41
703.91	15019.22
704.04	14696.22
704.17	14501.96
704.31	14464.51
704.44	14225.78
704.57	13970.66
704.70	14024.49
704.83	14417.70
704.96	14134.50
705.10	14295.99
705.23	14162.58
>>>>>End Processed Spectral Data<<<<<
