SpectraSuite Data File
++++++++++++++++++++++++++++++++++++
Date: Fri Oct 25 10:43:38 EDT 2013
User: price-jones
Dark Spectrum Present: No
Reference Spectrum Present: No
Number of Sampled Component Spectra: 1
Spectrometers: USB2+H05261
Integration Time (usec): 100000 (USB2+H05261)
Spectra Averaged: 1 (USB2+H05261)
Boxcar Smoothing: 0 (USB2+H05261)
Correct for Electrical Dark: No (USB2+H05261)
Strobe/Lamp Enabled: No (USB2+H05261)
Correct for Detector Non-linearity: No (USB2+H05261)
Correct for Stray Light: No (USB2+H05261)
Number of Pixels in Processed Spectrum: 2048
>>>>>Begin Processed Spectral Data<<<<<
365.73	58.51
365.92	58.51
366.12	58.51
366.32	23.41
366.52	14.04
366.72	51.49
366.91	0.00
367.11	0.00
367.31	16.38
367.51	9.36
367.70	49.15
367.90	0.00
368.10	18.72
368.30	35.11
368.49	0.00
368.69	67.88
368.89	56.17
369.09	0.00
369.28	180.22
369.48	28.09
369.68	70.22
369.87	74.90
370.07	46.81
370.27	91.28
370.47	224.69
370.66	353.42
370.86	402.57
371.06	435.34
371.25	475.13
371.45	421.30
371.65	418.96
371.84	463.43
372.04	470.45
372.24	437.68
372.44	491.51
372.63	540.66
372.83	423.64
373.03	461.09
373.22	505.56
373.42	505.56
373.62	573.43
373.81	599.18
374.01	510.24
374.21	550.03
374.40	545.34
374.60	498.53
374.79	496.19
374.99	568.75
375.19	620.24
375.38	643.65
375.58	528.96
375.78	615.56
375.97	634.29
376.17	669.39
376.37	610.88
376.56	734.93
376.76	578.11
376.95	624.92
377.15	599.18
377.35	662.37
377.54	645.99
377.74	711.52
377.93	690.46
378.13	634.29
378.33	692.80
378.52	615.56
378.72	634.29
378.91	650.67
379.11	641.31
379.31	613.22
379.50	688.12
379.70	676.41
379.89	692.80
380.09	643.65
380.28	650.67
380.48	608.54
380.68	702.16
380.87	667.05
381.07	660.03
381.26	819.19
381.46	681.10
381.65	704.50
381.85	709.18
382.04	737.27
382.24	690.46
382.43	770.04
382.63	690.46
382.83	730.25
383.02	723.23
383.22	755.99
383.41	739.61
383.61	695.14
383.80	744.29
384.00	732.59
384.19	802.80
384.39	772.38
384.58	791.10
384.78	826.21
384.97	828.55
385.17	807.48
385.36	826.21
385.56	856.64
385.75	849.61
385.95	798.12
386.14	889.40
386.34	784.08
386.53	896.43
386.72	826.21
386.92	842.59
387.11	847.27
387.31	882.38
387.50	849.61
387.70	868.34
387.89	896.43
388.09	856.64
388.28	884.72
388.48	961.96
388.67	1004.09
388.86	964.30
389.06	947.92
389.25	1011.11
389.45	983.02
389.64	983.02
389.84	1020.47
390.03	1036.86
390.22	994.73
390.42	1050.90
390.61	992.39
390.81	1057.92
391.00	1041.54
391.19	1102.39
391.39	1081.33
391.58	1006.43
391.78	1149.20
391.97	1095.37
392.16	1008.77
392.36	1125.80
392.55	1165.59
392.75	1048.56
392.94	1011.11
393.13	1043.88
393.33	1050.90
393.52	1027.50
393.71	1088.35
393.91	1121.12
394.10	1142.18
394.29	1146.86
394.49	1125.80
394.68	1301.34
394.88	1284.95
395.07	1275.59
395.26	1252.19
395.46	1233.46
395.65	1380.92
395.84	1254.53
396.04	1228.78
396.23	1181.97
396.42	1156.22
396.62	1207.72
396.81	1203.04
397.00	1324.74
397.19	1313.04
397.39	1324.74
397.58	1343.47
397.77	1444.11
397.97	1409.00
398.16	1432.41
398.35	1490.92
398.55	1455.81
398.74	1495.60
398.93	1542.41
399.12	1514.33
399.32	1483.90
399.51	1486.24
399.70	1661.78
399.90	1614.97
400.09	1568.16
400.28	1645.40
400.47	1689.87
400.67	1666.46
400.86	1694.55
401.05	1638.38
401.24	1701.57
401.44	1769.44
401.63	1701.57
401.82	1785.83
402.01	1680.50
402.21	1776.47
402.40	1781.15
402.59	1792.85
402.78	1762.42
402.97	1813.92
403.17	1806.89
403.36	1837.32
403.55	1874.77
403.74	1900.52
403.93	1851.36
404.13	1895.83
404.32	1851.36
404.51	1874.77
404.70	1937.96
404.89	1842.00
405.09	2019.88
405.28	1893.49
405.47	1991.80
405.66	1961.37
405.85	2101.80
406.05	2092.44
406.24	2073.71
406.43	1930.94
406.62	2122.87
406.81	2200.10
407.00	2024.56
407.20	2022.22
407.39	2076.06
407.58	2230.53
407.77	2162.66
407.96	2246.91
408.15	2260.96
408.34	2284.36
408.54	2303.09
408.73	2237.55
408.92	2347.56
409.11	2359.26
409.30	2373.30
409.49	2279.68
409.68	2279.68
409.87	2289.04
410.07	2296.07
410.26	2293.72
410.45	2443.52
410.64	2452.88
410.83	2525.44
411.02	2480.97
411.21	2560.55
411.40	2523.10
411.59	2644.81
411.78	2654.17
411.98	2656.51
412.17	2775.88
412.36	2637.78
412.55	2682.25
412.74	2864.82
412.93	2808.64
413.12	2750.13
413.31	2848.43
413.50	2775.88
413.69	2895.24
413.88	2981.84
414.07	2885.88
414.26	2923.33
414.45	2920.99
414.64	2928.01
414.83	3164.40
415.02	2995.89
415.22	3105.89
415.41	3033.33
415.60	3204.19
415.79	3304.84
415.98	3370.37
416.17	3248.66
416.36	3396.12
416.55	3335.26
416.74	3339.94
416.93	3253.34
417.12	3346.97
417.31	3478.04
417.50	3353.99
417.69	3543.57
417.88	3478.04
418.07	3403.14
418.26	3536.55
418.45	3480.38
418.64	3557.61
418.83	3676.98
419.02	3588.04
419.21	3674.64
419.39	3527.19
419.58	3538.89
419.77	3620.81
419.96	3719.11
420.15	3574.00
420.34	3801.03
420.53	3786.99
420.72	3894.65
420.91	3632.51
421.10	3857.20
421.29	3985.93
421.48	3887.63
421.67	3829.12
421.86	3894.65
422.05	3808.05
422.24	3936.78
422.43	3812.73
422.61	3885.29
422.80	3847.84
422.99	3992.95
423.18	3955.51
423.37	3967.21
423.56	3953.16
423.75	3894.65
423.94	3948.48
424.13	3702.73
424.32	3777.62
424.50	4117.00
424.69	4154.45
424.88	4065.51
425.07	3927.42
425.26	3911.04
425.45	3971.89
425.64	3983.59
425.83	4095.94
426.01	4189.56
426.20	4081.89
426.39	4009.34
426.58	4037.42
426.77	3927.42
426.96	3995.29
427.15	3960.19
427.33	4140.41
427.52	4114.66
427.71	4196.58
427.90	4051.47
428.09	4077.21
428.28	4210.62
428.46	4121.68
428.65	4273.82
428.84	4409.57
429.03	4245.73
429.22	4205.94
429.40	4306.59
429.59	4170.83
429.78	3922.74
429.97	3887.63
430.16	4049.13
430.34	4259.78
430.53	4170.83
430.72	4189.56
430.91	4243.39
431.10	4388.50
431.28	4533.62
431.47	4528.94
431.66	4643.62
431.85	4755.97
432.03	4615.54
432.22	4636.60
432.41	4538.30
432.60	4718.52
432.79	4723.20
432.97	4760.65
433.16	4720.86
433.35	4709.16
433.54	4690.43
433.72	4683.41
433.91	4697.46
434.10	4844.91
434.28	4931.51
434.47	4858.95
434.66	5046.20
434.85	4889.38
435.03	4947.89
435.22	5078.96
435.41	5177.26
435.59	5114.07
435.78	5085.98
435.97	5036.83
436.16	5256.84
436.34	5158.54
436.53	5093.01
436.72	5151.52
436.90	5004.07
437.09	5252.16
437.28	4980.66
437.46	5245.14
437.65	5151.52
437.84	5181.95
438.02	5324.72
438.21	5228.76
438.40	5327.06
438.58	5392.59
438.77	5437.06
438.96	5514.30
439.14	5540.05
439.33	5607.92
439.52	5713.25
439.70	5558.77
439.89	5795.17
440.08	5774.10
440.26	5785.80
440.45	5797.51
440.63	5949.64
440.82	5966.03
441.01	6099.44
441.19	6080.71
441.38	6141.57
441.57	6113.48
441.75	6171.99
441.94	6225.82
442.12	6384.98
442.31	6307.74
442.50	6368.60
442.68	6235.19
442.87	6319.45
443.05	6506.69
443.24	6436.47
443.43	6380.30
443.61	6530.09
443.80	6825.00
443.98	6356.90
444.17	6181.35
444.35	6567.54
444.54	6780.53
444.73	6661.16
444.91	6637.76
445.10	6438.81
445.28	6422.43
445.47	6413.07
445.65	6588.61
445.84	6509.03
446.02	6754.79
446.21	6700.95
446.39	6794.58
446.58	6853.09
446.77	6705.63
446.95	6595.63
447.14	6801.60
447.32	6878.83
447.51	6715.00
447.69	6885.86
447.88	6700.95
448.06	6925.65
448.25	6651.80
448.43	6808.62
448.62	6796.92
448.80	6736.06
448.99	6967.77
449.17	6869.47
449.36	6902.24
449.54	7122.25
449.73	6960.75
449.91	7302.47
450.10	7304.81
450.28	7370.35
450.46	7215.87
450.65	7286.09
450.83	7389.07
451.02	7293.11
451.20	7279.07
451.39	7302.47
451.57	7206.51
451.76	7232.26
451.94	7372.69
452.13	7349.28
452.31	7382.05
452.49	7236.94
452.68	7389.07
452.86	7267.36
453.05	7276.73
453.23	7456.95
453.42	7197.15
453.60	7396.09
453.78	7576.31
453.97	7267.36
454.15	7480.35
454.34	7316.51
454.52	7712.07
454.70	7571.63
454.89	7602.06
455.07	7751.85
455.26	7864.20
455.44	7815.05
455.62	7623.12
455.81	7819.73
455.99	7719.09
456.17	7941.44
456.36	7775.26
456.54	7939.10
456.73	8149.75
456.91	8425.93
457.09	8257.41
457.28	8498.49
457.46	8142.72
457.64	8156.77
457.83	8203.58
458.01	8138.04
458.19	8224.64
458.38	8299.54
458.56	8250.39
458.74	8573.38
458.93	8336.99
459.11	8599.13
459.29	8411.89
459.48	8517.21
459.66	8397.84
459.84	8351.03
460.03	8741.90
460.21	8479.76
460.39	8807.44
460.57	8655.30
460.76	8664.66
460.94	8664.66
461.12	8805.10
461.31	8868.29
461.49	8610.83
461.67	8854.25
461.85	8985.32
462.04	9097.66
462.22	9280.22
462.40	8980.64
462.59	8887.01
462.77	9107.02
462.95	8982.98
463.13	9102.34
463.32	9067.24
463.50	8905.74
463.68	9090.64
463.86	8990.00
464.05	8992.34
464.23	9125.75
464.41	9114.05
464.59	8844.88
464.78	9308.31
464.96	9369.16
465.14	9320.01
465.32	9221.71
465.50	9472.15
465.69	9528.32
465.87	9266.18
466.05	9425.34
466.23	9212.35
466.41	9249.80
466.60	9359.80
466.78	9249.80
466.96	9217.03
467.14	9315.33
467.32	9324.69
467.51	9514.28
467.69	9130.43
467.87	9420.66
468.05	9668.75
468.23	9432.36
468.41	9624.28
468.60	9540.02
468.78	9853.66
468.96	9624.28
469.14	9738.97
469.32	9853.66
469.50	9572.79
469.69	9710.88
469.87	9738.97
470.05	9951.96
470.23	10066.64
470.41	9856.00
470.59	9764.72
470.77	9966.00
470.95	10008.13
471.14	10115.80
471.32	10008.13
471.50	10445.81
471.68	10333.47
471.86	10415.38
472.04	10429.43
472.22	10766.46
472.40	10499.64
472.58	10410.70
472.77	10675.18
472.95	10560.50
473.13	11037.97
473.31	10736.04
473.49	10619.01
473.67	10740.72
473.85	10848.38
474.03	10899.87
474.21	10986.47
474.39	11117.54
474.57	11218.19
474.75	11332.87
474.93	11241.59
475.12	11269.68
475.30	11353.94
475.48	11220.53
475.66	11365.64
475.84	11353.94
476.02	11625.44
476.20	11620.76
476.38	11910.99
476.56	11854.81
476.74	11817.36
476.92	11852.47
477.10	11922.69
477.28	12128.66
477.46	12236.32
477.64	12442.29
477.82	12348.67
478.00	12779.32
478.18	12587.40
478.36	12713.79
478.54	12882.31
478.72	12891.67
478.90	12901.03
479.08	12971.25
479.26	13315.31
479.44	13378.50
479.62	13523.62
479.80	13362.12
479.98	13626.60
480.16	13919.17
480.34	13687.45
480.52	13858.31
480.70	13582.13
480.88	14012.79
481.06	13956.61
481.24	14047.90
481.41	14178.97
481.59	14501.96
481.77	14434.08
481.95	14635.37
482.13	14846.02
482.31	14686.86
482.49	15122.20
482.67	15061.35
482.85	14951.34
483.03	15433.49
483.21	15318.81
483.39	15719.04
483.57	15534.14
483.74	15709.68
483.92	15789.25
484.10	15763.51
484.28	16154.38
484.46	16290.13
484.64	16512.48
484.82	16350.98
485.00	16411.84
485.18	16498.44
485.35	16755.90
485.53	16238.64
485.71	16306.51
485.89	16594.40
486.07	16451.63
486.25	17116.34
486.43	17151.45
486.61	17130.38
486.78	17436.99
486.96	17343.37
487.14	17776.37
487.32	18118.09
487.50	17916.80
487.68	18438.74
487.85	18682.16
488.03	18487.89
488.21	18785.14
488.39	18551.09
488.57	18721.95
488.75	18984.09
488.92	19101.11
489.10	19517.73
489.28	19840.72
489.46	19812.63
489.64	19995.20
489.81	20233.93
489.99	20348.62
490.17	20493.73
490.35	20587.35
490.53	20269.04
490.70	20622.46
490.88	20629.48
491.06	21041.42
491.24	20755.87
491.41	20996.95
491.59	20603.74
491.77	21113.97
491.95	21085.89
492.13	21788.05
492.30	21703.79
492.48	21930.82
492.66	22001.04
492.84	22129.77
493.01	22127.42
493.19	22192.96
493.37	22731.28
493.54	22703.20
493.72	22731.28
493.90	22698.52
494.08	23021.51
494.25	23227.48
494.43	23236.84
494.61	23524.72
494.79	23583.24
494.96	23548.13
495.14	24084.11
495.32	23456.85
495.49	23723.67
495.67	23997.51
495.85	23915.59
496.02	24568.60
496.20	24563.92
496.38	24566.26
496.55	24795.64
496.73	25380.77
496.91	24987.56
497.09	25216.93
497.26	25324.60
497.44	25291.83
497.62	25275.45
497.79	25476.73
497.97	25266.08
498.14	25500.14
498.32	25834.83
498.50	25523.54
498.67	26410.60
498.85	26214.00
499.03	26396.56
499.20	26499.55
499.38	26522.95
499.56	26497.20
499.73	26941.91
499.91	26710.19
500.08	26906.80
500.26	26473.80
500.44	26878.71
500.61	26834.24
500.79	27065.96
500.97	26597.85
501.14	27370.22
501.32	27316.39
501.49	27342.14
501.67	27424.06
501.84	27505.98
502.02	27704.92
502.20	27704.92
502.37	27953.02
502.55	28187.07
502.72	28500.70
502.90	28584.96
503.07	27981.10
503.25	28390.70
503.43	27943.66
503.60	28463.25
503.78	28254.95
503.95	28343.89
504.13	28577.94
504.30	29034.35
504.48	29008.60
504.65	29193.50
504.83	29268.40
505.01	29549.26
505.18	29125.63
505.36	29511.81
505.53	29502.45
505.71	29764.59
505.88	29928.43
506.06	29827.79
506.23	30125.04
506.41	30036.09
506.58	29921.41
506.76	29996.31
506.93	29963.54
507.11	30050.14
507.28	29998.65
507.46	30433.99
507.63	30209.29
507.81	30724.21
507.98	30595.48
508.16	30799.11
508.33	30874.01
508.50	31070.61
508.68	31522.34
508.85	31578.51
509.03	31550.42
509.20	31358.50
509.38	31552.76
509.55	31559.78
509.73	31725.96
509.90	32198.75
510.08	31309.35
510.25	31573.83
510.42	31782.13
510.60	31929.59
510.77	32273.65
510.95	32137.90
511.12	31651.06
511.30	32173.00
511.47	32446.85
511.64	32751.12
511.82	32811.97
511.99	32500.68
512.17	32636.43
512.34	32290.03
512.51	32561.53
512.69	33076.45
512.86	33116.24
513.04	33333.91
513.21	32900.91
513.38	33062.41
513.56	33003.89
513.73	32898.57
513.90	33413.49
514.08	33237.95
514.25	33654.56
514.43	33462.64
514.60	33301.14
514.77	33310.50
514.95	33785.63
515.12	33755.21
515.29	33862.87
515.47	34265.44
515.64	34160.12
515.81	33986.92
515.99	34256.08
516.16	34277.15
516.33	33986.92
516.51	34101.61
516.68	33446.26
516.85	33743.50
517.03	33792.65
517.20	34223.31
517.37	34108.63
517.54	34754.61
517.72	34169.48
517.89	34347.36
518.06	34216.29
518.24	34452.69
518.41	34501.84
518.58	34794.40
518.75	34794.40
518.93	35108.04
519.10	35072.93
519.27	35211.02
519.45	35452.09
519.62	35637.00
519.79	35470.82
519.96	35585.50
520.14	35419.33
520.31	35749.34
520.48	35999.78
520.65	35346.77
520.83	35941.27
521.00	36121.49
521.17	35943.61
521.34	36350.86
521.52	36161.28
521.69	36259.58
521.86	36561.51
522.03	36601.30
522.20	36615.34
522.38	37008.55
522.55	36591.94
522.72	36795.56
522.89	36683.22
523.07	37186.43
523.24	36877.48
523.41	37069.40
523.58	37024.93
523.75	37656.88
523.92	37275.37
524.10	37687.31
524.27	37579.64
524.44	37413.46
524.61	37266.01
524.78	37432.19
524.96	37631.13
525.13	37645.18
525.30	38391.81
525.47	38005.62
525.64	38031.36
525.81	38019.66
525.98	37804.33
526.16	37282.39
526.33	37523.47
526.50	37928.38
526.67	37673.26
526.84	37406.44
527.01	37387.72
527.18	38059.45
527.36	38541.60
527.53	38265.42
527.70	38986.30
527.87	38761.61
528.04	38480.75
528.21	38773.31
528.38	38932.47
528.55	38876.30
528.72	39145.46
528.89	39349.09
529.07	38976.94
529.24	39005.03
529.41	39126.74
529.58	39051.84
529.75	38855.23
529.92	39049.50
530.09	39103.33
530.26	39316.32
530.43	39882.73
530.60	39641.65
530.77	39346.75
530.94	39587.82
531.11	39751.66
531.28	39852.30
531.46	39709.53
531.63	39618.25
531.80	39557.39
531.97	39690.80
532.14	39725.91
532.31	39316.32
532.48	39590.16
532.65	39856.98
532.82	39995.07
532.99	40135.51
533.16	39927.20
533.33	40016.14
533.50	39931.88
533.67	40161.25
533.84	40062.95
534.01	40044.23
534.18	40329.77
534.35	40584.89
534.52	40355.52
534.69	40517.01
534.86	40849.37
535.03	40617.66
535.20	41071.72
535.37	41289.39
535.54	41249.60
535.71	40858.73
535.88	41003.85
536.05	40840.01
536.22	40870.43
536.38	40924.27
536.55	40879.80
536.72	40755.75
536.89	40769.79
537.06	40947.67
537.23	41102.15
537.40	41160.66
537.57	41521.10
537.74	41352.58
537.91	41502.38
538.08	41481.31
538.25	41242.58
538.42	41734.09
538.59	41350.24
538.75	40947.67
538.92	41539.83
539.09	41722.39
539.26	41280.03
539.43	41436.84
539.60	41486.00
539.77	41322.16
539.94	41766.86
540.11	41860.48
540.28	41652.17
540.44	41605.36
540.61	41284.71
540.78	41544.51
540.95	41516.42
541.12	41970.49
541.29	41778.56
541.46	42059.43
541.62	42567.32
541.79	41998.57
541.96	41666.22
542.13	41879.21
542.30	42366.04
542.47	42494.77
542.63	42520.51
542.80	42366.04
542.97	43007.34
543.14	42705.41
543.31	42869.25
543.48	42373.06
543.64	42995.64
543.81	43079.90
543.98	43271.82
544.15	42728.82
544.32	42876.27
544.48	43278.85
544.65	42726.48
544.82	43288.21
544.99	42593.07
545.16	43330.34
545.32	43159.48
545.49	43770.36
545.66	43700.14
545.83	43400.55
546.00	43487.15
546.16	43393.53
546.33	42920.74
546.50	43152.46
546.67	43601.84
546.83	43143.09
547.00	43274.16
547.17	43484.81
547.34	43346.72
547.50	43232.04
547.67	43873.34
547.84	43763.34
548.00	43728.23
548.17	43962.28
548.34	43871.00
548.51	43768.02
548.67	44126.12
548.84	43882.70
549.01	43812.49
549.18	44163.57
549.34	44184.63
549.51	44034.84
549.68	43934.20
549.84	43880.36
550.01	44727.64
550.18	44205.70
550.34	44123.78
550.51	44217.40
550.68	43969.30
550.84	43704.82
551.01	44622.31
551.18	44287.62
551.34	43988.03
551.51	44650.40
551.68	44233.78
551.84	44830.62
552.01	44280.60
552.18	44399.96
552.34	44133.14
552.51	44348.47
552.68	44079.31
552.84	44722.96
553.01	44519.33
553.18	44802.53
553.34	44823.60
553.51	44397.62
553.67	44879.77
553.84	45057.65
554.01	44994.46
554.17	45010.84
554.34	44776.79
554.51	44655.08
554.67	45221.49
554.84	44973.39
555.00	44729.98
555.17	44364.85
555.33	45109.14
555.50	45083.40
555.67	45205.11
555.83	44854.03
556.00	45226.17
556.16	45242.56
556.33	44994.46
556.50	44865.73
556.66	45062.33
556.83	44828.28
556.99	45240.21
557.16	45404.05
557.32	45104.46
557.49	45092.76
557.65	44804.88
557.82	45076.38
557.98	45649.81
558.15	45132.55
558.32	45485.97
558.48	45017.86
558.65	45125.53
558.81	45280.00
558.98	45221.49
559.14	45338.52
559.31	44978.07
559.47	45062.33
559.64	45638.11
559.80	45495.33
559.97	45923.65
560.13	45539.80
560.30	45434.48
560.46	46068.76
560.63	45696.62
560.79	45633.42
560.96	45670.87
561.12	45467.25
561.29	45579.59
561.45	45104.46
561.61	45621.72
561.78	45652.15
561.94	45610.02
562.11	45872.16
562.27	45684.92
562.44	46099.19
562.60	45858.12
562.77	46064.08
562.93	45727.05
563.10	46031.32
563.26	45233.19
563.42	45869.82
563.59	45883.86
563.75	45727.05
563.92	45949.40
564.08	46157.70
564.24	45958.76
564.41	45600.66
564.57	45717.68
564.74	45682.58
564.90	45748.11
565.07	45874.50
565.23	45724.71
565.39	45319.79
565.56	45872.16
565.72	45563.21
565.88	45654.49
566.05	45645.13
566.21	45848.75
566.38	45453.20
566.54	45715.34
566.70	46227.92
566.87	46380.06
567.03	46061.74
567.19	46717.09
567.36	46206.86
567.52	46349.63
567.68	45883.86
567.85	46012.59
568.01	46087.49
568.17	46234.94
568.34	46167.07
568.50	46169.41
568.66	46087.49
568.83	46218.56
568.99	45844.07
569.15	45989.19
569.32	45617.04
569.48	45764.49
569.64	46188.13
569.81	46036.00
569.97	46136.64
570.13	46415.16
570.30	45968.12
570.46	45984.51
570.62	45830.03
570.78	45509.38
570.95	45528.10
571.11	46038.34
571.27	45689.60
571.43	45925.99
571.60	46012.59
571.76	46082.81
571.92	46164.73
572.09	46019.61
572.25	45909.61
572.41	46445.59
572.57	46639.86
572.74	46417.50
572.90	46429.21
573.06	46328.56
573.22	46281.75
573.38	46033.66
573.55	46038.34
573.71	46246.65
573.87	46412.82
574.03	45518.74
574.20	46534.53
574.36	46220.90
574.52	46492.40
574.68	46267.71
574.84	46054.72
575.01	46375.37
575.17	46501.76
575.33	46052.38
575.49	45841.73
575.65	46410.48
575.82	46363.67
575.98	46052.38
576.14	46670.28
576.30	46316.86
576.46	46333.24
576.62	45989.19
576.79	46148.34
576.95	45818.33
577.11	46302.82
577.27	46384.74
577.43	46494.74
577.59	46052.38
577.75	46047.70
577.92	45713.00
578.08	45982.16
578.24	45689.60
578.40	46192.81
578.56	45904.93
578.72	45928.33
578.88	46127.28
579.04	46204.52
579.21	45708.32
579.37	46157.70
579.53	46588.36
579.69	45722.37
579.85	46333.24
580.01	46146.00
580.17	46394.10
580.33	46305.16
580.49	46501.76
580.65	46445.59
580.82	46087.49
580.98	46010.25
581.14	45923.65
581.30	46146.00
581.46	46141.32
581.62	46218.56
581.78	46274.73
581.94	46684.33
582.10	46574.32
582.26	46469.00
582.42	46534.53
582.58	46043.02
582.74	46426.87
582.90	46019.61
583.06	46525.17
583.22	46471.34
583.38	46621.13
583.54	46440.91
583.70	46422.19
583.86	46508.79
584.02	46349.63
584.18	46691.35
584.34	46494.74
584.50	46466.66
584.66	46288.77
584.82	45837.05
584.98	46319.20
585.14	46485.38
585.30	46136.64
585.46	46220.90
585.62	46045.36
585.78	45904.93
585.94	46309.84
586.10	46220.90
586.26	45998.55
586.42	46103.87
586.58	46375.37
586.74	46300.48
586.90	46429.21
587.06	46160.05
587.22	46005.57
587.38	46443.25
587.54	46192.81
587.70	46471.34
587.86	46377.72
588.02	46096.85
588.18	46782.63
588.34	45907.27
588.49	45930.67
588.65	45783.22
588.81	46075.79
588.97	45514.06
589.13	45897.91
589.29	46099.19
589.45	46012.59
589.61	46188.13
589.77	46340.27
589.93	46674.96
590.08	46487.72
590.24	46447.93
590.40	46909.02
590.56	46745.18
590.72	46557.94
590.88	46223.24
591.04	46082.81
591.20	47044.77
591.35	46527.51
591.51	47016.68
591.67	46466.66
591.83	46291.12
591.99	46054.72
592.15	46672.62
592.31	46335.59
592.46	46513.47
592.62	46836.46
592.78	46763.90
592.94	46447.93
593.10	46227.92
593.26	46883.27
593.41	46513.47
593.57	46167.07
593.73	46419.84
593.89	46499.42
594.05	46822.42
594.20	46529.85
594.36	46410.48
594.52	46483.04
594.68	46433.89
594.84	45893.22
594.99	46604.75
595.15	46452.61
595.31	46536.87
595.47	46855.18
595.62	46422.19
595.78	46148.34
595.94	46733.48
596.10	46677.30
596.25	46501.76
596.41	46426.87
596.57	46295.80
596.73	46408.14
596.88	46244.30
597.04	46670.28
597.20	46555.60
597.36	46777.95
597.51	46574.32
597.67	46335.59
597.83	46270.05
597.99	47007.32
598.14	46749.86
598.30	46492.40
598.46	46431.55
598.61	46728.80
598.77	46471.34
598.93	46511.13
599.09	46546.23
599.24	46733.48
599.40	46993.28
599.56	47042.43
599.71	46602.41
599.87	46869.23
600.03	46710.07
600.18	46600.07
600.34	46323.88
600.50	46857.52
600.65	46061.74
600.81	46541.55
600.97	46204.52
601.12	46621.13
601.28	46939.44
601.44	46138.98
601.59	46092.17
601.75	46141.32
601.91	46452.61
602.06	46138.98
602.22	46506.44
602.37	46281.75
602.53	46714.75
602.69	46581.34
602.84	46263.03
603.00	46447.93
603.16	46721.77
603.31	46251.33
603.47	46103.87
603.62	46438.57
603.78	46553.26
603.94	46791.99
604.09	46735.82
604.25	46611.77
604.40	46267.71
604.56	46707.73
604.71	46387.08
604.87	46742.84
605.03	46646.88
605.18	46508.79
605.34	46216.22
605.49	46270.05
605.65	46754.54
605.80	46005.57
605.96	46483.04
606.12	46375.37
606.27	46873.91
606.43	46054.72
606.58	46550.91
606.74	46389.42
606.89	46078.13
607.05	46153.02
607.20	46113.23
607.36	46061.74
607.51	46700.71
607.67	46361.33
607.82	46473.68
607.98	46300.48
608.13	46300.48
608.29	46323.88
608.44	45792.58
608.60	45628.74
608.75	46160.05
608.91	46153.02
609.06	46087.49
609.22	46354.31
609.37	45801.94
609.53	45900.25
609.68	45750.45
609.84	45801.94
609.99	45696.62
610.15	45560.87
610.30	45710.66
610.46	45628.74
610.61	45385.33
610.76	45860.46
610.92	45848.75
611.07	46143.66
611.23	45947.06
611.38	46225.58
611.54	45916.63
611.69	45558.53
611.84	45401.71
612.00	45228.51
612.15	45507.04
612.31	46021.95
612.46	45610.02
612.62	45586.61
612.77	45411.07
612.92	45429.80
613.08	45432.14
613.23	45675.55
613.39	45474.27
613.54	44896.16
613.69	45170.00
613.85	45303.41
614.00	45574.91
614.15	45432.14
614.31	45240.21
614.46	45743.43
614.62	45614.70
614.77	45567.89
614.92	45202.77
615.08	45317.45
615.23	44921.90
615.38	45120.85
615.54	45102.12
615.69	45148.93
615.84	44879.77
616.00	44765.09
616.15	44905.52
616.30	45336.18
616.46	45148.93
616.61	45059.99
616.76	44634.02
616.92	44556.78
617.07	44832.96
617.22	44758.06
617.37	44502.95
617.53	44680.83
617.68	45031.91
617.83	44793.17
617.99	44795.51
618.14	44673.81
618.29	44402.30
618.45	44746.36
618.60	44519.33
618.75	44421.03
618.90	44296.98
619.06	44559.12
619.21	44570.82
619.36	45137.23
619.51	44385.92
619.67	44353.15
619.82	44533.37
619.97	44828.28
620.12	44205.70
620.28	43704.82
620.43	44828.28
620.58	43959.94
620.73	44397.62
620.89	44287.62
621.04	44233.78
621.19	44676.15
621.34	44275.91
621.49	44191.65
621.65	44245.49
621.80	44575.50
621.95	43835.89
622.10	44142.50
622.25	44142.50
622.41	43746.95
622.56	43903.77
622.71	44491.24
622.86	43807.81
623.01	43892.07
623.16	43828.87
623.32	44147.18
623.47	43964.62
623.62	43828.87
623.77	43512.90
623.92	43812.49
624.07	43639.29
624.23	43674.40
624.38	43665.03
624.53	43594.82
624.68	43978.67
624.83	44121.44
624.98	43735.25
625.13	43412.26
625.29	43260.12
625.44	43421.62
625.59	43086.92
625.74	42773.29
625.89	43456.73
626.04	43344.38
626.19	43454.39
626.34	43620.56
626.49	43203.95
626.65	43370.13
626.80	43477.79
626.95	42866.91
627.10	42979.26
627.25	43316.29
627.40	42817.76
627.55	42689.03
627.70	42469.02
627.85	42962.87
628.00	43012.02
628.15	42866.91
628.30	43454.39
628.45	42738.18
628.60	42995.64
628.76	42904.36
628.91	42712.44
629.06	42595.41
629.21	42312.20
629.36	42466.68
629.51	42710.10
629.66	42361.36
629.81	42054.75
629.96	42415.19
630.11	42749.88
630.26	42770.95
630.41	42625.84
630.56	42518.17
630.71	42429.23
630.86	42377.74
631.01	42459.66
631.16	42443.27
631.31	42576.69
631.46	41846.44
631.61	41949.42
631.76	42361.36
631.91	42459.66
632.06	42225.60
632.21	42424.55
632.36	42312.20
632.51	41886.23
632.66	42190.50
632.81	41949.42
632.96	42150.71
633.10	42244.33
633.25	42295.82
633.40	42260.71
633.55	41830.05
633.70	41558.55
633.85	41975.17
634.00	41745.80
634.15	42068.79
634.30	41315.14
634.45	41598.34
634.60	41806.65
634.75	41766.86
634.90	41696.64
635.05	41490.68
635.19	41675.58
635.34	41731.75
635.49	41617.07
635.64	41422.80
635.79	41338.54
635.94	41698.98
636.09	41361.95
636.24	40921.93
636.39	41034.27
636.53	41305.77
636.68	41043.63
636.83	40851.71
636.98	41446.21
637.13	41078.74
637.28	41425.14
637.43	41305.77
637.57	41565.57
637.72	41090.44
637.87	41177.04
638.02	41319.82
638.17	41209.81
638.32	40957.03
638.46	41202.79
638.61	40954.69
638.76	40985.12
638.91	41118.53
639.06	40601.27
639.20	41024.91
639.35	41385.35
639.50	40840.01
639.65	41265.99
639.80	41251.94
639.94	40676.17
640.09	40612.98
640.24	40950.01
640.39	40634.04
640.54	40247.85
640.68	40451.48
640.83	41076.40
640.98	40690.21
641.13	40559.14
641.27	40402.33
641.42	39805.49
641.57	40519.35
641.72	40643.40
641.86	40343.81
642.01	40493.61
642.16	40563.82
642.31	39941.24
642.45	40690.21
642.60	39831.24
642.75	39969.33
642.90	39917.84
643.04	40535.74
643.19	40484.25
643.34	40385.94
643.48	39976.35
643.63	40409.35
643.78	40102.74
643.93	39882.73
644.07	39779.74
644.22	39854.64
644.37	39817.19
644.51	39590.16
644.66	39758.68
644.81	39992.73
644.95	39864.00
645.10	40198.70
645.25	39798.47
645.39	39646.33
645.54	39824.22
645.69	39746.98
645.83	39667.40
645.98	39447.39
646.13	39564.42
646.27	39613.57
646.42	39393.56
646.57	39449.73
646.71	39274.19
646.86	39543.35
647.00	39658.04
647.15	39264.83
647.30	40142.53
647.44	39522.29
647.59	39187.59
647.74	39395.90
647.88	39126.74
648.03	39271.85
648.17	39227.38
648.32	39054.18
648.47	39086.95
648.61	39391.22
648.76	39292.91
648.90	39108.01
649.05	39182.91
649.20	38960.56
649.34	39016.73
649.49	38459.68
649.63	38752.25
649.78	39009.71
649.92	38946.51
650.07	39154.82
650.21	38675.01
650.36	39133.76
650.51	38813.10
650.65	39328.02
650.80	39168.87
650.94	39306.96
651.09	38946.51
651.23	38588.41
651.38	38644.59
651.52	38644.59
651.67	38660.97
651.81	38274.78
651.96	38801.40
652.10	38892.68
652.25	38398.83
652.39	38653.95
652.54	38670.33
652.68	38583.73
652.83	38562.67
652.97	38892.68
653.12	38843.53
653.26	38300.53
653.41	38352.02
653.55	38485.43
653.70	38192.86
653.84	38501.81
653.99	38167.12
654.13	37647.52
654.27	38143.71
654.42	38169.46
654.56	38146.05
654.71	38220.95
654.85	38267.76
655.00	38274.78
655.14	38089.88
655.29	37785.61
655.43	37542.19
655.57	37303.46
655.72	37413.46
655.86	37521.13
656.01	36964.08
656.15	37053.02
656.30	37474.32
656.44	37525.81
656.58	37244.94
656.73	37469.64
656.87	37684.97
657.01	37549.21
657.16	37172.39
657.30	36737.05
657.45	37102.17
657.59	36966.42
657.73	37244.94
657.88	37556.24
658.02	37764.54
658.16	37514.11
658.31	37776.25
658.45	37530.49
658.60	37368.99
658.74	37343.25
658.88	37511.77
659.03	37345.59
659.17	37001.53
659.31	36708.96
659.46	36701.94
659.60	36905.57
659.74	36804.92
659.89	36783.86
660.03	37038.98
660.17	37099.83
660.32	37156.00
660.46	36692.58
660.60	36381.29
660.74	36488.95
660.89	36694.92
661.03	36233.83
661.17	36545.12
661.32	36474.91
661.46	36655.13
661.60	35859.35
661.74	36119.15
661.89	36559.17
662.03	36388.31
662.17	36446.82
662.31	36362.56
662.46	36671.51
662.60	36465.55
662.74	36650.45
662.88	36130.85
663.03	35723.60
663.17	36245.54
663.31	35541.03
663.45	35747.00
663.60	35831.26
663.74	35761.05
663.88	35424.01
664.02	35405.28
664.17	35707.21
664.31	35421.67
664.45	35147.82
664.59	35459.12
664.73	35398.26
664.88	35597.21
665.02	34625.89
665.16	35143.14
665.30	34492.47
665.44	35119.74
665.59	34759.30
665.73	34899.73
665.87	34768.66
666.01	35101.01
666.15	34962.92
666.29	34625.89
666.44	35161.87
666.58	34780.36
666.72	34934.84
666.86	34749.93
667.00	34904.41
667.14	34558.01
667.28	34087.56
667.43	34132.03
667.57	34375.45
667.71	34455.03
667.85	34525.24
667.99	34288.85
668.13	34218.63
668.27	34239.70
668.41	33993.94
668.56	33883.94
668.70	34206.93
668.84	33457.96
668.98	33511.79
669.12	33546.90
669.26	33156.03
669.40	33298.80
669.54	33284.76
669.68	33806.70
669.82	33046.02
669.96	33144.33
670.10	33537.54
670.25	33041.34
670.39	32910.27
670.53	32737.07
670.67	32917.29
670.81	33046.02
670.95	32559.19
671.09	32818.99
671.23	32711.33
671.37	32765.16
671.51	32584.94
671.65	32655.15
671.79	32261.94
671.93	32240.88
672.07	32971.13
672.21	32343.86
672.35	32074.70
672.49	32259.60
672.63	31723.62
672.77	32334.50
672.91	31924.91
673.05	31971.72
673.19	32004.49
673.33	31213.38
673.47	31351.48
673.61	31531.70
673.75	31442.76
673.89	31005.08
674.03	31307.01
674.17	31569.15
674.31	31398.29
674.45	31402.97
674.59	31281.26
674.73	31735.32
674.87	31239.13
675.01	30899.75
675.15	30955.93
675.29	31033.16
675.43	30946.56
675.56	31143.17
675.70	30548.67
675.84	30600.16
675.98	29998.65
676.12	30499.52
676.26	30455.05
676.40	30965.29
676.54	30466.75
676.68	30071.20
676.82	29752.89
676.96	29965.88
677.10	29773.95
677.23	29626.50
677.37	29944.81
677.51	29645.23
677.65	29567.99
677.79	29638.20
677.93	29153.71
678.07	29010.94
678.21	29024.98
678.34	28950.09
678.48	28428.15
678.62	28980.51
678.76	28685.61
678.90	28290.06
679.04	28512.41
679.18	28428.15
679.31	28505.38
679.45	28006.85
679.59	28027.92
679.73	28123.88
679.87	28056.00
680.00	28032.60
680.14	27786.84
680.28	27997.49
680.42	27768.12
680.56	27777.48
680.70	27716.62
680.83	27758.75
680.97	27557.47
681.11	27342.14
681.25	27363.20
681.39	27131.49
681.52	26944.25
681.66	26939.57
681.80	26841.26
681.94	26824.88
682.07	26735.94
682.21	26773.39
682.35	26525.29
682.49	26616.57
682.62	26384.86
682.76	25991.65
682.90	26059.52
683.04	25972.92
683.17	26373.16
683.31	26022.08
683.45	25696.74
683.59	25750.57
683.72	25830.15
683.86	25872.28
684.00	25731.85
684.13	25357.36
684.27	25406.52
684.41	25273.10
684.55	25151.40
684.68	25727.17
684.82	25027.35
684.96	24856.49
685.09	24814.36
685.23	24556.90
685.37	24861.17
685.50	24706.70
685.64	24423.49
685.78	24769.89
685.91	24575.62
686.05	24130.92
686.19	23859.42
686.32	24072.41
686.46	23590.26
686.60	23405.36
686.73	23410.04
686.87	23152.58
687.01	23489.62
687.14	23213.43
687.28	22806.18
687.42	23047.26
687.55	23187.69
687.69	22909.16
687.82	23166.62
687.96	22984.06
688.10	22831.93
688.23	22632.98
688.37	22754.69
688.50	22586.17
688.64	22394.25
688.78	22417.65
688.91	22408.29
689.05	22382.54
689.18	22204.66
689.32	21795.07
689.46	22143.81
689.59	22281.90
689.73	22490.21
689.86	21825.50
690.00	21766.98
690.13	21912.10
690.27	21455.69
690.41	21303.56
690.54	21212.28
690.68	21275.47
690.81	21418.24
690.95	21083.55
691.08	21322.28
691.22	21270.79
691.35	21216.96
691.49	21109.29
691.62	20783.96
691.76	20950.14
691.89	21109.29
692.03	20599.05
692.16	20727.78
692.30	20444.58
692.43	20205.84
692.57	20081.80
692.70	20283.08
692.84	20020.94
692.97	19868.81
693.11	19812.63
693.24	19726.04
693.38	19826.68
693.51	19566.88
693.65	19658.16
693.78	19772.85
693.92	19316.44
694.05	19236.86
694.19	19403.04
694.32	19660.50
694.45	19300.06
694.59	19318.78
694.72	19372.61
694.86	19185.37
694.99	18778.12
695.13	18682.16
695.26	18867.06
695.39	18441.08
695.53	18860.04
695.66	18778.12
695.80	18616.62
695.93	18532.36
696.07	18422.36
696.20	18347.46
696.33	18279.58
696.47	17942.55
696.60	17961.27
696.73	18054.89
696.87	18174.26
697.00	17640.62
697.14	17605.51
697.27	17490.82
697.40	17158.47
697.54	17387.84
697.67	17273.15
697.80	17298.90
697.94	17310.60
698.07	17106.98
698.21	16978.25
698.34	16954.84
698.47	17137.40
698.61	16486.73
698.74	16816.75
698.87	16863.56
699.01	16638.87
699.14	16503.12
699.27	16283.11
699.40	16446.94
699.54	16465.67
699.67	16222.25
699.80	16105.23
699.94	16137.99
700.07	16166.08
700.20	16367.37
700.34	16116.93
700.47	15964.79
700.60	15925.00
700.73	15892.24
700.87	15667.55
701.00	15524.77
701.13	15637.12
701.26	15372.64
701.40	15262.63
701.53	15185.40
701.66	15129.22
701.79	15407.75
701.93	14967.73
702.06	14677.50
702.19	14934.96
702.32	14981.77
702.46	15332.85
702.59	14995.81
702.72	14876.44
702.85	14738.35
702.99	14846.02
703.12	14448.13
703.25	14230.46
703.38	14448.13
703.51	14267.91
703.65	14298.33
703.78	13958.96
703.91	14017.47
704.04	13989.38
704.17	14031.51
704.31	14008.11
704.44	14132.15
704.57	13956.61
704.70	13944.91
704.83	13664.05
704.96	13598.51
705.10	13556.38
705.23	13605.53
>>>>>End Processed Spectral Data<<<<<
