SpectraSuite Data File
++++++++++++++++++++++++++++++++++++
Date: Fri Oct 25 10:43:45 EDT 2013
User: price-jones
Dark Spectrum Present: No
Reference Spectrum Present: No
Number of Sampled Component Spectra: 1
Spectrometers: USB2+H05261
Integration Time (usec): 100000 (USB2+H05261)
Spectra Averaged: 1 (USB2+H05261)
Boxcar Smoothing: 0 (USB2+H05261)
Correct for Electrical Dark: No (USB2+H05261)
Strobe/Lamp Enabled: No (USB2+H05261)
Correct for Detector Non-linearity: No (USB2+H05261)
Correct for Stray Light: No (USB2+H05261)
Number of Pixels in Processed Spectrum: 2048
>>>>>Begin Processed Spectral Data<<<<<
365.73	126.39
365.92	126.39
366.12	126.39
366.32	28.09
366.52	100.64
366.72	0.00
366.91	23.41
367.11	84.26
367.31	0.00
367.51	56.17
367.70	21.06
367.90	67.88
368.10	0.00
368.30	0.00
368.49	23.41
368.69	0.00
368.89	7.02
369.09	0.00
369.28	0.00
369.48	18.72
369.68	81.92
369.87	72.56
370.07	14.04
370.27	175.54
370.47	140.43
370.66	355.76
370.86	465.77
371.06	449.38
371.25	503.22
371.45	428.32
371.65	423.64
371.84	461.09
372.04	465.77
372.24	418.96
372.44	510.24
372.63	486.83
372.83	533.64
373.03	615.56
373.22	500.87
373.42	517.26
373.62	472.79
373.81	526.62
374.01	545.34
374.21	519.60
374.40	510.24
374.60	507.90
374.79	512.58
374.99	514.92
375.19	603.86
375.38	620.24
375.58	592.16
375.78	603.86
375.97	580.45
376.17	704.50
376.37	526.62
376.56	582.79
376.76	620.24
376.95	629.60
377.15	634.29
377.35	615.56
377.54	716.20
377.74	655.35
377.93	599.18
378.13	589.82
378.33	671.73
378.52	580.45
378.72	608.54
378.91	631.94
379.11	648.33
379.31	653.01
379.50	596.84
379.70	706.84
379.89	695.14
380.09	702.16
380.28	662.37
380.48	716.20
380.68	622.58
380.87	807.48
381.07	739.61
381.26	744.29
381.46	725.57
381.65	744.29
381.85	746.63
382.04	676.41
382.24	720.88
382.43	732.59
382.63	711.52
382.83	690.46
383.02	727.91
383.22	690.46
383.41	704.50
383.61	748.97
383.80	730.25
384.00	842.59
384.19	667.05
384.39	802.80
384.58	718.54
384.78	814.51
384.97	870.68
385.17	744.29
385.36	744.29
385.56	753.65
385.75	725.57
385.95	777.06
386.14	828.55
386.34	720.88
386.53	814.51
386.72	788.76
386.92	887.06
387.11	912.81
387.31	788.76
387.50	809.83
387.70	833.23
387.89	896.43
388.09	861.32
388.28	891.74
388.48	854.30
388.67	983.02
388.86	959.62
389.06	947.92
389.25	1027.50
389.45	985.37
389.64	997.07
389.84	947.92
390.03	926.85
390.22	922.17
390.42	983.02
390.61	957.28
390.81	1050.90
391.00	1006.43
391.19	1006.43
391.39	1093.03
391.58	1048.56
391.78	1025.15
391.97	990.05
392.16	1107.07
392.36	1060.26
392.55	1081.33
392.75	1020.47
392.94	983.02
393.13	1027.50
393.33	1029.84
393.52	1097.71
393.71	1100.05
393.91	1057.92
394.10	1022.81
394.29	1174.95
394.49	1137.50
394.68	1219.42
394.88	1186.65
395.07	1235.80
395.26	1296.66
395.46	1231.12
395.65	1231.12
395.84	1296.66
396.04	1228.78
396.23	1191.33
396.42	1139.84
396.62	1130.48
396.81	1186.65
397.00	1078.99
397.19	1310.70
397.39	1324.74
397.58	1322.40
397.77	1385.60
397.97	1369.21
398.16	1439.43
398.35	1427.73
398.55	1376.24
398.74	1451.13
398.93	1519.01
399.12	1540.07
399.32	1551.78
399.51	1394.96
399.70	1640.72
399.90	1481.56
400.09	1547.09
400.28	1666.46
400.47	1591.56
400.67	1600.93
400.86	1657.10
401.05	1664.12
401.24	1619.65
401.44	1701.57
401.63	1657.10
401.82	1694.55
402.01	1652.42
402.21	1675.82
402.40	1685.19
402.59	1647.74
402.78	1715.61
402.97	1753.06
403.17	1884.13
403.36	1839.66
403.55	1839.66
403.74	1816.26
403.93	1879.45
404.13	1832.64
404.32	1781.15
404.51	1715.61
404.70	1881.79
404.89	1900.52
405.09	1954.35
405.28	1874.77
405.47	1879.45
405.66	1893.49
405.85	2012.86
406.05	1954.35
406.24	1973.07
406.43	2010.52
406.62	2003.50
406.81	2040.95
407.00	2003.50
407.20	2038.61
407.39	2038.61
407.58	2019.88
407.77	2167.34
407.96	2120.53
408.15	2162.66
408.34	2190.74
408.54	2237.55
408.73	2181.38
408.92	2242.23
409.11	2286.70
409.30	2216.49
409.49	2253.94
409.68	2195.42
409.87	2230.53
410.07	2289.04
410.26	2319.47
410.45	2345.22
410.64	2380.32
410.83	2541.82
411.02	2527.78
411.21	2565.23
411.40	2413.09
411.59	2633.10
411.78	2560.55
411.98	2506.71
412.17	2560.55
412.36	2607.36
412.55	2743.11
412.74	2614.38
412.93	2588.63
413.12	2672.89
413.31	2834.39
413.50	2808.64
413.69	2715.02
413.88	2778.22
414.07	2885.88
414.26	2946.73
414.45	2892.90
414.64	2827.37
414.83	2949.08
415.02	2998.23
415.22	3052.06
415.41	3122.27
415.60	2984.18
415.79	3124.62
415.98	3082.49
416.17	3108.23
416.36	3260.37
416.55	3218.24
416.74	3255.69
416.93	3169.09
417.12	3215.90
417.31	3323.56
417.50	3332.92
417.69	3466.33
417.88	3480.38
418.07	3295.47
418.26	3335.26
418.45	3499.10
418.64	3625.49
418.83	3466.33
419.02	3541.23
419.21	3571.66
419.39	3588.04
419.58	3576.34
419.77	3517.83
419.96	3620.81
420.15	3644.21
420.34	3545.91
420.53	3684.00
420.72	3772.94
420.91	3653.58
421.10	3740.18
421.29	3735.50
421.48	3812.73
421.67	3922.74
421.86	3714.43
422.05	3765.92
422.24	3714.43
422.43	3777.62
422.61	3775.28
422.80	3709.75
422.99	3735.50
423.18	3967.21
423.37	3950.82
423.56	3985.93
423.75	3889.97
423.94	3761.24
424.13	3630.17
424.32	3784.65
424.50	4079.55
424.69	4084.23
424.88	4042.11
425.07	3878.27
425.26	3866.56
425.45	3791.67
425.64	3861.88
425.83	3913.38
426.01	3953.16
426.20	3885.29
426.39	3889.97
426.58	3925.08
426.77	3936.78
426.96	3857.20
427.15	3934.44
427.33	3990.61
427.52	3983.59
427.71	4079.55
427.90	4138.07
428.09	4060.83
428.28	4180.20
428.46	4140.41
428.65	4067.85
428.84	4297.22
429.03	4140.41
429.22	3967.21
429.40	4191.90
429.59	4107.64
429.78	3964.87
429.97	3915.72
430.16	3992.95
430.34	4098.28
430.53	4145.09
430.72	4273.82
430.91	4086.58
431.10	4259.78
431.28	4381.48
431.47	4550.00
431.66	4505.53
431.85	4388.50
432.03	4461.06
432.22	4482.13
432.41	4526.60
432.60	4613.20
432.79	4772.35
432.97	4648.30
433.16	4716.18
433.35	4489.15
433.54	4575.75
433.72	4751.29
433.91	4638.94
434.10	4648.30
434.28	4606.17
434.47	4690.43
434.66	4875.34
434.85	4847.25
435.03	4936.19
435.22	4959.60
435.41	5006.41
435.59	5034.49
435.78	4968.96
435.97	5071.94
436.16	5060.24
436.34	4990.02
436.53	4931.51
436.72	5228.76
436.90	4957.25
437.09	5020.45
437.28	4959.60
437.46	5039.17
437.65	5088.32
437.84	5291.95
438.02	5163.22
438.21	5158.54
438.40	5022.79
438.58	5273.23
438.77	5184.29
438.96	5263.86
439.14	5455.79
439.33	5490.90
439.52	5738.99
439.70	5666.44
439.89	5706.23
440.08	5701.54
440.26	5607.92
440.45	5762.40
440.63	5764.74
440.82	5872.40
441.01	5930.92
441.19	5959.00
441.38	5989.43
441.57	6026.88
441.75	6001.13
441.94	6235.19
442.12	6057.31
442.31	6260.93
442.50	6335.83
442.68	6289.02
442.87	6251.57
443.05	6274.98
443.24	6305.40
443.43	6300.72
443.61	6324.13
443.80	6413.07
443.98	6221.14
444.17	5977.73
444.35	6331.15
444.54	6574.56
444.73	6520.73
444.91	6544.14
445.10	6558.18
445.28	6401.37
445.47	6260.93
445.65	6333.49
445.84	6286.68
446.02	6326.47
446.21	6558.18
446.39	6445.84
446.58	6553.50
446.77	6497.33
446.95	6415.41
447.14	6637.76
447.32	6726.70
447.51	6743.08
447.69	6473.92
447.88	6628.40
448.06	6604.99
448.25	6712.66
448.43	6583.93
448.62	6420.09
448.80	6445.84
448.99	6806.28
449.17	6822.66
449.36	6686.91
449.54	6820.32
449.73	6951.39
449.91	6876.49
450.10	7091.82
450.28	7328.22
450.46	7084.80
450.65	6972.46
450.83	7054.37
451.02	7028.63
451.20	7353.96
451.39	7183.10
451.57	7129.27
451.76	7098.84
451.94	7201.83
452.13	7342.26
452.31	7087.14
452.49	7131.61
452.68	6944.37
452.86	7094.16
453.05	7115.23
453.23	7337.58
453.42	7311.83
453.60	7164.38
453.78	7461.63
453.97	7386.73
454.15	7286.09
454.34	7089.48
454.52	7604.40
454.70	7510.78
454.89	7534.18
455.07	7283.75
455.26	7503.76
455.44	7536.52
455.62	7529.50
455.81	7789.30
455.99	7623.12
456.17	7634.83
456.36	7627.81
456.54	7772.92
456.73	7801.01
456.91	7997.61
457.09	7700.36
457.28	8156.77
457.46	7758.88
457.64	7810.37
457.83	8079.53
458.01	7946.12
458.19	8049.10
458.38	8023.36
458.56	8107.62
458.74	7946.12
458.93	8030.38
459.11	8241.03
459.29	8304.22
459.48	8231.66
459.66	8287.84
459.84	8154.43
460.03	8444.65
460.21	8430.61
460.39	8386.14
460.57	8517.21
460.76	8365.07
460.94	8369.76
461.12	8142.72
461.31	8430.61
461.49	8664.66
461.67	8549.98
461.85	8762.97
462.04	8833.18
462.22	9090.64
462.40	8910.42
462.59	8517.21
462.77	8858.93
462.95	8777.01
463.13	8587.43
463.32	8917.44
463.50	9174.90
463.68	8947.87
463.86	8905.74
464.05	8940.85
464.23	8809.78
464.41	8975.95
464.59	8688.07
464.78	8961.91
464.96	8971.27
465.14	8762.97
465.32	9177.24
465.50	9034.47
465.69	9118.73
465.87	9011.06
466.05	9100.00
466.23	8910.42
466.41	8931.48
466.60	9165.54
466.78	9163.20
466.96	8978.30
467.14	9315.33
467.32	9249.80
467.51	9350.44
467.69	8954.89
467.87	9341.08
468.05	9455.76
468.23	9212.35
468.41	9437.04
468.60	9355.12
468.78	9596.20
468.96	9423.00
469.14	9635.99
469.32	9528.32
469.50	9277.88
469.69	9607.90
469.87	9376.19
470.05	9708.54
470.23	9806.84
470.41	9650.03
470.59	10022.17
470.77	9591.52
470.95	9844.29
471.14	10024.51
471.32	10043.24
471.50	10284.31
471.68	10050.26
471.86	10162.61
472.04	10382.62
472.22	10499.64
472.40	10324.10
472.58	10340.49
472.77	10312.40
472.95	10286.65
473.13	10670.50
473.31	10366.23
473.49	10443.47
473.67	10314.74
473.85	10553.48
474.03	10693.91
474.21	10792.21
474.39	10895.19
474.57	10775.83
474.75	10991.16
474.93	10848.38
475.12	11145.63
475.30	11255.64
475.48	11276.70
475.66	11152.65
475.84	11084.78
476.02	11180.74
476.20	11307.13
476.38	11480.33
476.56	11740.13
476.74	11749.49
476.92	11538.84
477.10	11562.25
477.28	11789.28
477.46	11831.41
477.64	12273.77
477.82	12248.02
478.00	12664.64
478.18	12526.55
478.36	12404.84
478.54	12428.24
478.72	12453.99
478.90	12652.94
479.08	12645.91
479.26	12877.63
479.44	12943.16
479.62	12924.44
479.80	12961.89
479.98	13226.37
480.16	13521.27
480.34	13282.54
480.52	13418.29
480.70	13385.52
480.88	13256.79
481.06	13432.33
481.24	13617.24
481.41	14031.51
481.59	14260.88
481.77	14185.99
481.95	14328.76
482.13	14424.72
482.31	14466.85
482.49	14693.88
482.67	14546.43
482.85	14927.94
483.03	14953.68
483.21	15077.73
483.39	15068.37
483.57	15056.67
483.74	15370.30
483.92	15658.18
484.10	15370.30
484.28	15955.43
484.46	15749.46
484.64	16229.27
484.82	15983.52
485.00	15817.34
485.18	16016.29
485.35	16224.59
485.53	16042.03
485.71	16002.24
485.89	16320.56
486.07	16255.02
486.25	16477.37
486.43	16739.51
486.61	16741.85
486.78	17104.64
486.96	17282.52
487.14	17469.76
487.32	17373.80
487.50	17724.88
487.68	18118.09
487.85	18408.31
488.03	18171.92
488.21	18579.17
488.39	18045.53
488.57	18389.59
488.75	18523.00
488.92	18867.06
489.10	18970.04
489.28	19234.52
489.46	19459.21
489.64	19852.42
489.81	20018.60
489.99	19625.39
490.17	20144.99
490.35	20552.24
490.53	20011.58
490.70	20332.23
490.88	20336.91
491.06	20856.51
491.24	20189.46
491.41	20325.21
491.59	20519.48
491.77	20650.55
491.95	20872.90
492.13	21156.10
492.30	21270.79
492.48	21439.31
492.66	21572.72
492.84	21764.64
493.01	21804.43
493.19	21561.02
493.37	22033.80
493.54	21970.61
493.72	22405.95
493.90	22263.18
494.08	22508.93
494.25	22888.10
494.43	22867.03
494.61	23171.30
494.79	23250.88
494.96	23035.55
495.14	23150.24
495.32	23527.06
495.49	23655.79
495.67	23548.13
495.85	23330.46
496.02	23789.20
496.20	23798.57
496.38	24306.46
496.55	24479.66
496.73	24610.73
496.91	24341.57
497.09	24739.46
497.26	25027.35
497.44	24781.59
497.62	24797.98
497.79	25104.59
497.97	24779.25
498.14	25064.80
498.32	25458.01
498.50	25310.55
498.67	25909.73
498.85	25799.73
499.03	25692.06
499.20	26319.32
499.38	25806.75
499.56	25907.39
499.73	26359.11
499.91	26075.91
500.08	26286.56
500.26	26199.96
500.44	26487.84
500.61	26497.20
500.79	26387.20
500.97	26099.31
501.14	26647.00
501.32	26979.36
501.49	27000.42
501.67	27138.51
501.84	27323.41
502.02	26867.01
502.20	27536.40
502.37	27707.26
502.55	27552.79
502.72	27250.86
502.90	27704.92
503.07	27543.42
503.25	27627.68
503.43	27658.11
503.60	27548.11
503.78	28013.87
503.95	27782.16
504.13	28374.31
504.30	28573.26
504.48	28259.63
504.65	28751.14
504.83	28954.77
505.01	29015.62
505.18	28811.99
505.36	29207.55
505.53	29266.06
505.71	29256.70
505.88	29390.11
506.06	29024.98
506.23	29249.67
506.41	29142.01
506.58	29675.65
506.76	29675.65
506.93	29582.03
507.11	29575.01
507.28	29708.42
507.46	29600.76
507.63	29535.22
507.81	29502.45
507.98	29685.01
508.16	30127.38
508.33	30291.21
508.50	30230.36
508.68	30450.37
508.85	30888.05
509.03	30778.04
509.20	30543.99
509.38	31070.61
509.55	30513.56
509.73	31243.81
509.90	30885.71
510.08	30925.50
510.25	30827.20
510.42	31281.26
510.60	31501.27
510.77	31571.49
510.95	31508.29
511.12	31644.04
511.30	31644.04
511.47	31992.78
511.64	31852.35
511.82	31929.59
511.99	31632.34
512.17	32105.13
512.34	31901.50
512.51	32212.79
512.69	32442.17
512.86	32620.05
513.04	32725.37
513.21	32699.62
513.38	32423.44
513.56	32601.32
513.73	32514.72
513.90	32673.88
514.08	32514.72
514.25	32746.44
514.43	33010.92
514.60	32671.54
514.77	32940.70
514.95	33621.80
515.12	32926.66
515.29	33282.42
515.47	33862.87
515.64	33610.09
515.81	33235.61
515.99	33989.26
516.16	33511.79
516.33	33259.01
516.51	33291.78
516.68	32893.89
516.85	33397.10
517.03	33333.91
517.20	33645.20
517.37	34202.25
517.54	33759.89
517.72	33928.41
517.89	33462.64
518.06	33823.08
518.24	33474.34
518.41	33977.56
518.58	34206.93
518.75	34288.85
518.93	34543.97
519.10	34366.09
519.27	34852.92
519.45	34607.16
519.62	35026.12
519.79	34876.32
519.96	35187.61
520.14	35412.31
520.31	35108.04
520.48	35061.22
520.65	35105.70
520.83	35414.65
521.00	35442.73
521.17	35332.73
521.34	35800.83
521.52	35620.61
521.69	36074.68
521.86	36095.74
522.03	36137.87
522.20	35772.75
522.38	35798.49
522.55	36336.82
522.72	35885.09
522.89	36205.75
523.07	36486.61
523.24	36123.83
523.41	36318.09
523.58	36273.62
523.75	37071.75
523.92	36474.91
524.10	36840.03
524.27	36804.92
524.44	37010.89
524.61	36985.15
524.78	36952.38
524.96	37268.35
525.13	36882.16
525.30	37347.93
525.47	37432.19
525.64	37310.48
525.81	37479.00
525.98	36945.36
526.16	37123.24
526.33	37097.49
526.50	37102.17
526.67	36678.54
526.84	36973.44
527.01	37223.88
527.18	37319.84
527.36	37809.01
527.53	37614.75
527.70	38361.38
527.87	37989.24
528.04	37860.51
528.21	38267.76
528.38	38433.94
528.55	39000.35
528.72	38450.32
528.89	38731.18
529.07	38073.49
529.24	38246.69
529.41	38635.22
529.58	38014.98
529.75	38394.15
529.92	38773.31
530.09	38888.00
530.26	38567.35
530.43	38902.04
530.60	38672.67
530.77	38763.95
530.94	39119.71
531.11	39180.57
531.28	38770.97
531.46	39349.09
531.63	38962.90
531.80	39152.48
531.97	38981.62
532.14	39119.71
532.31	38909.07
532.48	39051.84
532.65	39065.88
532.82	39342.06
532.99	39405.26
533.16	39629.95
533.33	39653.36
533.50	39805.49
533.67	39524.63
533.84	39449.73
534.01	39756.34
534.18	39606.55
534.35	39487.18
534.52	39725.91
534.69	40273.60
534.86	39901.45
535.03	39959.97
535.20	40273.60
535.37	40587.23
535.54	40540.42
535.71	40224.45
535.88	40268.92
536.05	40280.62
536.22	40594.25
536.38	40935.97
536.55	40184.66
536.72	40149.55
536.89	40243.17
537.06	40151.89
537.23	40706.60
537.40	40659.79
537.57	40800.22
537.74	40840.01
537.91	41242.58
538.08	40830.65
538.25	40779.15
538.42	41167.68
538.59	40699.58
538.75	40196.36
538.92	41071.72
539.09	41366.63
539.26	40706.60
539.43	41280.03
539.60	40989.80
539.77	41148.96
539.94	41090.44
540.11	40722.98
540.28	40961.72
540.44	40989.80
540.61	41352.58
540.78	41104.49
540.95	41256.62
541.12	41296.41
541.29	41364.29
541.46	41509.40
541.62	41778.56
541.79	41535.15
541.96	41202.79
542.13	41581.96
542.30	41659.20
542.47	41340.88
542.63	41696.64
542.80	41425.14
542.97	42007.94
543.14	42323.91
543.31	42080.49
543.48	42204.54
543.64	42323.91
543.81	42469.02
543.98	42328.59
544.15	42253.69
544.32	42663.28
544.48	42937.13
544.65	42433.91
544.82	42784.99
544.99	42267.73
545.16	42728.82
545.32	42333.27
545.49	43028.41
545.66	42983.94
545.83	42660.94
546.00	42604.77
546.16	43047.13
546.33	42990.96
546.50	42754.57
546.67	43168.84
546.83	42836.48
547.00	43323.32
547.17	42906.70
547.34	42485.40
547.50	43061.18
547.67	42831.80
547.84	43239.06
548.00	43213.31
548.17	43501.20
548.34	43543.33
548.51	43878.02
548.67	43217.99
548.84	43480.13
549.01	43402.89
549.18	43438.00
549.34	43423.96
549.51	43639.29
549.68	43526.94
549.84	43601.84
550.01	43765.68
550.18	43512.90
550.34	43636.95
550.51	43402.89
550.68	43550.35
550.84	43180.54
551.01	43466.09
551.18	43812.49
551.34	44025.48
551.51	43590.14
551.68	44130.80
551.84	44177.61
552.01	43721.21
552.18	44198.68
552.34	43866.32
552.51	43707.16
552.68	43847.60
552.84	44102.71
553.01	44336.77
553.18	44774.45
553.34	44189.31
553.51	43936.54
553.67	44268.89
553.84	44404.64
554.01	44299.32
554.17	44699.55
554.34	44566.14
554.51	44044.20
554.67	44198.68
554.84	44442.09
555.00	44294.64
555.17	44093.35
555.33	44273.57
555.50	44505.29
555.67	44023.14
555.83	44294.64
556.00	44624.65
556.16	45020.20
556.33	44353.15
556.50	44900.84
556.66	45008.50
556.83	43739.93
556.99	44580.18
557.16	44809.56
557.32	44783.81
557.49	44830.62
557.65	44570.82
557.82	44332.09
557.98	44811.90
558.15	44905.52
558.32	45081.06
558.48	44233.78
558.65	44435.07
558.81	44828.28
558.98	44671.46
559.14	44875.09
559.31	44491.24
559.47	44626.99
559.64	44886.79
559.80	44772.11
559.97	44807.22
560.13	44783.81
560.30	44823.60
560.46	45029.57
560.63	44999.14
560.79	45418.10
560.96	45057.65
561.12	45165.32
561.29	44774.45
561.45	44996.80
561.61	45193.40
561.78	45052.97
561.94	44978.07
562.11	44978.07
562.27	44839.98
562.44	45464.91
562.60	45474.27
562.77	45123.19
562.93	45097.44
563.10	45736.41
563.26	45298.73
563.42	45532.78
563.59	44971.05
563.75	45446.18
563.92	45371.28
564.08	45029.57
564.24	45633.42
564.41	45205.11
564.57	45139.57
564.74	45132.55
564.90	45572.57
565.07	45345.54
565.23	45481.29
565.39	45312.77
565.56	44612.95
565.72	44835.30
565.88	45256.60
566.05	45439.16
566.21	45144.25
566.38	45626.40
566.54	44959.35
566.70	45757.47
566.87	45883.86
567.03	45663.85
567.19	45827.69
567.36	45270.64
567.52	45130.21
567.68	45553.85
567.85	45542.14
568.01	45666.19
568.17	45162.98
568.34	46036.00
568.50	45397.03
568.66	44938.29
568.83	45532.78
568.99	45406.39
569.15	45642.79
569.32	45502.35
569.48	45415.76
569.64	45823.01
569.81	45638.11
569.97	45649.81
570.13	45336.18
570.30	45235.53
570.46	45017.86
570.62	44975.73
570.78	45226.17
570.95	45460.23
571.11	45502.35
571.27	45680.24
571.43	45165.32
571.60	45640.45
571.76	45088.08
571.92	45429.80
572.09	45736.41
572.25	45610.02
572.41	45944.72
572.57	45701.30
572.74	46033.66
572.90	45923.65
573.06	45837.05
573.22	45998.55
573.38	45544.48
573.55	45495.33
573.71	45832.37
573.87	45876.84
574.03	46031.32
574.20	45851.09
574.36	45549.17
574.52	46054.72
574.68	45539.80
574.84	45804.28
575.01	45734.07
575.17	45705.98
575.33	45425.12
575.49	45359.58
575.65	45691.94
575.82	45965.78
575.98	45947.06
576.14	46328.56
576.30	46199.83
576.46	45677.90
576.62	45502.35
576.79	45151.27
576.95	45535.12
577.11	45762.15
577.27	45961.10
577.43	46033.66
577.59	45612.36
577.75	45530.44
577.92	45170.00
578.08	45647.47
578.24	45691.94
578.40	45804.28
578.56	45621.72
578.72	46047.70
578.88	45902.59
579.04	46211.54
579.21	46106.21
579.37	45579.59
579.53	46003.23
579.69	45745.77
579.85	45729.39
580.01	45837.05
580.17	45900.25
580.33	45698.96
580.49	45701.30
580.65	46028.98
580.82	45525.76
580.98	45680.24
581.14	46153.02
581.30	46110.89
581.46	45879.18
581.62	45724.71
581.78	45914.29
581.94	45916.63
582.10	45656.83
582.26	45759.81
582.42	46115.58
582.58	46000.89
582.74	45909.61
582.90	45668.53
583.06	45949.40
583.22	46094.51
583.38	46017.27
583.54	46494.74
583.70	45989.19
583.86	45970.46
584.02	45666.19
584.18	45792.58
584.34	45787.90
584.50	46040.68
584.66	45874.50
584.82	45858.12
584.98	46237.28
585.14	45832.37
585.30	46197.49
585.46	45757.47
585.62	45406.39
585.78	45649.81
585.94	45471.93
586.10	45914.29
586.26	45823.01
586.42	45996.21
586.58	45766.84
586.74	45879.18
586.90	45680.24
587.06	45619.38
587.22	45911.95
587.38	46174.09
587.54	45998.55
587.70	46225.58
587.86	45595.98
588.02	45743.43
588.18	46223.24
588.34	45656.83
588.49	45514.06
588.65	45759.81
588.81	45448.52
588.97	45558.53
589.13	45663.85
589.29	45605.34
589.45	45628.74
589.61	45766.84
589.77	45942.38
589.93	45895.56
590.08	45872.16
590.24	46026.63
590.40	46220.90
590.56	46370.69
590.72	45954.08
590.88	45921.31
591.04	46181.11
591.20	46560.28
591.35	46321.54
591.51	46120.26
591.67	46064.08
591.83	45879.18
591.99	46136.64
592.15	45694.28
592.31	46117.92
592.46	46143.66
592.62	45649.81
592.78	46169.41
592.94	45862.80
593.10	46024.29
593.26	46199.83
593.41	46003.23
593.57	46059.40
593.73	45991.53
593.89	46195.15
594.05	46288.77
594.20	46223.24
594.36	46382.40
594.52	45897.91
594.68	46153.02
594.84	45645.13
594.99	46361.33
595.15	46124.94
595.31	46157.70
595.47	46302.82
595.62	45893.22
595.78	46138.98
595.94	46571.98
596.10	46333.24
596.25	46288.77
596.41	46157.70
596.57	46054.72
596.73	46457.29
596.88	45954.08
597.04	46277.07
597.20	46192.81
597.36	46307.50
597.51	46515.81
597.67	46234.94
597.83	46340.27
597.99	46197.49
598.14	46220.90
598.30	46059.40
598.46	46298.14
598.61	46319.20
598.77	45628.74
598.93	45549.17
599.09	46192.81
599.24	46583.68
599.40	46419.84
599.56	46265.37
599.71	46160.05
599.87	46127.28
600.03	45923.65
600.18	46089.83
600.34	45951.74
600.50	46106.21
600.65	46078.13
600.81	45928.33
600.97	46094.51
601.12	46679.64
601.28	46209.20
601.44	45989.19
601.59	45942.38
601.75	46066.42
601.91	45975.14
602.06	45689.60
602.22	46211.54
602.37	45893.22
602.53	46113.23
602.69	46373.03
602.84	46260.69
603.00	45993.87
603.16	45890.88
603.31	46047.70
603.47	46429.21
603.62	46017.27
603.78	46113.23
603.94	45968.12
604.09	46506.44
604.25	45504.70
604.40	46071.10
604.56	46050.04
604.71	46005.57
604.87	45904.93
605.03	46124.94
605.18	45801.94
605.34	45858.12
605.49	46040.68
605.65	46085.15
605.80	46124.94
605.96	46167.07
606.12	45921.31
606.27	46014.93
606.43	45860.46
606.58	46059.40
606.74	45780.88
606.89	46260.69
607.05	46019.61
607.20	45799.60
607.36	45558.53
607.51	46181.11
607.67	46087.49
607.82	45783.22
607.98	46017.27
608.13	45713.00
608.29	45741.09
608.44	45598.32
608.60	45390.01
608.75	45855.78
608.91	45886.20
609.06	45904.93
609.22	45991.53
609.37	45331.50
609.53	45965.78
609.68	46005.57
609.84	45631.08
609.99	45549.17
610.15	45647.47
610.30	45579.59
610.46	45331.50
610.61	45249.58
610.76	45317.45
610.92	45773.86
611.07	45794.92
611.23	45525.76
611.38	45640.45
611.54	45612.36
611.69	45315.11
611.84	45207.45
612.00	45212.13
612.15	44870.41
612.31	45448.52
612.46	45223.83
612.62	45394.69
612.77	45280.00
612.92	45448.52
613.08	44903.18
613.23	45134.89
613.39	44596.57
613.54	44673.81
613.69	45148.93
613.85	45118.51
614.00	45146.59
614.15	45141.91
614.31	44966.37
614.46	45308.09
614.62	45390.01
614.77	45333.84
614.92	45312.77
615.08	44470.18
615.23	44795.51
615.38	44652.74
615.54	45083.40
615.69	44751.04
615.84	44456.14
616.00	44563.80
616.15	45043.61
616.30	45134.89
616.46	44545.08
616.61	44311.02
616.76	44311.02
616.92	44285.28
617.07	44765.09
617.22	44212.72
617.37	44095.69
617.53	44755.72
617.68	44662.10
617.83	44381.24
617.99	44739.34
618.14	44502.95
618.29	44423.37
618.45	44378.90
618.60	43856.96
618.75	44030.16
618.90	43875.68
619.06	44083.99
619.21	44542.74
619.36	44821.26
619.51	44151.87
619.67	44224.42
619.82	44149.53
619.97	44304.00
620.12	43508.22
620.28	43285.87
620.43	44018.46
620.58	44292.30
620.73	44198.68
620.89	44154.21
621.04	43929.51
621.19	44390.60
621.34	44126.12
621.49	43728.23
621.65	43988.03
621.80	44149.53
621.95	43658.01
622.10	43978.67
622.25	43391.19
622.41	43498.86
622.56	43641.63
622.71	43866.32
622.86	43973.98
623.01	43817.17
623.16	43964.62
623.32	43522.26
623.47	43571.41
623.62	43573.75
623.77	43510.56
623.92	43374.81
624.07	43562.05
624.23	42871.59
624.38	43157.14
624.53	43203.95
624.68	43522.26
624.83	43313.95
624.98	43278.85
625.13	42831.80
625.29	43068.20
625.44	42777.97
625.59	42981.60
625.74	43026.07
625.89	42827.12
626.04	42792.01
626.19	43014.37
626.34	43299.91
626.49	42911.38
626.65	42941.81
626.80	42890.32
626.95	42710.10
627.10	42740.52
627.25	43157.14
627.40	42431.57
627.55	42014.96
627.70	42190.50
627.85	41909.63
628.00	42546.26
628.15	43428.64
628.30	42625.84
628.45	42700.73
628.60	42574.34
628.76	42838.83
628.91	42623.50
629.06	42396.46
629.21	42536.90
629.36	42209.22
629.51	41904.95
629.66	42040.70
629.81	42438.59
629.96	42176.45
630.11	42045.38
630.26	42536.90
630.41	42447.96
630.56	42417.53
630.71	42146.03
630.86	42124.96
631.01	41907.29
631.16	42340.29
631.31	41928.36
631.46	41724.73
631.61	41734.09
631.76	41996.23
631.91	41979.85
632.06	41979.85
632.21	41691.96
632.36	41600.68
632.51	41752.82
632.66	41778.56
632.81	41591.32
632.96	41319.82
633.10	41698.98
633.25	41661.54
633.40	41923.68
633.55	41677.92
633.70	41860.48
633.85	41375.99
634.00	42075.81
634.15	41612.38
634.30	40961.72
634.45	41345.56
634.60	41436.84
634.75	41537.49
634.90	41532.81
635.05	41537.49
635.19	41048.32
635.34	41385.35
635.49	41137.26
635.64	41141.94
635.79	41134.92
635.94	41088.10
636.09	41270.67
636.24	40634.04
636.39	40582.55
636.53	40840.01
636.68	41324.50
636.83	40746.39
636.98	41038.95
637.13	40917.25
637.28	41315.14
637.43	41273.01
637.57	41280.03
637.72	40825.96
637.87	40662.13
638.02	41048.32
638.17	40655.11
638.32	40830.65
638.46	40931.29
638.61	40570.85
638.76	40758.09
638.91	40903.20
639.06	41099.81
639.20	40706.60
639.35	40975.76
639.50	40435.10
639.65	40884.48
639.80	40697.24
639.94	40446.80
640.09	40243.17
640.24	40301.68
640.39	40458.50
640.54	40236.15
640.68	40390.62
640.83	40278.28
640.98	40116.78
641.13	40208.06
641.27	40615.32
641.42	40006.78
641.57	40025.50
641.72	40236.15
641.86	39959.97
642.01	39646.33
642.16	39456.75
642.31	39901.45
642.45	40458.50
642.60	40039.54
642.75	39758.68
642.90	40055.93
643.04	40009.12
643.19	39763.36
643.34	40039.54
643.48	39840.60
643.63	39594.84
643.78	39468.45
643.93	39908.47
644.07	40018.48
644.22	39817.19
644.37	39732.93
644.51	40011.46
644.66	39833.58
644.81	39580.80
644.95	39559.73
645.10	39330.36
645.25	39564.42
645.39	39505.90
645.54	39622.93
645.69	39339.72
645.83	39494.20
645.98	39180.57
646.13	38988.64
646.27	39402.92
646.42	39164.18
646.57	39016.73
646.71	39037.80
646.86	39269.51
647.00	39117.37
647.15	39278.87
647.30	39192.27
647.44	38756.93
647.59	39007.37
647.74	39061.20
647.88	39264.83
648.03	38986.30
648.17	38960.56
648.32	39019.07
648.47	38951.20
648.61	38380.10
648.76	38969.92
648.90	38595.43
649.05	39014.39
649.20	38710.12
649.34	38890.34
649.49	38770.97
649.63	38408.19
649.78	38436.28
649.92	39110.35
650.07	38902.04
650.21	38462.02
650.36	38864.60
650.51	38869.28
650.65	39264.83
650.80	39122.05
650.94	39086.95
651.09	39100.99
651.23	38007.96
651.38	38501.81
651.52	38082.86
651.67	38181.16
651.81	37919.02
651.96	38216.27
652.10	38211.59
652.25	38593.09
652.39	38190.52
652.54	38181.16
652.68	38087.54
652.83	38298.19
652.97	38483.09
653.12	38361.38
653.26	37963.49
653.41	38096.90
653.55	38249.03
653.70	37785.61
653.84	38345.00
653.99	37951.79
654.13	37900.29
654.27	37783.27
654.42	37343.25
654.56	37670.92
654.71	38206.90
654.85	37942.42
655.00	37897.95
655.14	37886.25
655.29	37359.63
655.43	37649.86
655.57	36659.81
655.72	37095.15
655.86	37158.34
656.01	36816.63
656.15	36964.08
656.30	37486.02
656.44	36943.02
656.58	37965.83
656.73	37542.19
656.87	37240.26
657.01	37090.47
657.16	37275.37
657.30	36446.82
657.45	37043.66
657.59	36774.50
657.73	37574.96
657.88	37137.28
658.02	37331.54
658.16	37549.21
658.31	36973.44
658.45	37553.90
658.60	36865.78
658.74	36945.36
658.88	37048.34
659.03	36825.99
659.17	36732.37
659.31	36694.92
659.46	36694.92
659.60	37064.72
659.74	36484.27
659.89	36460.87
660.03	36222.13
660.17	36818.97
660.32	37120.90
660.46	36809.61
660.60	36224.47
660.74	36304.05
660.89	36755.77
661.03	35959.99
661.17	35950.63
661.32	36039.57
661.46	35835.94
661.60	36247.88
661.74	35644.02
661.89	35803.17
662.03	35866.37
662.17	35878.07
662.31	36226.81
662.46	36439.80
662.60	36481.93
662.74	35981.06
662.88	35744.66
663.03	35503.59
663.17	35803.17
663.31	35814.88
663.45	35204.00
663.60	35730.62
663.74	35187.61
663.88	35269.53
664.02	35211.02
664.17	35466.14
664.31	35243.79
664.45	35040.16
664.59	34679.72
664.73	34815.47
664.88	34719.51
665.02	34778.02
665.16	34668.02
665.30	34831.85
665.44	34735.89
665.59	34710.14
665.73	34525.24
665.87	34129.69
666.01	34731.21
666.15	34579.07
666.29	34803.77
666.44	34600.14
666.58	34122.67
666.72	34623.54
666.86	34398.85
667.00	34143.74
667.14	34120.33
667.28	33743.50
667.43	34092.24
667.57	34277.15
667.71	34349.70
667.85	33914.36
667.99	34281.83
668.13	34190.55
668.27	34323.96
668.41	33982.24
668.56	33790.31
668.70	33799.68
668.84	33312.84
668.98	33181.77
669.12	33331.57
669.26	33795.00
669.40	33029.64
669.54	33439.23
669.68	33394.76
669.82	32748.78
669.96	32907.93
670.10	33315.19
670.25	33184.12
670.39	32989.85
670.53	33223.90
670.67	32737.07
670.81	32821.33
670.95	32493.66
671.09	32952.40
671.23	32283.01
671.37	32627.07
671.51	32437.48
671.65	32332.16
671.79	32149.60
671.93	32547.49
672.07	32430.46
672.21	32116.83
672.35	32170.66
672.49	32161.30
672.63	32084.06
672.77	31995.12
672.91	31887.46
673.05	31321.05
673.19	31658.09
673.33	31353.82
673.47	31529.36
673.61	31454.46
673.75	31175.94
673.89	31023.80
674.03	31187.64
674.17	31358.50
674.31	30967.63
674.45	31143.17
674.59	31618.30
674.73	31267.22
674.87	30951.24
675.01	30607.19
675.15	30560.37
675.29	30888.05
675.43	30902.09
675.56	30691.44
675.70	30675.06
675.84	30401.22
675.98	29612.46
676.12	30302.92
676.26	30707.83
676.40	30525.27
676.54	30270.15
676.68	30019.71
676.82	29813.74
676.96	29729.48
677.10	29708.42
677.23	29830.13
677.37	29825.45
677.51	29752.89
677.65	29099.88
677.79	29027.32
677.93	28755.82
678.07	28826.04
678.21	28704.33
678.34	29120.95
678.48	28669.22
678.62	28531.13
678.76	28334.53
678.90	28268.99
679.04	28673.90
679.18	28638.80
679.31	27983.44
679.45	28016.21
679.59	28140.26
679.73	27999.83
679.87	27974.08
680.00	28114.52
680.14	28194.09
680.28	28030.26
680.42	27639.39
680.56	27632.36
680.70	27388.95
680.83	27548.11
680.97	26939.57
681.11	27449.80
681.25	27040.21
681.39	26745.30
681.52	26654.02
681.66	26962.97
681.80	26546.36
681.94	26588.49
682.07	26721.90
682.21	26630.62
682.35	26546.36
682.49	26384.86
682.62	26518.27
682.76	26141.44
682.90	26015.05
683.04	26228.04
683.17	26356.77
683.31	25771.64
683.45	25989.31
683.59	25750.57
683.72	25364.39
683.86	25565.67
684.00	25626.53
684.13	25193.53
684.27	25050.75
684.41	25305.87
684.55	24851.81
684.68	24898.62
684.82	25195.87
684.96	24584.99
685.09	24400.08
685.23	24671.59
685.37	24769.89
685.50	24458.60
685.64	24833.08
685.78	24332.21
685.91	24121.56
686.05	24245.61
686.19	23836.02
686.32	24086.45
686.46	23627.71
686.60	23278.97
686.73	23166.62
686.87	23190.03
687.01	23168.96
687.14	23124.49
687.28	22878.74
687.42	23103.43
687.55	22932.57
687.69	22831.93
687.82	23356.21
687.96	23007.47
688.10	22429.35
688.23	22693.83
688.37	22668.09
688.50	22553.40
688.64	22284.24
688.78	22408.29
688.91	22270.20
689.05	21970.61
689.18	22340.41
689.32	21916.78
689.46	21731.87
689.59	21872.31
689.73	22366.16
689.86	21825.50
690.00	21399.52
690.13	21640.59
690.27	21619.53
690.41	21254.40
690.54	21345.69
690.68	20961.84
690.81	21123.33
690.95	21158.44
691.08	21231.00
691.22	21228.66
691.35	21046.10
691.49	20971.20
691.62	20800.34
691.76	20697.36
691.89	20781.62
692.03	20306.49
692.16	20470.33
692.30	20135.63
692.43	20177.76
692.57	19894.55
692.70	20301.81
692.84	19812.63
692.97	19672.20
693.11	19609.01
693.24	19660.50
693.38	19814.98
693.51	19206.44
693.65	19861.79
693.78	19445.17
693.92	19381.98
694.05	19190.05
694.19	19154.94
694.32	19365.59
694.45	19084.73
694.59	18827.27
694.72	19026.21
694.86	18820.25
694.99	18604.92
695.13	18925.57
695.26	18672.79
695.39	18141.49
695.53	18621.30
695.66	18602.58
695.80	18436.40
695.93	18132.13
696.07	18305.33
696.20	18307.67
696.33	18384.91
696.47	18129.79
696.60	17720.20
696.73	17778.71
696.87	17619.55
697.00	17764.67
697.14	17345.71
697.27	17584.44
697.40	17516.57
697.54	17177.19
697.67	17282.52
697.80	17231.02
697.94	17221.66
698.07	16996.97
698.21	16809.73
698.34	17013.35
698.47	16957.18
698.61	16821.43
698.74	16868.24
698.87	16821.43
699.01	16512.48
699.14	16231.62
699.27	16496.10
699.40	16500.78
699.54	16098.20
699.67	16020.97
699.80	16238.64
699.94	15852.45
700.07	16018.63
700.20	15903.94
700.34	16280.77
700.47	16067.78
700.60	15564.56
700.73	15936.71
700.87	15623.08
701.00	15515.41
701.13	15564.56
701.26	15405.41
701.40	15646.48
701.53	15222.84
701.66	15080.07
701.79	14953.68
701.93	15187.74
702.06	14743.03
702.19	14743.03
702.32	14736.01
702.46	14890.49
702.59	14796.87
702.72	14754.74
702.85	14764.10
702.99	14356.85
703.12	14406.00
703.25	14317.06
703.38	14146.20
703.51	14340.46
703.65	14204.71
703.78	13891.08
703.91	13867.67
704.04	13823.20
704.17	14026.83
704.31	13748.31
704.44	13881.72
704.57	14012.79
704.70	13427.65
704.83	13547.02
704.96	13703.84
705.10	13727.24
705.23	13525.96
>>>>>End Processed Spectral Data<<<<<
