SpectraSuite Data File
++++++++++++++++++++++++++++++++++++
Date: Fri Oct 25 10:44:53 EDT 2013
User: price-jones
Dark Spectrum Present: No
Reference Spectrum Present: No
Number of Sampled Component Spectra: 1
Spectrometers: USB2+H05261
Integration Time (usec): 100000 (USB2+H05261)
Spectra Averaged: 1 (USB2+H05261)
Boxcar Smoothing: 0 (USB2+H05261)
Correct for Electrical Dark: No (USB2+H05261)
Strobe/Lamp Enabled: No (USB2+H05261)
Correct for Detector Non-linearity: No (USB2+H05261)
Correct for Stray Light: No (USB2+H05261)
Number of Pixels in Processed Spectrum: 2048
>>>>>Begin Processed Spectral Data<<<<<
365.73	86.60
365.92	86.60
366.12	86.60
366.32	42.13
366.52	4.68
366.72	46.81
366.91	0.00
367.11	72.56
367.31	0.00
367.51	51.49
367.70	74.90
367.90	86.60
368.10	4.68
368.30	0.00
368.49	16.38
368.69	72.56
368.89	63.19
369.09	21.06
369.28	23.41
369.48	46.81
369.68	119.37
369.87	93.62
370.07	102.98
370.27	154.48
370.47	187.24
370.66	421.30
370.86	465.77
371.06	454.06
371.25	505.56
371.45	388.53
371.65	423.64
371.84	435.34
372.04	395.55
372.24	461.09
372.44	489.17
372.63	425.98
372.83	550.03
373.03	477.47
373.22	454.06
373.42	517.26
373.62	540.66
373.81	505.56
374.01	526.62
374.21	608.54
374.40	500.87
374.60	664.71
374.79	592.16
374.99	538.32
375.19	550.03
375.38	533.64
375.58	526.62
375.78	540.66
375.97	568.75
376.17	638.97
376.37	554.71
376.56	561.73
376.76	610.88
376.95	498.53
377.15	681.10
377.35	645.99
377.54	524.28
377.74	573.43
377.93	594.50
378.13	566.41
378.33	671.73
378.52	592.16
378.72	568.75
378.91	641.31
379.11	620.24
379.31	613.22
379.50	526.62
379.70	629.60
379.89	676.41
380.09	585.13
380.28	587.47
380.48	606.20
380.68	608.54
380.87	641.31
381.07	606.20
381.26	657.69
381.46	655.35
381.65	636.63
381.85	727.91
382.04	613.22
382.24	734.93
382.43	718.54
382.63	585.13
382.83	657.69
383.02	681.10
383.22	753.65
383.41	638.97
383.61	660.03
383.80	739.61
384.00	711.52
384.19	774.72
384.39	730.25
384.58	755.99
384.78	695.14
384.97	713.86
385.17	802.80
385.36	699.82
385.56	713.86
385.75	711.52
385.95	741.95
386.14	798.12
386.34	723.23
386.53	830.89
386.72	732.59
386.92	748.97
387.11	758.33
387.31	863.66
387.50	781.74
387.70	748.97
387.89	812.17
388.09	800.46
388.28	830.89
388.48	798.12
388.67	870.68
388.86	873.02
389.06	800.46
389.25	898.77
389.45	915.15
389.64	877.70
389.84	875.36
390.03	966.64
390.22	887.06
390.42	945.58
390.61	915.15
390.81	931.53
391.00	966.64
391.19	1041.54
391.39	889.40
391.58	957.28
391.78	964.30
391.97	973.66
392.16	910.47
392.36	999.41
392.55	959.62
392.75	933.87
392.94	931.53
393.13	964.30
393.33	973.66
393.52	959.62
393.71	1043.88
393.91	1039.20
394.10	1013.45
394.29	1064.94
394.49	1137.50
394.68	1090.69
394.88	1067.28
395.07	1186.65
395.26	1048.56
395.46	1167.93
395.65	1076.65
395.84	1174.95
396.04	1121.12
396.23	1036.86
396.42	1114.10
396.62	1142.18
396.81	1165.59
397.00	1102.39
397.19	1125.80
397.39	1181.97
397.58	1259.21
397.77	1308.36
397.97	1315.38
398.16	1252.19
398.35	1238.14
398.55	1327.08
398.74	1252.19
398.93	1320.06
399.12	1359.85
399.32	1355.17
399.51	1392.62
399.70	1364.53
399.90	1380.92
400.09	1483.90
400.28	1469.86
400.47	1437.09
400.67	1462.83
400.86	1420.71
401.05	1521.35
401.24	1502.62
401.44	1523.69
401.63	1526.03
401.82	1537.73
402.01	1483.90
402.21	1565.82
402.40	1514.33
402.59	1511.99
402.78	1563.48
402.97	1586.88
403.17	1568.16
403.36	1614.97
403.55	1687.53
403.74	1612.63
403.93	1668.80
404.13	1668.80
404.32	1689.87
404.51	1647.74
404.70	1645.40
404.89	1600.93
405.09	1858.39
405.28	1727.32
405.47	1767.10
405.66	1816.26
405.85	1753.06
406.05	1781.15
406.24	1804.55
406.43	1809.23
406.62	1891.15
406.81	2038.61
407.00	1804.55
407.20	1837.32
407.39	1748.38
407.58	1820.94
407.77	1912.22
407.96	1916.90
408.15	2052.65
408.34	1987.11
408.54	1912.22
408.73	2052.65
408.92	1935.62
409.11	2024.56
409.30	2118.18
409.49	2029.24
409.68	1980.09
409.87	2038.61
410.07	1987.11
410.26	2101.80
410.45	2221.17
410.64	2148.61
410.83	2230.53
411.02	2169.68
411.21	2300.75
411.40	2200.10
411.59	2275.00
411.78	2286.70
411.98	2265.64
412.17	2356.92
412.36	2399.05
412.55	2289.04
412.74	2518.42
412.93	2380.32
413.12	2413.09
413.31	2457.56
413.50	2546.50
413.69	2567.57
413.88	2588.63
414.07	2581.61
414.26	2651.83
414.45	2663.53
414.64	2647.15
414.83	2621.40
415.02	2733.75
415.22	2715.02
415.41	2733.75
415.60	2750.13
415.79	2897.58
415.98	2963.12
416.17	2918.65
416.36	2874.18
416.55	2820.35
416.74	2984.18
416.93	2906.95
417.12	3016.95
417.31	3054.40
417.50	2958.44
417.69	3152.70
417.88	2949.08
418.07	3136.32
418.26	3012.27
418.45	3103.55
418.64	3234.62
418.83	3194.83
419.02	3176.11
419.21	3164.40
419.39	3208.87
419.58	3192.49
419.77	3199.51
419.96	3138.66
420.15	3276.75
420.34	3239.30
420.53	3342.28
420.72	3389.10
420.91	3506.12
421.10	3361.01
421.29	3438.25
421.48	3424.20
421.67	3361.01
421.86	3344.63
422.05	3389.10
422.24	3370.37
422.43	3325.90
422.61	3496.76
422.80	3510.80
422.99	3527.19
423.18	3506.12
423.37	3531.87
423.56	3592.72
423.75	3585.70
423.94	3503.78
424.13	3344.63
424.32	3456.97
424.50	3475.70
424.69	3641.87
424.88	3557.61
425.07	3665.28
425.26	3468.67
425.45	3765.92
425.64	3531.87
425.83	3665.28
426.01	3634.85
426.20	3592.72
426.39	3679.32
426.58	3569.32
426.77	3606.77
426.96	3655.92
427.15	3569.32
427.33	3625.49
427.52	3662.94
427.71	3831.46
427.90	3674.64
428.09	3665.28
428.28	3772.94
428.46	3786.99
428.65	3772.94
428.84	3995.29
429.03	3829.12
429.22	3726.13
429.40	3868.91
429.59	3843.16
429.78	3742.52
429.97	3705.07
430.16	3691.02
430.34	3744.86
430.53	3885.29
430.72	3843.16
430.91	3913.38
431.10	4032.74
431.28	4109.98
431.47	4016.36
431.66	4264.46
431.85	4152.11
432.03	4145.09
432.22	4203.60
432.41	4173.18
432.60	4255.09
432.79	4231.69
432.97	4255.09
433.16	4320.63
433.35	4102.96
433.54	4210.62
433.72	4308.93
433.91	4262.12
434.10	4346.37
434.28	4297.22
434.47	4304.25
434.66	4404.89
434.85	4362.76
435.03	4582.77
435.22	4456.38
435.41	4526.60
435.59	4643.62
435.78	4643.62
435.97	4704.48
436.16	4449.36
436.34	4624.90
436.53	4660.01
436.72	4683.41
436.90	4610.86
437.09	4660.01
437.28	4660.01
437.46	4678.73
437.65	4613.20
437.84	4622.56
438.02	4535.96
438.21	4688.09
438.40	4692.77
438.58	4891.72
438.77	4912.78
438.96	4947.89
439.14	5018.11
439.33	4865.97
439.52	5013.43
439.70	5029.81
439.89	5118.75
440.08	5142.16
440.26	5100.03
440.45	5198.33
440.63	5156.20
440.82	5369.19
441.01	5378.55
441.19	5394.93
441.38	5320.04
441.57	5350.46
441.75	5568.13
441.94	5565.79
442.12	5535.37
442.31	5790.49
442.50	5743.67
442.68	5631.33
442.87	5781.12
443.05	5771.76
443.24	5916.87
443.43	5874.74
443.61	5879.43
443.80	5989.43
443.98	5645.37
444.17	5610.26
444.35	5720.27
444.54	5951.98
444.73	5853.68
444.91	5830.27
445.10	5970.71
445.28	5870.06
445.47	5764.74
445.65	5734.31
445.84	5764.74
446.02	6092.41
446.21	5741.33
446.39	5820.91
446.58	5942.62
446.77	6129.86
446.95	5818.57
447.14	6054.97
447.32	6157.95
447.51	5928.58
447.69	5914.53
447.88	6017.52
448.06	6001.13
448.25	6153.27
448.43	6237.53
448.62	6001.13
448.80	6017.52
448.99	6221.14
449.17	6066.67
449.36	6031.56
449.54	6200.08
449.73	6319.45
449.91	6251.57
450.10	6338.17
450.28	6532.44
450.46	6452.86
450.65	6539.46
450.83	6349.87
451.02	6480.94
451.20	6546.48
451.39	6597.97
451.57	6565.20
451.76	6494.99
451.94	6457.54
452.13	6614.35
452.31	6473.92
452.49	6452.86
452.68	6455.20
452.86	6604.99
453.05	6588.61
453.23	6576.91
453.42	6537.12
453.60	6555.84
453.78	6726.70
453.97	6750.10
454.15	6602.65
454.34	6525.41
454.52	6773.51
454.70	6836.70
454.89	6970.12
455.07	6675.21
455.26	6801.60
455.44	6988.84
455.62	6927.99
455.81	6902.24
455.99	6993.52
456.17	6925.65
456.36	6883.52
456.54	7213.53
456.73	7197.15
456.91	7194.81
457.09	7258.00
457.28	7426.52
457.46	7236.94
457.64	7199.49
457.83	7274.38
458.01	7286.09
458.19	7456.95
458.38	7421.84
458.56	7412.48
458.74	7344.60
458.93	7492.05
459.11	7435.88
459.29	7562.27
459.48	7683.98
459.66	7581.00
459.84	7410.14
460.03	7735.47
460.21	7705.04
460.39	7735.47
460.57	7613.76
460.76	7705.04
460.94	7709.72
461.12	7822.07
461.31	7847.82
461.49	8056.12
461.67	7796.32
461.85	8093.57
462.04	8067.83
462.22	8152.09
462.40	8116.98
462.59	8114.64
462.77	8063.15
462.95	8131.02
463.13	8009.31
463.32	7873.56
463.50	7978.89
463.68	8205.92
463.86	8079.53
464.05	8156.77
464.23	8124.00
464.41	8280.82
464.59	8021.02
464.78	8498.49
464.96	8208.26
465.14	8081.87
465.32	8409.54
465.50	8348.69
465.69	8444.65
465.87	8369.76
466.05	8386.14
466.23	8446.99
466.41	8418.91
466.60	8699.77
466.78	8177.83
466.96	8554.66
467.14	8397.84
467.32	8533.59
467.51	8582.74
467.69	8381.46
467.87	8622.53
468.05	8688.07
468.23	8634.24
468.41	8599.13
468.60	8526.57
468.78	8793.39
468.96	8690.41
469.14	8849.57
469.32	8938.51
469.50	8608.49
469.69	8964.25
469.87	8800.41
470.05	8954.89
470.23	8966.59
470.41	8823.82
470.59	8966.59
470.77	8929.14
470.95	9144.47
471.14	9254.48
471.32	9013.40
471.50	9511.94
471.68	9352.78
471.86	9301.29
472.04	9448.74
472.22	9671.09
472.40	9378.53
472.58	9366.82
472.77	9530.66
472.95	9675.77
473.13	10066.64
473.31	9554.07
473.49	9528.32
473.67	9715.56
473.85	9820.89
474.03	10061.96
474.21	10001.11
474.39	10043.24
474.57	9973.02
474.75	10178.99
474.93	10300.70
475.12	10064.30
475.30	10120.48
475.48	10022.17
475.66	10345.17
475.84	10401.34
476.02	10513.69
476.20	10401.34
476.38	10551.14
476.56	10932.64
476.74	10820.30
476.92	10675.18
477.10	10899.87
477.28	11126.91
477.46	10958.39
477.64	11293.08
477.82	11082.44
478.00	11410.11
478.18	11412.45
478.36	11555.22
478.54	11482.67
478.72	11555.22
478.90	11690.98
479.08	11683.95
479.26	12112.27
479.44	12011.63
479.62	11999.93
479.80	12156.74
479.98	12327.60
480.16	12554.63
480.34	12442.29
480.52	12524.21
480.70	12358.03
480.88	12465.69
481.06	12627.19
481.24	12690.38
481.41	12793.37
481.59	13177.22
481.77	13036.78
481.95	13366.80
482.13	13179.56
482.31	13465.10
482.49	13619.58
482.67	13568.09
482.85	13607.87
483.03	13778.73
483.21	13809.16
483.39	14462.17
483.57	14061.94
483.74	14136.84
483.92	14209.39
484.10	14190.67
484.28	14600.26
484.46	14775.80
484.64	14640.05
484.82	14750.06
485.00	14993.47
485.18	15019.22
485.35	15264.97
485.53	15042.62
485.71	15037.94
485.89	15466.26
486.07	15122.20
486.25	15529.45
486.43	15625.42
486.61	16016.29
486.78	15852.45
486.96	15922.66
487.14	16313.53
487.32	16390.77
487.50	16428.22
487.68	16542.91
487.85	16798.02
488.03	16929.09
488.21	17256.77
488.39	17345.71
488.57	17436.99
488.75	17355.07
488.92	17928.50
489.10	17888.71
489.28	17642.96
489.46	18113.41
489.64	18015.10
489.81	18190.64
489.99	18438.74
490.17	18354.48
490.35	18881.10
490.53	18635.35
490.70	18691.52
490.88	18967.70
491.06	18899.83
491.24	19293.04
491.41	19227.50
491.59	19180.69
491.77	19344.53
491.95	19503.68
492.13	19754.12
492.30	19913.28
492.48	19981.15
492.66	20074.77
492.84	20269.04
493.01	20297.13
493.19	20240.95
493.37	20245.63
493.54	20713.74
493.72	20882.26
493.90	21020.35
494.08	20809.70
494.25	20912.69
494.43	21172.49
494.61	21458.03
494.79	21287.17
494.96	21521.23
495.14	21743.58
495.32	22045.51
495.49	21806.77
495.67	22352.12
495.85	22197.64
496.02	22033.80
496.20	22455.10
496.38	22668.09
496.55	22773.41
496.73	23241.52
496.91	22782.77
497.09	23094.07
497.26	23023.85
497.44	23414.72
497.62	23438.12
497.79	23482.59
497.97	23419.40
498.14	23601.96
498.32	23784.52
498.50	23838.36
498.67	24348.59
498.85	24023.26
499.03	24348.59
499.20	24142.63
499.38	24201.14
499.56	24435.19
499.73	24615.41
499.91	24620.10
500.08	24655.20
500.26	24533.50
500.44	24807.34
500.61	24971.18
500.79	24659.88
500.97	24964.15
501.14	25132.67
501.32	25420.56
501.49	25219.27
501.67	25596.10
501.84	25560.99
502.02	25427.58
502.20	25851.22
502.37	25855.90
502.55	26015.05
502.72	25759.94
502.90	26045.48
503.07	26312.30
503.25	26089.95
503.43	26038.46
503.60	26162.51
503.78	26356.77
503.95	26260.81
504.13	26522.95
504.30	26749.98
504.48	26827.22
504.65	26808.50
504.83	26951.27
505.01	27381.93
505.18	27040.21
505.36	27344.48
505.53	27307.03
505.71	27498.95
505.88	27721.30
506.06	27290.65
506.23	27824.29
506.41	27721.30
506.58	27330.44
506.76	28056.00
506.93	27906.21
507.11	27704.92
507.28	27857.06
507.46	27920.25
507.63	27878.12
507.81	27983.44
507.98	27955.36
508.16	28568.58
508.33	28201.11
508.50	28414.10
508.68	28723.05
508.85	28830.72
509.03	29060.09
509.20	29069.45
509.38	29415.85
509.55	29528.20
509.73	29179.46
509.90	29252.02
510.08	29303.51
510.25	29455.64
510.42	29544.58
510.60	29834.81
510.77	29816.08
510.95	29867.58
511.12	29572.67
511.30	30366.11
511.47	30263.13
511.64	30136.74
511.82	30265.47
511.99	29804.38
512.17	29865.24
512.34	30089.93
512.51	30693.79
512.69	30621.23
512.86	30670.38
513.04	30923.16
513.21	31000.40
513.38	30398.88
513.56	30548.67
513.73	30972.31
513.90	31126.78
514.08	30885.71
514.25	31094.02
514.43	31386.58
514.60	31346.79
514.77	31119.76
514.95	31782.13
515.12	31990.44
515.29	31419.35
515.47	31796.18
515.64	32013.85
515.81	31796.18
515.99	31875.76
516.16	31660.43
516.33	31828.95
516.51	31945.97
516.68	32095.77
516.85	31377.22
517.03	31831.29
517.20	31889.80
517.37	32114.49
517.54	32275.99
517.72	32273.65
517.89	32210.45
518.06	32421.10
518.24	32112.15
518.41	32624.73
518.58	32730.05
518.75	32662.18
518.93	32664.52
519.10	32669.20
519.27	32772.18
519.45	32622.39
519.62	33156.03
519.79	32954.74
519.96	33542.22
520.14	33280.08
520.31	32912.61
520.48	33247.31
520.65	33249.65
520.83	33993.94
521.00	33539.88
521.17	33851.17
521.34	33696.69
521.52	34015.01
521.69	33926.07
521.86	34267.78
522.03	34246.72
522.20	34366.09
522.38	34391.83
522.55	34143.74
522.72	34120.33
522.89	34543.97
523.07	34117.99
523.24	34139.05
523.41	35002.71
523.58	34529.92
523.75	35199.32
523.92	35103.35
524.10	34714.83
524.27	35304.64
524.44	34888.03
524.61	35351.45
524.78	35431.03
524.96	35461.46
525.13	35157.19
525.30	35522.31
525.47	35770.41
525.64	35431.03
525.81	35594.87
525.98	35711.89
526.16	35386.56
526.33	35538.69
526.50	35606.57
526.67	35536.35
526.84	35496.56
527.01	35501.25
527.18	36025.53
527.36	35899.14
527.53	36222.13
527.70	36634.06
527.87	36500.65
528.04	36126.17
528.21	36184.68
528.38	36561.51
528.55	36545.12
528.72	36566.19
528.89	36652.79
529.07	36882.16
529.24	36364.90
529.41	36692.58
529.58	36282.98
529.75	36620.02
529.92	36926.63
530.09	36903.23
530.26	36959.40
530.43	36978.12
530.60	37031.96
530.77	37088.13
530.94	37324.52
531.11	37221.54
531.28	37156.00
531.46	37699.01
531.63	37773.91
531.80	37486.02
531.97	37736.46
532.14	37228.56
532.31	37163.03
532.48	37624.11
532.65	37333.89
532.82	37214.52
532.99	37624.11
533.16	37439.21
533.33	37654.54
533.50	38089.88
533.67	38052.43
533.84	37883.91
534.01	38022.00
534.18	37572.62
534.35	38031.36
534.52	38057.11
534.69	38595.43
534.86	38122.65
535.03	38286.48
535.20	38239.67
535.37	38770.97
535.54	38747.57
535.71	38483.09
535.88	38497.13
536.05	38752.25
536.22	38778.00
536.38	38618.84
536.55	39161.84
536.72	38895.02
536.89	38780.34
537.06	39079.92
537.23	38628.20
537.40	38955.88
537.57	38621.18
537.74	39089.29
537.91	39323.34
538.08	39180.57
538.25	38815.44
538.42	38925.45
538.59	39344.41
538.75	38766.29
538.92	39070.56
539.09	39400.58
539.26	38831.83
539.43	39793.79
539.60	38635.22
539.77	39232.06
539.94	39194.61
540.11	39159.50
540.28	39543.35
540.44	39374.83
540.61	39915.50
540.78	39461.43
540.95	39629.95
541.12	39344.41
541.29	39655.70
541.46	39697.83
541.62	40273.60
541.79	40182.32
541.96	39672.08
542.13	39983.37
542.30	40032.52
542.47	40404.67
542.63	39990.39
542.80	40208.06
542.97	40744.05
543.14	40828.30
543.31	40402.33
543.48	40563.82
543.64	41188.75
543.81	40664.47
543.98	41045.97
544.15	40383.60
544.32	40985.12
544.48	40847.03
544.65	40790.86
544.82	40781.49
544.99	40690.21
545.16	41099.81
545.32	40814.26
545.49	41305.77
545.66	41193.43
545.83	41106.83
546.00	41160.66
546.16	40893.84
546.33	41045.97
546.50	41078.74
546.67	41188.75
546.83	41088.10
547.00	41085.76
547.17	41675.58
547.34	41799.63
547.50	41656.85
547.67	41642.81
547.84	41682.60
548.00	41794.95
548.17	41944.74
548.34	41991.55
548.51	42047.72
548.67	42059.43
548.84	41867.50
549.01	41516.42
549.18	41839.42
549.34	41942.40
549.51	42148.37
549.68	41713.03
549.84	42141.35
550.01	41982.19
550.18	42110.92
550.34	42031.34
550.51	42108.58
550.68	42377.74
550.84	41787.92
551.01	42249.01
551.18	42373.06
551.34	42300.50
551.51	42319.23
551.68	42490.09
551.84	41993.89
552.01	41930.70
552.18	42574.34
552.34	42026.66
552.51	42555.62
552.68	41961.12
552.84	43005.00
553.01	42838.83
553.18	42239.65
553.34	42370.72
553.51	42623.50
553.67	42036.02
553.84	42614.13
554.01	42918.40
554.17	42298.16
554.34	43047.13
554.51	42567.32
554.67	42948.83
554.84	42777.97
555.00	42597.75
555.17	42532.22
555.33	42693.71
555.50	43107.99
555.67	43203.95
555.83	42749.88
556.00	43047.13
556.16	43276.51
556.33	42990.96
556.50	43021.39
556.66	42892.66
556.83	42939.47
556.99	43384.17
557.16	42637.54
557.32	43374.81
557.49	43503.54
557.65	43021.39
557.82	43220.33
557.98	42906.70
558.15	43323.32
558.32	43337.36
558.48	42869.25
558.65	43548.01
558.81	43339.70
558.98	43103.31
559.14	43707.16
559.31	43416.94
559.47	43945.90
559.64	43971.64
559.80	43711.84
559.97	43124.37
560.13	43592.48
560.30	43421.62
560.46	43058.84
560.63	43931.86
560.79	43856.96
560.96	44105.06
561.12	43557.37
561.29	43676.74
561.45	43964.62
561.61	43337.36
561.78	43391.19
561.94	43728.23
562.11	43580.78
562.27	43508.22
562.44	44194.00
562.60	43920.15
562.77	43978.67
562.93	43983.35
563.10	44020.80
563.26	43344.38
563.42	43908.45
563.59	43690.78
563.75	43648.65
563.92	43798.44
564.08	43943.56
564.24	43665.03
564.41	44254.85
564.57	44039.52
564.74	44259.53
564.90	43742.27
565.07	43798.44
565.23	44119.10
565.39	43896.75
565.56	44229.10
565.72	44053.56
565.88	43650.99
566.05	43924.83
566.21	43852.28
566.38	43796.10
566.54	44308.68
566.70	44301.66
566.87	43892.07
567.03	44421.03
567.19	44631.68
567.36	44186.97
567.52	44055.90
567.68	44252.51
567.85	44516.99
568.01	43845.26
568.17	43875.68
568.34	44046.54
568.50	44472.52
568.66	43922.49
568.83	44222.08
568.99	44245.49
569.15	43746.95
569.32	43964.62
569.48	44191.65
569.64	44755.72
569.81	44053.56
569.97	44318.04
570.13	44357.83
570.30	44009.09
570.46	44002.07
570.62	43906.11
570.78	44009.09
570.95	44430.39
571.11	44367.20
571.27	43983.35
571.43	44598.91
571.60	44589.55
571.76	44130.80
571.92	44027.82
572.09	43917.81
572.25	44418.69
572.41	44343.79
572.57	44388.26
572.74	44378.90
572.90	44882.11
573.06	44631.68
573.22	44399.96
573.38	44294.64
573.55	44259.53
573.71	44928.92
573.87	44430.39
574.03	44147.18
574.20	44835.30
574.36	44292.30
574.52	44463.16
574.68	44678.49
574.84	44531.03
575.01	44615.29
575.17	44266.55
575.33	44402.30
575.49	44540.39
575.65	44460.82
575.82	44486.56
575.98	44329.75
576.14	44882.11
576.30	44421.03
576.46	44683.17
576.62	43845.26
576.79	44322.72
576.95	44208.04
577.11	44858.71
577.27	44882.11
577.43	44594.23
577.59	44294.64
577.75	44545.08
577.92	43871.00
578.08	43828.87
578.24	44566.14
578.40	44229.10
578.56	44409.32
578.72	44280.60
578.88	44844.66
579.04	44631.68
579.21	44575.50
579.37	44591.89
579.53	44287.62
579.69	44439.75
579.85	44596.57
580.01	44851.69
580.17	44435.07
580.33	44718.28
580.49	44531.03
580.65	44568.48
580.82	45055.31
580.98	44414.01
581.14	44313.36
581.30	44788.49
581.46	44823.60
581.62	44931.26
581.78	44477.20
581.94	44687.85
582.10	44746.36
582.26	44587.21
582.42	44601.25
582.58	44484.22
582.74	44626.99
582.90	44900.84
583.06	44406.98
583.22	44842.32
583.38	44725.30
583.54	45052.97
583.70	44879.77
583.86	45003.82
584.02	44425.71
584.18	44905.52
584.34	44788.49
584.50	44643.38
584.66	44470.18
584.82	44446.77
584.98	44753.38
585.14	44715.93
585.30	44624.65
585.46	44748.70
585.62	44238.47
585.78	44484.22
585.94	44582.52
586.10	44664.44
586.26	45102.12
586.42	44851.69
586.58	44502.95
586.74	44676.15
586.90	44619.97
587.06	44409.32
587.22	44928.92
587.38	44500.61
587.54	44954.67
587.70	44837.64
587.86	45120.85
588.02	45141.91
588.18	44664.44
588.34	44463.16
588.49	44643.38
588.65	44229.10
588.81	43915.47
588.97	44877.43
589.13	44203.36
589.29	44629.34
589.45	44610.61
589.61	44739.34
589.77	44858.71
589.93	45006.16
590.08	44872.75
590.24	44924.24
590.40	45010.84
590.56	44926.58
590.72	45177.02
590.88	44856.37
591.04	44751.04
591.20	45378.31
591.35	45104.46
591.51	45598.32
591.67	44954.67
591.83	44830.62
591.99	45003.82
592.15	45071.70
592.31	45001.48
592.46	44676.15
592.62	45071.70
592.78	45390.01
592.94	44957.01
593.10	44865.73
593.26	45076.38
593.41	45010.84
593.57	44687.85
593.73	44849.35
593.89	44781.47
594.05	45343.20
594.20	44811.90
594.36	44949.99
594.52	45221.49
594.68	44809.56
594.84	45038.93
594.99	45387.67
595.15	45130.21
595.31	45160.64
595.47	45013.18
595.62	45478.95
595.78	44739.34
595.94	45230.85
596.10	45488.31
596.25	45717.68
596.41	45350.22
596.57	45139.57
596.73	44851.69
596.88	44694.87
597.04	45074.04
597.20	45074.04
597.36	44903.18
597.51	45324.47
597.67	45111.49
597.83	44872.75
597.99	45261.28
598.14	45708.32
598.30	45282.34
598.46	45081.06
598.61	45284.68
598.77	44968.71
598.93	44739.34
599.09	44886.79
599.24	46073.45
599.40	45523.42
599.56	45036.59
599.71	44989.78
599.87	45268.30
600.03	45118.51
600.18	45282.34
600.34	45151.27
600.50	45329.16
600.65	44842.32
600.81	45055.31
600.97	45565.55
601.12	45366.60
601.28	45184.04
601.44	45074.04
601.59	45347.88
601.75	44795.51
601.91	44952.33
602.06	45345.54
602.22	45153.62
602.37	44622.31
602.53	45067.02
602.69	45500.01
602.84	44652.74
603.00	44786.15
603.16	45092.76
603.31	45357.24
603.47	44758.06
603.62	44975.73
603.78	44971.05
603.94	45003.82
604.09	45045.95
604.25	45476.61
604.40	45109.14
604.56	44697.21
604.71	45226.17
604.87	44910.20
605.03	45038.93
605.18	44933.60
605.34	44875.09
605.49	44781.47
605.65	44650.40
605.80	45024.89
605.96	45057.65
606.12	45013.18
606.27	45188.72
606.43	44844.66
606.58	44947.65
606.74	45038.93
606.89	45027.23
607.05	44954.67
607.20	44676.15
607.36	44208.04
607.51	44935.95
607.67	45076.38
607.82	45059.99
607.98	45106.80
608.13	44701.89
608.29	44528.69
608.44	44453.79
608.60	44261.87
608.75	44264.21
608.91	44762.75
609.06	44561.46
609.22	45050.63
609.37	44603.59
609.53	44669.12
609.68	44673.81
609.84	44643.38
609.99	44402.30
610.15	44332.09
610.30	44460.82
610.46	44018.46
610.61	44638.70
610.76	44978.07
610.92	44409.32
611.07	44594.23
611.23	44514.65
611.38	44360.17
611.54	44692.53
611.69	44648.06
611.84	44378.90
612.00	44432.73
612.15	44304.00
612.31	44533.37
612.46	44027.82
612.62	43934.20
612.77	44451.45
612.92	44987.44
613.08	44435.07
613.23	44369.54
613.39	44411.67
613.54	43899.09
613.69	44177.61
613.85	44151.87
614.00	43896.75
614.15	44322.72
614.31	44245.49
614.46	44439.75
614.62	44275.91
614.77	44201.02
614.92	43936.54
615.08	44388.26
615.23	43653.33
615.38	43463.75
615.54	43550.35
615.69	43871.00
615.84	43599.50
616.00	44058.24
616.15	43693.12
616.30	44271.23
616.46	43515.24
616.61	43494.18
616.76	43182.88
616.92	43133.73
617.07	43145.44
617.22	43091.60
617.37	43346.72
617.53	43863.98
617.68	43613.54
617.83	43936.54
617.99	43763.34
618.14	43973.98
618.29	43480.13
618.45	43468.43
618.60	43517.58
618.75	42871.59
618.90	43695.46
619.06	43922.49
619.21	43466.09
619.36	43636.95
619.51	43454.39
619.67	43175.86
619.82	43772.70
619.97	43545.67
620.12	43599.50
620.28	43210.97
620.43	43068.20
620.58	43210.97
620.73	42981.60
620.89	43250.76
621.04	43210.97
621.19	43210.97
621.34	42780.31
621.49	43112.67
621.65	42799.04
621.80	43189.91
621.95	43150.12
622.10	42855.21
622.25	42501.79
622.41	42810.74
622.56	42946.49
622.71	42749.88
622.86	42562.64
623.01	42937.13
623.16	43023.73
623.32	42703.07
623.47	42674.99
623.62	42532.22
623.77	42326.25
623.92	42742.86
624.07	42562.64
624.23	42328.59
624.38	42562.64
624.53	42241.99
624.68	42333.27
624.83	42452.64
624.98	42244.33
625.13	42216.24
625.29	42359.02
625.44	42291.14
625.59	41930.70
625.74	42117.94
625.89	41614.72
626.04	41947.08
626.19	42209.22
626.34	42457.32
626.49	42258.37
626.65	42101.56
626.80	42389.44
626.95	41956.44
627.10	42061.77
627.25	42087.51
627.40	41813.67
627.55	41546.85
627.70	41528.13
627.85	41853.46
628.00	41825.37
628.15	41804.31
628.30	41439.18
628.45	42246.67
628.60	42134.32
628.76	42199.86
628.91	41895.59
629.06	41331.52
629.21	41799.63
629.36	41483.66
629.51	41422.80
629.66	41553.87
629.81	41443.87
629.96	41736.43
630.11	41514.08
630.26	41603.02
630.41	41993.89
630.56	41581.96
630.71	41457.91
630.86	41228.54
631.01	41233.22
631.16	41460.25
631.31	41450.89
631.46	40720.64
631.61	41462.59
631.76	41223.86
631.91	41151.30
632.06	41549.19
632.21	41268.33
632.36	40971.08
632.51	40942.99
632.66	41202.79
632.81	40428.07
632.96	40601.27
633.10	41181.73
633.25	40980.44
633.40	40856.39
633.55	40975.76
633.70	40851.71
633.85	40804.90
634.00	40629.36
634.15	41017.89
634.30	40779.15
634.45	40746.39
634.60	40687.87
634.75	40982.78
634.90	40301.68
635.05	40730.00
635.19	40306.37
635.34	40346.15
635.49	40430.41
635.64	41134.92
635.79	40823.62
635.94	40392.97
636.09	40594.25
636.24	40285.30
636.39	40481.91
636.53	40371.90
636.68	39856.98
636.83	40196.36
636.98	40229.13
637.13	40231.47
637.28	40182.32
637.43	40390.62
637.57	40519.35
637.72	40161.25
637.87	39966.99
638.02	40179.98
638.17	40437.44
638.32	40252.53
638.46	39725.91
638.61	39803.15
638.76	40208.06
638.91	40058.27
639.06	40282.96
639.20	40147.21
639.35	39854.64
639.50	40224.45
639.65	40137.85
639.80	40116.78
639.94	39641.65
640.09	40086.36
640.24	39906.13
640.39	39276.53
640.54	39819.53
640.68	39580.80
640.83	39517.60
640.98	39775.06
641.13	39445.05
641.27	40048.91
641.42	39611.23
641.57	39372.49
641.72	39533.99
641.86	39697.83
642.01	38930.13
642.16	39267.17
642.31	38899.70
642.45	39449.73
642.60	39276.53
642.75	39138.44
642.90	38974.60
643.04	39093.97
643.19	38801.40
643.34	39131.42
643.48	38892.68
643.63	39194.61
643.78	38993.32
643.93	38712.46
644.07	38988.64
644.22	38934.81
644.37	38576.71
644.51	39089.29
644.66	39241.42
644.81	39150.14
644.95	39000.35
645.10	38967.58
645.25	39342.06
645.39	38529.90
645.54	38941.83
645.69	38611.82
645.83	38590.75
645.98	38761.61
646.13	38770.97
646.27	39126.74
646.42	38752.25
646.57	38501.81
646.71	39002.69
646.86	38951.20
647.00	39014.39
647.15	39150.14
647.30	38939.49
647.44	38665.65
647.59	38609.48
647.74	38211.59
647.88	38359.04
648.03	38864.60
648.17	38557.99
648.32	38305.21
648.47	38857.57
648.61	38141.37
648.76	38302.87
648.90	38504.15
649.05	38431.60
649.20	38127.33
649.34	38150.73
649.49	37984.55
649.63	38298.19
649.78	37607.73
649.92	38148.39
650.07	38218.61
650.21	37968.17
650.36	37916.68
650.51	38017.32
650.65	38363.72
650.80	38815.44
650.94	38075.84
651.09	37603.05
651.23	37614.75
651.38	38192.86
651.52	38000.94
651.67	37986.89
651.81	37776.25
651.96	37633.47
652.10	37479.00
652.25	37848.80
652.39	38136.69
652.54	37759.86
652.68	38019.66
652.83	37589.00
652.97	38024.34
653.12	37902.64
653.26	37799.65
653.41	37158.34
653.55	37167.71
653.70	37254.31
653.84	37469.64
653.99	37532.83
654.13	37645.18
654.27	37287.07
654.42	36971.10
654.56	37242.60
654.71	37354.95
654.85	37113.87
655.00	37495.38
655.14	37205.16
655.29	37242.60
655.43	37228.56
655.57	36903.23
655.72	36947.70
655.86	36561.51
656.01	36931.31
656.15	36568.53
656.30	36718.32
656.44	36692.58
656.58	36875.14
656.73	36294.69
656.87	36879.82
657.01	36723.01
657.16	37097.49
657.30	36996.85
657.45	36456.18
657.59	36584.91
657.73	36383.63
657.88	36933.65
658.02	36755.77
658.16	36847.05
658.31	37041.32
658.45	36849.39
658.60	36004.46
658.74	36409.37
658.88	36495.97
659.03	36568.53
659.17	36353.20
659.31	36273.62
659.46	36467.89
659.60	36451.50
659.74	36180.00
659.89	36404.69
660.03	36002.12
660.17	36217.45
660.32	36191.70
660.46	36217.45
660.60	36077.02
660.74	35718.92
660.89	36208.09
661.03	35789.13
661.17	35690.83
661.32	35512.95
661.46	35370.18
661.60	35592.53
661.74	35473.16
661.89	35854.67
662.03	35936.59
662.17	35241.45
662.31	34944.20
662.46	35770.41
662.60	35730.62
662.74	35278.89
662.88	35681.47
663.03	34852.92
663.17	34696.10
663.31	34881.00
663.45	34766.32
663.60	34766.32
663.74	34878.66
663.88	34859.94
664.02	34429.28
664.17	35175.91
664.31	34480.77
664.45	34609.50
664.59	34466.73
664.73	34663.33
664.88	34838.87
665.02	34279.49
665.16	34506.52
665.30	34251.40
665.44	34670.36
665.59	34284.17
665.73	34258.42
665.87	34085.22
666.01	34185.86
666.15	34188.21
666.29	34237.36
666.44	34302.89
666.58	33844.15
666.72	33605.41
666.86	34080.54
667.00	34103.95
667.14	33902.66
667.28	33624.14
667.43	33598.39
667.57	33684.99
667.71	33132.62
667.85	33771.59
667.99	33696.69
668.13	33888.62
668.27	33411.15
668.41	33656.90
668.56	33050.70
668.70	33301.14
668.84	33214.54
668.98	33013.26
669.12	32727.71
669.26	32772.18
669.40	32673.88
669.54	33031.98
669.68	33076.45
669.82	32889.21
669.96	32732.39
670.10	32278.33
670.25	32900.91
670.39	32481.95
670.53	31992.78
670.67	32397.70
670.81	32383.65
670.95	32472.59
671.09	32446.85
671.23	32650.47
671.37	32165.98
671.51	32484.30
671.65	31854.69
671.79	32123.85
671.93	31826.60
672.07	32381.31
672.21	31871.07
672.35	32194.07
672.49	31847.67
672.63	31634.68
672.77	31555.10
672.91	31674.47
673.05	31529.36
673.19	31335.09
673.33	31145.51
673.47	31402.97
673.61	31136.15
673.75	30773.36
673.89	30995.71
674.03	31094.02
674.17	30988.69
674.31	31030.82
674.45	31194.66
674.59	30817.83
674.73	30913.80
674.87	30466.75
675.01	30649.32
675.15	30639.95
675.29	30401.22
675.43	30419.94
675.56	30670.38
675.70	30361.43
675.84	29986.94
675.98	29153.71
676.12	30059.50
676.26	30235.04
676.40	29986.94
676.54	29919.07
676.68	29692.04
676.82	29060.09
676.96	29579.69
677.10	29703.74
677.23	29652.25
677.37	29551.60
677.51	29064.77
677.65	29184.14
677.79	28709.01
677.93	29034.35
678.07	28863.49
678.21	28673.90
678.34	28449.21
678.48	28299.42
678.62	28140.26
678.76	27866.42
678.90	28020.89
679.04	27917.91
679.18	28238.56
679.31	27686.20
679.45	27798.54
679.59	27257.88
679.73	27864.08
679.87	27353.84
680.00	27672.15
680.14	27168.94
680.28	27477.89
680.42	27346.82
680.56	27714.28
680.70	27269.58
680.83	27262.56
680.97	27000.42
681.11	27199.37
681.25	26707.85
681.39	26850.63
681.52	26607.21
681.66	26412.95
681.80	26579.12
681.94	26541.68
682.07	26309.96
682.21	26518.27
682.35	26185.91
682.49	26270.17
682.62	26225.70
682.76	26263.15
682.90	25757.60
683.04	25919.09
683.17	25584.40
683.31	25553.97
683.45	25497.80
683.59	25184.16
683.72	25123.31
683.86	25090.54
684.00	25092.88
684.13	25460.35
684.27	24725.42
684.41	24507.75
684.55	24987.56
684.68	24517.11
684.82	24517.11
684.96	24739.46
685.09	24425.83
685.23	24680.95
685.37	24437.53
685.50	24599.03
685.64	23906.23
685.78	24093.47
685.91	24072.41
686.05	23559.83
686.19	23819.63
686.32	23611.32
686.46	23222.80
686.60	23075.34
686.73	23302.37
686.87	22883.42
687.01	23049.60
687.14	23061.30
687.28	23370.25
687.42	23222.80
687.55	22728.94
687.69	23190.03
687.82	22658.73
687.96	22735.96
688.10	22764.05
688.23	22583.83
688.37	22162.53
688.50	22312.33
688.64	22359.14
688.78	22473.82
688.91	22031.46
689.05	22356.80
689.18	21996.35
689.32	22033.80
689.46	21671.02
689.59	21982.31
689.73	22141.47
689.86	21713.15
690.00	21806.77
690.13	21619.53
690.27	21263.77
690.41	20973.54
690.54	21277.81
690.68	20842.47
690.81	20999.29
690.95	21111.63
691.08	20858.85
691.22	20996.95
691.35	20875.24
691.49	20940.77
691.62	20912.69
691.76	20676.29
691.89	20407.13
692.03	20432.88
692.16	19988.18
692.30	20009.24
692.43	20098.18
692.57	19969.45
692.70	19770.51
692.84	19789.23
692.97	19571.56
693.11	19499.00
693.24	19810.29
693.38	19335.17
693.51	19304.74
693.65	19552.84
693.78	19508.37
693.92	19351.55
694.05	19288.35
694.19	18923.23
694.32	19161.97
694.45	18948.98
694.59	18735.99
694.72	18537.04
694.86	18705.56
694.99	18443.42
695.13	18628.32
695.26	18389.59
695.39	18422.36
695.53	18375.55
695.66	18445.76
695.80	18115.75
695.93	18405.97
696.07	17830.20
696.20	18061.91
696.33	18038.51
696.47	18052.55
696.60	17956.59
696.73	17804.46
696.87	17689.77
697.00	17830.20
697.14	17493.16
697.27	17521.25
697.40	17221.66
697.54	17226.34
697.67	17013.35
697.80	17266.13
697.94	17006.33
698.07	16783.98
698.21	17212.30
698.34	16802.71
698.47	16505.46
698.61	16622.48
698.74	16257.36
698.87	16411.84
699.01	16037.35
699.14	16149.70
699.27	16037.35
699.40	16236.30
699.54	15999.90
699.67	15981.18
699.80	16067.78
699.94	15962.45
700.07	16037.35
700.20	15641.80
700.34	15875.85
700.47	15793.94
700.60	15910.96
700.73	15807.98
700.87	15433.49
701.00	15459.24
701.13	15342.21
701.26	15176.03
701.40	15414.77
701.53	15379.66
701.66	15183.06
701.79	15096.46
701.93	15098.80
702.06	15105.82
702.19	14822.61
702.32	14923.26
702.46	14523.02
702.59	14820.27
702.72	14541.75
702.85	14616.65
702.99	14899.85
703.12	14450.47
703.25	14361.53
703.38	14141.52
703.51	14352.16
703.65	14317.06
703.78	14157.90
703.91	14054.92
704.04	14047.90
704.17	13837.25
704.31	14097.05
704.44	14022.15
704.57	13973.00
704.70	13497.87
704.83	13551.70
704.96	13554.04
705.10	13465.10
705.23	13371.48
>>>>>End Processed Spectral Data<<<<<
