SpectraSuite Data File
++++++++++++++++++++++++++++++++++++
Date: Fri Oct 25 10:43:41 EDT 2013
User: price-jones
Dark Spectrum Present: No
Reference Spectrum Present: No
Number of Sampled Component Spectra: 1
Spectrometers: USB2+H05261
Integration Time (usec): 100000 (USB2+H05261)
Spectra Averaged: 1 (USB2+H05261)
Boxcar Smoothing: 0 (USB2+H05261)
Correct for Electrical Dark: No (USB2+H05261)
Strobe/Lamp Enabled: No (USB2+H05261)
Correct for Detector Non-linearity: No (USB2+H05261)
Correct for Stray Light: No (USB2+H05261)
Number of Pixels in Processed Spectrum: 2048
>>>>>Begin Processed Spectral Data<<<<<
365.73	159.16
365.92	159.16
366.12	159.16
366.32	42.13
366.52	39.79
366.72	28.09
366.91	32.77
367.11	39.79
367.31	0.00
367.51	0.00
367.70	0.00
367.90	0.00
368.10	35.11
368.30	2.34
368.49	32.77
368.69	14.04
368.89	93.62
369.09	49.15
369.28	56.17
369.48	67.88
369.68	23.41
369.87	95.96
370.07	159.16
370.27	135.75
370.47	215.33
370.66	301.93
370.86	482.15
371.06	517.26
371.25	493.85
371.45	456.40
371.65	505.56
371.84	430.66
372.04	470.45
372.24	440.02
372.44	454.06
372.63	503.22
372.83	575.77
373.03	496.19
373.22	451.72
373.42	524.28
373.62	547.69
373.81	545.34
374.01	550.03
374.21	496.19
374.40	568.75
374.60	648.33
374.79	559.39
374.99	596.84
375.19	662.37
375.38	582.79
375.58	564.07
375.78	535.98
375.97	608.54
376.17	664.71
376.37	559.39
376.56	613.22
376.76	592.16
376.95	631.94
377.15	648.33
377.35	674.07
377.54	650.67
377.74	676.41
377.93	627.26
378.13	629.60
378.33	688.12
378.52	613.22
378.72	697.48
378.91	688.12
379.11	690.46
379.31	671.73
379.50	702.16
379.70	730.25
379.89	781.74
380.09	655.35
380.28	678.76
380.48	634.29
380.68	730.25
380.87	655.35
381.07	615.56
381.26	744.29
381.46	760.67
381.65	702.16
381.85	709.18
382.04	676.41
382.24	751.31
382.43	657.69
382.63	770.04
382.83	711.52
383.02	748.97
383.22	760.67
383.41	709.18
383.61	746.63
383.80	812.17
384.00	746.63
384.19	732.59
384.39	739.61
384.58	877.70
384.78	809.83
384.97	802.80
385.17	807.48
385.36	788.76
385.56	788.76
385.75	760.67
385.95	800.46
386.14	891.74
386.34	823.87
386.53	837.91
386.72	791.10
386.92	823.87
387.11	889.40
387.31	966.64
387.50	924.51
387.70	805.14
387.89	882.38
388.09	901.11
388.28	924.51
388.48	870.68
388.67	917.49
388.86	950.26
389.06	912.81
389.25	959.62
389.45	1006.43
389.64	940.90
389.84	1053.24
390.03	1032.18
390.22	1034.52
390.42	992.39
390.61	945.58
390.81	1034.52
391.00	999.41
391.19	1048.56
391.39	1081.33
391.58	983.02
391.78	1107.07
391.97	1053.24
392.16	1025.15
392.36	1116.44
392.55	1088.35
392.75	1083.67
392.94	997.07
393.13	1050.90
393.33	1011.11
393.52	1158.57
393.71	1116.44
393.91	1081.33
394.10	1177.29
394.29	1074.31
394.49	1144.52
394.68	1184.31
394.88	1160.91
395.07	1184.31
395.26	1210.06
395.46	1249.85
395.65	1210.06
395.84	1270.91
396.04	1228.78
396.23	1233.46
396.42	1179.63
396.62	1228.78
396.81	1263.89
397.00	1228.78
397.19	1254.53
397.39	1247.51
397.58	1392.62
397.77	1310.70
397.97	1366.87
398.16	1441.77
398.35	1469.86
398.55	1521.35
398.74	1568.16
398.93	1528.37
399.12	1540.07
399.32	1458.15
399.51	1483.90
399.70	1558.80
399.90	1481.56
400.09	1596.25
400.28	1624.33
400.47	1659.44
400.67	1610.29
400.86	1586.88
401.05	1689.87
401.24	1605.61
401.44	1694.55
401.63	1687.53
401.82	1689.87
402.01	1694.55
402.21	1776.47
402.40	1778.81
402.59	1781.15
402.78	1694.55
402.97	1736.68
403.17	1912.22
403.36	1846.68
403.55	1823.28
403.74	1825.62
403.93	1886.47
404.13	1811.57
404.32	1919.24
404.51	1900.52
404.70	1893.49
404.89	1834.98
405.09	1867.75
405.28	1919.24
405.47	1989.46
405.66	2036.27
405.85	2054.99
406.05	1970.73
406.24	2101.80
406.43	2024.56
406.62	2083.08
406.81	2122.87
407.00	2169.68
407.20	2106.48
407.39	2043.29
407.58	2125.21
407.77	2265.64
407.96	2141.59
408.15	2291.38
408.34	2293.72
408.54	2363.94
408.73	2401.39
408.92	2333.51
409.11	2392.03
409.30	2370.96
409.49	2387.35
409.68	2331.17
409.87	2338.20
410.07	2385.01
410.26	2424.80
410.45	2410.75
410.64	2415.43
410.83	2464.58
411.02	2518.42
411.21	2576.93
411.40	2626.08
411.59	2647.15
411.78	2661.19
411.98	2668.21
412.17	2600.34
412.36	2609.70
412.55	2860.13
412.74	2913.97
412.93	2780.56
413.12	2895.24
413.31	2820.35
413.50	2815.66
413.69	2874.18
413.88	2958.44
414.07	2822.69
414.26	3075.46
414.45	2928.01
414.64	3028.65
414.83	3162.06
415.02	3068.44
415.22	3033.33
415.41	3084.83
415.60	3339.94
415.79	3190.15
415.98	3236.96
416.17	3236.96
416.36	3307.18
416.55	3234.62
416.74	3293.13
416.93	3346.97
417.12	3234.62
417.31	3375.05
417.50	3461.65
417.69	3576.34
417.88	3599.74
418.07	3485.06
418.26	3534.21
418.45	3480.38
418.64	3648.90
418.83	3625.49
419.02	3606.77
419.21	3686.34
419.39	3534.21
419.58	3562.30
419.77	3597.40
419.96	3653.58
420.15	3707.41
420.34	3735.50
420.53	3719.11
420.72	3798.69
420.91	3920.40
421.10	3943.80
421.29	3962.53
421.48	3873.59
421.67	3840.82
421.86	3852.52
422.05	3768.26
422.24	3777.62
422.43	3810.39
422.61	3819.75
422.80	3922.74
422.99	4065.51
423.18	3976.57
423.37	4028.06
423.56	3894.65
423.75	3896.99
423.94	3859.54
424.13	3761.24
424.32	3838.48
424.50	4070.19
424.69	4091.26
424.88	4016.36
425.07	3981.25
425.26	3969.55
425.45	4065.51
425.64	4025.72
425.83	4009.34
426.01	3969.55
426.20	4051.47
426.39	3941.46
426.58	4060.83
426.77	3950.82
426.96	3969.55
427.15	3953.16
427.33	4072.53
427.52	4245.73
427.71	4109.98
427.90	4194.24
428.09	4187.22
428.28	4138.07
428.46	4194.24
428.65	4161.47
428.84	4262.12
429.03	4397.87
429.22	4056.15
429.40	4154.45
429.59	4198.92
429.78	4067.85
429.97	3906.35
430.16	4124.02
430.34	3978.91
430.53	4280.84
430.72	4107.64
430.91	4163.81
431.10	4322.97
431.28	4683.41
431.47	4711.50
431.66	4793.42
431.85	4660.01
432.03	4608.51
432.22	4697.46
432.41	4690.43
432.60	4671.71
432.79	4685.75
432.97	4695.11
433.16	4762.99
433.35	4629.58
433.54	4706.82
433.72	4762.99
433.91	4634.26
434.10	4777.03
434.28	4945.55
434.47	4978.32
434.66	4938.53
434.85	4994.70
435.03	4966.62
435.22	4938.53
435.41	5144.50
435.59	4987.68
435.78	5102.37
435.97	4975.98
436.16	5210.03
436.34	5294.29
436.53	5144.50
436.72	5266.21
436.90	5146.84
437.09	5186.63
437.28	5254.50
437.46	5177.26
437.65	5102.37
437.84	5146.84
438.02	5188.97
438.21	5128.11
438.40	5118.75
438.58	5193.65
438.77	5413.66
438.96	5418.34
439.14	5706.23
439.33	5816.23
439.52	5706.23
439.70	5558.77
439.89	5671.12
440.08	5671.12
440.26	5743.67
440.45	5720.27
440.63	5900.49
440.82	6033.90
441.01	5858.36
441.19	6134.54
441.38	6122.84
441.57	6139.23
441.75	6232.85
441.94	6310.08
442.12	6331.15
442.31	6438.81
442.50	6352.21
442.68	6174.33
442.87	6438.81
443.05	6490.31
443.24	6471.58
443.43	6553.50
443.61	6356.90
443.80	6626.06
443.98	6471.58
444.17	6066.67
444.35	6499.67
444.54	6586.27
444.73	6499.67
444.91	6602.65
445.10	6506.69
445.28	6473.92
445.47	6307.74
445.65	6487.96
445.84	6452.86
446.02	6764.15
446.21	6686.91
446.39	6642.44
446.58	6651.80
446.77	6677.55
446.95	6525.41
447.14	6712.66
447.32	6775.85
447.51	6633.08
447.69	6621.38
447.88	6661.16
448.06	6761.81
448.25	6719.68
448.43	6759.47
448.62	6789.89
448.80	6635.42
448.99	7033.31
449.17	6988.84
449.36	6801.60
449.54	6972.46
449.73	6967.77
449.91	7073.10
450.10	7407.80
450.28	7080.12
450.46	7262.68
450.65	7293.11
450.83	7145.66
451.02	7290.77
451.20	7419.50
451.39	7314.17
451.57	7311.83
451.76	7344.60
451.94	7375.03
452.13	7463.97
452.31	7227.57
452.49	7059.06
452.68	7110.55
452.86	7250.98
453.05	7304.81
453.23	7356.30
453.42	7557.59
453.60	7260.34
453.78	7616.10
453.97	7403.11
454.15	7487.37
454.34	7662.91
454.52	7442.90
454.70	7496.74
454.89	7623.12
455.07	7688.66
455.26	7651.21
455.44	7719.09
455.62	7789.30
455.81	7889.95
455.99	7925.05
456.17	7955.48
456.36	7889.95
456.54	7808.03
456.73	7967.18
456.91	8121.66
457.09	8250.39
457.28	8336.99
457.46	8236.35
457.64	8395.50
457.83	8184.85
458.01	8245.71
458.19	8404.86
458.38	8292.52
458.56	8205.92
458.74	8432.95
458.93	8257.41
459.11	8531.25
459.29	8484.44
459.48	8388.48
459.66	8292.52
459.84	8613.17
460.03	8603.81
460.21	8451.67
460.39	8432.95
460.57	8657.64
460.76	8603.81
460.94	8681.05
461.12	8533.59
461.31	8772.33
461.49	8681.05
461.67	8767.65
461.85	9029.79
462.04	8769.99
462.22	9392.57
462.40	8898.72
462.59	8915.10
462.77	8807.44
462.95	9067.24
463.13	9142.13
463.32	9011.06
463.50	9050.85
463.68	9289.59
463.86	8973.61
464.05	8751.26
464.23	8959.57
464.41	9263.84
464.59	9153.84
464.78	9235.75
464.96	9217.03
465.14	9195.96
465.32	9329.38
465.50	9343.42
465.69	9563.43
465.87	9151.49
466.05	9327.03
466.23	9287.25
466.41	9060.21
466.60	9380.87
466.78	9432.36
466.96	9476.83
467.14	9661.73
467.32	9547.05
467.51	9610.24
467.69	9366.82
467.87	9462.79
468.05	9408.95
468.23	9703.86
468.41	9394.91
468.60	9682.80
468.78	9783.44
468.96	9877.06
469.14	9802.16
469.32	9844.29
469.50	9591.52
469.69	9834.93
469.87	9778.76
470.05	9750.67
470.23	9951.96
470.41	10015.15
470.59	9898.13
470.77	9956.64
470.95	10120.48
471.14	10326.44
471.32	10061.96
471.50	10567.52
471.68	10195.37
471.86	10368.57
472.04	10558.16
472.22	10820.30
472.40	10326.44
472.58	10658.80
472.77	10616.67
472.95	10672.84
473.13	10874.13
473.31	10686.89
473.49	10420.06
473.67	10757.10
473.85	10906.90
474.03	11201.80
474.21	11122.23
474.39	11169.04
474.57	11094.14
474.75	11126.91
474.93	11272.02
475.12	11246.27
475.30	11342.24
475.48	11480.33
475.66	11510.75
475.84	11330.53
476.02	11473.31
476.20	11470.97
476.38	11726.08
476.56	11955.46
476.74	11786.94
476.92	11808.00
477.10	11934.39
477.28	12196.53
477.46	12276.11
477.64	12201.21
477.82	12245.68
478.00	12762.94
478.18	12692.73
478.36	12798.05
478.54	12678.68
478.72	12919.76
478.90	12996.99
479.08	13308.29
479.26	13343.39
479.44	13132.75
479.62	13352.76
479.80	13345.73
479.98	13703.84
480.16	13961.30
480.34	13647.66
480.52	13745.97
480.70	13839.59
480.88	13991.72
481.06	14071.30
481.24	13914.48
481.41	14450.47
481.59	14501.96
481.77	14508.98
481.95	14494.94
482.13	14764.10
482.31	14714.95
482.49	15110.50
482.67	15117.52
482.85	14977.09
483.03	15349.23
483.21	15482.64
483.39	15447.54
483.57	15398.38
483.74	15543.50
483.92	15660.52
484.10	15768.19
484.28	16011.60
484.46	16086.50
484.64	16580.36
484.82	16170.76
485.00	16262.04
485.18	16601.42
485.35	16460.99
485.53	15999.90
485.71	16231.62
485.89	16533.54
486.07	16697.38
486.25	16678.66
486.43	16793.34
486.61	17235.70
486.78	17156.13
486.96	17589.13
487.14	17614.87
487.32	17724.88
487.50	17965.95
487.68	18377.89
487.85	18670.45
488.03	18569.81
488.21	18810.89
488.39	18710.24
488.57	18651.73
488.75	19026.21
488.92	19358.57
489.10	19351.55
489.28	19627.73
489.46	19922.64
489.64	19646.46
489.81	20175.42
489.99	20226.91
490.17	20367.34
490.35	20751.19
490.53	20790.98
490.70	20673.95
490.88	20802.68
491.06	20587.35
491.24	20793.32
491.41	20622.46
491.59	21118.65
491.77	20940.77
491.95	21153.76
492.13	21490.80
492.30	21633.57
492.48	21860.60
492.66	21678.04
492.84	22005.72
493.01	22207.00
493.19	21891.03
493.37	22614.26
493.54	22675.11
493.72	22857.67
493.90	22478.50
494.08	22946.61
494.25	23084.70
494.43	23501.32
494.61	23545.79
494.79	23503.66
494.96	23513.02
495.14	23672.18
495.32	23974.11
495.49	23655.79
495.67	23960.06
495.85	24430.51
496.02	24191.78
496.20	24545.20
496.38	24648.18
496.55	24474.98
496.73	25064.80
496.91	25083.52
497.09	25245.02
497.26	25010.96
497.44	25242.68
497.62	25399.49
497.79	25537.59
497.97	25661.63
498.14	25326.94
498.32	25668.66
498.50	25867.60
498.67	26302.94
498.85	26188.25
499.03	26251.45
499.20	26478.48
499.38	26738.28
499.56	26291.24
499.73	26497.20
499.91	26478.48
500.08	27101.06
500.26	26536.99
500.44	26719.56
500.61	26829.56
500.79	26923.18
500.97	27243.84
501.14	27342.14
501.32	27412.35
501.49	27386.61
501.67	27278.94
501.84	27370.22
502.02	27950.68
502.20	27508.32
502.37	27756.41
502.55	27896.85
502.72	28451.55
502.90	28643.48
503.07	27857.06
503.25	28044.30
503.43	28233.88
503.60	27824.29
503.78	28395.38
503.95	28161.33
504.13	28776.89
504.30	28978.17
504.48	28807.31
504.65	29020.30
504.83	29071.79
505.01	29177.12
505.18	29811.40
505.36	29586.71
505.53	29483.73
505.71	29949.50
505.88	29699.06
506.06	29500.11
506.23	30209.29
506.41	29397.13
506.58	30349.73
506.76	30277.17
506.93	30155.46
507.11	30052.48
507.28	30279.51
507.46	30043.12
507.63	30206.95
507.81	30480.80
507.98	30359.09
508.16	30412.92
508.33	30881.03
508.50	30899.75
508.68	31028.48
508.85	31218.07
509.03	31297.64
509.20	30836.56
509.38	31508.29
509.55	31452.12
509.73	31559.78
509.90	31405.31
510.08	31620.64
510.25	31548.08
510.42	31758.73
510.60	31611.28
510.77	31772.77
510.95	31840.65
511.12	31943.63
511.30	31943.63
511.47	32849.42
511.64	32575.58
511.82	32477.27
511.99	32301.73
512.17	32594.30
512.34	32744.09
512.51	32921.98
512.69	32809.63
512.86	33055.39
513.04	33097.52
513.21	32788.56
513.38	33207.52
513.56	33057.73
513.73	33141.99
513.90	33127.94
514.08	33394.76
514.25	33184.12
514.43	33486.04
514.60	33216.88
514.77	33251.99
514.95	33605.41
515.12	33408.81
515.29	33888.62
515.47	34401.19
515.64	34125.01
515.81	33881.60
515.99	34305.23
516.16	34232.68
516.33	33731.80
516.51	33921.38
516.68	33713.08
516.85	33420.51
517.03	33811.38
517.20	34244.38
517.37	34401.19
517.54	34579.07
517.72	34033.73
517.89	34010.32
518.06	34139.05
518.24	34436.30
518.41	34462.05
518.58	34553.33
518.75	34747.59
518.93	35126.76
519.10	34675.04
519.27	35173.57
519.45	35274.21
519.62	35468.48
519.79	35353.79
519.96	35304.64
520.14	35955.31
520.31	34883.34
520.48	35365.49
520.65	35416.99
520.83	35796.15
521.00	35967.01
521.17	35754.02
521.34	36072.34
521.52	36175.32
521.69	36290.01
521.86	36472.57
522.03	36781.52
522.20	36259.58
522.38	36294.69
522.55	36414.05
522.72	36549.81
522.89	36444.48
523.07	37340.91
523.24	36472.57
523.41	37036.64
523.58	36980.46
523.75	37542.19
523.92	37170.05
524.10	37141.96
524.27	37846.46
524.44	37411.12
524.61	37303.46
524.78	37858.17
524.96	37378.36
525.13	37717.73
525.30	38000.94
525.47	37928.38
525.64	37607.73
525.81	37380.70
525.98	37893.27
526.16	37539.85
526.33	37986.89
526.50	37684.97
526.67	37029.62
526.84	37380.70
527.01	37383.04
527.18	37837.10
527.36	38047.75
527.53	38494.79
527.70	38930.13
527.87	38761.61
528.04	38501.81
528.21	38827.15
528.38	38543.94
528.55	38707.78
528.72	38888.00
528.89	39108.01
529.07	38782.68
529.24	38459.68
529.41	38923.11
529.58	39122.05
529.75	39241.42
529.92	39330.36
530.09	39283.55
530.26	39505.90
530.43	39246.10
530.60	39276.53
530.77	39201.63
530.94	39868.69
531.11	39922.52
531.28	39508.24
531.46	39779.74
531.63	39910.82
531.80	39875.71
531.97	39702.51
532.14	39730.59
532.31	39332.70
532.48	39690.80
532.65	39931.88
532.82	39299.94
532.99	39875.71
533.16	39817.19
533.33	39873.37
533.50	40460.84
533.67	40034.86
533.84	40224.45
534.01	40392.97
534.18	40168.27
534.35	40669.15
534.52	40280.62
534.69	40547.44
534.86	41064.70
535.03	40587.23
535.20	41097.47
535.37	40982.78
535.54	40917.25
535.71	40821.28
535.88	40818.94
536.05	41050.66
536.22	40872.78
536.38	41137.26
536.55	40622.34
536.72	40758.09
536.89	40620.00
537.06	40893.84
537.23	41069.38
537.40	40809.58
537.57	41209.81
537.74	41371.31
537.91	41588.98
538.08	41500.04
538.25	40825.96
538.42	41418.12
538.59	41734.09
538.75	41228.54
538.92	41928.36
539.09	41621.75
539.26	41773.88
539.43	41706.01
539.60	41488.34
539.77	41621.75
539.94	41514.08
540.11	41825.37
540.28	41359.61
540.44	41490.68
540.61	41586.64
540.78	41216.83
540.95	41717.71
541.12	41324.50
541.29	41832.39
541.46	42155.39
541.62	42286.46
541.79	42330.93
541.96	42227.95
542.13	41907.29
542.30	42342.63
542.47	42550.94
542.63	42480.72
542.80	42164.75
542.97	42611.79
543.14	43110.33
543.31	42281.78
543.48	42829.46
543.64	42974.58
543.81	43105.65
543.98	43262.46
544.15	42595.41
544.32	43019.05
544.48	43381.83
544.65	43157.14
544.82	43262.46
544.99	42986.28
545.16	43089.26
545.32	43033.09
545.49	43309.27
545.66	43306.93
545.83	43929.51
546.00	43236.72
546.16	43150.12
546.33	43086.92
546.50	42859.89
546.67	43564.39
546.83	43089.26
547.00	43325.66
547.17	43758.66
547.34	43491.83
547.50	43267.14
547.67	43522.26
547.84	43105.65
548.00	43999.73
548.17	44278.25
548.34	43463.75
548.51	44135.48
548.67	44116.76
548.84	44067.61
549.01	43899.09
549.18	43981.01
549.34	43917.81
549.51	43817.17
549.68	44250.17
549.84	44264.21
550.01	44229.10
550.18	44233.78
550.34	44076.97
550.51	43945.90
550.68	44060.58
550.84	43730.57
551.01	44102.71
551.18	44388.26
551.34	44568.48
551.51	44334.43
551.68	44650.40
551.84	44421.03
552.01	44488.90
552.18	44528.69
552.34	44477.20
552.51	44554.44
552.68	44334.43
552.84	44404.64
553.01	44779.13
553.18	44182.29
553.34	44474.86
553.51	44069.95
553.67	44818.92
553.84	44793.17
554.01	44451.45
554.17	45081.06
554.34	44486.56
554.51	44968.71
554.67	45111.49
554.84	44886.79
555.00	44755.72
555.17	45022.54
555.33	44769.77
555.50	44786.15
555.67	44847.00
555.83	45177.02
556.00	44809.56
556.16	45588.95
556.33	44470.18
556.50	45055.31
556.66	44954.67
556.83	44725.30
556.99	45373.63
557.16	45193.40
557.32	45095.10
557.49	45177.02
557.65	45132.55
557.82	45062.33
557.98	45179.36
558.15	45357.24
558.32	45397.03
558.48	44797.85
558.65	44643.38
558.81	45006.16
558.98	44847.00
559.14	45460.23
559.31	45333.84
559.47	45017.86
559.64	45457.88
559.80	45551.51
559.97	45694.28
560.13	45010.84
560.30	45715.34
560.46	45844.07
560.63	45682.58
560.79	45483.63
560.96	45153.62
561.12	45474.27
561.29	45773.86
561.45	45277.66
561.61	45193.40
561.78	45106.80
561.94	45083.40
562.11	45158.30
562.27	45507.04
562.44	45743.43
562.60	45673.21
562.77	45640.45
562.93	45696.62
563.10	46181.11
563.26	45448.52
563.42	45701.30
563.59	45713.00
563.75	45647.47
563.92	45682.58
564.08	45537.46
564.24	45965.78
564.41	46038.34
564.57	45378.31
564.74	45668.53
564.90	45787.90
565.07	45727.05
565.23	45982.16
565.39	45827.69
565.56	45420.44
565.72	45422.78
565.88	45429.80
566.05	45390.01
566.21	45504.70
566.38	45778.54
566.54	45911.95
566.70	45563.21
566.87	46356.65
567.03	45930.67
567.19	46319.20
567.36	45785.56
567.52	45743.43
567.68	46059.40
567.85	45574.91
568.01	45766.84
568.17	45970.46
568.34	46178.77
568.50	45867.48
568.66	45588.95
568.83	45972.80
568.99	45776.20
569.15	46057.06
569.32	45708.32
569.48	45790.24
569.64	45855.78
569.81	45694.28
569.97	45759.81
570.13	46050.04
570.30	45780.88
570.46	45748.11
570.62	45530.44
570.78	45715.34
570.95	45895.56
571.11	46080.47
571.27	45610.02
571.43	45890.88
571.60	46330.90
571.76	45717.68
571.92	45837.05
572.09	46066.42
572.25	46333.24
572.41	46454.95
572.57	46141.32
572.74	46351.97
572.90	46270.05
573.06	46199.83
573.22	46085.15
573.38	45874.50
573.55	46101.53
573.71	46454.95
573.87	46710.07
574.03	46103.87
574.20	46504.10
574.36	46593.04
574.52	46328.56
574.68	46113.23
574.84	46232.60
575.01	45897.91
575.17	45677.90
575.33	45851.09
575.49	45991.53
575.65	46096.85
575.82	46358.99
575.98	46036.00
576.14	46227.92
576.30	45965.78
576.46	45748.11
576.62	45762.15
576.79	46192.81
576.95	46110.89
577.11	46178.77
577.27	46164.73
577.43	46373.03
577.59	45823.01
577.75	45916.63
577.92	45581.93
578.08	45841.73
578.24	46169.41
578.40	46223.24
578.56	46036.00
578.72	46286.43
578.88	46199.83
579.04	46124.94
579.21	46050.04
579.37	46050.04
579.53	46101.53
579.69	45813.65
579.85	45921.31
580.01	45869.82
580.17	46129.62
580.33	46213.88
580.49	46342.61
580.65	46412.82
580.82	46101.53
580.98	46206.86
581.14	46185.79
581.30	46485.38
581.46	46499.42
581.62	46234.94
581.78	46256.01
581.94	46651.56
582.10	46192.81
582.26	46590.70
582.42	46295.80
582.58	46595.38
582.74	46110.89
582.90	46480.70
583.06	46440.91
583.22	46038.34
583.38	46539.21
583.54	46298.14
583.70	46281.75
583.86	46017.27
584.02	46195.15
584.18	46307.50
584.34	45970.46
584.50	46127.28
584.66	46344.95
584.82	45944.72
584.98	46511.13
585.14	46436.23
585.30	46106.21
585.46	46293.46
585.62	45738.75
585.78	45942.38
585.94	46209.20
586.10	46120.26
586.26	46043.02
586.42	46473.68
586.58	46464.32
586.74	46419.84
586.90	46136.64
587.06	46162.39
587.22	46028.98
587.38	46508.79
587.54	46040.68
587.70	46401.12
587.86	46611.77
588.02	46129.62
588.18	46398.78
588.34	45748.11
588.49	45593.64
588.65	45504.70
588.81	45886.20
588.97	45586.61
589.13	45713.00
589.29	46284.09
589.45	46064.08
589.61	46291.12
589.77	46026.63
589.93	46492.40
590.08	46307.50
590.24	46312.18
590.40	46630.49
590.56	46593.04
590.72	46232.60
590.88	46026.63
591.04	46473.68
591.20	46923.06
591.35	46443.25
591.51	46969.87
591.67	46209.20
591.83	46389.42
591.99	46220.90
592.15	46148.34
592.31	46445.59
592.46	46183.45
592.62	46501.76
592.78	46539.21
592.94	46588.36
593.10	46658.58
593.26	46766.24
593.41	46473.68
593.57	46288.77
593.73	46497.08
593.89	46560.28
594.05	46515.81
594.20	46358.99
594.36	46611.77
594.52	46485.38
594.68	46440.91
594.84	46286.43
594.99	46129.62
595.15	46548.57
595.31	46424.53
595.47	46330.90
595.62	46337.93
595.78	46485.38
595.94	46501.76
596.10	46253.67
596.25	46131.96
596.41	45947.06
596.57	46230.26
596.73	46164.73
596.88	46108.55
597.04	46522.83
597.20	46185.79
597.36	46326.22
597.51	46815.40
597.67	46454.95
597.83	46234.94
597.99	46925.40
598.14	46625.81
598.30	46543.89
598.46	46309.84
598.61	46658.58
598.77	46050.04
598.93	46199.83
599.09	46506.44
599.24	46787.31
599.40	47119.66
599.56	46642.20
599.71	46122.60
599.87	46541.55
600.03	46218.56
600.18	45979.82
600.34	46370.69
600.50	46366.01
600.65	46527.51
600.81	46700.71
600.97	46581.34
601.12	47037.75
601.28	46632.83
601.44	46539.21
601.59	46148.34
601.75	46178.77
601.91	46422.19
602.06	46349.63
602.22	46532.19
602.37	46494.74
602.53	46263.03
602.69	46749.86
602.84	46197.49
603.00	46527.51
603.16	46480.70
603.31	46131.96
603.47	46934.76
603.62	46251.33
603.78	46412.82
603.94	46157.70
604.09	46918.38
604.25	46092.17
604.40	46129.62
604.56	46473.68
604.71	46752.20
604.87	46665.60
605.03	46504.10
605.18	46248.99
605.34	46777.95
605.49	46256.01
605.65	46300.48
605.80	46384.74
605.96	46410.48
606.12	46274.73
606.27	46330.90
606.43	46150.68
606.58	46110.89
606.74	46237.28
606.89	46382.40
607.05	46333.24
607.20	46036.00
607.36	46438.57
607.51	46651.56
607.67	45916.63
607.82	45918.97
607.98	45923.65
608.13	46036.00
608.29	45806.62
608.44	45563.21
608.60	45617.04
608.75	45954.08
608.91	46260.69
609.06	45975.14
609.22	46143.66
609.37	45865.14
609.53	45741.09
609.68	45844.07
609.84	46064.08
609.99	45778.54
610.15	45247.24
610.30	46157.70
610.46	45050.63
610.61	45546.82
610.76	45628.74
610.92	46005.57
611.07	46019.61
611.23	45783.22
611.38	46115.58
611.54	45867.48
611.69	45151.27
611.84	45265.96
612.00	45476.61
612.15	45647.47
612.31	46036.00
612.46	45516.40
612.62	45811.31
612.77	45855.78
612.92	45635.77
613.08	45099.78
613.23	45837.05
613.39	44858.71
613.54	45034.25
613.69	44978.07
613.85	45291.71
614.00	45202.77
614.15	45851.09
614.31	45284.68
614.46	45645.13
614.62	45336.18
614.77	45350.22
614.92	45041.27
615.08	45050.63
615.23	45146.59
615.38	45212.13
615.54	44886.79
615.69	45148.93
615.84	44821.26
616.00	45085.74
616.15	45181.70
616.30	45085.74
616.46	44863.39
616.61	44830.62
616.76	44767.43
616.92	44584.86
617.07	44868.07
617.22	44643.38
617.37	44856.37
617.53	44453.79
617.68	45027.23
617.83	44790.83
617.99	44720.62
618.14	44598.91
618.29	44638.70
618.45	44540.39
618.60	44189.31
618.75	44528.69
618.90	44456.14
619.06	44545.08
619.21	44648.06
619.36	44474.86
619.51	44395.28
619.67	44437.41
619.82	44114.42
619.97	45118.51
620.12	43814.83
620.28	44287.62
620.43	44477.20
620.58	44430.39
620.73	44404.64
620.89	44699.55
621.04	44456.14
621.19	44371.88
621.34	44381.24
621.49	44268.89
621.65	44109.74
621.80	44009.09
621.95	43997.39
622.10	44229.10
622.25	44083.99
622.41	43950.58
622.56	44002.07
622.71	43999.73
622.86	43955.26
623.01	44025.48
623.16	44168.25
623.32	43463.75
623.47	43976.33
623.62	43964.62
623.77	43632.27
623.92	43325.66
624.07	43524.60
624.23	43351.40
624.38	43875.68
624.53	43667.37
624.68	43613.54
624.83	43793.76
624.98	43138.41
625.13	43089.26
625.29	43271.82
625.44	43084.58
625.59	42948.83
625.74	43370.13
625.89	42707.76
626.04	42972.24
626.19	43440.34
626.34	42904.36
626.49	43021.39
626.65	43522.26
626.80	43533.96
626.95	43112.67
627.10	42775.63
627.25	42871.59
627.40	42862.23
627.55	42572.00
627.70	43178.20
627.85	42595.41
628.00	43056.50
628.15	43110.33
628.30	43007.34
628.45	43042.45
628.60	43173.52
628.76	42747.54
628.91	42696.05
629.06	42415.19
629.21	42782.65
629.36	42309.86
629.51	42574.34
629.66	42625.84
629.81	42548.60
629.96	42710.10
630.11	42679.67
630.26	42995.64
630.41	42770.95
630.56	42557.96
630.71	42419.87
630.86	42220.92
631.01	42047.72
631.16	42277.10
631.31	41834.74
631.46	41523.44
631.61	42370.72
631.76	41954.10
631.91	42799.04
632.06	42562.64
632.21	42246.67
632.36	42050.06
632.51	41844.10
632.66	41937.72
632.81	41881.55
632.96	41888.57
633.10	41654.51
633.25	41841.76
633.40	42148.37
633.55	41794.95
633.70	41457.91
633.85	41727.07
634.00	41759.84
634.15	41691.96
634.30	41486.00
634.45	41944.74
634.60	41383.01
634.75	41511.74
634.90	41387.69
635.05	41586.64
635.19	41631.11
635.34	41982.19
635.49	41895.59
635.64	41495.36
635.79	41581.96
635.94	41560.89
636.09	41361.95
636.24	41221.52
636.39	41261.30
636.53	41324.50
636.68	40854.05
636.83	41010.87
636.98	41549.19
637.13	41247.26
637.28	41448.55
637.43	41579.62
637.57	41127.89
637.72	40966.40
637.87	41287.05
638.02	41331.52
638.17	41228.54
638.32	40968.74
638.46	41074.06
638.61	41153.64
638.76	40870.43
638.91	40758.09
639.06	40641.06
639.20	40957.03
639.35	41038.95
639.50	40811.92
639.65	40664.47
639.80	40671.49
639.94	40481.91
640.09	40460.84
640.24	40692.55
640.39	40376.58
640.54	40931.29
640.68	40437.44
640.83	40442.12
640.98	40350.84
641.13	40184.66
641.27	40552.12
641.42	40339.13
641.57	40465.52
641.72	40517.01
641.86	40079.33
642.01	40004.44
642.16	40240.83
642.31	39988.05
642.45	40149.55
642.60	39742.30
642.75	40357.86
642.90	40280.62
643.04	39819.53
643.19	39995.07
643.34	40210.40
643.48	40126.14
643.63	40062.95
643.78	40105.08
643.93	40175.30
644.07	40329.77
644.22	39915.50
644.37	39377.17
644.51	40032.52
644.66	39585.48
644.81	40208.06
644.95	40154.23
645.10	39519.95
645.25	40385.94
645.39	39702.51
645.54	39700.17
645.69	39395.90
645.83	39732.93
645.98	39452.07
646.13	39423.98
646.27	39541.01
646.42	39749.32
646.57	39194.61
646.71	39068.22
646.86	39335.04
647.00	39456.75
647.15	39651.02
647.30	39154.82
647.44	39173.55
647.59	39321.00
647.74	39206.31
647.88	39145.46
648.03	39346.75
648.17	39232.06
648.32	38885.66
648.47	39564.42
648.61	39084.61
648.76	38998.01
648.90	39016.73
649.05	38960.56
649.20	38752.25
649.34	39075.24
649.49	38625.86
649.63	38136.69
649.78	38876.30
649.92	39360.79
650.07	39365.47
650.21	38778.00
650.36	39030.77
650.51	38955.88
650.65	39683.78
650.80	39051.84
650.94	39679.10
651.09	38925.45
651.23	38525.22
651.38	38675.01
651.52	38141.37
651.67	38213.93
651.81	38265.42
651.96	38443.30
652.10	38639.90
652.25	38384.79
652.39	38642.24
652.54	38745.23
652.68	38412.87
652.83	38225.63
652.97	38749.91
653.12	38319.25
653.26	37977.53
653.41	38150.73
653.55	37757.52
653.70	38260.74
653.84	38302.87
653.99	37783.27
654.13	38117.96
654.27	37769.22
654.42	37837.10
654.56	38181.16
654.71	38302.87
654.85	37956.47
655.00	38199.88
655.14	38010.30
655.29	37663.90
655.43	37764.54
655.57	37439.21
655.72	37106.85
655.86	37378.36
656.01	37120.90
656.15	37258.99
656.30	37287.07
656.44	37366.65
656.58	37535.17
656.73	37748.16
656.87	37017.91
657.01	37200.47
657.16	37429.85
657.30	37179.41
657.45	36931.31
657.59	37291.76
657.73	37160.69
657.88	37493.04
658.02	37518.79
658.16	37942.42
658.31	37603.05
658.45	37809.01
658.60	37060.04
658.74	37443.89
658.88	37291.76
659.03	37261.33
659.17	37088.13
659.31	36914.93
659.46	36765.14
659.60	37092.81
659.74	37146.64
659.89	36741.73
660.03	36343.84
660.17	37090.47
660.32	36786.20
660.46	36627.04
660.60	36744.07
660.74	36797.90
660.89	36861.10
661.03	36400.01
661.17	36018.50
661.32	36196.38
661.46	36561.51
661.60	36320.43
661.74	35817.22
661.89	35885.09
662.03	36390.65
662.17	36062.97
662.31	36070.00
662.46	35985.74
662.60	35985.74
662.74	36002.12
662.88	35688.49
663.03	35868.71
663.17	35442.73
663.31	35990.42
663.45	35356.13
663.60	35868.71
663.74	35599.55
663.88	35204.00
664.02	35028.46
664.17	35920.20
664.31	34869.30
664.45	35445.07
664.59	35517.63
664.73	35138.46
664.88	35573.80
665.02	34707.80
665.16	34803.77
665.30	35026.12
665.44	34852.92
665.59	34670.36
665.73	34906.75
665.87	34518.22
666.01	34698.44
666.15	35063.57
666.29	34469.07
666.44	35044.84
666.58	34562.69
666.72	34686.74
666.86	34445.66
667.00	34670.36
667.14	33968.19
667.28	34249.06
667.43	34651.63
667.57	34244.38
667.71	34026.71
667.85	34532.26
667.99	34618.86
668.13	34218.63
668.27	34050.11
668.41	34265.44
668.56	34117.99
668.70	33780.95
668.84	33354.97
668.98	33708.40
669.12	33635.84
669.26	33675.63
669.40	33565.62
669.54	32917.29
669.68	33525.83
669.82	33060.07
669.96	33476.68
670.10	33130.28
670.25	33422.85
670.39	32772.18
670.53	32540.47
670.67	32926.66
670.81	33134.96
670.95	33029.64
671.09	33003.89
671.23	32692.60
671.37	32690.26
671.51	32222.16
671.65	32568.55
671.79	32645.79
671.93	32449.19
672.07	32154.28
672.21	32404.72
672.35	32278.33
672.49	32173.00
672.63	32292.37
672.77	32374.29
672.91	32060.66
673.05	31775.11
673.19	31651.06
673.33	31571.49
673.47	31672.13
673.61	31468.50
673.75	31248.49
673.89	31269.56
674.03	31417.01
674.17	31466.16
674.31	31290.62
674.45	31608.93
674.59	31349.14
674.73	31257.85
674.87	31241.47
675.01	31072.95
675.15	30991.03
675.29	31042.53
675.43	31061.25
675.56	30476.12
675.70	30590.80
675.84	30595.48
675.98	29996.31
676.12	30302.92
676.26	30464.41
676.40	30319.30
676.54	30295.89
676.68	30543.99
676.82	29933.11
676.96	29663.95
677.10	30127.38
677.23	29575.01
677.37	29738.85
677.51	30075.88
677.65	29479.05
677.79	28505.38
677.93	28811.99
678.07	28968.81
678.21	28905.62
678.34	28966.47
678.48	28987.53
678.62	28535.81
678.76	28680.92
678.90	28252.61
679.04	28166.01
679.18	28732.42
679.31	28348.57
679.45	27859.40
679.59	28004.51
679.73	27950.68
679.87	27908.55
680.00	27817.27
680.14	27510.66
680.28	27880.46
680.42	27758.75
680.56	27573.85
680.70	27501.29
680.83	28034.94
680.97	27557.47
681.11	27555.13
681.25	27367.88
681.39	27105.74
681.52	27094.04
681.66	27421.72
681.80	26775.73
681.94	26478.48
682.07	26469.12
682.21	26494.86
682.35	26176.55
682.49	26375.50
682.62	26089.95
682.76	26340.39
682.90	26249.11
683.04	26436.35
683.17	26160.17
683.31	26204.64
683.45	25867.60
683.59	25612.48
683.72	25472.05
683.86	25963.56
684.00	25450.99
684.13	25284.81
684.27	25120.97
684.41	25359.70
684.55	24947.77
684.68	25104.59
684.82	25455.67
684.96	24741.80
685.09	24781.59
685.23	24760.53
685.37	24720.74
685.50	24875.21
685.64	24826.06
685.78	24507.75
685.91	24336.89
686.05	24107.52
686.19	23969.43
686.32	24088.79
686.46	23440.47
686.60	23243.86
686.73	23187.69
686.87	23005.13
687.01	23051.94
687.14	23089.38
687.28	22796.82
687.42	23213.43
687.55	22876.40
687.69	23175.98
687.82	23042.57
687.96	22916.19
688.10	22808.52
688.23	22593.19
688.37	22380.20
688.50	22480.85
688.64	22501.91
688.78	22644.68
688.91	22064.23
689.05	21898.05
689.18	22029.12
689.32	21919.12
689.46	21928.48
689.59	22108.70
689.73	21949.54
689.86	21785.71
690.00	21884.01
690.13	21710.81
690.27	21546.97
690.41	21238.02
690.54	21039.08
690.68	21301.22
690.81	21324.62
690.95	21245.04
691.08	20947.79
691.22	20996.95
691.35	21219.30
691.49	21006.31
691.62	20835.45
691.76	20872.90
691.89	20760.55
692.03	20741.83
692.16	20360.32
692.30	20568.63
692.43	20365.00
692.57	20006.90
692.70	20177.76
692.84	20173.08
692.97	19782.21
693.11	19658.16
693.24	19562.20
693.38	19330.48
693.51	19452.19
693.65	19644.12
693.78	19667.52
693.92	19452.19
694.05	19456.87
694.19	19768.16
694.32	19082.39
694.45	19255.59
694.59	19035.58
694.72	18939.62
694.86	19208.78
694.99	18672.79
695.13	18712.58
695.26	18787.48
695.39	18607.26
695.53	19105.79
695.66	18670.45
695.80	18448.10
695.93	18092.34
696.07	18171.92
696.20	18181.28
696.33	18092.34
696.47	18211.71
696.60	18185.96
696.73	17617.21
696.87	17771.69
697.00	17664.02
697.14	17685.09
697.27	17591.47
697.40	17378.48
697.54	17579.76
697.67	17198.26
697.80	17397.20
697.94	17219.32
698.07	17130.38
698.21	16896.33
698.34	17034.42
698.47	16915.05
698.61	16585.04
698.74	16772.28
698.87	16849.52
699.01	16807.39
699.14	16432.90
699.27	16393.11
699.40	16332.26
699.54	16243.32
699.67	16004.58
699.80	16212.89
699.94	15983.52
700.07	16154.38
700.20	15934.37
700.34	15955.43
700.47	15894.58
700.60	15967.13
700.73	15999.90
700.87	15999.90
701.00	15367.96
701.13	15613.71
701.26	15194.76
701.40	15384.34
701.53	15372.64
701.66	15321.15
701.79	15044.96
701.93	15066.03
702.06	14932.62
702.19	14618.99
702.32	14916.23
702.46	14787.50
702.59	14904.53
702.72	14904.53
702.85	14963.04
702.99	14752.40
703.12	14483.24
703.25	14434.08
703.38	14541.75
703.51	14630.69
703.65	14497.28
703.78	14169.60
703.91	14235.14
704.04	14047.90
704.17	14155.56
704.31	13874.70
704.44	13877.04
704.57	13774.05
704.70	13490.85
704.83	13558.72
704.96	13549.36
705.10	13518.93
705.23	13647.66
>>>>>End Processed Spectral Data<<<<<
