SpectraSuite Data File
++++++++++++++++++++++++++++++++++++
Date: Fri Oct 25 10:44:50 EDT 2013
User: price-jones
Dark Spectrum Present: No
Reference Spectrum Present: No
Number of Sampled Component Spectra: 1
Spectrometers: USB2+H05261
Integration Time (usec): 100000 (USB2+H05261)
Spectra Averaged: 1 (USB2+H05261)
Boxcar Smoothing: 0 (USB2+H05261)
Correct for Electrical Dark: No (USB2+H05261)
Strobe/Lamp Enabled: No (USB2+H05261)
Correct for Detector Non-linearity: No (USB2+H05261)
Correct for Stray Light: No (USB2+H05261)
Number of Pixels in Processed Spectrum: 2048
>>>>>Begin Processed Spectral Data<<<<<
365.73	163.84
365.92	163.84
366.12	163.84
366.32	14.04
366.52	53.83
366.72	35.11
366.91	9.36
367.11	0.00
367.31	88.94
367.51	0.00
367.70	9.36
367.90	0.00
368.10	35.11
368.30	0.00
368.49	60.85
368.69	95.96
368.89	74.90
369.09	51.49
369.28	44.47
369.48	56.17
369.68	79.58
369.87	102.98
370.07	79.58
370.27	81.92
370.47	173.20
370.66	369.80
370.86	386.19
371.06	456.40
371.25	503.22
371.45	433.00
371.65	411.93
371.84	423.64
372.04	451.72
372.24	383.85
372.44	475.13
372.63	493.85
372.83	440.02
373.03	507.90
373.22	402.57
373.42	430.66
373.62	543.00
373.81	524.28
374.01	463.43
374.21	580.45
374.40	540.66
374.60	535.98
374.79	519.60
374.99	578.11
375.19	557.05
375.38	573.43
375.58	498.53
375.78	610.88
375.97	580.45
376.17	667.05
376.37	620.24
376.56	566.41
376.76	505.56
376.95	533.64
377.15	587.47
377.35	636.63
377.54	531.30
377.74	545.34
377.93	620.24
378.13	585.13
378.33	662.37
378.52	594.50
378.72	690.46
378.91	566.41
379.11	594.50
379.31	617.90
379.50	608.54
379.70	702.16
379.89	709.18
380.09	559.39
380.28	638.97
380.48	641.31
380.68	657.69
380.87	669.39
381.07	624.92
381.26	718.54
381.46	678.76
381.65	603.86
381.85	650.67
382.04	589.82
382.24	716.20
382.43	667.05
382.63	641.31
382.83	660.03
383.02	660.03
383.22	786.42
383.41	725.57
383.61	608.54
383.80	802.80
384.00	702.16
384.19	674.07
384.39	758.33
384.58	711.52
384.78	653.01
384.97	727.91
385.17	739.61
385.36	685.78
385.56	725.57
385.75	732.59
385.95	674.07
386.14	800.46
386.34	723.23
386.53	744.29
386.72	795.78
386.92	791.10
387.11	800.46
387.31	786.42
387.50	734.93
387.70	753.65
387.89	798.12
388.09	788.76
388.28	837.91
388.48	868.34
388.67	875.36
388.86	847.27
389.06	884.72
389.25	954.94
389.45	868.34
389.64	919.83
389.84	926.85
390.03	912.81
390.22	954.94
390.42	957.28
390.61	896.43
390.81	880.04
391.00	1029.84
391.19	997.07
391.39	929.19
391.58	1020.47
391.78	947.92
391.97	1041.54
392.16	924.51
392.36	910.47
392.55	945.58
392.75	983.02
392.94	898.77
393.13	929.19
393.33	952.60
393.52	947.92
393.71	987.71
393.91	1004.09
394.10	1057.92
394.29	1069.62
394.49	978.34
394.68	1086.01
394.88	1111.75
395.07	1097.71
395.26	1139.84
395.46	1074.31
395.65	1205.38
395.84	1125.80
396.04	1137.50
396.23	1095.37
396.42	1090.69
396.62	1174.95
396.81	1100.05
397.00	1177.29
397.19	1214.74
397.39	1268.57
397.58	1214.74
397.77	1163.25
397.97	1299.00
398.16	1224.10
398.35	1366.87
398.55	1289.64
398.74	1416.02
398.93	1310.70
399.12	1301.34
399.32	1322.40
399.51	1324.74
399.70	1350.49
399.90	1359.85
400.09	1406.66
400.28	1425.39
400.47	1516.67
400.67	1451.13
400.86	1486.24
401.05	1418.36
401.24	1521.35
401.44	1465.18
401.63	1544.75
401.82	1472.20
402.01	1455.81
402.21	1570.50
402.40	1504.96
402.59	1514.33
402.78	1511.99
402.97	1542.41
403.17	1596.25
403.36	1647.74
403.55	1696.89
403.74	1732.00
403.93	1621.99
404.13	1584.54
404.32	1621.99
404.51	1619.65
404.70	1748.38
404.89	1640.72
405.09	1802.21
405.28	1715.61
405.47	1813.92
405.66	1795.19
405.85	1783.49
406.05	1739.02
406.24	1823.28
406.43	1856.04
406.62	1837.32
406.81	1724.97
407.00	1909.88
407.20	1895.83
407.39	1797.53
407.58	1877.11
407.77	1895.83
407.96	1944.99
408.15	1998.82
408.34	1912.22
408.54	1952.01
408.73	2038.61
408.92	1994.14
409.11	2087.76
409.30	2066.69
409.49	2036.27
409.68	2022.22
409.87	2005.84
410.07	2113.50
410.26	2143.93
410.45	2169.68
410.64	2228.19
410.83	2188.40
411.02	2223.51
411.21	2289.04
411.40	2284.36
411.59	2377.98
411.78	2333.51
411.98	2296.07
412.17	2221.17
412.36	2413.09
412.55	2356.92
412.74	2546.50
412.93	2476.29
413.12	2380.32
413.31	2497.35
413.50	2448.20
413.69	2553.52
413.88	2466.92
414.07	2502.03
414.26	2642.46
414.45	2642.46
414.64	2602.68
414.83	2677.57
415.02	2700.98
415.22	2754.81
415.41	2736.09
415.60	2818.00
415.79	2979.50
415.98	2871.84
416.17	2806.30
416.36	2949.08
416.55	2967.80
416.74	2778.22
416.93	2810.98
417.12	2897.58
417.31	3023.97
417.50	3122.27
417.69	3143.34
417.88	3019.29
418.07	3091.85
418.26	3187.81
418.45	3082.49
418.64	3208.87
418.83	3262.71
419.02	3190.15
419.21	3302.50
419.39	3208.87
419.58	3241.64
419.77	3117.59
419.96	3262.71
420.15	3269.73
420.34	3314.20
420.53	3398.46
420.72	3382.07
420.91	3346.97
421.10	3417.18
421.29	3452.29
421.48	3485.06
421.67	3471.01
421.86	3375.05
422.05	3391.44
422.24	3316.54
422.43	3358.67
422.61	3417.18
422.80	3557.61
422.99	3506.12
423.18	3618.47
423.37	3557.61
423.56	3552.93
423.75	3599.74
423.94	3531.87
424.13	3349.31
424.32	3492.08
424.50	3681.66
424.69	3557.61
424.88	3763.58
425.07	3625.49
425.26	3454.63
425.45	3510.80
425.64	3583.36
425.83	3585.70
426.01	3592.72
426.20	3562.30
426.39	3632.51
426.58	3583.36
426.77	3613.79
426.96	3730.81
427.15	3698.05
427.33	3761.24
427.52	3623.15
427.71	3733.15
427.90	3847.84
428.09	3770.60
428.28	3801.03
428.46	3786.99
428.65	3829.12
428.84	3875.93
429.03	3749.54
429.22	3779.97
429.40	3850.18
429.59	3784.65
429.78	3726.13
429.97	3538.89
430.16	3772.94
430.34	3730.81
430.53	3812.73
430.72	3927.42
430.91	3901.67
431.10	3906.35
431.28	4021.04
431.47	4131.05
431.66	4184.88
431.85	4039.76
432.03	4294.88
432.22	4243.39
432.41	4229.35
432.60	4229.35
432.79	4306.59
432.97	4313.61
433.16	4273.82
433.35	4117.00
433.54	4273.82
433.72	4250.41
433.91	4074.87
434.10	4269.14
434.28	4393.19
434.47	4383.82
434.66	4369.78
434.85	4390.84
435.03	4622.56
435.22	4461.06
435.41	4610.86
435.59	4379.14
435.78	4552.34
435.97	4606.17
436.16	4643.62
436.34	4784.06
436.53	4676.39
436.72	4793.42
436.90	4624.90
437.09	4681.07
437.28	4622.56
437.46	4683.41
437.65	4748.95
437.84	4746.61
438.02	4863.63
438.21	4669.37
438.40	4814.48
438.58	5018.11
438.77	4875.34
438.96	4964.28
439.14	4987.68
439.33	5116.41
439.52	5151.52
439.70	5144.50
439.89	5165.56
440.08	5181.95
440.26	5142.16
440.45	5224.08
440.63	5233.44
440.82	5296.63
441.01	5406.64
441.19	5476.85
441.38	5474.51
441.57	5556.43
441.75	5537.71
441.94	5603.24
442.12	5607.92
442.31	5863.04
442.50	5748.36
442.68	5694.52
442.87	5741.33
443.05	5771.76
443.24	5863.04
443.43	5844.32
443.61	5902.83
443.80	5687.50
443.98	5755.38
444.17	5514.30
444.35	5827.93
444.54	5900.49
444.73	5870.06
444.91	5884.11
445.10	5912.19
445.28	5830.27
445.47	5813.89
445.65	5778.78
445.84	6050.28
446.02	5951.98
446.21	5856.02
446.39	5865.38
446.58	6057.31
446.77	5987.09
446.95	5989.43
447.14	5951.98
447.32	6211.78
447.51	6108.80
447.69	6015.18
447.88	6092.41
448.06	6148.59
448.25	6047.94
448.43	6073.69
448.62	6090.07
448.80	6022.20
448.99	6186.04
449.17	6153.27
449.36	5907.51
449.54	6335.83
449.73	6270.30
449.91	6375.62
450.10	6534.78
450.28	6590.95
450.46	6422.43
450.65	6459.88
450.83	6583.93
451.02	6450.52
451.20	6347.53
451.39	6569.88
451.57	6445.84
451.76	6347.53
451.94	6399.02
452.13	6623.72
452.31	6480.94
452.49	6352.21
452.68	6588.61
452.86	6452.86
453.05	6750.10
453.23	6612.01
453.42	6583.93
453.60	6693.93
453.78	6689.25
453.97	6672.87
454.15	6682.23
454.34	6597.97
454.52	6586.27
454.70	6803.94
454.89	6913.94
455.07	6801.60
455.26	7009.90
455.44	7052.03
455.62	6780.53
455.81	7059.06
455.99	7033.31
456.17	6984.16
456.36	7042.67
456.54	7222.89
456.73	7145.66
456.91	7389.07
457.09	7323.54
457.28	7489.71
457.46	7246.30
457.64	7459.29
457.83	7295.45
458.01	7412.48
458.19	7403.11
458.38	7302.47
458.56	7536.52
458.74	7379.71
458.93	7272.04
459.11	7506.10
459.29	7545.89
459.48	7602.06
459.66	7531.84
459.84	7487.37
460.03	7784.62
460.21	7662.91
460.39	7623.12
460.57	7777.60
460.76	7810.37
460.94	7892.29
461.12	7840.79
461.31	7793.98
461.49	7679.30
461.67	7686.32
461.85	8039.74
462.04	7992.93
462.22	8177.83
462.40	8252.73
462.59	8002.29
462.77	8093.57
462.95	8002.29
463.13	8035.06
463.32	7918.03
463.50	8255.07
463.68	8229.32
463.86	8372.10
464.05	8119.32
464.23	8046.76
464.41	8173.15
464.59	8107.62
464.78	8437.63
464.96	8365.07
465.14	8212.94
465.32	8444.65
465.50	8353.37
465.69	8383.80
465.87	8212.94
466.05	8489.12
466.23	8341.67
466.41	8500.83
466.60	8461.04
466.78	8327.63
466.96	8299.54
467.14	8397.84
467.32	8461.04
467.51	8545.30
467.69	8470.40
467.87	8498.49
468.05	8786.37
468.23	8802.75
468.41	8718.50
468.60	8545.30
468.78	8732.54
468.96	8645.94
469.14	8833.18
469.32	9020.42
469.50	8610.83
469.69	8896.38
469.87	8898.72
470.05	8924.46
470.23	9027.45
470.41	9095.32
470.59	9249.80
470.77	9041.49
470.95	9015.74
471.14	9413.63
471.32	8954.89
471.50	9362.14
471.68	9341.08
471.86	9380.87
472.04	9551.73
472.22	9671.09
472.40	9341.08
472.58	9523.64
472.77	9694.50
472.95	9743.65
473.13	9940.26
473.31	9483.85
473.49	9420.66
473.67	9799.82
473.85	9736.63
474.03	9872.38
474.21	9811.53
474.39	10076.01
474.57	10017.49
474.75	10132.18
474.93	10174.31
475.12	10389.64
475.30	10501.98
475.48	10284.31
475.66	10265.59
475.84	10375.59
476.02	10497.30
476.20	10408.36
476.38	10539.43
476.56	11040.31
476.74	10843.70
476.92	10775.83
477.10	10916.26
477.28	11000.52
477.46	10991.16
477.64	11187.76
477.82	11267.34
478.00	11651.19
478.18	11468.62
478.36	11321.17
478.54	11648.85
478.72	11569.27
478.90	11779.92
479.08	12018.65
479.26	11833.75
479.44	11950.78
479.62	11971.84
479.80	12046.74
479.98	12269.09
480.16	12421.22
480.34	12624.85
480.52	12491.44
480.70	12571.02
480.88	12512.50
481.06	12587.40
481.24	12828.48
481.41	13228.71
481.59	13217.01
481.77	13135.09
481.95	13261.48
482.13	13631.28
482.31	13437.02
482.49	13593.83
482.67	13783.41
482.85	13713.20
483.03	13839.59
483.21	14164.92
483.39	13937.89
483.57	14312.38
483.74	14155.56
483.92	14473.87
484.10	14139.18
484.28	14721.97
484.46	14792.19
484.64	15129.22
484.82	14785.16
485.00	14965.39
485.18	15161.99
485.35	15222.84
485.53	14815.59
485.71	14965.39
485.89	15407.75
486.07	15440.51
486.25	15534.14
486.43	15819.68
486.61	15688.61
486.78	16011.60
486.96	16154.38
487.14	16219.91
487.32	16168.42
487.50	16287.79
487.68	16634.19
487.85	16821.43
488.03	17071.87
488.21	17106.98
488.39	17099.95
488.57	17198.26
488.75	17303.58
488.92	17703.81
489.10	17755.30
489.28	17844.24
489.46	18106.38
489.64	18335.76
489.81	18335.76
489.99	18588.53
490.17	18764.07
490.35	18883.44
490.53	18686.84
490.70	18691.52
490.88	18838.97
491.06	19220.48
491.24	19026.21
491.41	19372.61
491.59	19253.25
491.77	19351.55
491.95	19414.74
492.13	19489.64
492.30	19548.15
492.48	20269.04
492.66	20315.85
492.84	19997.54
493.01	20297.13
493.19	20320.53
493.37	20741.83
493.54	21102.27
493.72	20879.92
493.90	21069.50
494.08	21074.18
494.25	21252.06
494.43	21284.83
494.61	21446.33
494.79	21558.67
494.96	21633.57
495.14	21865.28
495.32	22066.57
495.49	21778.68
495.67	21958.91
495.85	22195.30
496.02	22410.63
496.20	22377.86
496.38	22850.65
496.55	22565.10
496.73	23068.32
496.91	23108.11
497.09	23056.62
497.26	23136.20
497.44	23290.67
497.62	23438.12
497.79	23601.96
497.97	23616.01
498.14	23686.22
498.32	23805.59
498.50	23763.46
498.67	24049.00
498.85	23899.21
499.03	24130.92
499.20	24421.15
499.38	24287.74
499.56	24444.56
499.73	24631.80
499.91	24610.73
500.08	24467.96
500.26	24528.81
500.44	24514.77
500.61	25317.57
500.79	24524.13
500.97	25085.86
501.14	25345.66
501.32	25432.26
501.49	25113.95
501.67	25469.71
501.84	25635.89
502.02	25745.89
502.20	25603.12
502.37	26019.74
502.55	25923.77
502.72	26075.91
502.90	25968.24
503.07	26237.41
503.25	26118.04
503.43	26146.12
503.60	26450.39
503.78	26518.27
503.95	26473.80
504.13	26661.04
504.30	26494.86
504.48	26485.50
504.65	27091.70
504.83	26888.07
505.01	27185.32
505.18	27335.12
505.36	27580.87
505.53	27353.84
505.71	27398.31
505.88	27201.71
506.06	27517.68
506.23	27655.77
506.41	27627.68
506.58	27793.86
506.76	27538.74
506.93	28320.48
507.11	27754.07
507.28	28196.43
507.46	28027.92
507.63	27740.03
507.81	28278.35
507.98	27803.22
508.16	28376.66
508.33	28421.13
508.50	28364.95
508.68	28538.15
508.85	29333.93
509.03	28875.19
509.20	28814.34
509.38	29596.07
509.55	29106.90
509.73	29170.10
509.90	29326.91
510.08	28961.79
510.25	29109.24
510.42	29120.95
510.60	29593.73
510.77	30000.99
510.95	29860.55
511.12	30096.95
511.30	29944.81
511.47	30349.73
511.64	30326.32
511.82	30433.99
511.99	29996.31
512.17	30309.94
512.34	30024.39
512.51	30665.70
512.69	30738.26
512.86	30518.25
513.04	30721.87
513.21	30314.62
513.38	31014.44
513.56	30899.75
513.73	31068.27
513.90	30780.39
514.08	30609.53
514.25	31374.88
514.43	31140.83
514.60	31063.59
514.77	31152.53
514.95	31236.79
515.12	31501.27
515.29	31529.36
515.47	31948.31
515.64	31854.69
515.81	31861.71
515.99	31697.88
516.16	31885.12
516.33	31992.78
516.51	31714.26
516.68	31592.55
516.85	31714.26
517.03	31838.31
517.20	32135.56
517.37	32458.55
517.54	32383.65
517.72	32369.61
517.89	32336.84
518.06	32297.05
518.24	32259.60
518.41	32690.26
518.58	32540.47
518.75	32706.65
518.93	33111.56
519.10	32952.40
519.27	32701.96
519.45	33046.02
519.62	33336.25
519.79	33099.86
519.96	33249.65
520.14	33289.44
520.31	33446.26
520.48	33479.02
520.65	33778.61
520.83	33806.70
521.00	33654.56
521.17	33923.72
521.34	33687.33
521.52	34050.11
521.69	33872.23
521.86	34417.58
522.03	33771.59
522.20	34225.65
522.38	34398.85
522.55	34125.01
522.72	34235.02
522.89	34293.53
523.07	34553.33
523.24	34630.57
523.41	35129.10
523.58	34827.17
523.75	35129.10
523.92	35016.75
524.10	35175.91
524.27	35028.46
524.44	35299.96
524.61	35154.85
524.78	35398.26
524.96	35243.79
525.13	35409.96
525.30	35725.94
525.47	35754.02
525.64	35798.49
525.81	35454.44
525.98	35503.59
526.16	35559.76
526.33	35466.14
526.50	35768.07
526.67	35105.70
526.84	35168.89
527.01	35826.58
527.18	35810.20
527.36	36339.16
527.53	36240.86
527.70	36236.17
527.87	36526.40
528.04	36163.62
528.21	36170.64
528.38	36362.56
528.55	36631.72
528.72	36652.79
528.89	36882.16
529.07	36332.14
529.24	36137.87
529.41	36753.43
529.58	36545.12
529.75	36760.45
529.92	37088.13
530.09	36634.06
530.26	37041.32
530.43	37029.62
530.60	36751.09
530.77	37043.66
530.94	37207.50
531.11	36968.76
531.28	36938.33
531.46	37488.36
531.63	37312.82
531.80	37153.66
531.97	37453.25
532.14	37214.52
532.31	37069.40
532.48	37055.36
532.65	37535.17
532.82	37780.93
532.99	37708.37
533.16	37411.12
533.33	37750.50
533.50	37855.82
533.67	38033.71
533.84	38003.28
534.01	38330.95
534.18	38300.53
534.35	38328.61
534.52	38064.13
534.69	38487.77
534.86	38263.08
535.03	38417.55
535.20	38534.58
535.37	38616.50
535.54	38822.47
535.71	38256.06
535.88	38384.79
536.05	38382.45
536.22	39229.72
536.38	38249.03
536.55	38841.19
536.72	38663.31
536.89	38057.11
537.06	38827.15
537.23	38932.47
537.40	38962.90
537.57	38710.12
537.74	38960.56
537.91	38890.34
538.08	39005.03
538.25	38948.85
538.42	38855.23
538.59	39344.41
538.75	39213.34
538.92	39634.63
539.09	39161.84
539.26	39318.66
539.43	39075.24
539.60	39604.20
539.77	38906.73
539.94	39653.36
540.11	39585.48
540.28	39447.39
540.44	39714.21
540.61	39133.76
540.78	39494.20
540.95	39040.14
541.12	39613.57
541.29	39580.80
541.46	39625.27
541.62	39789.11
541.79	40053.59
541.96	39459.09
542.13	40112.10
542.30	39636.97
542.47	39758.68
542.63	40079.33
542.80	40172.96
542.97	40957.03
543.14	40807.24
543.31	40456.16
543.48	40636.38
543.64	40818.94
543.81	40961.72
543.98	40952.35
544.15	40498.29
544.32	40865.75
544.48	41214.49
544.65	41081.08
544.82	41251.94
544.99	40772.13
545.16	40938.31
545.32	40779.15
545.49	41020.23
545.66	41237.90
545.83	40957.03
546.00	41500.04
546.16	40755.75
546.33	41373.65
546.50	40982.78
546.67	41184.07
546.83	41085.76
547.00	41214.49
547.17	41235.56
547.34	41549.19
547.50	41371.31
547.67	41556.21
547.84	41265.99
548.00	41947.08
548.17	41869.84
548.34	41750.48
548.51	42031.34
548.67	41900.27
548.84	41638.13
549.01	41570.25
549.18	41851.12
549.34	41469.61
549.51	41872.18
549.68	41998.57
549.84	41914.31
550.01	42216.24
550.18	41984.53
550.34	42305.18
550.51	41584.30
550.68	41937.72
550.84	42007.94
551.01	42288.80
551.18	42099.22
551.34	42497.11
551.51	42038.36
551.68	42057.09
551.84	42454.98
552.01	41961.12
552.18	42192.84
552.34	42253.69
552.51	42583.71
552.68	42260.71
552.84	42752.23
553.01	42827.12
553.18	42733.50
553.34	42674.99
553.51	42354.33
553.67	42239.65
553.84	42820.10
554.01	42862.23
554.17	42930.11
554.34	42909.04
554.51	42707.76
554.67	42682.01
554.84	43201.61
555.00	42588.39
555.17	42677.33
555.33	42693.71
555.50	42492.43
555.67	42827.12
555.83	43086.92
556.00	43044.79
556.16	43152.46
556.33	43454.39
556.50	42513.49
556.66	43159.48
556.83	42892.66
556.99	43477.79
557.16	43430.98
557.32	43721.21
557.49	43515.24
557.65	42997.98
557.82	43304.59
557.98	43540.99
558.15	43189.91
558.32	43569.07
558.48	43182.88
558.65	42969.90
558.81	43335.02
558.98	43229.69
559.14	43323.32
559.31	42789.67
559.47	43866.32
559.64	43618.22
559.80	43805.47
559.97	43688.44
560.13	43498.86
560.30	43313.95
560.46	43435.66
560.63	43540.99
560.79	44168.25
560.96	43606.52
561.12	43803.13
561.29	43681.42
561.45	43100.97
561.61	43838.23
561.78	43686.10
561.94	43505.88
562.11	43676.74
562.27	43683.76
562.44	43959.94
562.60	44023.14
562.77	44233.78
562.93	43737.59
563.10	43798.44
563.26	43372.47
563.42	43983.35
563.59	43222.67
563.75	43737.59
563.92	43969.30
564.08	44044.20
564.24	43732.91
564.41	43686.10
564.57	43908.45
564.74	43606.52
564.90	44619.97
565.07	44226.76
565.23	43924.83
565.39	44168.25
565.56	44074.63
565.72	43751.63
565.88	44095.69
566.05	43812.49
566.21	43887.39
566.38	43950.58
566.54	43999.73
566.70	44016.11
566.87	44350.81
567.03	43721.21
567.19	44528.69
567.36	44430.39
567.52	44266.55
567.68	44257.19
567.85	43899.09
568.01	44226.76
568.17	43777.38
568.34	44147.18
568.50	44013.77
568.66	44177.61
568.83	44250.17
568.99	44069.95
569.15	44098.03
569.32	44112.08
569.48	43880.36
569.64	44449.11
569.81	44287.62
569.97	44020.80
570.13	44498.26
570.30	44472.52
570.46	43887.39
570.62	43856.96
570.78	44067.61
570.95	44339.11
571.11	43873.34
571.27	43800.79
571.43	44444.43
571.60	44229.10
571.76	44013.77
571.92	44140.16
572.09	44334.43
572.25	43889.73
572.41	44203.36
572.57	44418.69
572.74	44626.99
572.90	44615.29
573.06	44479.54
573.22	44165.91
573.38	44418.69
573.55	44451.45
573.71	44334.43
573.87	44605.93
574.03	44381.24
574.20	44772.11
574.36	44098.03
574.52	44570.82
574.68	44446.77
574.84	44854.03
575.01	44758.06
575.17	44491.24
575.33	43793.76
575.49	44493.58
575.65	44659.76
575.82	44877.43
575.98	44292.30
576.14	44650.40
576.30	44296.98
576.46	44465.50
576.62	44091.01
576.79	44055.90
576.95	44533.37
577.11	44587.21
577.27	44830.62
577.43	44198.68
577.59	44418.69
577.75	44533.37
577.92	44399.96
578.08	44191.65
578.24	44488.90
578.40	44289.96
578.56	44449.11
578.72	44325.07
578.88	44446.77
579.04	44704.23
579.21	44713.59
579.37	44135.48
579.53	44774.45
579.69	44470.18
579.85	44509.97
580.01	44521.67
580.17	44921.90
580.33	44844.66
580.49	44809.56
580.65	44982.76
580.82	44779.13
580.98	44327.41
581.14	44542.74
581.30	44765.09
581.46	44718.28
581.62	44648.06
581.78	44533.37
581.94	45008.50
582.10	44814.24
582.26	44589.55
582.42	44809.56
582.58	44624.65
582.74	44952.33
582.90	44786.15
583.06	44552.10
583.22	45027.23
583.38	44692.53
583.54	44589.55
583.70	44554.44
583.86	44626.99
584.02	44498.26
584.18	45015.52
584.34	44891.48
584.50	44711.25
584.66	44271.23
584.82	44245.49
584.98	44807.22
585.14	44453.79
585.30	44573.16
585.46	44903.18
585.62	44568.48
585.78	44603.59
585.94	44332.09
586.10	44858.71
586.26	44481.88
586.42	44898.50
586.58	44966.37
586.74	44676.15
586.90	44329.75
587.06	44619.97
587.22	44603.59
587.38	44149.53
587.54	44701.89
587.70	45010.84
587.86	44821.26
588.02	44783.81
588.18	44694.87
588.34	44603.59
588.49	44760.40
588.65	44374.22
588.81	44175.27
588.97	44266.55
589.13	44659.76
589.29	44762.75
589.45	44432.73
589.61	44505.29
589.77	44959.35
589.93	45010.84
590.08	44931.26
590.24	44636.36
590.40	44465.50
590.56	44966.37
590.72	45193.40
590.88	45015.52
591.04	44917.22
591.20	45291.71
591.35	45287.03
591.51	45387.67
591.67	44947.65
591.83	44938.29
591.99	44783.81
592.15	45308.09
592.31	45191.06
592.46	44821.26
592.62	44577.84
592.78	45022.54
592.94	45228.51
593.10	44952.33
593.26	45064.67
593.41	44933.60
593.57	45095.10
593.73	45174.68
593.89	44964.03
594.05	44924.24
594.20	44914.88
594.36	44783.81
594.52	45006.16
594.68	44931.26
594.84	44980.42
594.99	45209.79
595.15	44865.73
595.31	45357.24
595.47	44872.75
595.62	45148.93
595.78	44968.71
595.94	45366.60
596.10	45294.05
596.25	45436.82
596.41	45127.87
596.57	44910.20
596.73	45104.46
596.88	44975.73
597.04	44804.88
597.20	45170.00
597.36	45216.81
597.51	45476.61
597.67	45116.17
597.83	45291.71
597.99	45247.24
598.14	44989.78
598.30	44526.35
598.46	44854.03
598.61	45144.25
598.77	44858.71
598.93	44680.83
599.09	45041.27
599.24	45895.56
599.40	45560.87
599.56	45591.30
599.71	45731.73
599.87	45406.39
600.03	45198.09
600.18	45373.63
600.34	45319.79
600.50	45057.65
600.65	44999.14
600.81	44945.31
600.97	45165.32
601.12	45280.00
601.28	45558.53
601.44	45125.53
601.59	44690.19
601.75	44821.26
601.91	45184.04
602.06	44928.92
602.22	45118.51
602.37	44954.67
602.53	45287.03
602.69	45488.31
602.84	44612.95
603.00	44720.62
603.16	45029.57
603.31	44907.86
603.47	44933.60
603.62	44898.50
603.78	45205.11
603.94	45219.15
604.09	45418.10
604.25	45422.78
604.40	45228.51
604.56	44804.88
604.71	45572.57
604.87	44783.81
605.03	45038.93
605.18	45242.56
605.34	45141.91
605.49	45055.31
605.65	44718.28
605.80	45193.40
605.96	45244.90
606.12	45319.79
606.27	45148.93
606.43	44851.69
606.58	44390.60
606.74	44954.67
606.89	44685.51
607.05	45036.59
607.20	45319.79
607.36	44947.65
607.51	45165.32
607.67	44245.49
607.82	44992.12
607.98	44243.15
608.13	44502.95
608.29	44762.75
608.44	44645.72
608.60	44559.12
608.75	44428.05
608.91	44596.57
609.06	44636.36
609.22	44879.77
609.37	44177.61
609.53	44727.64
609.68	44739.34
609.84	44528.69
609.99	44706.57
610.15	44519.33
610.30	44624.65
610.46	44484.22
610.61	44163.57
610.76	44804.88
610.92	44648.06
611.07	44542.74
611.23	44456.14
611.38	44615.29
611.54	44465.50
611.69	44238.47
611.84	43915.47
612.00	44460.82
612.15	44732.32
612.31	44598.91
612.46	44313.36
612.62	44416.35
612.77	44053.56
612.92	44516.99
613.08	44465.50
613.23	43941.22
613.39	44027.82
613.54	43615.88
613.69	44453.79
613.85	44034.84
614.00	44311.02
614.15	44245.49
614.31	44154.21
614.46	44788.49
614.62	44186.97
614.77	44011.43
614.92	43936.54
615.08	44025.48
615.23	43842.92
615.38	43910.79
615.54	43751.63
615.69	44095.69
615.84	43992.71
616.00	43985.69
616.15	43746.95
616.30	43833.55
616.46	43648.65
616.61	44243.15
616.76	43583.12
616.92	43454.39
617.07	43604.18
617.22	43693.12
617.37	43920.15
617.53	44060.58
617.68	44006.75
617.83	43449.70
617.99	43847.60
618.14	43562.05
618.29	43632.27
618.45	43398.21
618.60	43196.93
618.75	43430.98
618.90	43777.38
619.06	43861.64
619.21	43716.53
619.36	43758.66
619.51	43758.66
619.67	43370.13
619.82	43332.68
619.97	43253.10
620.12	43030.75
620.28	43187.56
620.43	43491.83
620.58	43372.47
620.73	43138.41
620.89	43147.78
621.04	43136.07
621.19	43084.58
621.34	43267.14
621.49	43168.84
621.65	42923.08
621.80	42927.77
621.95	43117.35
622.10	42824.78
622.25	42911.38
622.41	42698.39
622.56	42707.76
622.71	43061.18
622.86	42391.78
623.01	42810.74
623.16	42653.92
623.32	42625.84
623.47	42646.90
623.62	42581.37
623.77	42724.14
623.92	42539.24
624.07	42403.49
624.23	42302.84
624.38	42604.77
624.53	42068.79
624.68	42492.43
624.83	42260.71
624.98	42265.39
625.13	42225.60
625.29	42555.62
625.44	42258.37
625.59	42550.94
625.74	41855.80
625.89	41722.39
626.04	42068.79
626.19	42249.01
626.34	42258.37
626.49	42160.07
626.65	42120.28
626.80	42515.83
626.95	42389.44
627.10	41806.65
627.25	42099.22
627.40	42110.92
627.55	41514.08
627.70	41837.08
627.85	41640.47
628.00	41600.68
628.15	41855.80
628.30	41397.06
628.45	42052.41
628.60	41977.51
628.76	42047.72
628.91	41839.42
629.06	41642.81
629.21	41319.82
629.36	41830.05
629.51	41675.58
629.66	41486.00
629.81	41163.00
629.96	41284.71
630.11	41427.48
630.26	41869.84
630.41	41565.57
630.56	41371.31
630.71	41509.40
630.86	41572.60
631.01	41116.19
631.16	41340.88
631.31	41167.68
631.46	41212.15
631.61	41013.21
631.76	40999.16
631.91	40924.27
632.06	41179.39
632.21	41687.28
632.36	41364.29
632.51	41074.06
632.66	40744.05
632.81	40940.65
632.96	40896.18
633.10	40641.06
633.25	41106.83
633.40	41223.86
633.55	41076.40
633.70	41188.75
633.85	40837.67
634.00	41015.55
634.15	41319.82
634.30	40694.89
634.45	40800.22
634.60	41034.27
634.75	40811.92
634.90	40481.91
635.05	40725.32
635.19	40444.46
635.34	40781.49
635.49	40601.27
635.64	39992.73
635.79	40741.71
635.94	40601.27
636.09	40418.71
636.24	40725.32
636.39	39934.22
636.53	39779.74
636.68	40095.72
636.83	40446.80
636.98	40247.85
637.13	39936.56
637.28	40121.46
637.43	40411.69
637.57	40357.86
637.72	39854.64
637.87	40364.88
638.02	39962.31
638.17	40435.10
638.32	39945.92
638.46	40191.68
638.61	40018.48
638.76	40222.11
638.91	40140.19
639.06	39864.00
639.20	40091.04
639.35	39833.58
639.50	40343.81
639.65	40034.86
639.80	40238.49
639.94	39878.05
640.09	39746.98
640.24	39817.19
640.39	39351.43
640.54	39538.67
640.68	39590.16
640.83	39358.45
640.98	39665.06
641.13	39381.85
641.27	39716.55
641.42	39723.57
641.57	39346.75
641.72	39388.88
641.86	39269.51
642.01	39145.46
642.16	39332.70
642.31	38913.75
642.45	39704.85
642.60	39166.52
642.75	39576.12
642.90	39370.15
643.04	39473.13
643.19	38895.02
643.34	39594.84
643.48	39173.55
643.63	38930.13
643.78	38976.94
643.93	38967.58
644.07	39131.42
644.22	39063.54
644.37	38855.23
644.51	38740.55
644.66	39068.22
644.81	38939.49
644.95	39040.14
645.10	38937.15
645.25	39122.05
645.39	39166.52
645.54	39014.39
645.69	38995.67
645.83	38927.79
645.98	38986.30
646.13	38359.04
646.27	38873.96
646.42	38347.34
646.57	38759.27
646.71	38590.75
646.86	39096.31
647.00	38595.43
647.15	39103.33
647.30	38990.98
647.44	38359.04
647.59	38380.10
647.74	38368.40
647.88	38316.91
648.03	38464.36
648.17	38443.30
648.32	38192.86
648.47	38480.75
648.61	37984.55
648.76	38464.36
648.90	38333.29
649.05	38204.56
649.20	38057.11
649.34	38394.15
649.49	37984.55
649.63	38232.65
649.78	37865.19
649.92	37745.82
650.07	38195.20
650.21	38080.52
650.36	38288.82
650.51	38022.00
650.65	38363.72
650.80	38485.43
650.94	38396.49
651.09	38251.38
651.23	37764.54
651.38	38136.69
651.52	38106.26
651.67	38012.64
651.81	37668.58
651.96	37415.80
652.10	37535.17
652.25	37415.80
652.39	37794.97
652.54	37897.95
652.68	37689.65
652.83	37642.84
652.97	37776.25
653.12	37483.68
653.26	37504.74
653.41	37928.38
653.55	37263.67
653.70	37170.05
653.84	37446.23
653.99	37628.79
654.13	37530.49
654.27	37621.77
654.42	37088.13
654.56	37015.57
654.71	37263.67
654.85	36928.97
655.00	37699.01
655.14	37233.24
655.29	36741.73
655.43	37179.41
655.57	36825.99
655.72	36821.31
655.86	36807.26
656.01	36594.28
656.15	36872.80
656.30	36765.14
656.44	36755.77
656.58	36458.52
656.73	36851.73
656.87	36732.37
657.01	36414.05
657.16	37240.26
657.30	36645.77
657.45	36250.22
657.59	36753.43
657.73	36629.38
657.88	37177.07
658.02	36907.91
658.16	36704.28
658.31	37085.79
658.45	36643.43
658.60	36250.22
658.74	36676.19
658.88	36814.29
659.03	36339.16
659.17	36526.40
659.31	36219.79
659.46	36018.50
659.60	36212.77
659.74	36446.82
659.89	35861.69
660.03	36236.17
660.17	36566.19
660.32	36041.91
660.46	36058.29
660.60	36126.17
660.74	36311.07
660.89	36151.91
661.03	35828.92
661.17	35889.77
661.32	35208.68
661.46	35625.29
661.60	35491.88
661.74	35744.66
661.89	35674.45
662.03	35463.80
662.17	35566.78
662.31	35424.01
662.46	35620.61
662.60	35887.43
662.74	35206.34
662.88	35122.08
663.03	35199.32
663.17	34895.05
663.31	34719.51
663.45	34794.40
663.60	34808.45
663.74	34953.56
663.88	34962.92
664.02	35016.75
664.17	34981.65
664.31	34897.39
664.45	34696.10
664.59	35138.46
664.73	34466.73
664.88	34473.75
665.02	34438.64
665.16	34216.29
665.30	34389.49
665.44	34698.44
665.59	34122.67
665.73	34026.71
665.87	34216.29
666.01	33989.26
666.15	33930.75
666.29	33975.22
666.44	33846.49
666.58	33804.36
666.72	33790.31
666.86	34227.99
667.00	34127.35
667.14	33378.38
667.28	33254.33
667.43	33773.93
667.57	34003.30
667.71	33273.06
667.85	33687.33
667.99	33223.90
668.13	33436.89
668.27	33340.93
668.41	33752.87
668.56	33067.09
668.70	33329.23
668.84	33137.30
668.98	32945.38
669.12	32938.36
669.26	32477.27
669.40	32385.99
669.54	33146.67
669.68	32868.14
669.82	32954.74
669.96	32676.22
670.10	32659.84
670.25	32524.08
670.39	32411.74
670.53	32226.84
670.67	32140.24
670.81	32481.95
670.95	32301.73
671.09	32496.00
671.23	32566.21
671.37	32549.83
671.51	32142.58
671.65	31941.29
671.79	31997.46
671.93	31562.12
672.07	32217.47
672.21	31950.65
672.35	31697.88
672.49	31763.41
672.63	32020.87
672.77	31880.44
672.91	31552.76
673.05	31332.75
673.19	31379.56
673.33	31435.74
673.47	31508.29
673.61	31030.82
673.75	30862.30
673.89	30749.96
674.03	31150.19
674.17	30625.91
674.31	30953.58
674.45	31007.42
674.59	30789.75
674.73	30993.37
674.87	30834.22
675.01	30492.50
675.15	30485.48
675.29	30466.75
675.43	30366.11
675.56	30115.67
675.70	29975.24
675.84	30000.99
675.98	29261.38
676.12	30593.14
676.26	30293.55
676.40	29364.36
676.54	29668.63
676.68	30120.35
676.82	29642.88
676.96	29460.32
677.10	29900.34
677.23	29362.02
677.37	29387.77
677.51	28872.85
677.65	29006.26
677.79	28669.22
677.93	29181.80
678.07	28648.16
678.21	28549.85
678.34	28563.90
678.48	28446.87
678.62	28421.13
678.76	28070.04
678.90	28039.62
679.04	28224.52
679.18	28011.53
679.31	27426.40
679.45	27417.04
679.59	27391.29
679.73	27660.45
679.87	27442.78
680.00	26998.08
680.14	27435.76
680.28	27232.13
680.42	27208.73
680.56	27417.04
680.70	27077.66
680.83	27475.55
680.97	26993.40
681.11	27218.09
681.25	26548.70
681.39	26382.52
681.52	27145.53
681.66	26618.91
681.80	26670.40
681.94	26373.16
682.07	26473.80
682.21	26324.01
682.35	26466.78
682.49	25963.56
682.62	26333.37
682.76	25937.82
682.90	26375.50
683.04	25682.70
683.17	25682.70
683.31	25579.71
683.45	25521.20
683.59	25511.84
683.72	25612.48
683.86	25135.01
684.00	25139.69
684.13	25193.53
684.27	24900.96
684.41	25130.33
684.55	24467.96
684.68	24570.94
684.82	24636.48
684.96	24996.92
685.09	24641.16
685.23	24353.27
685.37	24112.20
685.50	24465.62
685.64	24418.81
685.78	23847.72
685.91	24315.83
686.05	23676.86
686.19	23861.76
686.32	23606.64
686.46	23339.82
686.60	23211.09
686.73	23496.64
686.87	23227.48
687.01	23154.92
687.14	22857.67
687.28	23084.70
687.42	23040.23
687.55	22862.35
687.69	23110.45
687.82	22918.53
687.96	22703.20
688.10	22609.58
688.23	22487.87
688.37	22225.73
688.50	22223.39
688.64	22260.84
688.78	22026.78
688.91	22057.21
689.05	22036.14
689.18	22012.74
689.32	21790.39
689.46	21671.02
689.59	21855.92
689.73	22230.41
689.86	21717.83
690.00	21799.75
690.13	21675.70
690.27	21525.91
690.41	21476.76
690.54	21081.21
690.68	20776.94
690.81	20858.85
690.95	20968.86
691.08	20746.51
691.22	20671.61
691.35	21128.02
691.49	20643.52
691.62	20748.85
691.76	20666.93
691.89	20467.98
692.03	20465.64
692.16	20491.39
692.30	20292.44
692.43	19906.26
692.57	20056.05
692.70	19779.87
692.84	19669.86
692.97	20051.37
693.11	19896.89
693.24	19295.38
693.38	19531.77
693.51	19534.11
693.65	19676.88
693.78	19609.01
693.92	19349.21
694.05	19421.77
694.19	19234.52
694.32	19005.15
694.45	18792.16
694.59	18813.23
694.72	18508.96
694.86	18625.98
694.99	18544.06
695.13	18686.84
695.26	18520.66
695.39	18272.56
695.53	18532.36
695.66	18515.98
695.80	18586.19
695.93	18450.44
696.07	18298.31
696.20	17947.23
696.33	18200.01
696.47	18047.87
696.60	17827.86
696.73	17769.35
696.87	17366.78
697.00	17860.63
697.14	17633.60
697.27	17563.38
697.40	17439.33
697.54	17355.07
697.67	17221.66
697.80	17132.72
697.94	16828.45
698.07	16884.62
698.21	16835.47
698.34	16805.05
698.47	16690.36
698.61	16339.28
698.74	16421.20
698.87	16446.94
699.01	16091.18
699.14	16063.10
699.27	16198.85
699.40	16042.03
699.54	16123.95
699.67	15908.62
699.80	16016.29
699.94	15726.06
700.07	15674.57
700.20	15393.70
700.34	15660.52
700.47	15857.13
700.60	16149.70
700.73	15960.11
700.87	15896.92
701.00	15377.32
701.13	15426.47
701.26	15211.14
701.40	15389.02
701.53	15222.84
701.66	15353.91
701.79	14817.93
701.93	15005.17
702.06	15000.49
702.19	14717.29
702.32	14831.97
702.46	14546.43
702.59	14703.25
702.72	14635.37
702.85	14862.40
702.99	14649.41
703.12	14459.83
703.25	14494.94
703.38	14445.79
703.51	14127.47
703.65	13987.04
703.78	14139.18
703.91	13912.14
704.04	14216.41
704.17	14185.99
704.31	13736.60
704.44	13832.57
704.57	13832.57
704.70	13668.73
704.83	13465.10
704.96	13696.82
705.10	13724.90
705.23	13422.97
>>>>>End Processed Spectral Data<<<<<
