SpectraSuite Data File
++++++++++++++++++++++++++++++++++++
Date: Fri Oct 25 10:44:22 EDT 2013
User: price-jones
Dark Spectrum Present: No
Reference Spectrum Present: No
Number of Sampled Component Spectra: 1
Spectrometers: USB2+H05261
Integration Time (usec): 100000 (USB2+H05261)
Spectra Averaged: 1 (USB2+H05261)
Boxcar Smoothing: 0 (USB2+H05261)
Correct for Electrical Dark: No (USB2+H05261)
Strobe/Lamp Enabled: No (USB2+H05261)
Correct for Detector Non-linearity: No (USB2+H05261)
Correct for Stray Light: No (USB2+H05261)
Number of Pixels in Processed Spectrum: 2048
>>>>>Begin Processed Spectral Data<<<<<
365.73	81.92
365.92	81.92
366.12	81.92
366.32	49.15
366.52	0.00
366.72	37.45
366.91	0.00
367.11	65.54
367.31	0.00
367.51	37.45
367.70	30.43
367.90	25.75
368.10	0.00
368.30	16.38
368.49	56.17
368.69	65.54
368.89	49.15
369.09	18.72
369.28	124.05
369.48	49.15
369.68	91.28
369.87	53.83
370.07	30.43
370.27	102.98
370.47	154.48
370.66	395.55
370.86	416.62
371.06	528.96
371.25	461.09
371.45	404.91
371.65	484.49
371.84	454.06
372.04	510.24
372.24	507.90
372.44	533.64
372.63	500.87
372.83	507.90
373.03	564.07
373.22	514.92
373.42	554.71
373.62	564.07
373.81	500.87
374.01	533.64
374.21	533.64
374.40	519.60
374.60	678.76
374.79	550.03
374.99	589.82
375.19	550.03
375.38	580.45
375.58	622.58
375.78	592.16
375.97	620.24
376.17	692.80
376.37	624.92
376.56	599.18
376.76	550.03
376.95	648.33
377.15	725.57
377.35	601.52
377.54	674.07
377.74	690.46
377.93	702.16
378.13	671.73
378.33	706.84
378.52	690.46
378.72	725.57
378.91	709.18
379.11	688.12
379.31	699.82
379.50	641.31
379.70	685.78
379.89	777.06
380.09	725.57
380.28	702.16
380.48	692.80
380.68	676.41
380.87	725.57
381.07	723.23
381.26	695.14
381.46	779.40
381.65	716.20
381.85	751.31
382.04	669.39
382.24	695.14
382.43	767.70
382.63	772.38
382.83	690.46
383.02	755.99
383.22	704.50
383.41	709.18
383.61	744.29
383.80	746.63
384.00	779.40
384.19	823.87
384.39	805.14
384.58	842.59
384.78	786.42
384.97	849.61
385.17	809.83
385.36	805.14
385.56	814.51
385.75	793.44
385.95	856.64
386.14	854.30
386.34	786.42
386.53	858.98
386.72	765.36
386.92	849.61
387.11	933.87
387.31	877.70
387.50	896.43
387.70	950.26
387.89	842.59
388.09	940.90
388.28	917.49
388.48	945.58
388.67	978.34
388.86	1027.50
389.06	952.60
389.25	898.77
389.45	1001.75
389.64	1039.20
389.84	1074.31
390.03	1071.97
390.22	1020.47
390.42	1060.26
390.61	1142.18
390.81	1069.62
391.00	1076.65
391.19	997.07
391.39	1067.28
391.58	971.32
391.78	1015.79
391.97	1036.86
392.16	1090.69
392.36	1144.52
392.55	1001.75
392.75	1196.01
392.94	1039.20
393.13	1093.03
393.33	1109.41
393.52	1109.41
393.71	1114.10
393.91	1137.50
394.10	1177.29
394.29	1128.14
394.49	1200.69
394.68	1163.25
394.88	1235.80
395.07	1301.34
395.26	1203.04
395.46	1268.57
395.65	1268.57
395.84	1233.46
396.04	1336.45
396.23	1231.12
396.42	1226.44
396.62	1167.93
396.81	1160.91
397.00	1350.49
397.19	1369.21
397.39	1385.60
397.58	1397.30
397.77	1334.11
397.97	1483.90
398.16	1458.15
398.35	1453.47
398.55	1488.58
398.74	1533.05
398.93	1598.59
399.12	1530.71
399.32	1589.22
399.51	1589.22
399.70	1621.99
399.90	1603.27
400.09	1654.76
400.28	1671.14
400.47	1657.10
400.67	1774.13
400.86	1767.10
401.05	1678.16
401.24	1699.23
401.44	1724.97
401.63	1762.42
401.82	1734.34
402.01	1830.30
402.21	1839.66
402.40	1825.62
402.59	1748.38
402.78	1781.15
402.97	1877.11
403.17	1912.22
403.36	1795.19
403.55	1914.56
403.74	1858.39
403.93	1975.41
404.13	1940.30
404.32	1935.62
404.51	1933.28
404.70	1996.48
404.89	1879.45
405.09	2001.16
405.28	1982.43
405.47	1942.64
405.66	2008.18
405.85	1961.37
406.05	1982.43
406.24	2059.67
406.43	2071.37
406.62	2228.19
406.81	2211.81
407.00	2069.03
407.20	2162.66
407.39	2057.33
407.58	2221.17
407.77	2277.34
407.96	2293.72
408.15	2333.51
408.34	2293.72
408.54	2317.13
408.73	2366.28
408.92	2506.71
409.11	2314.79
409.30	2326.49
409.49	2251.60
409.68	2298.41
409.87	2307.77
410.07	2436.50
410.26	2314.79
410.45	2385.01
410.64	2495.01
410.83	2684.59
411.02	2630.76
411.21	2710.34
411.40	2712.68
411.59	2637.78
411.78	2757.15
411.98	2672.89
412.17	2754.81
412.36	2752.47
412.55	2771.19
412.74	2843.75
412.93	2782.90
413.12	2792.26
413.31	2977.16
413.50	2846.09
413.69	2942.05
413.88	3016.95
414.07	2960.78
414.26	3009.93
414.45	3007.59
414.64	3155.04
414.83	3138.66
415.02	3164.40
415.22	3274.41
415.41	3197.17
415.60	3122.27
415.79	3239.30
415.98	3365.69
416.17	3461.65
416.36	3339.94
416.55	3471.01
416.74	3332.92
416.93	3372.71
417.12	3370.37
417.31	3473.36
417.50	3410.16
417.69	3555.27
417.88	3520.17
418.07	3550.59
418.26	3524.85
418.45	3662.94
418.64	3819.75
418.83	3623.15
419.02	3583.36
419.21	3599.74
419.39	3688.68
419.58	3655.92
419.77	3712.09
419.96	3801.03
420.15	3665.28
420.34	3899.33
420.53	3948.48
420.72	3906.35
420.91	3880.61
421.10	3906.35
421.29	4088.92
421.48	3981.25
421.67	4021.04
421.86	3822.09
422.05	3866.56
422.24	3824.44
422.43	4049.13
422.61	4093.60
422.80	4128.70
422.99	4053.81
423.18	4159.13
423.37	4091.26
423.56	4032.74
423.75	4098.28
423.94	3850.18
424.13	3805.71
424.32	3899.33
424.50	3941.46
424.69	4124.02
424.88	4322.97
425.07	4170.83
425.26	4093.60
425.45	3927.42
425.64	4086.58
425.83	4229.35
426.01	4257.43
426.20	4182.54
426.39	4175.52
426.58	4035.08
426.77	4093.60
426.96	4030.40
427.15	4126.36
427.33	4243.39
427.52	4177.86
427.71	4180.20
427.90	4269.14
428.09	4435.32
428.28	4315.95
428.46	4219.99
428.65	4250.41
428.84	4451.70
429.03	4482.13
429.22	4215.30
429.40	4325.31
429.59	4358.08
429.78	4170.83
429.97	4086.58
430.16	4231.69
430.34	4273.82
430.53	4212.96
430.72	4397.87
430.91	4449.36
431.10	4449.36
431.28	4706.82
431.47	4779.37
431.66	4880.02
431.85	4795.76
432.03	4744.27
432.22	4711.50
432.41	4748.95
432.60	4746.61
432.79	4863.63
432.97	4959.60
433.16	4833.21
433.35	4926.83
433.54	4770.01
433.72	4716.18
433.91	4910.44
434.10	5001.72
434.28	4844.91
434.47	4910.44
434.66	5181.95
434.85	5172.58
435.03	5158.54
435.22	5128.11
435.41	5273.23
435.59	5247.48
435.78	5315.36
435.97	5128.11
436.16	5355.15
436.34	5486.22
436.53	5273.23
436.72	5453.45
436.90	5174.92
437.09	5329.40
437.28	5259.18
437.46	5385.57
437.65	5291.95
437.84	5432.38
438.02	5259.18
438.21	5310.68
438.40	5317.70
438.58	5434.72
438.77	5600.90
438.96	5638.35
439.14	5788.14
439.33	5689.84
439.52	5827.93
439.70	5734.31
439.89	5970.71
440.08	5907.51
440.26	5909.85
440.45	5802.19
440.63	6085.39
440.82	6064.33
441.01	6200.08
441.19	6057.31
441.38	6359.24
441.57	6307.74
441.75	6296.04
441.94	6431.79
442.12	6438.81
442.31	6593.29
442.50	6607.33
442.68	6614.35
442.87	6649.46
443.05	6576.91
443.24	6707.98
443.43	6586.27
443.61	6710.32
443.80	6700.95
443.98	6394.34
444.17	6506.69
444.35	6920.96
444.54	6794.58
444.73	6780.53
444.91	6717.34
445.10	6595.63
445.28	6607.33
445.47	6401.37
445.65	6820.32
445.84	6679.89
446.02	6942.03
446.21	6691.59
446.39	6874.15
446.58	6794.58
446.77	6738.40
446.95	6752.45
447.14	7105.87
447.32	6974.80
447.51	6860.11
447.69	6937.35
447.88	6986.50
448.06	6946.71
448.25	6949.05
448.43	6920.96
448.62	7002.88
448.80	6937.35
448.99	6951.39
449.17	6988.84
449.36	7155.02
449.54	7225.23
449.73	6974.80
449.91	7447.58
450.10	7503.76
450.28	7473.33
450.46	7396.09
450.65	7440.56
450.83	7447.58
451.02	7239.28
451.20	7475.67
451.39	7396.09
451.57	7407.80
451.76	7337.58
451.94	7463.97
452.13	7454.61
452.31	7393.75
452.49	7283.75
452.68	7258.00
452.86	7379.71
453.05	7447.58
453.23	7606.74
453.42	7461.63
453.60	7536.52
453.78	7775.26
453.97	7730.79
454.15	7637.17
454.34	7452.27
454.52	7707.38
454.70	7581.00
454.89	7885.26
455.07	7875.90
455.26	7843.14
455.44	8166.13
455.62	8002.29
455.81	7765.90
455.99	8025.70
456.17	7866.54
456.36	7997.61
456.54	8149.75
456.73	8161.45
456.91	8369.76
457.09	8423.59
457.28	8788.71
457.46	8341.67
457.64	8414.23
457.83	8348.69
458.01	8229.32
458.19	8594.45
458.38	8297.20
458.56	8468.06
458.74	8547.64
458.93	8430.61
459.11	8500.83
459.29	8587.43
459.48	8706.79
459.66	8606.15
459.84	8601.47
460.03	8826.16
460.21	8704.45
460.39	8748.92
460.57	8795.73
460.76	8744.24
460.94	8690.41
461.12	9013.40
461.31	8842.54
461.49	8870.63
461.67	8844.88
461.85	9090.64
462.04	8936.17
462.22	9378.53
462.40	9060.21
462.59	9132.77
462.77	9043.83
462.95	9247.46
463.13	9291.93
463.32	9252.14
463.50	9315.33
463.68	9399.59
463.86	9181.92
464.05	9078.94
464.23	8992.34
464.41	9301.29
464.59	8861.27
464.78	9511.94
464.96	9570.45
465.14	9235.75
465.32	9734.29
465.50	9635.99
465.69	9720.24
465.87	9643.01
466.05	9631.30
466.23	9514.28
466.41	9486.19
466.60	9600.88
466.78	9364.48
466.96	9605.56
467.14	9565.77
467.32	9729.61
467.51	9657.05
467.69	9336.40
467.87	9753.01
468.05	9893.44
468.23	9717.90
468.41	9687.48
468.60	9685.14
468.78	10045.58
468.96	9687.48
469.14	9893.44
469.32	10045.58
469.50	9699.18
469.69	9928.55
469.87	10083.03
470.05	10092.39
470.23	10115.80
470.41	10193.03
470.59	10291.34
470.77	10143.88
470.95	10307.72
471.14	10317.08
471.32	10354.53
471.50	10677.52
471.68	10471.56
471.86	10492.62
472.04	10778.17
472.22	10895.19
472.40	10518.37
472.58	10663.48
472.77	10717.31
472.95	11122.23
473.13	10984.13
473.31	10944.34
473.49	10918.60
473.67	10682.20
473.85	11300.11
474.03	11309.47
474.21	11185.42
474.39	11419.47
474.57	11438.20
474.75	11461.60
474.93	11630.12
475.12	11447.56
475.30	11541.18
475.48	11356.28
475.66	11683.95
475.84	11641.82
476.02	11721.40
476.20	11789.28
476.38	12187.17
476.56	12140.36
476.74	12091.21
476.92	12009.29
477.10	12266.75
477.28	12622.51
477.46	12358.03
477.64	12545.27
477.82	12676.34
478.00	13104.66
478.18	12961.89
478.36	12791.03
478.54	13125.72
478.72	13378.50
478.90	13172.54
479.08	13256.79
479.26	13490.85
479.44	13654.69
479.62	13827.88
479.80	13921.51
479.98	13729.58
480.16	14150.88
480.34	13811.50
480.52	14087.68
480.70	14146.20
480.88	14080.66
481.06	14391.95
481.24	14427.06
481.41	14562.81
481.59	14934.96
481.77	14843.68
481.95	14939.64
482.13	15138.58
482.31	15051.99
482.49	15328.17
482.67	15506.05
482.85	15538.82
483.03	15555.20
483.21	15723.72
483.39	15868.83
483.57	15660.52
483.74	15810.32
483.92	15974.16
484.10	16161.40
484.28	16372.05
484.46	16435.24
484.64	16823.77
484.82	16444.60
485.00	16746.53
485.18	17001.65
485.35	16732.49
485.53	16678.66
485.71	16746.53
485.89	17064.85
486.07	17015.69
486.25	17057.82
486.43	17355.07
486.61	17579.76
486.78	17743.60
486.96	17607.85
487.14	18148.51
487.32	18324.05
487.50	18553.43
487.68	18855.36
487.85	18871.74
488.03	19030.90
488.21	19044.94
488.39	19026.21
488.57	19304.74
488.75	19487.30
488.92	19573.90
489.10	20044.35
489.28	19908.60
489.46	20325.21
489.64	20191.80
489.81	20505.43
489.99	20650.55
490.17	20577.99
490.35	20975.88
490.53	21111.63
490.70	21020.35
490.88	20762.89
491.06	21345.69
491.24	21383.13
491.41	21469.73
491.59	21336.32
491.77	21397.18
491.95	21589.10
492.13	21888.69
492.30	22181.26
492.48	22171.89
492.66	22136.79
492.84	22684.47
493.01	22728.94
493.19	22728.94
493.37	22705.54
493.54	22958.31
493.72	23166.62
493.90	23197.05
494.08	23557.49
494.25	23854.74
494.43	23922.62
494.61	23899.21
494.79	24018.58
494.96	24018.58
495.14	24184.76
495.32	24229.23
495.49	24215.18
495.67	24603.71
495.85	24552.22
496.02	25041.39
496.20	24842.45
496.38	25209.91
496.55	25291.83
496.73	25830.15
496.91	25851.22
497.09	25640.57
497.26	25961.22
497.44	25886.32
497.62	25752.91
497.79	26218.68
497.97	25832.49
498.14	26036.12
498.32	26185.91
498.50	26436.35
498.67	26679.77
498.85	26874.03
499.03	26808.50
499.20	27103.40
499.38	26939.57
499.56	27225.11
499.73	27012.12
499.91	27391.29
500.08	27447.46
500.26	26972.33
500.44	27431.08
500.61	27377.25
500.79	27456.82
500.97	27906.21
501.14	27761.09
501.32	27550.45
501.49	27992.81
501.67	27948.34
501.84	28224.52
502.02	28126.22
502.20	28603.69
502.37	28556.88
502.55	28582.62
502.72	28800.29
502.90	28664.54
503.07	28917.32
503.25	28933.70
503.43	28603.69
503.60	28737.10
503.78	28762.84
503.95	28893.91
504.13	29584.37
504.30	29399.47
504.48	29582.03
504.65	29724.80
504.83	29736.51
505.01	30080.56
505.18	30017.37
505.36	30061.84
505.53	30106.31
505.71	30534.63
505.88	30714.85
506.06	30094.61
506.23	30597.82
506.41	30548.67
506.58	30471.43
506.76	30639.95
506.93	30906.77
507.11	30831.88
507.28	30609.53
507.46	30962.95
507.63	30604.84
507.81	31220.41
507.98	30785.07
508.16	31014.44
508.33	31105.72
508.50	31288.28
508.68	31730.64
508.85	31859.37
509.03	31725.96
509.20	32027.89
509.38	31864.05
509.55	32184.71
509.73	32224.50
509.90	32376.63
510.08	32098.11
510.25	32203.43
510.42	32430.46
510.60	32540.47
510.77	32437.48
510.95	33394.76
511.12	32704.31
511.30	32952.40
511.47	33296.46
511.64	33149.01
511.82	33422.85
511.99	33001.55
512.17	33200.50
512.34	33228.59
512.51	33263.69
512.69	33703.71
512.86	33287.10
513.04	33703.71
513.21	33914.36
513.38	33736.48
513.56	33771.59
513.73	33385.40
513.90	33872.23
514.08	34036.07
514.25	33762.23
514.43	34045.43
514.60	34038.41
514.77	34122.67
514.95	34410.56
515.12	34424.60
515.29	34747.59
515.47	34469.07
515.64	34759.30
515.81	34782.70
515.99	34780.36
516.16	34707.80
516.33	33919.04
516.51	34471.41
516.68	34141.39
516.85	34064.16
517.03	34717.17
517.20	34806.11
517.37	35173.57
517.54	35257.83
517.72	35445.07
517.89	34574.39
518.06	34808.45
518.24	34646.95
518.41	35079.95
518.58	35175.91
518.75	35283.58
518.93	35896.80
519.10	35665.08
519.27	35775.09
519.45	35564.44
519.62	36308.73
519.79	35948.29
519.96	36353.20
520.14	36556.83
520.31	36219.79
520.48	36025.53
520.65	36285.33
520.83	36690.24
521.00	36851.73
521.17	36978.12
521.34	36643.43
521.52	36912.59
521.69	37289.42
521.86	37518.79
522.03	37214.52
522.20	37422.83
522.38	36847.05
522.55	37319.84
522.72	37436.87
522.89	37368.99
523.07	37612.41
523.24	37514.11
523.41	37792.63
523.58	38047.75
523.75	38314.57
523.92	37876.89
524.10	38384.79
524.27	38506.49
524.44	38108.60
524.61	38213.93
524.78	38852.89
524.96	38616.50
525.13	38471.39
525.30	38382.45
525.47	38759.27
525.64	38298.19
525.81	38401.17
525.98	38752.25
526.16	38281.80
526.33	38380.10
526.50	37965.83
526.67	38129.67
526.84	37989.24
527.01	38401.17
527.18	38717.14
527.36	39122.05
527.53	39124.40
527.70	39255.46
527.87	39290.57
528.04	39194.61
528.21	39536.33
528.38	39658.04
528.55	39810.17
528.72	39475.48
528.89	40156.57
529.07	39770.38
529.24	39423.98
529.41	39969.33
529.58	39585.48
529.75	39648.68
529.92	39749.32
530.09	39536.33
530.26	40559.14
530.43	40182.32
530.60	40128.48
530.77	40535.74
530.94	40030.18
531.11	40346.15
531.28	40243.17
531.46	40715.96
531.63	40706.60
531.80	40315.73
531.97	40079.33
532.14	40605.95
532.31	40027.84
532.48	39859.32
532.65	40526.38
532.82	40334.45
532.99	40713.62
533.16	40959.38
533.33	40683.19
533.50	40751.07
533.67	40811.92
533.84	40655.11
534.01	41057.68
534.18	41340.88
534.35	41165.34
534.52	40879.80
534.69	41493.02
534.86	41242.58
535.03	41354.93
535.20	41778.56
535.37	41827.71
535.54	41778.56
535.71	41448.55
535.88	41780.90
536.05	41378.33
536.22	41890.91
536.38	41621.75
536.55	41614.72
536.72	41848.78
536.89	41710.69
537.06	42017.30
537.23	42026.66
537.40	41797.29
537.57	41947.08
537.74	42225.60
537.91	42298.16
538.08	42457.32
538.25	42108.58
538.42	42021.98
538.59	42541.58
538.75	41972.83
538.92	42368.38
539.09	42185.82
539.26	42443.27
539.43	41764.52
539.60	42029.00
539.77	41942.40
539.94	42363.70
540.11	42026.66
540.28	42887.98
540.44	42082.83
540.61	42445.62
540.78	42204.54
540.95	42387.10
541.12	42171.77
541.29	42707.76
541.46	42937.13
541.62	42707.76
541.79	42417.53
541.96	42663.28
542.13	43044.79
542.30	42934.79
542.47	42895.00
542.63	42649.24
542.80	42913.72
542.97	43414.60
543.14	43679.08
543.31	43335.02
543.48	43395.87
543.64	44105.06
543.81	44133.14
543.98	43845.26
544.15	43693.12
544.32	43496.52
544.48	44168.25
544.65	43667.37
544.82	43531.62
544.99	43981.01
545.16	44198.68
545.32	43924.83
545.49	44086.33
545.66	44161.23
545.83	44062.93
546.00	44299.32
546.16	44013.77
546.33	44098.03
546.50	43950.58
546.67	43849.94
546.83	43491.83
547.00	44037.18
547.17	44147.18
547.34	43992.71
547.50	44671.46
547.67	44486.56
547.84	44275.91
548.00	44343.79
548.17	44832.96
548.34	44830.62
548.51	44952.33
548.67	45184.04
548.84	44729.98
549.01	44570.82
549.18	44617.63
549.34	44418.69
549.51	44509.97
549.68	44879.77
549.84	45162.98
550.01	45095.10
550.18	44673.81
550.34	44809.56
550.51	44711.25
550.68	45064.67
550.84	44994.46
551.01	45336.18
551.18	45216.81
551.34	45193.40
551.51	44978.07
551.68	45347.88
551.84	45095.10
552.01	44788.49
552.18	44886.79
552.34	45027.23
552.51	45411.07
552.68	45160.64
552.84	45200.43
553.01	45024.89
553.18	45876.84
553.34	45146.59
553.51	44634.02
553.67	45879.18
553.84	45177.02
554.01	45485.97
554.17	45617.04
554.34	45516.40
554.51	45610.02
554.67	45778.54
554.84	45745.77
555.00	45787.90
555.17	45581.93
555.33	45272.98
555.50	45270.64
555.67	45595.98
555.83	45642.79
556.00	45806.62
556.16	46216.22
556.33	45703.64
556.50	45680.24
556.66	46459.63
556.83	45492.99
556.99	45961.10
557.16	45914.29
557.32	45853.44
557.49	46405.80
557.65	45914.29
557.82	45937.69
557.98	46148.34
558.15	45727.05
558.32	46043.02
558.48	45815.99
558.65	45790.24
558.81	45801.94
558.98	45897.91
559.14	45935.35
559.31	45860.46
559.47	45944.72
559.64	46185.79
559.80	46401.12
559.97	46361.33
560.13	45507.04
560.30	45991.53
560.46	46089.83
560.63	45986.85
560.79	46550.91
560.96	46876.25
561.12	45975.14
561.29	46260.69
561.45	46026.63
561.61	46026.63
561.78	45853.44
561.94	45865.14
562.11	46344.95
562.27	46096.85
562.44	46387.08
562.60	46609.43
562.77	46632.83
562.93	46590.70
563.10	46703.05
563.26	45933.01
563.42	46777.95
563.59	45989.19
563.75	46564.96
563.92	46686.67
564.08	46768.58
564.24	46756.88
564.41	46576.66
564.57	46192.81
564.74	46461.97
564.90	46733.48
565.07	46586.02
565.23	46878.59
565.39	45970.46
565.56	46354.31
565.72	46169.41
565.88	46766.24
566.05	46358.99
566.21	46274.73
566.38	46405.80
566.54	46302.82
566.70	46522.83
566.87	46614.11
567.03	46684.33
567.19	47196.90
567.36	46410.48
567.52	46649.22
567.68	47033.07
567.85	46885.61
568.01	46885.61
568.17	47030.72
568.34	46611.77
568.50	46389.42
568.66	46436.23
568.83	46569.64
568.99	46520.49
569.15	46281.75
569.32	46522.83
569.48	46632.83
569.64	47068.17
569.81	46941.78
569.97	46396.44
570.13	47051.79
570.30	46387.08
570.46	46356.65
570.62	46328.56
570.78	46220.90
570.95	46099.19
571.11	46319.20
571.27	46557.94
571.43	46700.71
571.60	46476.02
571.76	46609.43
571.92	47051.79
572.09	46845.82
572.25	46644.54
572.41	46646.88
572.57	46937.10
572.74	47196.90
572.90	46724.11
573.06	46660.92
573.22	46686.67
573.38	46602.41
573.55	46564.96
573.71	46880.93
573.87	47157.11
574.03	46719.43
574.20	46836.46
574.36	46644.54
574.52	47117.32
574.68	47026.04
574.84	46761.56
575.01	46738.16
575.17	46887.95
575.33	46759.22
575.49	46452.61
575.65	46768.58
575.82	46937.10
575.98	46740.50
576.14	47292.86
576.30	47063.49
576.46	47047.11
576.62	46953.49
576.79	46955.83
576.95	46103.87
577.11	47012.00
577.27	46810.71
577.43	47239.03
577.59	46906.68
577.75	46866.89
577.92	46527.51
578.08	46616.45
578.24	46651.56
578.40	46560.28
578.56	46773.27
578.72	46658.58
578.88	47114.98
579.04	46670.28
579.21	46679.64
579.37	46930.08
579.53	46796.67
579.69	46763.90
579.85	46770.93
580.01	47302.23
580.17	46784.97
580.33	46997.96
580.49	47082.22
580.65	47356.06
580.82	47316.27
580.98	47222.65
581.14	46948.81
581.30	47742.25
581.46	47100.94
581.62	47234.35
581.78	46939.44
581.94	47318.61
582.10	46993.28
582.26	46822.42
582.42	47079.88
582.58	47175.84
582.74	47042.43
582.90	47372.44
583.06	47152.43
583.22	47075.19
583.38	46953.49
583.54	47110.30
583.70	46965.19
583.86	47070.51
584.02	47187.54
584.18	46962.85
584.34	46784.97
584.50	47325.63
584.66	46398.78
584.82	47117.32
584.98	47477.77
585.14	47522.24
585.30	46829.44
585.46	47185.20
585.62	46960.51
585.78	46909.02
585.94	46588.36
586.10	46873.91
586.26	46789.65
586.42	47229.67
586.58	47152.43
586.74	47154.77
586.90	47131.37
587.06	46883.27
587.22	47124.35
587.38	46813.05
587.54	47033.07
587.70	47007.32
587.86	46887.95
588.02	47185.20
588.18	47082.22
588.34	46873.91
588.49	46791.99
588.65	46073.45
588.81	46328.56
588.97	46607.09
589.13	46391.76
589.29	46754.54
589.45	46866.89
589.61	46658.58
589.77	47051.79
589.93	46770.93
590.08	46934.76
590.24	47227.33
590.40	47353.72
590.56	47421.59
590.72	47463.72
590.88	47278.82
591.04	47070.51
591.20	47344.36
591.35	47686.07
591.51	47461.38
591.67	47037.75
591.83	47381.80
591.99	46916.04
592.15	47274.14
592.31	47274.14
592.46	46754.54
592.62	47075.19
592.78	46866.89
592.94	47388.83
593.10	47096.26
593.26	47271.80
593.41	47075.19
593.57	47023.70
593.73	47157.11
593.89	47285.84
594.05	47290.52
594.20	47271.80
594.36	47433.30
594.52	46990.94
594.68	46710.07
594.84	47098.60
594.99	47203.92
595.15	46981.57
595.31	47522.24
595.47	47063.49
595.62	47437.98
595.78	46848.16
595.94	47290.52
596.10	47339.68
596.25	47398.19
596.41	47536.28
596.57	47227.33
596.73	47430.96
596.88	46883.27
597.04	47454.36
597.20	47269.46
597.36	47299.89
597.51	47646.29
597.67	46995.62
597.83	47267.12
597.99	47224.99
598.14	47185.20
598.30	46857.52
598.46	47325.63
598.61	47250.74
598.77	46756.88
598.93	47070.51
599.09	47159.45
599.24	47938.85
599.40	47660.33
599.56	47636.92
599.71	46902.00
599.87	47517.56
600.03	46976.89
600.18	46880.93
600.34	47398.19
600.50	47367.76
600.65	47143.07
600.81	47318.61
600.97	47707.14
601.12	47643.94
601.28	47337.33
601.44	46951.15
601.59	47098.60
601.75	47208.61
601.91	47178.18
602.06	46672.62
602.22	47224.99
602.37	47398.19
602.53	47241.37
602.69	47367.76
602.84	47136.05
603.00	46934.76
603.16	47119.66
603.31	47173.50
603.47	47023.70
603.62	47260.10
603.78	47217.97
603.94	47168.82
604.09	47477.77
604.25	47234.35
604.40	47075.19
604.56	47295.21
604.71	46817.74
604.87	47021.36
605.03	46789.65
605.18	46834.12
605.34	47093.92
605.49	46766.24
605.65	46754.54
605.80	46887.95
605.96	47016.68
606.12	47157.11
606.27	46880.93
606.43	46965.19
606.58	46770.93
606.74	46850.50
606.89	47173.50
607.05	46820.08
607.20	47089.24
607.36	46983.91
607.51	46862.21
607.67	46990.94
607.82	47096.26
607.98	46459.63
608.13	46436.23
608.29	46710.07
608.44	46307.50
608.60	46721.77
608.75	46747.52
608.91	46155.36
609.06	46277.07
609.22	46838.80
609.37	46440.91
609.53	46925.40
609.68	46471.34
609.84	46504.10
609.99	46604.75
610.15	46501.76
610.30	46696.03
610.46	46183.45
610.61	46677.30
610.76	46131.96
610.92	46625.81
611.07	46700.71
611.23	46438.57
611.38	46185.79
611.54	46843.48
611.69	46284.09
611.84	46061.74
612.00	46265.37
612.15	46419.84
612.31	46382.40
612.46	46171.75
612.62	46681.98
612.77	46286.43
612.92	46717.09
613.08	45794.92
613.23	46309.84
613.39	46204.52
613.54	45605.34
613.69	45869.82
613.85	46148.34
614.00	46000.89
614.15	46300.48
614.31	46192.81
614.46	46326.22
614.62	46202.18
614.77	46134.30
614.92	46232.60
615.08	45783.22
615.23	45846.41
615.38	45626.40
615.54	45340.86
615.69	45869.82
615.84	45483.63
616.00	45654.49
616.15	46003.23
616.30	45963.44
616.46	45338.52
616.61	45595.98
616.76	45649.81
616.92	45661.51
617.07	44971.05
617.22	45448.52
617.37	45333.84
617.53	46057.06
617.68	45935.35
617.83	45808.96
617.99	45736.41
618.14	45469.59
618.29	45600.66
618.45	45198.09
618.60	45514.06
618.75	45097.44
618.90	45069.36
619.06	45134.89
619.21	45375.97
619.36	45607.68
619.51	44919.56
619.67	45251.92
619.82	45869.82
619.97	45366.60
620.12	44767.43
620.28	44821.26
620.43	45071.70
620.58	45361.92
620.73	44739.34
620.89	44947.65
621.04	44741.68
621.19	45141.91
621.34	44879.77
621.49	44549.76
621.65	44437.41
621.80	44975.73
621.95	44856.37
622.10	44582.52
622.25	44512.31
622.41	44385.92
622.56	44402.30
622.71	44849.35
622.86	44418.69
623.01	44549.76
623.16	44158.89
623.32	44311.02
623.47	44467.84
623.62	44444.43
623.77	44201.02
623.92	44135.48
624.07	44418.69
624.23	44112.08
624.38	44072.29
624.53	44268.89
624.68	43880.36
624.83	44053.56
624.98	44163.57
625.13	44002.07
625.29	44144.84
625.44	43896.75
625.59	43793.76
625.74	44069.95
625.89	43452.05
626.04	43604.18
626.19	43990.37
626.34	43735.25
626.49	43983.35
626.65	44266.55
626.80	44114.42
626.95	44044.20
627.10	43756.32
627.25	43728.23
627.40	43304.59
627.55	43349.06
627.70	43194.59
627.85	43580.78
628.00	43622.90
628.15	43253.10
628.30	43206.29
628.45	43798.44
628.60	43578.43
628.76	43585.46
628.91	43299.91
629.06	43342.04
629.21	42862.23
629.36	43239.06
629.51	43145.44
629.66	43164.16
629.81	42782.65
629.96	43058.84
630.11	43213.31
630.26	43583.12
630.41	42890.32
630.56	42902.02
630.71	43594.82
630.86	42799.04
631.01	42646.90
631.16	43091.60
631.31	42234.97
631.46	42476.04
631.61	42600.09
631.76	42698.39
631.91	43044.79
632.06	42934.79
632.21	43077.56
632.36	43400.55
632.51	42672.65
632.66	42843.51
632.81	42061.77
632.96	42969.90
633.10	42602.43
633.25	42953.51
633.40	42763.93
633.55	42490.09
633.70	41947.08
633.85	42609.45
634.00	42763.93
634.15	42560.30
634.30	42869.25
634.45	42686.69
634.60	42433.91
634.75	42174.11
634.90	42344.97
635.05	42110.92
635.19	42139.00
635.34	42342.63
635.49	42204.54
635.64	41717.71
635.79	42029.00
635.94	41942.40
636.09	42595.41
636.24	41890.91
636.39	41769.20
636.53	41584.30
636.68	41535.15
636.83	41921.34
636.98	42075.81
637.13	41958.78
637.28	41780.90
637.43	41975.17
637.57	42223.26
637.72	41942.40
637.87	41853.46
638.02	41970.49
638.17	41832.39
638.32	41893.25
638.46	41937.72
638.61	41759.84
638.76	41633.45
638.91	41467.27
639.06	41617.07
639.20	41277.69
639.35	41724.73
639.50	41507.06
639.65	41731.75
639.80	41645.15
639.94	41455.57
640.09	41095.13
640.24	41125.55
640.39	40788.52
640.54	41565.57
640.68	41050.66
640.83	41057.68
640.98	40921.93
641.13	40921.93
641.27	41053.00
641.42	40687.87
641.57	40942.99
641.72	41029.59
641.86	40591.91
642.01	40872.78
642.16	40765.11
642.31	40807.24
642.45	41008.53
642.60	40666.81
642.75	40760.43
642.90	40825.96
643.04	41120.87
643.19	40687.87
643.34	40816.60
643.48	40432.75
643.63	40524.04
643.78	40285.30
643.93	40439.78
644.07	40140.19
644.22	40381.26
644.37	40549.78
644.51	40425.73
644.66	40671.49
644.81	40704.26
644.95	40980.44
645.10	40627.02
645.25	40692.55
645.39	40397.65
645.54	40552.12
645.69	40201.04
645.83	40332.11
645.98	40327.43
646.13	40484.25
646.27	40088.70
646.42	39978.69
646.57	39789.11
646.71	40481.91
646.86	39990.39
647.00	40339.13
647.15	40182.32
647.30	40168.27
647.44	39732.93
647.59	40062.95
647.74	39915.50
647.88	39805.49
648.03	40039.54
648.17	40002.10
648.32	39686.12
648.47	39934.22
648.61	39459.09
648.76	39894.43
648.90	39742.30
649.05	39770.38
649.20	39847.62
649.34	39805.49
649.49	39580.80
649.63	39587.82
649.78	39545.69
649.92	39557.39
650.07	39658.04
650.21	38988.64
650.36	39693.15
650.51	39285.89
650.65	39594.84
650.80	39702.51
650.94	39463.77
651.09	39543.35
651.23	39281.21
651.38	39543.35
651.52	39007.37
651.67	39414.62
651.81	39033.11
651.96	39089.29
652.10	39171.21
652.25	39089.29
652.39	39150.14
652.54	39175.89
652.68	39257.81
652.83	38843.53
652.97	39026.09
653.12	38831.83
653.26	38988.64
653.41	38923.11
653.55	38349.68
653.70	38466.70
653.84	39068.22
653.99	38899.70
654.13	38916.09
654.27	38492.45
654.42	38515.86
654.56	38546.28
654.71	38667.99
654.85	38848.21
655.00	38735.87
655.14	38298.19
655.29	38174.14
655.43	38305.21
655.57	38220.95
655.72	37827.74
655.86	37523.47
656.01	37942.42
656.15	37661.56
656.30	37816.04
656.44	38047.75
656.58	38110.94
656.73	38033.71
656.87	38188.18
657.01	38117.96
657.16	38101.58
657.30	38213.93
657.45	37794.97
657.59	38054.77
657.73	37890.93
657.88	38134.35
658.02	38017.32
658.16	38265.42
658.31	38136.69
658.45	37944.76
658.60	37825.40
658.74	37813.70
658.88	37399.42
659.03	38031.36
659.17	37354.95
659.31	37628.79
659.46	37593.68
659.60	37521.13
659.74	37743.48
659.89	37352.61
660.03	37031.96
660.17	37287.07
660.32	37666.24
660.46	37413.46
660.60	37029.62
660.74	37385.38
660.89	36917.27
661.03	37015.57
661.17	37553.90
661.32	36872.80
661.46	36849.39
661.60	36989.83
661.74	36905.57
661.89	36844.71
662.03	36517.04
662.17	36549.81
662.31	36432.78
662.46	36959.40
662.60	36723.01
662.74	36224.47
662.88	36690.24
663.03	35866.37
663.17	36306.39
663.31	35859.35
663.45	36128.51
663.60	36432.78
663.74	35948.29
663.88	35948.29
664.02	36025.53
664.17	36416.40
664.31	35889.77
664.45	35889.77
664.59	35669.76
664.73	36149.57
664.88	35660.40
665.02	35470.82
665.16	35758.70
665.30	35501.25
665.44	35552.74
665.59	35889.77
665.73	35295.28
665.87	35306.98
666.01	35438.05
666.15	35512.95
666.29	35536.35
666.44	35545.72
666.58	35194.64
666.72	35133.78
666.86	35248.47
667.00	35285.92
667.14	34892.71
667.28	34885.68
667.43	34707.80
667.57	35070.59
667.71	34614.18
667.85	34415.24
667.99	34583.76
668.13	34644.61
668.27	34398.85
668.41	34644.61
668.56	34459.71
668.70	34218.63
668.84	34487.79
668.98	34022.03
669.12	34052.45
669.26	34288.85
669.40	33879.25
669.54	33991.60
669.68	33586.69
669.82	33752.87
669.96	33773.93
670.10	33848.83
670.25	33769.25
670.39	33310.50
670.53	33809.04
670.67	33565.62
670.81	33881.60
670.95	33596.05
671.09	33371.36
671.23	32982.83
671.37	33603.07
671.51	32982.83
671.65	32854.10
671.79	32833.04
671.93	32952.40
672.07	32907.93
672.21	32938.36
672.35	32727.71
672.49	32985.17
672.63	32737.07
672.77	32919.63
672.91	32446.85
673.05	32760.48
673.19	32517.06
673.33	32278.33
673.47	32107.47
673.61	32479.61
673.75	32121.51
673.89	31786.82
674.03	31707.24
674.17	31630.00
674.31	31578.51
674.45	31732.98
674.59	31527.02
674.73	31679.15
674.87	31927.25
675.01	31445.10
675.15	31749.37
675.29	31431.05
675.43	31189.98
675.56	31831.29
675.70	31168.91
675.84	31119.76
675.98	30059.50
676.12	31087.00
676.26	30958.27
676.40	30735.92
676.54	30827.20
676.68	30382.49
676.82	30127.38
676.96	30843.58
677.10	30866.98
677.23	30295.89
677.37	30232.70
677.51	30129.72
677.65	29682.67
677.79	29909.71
677.93	29860.55
678.07	29755.23
678.21	29507.13
678.34	29378.40
678.48	29448.62
678.62	29331.59
678.76	28896.25
678.90	29088.18
679.04	28692.63
679.18	28994.56
679.31	28538.15
679.45	28599.01
679.59	28280.69
679.73	28767.52
679.87	28320.48
680.00	28573.26
680.14	28210.48
680.28	28116.86
680.42	28268.99
680.56	28236.22
680.70	27983.44
680.83	28058.34
680.97	28259.63
681.11	27999.83
681.25	27938.97
681.39	27697.90
681.52	27318.73
681.66	27449.80
681.80	27234.47
681.94	27346.82
682.07	27014.46
682.21	27480.23
682.35	27150.21
682.49	27056.59
682.62	27302.35
682.76	26766.37
682.90	26459.76
683.04	26885.73
683.17	26665.72
683.31	26391.88
683.45	26324.01
683.59	26384.86
683.72	25525.88
683.86	26010.37
684.00	25893.35
684.13	26033.78
684.27	25656.95
684.41	25661.63
684.55	25486.09
684.68	25769.30
684.82	25378.43
684.96	25364.39
685.09	25418.22
685.23	25270.76
685.37	25046.07
685.50	25240.34
685.64	25043.73
685.78	24730.10
685.91	24664.57
686.05	24329.87
686.19	24767.55
686.32	24100.50
686.46	23590.26
686.60	23740.05
686.73	23543.45
686.87	23768.14
687.01	23506.00
687.14	23501.32
687.28	23421.74
687.42	23491.96
687.55	23447.49
687.69	23604.30
687.82	23152.58
687.96	23459.19
688.10	23136.20
688.23	23009.81
688.37	22588.51
688.50	22881.08
688.64	22651.70
688.78	22822.56
688.91	22670.43
689.05	22588.51
689.18	22799.16
689.32	22111.04
689.46	22511.27
689.59	22501.91
689.73	22469.14
689.86	22230.41
690.00	22026.78
690.13	22197.64
690.27	21979.97
690.41	21809.11
690.54	21745.92
690.68	21607.83
690.81	21584.42
690.95	21722.51
691.08	21596.12
691.22	21654.64
691.35	21476.76
691.49	21558.67
691.62	21390.16
691.76	21167.80
691.89	20826.09
692.03	21083.55
692.16	20891.62
692.30	20526.50
692.43	20636.50
692.57	20617.78
692.70	20353.30
692.84	20861.19
692.97	20194.14
693.11	20102.86
693.24	20266.70
693.38	19786.89
693.51	19960.09
693.65	20109.88
693.78	20105.20
693.92	19889.87
694.05	19747.10
694.19	19861.79
694.32	19922.64
694.45	19323.46
694.59	19145.58
694.72	19243.88
694.86	18902.17
694.99	19063.66
695.13	18993.45
695.26	18838.97
695.39	18661.09
695.53	18970.04
695.66	19066.00
695.80	19138.56
695.93	18843.65
696.07	18558.11
696.20	18735.99
696.33	18410.65
696.47	18300.65
696.60	18448.10
696.73	18239.79
696.87	18249.16
697.00	18345.12
697.14	18080.64
697.27	17923.82
697.40	18085.32
697.54	17781.05
697.67	17589.13
697.80	17645.30
697.94	17240.39
698.07	17200.60
698.21	17142.08
698.34	17486.14
698.47	17355.07
698.61	16802.71
698.74	16833.13
698.87	17069.53
699.01	16966.54
699.14	16425.88
699.27	16486.73
699.40	16676.32
699.54	16468.01
699.67	16582.70
699.80	16379.07
699.94	16491.41
700.07	16451.63
700.20	16056.08
700.34	16009.26
700.47	15920.32
700.60	16582.70
700.73	16526.52
700.87	16016.29
701.00	15707.34
701.13	15623.08
701.26	15779.89
701.40	15920.32
701.53	15332.85
701.66	15613.71
701.79	15325.83
701.93	15494.35
702.06	15506.05
702.19	15133.90
702.32	15126.88
702.46	14904.53
702.59	15063.69
702.72	15014.54
702.85	15077.73
702.99	14934.96
703.12	14944.32
703.25	14609.62
703.38	14675.16
703.51	14459.83
703.65	14562.81
703.78	14714.95
703.91	14572.18
704.04	14499.62
704.17	14239.82
704.31	14359.19
704.44	14090.02
704.57	14120.45
704.70	14111.09
704.83	14221.10
704.96	14015.13
705.10	13998.74
705.23	13947.25
>>>>>End Processed Spectral Data<<<<<
