SpectraSuite Data File
++++++++++++++++++++++++++++++++++++
Date: Fri Oct 25 10:43:56 EDT 2013
User: price-jones
Dark Spectrum Present: No
Reference Spectrum Present: No
Number of Sampled Component Spectra: 1
Spectrometers: USB2+H05261
Integration Time (usec): 100000 (USB2+H05261)
Spectra Averaged: 1 (USB2+H05261)
Boxcar Smoothing: 0 (USB2+H05261)
Correct for Electrical Dark: No (USB2+H05261)
Strobe/Lamp Enabled: No (USB2+H05261)
Correct for Detector Non-linearity: No (USB2+H05261)
Correct for Stray Light: No (USB2+H05261)
Number of Pixels in Processed Spectrum: 2048
>>>>>Begin Processed Spectral Data<<<<<
365.73	98.30
365.92	98.30
366.12	98.30
366.32	91.28
366.52	37.45
366.72	39.79
366.91	49.15
367.11	79.58
367.31	0.00
367.51	0.00
367.70	35.11
367.90	77.24
368.10	37.45
368.30	28.09
368.49	18.72
368.69	51.49
368.89	28.09
369.09	35.11
369.28	18.72
369.48	4.68
369.68	25.75
369.87	110.01
370.07	35.11
370.27	166.18
370.47	182.56
370.66	407.25
370.86	521.94
371.06	414.27
371.25	507.90
371.45	440.02
371.65	468.11
371.84	402.57
372.04	428.32
372.24	454.06
372.44	561.73
372.63	545.34
372.83	561.73
373.03	493.85
373.22	550.03
373.42	571.09
373.62	627.26
373.81	559.39
374.01	594.50
374.21	610.88
374.40	552.37
374.60	606.20
374.79	561.73
374.99	585.13
375.19	613.22
375.38	531.30
375.58	575.77
375.78	704.50
375.97	606.20
376.17	589.82
376.37	624.92
376.56	603.86
376.76	589.82
376.95	634.29
377.15	629.60
377.35	711.52
377.54	741.95
377.74	601.52
377.93	660.03
378.13	676.41
378.33	657.69
378.52	678.76
378.72	648.33
378.91	692.80
379.11	685.78
379.31	702.16
379.50	638.97
379.70	662.37
379.89	676.41
380.09	793.44
380.28	772.38
380.48	716.20
380.68	713.86
380.87	725.57
381.07	699.82
381.26	709.18
381.46	725.57
381.65	732.59
381.85	758.33
382.04	688.12
382.24	723.23
382.43	725.57
382.63	664.71
382.83	753.65
383.02	791.10
383.22	709.18
383.41	770.04
383.61	760.67
383.80	755.99
384.00	779.40
384.19	767.70
384.39	849.61
384.58	816.85
384.78	882.38
384.97	805.14
385.17	753.65
385.36	856.64
385.56	863.66
385.75	882.38
385.95	748.97
386.14	936.21
386.34	910.47
386.53	875.36
386.72	861.32
386.92	936.21
387.11	915.15
387.31	880.04
387.50	910.47
387.70	844.93
387.89	894.08
388.09	903.45
388.28	915.15
388.48	915.15
388.67	931.53
388.86	959.62
389.06	978.34
389.25	983.02
389.45	959.62
389.64	978.34
389.84	1060.26
390.03	1034.52
390.22	976.00
390.42	1006.43
390.61	1053.24
390.81	1114.10
391.00	1013.45
391.19	1088.35
391.39	1050.90
391.58	1029.84
391.78	1121.12
391.97	1039.20
392.16	1036.86
392.36	1078.99
392.55	1062.60
392.75	1041.54
392.94	976.00
393.13	1020.47
393.33	1034.52
393.52	1050.90
393.71	1165.59
393.91	1149.20
394.10	1165.59
394.29	1203.04
394.49	1191.33
394.68	1153.88
394.88	1364.53
395.07	1390.28
395.26	1291.98
395.46	1259.21
395.65	1331.76
395.84	1270.91
396.04	1313.04
396.23	1266.23
396.42	1273.25
396.62	1238.14
396.81	1259.21
397.00	1193.67
397.19	1313.04
397.39	1406.66
397.58	1504.96
397.77	1430.07
397.97	1486.24
398.16	1448.79
398.35	1544.75
398.55	1474.54
398.74	1483.90
398.93	1519.01
399.12	1591.56
399.32	1495.60
399.51	1507.30
399.70	1540.07
399.90	1612.63
400.09	1692.21
400.28	1729.66
400.47	1561.14
400.67	1750.72
400.86	1769.44
401.05	1886.47
401.24	1746.04
401.44	1689.87
401.63	1797.53
401.82	1795.19
402.01	1858.39
402.21	1818.60
402.40	1818.60
402.59	1825.62
402.78	1832.64
402.97	1877.11
403.17	1963.71
403.36	1895.83
403.55	1919.24
403.74	1898.17
403.93	1933.28
404.13	2010.52
404.32	1891.15
404.51	1968.39
404.70	2038.61
404.89	1994.14
405.09	2010.52
405.28	1994.14
405.47	2036.27
405.66	2012.86
405.85	2136.91
406.05	1977.75
406.24	2078.40
406.43	2012.86
406.62	2155.63
406.81	2286.70
407.00	2050.31
407.20	2038.61
407.39	2214.15
407.58	2157.97
407.77	2314.79
407.96	2314.79
408.15	2382.67
408.34	2352.24
408.54	2349.90
408.73	2443.52
408.92	2422.45
409.11	2380.32
409.30	2373.30
409.49	2331.17
409.68	2497.35
409.87	2473.95
410.07	2516.08
410.26	2436.50
410.45	2602.68
410.64	2574.59
410.83	2626.08
411.02	2635.44
411.21	2619.06
411.40	2773.53
411.59	2848.43
411.78	2806.30
411.98	2785.24
412.17	2768.85
412.36	2764.17
412.55	2792.26
412.74	2928.01
412.93	2942.05
413.12	2855.45
413.31	3030.99
413.50	2984.18
413.69	2979.50
413.88	3143.34
414.07	3075.46
414.26	3087.17
414.45	3089.51
414.64	3185.47
414.83	3199.51
415.02	3199.51
415.22	3246.32
415.41	3229.94
415.60	3255.69
415.79	3262.71
415.98	3379.73
416.17	3321.22
416.36	3281.43
416.55	3353.99
416.74	3372.71
416.93	3353.99
417.12	3325.90
417.31	3461.65
417.50	3503.78
417.69	3655.92
417.88	3592.72
418.07	3623.15
418.26	3646.55
418.45	3709.75
418.64	3782.31
418.83	3625.49
419.02	3723.79
419.21	3875.93
419.39	3836.14
419.58	3852.52
419.77	3578.68
419.96	3901.67
420.15	3782.31
420.34	3939.12
420.53	3887.63
420.72	3969.55
420.91	3868.91
421.10	4011.68
421.29	4121.68
421.48	4032.74
421.67	3971.89
421.86	3992.95
422.05	4095.94
422.24	3840.82
422.43	4084.23
422.61	3894.65
422.80	3995.29
422.99	4086.58
423.18	4124.02
423.37	4177.86
423.56	4044.45
423.75	4084.23
423.94	4046.79
424.13	3960.19
424.32	4002.32
424.50	4128.70
424.69	4205.94
424.88	4189.56
425.07	4084.23
425.26	3882.95
425.45	4098.28
425.64	4084.23
425.83	4168.49
426.01	4297.22
426.20	4126.36
426.39	4074.87
426.58	4128.70
426.77	4074.87
426.96	4205.94
427.15	4119.34
427.33	4290.20
427.52	4245.73
427.71	4252.75
427.90	4409.57
428.09	4301.90
428.28	4231.69
428.46	4231.69
428.65	4381.48
428.84	4493.83
429.03	4353.40
429.22	4264.46
429.40	4255.09
429.59	4339.35
429.78	4067.85
429.97	4124.02
430.16	4039.76
430.34	4212.96
430.53	4259.78
430.72	4346.37
430.91	4500.85
431.10	4472.76
431.28	4716.18
431.47	4823.84
431.66	4791.08
431.85	4634.26
432.03	4814.48
432.22	5018.11
432.41	4957.25
432.60	4870.65
432.79	4739.58
432.97	4938.53
433.16	4957.25
433.35	4798.10
433.54	4725.54
433.72	4842.57
433.91	4784.06
434.10	5029.81
434.28	4985.34
434.47	5064.92
434.66	5069.60
434.85	5118.75
435.03	5172.58
435.22	5046.20
435.41	5247.48
435.59	5317.70
435.78	5291.95
435.97	5310.68
436.16	5352.81
436.34	5282.59
436.53	5359.83
436.72	5549.41
436.90	5350.46
437.09	5483.88
437.28	5303.65
437.46	5444.09
437.65	5303.65
437.84	5394.93
438.02	5446.43
438.21	5401.96
438.40	5444.09
438.58	5610.26
438.77	5706.23
438.96	5743.67
439.14	5809.21
439.33	5771.76
439.52	5858.36
439.70	5832.62
439.89	5870.06
440.08	6045.60
440.26	5996.45
440.45	5832.62
440.63	6113.48
440.82	6181.35
441.01	6207.10
441.19	6377.96
441.38	6499.67
441.57	6286.68
441.75	6406.05
441.94	6434.13
442.12	6504.35
442.31	6520.73
442.50	6469.24
442.68	6548.82
442.87	6621.38
443.05	6553.50
443.24	6621.38
443.43	6754.79
443.61	6715.00
443.80	6841.39
443.98	6520.73
444.17	6420.09
444.35	6810.96
444.54	6850.75
444.73	6874.15
444.91	6740.74
445.10	6665.85
445.28	6696.27
445.47	6635.42
445.65	6757.13
445.84	6864.79
446.02	6862.45
446.21	6792.23
446.39	6768.83
446.58	6937.35
446.77	6761.81
446.95	6878.83
447.14	6916.28
447.32	7239.28
447.51	6899.90
447.69	6871.81
447.88	7145.66
448.06	7026.29
448.25	7009.90
448.43	7061.40
448.62	7035.65
448.80	7037.99
448.99	7030.97
449.17	7108.21
449.36	7096.50
449.54	7045.01
449.73	7393.75
449.91	7428.86
450.10	7564.61
450.28	7733.13
450.46	7602.06
450.65	7623.12
450.83	7419.50
451.02	7499.08
451.20	7653.55
451.39	7681.64
451.57	7595.04
451.76	7360.98
451.94	7529.50
452.13	7634.83
452.31	7485.03
452.49	7470.99
452.68	7508.44
452.86	7578.65
453.05	7590.36
453.23	7751.85
453.42	7468.65
453.60	7691.00
453.78	7742.49
453.97	7616.10
454.15	7845.48
454.34	7770.58
454.52	7918.03
454.70	7723.77
454.89	7789.30
455.07	7829.09
455.26	7801.01
455.44	8025.70
455.62	8032.72
455.81	8067.83
455.99	8021.02
456.17	8156.77
456.36	8269.11
456.54	8390.82
456.73	8376.78
456.91	8484.44
457.09	8388.48
457.28	8578.06
457.46	8273.79
457.64	8432.95
457.83	8318.26
458.01	8365.07
458.19	8411.89
458.38	8409.54
458.56	8458.70
458.74	8631.90
458.93	8428.27
459.11	8645.94
459.29	8510.19
459.48	8489.12
459.66	8470.40
459.84	8702.11
460.03	9043.83
460.21	8720.84
460.39	8999.36
460.57	8849.57
460.76	9013.40
460.94	8997.02
461.12	9144.47
461.31	9130.43
461.49	9062.55
461.67	9041.49
461.85	9280.22
462.04	9050.85
462.22	9446.40
462.40	9294.27
462.59	9312.99
462.77	9226.39
462.95	9095.32
463.13	9184.26
463.32	9488.53
463.50	9437.04
463.68	9371.50
463.86	9329.38
464.05	9338.74
464.23	9390.23
464.41	9458.10
464.59	9242.78
464.78	9446.40
464.96	9444.06
465.14	9521.30
465.32	9633.64
465.50	9696.84
465.69	9678.12
465.87	9696.84
466.05	9741.31
466.23	9413.63
466.41	9668.75
466.60	9781.10
466.78	9504.92
466.96	9528.32
467.14	9533.00
467.32	9783.44
467.51	10031.54
467.69	9413.63
467.87	9764.72
468.05	9970.68
468.23	9921.53
468.41	9928.55
468.60	9872.38
468.78	10115.80
468.96	10071.33
469.14	10111.11
469.32	9956.64
469.50	9750.67
469.69	10033.88
469.87	10068.98
470.05	10216.44
470.23	10274.95
470.41	10097.07
470.59	10085.37
470.77	10380.28
470.95	10349.85
471.14	10663.48
471.32	10207.08
471.50	10614.33
471.68	10483.26
471.86	10785.19
472.04	11030.94
472.22	11136.27
472.40	10677.52
472.58	10813.28
472.77	10970.09
472.95	10986.47
473.13	11470.97
473.31	10729.02
473.49	10775.83
473.67	11044.99
473.85	11073.07
474.03	11501.39
474.21	11473.31
474.39	11545.86
474.57	11609.06
474.75	11426.50
474.93	11714.38
475.12	11595.01
475.30	11606.72
475.48	11822.05
475.66	11618.42
475.84	11695.66
476.02	12058.44
476.20	11864.18
476.38	12126.32
476.56	12381.43
476.74	12348.67
476.92	12353.35
477.10	12187.17
477.28	12498.46
477.46	12538.25
477.64	12816.77
477.82	12798.05
478.00	13268.50
478.18	13067.21
478.36	13027.42
478.54	13209.98
478.72	13254.45
478.90	13261.48
479.08	13493.19
479.26	13570.43
479.44	13640.64
479.62	13635.96
479.80	13865.33
479.98	13965.98
480.16	14361.53
480.34	13942.57
480.52	14291.31
480.70	14171.94
480.88	14106.41
481.06	14328.76
481.24	14352.16
481.41	14941.98
481.59	15002.83
481.77	14883.47
481.95	15159.65
482.13	15236.89
482.31	15073.05
482.49	15414.77
482.67	15426.47
482.85	15695.63
483.03	15524.77
483.21	15845.43
483.39	16058.42
483.57	15833.72
483.74	16170.76
483.92	16287.79
484.10	16301.83
484.28	16484.39
484.46	16252.68
484.64	16915.05
484.82	16493.76
485.00	16690.36
485.18	17099.95
485.35	17266.13
485.53	16678.66
485.71	16552.27
485.89	16858.88
486.07	16821.43
486.25	17205.28
486.43	17659.34
486.61	17954.25
486.78	17937.87
486.96	17921.48
487.14	18398.95
487.32	18314.69
487.50	18747.69
487.68	18937.27
487.85	19176.01
488.03	19166.65
488.21	19309.42
488.39	19248.57
488.57	19349.21
488.75	19908.60
488.92	19852.42
489.10	20201.16
489.28	20182.44
489.46	20301.81
489.64	20592.03
489.81	20828.43
489.99	20966.52
490.17	21003.97
490.35	21310.58
490.53	21109.29
490.70	21205.25
490.88	21200.57
491.06	21521.23
491.24	21556.33
491.41	21341.00
491.59	21474.42
491.77	21373.77
491.95	22115.72
492.13	22085.30
492.30	22443.40
492.48	22541.70
492.66	22600.21
492.84	22869.37
493.01	22916.19
493.19	22761.71
493.37	22773.41
493.54	22993.42
493.72	23330.46
493.90	23583.24
494.08	23613.66
494.25	23723.67
494.43	24264.33
494.61	24364.98
494.79	24322.85
494.96	24437.53
495.14	24308.80
495.32	24528.81
495.49	24435.19
495.67	25027.35
495.85	24957.13
496.02	25385.45
496.20	24924.36
496.38	25254.38
496.55	25607.80
496.73	25949.52
496.91	25689.72
497.09	25900.37
497.26	26085.27
497.44	25748.23
497.62	25975.27
497.79	26122.72
497.97	26263.15
498.14	26396.56
498.32	26576.78
498.50	26506.57
498.67	27234.47
498.85	27185.32
499.03	27269.58
499.20	27005.10
499.38	27105.74
499.56	27220.43
499.73	27288.31
499.91	27590.24
500.08	27517.68
500.26	27182.98
500.44	27323.41
500.61	27744.71
500.79	27304.69
500.97	27803.22
501.14	27854.72
501.32	28374.31
501.49	27938.97
501.67	27716.62
501.84	28414.10
502.02	28072.39
502.20	28758.16
502.37	28914.98
502.55	28788.59
502.72	28748.80
502.90	28914.98
503.07	28856.46
503.25	29085.84
503.43	29099.88
503.60	28800.29
503.78	29134.99
503.95	28992.22
504.13	29392.45
504.30	29668.63
504.48	29560.97
504.65	29949.50
504.83	30080.56
505.01	30284.19
505.18	30408.24
505.36	30565.06
505.53	30621.23
505.71	30717.19
505.88	30808.47
506.06	30148.44
506.23	30150.78
506.41	30485.48
506.58	31005.08
506.76	30911.46
506.93	31201.68
507.11	30696.13
507.28	30934.86
507.46	30649.32
507.63	30974.65
507.81	31040.18
507.98	30991.03
508.16	30904.43
508.33	31386.58
508.50	31590.21
508.68	31639.36
508.85	32315.78
509.03	31936.61
509.20	31992.78
509.38	32388.33
509.55	32109.81
509.73	32404.72
509.90	32577.92
510.08	32603.66
510.25	32378.97
510.42	32779.20
510.60	32952.40
510.77	32627.07
510.95	33242.63
511.12	33223.90
511.30	32933.68
511.47	33371.36
511.64	33574.98
511.82	33708.40
511.99	33530.51
512.17	33165.39
512.34	33237.95
512.51	33376.04
512.69	33830.10
512.86	33514.13
513.04	33841.81
513.21	34073.52
513.38	33654.56
513.56	33734.14
513.73	33488.38
513.90	34073.52
514.08	34031.39
514.25	34017.35
514.43	34176.50
514.60	34230.33
514.77	33972.88
514.95	34511.20
515.12	34635.25
515.29	34820.15
515.47	34829.51
515.64	34881.00
515.81	34670.36
515.99	34773.34
516.16	34752.27
516.33	34707.80
516.51	34642.27
516.68	34361.40
516.85	34590.78
517.03	34653.97
517.20	35168.89
517.37	35189.95
517.54	35515.29
517.72	35086.97
517.89	35068.25
518.06	34698.44
518.24	34806.11
518.41	35459.12
518.58	35484.86
518.75	35576.14
518.93	35849.99
519.10	35683.81
519.27	36449.16
519.45	36224.47
519.62	36172.98
519.79	36732.37
519.96	36231.49
520.14	36622.36
520.31	36273.62
520.48	36910.25
520.65	36601.30
520.83	36669.17
521.00	36891.52
521.17	37371.33
521.34	37090.47
521.52	37172.39
521.69	37336.23
521.86	37488.36
522.03	37464.96
522.20	37392.40
522.38	37284.73
522.55	36884.50
522.72	37392.40
522.89	37715.39
523.07	37755.18
523.24	37731.78
523.41	38153.07
523.58	38080.52
523.75	38321.59
523.92	38375.42
524.10	38600.12
524.27	38553.30
524.44	38218.61
524.61	38770.97
524.78	38710.12
524.96	38242.01
525.13	38529.90
525.30	38850.55
525.47	38721.82
525.64	38670.33
525.81	38845.87
525.98	38410.53
526.16	38148.39
526.33	38483.09
526.50	38560.33
526.67	38611.82
526.84	38471.39
527.01	38569.69
527.18	38696.08
527.36	39278.87
527.53	39440.37
527.70	39653.36
527.87	39421.64
528.04	39620.59
528.21	39395.90
528.38	39559.73
528.55	39814.85
528.72	39934.22
528.89	40350.84
529.07	40018.48
529.24	39489.52
529.41	40105.08
529.58	39714.21
529.75	39693.15
529.92	40051.25
530.09	39821.87
530.26	39866.34
530.43	40390.62
530.60	40074.65
530.77	40545.10
530.94	40673.83
531.11	40547.44
531.28	40788.52
531.46	40629.36
531.63	40919.59
531.80	40741.71
531.97	40325.09
532.14	40233.81
532.31	39988.05
532.48	40397.65
532.65	41336.20
532.82	40179.98
532.99	40650.42
533.16	40479.57
533.33	41034.27
533.50	41399.40
533.67	41109.17
533.84	41053.00
534.01	41230.88
534.18	41125.55
534.35	41588.98
534.52	40809.58
534.69	41305.77
534.86	41610.04
535.03	41251.94
535.20	42010.28
535.37	42005.59
535.54	42256.03
535.71	41776.22
535.88	42192.84
536.05	41535.15
536.22	41750.48
536.38	41956.44
536.55	41935.38
536.72	42335.61
536.89	41120.87
537.06	42143.69
537.23	42092.19
537.40	42202.20
537.57	42546.26
537.74	42401.14
537.91	42646.90
538.08	42375.40
538.25	41921.34
538.42	42417.53
538.59	42127.30
538.75	41738.77
538.92	42321.57
539.09	42307.52
539.26	42099.22
539.43	42284.12
539.60	42333.27
539.77	42534.56
539.94	42241.99
540.11	42356.67
540.28	42342.63
540.44	42726.48
540.61	42541.58
540.78	42579.03
540.95	42635.20
541.12	42731.16
541.29	42707.76
541.46	42986.28
541.62	42932.45
541.79	42937.13
541.96	42836.48
542.13	42649.24
542.30	43119.69
542.47	43185.22
542.63	42941.81
542.80	43299.91
542.97	43475.45
543.14	43278.85
543.31	43739.93
543.48	43964.62
543.64	44376.56
543.81	44229.10
543.98	44137.82
544.15	43913.13
544.32	44018.46
544.48	43880.36
544.65	44083.99
544.82	44229.10
544.99	43557.37
545.16	44093.35
545.32	43873.34
545.49	44130.80
545.66	44891.48
545.83	44512.31
546.00	44484.22
546.16	44388.26
546.33	44013.77
546.50	44091.01
546.67	44048.88
546.83	43929.51
547.00	44128.46
547.17	44018.46
547.34	44105.06
547.50	44395.28
547.67	44891.48
547.84	44636.36
548.00	44596.57
548.17	44886.79
548.34	44687.85
548.51	44975.73
548.67	44966.37
548.84	44996.80
549.01	44121.44
549.18	44683.17
549.34	44854.03
549.51	44804.88
549.68	45130.21
549.84	45209.79
550.01	45319.79
550.18	44626.99
550.34	44886.79
550.51	44973.39
550.68	44811.90
550.84	44666.78
551.01	45188.72
551.18	45177.02
551.34	45441.50
551.51	45272.98
551.68	45415.76
551.84	45277.66
552.01	44945.31
552.18	44940.63
552.34	44722.96
552.51	45125.53
552.68	45425.12
552.84	45099.78
553.01	45368.94
553.18	45399.37
553.34	45008.50
553.51	45691.94
553.67	45780.88
553.84	45893.22
554.01	45806.62
554.17	46176.43
554.34	45860.46
554.51	45724.71
554.67	45996.21
554.84	45937.69
555.00	45713.00
555.17	45603.00
555.33	45867.48
555.50	45815.99
555.67	45771.52
555.83	45670.87
556.00	45893.22
556.16	46057.06
556.33	45771.52
556.50	45954.08
556.66	45570.23
556.83	45570.23
556.99	46256.01
557.16	45727.05
557.32	45872.16
557.49	46209.20
557.65	45717.68
557.82	46110.89
557.98	46241.96
558.15	46068.76
558.32	45923.65
558.48	46005.57
558.65	45764.49
558.81	45717.68
558.98	46078.13
559.14	46040.68
559.31	45886.20
559.47	46405.80
559.64	46333.24
559.80	46223.24
559.97	46546.23
560.13	46129.62
560.30	46291.12
560.46	46267.71
560.63	46426.87
560.79	46483.04
560.96	46649.22
561.12	46216.22
561.29	45979.82
561.45	46218.56
561.61	46227.92
561.78	46607.09
561.94	46050.04
562.11	46138.98
562.27	46307.50
562.44	46787.31
562.60	46672.62
562.77	46897.31
562.93	46358.99
563.10	46506.44
563.26	46286.43
563.42	46536.87
563.59	46281.75
563.75	46539.21
563.92	46550.91
564.08	46469.00
564.24	46749.86
564.41	46574.32
564.57	46597.73
564.74	46178.77
564.90	46733.48
565.07	46796.67
565.23	46749.86
565.39	46248.99
565.56	46834.12
565.72	46043.02
565.88	46518.15
566.05	46562.62
566.21	46607.09
566.38	46522.83
566.54	46677.30
566.70	46717.09
566.87	46724.11
567.03	47157.11
567.19	47175.84
567.36	46946.47
567.52	46557.94
567.68	46941.78
567.85	46466.66
568.01	47023.70
568.17	47061.15
568.34	46866.89
568.50	46553.26
568.66	46628.15
568.83	46731.14
568.99	46700.71
569.15	47019.02
569.32	46469.00
569.48	46969.87
569.64	47161.79
569.81	46831.78
569.97	46499.42
570.13	46621.13
570.30	46478.36
570.46	46836.46
570.62	46213.88
570.78	46808.37
570.95	46148.34
571.11	46951.15
571.27	46775.61
571.43	46775.61
571.60	46539.21
571.76	47002.64
571.92	47194.56
572.09	47182.86
572.25	46834.12
572.41	46955.83
572.57	47147.75
572.74	46932.42
572.90	46698.37
573.06	46873.91
573.22	46653.90
573.38	46799.01
573.55	46696.03
573.71	47079.88
573.87	47084.56
574.03	46719.43
574.20	46644.54
574.36	47030.72
574.52	46686.67
574.68	47012.00
574.84	47173.50
575.01	47117.32
575.17	46450.27
575.33	46653.90
575.49	46836.46
575.65	47072.85
575.82	46955.83
575.98	46770.93
576.14	47320.95
576.30	47246.05
576.46	46663.26
576.62	46852.84
576.79	46829.44
576.95	46429.21
577.11	47093.92
577.27	47239.03
577.43	46850.50
577.59	46738.16
577.75	46799.01
577.92	46485.38
578.08	46457.29
578.24	46773.27
578.40	46794.33
578.56	46894.97
578.72	46965.19
578.88	47161.79
579.04	46948.81
579.21	47089.24
579.37	46642.20
579.53	47117.32
579.69	46611.77
579.85	46752.20
580.01	47030.72
580.17	46878.59
580.33	47395.85
580.49	47026.04
580.65	47009.66
580.82	46770.93
580.98	46520.49
581.14	46314.52
581.30	47278.82
581.46	47119.66
581.62	47143.07
581.78	46581.34
581.94	47332.65
582.10	47117.32
582.26	47323.29
582.42	47248.39
582.58	47243.71
582.74	47433.30
582.90	47180.52
583.06	47267.12
583.22	47220.31
583.38	47320.95
583.54	47292.86
583.70	47147.75
583.86	47323.29
584.02	46775.61
584.18	47199.24
584.34	46986.25
584.50	47234.35
584.66	47023.70
584.82	46560.28
584.98	47653.31
585.14	46913.70
585.30	46801.35
585.46	46894.97
585.62	47035.41
585.78	47133.71
585.94	46747.52
586.10	46677.30
586.26	46831.78
586.42	47494.15
586.58	47395.85
586.74	47154.77
586.90	46920.72
587.06	46946.47
587.22	47079.88
587.38	46988.60
587.54	47203.92
587.70	47466.06
587.86	46969.87
588.02	47185.20
588.18	47281.16
588.34	46644.54
588.49	46787.31
588.65	46258.35
588.81	46293.46
588.97	46574.32
589.13	46426.87
589.29	47187.54
589.45	46607.09
589.61	46857.52
589.77	47327.97
589.93	46808.37
590.08	47318.61
590.24	47496.49
590.40	47168.82
590.56	47313.93
590.72	47285.84
590.88	46717.09
591.04	47318.61
591.20	47234.35
591.35	47470.75
591.51	47742.25
591.67	46988.60
591.83	47044.77
591.99	47302.23
592.15	46593.04
592.31	46979.23
592.46	47105.62
592.62	47519.90
592.78	47117.32
592.94	47271.80
593.10	47030.72
593.26	47480.11
593.41	47119.66
593.57	47267.12
593.73	47145.41
593.89	47065.83
594.05	47105.62
594.20	47103.28
594.36	47402.87
594.52	47058.81
594.68	47124.35
594.84	46974.55
594.99	47311.59
595.15	47070.51
595.31	47054.13
595.47	47040.09
595.62	46993.28
595.78	47159.45
595.94	47384.15
596.10	47262.44
596.25	47194.56
596.41	47241.37
596.57	47119.66
596.73	47171.16
596.88	46960.51
597.04	47133.71
597.20	47236.69
597.36	46932.42
597.51	47566.71
597.67	47498.83
597.83	47210.95
597.99	47625.22
598.14	46995.62
598.30	47040.09
598.46	47164.14
598.61	47112.64
598.77	46644.54
598.93	47180.52
599.09	47491.81
599.24	47735.23
599.40	47529.26
599.56	47189.88
599.71	47178.18
599.87	47309.25
600.03	47122.01
600.18	47159.45
600.34	46953.49
600.50	47126.69
600.65	46913.70
600.81	47285.84
600.97	47381.80
601.12	47489.47
601.28	47091.58
601.44	46930.08
601.59	47035.41
601.75	47365.42
601.91	47026.04
602.06	47227.33
602.22	47152.43
602.37	47077.54
602.53	47157.11
602.69	47248.39
602.84	46944.12
603.00	46719.43
603.16	47264.78
603.31	47276.48
603.47	47199.24
603.62	47091.58
603.78	46925.40
603.94	47330.31
604.09	47035.41
604.25	47096.26
604.40	46827.10
604.56	47262.44
604.71	47112.64
604.87	47047.11
605.03	46373.03
605.18	47093.92
605.34	47175.84
605.49	46827.10
605.65	46932.42
605.80	46667.94
605.96	47065.83
606.12	46932.42
606.27	47295.21
606.43	46705.39
606.58	47192.22
606.74	47002.64
606.89	46541.55
607.05	46986.25
607.20	46876.25
607.36	47056.47
607.51	47019.02
607.67	46927.74
607.82	47004.98
607.98	46721.77
608.13	46471.34
608.29	46347.29
608.44	46485.38
608.60	46216.22
608.75	46639.86
608.91	47196.90
609.06	46684.33
609.22	46681.98
609.37	46190.47
609.53	46700.71
609.68	46649.22
609.84	46719.43
609.99	46431.55
610.15	46761.56
610.30	46857.52
610.46	46321.54
610.61	46024.29
610.76	46822.42
610.92	46546.23
611.07	46770.93
611.23	46351.97
611.38	46314.52
611.54	46391.76
611.69	46237.28
611.84	46036.00
612.00	46019.61
612.15	45778.54
612.31	46426.87
612.46	45759.81
612.62	46391.76
612.77	46241.96
612.92	46464.32
613.08	45862.80
613.23	45996.21
613.39	45638.11
613.54	45925.99
613.69	46461.97
613.85	45808.96
614.00	45886.20
614.15	46131.96
614.31	46178.77
614.46	46066.42
614.62	46064.08
614.77	46375.37
614.92	45523.42
615.08	46059.40
615.23	45773.86
615.38	45982.16
615.54	46003.23
615.69	45443.84
615.84	45855.78
616.00	46131.96
616.15	45773.86
616.30	45574.91
616.46	45441.50
616.61	45375.97
616.76	45617.04
616.92	45275.32
617.07	45282.34
617.22	45240.21
617.37	45289.37
617.53	45942.38
617.68	45804.28
617.83	46080.47
617.99	45556.19
618.14	45024.89
618.29	45123.19
618.45	44924.24
618.60	44942.97
618.75	44985.10
618.90	44942.97
619.06	44980.42
619.21	45607.68
619.36	45603.00
619.51	45226.17
619.67	44931.26
619.82	45092.76
619.97	45078.72
620.12	45055.31
620.28	44987.44
620.43	44975.73
620.58	45134.89
620.73	44886.79
620.89	44985.10
621.04	44980.42
621.19	45057.65
621.34	44797.85
621.49	44435.07
621.65	44891.48
621.80	44896.16
621.95	44765.09
622.10	44971.05
622.25	44444.43
622.41	44301.66
622.56	44701.89
622.71	44758.06
622.86	44622.31
623.01	44629.34
623.16	44711.25
623.32	44395.28
623.47	44622.31
623.62	44311.02
623.77	44446.77
623.92	44634.02
624.07	44074.63
624.23	44322.72
624.38	44091.01
624.53	44271.23
624.68	44299.32
624.83	44147.18
624.98	44318.04
625.13	43852.28
625.29	43835.89
625.44	44243.15
625.59	43608.86
625.74	43665.03
625.89	43634.61
626.04	43641.63
626.19	43711.84
626.34	43779.72
626.49	43945.90
626.65	43622.90
626.80	43812.49
626.95	43508.22
627.10	43512.90
627.25	43634.61
627.40	43358.42
627.55	43438.00
627.70	43229.69
627.85	43316.29
628.00	43519.92
628.15	43615.88
628.30	43419.28
628.45	43686.10
628.60	43407.58
628.76	43634.61
628.91	43416.94
629.06	43023.73
629.21	43246.08
629.36	42843.51
629.51	42878.61
629.66	42981.60
629.81	43068.20
629.96	42986.28
630.11	42761.59
630.26	43126.71
630.41	43019.05
630.56	42988.62
630.71	43005.00
630.86	43147.78
631.01	42445.62
631.16	43248.42
631.31	42719.46
631.46	42499.45
631.61	42792.01
631.76	42665.63
631.91	42707.76
632.06	42852.87
632.21	42740.52
632.36	42794.36
632.51	42749.88
632.66	42499.45
632.81	42127.30
632.96	42742.86
633.10	42408.17
633.25	42763.93
633.40	42546.26
633.55	42731.16
633.70	42651.58
633.85	42614.13
634.00	42312.20
634.15	42653.92
634.30	42700.73
634.45	42513.49
634.60	42368.38
634.75	42263.05
634.90	42239.65
635.05	42424.55
635.19	41834.74
635.34	42520.51
635.49	42274.76
635.64	42101.56
635.79	41947.08
635.94	42195.18
636.09	41991.55
636.24	42087.51
636.39	41715.37
636.53	41937.72
636.68	42279.44
636.83	42019.64
636.98	42054.75
637.13	41991.55
637.28	42108.58
637.43	42127.30
637.57	42157.73
637.72	41563.23
637.87	41656.85
638.02	41895.59
638.17	41626.43
638.32	41591.32
638.46	41881.55
638.61	41790.27
638.76	41652.17
638.91	42033.68
639.06	41549.19
639.20	41490.68
639.35	41708.35
639.50	41488.34
639.65	41247.26
639.80	41296.41
639.94	41081.08
640.09	41097.47
640.24	41319.82
640.39	40945.33
640.54	41207.47
640.68	41350.24
640.83	41525.78
640.98	41378.33
641.13	40987.46
641.27	41340.88
641.42	40840.01
641.57	41134.92
641.72	40776.81
641.86	40793.20
642.01	40474.88
642.16	40921.93
642.31	40278.28
642.45	41015.55
642.60	40676.17
642.75	40669.15
642.90	40875.12
643.04	40648.08
643.19	40795.54
643.34	40364.88
643.48	40907.88
643.63	40753.41
643.78	40456.16
643.93	40732.34
644.07	40807.24
644.22	40395.31
644.37	40187.00
644.51	40456.16
644.66	40376.58
644.81	40154.23
644.95	40896.18
645.10	40444.46
645.25	40718.30
645.39	40126.14
645.54	40727.66
645.69	40105.08
645.83	40149.55
645.98	40526.38
646.13	39882.73
646.27	40250.19
646.42	39889.75
646.57	39651.02
646.71	39576.12
646.86	40130.83
647.00	40247.85
647.15	40051.25
647.30	40402.33
647.44	39742.30
647.59	40226.79
647.74	40072.31
647.88	39929.54
648.03	39770.38
648.17	39627.61
648.32	39826.56
648.47	39702.51
648.61	39763.36
648.76	40044.23
648.90	39641.65
649.05	39969.33
649.20	39798.47
649.34	39852.30
649.49	39187.59
649.63	39353.77
649.78	39634.63
649.92	39854.64
650.07	39789.11
650.21	39454.41
650.36	39524.63
650.51	39749.32
650.65	40100.40
650.80	39501.22
650.94	39707.19
651.09	39643.99
651.23	39234.40
651.38	39159.50
651.52	38763.95
651.67	39122.05
651.81	38871.62
651.96	39007.37
652.10	38871.62
652.25	39019.07
652.39	39033.11
652.54	39337.38
652.68	39192.27
652.83	39398.24
652.97	39278.87
653.12	38941.83
653.26	38803.74
653.41	39009.71
653.55	38792.04
653.70	38686.71
653.84	39154.82
653.99	38923.11
654.13	38501.81
654.27	38927.79
654.42	38216.27
654.56	38424.57
654.71	38948.85
654.85	38497.13
655.00	38775.66
655.14	38312.23
655.29	38602.46
655.43	38087.54
655.57	38249.03
655.72	38218.61
655.86	37977.53
656.01	37727.10
656.15	37907.32
656.30	37837.10
656.44	37745.82
656.58	37916.68
656.73	38202.22
656.87	37961.15
657.01	37914.34
657.16	38209.25
657.30	37509.43
657.45	37544.53
657.59	37771.57
657.73	37422.83
657.88	38211.59
658.02	38375.42
658.16	38199.88
658.31	37881.57
658.45	38244.35
658.60	38036.05
658.74	37902.64
658.88	37809.01
659.03	37450.91
659.17	37507.08
659.31	37481.34
659.46	37118.56
659.60	37493.04
659.74	37500.06
659.89	37574.96
660.03	37214.52
660.17	37345.59
660.32	37322.18
660.46	37649.86
660.60	37626.45
660.74	37340.91
660.89	37600.71
661.03	36856.42
661.17	37141.96
661.32	36615.34
661.46	37024.93
661.60	36676.19
661.74	37062.38
661.89	36837.69
662.03	36723.01
662.17	36505.34
662.31	36357.88
662.46	36868.12
662.60	36491.29
662.74	36664.49
662.88	36301.71
663.03	36222.13
663.17	36217.45
663.31	36336.82
663.45	36278.30
663.60	36449.16
663.74	36194.04
663.88	35943.61
664.02	35842.96
664.17	36336.82
664.31	35812.54
664.45	35438.05
664.59	35672.10
664.73	35728.28
664.88	35945.95
665.02	35803.17
665.16	35704.87
665.30	35346.77
665.44	35145.48
665.59	35150.17
665.73	35019.10
665.87	35456.78
666.01	35346.77
666.15	35529.33
666.29	34991.01
666.44	35440.39
666.58	34890.37
666.72	35077.61
666.86	35213.36
667.00	35372.52
667.14	34679.72
667.28	34925.47
667.43	34796.74
667.57	35000.37
667.71	34731.21
667.85	34618.86
667.99	34735.89
668.13	34771.00
668.27	34689.08
668.41	34930.16
668.56	34459.71
668.70	34595.46
668.84	33926.07
668.98	33886.28
669.12	34110.97
669.26	34246.72
669.40	33790.31
669.54	33893.30
669.68	34125.01
669.82	33743.50
669.96	33450.94
670.10	33570.30
670.25	33301.14
670.39	33205.18
670.53	33212.20
670.67	33687.33
670.81	33565.62
670.95	33605.41
671.09	33544.56
671.23	33256.67
671.37	33113.90
671.51	33172.41
671.65	32414.08
671.79	32662.18
671.93	33116.24
672.07	32896.23
672.21	32353.23
672.35	32610.68
672.49	32919.63
672.63	32842.40
672.77	32421.10
672.91	33303.48
673.05	32034.91
673.19	32233.86
673.33	32070.02
673.47	32088.74
673.61	31990.44
673.75	31583.19
673.89	31786.82
674.03	31810.22
674.17	31885.12
674.31	31861.71
674.45	31674.47
674.59	31679.15
674.73	32013.85
674.87	31667.45
675.01	31777.45
675.15	31428.71
675.29	31271.90
675.43	30962.95
675.56	31379.56
675.70	30998.06
675.84	30796.77
675.98	30312.28
676.12	30946.56
676.26	30986.35
676.40	31122.10
676.54	31201.68
676.68	31281.26
676.82	30321.64
676.96	30338.02
677.10	30244.40
677.23	30075.88
677.37	29977.58
677.51	29858.21
677.65	30246.74
677.79	29439.26
677.93	29621.82
678.07	29493.09
678.21	29008.60
678.34	29280.10
678.48	29039.03
678.62	29223.93
678.76	29090.52
678.90	28779.23
679.04	28833.06
679.18	28636.45
679.31	28589.64
679.45	28643.48
679.59	28306.44
679.73	28556.88
679.87	28367.29
680.00	28381.34
680.14	28320.48
680.28	28268.99
680.42	28044.30
680.56	27798.54
680.70	27878.12
680.83	28163.67
680.97	27810.25
681.11	28048.98
681.25	27733.01
681.39	27686.20
681.52	27655.77
681.66	27316.39
681.80	27498.95
681.94	27227.45
682.07	27475.55
682.21	27089.36
682.35	26817.86
682.49	26984.04
682.62	27122.13
682.76	26459.76
682.90	26356.77
683.04	26579.12
683.17	26324.01
683.31	26195.28
683.45	26092.29
683.59	25717.81
683.72	26204.64
683.86	26305.28
684.00	26141.44
684.13	25949.52
684.27	25631.21
684.41	25717.81
684.55	25584.40
684.68	25607.80
684.82	25387.79
684.96	25752.91
685.09	25291.83
685.23	25025.01
685.37	24982.88
685.50	25268.42
685.64	24863.51
685.78	24584.99
685.91	25013.31
686.05	24231.57
686.19	24524.13
686.32	24519.45
686.46	23566.85
686.60	23943.68
686.73	23695.58
686.87	23506.00
687.01	23342.16
687.14	23634.73
687.28	23281.31
687.42	23433.44
687.55	23047.26
687.69	23194.71
687.82	22951.29
687.96	23419.40
688.10	23089.38
688.23	22955.97
688.37	22768.73
688.50	22691.49
688.64	22803.84
688.78	22717.24
688.91	22401.27
689.05	22621.28
689.18	22263.18
689.32	22513.61
689.46	22410.63
689.59	22359.14
689.73	22668.09
689.86	22328.71
690.00	21710.81
690.13	22125.08
690.27	22132.11
690.41	21668.68
690.54	21652.30
690.68	21465.05
690.81	21624.21
690.95	21509.52
691.08	21341.00
691.22	21399.52
691.35	21493.14
691.49	21659.32
691.62	21130.36
691.76	21095.25
691.89	21067.16
692.03	20987.58
692.16	20898.64
692.30	20798.00
692.43	20418.83
692.57	20577.99
692.70	20587.35
692.84	20065.41
692.97	20203.50
693.11	19964.77
693.24	19836.04
693.38	20004.56
693.51	20065.41
693.65	20219.89
693.78	20046.69
693.92	19639.44
694.05	19726.04
694.19	19772.85
694.32	19372.61
694.45	19569.22
694.59	19255.59
694.72	19232.18
694.86	19232.18
694.99	18902.17
695.13	19136.22
695.26	19012.17
695.39	18611.94
695.53	19222.82
695.66	19044.94
695.80	18895.14
695.93	18766.42
696.07	18836.63
696.20	18780.46
696.33	18555.77
696.47	18422.36
696.60	18246.82
696.73	18148.51
696.87	17827.86
697.00	18045.53
697.14	17785.73
697.27	17841.90
697.40	18115.75
697.54	17678.07
697.67	17767.01
697.80	17364.43
697.94	17191.23
698.07	17165.49
698.21	17076.55
698.34	17060.16
698.47	17121.02
698.61	17212.30
698.74	16940.80
698.87	16938.46
699.01	17062.51
699.14	16910.37
699.27	16676.32
699.40	16482.05
699.54	16449.28
699.67	16346.30
699.80	16271.40
699.94	16315.87
700.07	16404.81
700.20	16210.55
700.34	16070.12
700.47	16287.79
700.60	16219.91
700.73	16121.61
700.87	15824.36
701.00	15854.79
701.13	15789.25
701.26	15583.29
701.40	15779.89
701.53	15496.69
701.66	15290.72
701.79	15246.25
701.93	15288.38
702.06	15084.75
702.19	14960.70
702.32	14939.64
702.46	15178.37
702.59	15173.69
702.72	15112.84
702.85	14672.82
702.99	14981.77
703.12	14808.57
703.25	14611.96
703.38	14642.39
703.51	14420.04
703.65	14501.96
703.78	14321.74
703.91	14338.12
704.04	14354.51
704.17	14431.74
704.31	14019.81
704.44	14293.65
704.57	13781.07
704.70	13900.44
704.83	14024.49
704.96	13855.97
705.10	13867.67
705.23	13902.78
>>>>>End Processed Spectral Data<<<<<
