SpectraSuite Data File
++++++++++++++++++++++++++++++++++++
Date: Fri Oct 25 11:33:32 EDT 2013
User: price-jones
Dark Spectrum Present: No
Reference Spectrum Present: No
Number of Sampled Component Spectra: 1
Spectrometers: USB2+H05261
Integration Time (usec): 100000 (USB2+H05261)
Spectra Averaged: 1 (USB2+H05261)
Boxcar Smoothing: 0 (USB2+H05261)
Correct for Electrical Dark: No (USB2+H05261)
Strobe/Lamp Enabled: No (USB2+H05261)
Correct for Detector Non-linearity: No (USB2+H05261)
Correct for Stray Light: No (USB2+H05261)
Number of Pixels in Processed Spectrum: 2048
>>>>>Begin Processed Spectral Data<<<<<
365.73	327.68
365.92	327.68
366.12	327.68
366.32	238.73
366.52	152.13
366.72	177.88
366.91	208.31
367.11	163.84
367.31	201.29
367.51	229.37
367.70	177.88
367.90	175.54
368.10	227.03
368.30	149.79
368.49	142.77
368.69	269.16
368.89	154.48
369.09	187.24
369.28	241.08
369.48	205.97
369.68	248.10
369.87	313.63
370.07	215.33
370.27	250.44
370.47	360.44
370.66	442.36
370.86	533.64
371.06	528.96
371.25	538.32
371.45	484.49
371.65	578.11
371.84	554.71
372.04	514.92
372.24	524.28
372.44	510.24
372.63	566.41
372.83	624.92
373.03	613.22
373.22	573.43
373.42	645.99
373.62	627.26
373.81	660.03
374.01	678.76
374.21	688.12
374.40	613.22
374.60	706.84
374.79	601.52
374.99	674.07
375.19	638.97
375.38	671.73
375.58	690.46
375.78	681.10
375.97	669.39
376.17	678.76
376.37	624.92
376.56	648.33
376.76	627.26
376.95	702.16
377.15	676.41
377.35	641.31
377.54	709.18
377.74	739.61
377.93	725.57
378.13	681.10
378.33	753.65
378.52	699.82
378.72	800.46
378.91	664.71
379.11	692.80
379.31	725.57
379.50	791.10
379.70	699.82
379.89	702.16
380.09	688.12
380.28	720.88
380.48	688.12
380.68	732.59
380.87	709.18
381.07	734.93
381.26	772.38
381.46	737.27
381.65	786.42
381.85	688.12
382.04	765.36
382.24	732.59
382.43	802.80
382.63	697.48
382.83	840.25
383.02	741.95
383.22	816.85
383.41	718.54
383.61	772.38
383.80	868.34
384.00	784.08
384.19	840.25
384.39	826.21
384.58	812.17
384.78	856.64
384.97	856.64
385.17	849.61
385.36	833.23
385.56	837.91
385.75	826.21
385.95	826.21
386.14	844.93
386.34	856.64
386.53	849.61
386.72	877.70
386.92	870.68
387.11	936.21
387.31	837.91
387.50	858.98
387.70	905.79
387.89	968.98
388.09	947.92
388.28	917.49
388.48	910.47
388.67	912.81
388.86	929.19
389.06	901.11
389.25	950.26
389.45	964.30
389.64	866.00
389.84	950.26
390.03	992.39
390.22	999.41
390.42	957.28
390.61	898.77
390.81	901.11
391.00	1039.20
391.19	1036.86
391.39	957.28
391.58	1025.15
391.78	938.55
391.97	1067.28
392.16	1006.43
392.36	994.73
392.55	1025.15
392.75	1111.75
392.94	1078.99
393.13	1029.84
393.33	1095.37
393.52	1114.10
393.71	1111.75
393.91	1088.35
394.10	1114.10
394.29	1102.39
394.49	1074.31
394.68	1062.60
394.88	1128.14
395.07	1158.57
395.26	1165.59
395.46	1212.40
395.65	1160.91
395.84	1221.76
396.04	1228.78
396.23	1090.69
396.42	1160.91
396.62	1205.38
396.81	1233.46
397.00	1256.87
397.19	1156.22
397.39	1214.74
397.58	1252.19
397.77	1196.01
397.97	1371.55
398.16	1306.02
398.35	1219.42
398.55	1315.38
398.74	1369.21
398.93	1406.66
399.12	1341.13
399.32	1327.08
399.51	1308.36
399.70	1373.89
399.90	1357.51
400.09	1235.80
400.28	1348.15
400.47	1341.13
400.67	1387.94
400.86	1369.21
401.05	1427.73
401.24	1369.21
401.44	1427.73
401.63	1451.13
401.82	1430.07
402.01	1467.52
402.21	1373.89
402.40	1533.05
402.59	1497.94
402.78	1530.71
402.97	1537.73
403.17	1537.73
403.36	1507.30
403.55	1643.06
403.74	1631.35
403.93	1678.16
404.13	1736.68
404.32	1579.86
404.51	1521.35
404.70	1654.76
404.89	1645.40
405.09	1757.74
405.28	1781.15
405.47	1781.15
405.66	1715.61
405.85	1678.16
406.05	1687.53
406.24	1710.93
406.43	1750.72
406.62	1837.32
406.81	1809.23
407.00	1717.95
407.20	1811.57
407.39	1823.28
407.58	1860.73
407.77	1802.21
407.96	1926.26
408.15	1846.68
408.34	1921.58
408.54	1884.13
408.73	1891.15
408.92	1846.68
409.11	1975.41
409.30	2010.52
409.49	1949.67
409.68	2064.35
409.87	2005.84
410.07	1982.43
410.26	1977.75
410.45	2071.37
410.64	2045.63
410.83	2113.50
411.02	2090.10
411.21	2148.61
411.40	2174.36
411.59	2249.25
411.78	2225.85
411.98	2087.76
412.17	2207.13
412.36	2256.28
412.55	2289.04
412.74	2401.39
412.93	2361.60
413.12	2230.53
413.31	2406.07
413.50	2345.22
413.69	2452.88
413.88	2497.35
414.07	2495.01
414.26	2366.28
414.45	2513.74
414.64	2415.43
414.83	2553.52
415.02	2619.06
415.22	2731.41
415.41	2586.29
415.60	2778.22
415.79	2682.25
415.98	2773.53
416.17	2757.15
416.36	2682.25
416.55	2696.30
416.74	2836.73
416.93	2773.53
417.12	2881.20
417.31	2827.37
417.50	3035.67
417.69	2906.95
417.88	3035.67
418.07	2841.41
418.26	2972.48
418.45	3000.57
418.64	2960.78
418.83	3119.93
419.02	3089.51
419.21	3122.27
419.39	3145.68
419.58	3094.19
419.77	3148.02
419.96	3199.51
420.15	3288.45
420.34	3190.15
420.53	3269.73
420.72	3311.86
420.91	3204.19
421.10	3272.07
421.29	3251.00
421.48	3192.49
421.67	3295.47
421.86	3314.20
422.05	3258.03
422.24	3281.43
422.43	3405.48
422.61	3414.84
422.80	3417.18
422.99	3433.57
423.18	3353.99
423.37	3440.59
423.56	3410.16
423.75	3398.46
423.94	3440.59
424.13	3201.85
424.32	3187.81
424.50	3487.40
424.69	3447.61
424.88	3559.95
425.07	3365.69
425.26	3412.50
425.45	3471.01
425.64	3403.14
425.83	3435.91
426.01	3494.42
426.20	3538.89
426.39	3527.19
426.58	3382.07
426.77	3435.91
426.96	3578.68
427.15	3445.27
427.33	3482.72
427.52	3478.04
427.71	3623.15
427.90	3618.47
428.09	3620.81
428.28	3730.81
428.46	3733.15
428.65	3693.37
428.84	3932.10
429.03	3578.68
429.22	3672.30
429.40	3847.84
429.59	3882.95
429.78	3693.37
429.97	3733.15
430.16	3749.54
430.34	3854.86
430.53	3880.61
430.72	3817.41
430.91	3967.21
431.10	3864.22
431.28	3929.76
431.47	4011.68
431.66	4023.38
431.85	4018.70
432.03	4074.87
432.22	4095.94
432.41	4093.60
432.60	4009.34
432.79	3995.29
432.97	4067.85
433.16	4217.65
433.35	4058.49
433.54	3976.57
433.72	4271.48
433.91	4189.56
434.10	4187.22
434.28	4109.98
434.47	4255.09
434.66	4259.78
434.85	4379.14
435.03	4287.86
435.22	4145.09
435.41	4503.19
435.59	4308.93
435.78	4369.78
435.97	4386.16
436.16	4559.36
436.34	4332.33
436.53	4437.66
436.72	4510.21
436.90	4418.93
437.09	4505.53
437.28	4404.89
437.46	4601.49
437.65	4505.53
437.84	4498.51
438.02	4432.97
438.21	4578.09
438.40	4470.42
438.58	4809.80
438.77	4903.42
438.96	4709.16
439.14	4856.61
439.33	4678.73
439.52	4840.23
439.70	4912.78
439.89	4865.97
440.08	4999.38
440.26	4985.34
440.45	5085.98
440.63	5046.20
440.82	5118.75
441.01	5184.29
441.19	5172.58
441.38	5322.38
441.57	5317.70
441.75	5284.93
441.94	5324.72
442.12	5275.57
442.31	5284.93
442.50	5446.43
442.68	5474.51
442.87	5469.83
443.05	5638.35
443.24	5540.05
443.43	5533.03
443.61	5444.09
443.80	5685.16
443.98	5460.47
444.17	5427.70
444.35	5432.38
444.54	5722.61
444.73	5659.42
444.91	5568.13
445.10	5706.23
445.28	5703.89
445.47	5554.09
445.65	5657.07
445.84	5727.29
446.02	5731.97
446.21	5738.99
446.39	5722.61
446.58	5710.91
446.77	5694.52
446.95	5600.90
447.14	5802.19
447.32	5823.25
447.51	5741.33
447.69	5706.23
447.88	5804.53
448.06	5797.51
448.25	5729.63
448.43	5865.38
448.62	5673.46
448.80	5846.66
448.99	5851.34
449.17	5914.53
449.36	5951.98
449.54	5900.49
449.73	6076.03
449.91	6024.54
450.10	5970.71
450.28	6061.99
450.46	6033.90
450.65	5977.73
450.83	6260.93
451.02	6061.99
451.20	6141.57
451.39	6211.78
451.57	6087.73
451.76	6118.16
451.94	6242.21
452.13	6394.34
452.31	6394.34
452.49	6267.95
452.68	6282.00
452.86	6291.36
453.05	6277.32
453.23	6335.83
453.42	6340.51
453.60	6368.60
453.78	6464.56
453.97	6436.47
454.15	6328.81
454.34	6279.66
454.52	6396.68
454.70	6541.80
454.89	6466.90
455.07	6707.98
455.26	6614.35
455.44	6726.70
455.62	6834.36
455.81	6569.88
455.99	6745.42
456.17	6778.19
456.36	6768.83
456.54	6876.49
456.73	6885.86
456.91	7103.53
457.09	7269.70
457.28	6979.48
457.46	6909.26
457.64	7045.01
457.83	7117.57
458.01	6927.99
458.19	7307.15
458.38	7112.89
458.56	7241.62
458.74	7157.36
458.93	7246.30
459.11	7253.32
459.29	7173.74
459.48	7208.85
459.66	7363.33
459.84	7503.76
460.03	7372.69
460.21	7370.35
460.39	7473.33
460.57	7445.24
460.76	7513.12
460.94	7644.19
461.12	7377.37
461.31	7508.44
461.49	7449.93
461.67	7417.16
461.85	7681.64
462.04	7630.15
462.22	7983.57
462.40	7925.05
462.59	7658.23
462.77	7707.38
462.95	7824.41
463.13	7735.47
463.32	7838.45
463.50	7885.26
463.68	7943.78
463.86	7824.41
464.05	7892.29
464.23	7857.18
464.41	7801.01
464.59	8109.96
464.78	8170.81
464.96	7992.93
465.14	7941.44
465.32	7997.61
465.50	8128.68
465.69	8084.21
465.87	8131.02
466.05	8198.90
466.23	8271.45
466.41	8166.13
466.60	8320.60
466.78	8175.49
466.96	8386.14
467.14	8360.39
467.32	8231.66
467.51	8526.57
467.69	7974.21
467.87	8482.10
468.05	8400.18
468.23	8404.86
468.41	8318.26
468.60	8411.89
468.78	8533.59
468.96	8491.46
469.14	8603.81
469.32	8610.83
469.50	8552.32
469.69	8659.98
469.87	8919.78
470.05	8872.97
470.23	8744.24
470.41	8847.22
470.59	8990.00
470.77	8753.60
470.95	8870.63
471.14	8975.95
471.32	8849.57
471.50	9149.15
471.68	9034.47
471.86	9046.17
472.04	9034.47
472.22	9200.65
472.40	9092.98
472.58	9357.46
472.77	9235.75
472.95	9434.70
473.13	9570.45
473.31	9500.23
473.49	9458.10
473.67	9287.25
473.85	9621.94
474.03	9671.09
474.21	9572.79
474.39	9645.35
474.57	9832.59
474.75	10104.09
474.93	10015.15
475.12	10071.33
475.30	10132.18
475.48	10038.56
475.66	9902.81
475.84	10296.02
476.02	10263.25
476.20	10232.82
476.38	10403.68
476.56	10637.73
476.74	10487.94
476.92	10654.12
477.10	10534.75
477.28	10539.43
477.46	10738.38
477.64	10817.96
477.82	11073.07
478.00	11019.24
478.18	11236.91
478.36	11255.64
478.54	11262.66
478.72	11201.80
478.90	11627.78
479.08	11571.61
479.26	11592.67
479.44	11831.41
479.62	11576.29
479.80	11737.79
479.98	11899.28
480.16	12379.09
480.34	11946.09
480.52	12358.03
480.70	12250.36
480.88	12325.26
481.06	12315.90
481.24	12456.33
481.41	12671.66
481.59	12681.02
481.77	12870.61
481.95	12879.97
482.13	13181.90
482.31	13020.40
482.49	13284.88
482.67	13451.06
482.85	13406.59
483.03	13638.30
483.21	13624.26
483.39	13757.67
483.57	13811.50
483.74	13870.01
483.92	14078.32
484.10	13958.96
484.28	14314.72
484.46	14616.65
484.64	14576.86
484.82	14623.67
485.00	14979.43
485.18	15307.10
485.35	15002.83
485.53	15035.60
485.71	15215.82
485.89	15634.78
486.07	15152.63
486.25	15250.93
486.43	15543.50
486.61	15665.21
486.78	16084.16
486.96	16100.55
487.14	16105.23
487.32	15964.79
487.50	16519.50
487.68	16568.65
487.85	16402.47
488.03	16901.01
488.21	17008.67
488.39	16994.63
488.57	17263.79
488.75	17156.13
488.92	17488.48
489.10	17614.87
489.28	17434.65
489.46	17743.60
489.64	17914.46
489.81	18216.39
489.99	18347.46
490.17	18214.05
490.35	18518.32
490.53	18806.20
490.70	18703.22
490.88	18473.85
491.06	18726.63
491.24	19066.00
491.41	19068.34
491.59	18986.43
491.77	19133.88
491.95	19370.27
492.13	19253.25
492.30	19396.02
492.48	19688.59
492.66	19901.58
492.84	19843.06
493.01	20180.10
493.19	20137.97
493.37	20505.43
493.54	20222.23
493.72	20753.53
493.90	20585.01
494.08	20978.22
494.25	21041.42
494.43	21156.10
494.61	21408.88
494.79	21252.06
494.96	21216.96
495.14	21549.31
495.32	21771.66
495.49	22040.82
495.67	21942.52
495.85	21977.63
496.02	21872.31
496.20	22527.66
496.38	22211.68
496.55	22630.64
496.73	22693.83
496.91	22742.99
497.09	23058.96
497.26	23028.53
497.44	23044.91
497.62	22876.40
497.79	23370.25
497.97	23358.55
498.14	23606.64
498.32	23545.79
498.50	23850.06
498.67	24175.39
498.85	23613.66
499.03	24170.71
499.20	24100.50
499.38	24128.58
499.56	24425.83
499.73	24737.12
499.91	24669.25
500.08	24669.25
500.26	24718.40
500.44	24868.19
500.61	24636.48
500.79	25099.90
500.97	25008.62
501.14	25317.57
501.32	25390.13
501.49	25483.75
501.67	25315.23
501.84	25502.48
502.02	25802.07
502.20	25799.73
502.37	25773.98
502.55	25771.64
502.72	26047.82
502.90	25942.50
503.07	26314.64
503.25	25986.97
503.43	26026.76
503.60	26286.56
503.78	26405.92
503.95	26162.51
504.13	26342.73
504.30	26904.46
504.48	26890.41
504.65	26651.68
504.83	26614.23
505.01	27009.78
505.18	27211.07
505.36	26911.48
505.53	27143.19
505.71	27412.35
505.88	27960.04
506.06	27365.54
506.23	27658.11
506.41	27548.11
506.58	27714.28
506.76	28264.31
506.93	28067.70
507.11	28030.26
507.28	28060.68
507.46	28144.94
507.63	28465.60
507.81	28395.38
507.98	28379.00
508.16	28276.01
508.33	28622.41
508.50	28575.60
508.68	29017.96
508.85	29415.85
509.03	29060.09
509.20	28910.30
509.38	29347.98
509.55	29340.96
509.73	29514.16
509.90	29443.94
510.08	29689.70
510.25	29584.37
510.42	29387.77
510.60	29649.91
510.77	29905.02
510.95	30323.98
511.12	29743.53
511.30	30024.39
511.47	29912.05
511.64	30125.04
511.82	30408.24
511.99	30405.90
512.17	29951.84
512.34	30391.86
512.51	31026.14
512.69	31178.28
512.86	31115.08
513.04	31278.92
513.21	31091.68
513.38	31246.15
513.56	30937.20
513.73	31311.69
513.90	31407.65
514.08	31772.77
514.25	31393.61
514.43	31026.14
514.60	31669.79
514.77	32025.55
514.95	32137.90
515.12	31850.01
515.29	31508.29
515.47	31824.26
515.64	31887.46
515.81	32091.09
515.99	32182.37
516.16	32765.16
516.33	32308.76
516.51	32587.28
516.68	32390.67
516.85	32753.46
517.03	32947.72
517.20	32725.37
517.37	32844.74
517.54	32570.90
517.72	33039.00
517.89	33198.16
518.06	32952.40
518.24	33317.53
518.41	33013.26
518.58	33378.38
518.75	33102.20
518.93	33308.16
519.10	33486.04
519.27	33383.06
519.45	33340.93
519.62	33359.66
519.79	33942.45
519.96	33886.28
520.14	34007.98
520.31	33940.11
520.48	33965.85
520.65	34342.68
520.83	34277.15
521.00	34305.23
521.17	34127.35
521.34	34658.65
521.52	34377.79
521.69	34473.75
521.86	34415.24
522.03	34799.08
522.20	34881.00
522.38	35232.08
522.55	35133.78
522.72	35421.67
522.89	35402.94
523.07	34986.33
523.24	35236.77
523.41	35627.63
523.58	35204.00
523.75	35545.72
523.92	35297.62
524.10	35283.58
524.27	35566.78
524.44	36011.48
524.61	35971.69
524.78	36545.12
524.96	35866.37
525.13	36140.21
525.30	36051.27
525.47	36259.58
525.64	36306.39
525.81	36383.63
525.98	36137.87
526.16	36416.40
526.33	36327.45
526.50	36931.31
526.67	36531.08
526.84	36505.34
527.01	36392.99
527.18	36491.29
527.36	36701.94
527.53	36912.59
527.70	37441.55
527.87	37525.81
528.04	37200.47
528.21	37319.84
528.38	36947.70
528.55	37677.94
528.72	36849.39
528.89	37408.78
529.07	37378.36
529.24	37429.85
529.41	37535.17
529.58	37656.88
529.75	37525.81
529.92	37769.22
530.09	37902.64
530.26	37961.15
530.43	38103.92
530.60	37642.84
530.77	37743.48
530.94	37797.31
531.11	37670.92
531.28	37961.15
531.46	37921.36
531.63	38473.73
531.80	38342.66
531.97	38045.41
532.14	38237.33
532.31	38185.84
532.48	38494.79
532.65	38696.08
532.82	38597.77
532.99	38799.06
533.16	38305.21
533.33	38773.31
533.50	38754.59
533.67	38691.40
533.84	38644.59
534.01	38506.49
534.18	38778.00
534.35	39564.42
534.52	38670.33
534.69	39564.42
534.86	39531.65
535.03	39321.00
535.20	39232.06
535.37	39367.81
535.54	39529.31
535.71	39276.53
535.88	40006.78
536.05	40369.56
536.22	39871.03
536.38	39826.56
536.55	39683.78
536.72	39892.09
536.89	39859.32
537.06	40072.31
537.23	39997.41
537.40	39646.33
537.57	39639.31
537.74	40121.46
537.91	40156.57
538.08	40219.77
538.25	39718.89
538.42	40320.41
538.59	40631.70
538.75	40313.39
538.92	40512.33
539.09	40762.77
539.26	40383.60
539.43	40828.30
539.60	40931.29
539.77	40645.74
539.94	40849.37
540.11	40694.89
540.28	41148.96
540.44	40694.89
540.61	41170.02
540.78	40900.86
540.95	41331.52
541.12	40659.79
541.29	41060.02
541.46	41500.04
541.62	41015.55
541.79	41462.59
541.96	40968.74
542.13	40804.90
542.30	41375.99
542.47	41483.66
542.63	41617.07
542.80	41574.94
542.97	41923.68
543.14	42036.02
543.31	41656.85
543.48	41832.39
543.64	42314.55
543.81	42066.45
543.98	42052.41
544.15	41837.08
544.32	42286.46
544.48	42391.78
544.65	42335.61
544.82	42225.60
544.99	41855.80
545.16	42408.17
545.32	42511.15
545.49	42895.00
545.66	42483.06
545.83	42990.96
546.00	42759.25
546.16	42564.98
546.33	42415.19
546.50	42445.62
546.67	43007.34
546.83	42246.67
547.00	42733.50
547.17	42646.90
547.34	42714.78
547.50	43178.20
547.67	43632.27
547.84	42923.08
548.00	43529.28
548.17	43248.42
548.34	43124.37
548.51	43433.32
548.67	43021.39
548.84	43351.40
549.01	43187.56
549.18	43653.33
549.34	43667.37
549.51	43608.86
549.68	44002.07
549.84	43295.23
550.01	43723.55
550.18	43438.00
550.34	43470.77
550.51	43889.73
550.68	43775.04
550.84	43351.40
551.01	43683.76
551.18	43849.94
551.34	43964.62
551.51	43779.72
551.68	43658.01
551.84	44079.31
552.01	43959.94
552.18	44311.02
552.34	43964.62
552.51	44121.44
552.68	43779.72
552.84	44165.91
553.01	44177.61
553.18	43676.74
553.34	44570.82
553.51	44243.15
553.67	44292.30
553.84	44320.38
554.01	44533.37
554.17	44460.82
554.34	44973.39
554.51	44641.04
554.67	44919.56
554.84	44664.44
555.00	44615.29
555.17	44601.25
555.33	45434.48
555.50	44781.47
555.67	44533.37
555.83	44935.95
556.00	44872.75
556.16	45319.79
556.33	45041.27
556.50	45214.47
556.66	44671.46
556.83	44563.80
556.99	45003.82
557.16	45226.17
557.32	45144.25
557.49	45305.75
557.65	45256.60
557.82	45310.43
557.98	45270.64
558.15	45038.93
558.32	45471.93
558.48	44980.42
558.65	45443.84
558.81	45331.50
558.98	45553.85
559.14	45125.53
559.31	45052.97
559.47	45382.99
559.64	45558.53
559.80	45331.50
559.97	45731.73
560.13	45595.98
560.30	45621.72
560.46	46106.21
560.63	45696.62
560.79	45855.78
560.96	45989.19
561.12	45691.94
561.29	45708.32
561.45	45940.04
561.61	45464.91
561.78	45942.38
561.94	46033.66
562.11	45474.27
562.27	46244.30
562.44	45823.01
562.60	46031.32
562.77	46068.76
562.93	45755.13
563.10	46012.59
563.26	45738.75
563.42	46260.69
563.59	46071.10
563.75	45925.99
563.92	45741.09
564.08	46490.06
564.24	46244.30
564.41	46241.96
564.57	46150.68
564.74	46337.93
564.90	45984.51
565.07	46148.34
565.23	46031.32
565.39	46279.41
565.56	45998.55
565.72	45855.78
565.88	46094.51
566.05	46244.30
566.21	46366.01
566.38	46124.94
566.54	46227.92
566.70	46054.72
566.87	46082.81
567.03	46220.90
567.19	46422.19
567.36	46410.48
567.52	46471.34
567.68	46700.71
567.85	46518.15
568.01	46934.76
568.17	46410.48
568.34	46670.28
568.50	46637.51
568.66	46796.67
568.83	46270.05
568.99	46515.81
569.15	46174.09
569.32	46569.64
569.48	46904.34
569.64	46665.60
569.81	46967.53
569.97	46513.47
570.13	46822.42
570.30	46415.16
570.46	46548.57
570.62	46726.46
570.78	47264.78
570.95	46911.36
571.11	47168.82
571.27	46522.83
571.43	46693.69
571.60	46817.74
571.76	46461.97
571.92	46656.24
572.09	46443.25
572.25	46951.15
572.41	46611.77
572.57	46476.02
572.74	47112.64
572.90	47030.72
573.06	47182.86
573.22	46691.35
573.38	47089.24
573.55	47065.83
573.71	47543.30
573.87	47229.67
574.03	46616.45
574.20	47342.02
574.36	47224.99
574.52	47180.52
574.68	47063.49
574.84	47189.88
575.01	47426.28
575.17	47051.79
575.33	46894.97
575.49	47061.15
575.65	47295.21
575.82	47327.97
575.98	46796.67
576.14	47606.50
576.30	47435.64
576.46	47098.60
576.62	47047.11
576.79	46761.56
576.95	46784.97
577.11	47075.19
577.27	46810.71
577.43	47023.70
577.59	47269.46
577.75	46440.91
577.92	46590.70
578.08	47330.31
578.24	47171.16
578.40	47159.45
578.56	47044.77
578.72	47524.58
578.88	47229.67
579.04	47243.71
579.21	47349.04
579.37	47482.45
579.53	47627.56
579.69	47030.72
579.85	47089.24
580.01	47501.17
580.17	47171.16
580.33	47494.15
580.49	47187.54
580.65	47363.08
580.82	47503.51
580.98	47021.36
581.14	47093.92
581.30	47206.26
581.46	47419.25
581.62	47342.02
581.78	47442.66
581.94	47227.33
582.10	46871.57
582.26	47463.72
582.42	47552.66
582.58	47587.77
582.74	47316.27
582.90	47562.03
583.06	47856.93
583.22	47414.57
583.38	47098.60
583.54	46995.62
583.70	47295.21
583.86	47789.06
584.02	47192.22
584.18	47604.16
584.34	47545.64
584.50	47585.43
584.66	47604.16
584.82	47480.11
584.98	47498.83
585.14	47306.91
585.30	47517.56
585.46	47459.04
585.62	47304.57
585.78	47496.49
585.94	47229.67
586.10	47016.68
586.26	47416.91
586.42	47386.49
586.58	47889.70
586.74	47653.31
586.90	47185.20
587.06	47213.29
587.22	47737.57
587.38	47978.64
587.54	47653.31
587.70	47793.74
587.86	47608.84
588.02	47442.66
588.18	47248.39
588.34	47709.48
588.49	47634.58
588.65	47545.64
588.81	47587.77
588.97	48191.63
589.13	47393.51
589.29	47690.76
589.45	48182.27
589.61	47728.20
589.77	47913.11
589.93	48060.56
590.08	47702.46
590.24	48133.12
590.40	48133.12
590.56	47847.57
590.72	48133.12
590.88	48219.72
591.04	47419.25
591.20	47976.30
591.35	48296.95
591.51	48037.16
591.67	47997.37
591.83	48203.33
591.99	47838.21
592.15	47578.41
592.31	47838.21
592.46	47777.36
592.62	47917.79
592.78	48257.17
592.94	48444.41
593.10	48378.87
593.26	48523.99
593.41	48030.13
593.57	48556.75
593.73	47962.26
593.89	48854.00
594.05	48367.17
594.20	48261.85
594.36	48411.64
594.52	48198.65
594.68	47992.68
594.84	48151.84
594.99	48538.03
595.15	47995.03
595.31	48547.39
595.47	48004.39
595.62	48240.78
595.78	47866.30
595.94	48172.91
596.10	48341.42
596.25	48388.24
596.41	48177.59
596.57	48119.07
596.73	48538.03
596.88	48144.82
597.04	48100.35
597.20	48147.16
597.36	48231.42
597.51	48327.38
597.67	47941.19
597.83	48236.10
597.99	48154.18
598.14	48165.88
598.30	48100.35
598.46	48275.89
598.61	48381.21
598.77	48376.53
598.93	48699.53
599.09	48390.58
599.24	48662.08
599.40	48100.35
599.56	48479.52
599.71	48315.68
599.87	48886.77
600.03	48802.51
600.18	48193.97
600.34	48219.72
600.50	48910.17
600.65	48413.98
600.81	49097.42
600.97	48346.11
601.12	48474.84
601.28	48561.44
601.44	48516.96
601.59	48428.02
601.75	48629.31
601.91	48704.21
602.06	48514.62
602.22	48734.63
602.37	48247.80
602.53	48385.89
602.69	48402.28
602.84	48385.89
603.00	48095.67
603.16	48343.77
603.31	48458.45
603.47	48561.44
603.62	48252.48
603.78	48392.92
603.94	48444.41
604.09	48580.16
604.25	48130.78
604.40	48418.66
604.56	48584.84
604.71	49001.46
604.87	48502.92
605.03	48439.73
605.18	48133.12
605.34	48273.55
605.49	48243.12
605.65	48151.84
605.80	48170.57
605.96	48416.32
606.12	48334.40
606.27	48266.53
606.43	48261.85
606.58	48491.22
606.74	48226.74
606.89	48109.71
607.05	48643.35
607.20	48418.66
607.36	48423.34
607.51	48603.56
607.67	47936.51
607.82	48229.08
607.98	47938.85
608.13	48072.26
608.29	47852.25
608.44	48456.11
608.60	47938.85
608.75	48294.61
608.91	47777.36
609.06	47826.51
609.22	48402.28
609.37	47978.64
609.53	48399.94
609.68	48369.51
609.84	48233.76
609.99	48210.35
610.15	48406.96
610.30	48086.31
610.46	47845.23
610.61	47835.87
610.76	48303.98
610.92	47931.83
611.07	47782.04
611.23	47524.58
611.38	47859.27
611.54	48048.86
611.69	48329.72
611.84	48217.38
612.00	47753.95
612.15	47973.96
612.31	47910.77
612.46	47718.84
612.62	47887.36
612.77	47477.77
612.92	48069.92
613.08	48023.11
613.23	47887.36
613.39	47386.49
613.54	47707.14
613.69	48060.56
613.85	47718.84
614.00	47707.14
614.15	47892.04
614.31	47749.27
614.46	47494.15
614.62	47819.49
614.77	47976.30
614.92	47990.34
615.08	47531.60
615.23	47800.76
615.38	47941.19
615.54	47550.32
615.69	47580.75
615.84	47594.79
616.00	47725.86
616.15	47611.18
616.30	47936.51
616.46	47524.58
616.61	47437.98
616.76	47716.50
616.92	47452.02
617.07	47641.60
617.22	47365.42
617.37	47168.82
617.53	47515.22
617.68	47185.20
617.83	47227.33
617.99	48062.90
618.14	47707.14
618.29	47320.95
618.45	46658.58
618.60	47164.14
618.75	47058.81
618.90	46670.28
619.06	47157.11
619.21	47215.63
619.36	47353.72
619.51	46836.46
619.67	46843.48
619.82	47278.82
619.97	47351.38
620.12	47290.52
620.28	46927.74
620.43	47257.76
620.58	47515.22
620.73	47292.86
620.89	47117.32
621.04	47395.85
621.19	47159.45
621.34	46721.77
621.49	46777.95
621.65	46803.69
621.80	47608.84
621.95	46469.00
622.10	47337.33
622.25	46916.04
622.41	46843.48
622.56	46368.35
622.71	47035.41
622.86	46965.19
623.01	47000.30
623.16	46735.82
623.32	46625.81
623.47	46775.61
623.62	46894.97
623.77	46485.38
623.92	46590.70
624.07	46459.63
624.23	47157.11
624.38	46791.99
624.53	46415.16
624.68	46628.15
624.83	46431.55
624.98	46707.73
625.13	46038.34
625.29	46302.82
625.44	46178.77
625.59	46073.45
625.74	46300.48
625.89	46459.63
626.04	46649.22
626.19	46337.93
626.34	46293.46
626.49	46234.94
626.65	46073.45
626.80	46298.14
626.95	46485.38
627.10	46253.67
627.25	46733.48
627.40	46061.74
627.55	46073.45
627.70	45778.54
627.85	45921.31
628.00	46691.35
628.15	45748.11
628.30	45581.93
628.45	45500.01
628.60	45155.96
628.76	45656.83
628.91	45986.85
629.06	45102.12
629.21	46038.34
629.36	45837.05
629.51	45530.44
629.66	45670.87
629.81	45930.67
629.96	45645.13
630.11	45598.32
630.26	45680.24
630.41	45614.70
630.56	45251.92
630.71	45844.07
630.86	45394.69
631.01	44772.11
631.16	45811.31
631.31	45443.84
631.46	45188.72
631.61	45539.80
631.76	45769.18
631.91	45766.84
632.06	45815.99
632.21	45713.00
632.36	45638.11
632.51	45109.14
632.66	44989.78
632.81	45443.84
632.96	45188.72
633.10	44931.26
633.25	44835.30
633.40	45434.48
633.55	45570.23
633.70	44935.95
633.85	44758.06
634.00	44706.57
634.15	45067.02
634.30	45282.34
634.45	45247.24
634.60	44942.97
634.75	45071.70
634.90	45038.93
635.05	45059.99
635.19	44774.45
635.34	45041.27
635.49	44708.91
635.64	44875.09
635.79	44980.42
635.94	44444.43
636.09	44872.75
636.24	44650.40
636.39	44655.08
636.53	44769.77
636.68	44870.41
636.83	44053.56
636.98	44343.79
637.13	44053.56
637.28	44463.16
637.43	44264.21
637.57	44072.29
637.72	44076.97
637.87	44076.97
638.02	44540.39
638.17	44409.32
638.32	44402.30
638.46	44081.65
638.61	44205.70
638.76	43601.84
638.91	44123.78
639.06	43725.89
639.20	44072.29
639.35	43938.88
639.50	43681.42
639.65	44205.70
639.80	44224.42
639.94	44500.61
640.09	44367.20
640.24	43920.15
640.39	43889.73
640.54	43784.40
640.68	43716.53
640.83	43983.35
640.98	43540.99
641.13	43346.72
641.27	44346.13
641.42	43704.82
641.57	43840.57
641.72	43501.20
641.86	43585.46
642.01	43133.73
642.16	43501.20
642.31	43414.60
642.45	43440.34
642.60	43002.66
642.75	43115.01
642.90	43533.96
643.04	43732.91
643.19	43456.73
643.34	42995.64
643.48	43250.76
643.63	43395.87
643.78	43548.01
643.93	43842.92
644.07	43393.53
644.22	43576.09
644.37	42995.64
644.51	43234.38
644.66	42593.07
644.81	43533.96
644.95	43203.95
645.10	43079.90
645.25	42773.29
645.39	43068.20
645.54	43133.73
645.69	42541.58
645.83	42590.73
645.98	42677.33
646.13	42801.38
646.27	42642.22
646.42	42480.72
646.57	42967.55
646.71	42962.87
646.86	43152.46
647.00	43250.76
647.15	43136.07
647.30	42789.67
647.44	42614.13
647.59	43161.82
647.74	42684.35
647.88	42457.32
648.03	43026.07
648.17	42934.79
648.32	43023.73
648.47	43042.45
648.61	42686.69
648.76	42471.36
648.90	42504.13
649.05	42394.12
649.20	42525.19
649.34	42504.13
649.49	42735.84
649.63	42454.98
649.78	42220.92
649.92	42337.95
650.07	43196.93
650.21	42450.30
650.36	42871.59
650.51	42557.96
650.65	42450.30
650.80	42873.93
650.94	42614.13
651.09	42139.00
651.23	42162.41
651.38	41851.12
651.52	42541.58
651.67	42014.96
651.81	42012.62
651.96	42192.84
652.10	41834.74
652.25	41504.72
652.39	41797.29
652.54	41991.55
652.68	41691.96
652.83	41551.53
652.97	41708.35
653.12	41979.85
653.26	41942.40
653.41	42127.30
653.55	41418.12
653.70	41890.91
653.84	42155.39
653.99	41970.49
654.13	41909.63
654.27	41593.66
654.42	41916.65
654.56	41701.32
654.71	42005.59
654.85	41088.10
655.00	41603.02
655.14	42101.56
655.29	41610.04
655.43	41818.35
655.57	41427.48
655.72	41455.57
655.86	41413.44
656.01	40945.33
656.15	41591.32
656.30	40921.93
656.44	41214.49
656.58	41270.67
656.73	41675.58
656.87	41041.29
657.01	40760.43
657.16	41083.42
657.30	41237.90
657.45	41132.57
657.59	40910.22
657.73	40945.33
657.88	40802.56
658.02	40821.28
658.16	41436.84
658.31	40945.33
658.45	41001.50
658.60	40739.36
658.74	40608.29
658.88	40863.41
659.03	40996.82
659.17	40177.64
659.31	40055.93
659.46	40236.15
659.60	40449.14
659.74	40542.76
659.89	40154.23
660.03	40123.80
660.17	40275.94
660.32	40243.17
660.46	40718.30
660.60	40011.46
660.74	40095.72
660.89	39997.41
661.03	40004.44
661.17	39686.12
661.32	39990.39
661.46	39957.63
661.60	39428.66
661.74	39758.68
661.89	39873.37
662.03	39709.53
662.17	39491.86
662.31	39583.14
662.46	39648.68
662.60	38710.12
662.74	39082.27
662.88	39077.58
663.03	38934.81
663.17	39152.48
663.31	38969.92
663.45	38951.20
663.60	39234.40
663.74	39274.19
663.88	39189.93
664.02	38871.62
664.17	39077.58
664.31	39026.09
664.45	38724.16
664.59	38873.96
664.73	38829.49
664.88	39409.94
665.02	38230.31
665.16	38522.88
665.30	39019.07
665.44	38363.72
665.59	38288.82
665.73	37968.17
665.87	37813.70
666.01	38447.98
666.15	38192.86
666.29	38347.34
666.44	38651.61
666.58	38288.82
666.72	37830.08
666.86	37926.04
667.00	38038.39
667.14	37530.49
667.28	37326.86
667.43	37694.33
667.57	37727.10
667.71	37514.11
667.85	37792.63
667.99	37574.96
668.13	37441.55
668.27	37081.11
668.41	37394.74
668.56	36608.32
668.70	37008.55
668.84	36620.02
668.98	36556.83
669.12	36966.42
669.26	36933.65
669.40	37214.52
669.54	36624.70
669.68	36758.11
669.82	36542.78
669.96	36273.62
670.10	36591.94
670.25	36304.05
670.39	35997.44
670.53	36491.29
670.67	36180.00
670.81	36517.04
670.95	36301.71
671.09	36058.29
671.23	35749.34
671.37	36315.75
671.51	35952.97
671.65	35679.13
671.79	35536.35
671.93	36023.19
672.07	35573.80
672.21	35335.07
672.35	35023.78
672.49	35243.79
672.63	35665.08
672.77	35152.51
672.91	35339.75
673.05	35395.92
673.19	35037.82
673.33	35035.48
673.47	34501.84
673.61	34675.04
673.75	34494.82
673.89	34471.41
674.03	34279.49
674.17	34218.63
674.31	34146.08
674.45	34230.33
674.59	34136.71
674.73	34342.68
674.87	34019.69
675.01	33699.03
675.15	33647.54
675.29	33724.78
675.43	33640.52
675.56	34071.18
675.70	33682.65
675.84	33205.18
675.98	32259.60
676.12	33266.03
676.26	33467.32
676.40	32725.37
676.54	33198.16
676.68	32723.03
676.82	32287.69
676.96	32388.33
677.10	32891.55
677.23	32528.77
677.37	32566.21
677.51	32594.30
677.65	32404.72
677.79	31871.07
677.93	32109.81
678.07	31735.32
678.21	32025.55
678.34	31173.60
678.48	31541.06
678.62	31468.50
678.76	31353.82
678.90	31541.06
679.04	31379.56
679.18	31765.75
679.31	31035.50
679.45	30738.26
679.59	30771.02
679.73	30775.70
679.87	30738.26
680.00	30558.03
680.14	30806.13
680.28	30426.96
680.42	30244.40
680.56	30143.76
680.70	29846.51
680.83	29900.34
680.97	29827.79
681.11	30008.01
681.25	29687.36
681.39	29282.44
681.52	29764.59
681.66	29436.92
681.80	29151.37
681.94	29076.48
682.07	28624.75
682.21	29160.73
682.35	28783.91
682.49	28896.25
682.62	28816.68
682.76	28882.21
682.90	28664.54
683.04	28587.30
683.17	28142.60
683.31	28615.39
683.45	27920.25
683.59	27786.84
683.72	27840.67
683.86	27983.44
684.00	27686.20
684.13	28002.17
684.27	27515.34
684.41	27564.49
684.55	27372.57
684.68	27501.29
684.82	27077.66
684.96	27374.91
685.09	27229.79
685.23	27131.49
685.37	27321.07
685.50	27484.91
685.64	26946.59
685.78	26766.37
685.91	26099.31
686.05	26108.68
686.19	25717.81
686.32	25954.20
686.46	25909.73
686.60	25678.02
686.73	25694.40
686.87	25600.78
687.01	26073.57
687.14	25750.57
687.28	25525.88
687.42	25530.56
687.55	24973.52
687.69	25198.21
687.82	25097.56
687.96	24783.93
688.10	24795.64
688.23	24662.22
688.37	25055.43
688.50	25046.07
688.64	24898.62
688.78	24428.17
688.91	24514.77
689.05	24608.39
689.18	23871.12
689.32	23789.20
689.46	23903.89
689.59	23850.06
689.73	24072.41
689.86	24130.92
690.00	23697.92
690.13	23667.50
690.27	23461.53
690.41	23669.84
690.54	23204.07
690.68	23199.39
690.81	23269.61
690.95	23061.30
691.08	22998.10
691.22	22480.85
691.35	22682.13
691.49	23091.73
691.62	22452.76
691.76	22389.56
691.89	22078.27
692.03	21546.97
692.16	21865.28
692.30	22195.30
692.43	22167.21
692.57	21743.58
692.70	21858.26
692.84	21736.56
692.97	21549.31
693.11	21451.01
693.24	21558.67
693.38	21102.27
693.51	21245.04
693.65	20947.79
693.78	21172.49
693.92	20713.74
694.05	20685.65
694.19	20753.53
694.32	20772.25
694.45	20512.46
694.59	20940.77
694.72	20751.19
694.86	20243.29
694.99	20224.57
695.13	19822.00
695.26	19934.34
695.39	19721.35
695.53	19756.46
695.66	20058.39
695.80	19463.90
695.93	19470.92
696.07	19653.48
696.20	19248.57
696.33	18857.70
696.47	19358.57
696.60	18848.33
696.73	19145.58
696.87	19363.25
697.00	18956.00
697.14	18860.04
697.27	18473.85
697.40	18974.72
697.54	18684.50
697.67	18604.92
697.80	18305.33
697.94	18707.90
698.07	18279.58
698.21	17958.93
698.34	18031.49
698.47	17790.41
698.61	17631.26
698.74	17745.94
698.87	17631.26
699.01	17638.28
699.14	17434.65
699.27	17605.51
699.40	17434.65
699.54	17324.65
699.67	17268.47
699.80	17242.73
699.94	17069.53
700.07	16896.33
700.20	16718.45
700.34	16910.37
700.47	16828.45
700.60	17025.06
700.73	16702.06
700.87	16503.12
701.00	16285.45
701.13	16390.77
701.26	16402.47
701.40	16322.90
701.53	16039.69
701.66	16173.10
701.79	16023.31
701.93	15768.19
702.06	15770.53
702.19	15613.71
702.32	15583.29
702.46	15889.90
702.59	15950.75
702.72	15653.50
702.85	15372.64
702.99	15548.18
703.12	15250.93
703.25	15286.04
703.38	15122.20
703.51	15040.28
703.65	14750.06
703.78	15021.56
703.91	14572.18
704.04	14576.86
704.17	14590.90
704.31	14607.28
704.44	14333.44
704.57	14558.13
704.70	14157.90
704.83	14422.38
704.96	14040.87
705.10	13958.96
705.23	14066.62
>>>>>End Processed Spectral Data<<<<<
