SpectraSuite Data File
++++++++++++++++++++++++++++++++++++
Date: Fri Oct 25 10:44:32 EDT 2013
User: price-jones
Dark Spectrum Present: No
Reference Spectrum Present: No
Number of Sampled Component Spectra: 1
Spectrometers: USB2+H05261
Integration Time (usec): 100000 (USB2+H05261)
Spectra Averaged: 1 (USB2+H05261)
Boxcar Smoothing: 0 (USB2+H05261)
Correct for Electrical Dark: No (USB2+H05261)
Strobe/Lamp Enabled: No (USB2+H05261)
Correct for Detector Non-linearity: No (USB2+H05261)
Correct for Stray Light: No (USB2+H05261)
Number of Pixels in Processed Spectrum: 2048
>>>>>Begin Processed Spectral Data<<<<<
365.73	182.56
365.92	182.56
366.12	182.56
366.32	11.70
366.52	32.77
366.72	65.54
366.91	0.00
367.11	72.56
367.31	35.11
367.51	21.06
367.70	30.43
367.90	46.81
368.10	42.13
368.30	53.83
368.49	77.24
368.69	72.56
368.89	23.41
369.09	100.64
369.28	4.68
369.48	28.09
369.68	51.49
369.87	51.49
370.07	58.51
370.27	74.90
370.47	168.52
370.66	334.70
370.86	369.80
371.06	404.91
371.25	486.83
371.45	444.70
371.65	433.00
371.84	456.40
372.04	390.87
372.24	437.68
372.44	491.51
372.63	519.60
372.83	538.32
373.03	484.49
373.22	468.11
373.42	489.17
373.62	545.34
373.81	458.74
374.01	589.82
374.21	547.69
374.40	585.13
374.60	559.39
374.79	528.96
374.99	550.03
375.19	573.43
375.38	540.66
375.58	568.75
375.78	496.19
375.97	589.82
376.17	706.84
376.37	594.50
376.56	507.90
376.76	622.58
376.95	608.54
377.15	610.88
377.35	655.35
377.54	547.69
377.74	582.79
377.93	645.99
378.13	620.24
378.33	629.60
378.52	594.50
378.72	622.58
378.91	620.24
379.11	648.33
379.31	608.54
379.50	620.24
379.70	704.50
379.89	697.48
380.09	613.22
380.28	603.86
380.48	634.29
380.68	657.69
380.87	575.77
381.07	662.37
381.26	634.29
381.46	648.33
381.65	727.91
381.85	685.78
382.04	697.48
382.24	603.86
382.43	662.37
382.63	660.03
382.83	648.33
383.02	709.18
383.22	751.31
383.41	645.99
383.61	685.78
383.80	767.70
384.00	716.20
384.19	720.88
384.39	704.50
384.58	697.48
384.78	805.14
384.97	805.14
385.17	842.59
385.36	777.06
385.56	704.50
385.75	823.87
385.95	777.06
386.14	751.31
386.34	814.51
386.53	744.29
386.72	760.67
386.92	777.06
387.11	812.17
387.31	763.01
387.50	795.78
387.70	922.17
387.89	833.23
388.09	842.59
388.28	805.14
388.48	840.25
388.67	903.45
388.86	870.68
389.06	870.68
389.25	891.74
389.45	812.17
389.64	854.30
389.84	1018.13
390.03	971.32
390.22	938.55
390.42	952.60
390.61	987.71
390.81	877.70
391.00	978.34
391.19	1046.22
391.39	1015.79
391.58	936.21
391.78	1043.88
391.97	999.41
392.16	912.81
392.36	936.21
392.55	931.53
392.75	894.08
392.94	950.26
393.13	823.87
393.33	964.30
393.52	950.26
393.71	1095.37
393.91	978.34
394.10	1064.94
394.29	1081.33
394.49	1090.69
394.68	1135.16
394.88	1144.52
395.07	1184.31
395.26	1146.86
395.46	1174.95
395.65	1191.33
395.84	1062.60
396.04	1121.12
396.23	1167.93
396.42	1078.99
396.62	1100.05
396.81	1116.44
397.00	1128.14
397.19	1277.93
397.39	1284.95
397.58	1268.57
397.77	1219.42
397.97	1306.02
398.16	1149.20
398.35	1284.95
398.55	1392.62
398.74	1411.34
398.93	1373.89
399.12	1331.76
399.32	1352.83
399.51	1364.53
399.70	1404.32
399.90	1418.36
400.09	1462.83
400.28	1465.18
400.47	1474.54
400.67	1629.01
400.86	1526.03
401.05	1458.15
401.24	1528.37
401.44	1437.09
401.63	1504.96
401.82	1558.80
402.01	1516.67
402.21	1570.50
402.40	1479.22
402.59	1598.59
402.78	1544.75
402.97	1633.69
403.17	1542.41
403.36	1544.75
403.55	1645.40
403.74	1724.97
403.93	1755.40
404.13	1654.76
404.32	1687.53
404.51	1781.15
404.70	1795.19
404.89	1720.29
405.09	1743.70
405.28	1743.70
405.47	1659.44
405.66	1699.23
405.85	1776.47
406.05	1823.28
406.24	1818.60
406.43	1771.79
406.62	1935.62
406.81	1916.90
407.00	1940.30
407.20	1802.21
407.39	1863.07
407.58	2033.93
407.77	1792.85
407.96	2059.67
408.15	2033.93
408.34	2010.52
408.54	2005.84
408.73	2073.71
408.92	2019.88
409.11	2024.56
409.30	2003.50
409.49	2057.33
409.68	2045.63
409.87	2136.91
410.07	2146.27
410.26	2181.38
410.45	2244.57
410.64	2190.74
410.83	2300.75
411.02	2279.68
411.21	2361.60
411.40	2392.03
411.59	2328.83
411.78	2359.26
411.98	2284.36
412.17	2410.75
412.36	2403.73
412.55	2445.86
412.74	2595.65
412.93	2548.84
413.12	2464.58
413.31	2658.85
413.50	2506.71
413.69	2492.67
413.88	2588.63
414.07	2686.94
414.26	2675.23
414.45	2813.32
414.64	2712.68
414.83	2710.34
415.02	2722.04
415.22	2771.19
415.41	2813.32
415.60	2792.26
415.79	2953.76
415.98	2942.05
416.17	2949.08
416.36	2871.84
416.55	2871.84
416.74	3082.49
416.93	2986.52
417.12	2974.82
417.31	3108.23
417.50	3042.70
417.69	3152.70
417.88	3185.47
418.07	3220.58
418.26	3183.13
418.45	3232.28
418.64	3227.60
418.83	3295.47
419.02	3314.20
419.21	3288.45
419.39	3281.43
419.58	3211.22
419.77	3248.66
419.96	3356.33
420.15	3370.37
420.34	3375.05
420.53	3440.59
420.72	3499.10
420.91	3496.76
421.10	3478.04
421.29	3449.95
421.48	3339.94
421.67	3700.39
421.86	3552.93
422.05	3386.76
422.24	3524.85
422.43	3609.11
422.61	3475.70
422.80	3583.36
422.99	3592.72
423.18	3693.37
423.37	3728.47
423.56	3585.70
423.75	3737.84
423.94	3590.38
424.13	3349.31
424.32	3393.78
424.50	3655.92
424.69	3592.72
424.88	3777.62
425.07	3449.95
425.26	3658.26
425.45	3627.83
425.64	3606.77
425.83	3658.26
426.01	3861.88
426.20	3688.68
426.39	3688.68
426.58	3700.39
426.77	3714.43
426.96	3786.99
427.15	3639.53
427.33	3754.22
427.52	3737.84
427.71	3777.62
427.90	3777.62
428.09	3873.59
428.28	3908.69
428.46	3791.67
428.65	3892.31
428.84	4074.87
429.03	3817.41
429.22	3934.44
429.40	3896.99
429.59	3843.16
429.78	3730.81
429.97	3676.98
430.16	3726.13
430.34	3932.10
430.53	3885.29
430.72	4056.15
430.91	3964.87
431.10	4077.21
431.28	4121.68
431.47	4168.49
431.66	4210.62
431.85	4264.46
432.03	4243.39
432.22	4325.31
432.41	4105.30
432.60	4255.09
432.79	4198.92
432.97	4383.82
433.16	4456.38
433.35	4339.35
433.54	4447.02
433.72	4341.69
433.91	4278.50
434.10	4358.08
434.28	4344.03
434.47	4475.10
434.66	4592.13
434.85	4732.56
435.03	4662.35
435.22	4599.15
435.41	4725.54
435.59	4657.67
435.78	4596.81
435.97	4657.67
436.16	4624.90
436.34	4610.86
436.53	4755.97
436.72	4826.18
436.90	4781.71
437.09	4950.23
437.28	4737.24
437.46	4908.10
437.65	4760.65
437.84	4753.63
438.02	4793.42
438.21	4945.55
438.40	4685.75
438.58	5041.51
438.77	5088.32
438.96	5046.20
439.14	5053.22
439.33	5011.09
439.52	5121.09
439.70	5121.09
439.89	5233.44
440.08	5345.78
440.26	5362.17
440.45	5219.39
440.63	5320.04
440.82	5521.32
441.01	5542.39
441.19	5605.58
441.38	5617.29
441.57	5638.35
441.75	5654.73
441.94	5783.46
442.12	5839.64
442.31	5870.06
442.50	5884.11
442.68	5870.06
442.87	5795.17
443.05	5816.23
443.24	5926.24
443.43	5823.25
443.61	5825.59
443.80	5944.96
443.98	6001.13
444.17	5757.72
444.35	5909.85
444.54	6008.16
444.73	6108.80
444.91	5942.62
445.10	5839.64
445.28	6045.60
445.47	5881.77
445.65	5888.79
445.84	5984.75
446.02	6104.12
446.21	5954.32
446.39	5940.28
446.58	6115.82
446.77	5947.30
446.95	5860.70
447.14	6232.85
447.32	6284.34
447.51	6157.95
447.69	6026.88
447.88	6031.56
448.06	6167.31
448.25	6197.74
448.43	6239.87
448.62	6164.97
448.80	6092.41
448.99	6361.58
449.17	6228.17
449.36	6300.72
449.54	6312.42
449.73	6621.38
449.91	6490.31
450.10	6317.11
450.28	6490.31
450.46	6593.29
450.65	6679.89
450.83	6537.12
451.02	6621.38
451.20	6604.99
451.39	6686.91
451.57	6602.65
451.76	6609.67
451.94	6530.09
452.13	6827.34
452.31	6621.38
452.49	6516.05
452.68	6609.67
452.86	6679.89
453.05	6796.92
453.23	6642.44
453.42	6480.94
453.60	6775.85
453.78	6904.58
453.97	6794.58
454.15	6923.30
454.34	6745.42
454.52	6881.18
454.70	6904.58
454.89	6817.98
455.07	6817.98
455.26	6932.67
455.44	7117.57
455.62	7201.83
455.81	7094.16
455.99	7096.50
456.17	7185.44
456.36	7187.79
456.54	7302.47
456.73	7227.57
456.91	7452.27
457.09	7468.65
457.28	7548.23
457.46	7297.79
457.64	7625.47
457.83	7396.09
458.01	7662.91
458.19	7494.40
458.38	7644.19
458.56	7709.72
458.74	7583.34
458.93	7616.10
459.11	7620.78
459.29	7548.23
459.48	7695.68
459.66	7651.21
459.84	7838.45
460.03	7695.68
460.21	7894.63
460.39	7875.90
460.57	7864.20
460.76	8021.02
460.94	8042.08
461.12	7826.75
461.31	7932.08
461.49	7854.84
461.67	7925.05
461.85	8198.90
462.04	8084.21
462.22	8224.64
462.40	8189.53
462.59	8276.13
462.77	8255.07
462.95	8437.63
463.13	8381.46
463.32	8416.57
463.50	8292.52
463.68	8266.77
463.86	8376.78
464.05	8131.02
464.23	8325.29
464.41	8407.20
464.59	8159.11
464.78	8243.37
464.96	8360.39
465.14	8224.64
465.32	8468.06
465.50	8519.55
465.69	8596.79
465.87	8568.70
466.05	8507.85
466.23	8423.59
466.41	8505.51
466.60	8706.79
466.78	8475.08
466.96	8587.43
467.14	8351.03
467.32	8798.07
467.51	8835.52
467.69	8463.38
467.87	8688.07
468.05	8812.12
468.23	8760.63
468.41	8800.41
468.60	8898.72
468.78	8802.75
468.96	8992.34
469.14	8978.30
469.32	8898.72
469.50	9004.04
469.69	8898.72
469.87	9102.34
470.05	8919.78
470.23	8985.32
470.41	8887.01
470.59	9270.86
470.77	9270.86
470.95	9291.93
471.14	9233.41
471.32	8978.30
471.50	9507.26
471.68	9430.02
471.86	9764.72
472.04	9745.99
472.22	9846.63
472.40	9549.39
472.58	9638.33
472.77	9830.25
472.95	9881.74
473.13	10083.03
473.31	9886.42
473.49	9827.91
473.67	9865.36
473.85	9893.44
474.03	10085.37
474.21	10047.92
474.39	10520.71
474.57	10324.10
474.75	10375.59
474.93	10509.01
475.12	10310.06
475.30	10595.61
475.48	10420.06
475.66	10359.21
475.84	10504.32
476.02	10602.63
476.20	10583.90
476.38	10576.88
476.56	10923.28
476.74	11112.86
476.92	10895.19
477.10	11042.65
477.28	10892.85
477.46	11309.47
477.64	11431.18
477.82	11492.03
478.00	11683.95
478.18	11740.13
478.36	11721.40
478.54	11765.87
478.72	11688.64
478.90	12173.13
479.08	12100.57
479.26	12168.45
479.44	12273.77
479.62	12435.27
479.80	12304.20
479.98	12547.61
480.16	12549.95
480.34	12386.12
480.52	12631.87
480.70	12886.99
480.88	12704.43
481.06	12830.82
481.24	12982.95
481.41	13217.01
481.59	13429.99
481.77	13481.49
481.95	13380.84
482.13	13741.29
482.31	13462.76
482.49	13694.47
482.67	13771.71
482.85	13916.83
483.03	13785.76
483.21	14043.21
483.39	14195.35
483.57	14097.05
483.74	14408.34
483.92	14462.17
484.10	14129.81
484.28	14860.06
484.46	14974.75
484.64	15283.70
484.82	14717.29
485.00	15407.75
485.18	15283.70
485.35	15599.67
485.53	15386.68
485.71	15295.40
485.89	15363.28
486.07	15506.05
486.25	15555.20
486.43	15695.63
486.61	15838.41
486.78	16161.40
486.96	16210.55
487.14	16156.72
487.32	16767.60
487.50	16870.58
487.68	16952.50
487.85	17441.67
488.03	17193.58
488.21	17509.55
488.39	17315.28
488.57	17312.94
488.75	17486.14
488.92	18054.89
489.10	17916.80
489.28	18197.67
489.46	18448.10
489.64	18270.22
489.81	18717.26
489.99	18752.37
490.17	18815.57
490.35	19037.92
490.53	19108.13
490.70	19185.37
490.88	19218.14
491.06	19215.80
491.24	19323.46
491.41	19353.89
491.59	19716.67
491.77	19742.42
491.95	19878.17
492.13	20020.94
492.30	20065.41
492.48	20147.33
492.66	20135.63
492.84	20673.95
493.01	20568.63
493.19	20900.98
493.37	20868.22
493.54	21020.35
493.72	21067.16
493.90	21006.31
494.08	21341.00
494.25	21774.00
494.43	21764.64
494.61	21530.59
494.79	21970.61
494.96	22031.46
495.14	21986.99
495.32	22167.21
495.49	22225.73
495.67	22422.33
495.85	22548.72
496.02	22806.18
496.20	22878.74
496.38	23096.41
496.55	23119.81
496.73	23126.83
496.91	23297.69
497.09	23215.77
497.26	23543.45
497.44	23442.81
497.62	23269.61
497.79	23630.05
497.97	23639.41
498.14	23747.08
498.32	24121.56
498.50	24247.95
498.67	24130.92
498.85	24383.70
499.03	24273.70
499.20	24734.78
499.38	24610.73
499.56	24919.68
499.73	24790.95
499.91	25111.61
500.08	25242.68
500.26	24666.91
500.44	25369.07
500.61	25034.37
500.79	24793.29
500.97	25345.66
501.14	25415.88
501.32	25441.62
501.49	25806.75
501.67	25596.10
501.84	25926.11
502.02	25727.17
502.20	26125.06
502.37	26225.70
502.55	26239.75
502.72	26202.30
502.90	26328.69
503.07	25951.86
503.25	26462.10
503.43	26389.54
503.60	26714.87
503.78	26754.66
503.95	26651.68
504.13	26473.80
504.30	26951.27
504.48	26911.48
504.65	27171.28
504.83	27213.41
505.01	27644.07
505.18	27232.13
505.36	27644.07
505.53	27721.30
505.71	27826.63
505.88	28081.75
506.06	27199.37
506.23	27957.70
506.41	27901.53
506.58	28079.41
506.76	28196.43
506.93	28556.88
507.11	28273.67
507.28	28074.73
507.46	28479.64
507.63	28388.36
507.81	28367.29
507.98	28489.00
508.16	28528.79
508.33	28980.51
508.50	28926.68
508.68	29090.52
508.85	29296.49
509.03	29113.92
509.20	29537.56
509.38	29427.56
509.55	29523.52
509.73	29357.34
509.90	29766.93
510.08	29792.68
510.25	29848.85
510.42	29942.47
510.60	29961.20
510.77	30370.79
510.95	30059.50
511.12	29949.50
511.30	30267.81
511.47	30593.14
511.64	30632.93
511.82	30904.43
511.99	30267.81
512.17	30897.41
512.34	30473.78
512.51	31225.09
512.69	30930.18
512.86	31033.16
513.04	31426.37
513.21	30972.31
513.38	31377.22
513.56	31199.34
513.73	30824.86
513.90	30953.58
514.08	31133.81
514.25	31309.35
514.43	31337.43
514.60	31356.16
514.77	31473.18
514.95	31981.08
515.12	32191.73
515.29	31934.27
515.47	32240.88
515.64	31983.42
515.81	32140.24
515.99	32093.43
516.16	32133.21
516.33	32055.98
516.51	32208.11
516.68	31814.90
516.85	31508.29
517.03	32329.82
517.20	32208.11
517.37	32617.71
517.54	32685.58
517.72	32395.35
517.89	32435.14
518.06	32613.02
518.24	32444.51
518.41	32264.28
518.58	32900.91
518.75	32725.37
518.93	32886.87
519.10	33303.48
519.27	33165.39
519.45	33354.97
519.62	33378.38
519.79	33479.02
519.96	33919.04
520.14	33713.08
520.31	33514.13
520.48	33919.04
520.65	33844.15
520.83	34260.76
521.00	34213.95
521.17	34143.74
521.34	34139.05
521.52	34155.44
521.69	34209.27
521.86	34562.69
522.03	34735.89
522.20	34628.23
522.38	34429.28
522.55	34796.74
522.72	35098.67
522.89	34394.17
523.07	34735.89
523.24	34330.98
523.41	34675.04
523.58	34969.94
523.75	35466.14
523.92	35487.20
524.10	35608.91
524.27	35477.84
524.44	35618.27
524.61	35112.72
524.78	35658.06
524.96	36051.27
525.13	35938.93
525.30	36278.30
525.47	36180.00
525.64	35908.50
525.81	36264.26
525.98	36210.43
526.16	36018.50
526.33	35421.67
526.50	36079.36
526.67	35775.09
526.84	35737.64
527.01	35894.46
527.18	36062.97
527.36	36659.81
527.53	36364.90
527.70	36367.24
527.87	36840.03
528.04	36404.69
528.21	36989.83
528.38	36552.15
528.55	36474.91
528.72	36830.67
528.89	36945.36
529.07	36795.56
529.24	36818.97
529.41	37195.79
529.58	36914.93
529.75	37020.25
529.92	37493.04
530.09	37345.59
530.26	37317.50
530.43	37249.63
530.60	37156.00
530.77	37598.37
530.94	37579.64
531.11	37233.24
531.28	37750.50
531.46	37787.95
531.63	37691.99
531.80	37490.70
531.97	37535.17
532.14	37544.53
532.31	37750.50
532.48	37893.27
532.65	37851.14
532.82	37755.18
532.99	38117.96
533.16	37500.06
533.33	38000.94
533.50	38380.10
533.67	38054.77
533.84	38115.62
534.01	38345.00
534.18	38153.07
534.35	38541.60
534.52	37895.61
534.69	38653.95
534.86	38675.01
535.03	38354.36
535.20	38904.38
535.37	38852.89
535.54	38518.20
535.71	38836.51
535.88	38899.70
536.05	38490.11
536.22	39023.75
536.38	38990.98
536.55	39136.10
536.72	39108.01
536.89	38747.57
537.06	38733.53
537.23	39276.53
537.40	39393.56
537.57	39189.93
537.74	39232.06
537.91	39824.22
538.08	39426.32
538.25	39330.36
538.42	39543.35
538.59	39541.01
538.75	39388.88
538.92	39250.78
539.09	39606.55
539.26	39597.18
539.43	39522.29
539.60	39817.19
539.77	39454.41
539.94	39662.72
540.11	39768.04
540.28	39688.46
540.44	39517.60
540.61	39339.72
540.78	39428.66
540.95	39775.06
541.12	39653.36
541.29	39878.05
541.46	39913.16
541.62	40318.07
541.79	40369.56
541.96	40123.80
542.13	40144.87
542.30	39945.92
542.47	40252.53
542.63	40718.30
542.80	40875.12
542.97	40741.71
543.14	40877.46
543.31	40912.56
543.48	41179.39
543.64	41586.64
543.81	40942.99
543.98	40893.84
544.15	40870.43
544.32	41268.33
544.48	41202.79
544.65	41085.76
544.82	41060.02
544.99	40699.58
545.16	40933.63
545.32	41055.34
545.49	41874.52
545.66	41668.56
545.83	41659.20
546.00	41404.08
546.16	41631.11
546.33	41123.21
546.50	41312.80
546.67	41745.80
546.83	41249.60
547.00	41642.81
547.17	41743.45
547.34	41691.96
547.50	41799.63
547.67	42024.32
547.84	41813.67
548.00	41963.46
548.17	41593.66
548.34	41633.45
548.51	42244.33
548.67	42176.45
548.84	41942.40
549.01	42101.56
549.18	42279.44
549.34	42085.17
549.51	41970.49
549.68	42260.71
549.84	42085.17
550.01	42492.43
550.18	42288.80
550.34	42705.41
550.51	42258.37
550.68	42429.23
550.84	41745.80
551.01	42782.65
551.18	42199.86
551.34	42567.32
551.51	42483.06
551.68	42473.70
551.84	42555.62
552.01	42466.68
552.18	42653.92
552.34	42536.90
552.51	42789.67
552.68	42637.54
552.84	42801.38
553.01	42829.46
553.18	42677.33
553.34	43005.00
553.51	42902.02
553.67	42789.67
553.84	43150.12
554.01	43049.47
554.17	42848.19
554.34	43220.33
554.51	43325.66
554.67	43569.07
554.84	43494.18
555.00	42974.58
555.17	42878.61
555.33	43276.51
555.50	42897.34
555.67	43498.86
555.83	42792.01
556.00	43260.12
556.16	43742.27
556.33	43222.67
556.50	43306.93
556.66	43751.63
556.83	42813.08
556.99	43632.27
557.16	43526.94
557.32	43676.74
557.49	43863.98
557.65	43330.34
557.82	43442.68
557.98	43482.47
558.15	43749.29
558.32	43604.18
558.48	43452.05
558.65	43328.00
558.81	43423.96
558.98	43288.21
559.14	43793.76
559.31	43505.88
559.47	43454.39
559.64	43955.26
559.80	43983.35
559.97	44091.01
560.13	43480.13
560.30	43730.57
560.46	43320.98
560.63	44079.31
560.79	43466.09
560.96	43969.30
561.12	43959.94
561.29	43938.88
561.45	44067.61
561.61	43976.33
561.78	43597.16
561.94	43454.39
562.11	44105.06
562.27	44046.54
562.44	44182.29
562.60	44243.15
562.77	44575.50
562.93	43868.66
563.10	44149.53
563.26	44142.50
563.42	44196.34
563.59	43810.15
563.75	44296.98
563.92	44442.09
564.08	44175.27
564.24	44423.37
564.41	44388.26
564.57	44142.50
564.74	43964.62
564.90	44512.31
565.07	44264.21
565.23	44271.23
565.39	43826.53
565.56	44233.78
565.72	44364.85
565.88	44844.66
566.05	44112.08
566.21	44011.43
566.38	43643.97
566.54	44100.37
566.70	44451.45
566.87	44987.44
567.03	44261.87
567.19	44919.56
567.36	44395.28
567.52	44540.39
567.68	44357.83
567.85	44584.86
568.01	44507.63
568.17	44247.83
568.34	44512.31
568.50	44638.70
568.66	44362.51
568.83	44657.42
568.99	43672.06
569.15	44294.64
569.32	44556.78
569.48	44402.30
569.64	44949.99
569.81	45205.11
569.97	43945.90
570.13	44552.10
570.30	44521.67
570.46	44051.22
570.62	44268.89
570.78	43976.33
570.95	44037.18
571.11	44615.29
571.27	44247.83
571.43	44729.98
571.60	44648.06
571.76	44460.82
571.92	44872.75
572.09	44626.99
572.25	44362.51
572.41	44268.89
572.57	44526.35
572.74	44851.69
572.90	44755.72
573.06	44758.06
573.22	44542.74
573.38	44694.87
573.55	44531.03
573.71	44648.06
573.87	44418.69
574.03	44964.03
574.20	44512.31
574.36	44437.41
574.52	44706.57
574.68	44783.81
574.84	44666.78
575.01	44828.28
575.17	44797.85
575.33	44376.56
575.49	44830.62
575.65	44825.94
575.82	45036.59
575.98	44851.69
576.14	44428.05
576.30	44797.85
576.46	44842.32
576.62	44629.34
576.79	44980.42
576.95	44886.79
577.11	44289.96
577.27	44638.70
577.43	44940.63
577.59	44823.60
577.75	45062.33
577.92	44673.81
578.08	44453.79
578.24	44676.15
578.40	44449.11
578.56	44474.86
578.72	44701.89
578.88	45013.18
579.04	45301.07
579.21	44285.28
579.37	44802.53
579.53	44935.95
579.69	44744.02
579.85	45003.82
580.01	44776.79
580.17	44662.10
580.33	45097.44
580.49	45069.36
580.65	45134.89
580.82	44985.10
580.98	44683.17
581.14	44781.47
581.30	45261.28
581.46	45130.21
581.62	44964.03
581.78	44542.74
581.94	45125.53
582.10	45027.23
582.26	44610.61
582.42	44767.43
582.58	44584.86
582.74	44772.11
582.90	44952.33
583.06	45235.53
583.22	44811.90
583.38	45041.27
583.54	45170.00
583.70	44837.64
583.86	44722.96
584.02	44811.90
584.18	45219.15
584.34	44851.69
584.50	44957.01
584.66	44842.32
584.82	44905.52
584.98	44964.03
585.14	45125.53
585.30	45113.83
585.46	45052.97
585.62	44959.35
585.78	45298.73
585.94	44610.61
586.10	44762.75
586.26	44720.62
586.42	44847.00
586.58	44926.58
586.74	44540.39
586.90	44879.77
587.06	45059.99
587.22	44954.67
587.38	44587.21
587.54	45141.91
587.70	45230.85
587.86	44744.02
588.02	44722.96
588.18	44910.20
588.34	44940.63
588.49	44367.20
588.65	44535.71
588.81	44729.98
588.97	44357.83
589.13	44556.78
589.29	44610.61
589.45	44657.42
589.61	44917.22
589.77	45525.76
589.93	44882.11
590.08	45331.50
590.24	45284.68
590.40	44746.36
590.56	45357.24
590.72	45284.68
590.88	45062.33
591.04	45425.12
591.20	45378.31
591.35	45584.27
591.51	45069.36
591.67	45340.86
591.83	45118.51
591.99	45064.67
592.15	45041.27
592.31	45532.78
592.46	44973.39
592.62	45563.21
592.78	45401.71
592.94	45207.45
593.10	45247.24
593.26	45013.18
593.41	44634.02
593.57	45097.44
593.73	45221.49
593.89	45226.17
594.05	45076.38
594.20	45027.23
594.36	45581.93
594.52	45167.66
594.68	45312.77
594.84	44807.22
594.99	45038.93
595.15	44851.69
595.31	45558.53
595.47	45354.90
595.62	45090.42
595.78	45380.65
595.94	45310.43
596.10	45301.07
596.25	45553.85
596.41	45303.41
596.57	45450.86
596.73	45757.47
596.88	45160.64
597.04	45359.58
597.20	45214.47
597.36	45003.82
597.51	45586.61
597.67	45525.76
597.83	45558.53
597.99	45783.22
598.14	45184.04
598.30	45469.59
598.46	45158.30
598.61	45593.64
598.77	45240.21
598.93	45085.74
599.09	45069.36
599.24	45631.08
599.40	45390.01
599.56	44957.01
599.71	45368.94
599.87	45350.22
600.03	45434.48
600.18	45631.08
600.34	45474.27
600.50	45195.74
600.65	45064.67
600.81	45422.78
600.97	45347.88
601.12	45326.81
601.28	45619.38
601.44	45378.31
601.59	45226.17
601.75	44526.35
601.91	45275.32
602.06	44776.79
602.22	45413.41
602.37	45205.11
602.53	44877.43
602.69	45254.26
602.84	44875.09
603.00	45270.64
603.16	45013.18
603.31	45439.16
603.47	45329.16
603.62	45375.97
603.78	45275.32
603.94	45359.58
604.09	45560.87
604.25	45577.25
604.40	45638.11
604.56	45500.01
604.71	45188.72
604.87	44772.11
605.03	44912.54
605.18	45067.02
605.34	44617.63
605.49	44779.13
605.65	45483.63
605.80	45450.86
605.96	45216.81
606.12	45326.81
606.27	45986.85
606.43	45404.05
606.58	45090.42
606.74	44877.43
606.89	45092.76
607.05	45127.87
607.20	45240.21
607.36	45024.89
607.51	44814.24
607.67	45081.06
607.82	45099.78
607.98	44854.03
608.13	44975.73
608.29	44987.44
608.44	44641.04
608.60	44758.06
608.75	44580.18
608.91	44800.19
609.06	44619.97
609.22	45043.61
609.37	44753.38
609.53	44538.05
609.68	45003.82
609.84	44823.60
609.99	44795.51
610.15	44273.57
610.30	44854.03
610.46	44727.64
610.61	44467.84
610.76	44336.77
610.92	44491.24
611.07	44861.05
611.23	44914.88
611.38	44783.81
611.54	44683.17
611.69	44769.77
611.84	44652.74
612.00	44418.69
612.15	44470.18
612.31	44236.12
612.46	44313.36
612.62	44896.16
612.77	44559.12
612.92	44685.51
613.08	44336.77
613.23	44589.55
613.39	44421.03
613.54	44219.74
613.69	44254.85
613.85	44563.80
614.00	44069.95
614.15	44488.90
614.31	44353.15
614.46	44074.63
614.62	45055.31
614.77	44446.77
614.92	44273.57
615.08	44163.57
615.23	44165.91
615.38	43819.51
615.54	43992.71
615.69	43901.43
615.84	43990.37
616.00	43995.05
616.15	43856.96
616.30	43929.51
616.46	43866.32
616.61	43746.95
616.76	43583.12
616.92	43655.67
617.07	43440.34
617.22	43508.22
617.37	43187.56
617.53	43662.69
617.68	44067.61
617.83	44233.78
617.99	43697.80
618.14	43969.30
618.29	43964.62
618.45	43426.30
618.60	43346.72
618.75	43669.72
618.90	43707.16
619.06	43489.49
619.21	43693.12
619.36	43854.62
619.51	43412.26
619.67	43089.26
619.82	43798.44
619.97	43981.01
620.12	43533.96
620.28	43248.42
620.43	43096.28
620.58	43370.13
620.73	43189.91
620.89	43021.39
621.04	43491.83
621.19	43100.97
621.34	43180.54
621.49	43714.19
621.65	42817.76
621.80	42391.78
621.95	43225.01
622.10	43000.32
622.25	42637.54
622.41	42639.88
622.56	42738.18
622.71	43189.91
622.86	43201.61
623.01	42892.66
623.16	42768.61
623.32	43002.66
623.47	42995.64
623.62	42820.10
623.77	42478.38
623.92	42979.26
624.07	42469.02
624.23	42607.11
624.38	42384.76
624.53	42490.09
624.68	42630.52
624.83	42141.35
624.98	42534.56
625.13	42927.77
625.29	42632.86
625.44	42508.81
625.59	42543.92
625.74	42471.36
625.89	42293.48
626.04	42176.45
626.19	42029.00
626.34	42288.80
626.49	42300.50
626.65	42705.41
626.80	42618.81
626.95	42270.08
627.10	42263.05
627.25	41820.69
627.40	41631.11
627.55	41963.46
627.70	41663.88
627.85	41600.68
628.00	41635.79
628.15	42038.36
628.30	41572.60
628.45	41869.84
628.60	41654.51
628.76	42024.32
628.91	41926.02
629.06	41867.50
629.21	41663.88
629.36	41677.92
629.51	41500.04
629.66	41352.58
629.81	41385.35
629.96	41666.22
630.11	41930.70
630.26	41783.24
630.41	41682.60
630.56	41708.35
630.71	41486.00
630.86	41441.53
631.01	41223.86
631.16	41434.50
631.31	41308.11
631.46	40877.46
631.61	41691.96
631.76	40772.13
631.91	41560.89
632.06	41549.19
632.21	41736.43
632.36	41420.46
632.51	41120.87
632.66	41034.27
632.81	41069.38
632.96	40842.35
633.10	41155.98
633.25	41038.95
633.40	41158.32
633.55	41235.56
633.70	40933.63
633.85	40844.69
634.00	41287.05
634.15	40952.35
634.30	41116.19
634.45	41221.52
634.60	40959.38
634.75	40746.39
634.90	40631.70
635.05	40858.73
635.19	40318.07
635.34	40858.73
635.49	40657.45
635.64	40605.95
635.79	40746.39
635.94	40301.68
636.09	40177.64
636.24	40289.98
636.39	40418.71
636.53	40739.36
636.68	40261.90
636.83	40425.73
636.98	40435.10
637.13	40500.63
637.28	40491.27
637.43	40060.61
637.57	40371.90
637.72	40545.10
637.87	40395.31
638.02	39894.43
638.17	40259.55
638.32	40093.38
638.46	39693.15
638.61	40472.54
638.76	39892.09
638.91	40575.53
639.06	40081.67
639.20	40149.55
639.35	39948.26
639.50	40128.48
639.65	40006.78
639.80	40238.49
639.94	40282.96
640.09	40231.47
640.24	40280.62
640.39	39536.33
640.54	39594.84
640.68	39775.06
640.83	40076.99
640.98	39601.86
641.13	39693.15
641.27	40086.36
641.42	39632.29
641.57	39519.95
641.72	39447.39
641.86	39133.76
642.01	39646.33
642.16	39196.95
642.31	39335.04
642.45	39625.27
642.60	39201.63
642.75	39285.89
642.90	39449.73
643.04	39730.59
643.19	39501.22
643.34	39508.24
643.48	39489.52
643.63	39234.40
643.78	38768.63
643.93	39042.48
644.07	38995.67
644.22	39213.34
644.37	38834.17
644.51	39313.98
644.66	39168.87
644.81	39037.80
644.95	39152.48
645.10	39072.90
645.25	38841.19
645.39	39171.21
645.54	39330.36
645.69	38754.59
645.83	38967.58
645.98	38925.45
646.13	39000.35
646.27	38770.97
646.42	38824.81
646.57	38377.76
646.71	39089.29
646.86	38677.35
647.00	38892.68
647.15	39044.82
647.30	38590.75
647.44	38745.23
647.59	39108.01
647.74	38352.02
647.88	38471.39
648.03	38557.99
648.17	38925.45
648.32	38436.28
648.47	38384.79
648.61	38274.78
648.76	38761.61
648.90	38368.40
649.05	38345.00
649.20	38646.93
649.34	38665.65
649.49	38148.39
649.63	38345.00
649.78	38117.96
649.92	38026.68
650.07	38394.15
650.21	38141.37
650.36	38087.54
650.51	38293.50
650.65	38478.41
650.80	38464.36
650.94	38389.47
651.09	38405.85
651.23	37926.04
651.38	38073.49
651.52	38064.13
651.67	37614.75
651.81	37947.11
651.96	37563.26
652.10	38155.41
652.25	37624.11
652.39	37745.82
652.54	38291.16
652.68	38211.59
652.83	37895.61
652.97	38057.11
653.12	37940.08
653.26	37415.80
653.41	37549.21
653.55	37542.19
653.70	37542.19
653.84	37467.30
653.99	37308.14
654.13	37184.09
654.27	36875.14
654.42	37240.26
654.56	37495.38
654.71	37322.18
654.85	37600.71
655.00	37518.79
655.14	37195.79
655.29	37022.59
655.43	37577.30
655.57	37085.79
655.72	37020.25
655.86	36870.46
656.01	36362.56
656.15	36570.87
656.30	37022.59
656.44	36861.10
656.58	36620.02
656.73	36444.48
656.87	37029.62
657.01	37057.70
657.16	36898.55
657.30	37130.26
657.45	36549.81
657.59	36615.34
657.73	36549.81
657.88	36781.52
658.02	36737.05
658.16	36814.29
658.31	36900.89
658.45	36856.42
658.60	36591.94
658.74	36449.16
658.88	36790.88
659.03	36280.64
659.17	35969.35
659.31	36229.15
659.46	36442.14
659.60	36449.16
659.74	36280.64
659.89	36100.42
660.03	36397.67
660.17	35950.63
660.32	35871.05
660.46	35847.64
660.60	35962.33
660.74	36285.33
660.89	36142.55
661.03	35452.09
661.17	35702.53
661.32	35250.81
661.46	35676.79
661.60	35775.09
661.74	35981.06
661.89	35882.75
662.03	35365.49
662.17	35639.34
662.31	35344.43
662.46	35374.86
662.60	35475.50
662.74	35150.17
662.88	35283.58
663.03	35330.39
663.17	35199.32
663.31	34845.90
663.45	35075.27
663.60	35204.00
663.74	34974.63
663.88	35016.75
664.02	34993.35
664.17	35047.18
664.31	34670.36
664.45	34948.88
664.59	35014.41
664.73	34398.85
664.88	34845.90
665.02	34195.23
665.16	34445.66
665.30	34792.06
665.44	34455.03
665.59	34162.46
665.73	34417.58
665.87	34412.90
666.01	34323.96
666.15	34211.61
666.29	34401.19
666.44	33993.94
666.58	34115.65
666.72	34167.14
666.86	34059.48
667.00	34155.44
667.14	33731.80
667.28	33628.82
667.43	33308.16
667.57	33830.10
667.71	33539.88
667.85	34029.05
667.99	33523.49
668.13	33408.81
668.27	33631.16
668.41	33701.37
668.56	33549.24
668.70	33411.15
668.84	33170.07
668.98	33001.55
669.12	32718.35
669.26	33137.30
669.40	32835.38
669.54	32877.51
669.68	32673.88
669.82	32634.09
669.96	32407.06
670.10	32720.69
670.25	33071.77
670.39	33097.52
670.53	32147.26
670.67	32767.50
670.81	32854.10
670.95	32818.99
671.09	32540.47
671.23	32842.40
671.37	32493.66
671.51	32189.39
671.65	32266.63
671.79	31978.74
671.93	31449.78
672.07	32137.90
672.21	32252.58
672.35	32053.64
672.49	31592.55
672.63	31892.14
672.77	31683.83
672.91	31667.45
673.05	31419.35
673.19	31409.99
673.33	30862.30
673.47	31138.49
673.61	31136.15
673.75	30909.11
673.89	31079.97
674.03	30501.86
674.17	30885.71
674.31	30941.88
674.45	30642.29
674.59	30714.85
674.73	30923.16
674.87	30466.75
675.01	30628.25
675.15	30787.41
675.29	30976.99
675.43	30277.17
675.56	30270.15
675.70	29886.30
675.84	30192.91
675.98	29233.29
676.12	30202.27
676.26	29937.79
676.40	29596.07
676.54	29818.42
676.68	29677.99
676.82	29013.28
676.96	29490.75
677.10	29776.30
677.23	29357.34
677.37	28994.56
677.51	29420.53
677.65	29240.31
677.79	28657.52
677.93	28842.42
678.07	28938.38
678.21	28334.53
678.34	28577.94
678.48	28112.17
678.62	28095.79
678.76	28149.62
678.90	28027.92
679.04	27599.60
679.18	28198.77
679.31	28077.07
679.45	27775.14
679.59	27805.56
679.73	27440.44
679.87	27393.63
680.00	27136.17
680.14	27686.20
680.28	27910.89
680.42	27262.56
680.56	27077.66
680.70	27145.53
680.83	27548.11
680.97	27091.70
681.11	27117.45
681.25	26567.42
681.39	26764.03
681.52	26831.90
681.66	26782.75
681.80	26766.37
681.94	26431.67
682.07	26551.04
682.21	26424.65
682.35	26457.42
682.49	26073.57
682.62	26251.45
682.76	25907.39
682.90	26202.30
683.04	25680.36
683.17	25373.75
683.31	25504.82
683.45	25596.10
683.59	25434.60
683.72	25116.29
683.86	25348.00
684.00	25142.03
684.13	25139.69
684.27	25242.68
684.41	24987.56
684.55	24706.70
684.68	24924.36
684.82	24776.91
684.96	24809.68
685.09	24568.60
685.23	24512.43
685.37	24442.21
685.50	24549.88
685.64	24222.20
685.78	24154.33
685.91	23758.78
686.05	23864.10
686.19	23721.33
686.32	23676.86
686.46	23339.82
686.60	23520.04
686.73	23152.58
686.87	22988.74
687.01	22916.19
687.14	23082.36
687.28	22932.57
687.42	23089.38
687.55	22838.95
687.69	23030.87
687.82	23056.62
687.96	22672.77
688.10	22796.82
688.23	22693.83
688.37	22169.55
688.50	22115.72
688.64	22228.07
688.78	22246.79
688.91	21942.52
689.05	22066.57
689.18	22099.34
689.32	21486.12
689.46	21549.31
689.59	22043.17
689.73	21745.92
689.86	22008.06
690.00	21429.94
690.13	21493.14
690.27	21390.16
690.41	21394.84
690.54	21235.68
690.68	20898.64
690.81	21184.19
690.95	20779.28
691.08	20985.24
691.22	20788.64
691.35	20723.10
691.49	20842.47
691.62	20636.50
691.76	20830.77
691.89	20737.15
692.03	20570.97
692.16	20233.93
692.30	19960.09
692.43	19985.83
692.57	19885.19
692.70	20086.48
692.84	19672.20
692.97	19852.42
693.11	19796.25
693.24	19765.82
693.38	19407.72
693.51	19552.84
693.65	19889.87
693.78	19463.90
693.92	19459.21
694.05	19124.52
694.19	19318.78
694.32	19178.35
694.45	18965.36
694.59	18651.73
694.72	18569.81
694.86	18714.92
694.99	18506.62
695.13	18726.63
695.26	18195.32
695.39	18455.12
695.53	18466.83
695.66	18473.85
695.80	18324.05
695.93	18003.40
696.07	18291.29
696.20	18195.32
696.33	17769.35
696.47	17797.43
696.60	17989.36
696.73	17839.56
696.87	17804.46
697.00	17561.04
697.14	17612.53
697.27	17200.60
697.40	17493.16
697.54	17462.74
697.67	17081.23
697.80	17088.25
697.94	16985.27
698.07	16765.26
698.21	16917.39
698.34	17020.38
698.47	16781.64
698.61	16425.88
698.74	16390.77
698.87	16311.19
699.01	16306.51
699.14	16259.70
699.27	15969.48
699.40	16004.58
699.54	16219.91
699.67	16056.08
699.80	15861.81
699.94	15894.58
700.07	16072.46
700.20	15737.76
700.34	15981.18
700.47	15740.10
700.60	16070.12
700.73	16133.31
700.87	15791.59
701.00	15585.63
701.13	15604.35
701.26	15316.47
701.40	15176.03
701.53	15117.52
701.66	15143.27
701.79	15215.82
701.93	15049.64
702.06	14958.36
702.19	14574.52
702.32	14810.91
702.46	14656.43
702.59	14574.52
702.72	14604.94
702.85	14633.03
702.99	14368.55
703.12	14532.39
703.25	14164.92
703.38	14111.09
703.51	14111.09
703.65	14356.85
703.78	14101.73
703.91	13996.40
704.04	14143.86
704.17	13862.99
704.31	13998.74
704.44	13638.30
704.57	13762.35
704.70	13729.58
704.83	13530.64
704.96	13806.82
705.10	13699.16
705.23	13366.80
>>>>>End Processed Spectral Data<<<<<
