SpectraSuite Data File
++++++++++++++++++++++++++++++++++++
Date: Fri Oct 25 10:43:55 EDT 2013
User: price-jones
Dark Spectrum Present: No
Reference Spectrum Present: No
Number of Sampled Component Spectra: 1
Spectrometers: USB2+H05261
Integration Time (usec): 100000 (USB2+H05261)
Spectra Averaged: 1 (USB2+H05261)
Boxcar Smoothing: 0 (USB2+H05261)
Correct for Electrical Dark: No (USB2+H05261)
Strobe/Lamp Enabled: No (USB2+H05261)
Correct for Detector Non-linearity: No (USB2+H05261)
Correct for Stray Light: No (USB2+H05261)
Number of Pixels in Processed Spectrum: 2048
>>>>>Begin Processed Spectral Data<<<<<
365.73	67.88
365.92	67.88
366.12	67.88
366.32	58.51
366.52	35.11
366.72	30.43
366.91	11.70
367.11	107.66
367.31	11.70
367.51	16.38
367.70	23.41
367.90	70.22
368.10	18.72
368.30	93.62
368.49	0.00
368.69	84.26
368.89	91.28
369.09	42.13
369.28	0.00
369.48	0.00
369.68	84.26
369.87	56.17
370.07	37.45
370.27	152.13
370.47	161.50
370.66	433.00
370.86	430.66
371.06	463.43
371.25	500.87
371.45	393.21
371.65	491.51
371.84	444.70
372.04	465.77
372.24	505.56
372.44	554.71
372.63	519.60
372.83	566.41
373.03	491.51
373.22	519.60
373.42	507.90
373.62	564.07
373.81	566.41
374.01	613.22
374.21	547.69
374.40	505.56
374.60	547.69
374.79	552.37
374.99	610.88
375.19	568.75
375.38	610.88
375.58	699.82
375.78	580.45
375.97	622.58
376.17	695.14
376.37	603.86
376.56	606.20
376.76	664.71
376.95	660.03
377.15	622.58
377.35	636.63
377.54	603.86
377.74	725.57
377.93	699.82
378.13	622.58
378.33	706.84
378.52	741.95
378.72	713.86
378.91	603.86
379.11	578.11
379.31	641.31
379.50	671.73
379.70	678.76
379.89	767.70
380.09	716.20
380.28	788.76
380.48	627.26
380.68	716.20
380.87	702.16
381.07	660.03
381.26	767.70
381.46	746.63
381.65	753.65
381.85	697.48
382.04	720.88
382.24	779.40
382.43	702.16
382.63	739.61
382.83	763.01
383.02	816.85
383.22	751.31
383.41	699.82
383.61	814.51
383.80	844.93
384.00	737.27
384.19	795.78
384.39	950.26
384.58	844.93
384.78	821.53
384.97	861.32
385.17	866.00
385.36	882.38
385.56	847.27
385.75	870.68
385.95	851.96
386.14	842.59
386.34	809.83
386.53	926.85
386.72	898.77
386.92	868.34
387.11	924.51
387.31	861.32
387.50	866.00
387.70	912.81
387.89	917.49
388.09	882.38
388.28	880.04
388.48	931.53
388.67	1020.47
388.86	1013.45
389.06	961.96
389.25	966.64
389.45	1025.15
389.64	952.60
389.84	1086.01
390.03	1081.33
390.22	1160.91
390.42	961.96
390.61	1025.15
390.81	1062.60
391.00	1064.94
391.19	1025.15
391.39	1090.69
391.58	1041.54
391.78	1170.27
391.97	1118.78
392.16	1001.75
392.36	1071.97
392.55	1090.69
392.75	1095.37
392.94	971.32
393.13	992.39
393.33	1043.88
393.52	980.68
393.71	1083.67
393.91	1156.22
394.10	1158.57
394.29	1144.52
394.49	1228.78
394.68	1226.44
394.88	1291.98
395.07	1301.34
395.26	1341.13
395.46	1273.25
395.65	1294.32
395.84	1268.57
396.04	1387.94
396.23	1219.42
396.42	1191.33
396.62	1172.61
396.81	1296.66
397.00	1266.23
397.19	1327.08
397.39	1383.26
397.58	1448.79
397.77	1392.62
397.97	1554.12
398.16	1481.56
398.35	1521.35
398.55	1453.47
398.74	1589.22
398.93	1624.33
399.12	1554.12
399.32	1643.06
399.51	1593.90
399.70	1626.67
399.90	1638.38
400.09	1685.19
400.28	1685.19
400.47	1762.42
400.67	1788.17
400.86	1732.00
401.05	1732.00
401.24	1776.47
401.44	1837.32
401.63	1809.23
401.82	1895.83
402.01	1750.72
402.21	1825.62
402.40	1809.23
402.59	1877.11
402.78	1790.51
402.97	1849.02
403.17	1949.67
403.36	1877.11
403.55	1959.03
403.74	1980.09
403.93	1907.54
404.13	2108.82
404.32	1947.33
404.51	2094.78
404.70	2015.20
404.89	2062.01
405.09	2010.52
405.28	1994.14
405.47	2071.37
405.66	2003.50
405.85	2010.52
406.05	2066.69
406.24	2033.93
406.43	2143.93
406.62	2200.10
406.81	2232.87
407.00	2104.14
407.20	2200.10
407.39	2228.19
407.58	2230.53
407.77	2272.66
407.96	2179.04
408.15	2244.57
408.34	2136.91
408.54	2368.62
408.73	2345.22
408.92	2406.07
409.11	2382.67
409.30	2385.01
409.49	2356.92
409.68	2286.70
409.87	2417.77
410.07	2396.71
410.26	2539.48
410.45	2499.69
410.64	2506.71
410.83	2640.12
411.02	2518.42
411.21	2796.94
411.40	2796.94
411.59	2752.47
411.78	2766.51
411.98	2733.75
412.17	2864.82
412.36	2724.38
412.55	2839.07
412.74	2818.00
412.93	2836.73
413.12	2864.82
413.31	2951.42
413.50	3087.17
413.69	2909.29
413.88	3166.74
414.07	3082.49
414.26	3183.13
414.45	3206.53
414.64	3131.64
414.83	3108.23
415.02	3225.26
415.22	3314.20
415.41	3272.07
415.60	3199.51
415.79	3262.71
415.98	3288.45
416.17	3396.12
416.36	3382.07
416.55	3400.80
416.74	3368.03
416.93	3339.94
417.12	3541.23
417.31	3419.52
417.50	3407.82
417.69	3672.30
417.88	3578.68
418.07	3585.70
418.26	3655.92
418.45	3648.90
418.64	3749.54
418.83	3779.97
419.02	3789.33
419.21	3847.84
419.39	3747.20
419.58	3691.02
419.77	3655.92
419.96	3812.73
420.15	3761.24
420.34	3880.61
420.53	3845.50
420.72	4049.13
420.91	3911.04
421.10	4063.17
421.29	4133.39
421.48	3953.16
421.67	4067.85
421.86	3885.29
422.05	4053.81
422.24	3885.29
422.43	4056.15
422.61	3911.04
422.80	4100.62
422.99	4049.13
423.18	3978.91
423.37	4152.11
423.56	4056.15
423.75	4177.86
423.94	4056.15
424.13	3726.13
424.32	3976.57
424.50	4102.96
424.69	4215.30
424.88	4152.11
425.07	4077.21
425.26	4053.81
425.45	4077.21
425.64	4138.07
425.83	4191.90
426.01	4156.79
426.20	4215.30
426.39	4231.69
426.58	4086.58
426.77	4175.52
426.96	4173.18
427.15	4187.22
427.33	4367.44
427.52	4280.84
427.71	4285.52
427.90	4234.03
428.09	4304.25
428.28	4285.52
428.46	4194.24
428.65	4341.69
428.84	4313.61
429.03	4374.46
429.22	4224.67
429.40	4386.16
429.59	4308.93
429.78	4180.20
429.97	4086.58
430.16	4128.70
430.34	4217.65
430.53	4250.41
430.72	4449.36
430.91	4386.16
431.10	4491.49
431.28	4690.43
431.47	4781.71
431.66	4725.54
431.85	4767.67
432.03	4842.57
432.22	4901.08
432.41	4748.95
432.60	4940.87
432.79	4835.55
432.97	4975.98
433.16	4844.91
433.35	4887.04
433.54	4887.04
433.72	4774.69
433.91	4919.81
434.10	4945.55
434.28	5064.92
434.47	5041.51
434.66	5210.03
434.85	5095.35
435.03	5219.39
435.22	5193.65
435.41	5387.91
435.59	5425.36
435.78	5313.02
435.97	5413.66
436.16	5254.50
436.34	5320.04
436.53	5430.04
436.72	5530.69
436.90	5352.81
437.09	5320.04
437.28	5259.18
437.46	5628.99
437.65	5483.88
437.84	5439.40
438.02	5495.58
438.21	5427.70
438.40	5282.59
438.58	5537.71
438.77	5638.35
438.96	5474.51
439.14	5729.63
439.33	5853.68
439.52	5968.37
439.70	5940.28
439.89	6029.22
440.08	5853.68
440.26	5987.09
440.45	5830.27
440.63	5968.37
440.82	6267.95
441.01	6150.93
441.19	6242.21
441.38	6291.36
441.57	6431.79
441.75	6345.19
441.94	6651.80
442.12	6359.24
442.31	6609.67
442.50	6614.35
442.68	6427.11
442.87	6455.20
443.05	6647.12
443.24	6715.00
443.43	6792.23
443.61	6965.43
443.80	6813.30
443.98	6572.22
444.17	6485.62
444.35	6773.51
444.54	6796.92
444.73	6822.66
444.91	6733.72
445.10	6902.24
445.28	6986.50
445.47	6537.12
445.65	6773.51
445.84	6825.00
446.02	6754.79
446.21	6862.45
446.39	6724.36
446.58	6888.20
446.77	7040.33
446.95	6581.59
447.14	6906.92
447.32	7047.35
447.51	6956.07
447.69	7056.72
447.88	6946.71
448.06	6937.35
448.25	7016.93
448.43	7183.10
448.62	6963.09
448.80	6953.73
448.99	7173.74
449.17	7028.63
449.36	7052.03
449.54	7342.26
449.73	7485.03
449.91	7726.11
450.10	7375.03
450.28	7503.76
450.46	7466.31
450.65	7435.88
450.83	7548.23
451.02	7653.55
451.20	7496.74
451.39	7564.61
451.57	7583.34
451.76	7620.78
451.94	7599.72
452.13	7492.05
452.31	7562.27
452.49	7372.69
452.68	7658.23
452.86	7531.84
453.05	7548.23
453.23	7536.52
453.42	7543.55
453.60	7693.34
453.78	7927.39
453.97	7749.51
454.15	7555.25
454.34	7578.65
454.52	7864.20
454.70	7777.60
454.89	7889.95
455.07	8025.70
455.26	7934.42
455.44	8210.60
455.62	7899.31
455.81	8100.59
455.99	8168.47
456.17	8182.51
456.36	8177.83
456.54	8100.59
456.73	8362.73
456.91	8381.46
457.09	8580.40
457.28	8617.85
457.46	8318.26
457.64	8470.40
457.83	8421.25
458.01	8318.26
458.19	8561.68
458.38	8493.80
458.56	8669.34
458.74	8678.71
458.93	8847.22
459.11	8571.04
459.29	8608.49
459.48	8753.60
459.66	8748.92
459.84	8835.52
460.03	8882.33
460.21	8842.54
460.39	9018.08
460.57	8865.95
460.76	8968.93
460.94	9280.22
461.12	9100.00
461.31	8929.14
461.49	9013.40
461.67	9083.62
461.85	8982.98
462.04	9200.65
462.22	9240.44
462.40	9338.74
462.59	9465.13
462.77	9076.60
462.95	9268.52
463.13	9415.98
463.32	9193.62
463.50	9563.43
463.68	9390.23
463.86	9640.67
464.05	9128.09
464.23	9284.91
464.41	9437.04
464.59	9298.95
464.78	9504.92
464.96	9434.70
465.14	9448.74
465.32	9558.75
465.50	9537.68
465.69	9523.64
465.87	9568.11
466.05	9423.00
466.23	9703.86
466.41	9685.14
466.60	9605.56
466.78	9495.55
466.96	9565.77
467.14	9715.56
467.32	9650.03
467.51	9916.85
467.69	9664.07
467.87	9657.05
468.05	9937.91
468.23	9685.14
468.41	9935.57
468.60	9874.72
468.78	10017.49
468.96	9930.89
469.14	10033.88
469.32	10127.50
469.50	9893.44
469.69	10169.63
469.87	10083.03
470.05	10239.84
470.23	10017.49
470.41	10256.23
470.59	10293.68
470.77	10132.18
470.95	10408.36
471.14	10380.28
471.32	10228.14
471.50	10792.21
471.68	10700.93
471.86	10768.80
472.04	10899.87
472.22	11108.18
472.40	10630.71
472.58	10787.53
472.77	10958.39
472.95	10927.96
473.13	11136.27
473.31	11028.60
473.49	10946.69
473.67	11154.99
473.85	11229.89
474.03	11442.88
474.21	11480.33
474.39	11433.52
474.57	11515.44
474.75	11702.68
474.93	11524.80
475.12	11592.67
475.30	11606.72
475.48	11676.93
475.66	11779.92
475.84	11602.04
476.02	11824.39
476.20	11899.28
476.38	12035.03
476.56	12245.68
476.74	12360.37
476.92	12222.28
477.10	12308.88
477.28	12596.76
477.46	12582.72
477.64	12594.42
477.82	12821.45
478.00	13123.38
478.18	12762.94
478.36	13149.13
478.54	13067.21
478.72	13144.45
478.90	13467.44
479.08	13460.42
479.26	13699.16
479.44	13542.34
479.62	13607.87
479.80	13855.97
479.98	13710.86
480.16	14068.96
480.34	13984.70
480.52	14546.43
480.70	14321.74
480.88	14218.75
481.06	14375.57
481.24	14640.05
481.41	14829.63
481.59	14977.09
481.77	14979.43
481.95	14593.24
482.13	15169.01
482.31	15208.80
482.49	15700.31
482.67	15267.31
482.85	15627.76
483.03	15784.57
483.21	15953.09
483.39	15910.96
483.57	16046.71
483.74	16184.80
483.92	16439.92
484.10	16128.63
484.28	16320.56
484.46	16821.43
484.64	16685.68
484.82	16666.95
485.00	16788.66
485.18	16849.52
485.35	17015.69
485.53	16755.90
485.71	16783.98
485.89	16882.28
486.07	16858.88
486.25	17043.78
486.43	17429.97
486.61	17631.26
486.78	18052.55
486.96	18288.95
487.14	18310.01
487.32	18129.79
487.50	18576.83
487.68	18644.71
487.85	18965.36
488.03	19349.21
488.21	18934.93
488.39	19513.05
488.57	19353.89
488.75	19545.81
488.92	19721.35
489.10	20098.18
489.28	20126.27
489.46	20374.36
489.64	20278.40
489.81	20842.47
489.99	20798.00
490.17	21254.40
490.35	20957.16
490.53	21167.80
490.70	21261.43
490.88	21205.25
491.06	21408.88
491.24	21266.11
491.41	21544.63
491.59	21476.76
491.77	21584.42
491.95	21710.81
492.13	22001.04
492.30	22359.14
492.48	22199.98
492.66	22263.18
492.84	22450.42
493.01	22934.91
493.19	22885.76
493.37	22939.59
493.54	22876.40
493.72	23175.98
493.90	23339.82
494.08	23824.31
494.25	24261.99
494.43	23997.51
494.61	24510.09
494.79	24552.22
494.96	24222.20
495.14	24313.48
495.32	24697.33
495.49	24456.26
495.67	24919.68
495.85	24959.47
496.02	25273.10
496.20	25069.48
496.38	25394.81
496.55	25315.23
496.73	26071.23
496.91	25989.31
497.09	26045.48
497.26	26026.76
497.44	25703.76
497.62	26052.50
497.79	26356.77
497.97	26579.12
498.14	26361.45
498.32	26630.62
498.50	26670.40
498.67	26757.00
498.85	26937.23
499.03	27157.24
499.20	27510.66
499.38	27124.47
499.56	27536.40
499.73	27477.89
499.91	27718.96
500.08	27604.28
500.26	27012.12
500.44	27644.07
500.61	27372.57
500.79	27288.31
500.97	27814.93
501.14	28208.14
501.32	27971.74
501.49	28039.62
501.67	27974.08
501.84	28233.88
502.02	28435.17
502.20	28505.38
502.37	28460.91
502.55	28912.64
502.72	29069.45
502.90	29036.69
503.07	28730.08
503.25	29376.06
503.43	29071.79
503.60	28858.81
503.78	29223.93
503.95	29181.80
504.13	29366.70
504.30	29502.45
504.48	29277.76
504.65	29860.55
504.83	30335.68
505.01	30466.75
505.18	30431.65
505.36	30331.00
505.53	30551.01
505.71	30511.22
505.88	30883.37
506.06	30602.50
506.23	30569.74
506.41	30260.79
506.58	30962.95
506.76	31035.50
506.93	31145.51
507.11	30558.03
507.28	31131.47
507.46	30874.01
507.63	30998.06
507.81	31065.93
507.98	31147.85
508.16	31473.18
508.33	31913.20
508.50	31798.52
508.68	32151.94
508.85	32268.97
509.03	32039.59
509.20	31992.78
509.38	32545.15
509.55	32533.45
509.73	32238.54
509.90	32573.24
510.08	32662.18
510.25	32357.91
510.42	32500.68
510.60	32563.87
510.77	32898.57
510.95	33186.46
511.12	32765.16
511.30	33230.93
511.47	33706.05
511.64	33495.41
511.82	33523.49
511.99	33263.69
512.17	33514.13
512.34	33481.36
512.51	33413.49
512.69	33584.35
512.86	33996.28
513.04	33642.86
513.21	33940.11
513.38	33406.47
513.56	34085.22
513.73	33663.93
513.90	34197.57
514.08	34359.06
514.25	33855.85
514.43	34366.09
514.60	34799.08
514.77	34658.65
514.95	34642.27
515.12	34714.83
515.29	34848.24
515.47	34855.26
515.64	34948.88
515.81	34920.79
515.99	34724.19
516.16	34536.94
516.33	34752.27
516.51	34646.95
516.68	34190.55
516.85	34230.33
517.03	34630.57
517.20	35131.44
517.37	35012.07
517.54	35428.69
517.72	35161.87
517.89	35079.95
518.06	34939.52
518.24	34717.17
518.41	35225.06
518.58	35344.43
518.75	35517.63
518.93	35604.23
519.10	35716.58
519.27	36100.42
519.45	35938.93
519.62	36107.44
519.79	36730.03
519.96	36329.80
520.14	36435.12
520.31	36041.91
520.48	36533.42
520.65	36545.12
520.83	36793.22
521.00	37083.45
521.17	37158.34
521.34	37312.82
521.52	37275.37
521.69	37221.54
521.86	37254.31
522.03	37109.19
522.20	37069.40
522.38	37242.60
522.55	37436.87
522.72	37256.65
522.89	37544.53
523.07	38052.43
523.24	37408.78
523.41	37801.99
523.58	38153.07
523.75	38679.69
523.92	38068.81
524.10	38307.55
524.27	38176.48
524.44	38113.28
524.61	38714.80
524.78	38726.50
524.96	38209.25
525.13	38529.90
525.30	38593.09
525.47	39302.28
525.64	38873.96
525.81	38710.12
525.98	38803.74
526.16	38328.61
526.33	38019.66
526.50	38508.83
526.67	37881.57
526.84	37907.32
527.01	38155.41
527.18	38752.25
527.36	39201.63
527.53	39555.05
527.70	39363.13
527.87	39456.75
528.04	39456.75
528.21	39262.49
528.38	39604.20
528.55	40037.20
528.72	40025.50
528.89	40268.92
529.07	39697.83
529.24	39515.26
529.41	40025.50
529.58	39887.41
529.75	39871.03
529.92	39894.43
530.09	40369.56
530.26	40231.47
530.43	40182.32
530.60	40271.26
530.77	40280.62
530.94	40498.29
531.11	40458.50
531.28	40650.42
531.46	40474.88
531.63	40484.25
531.80	40566.16
531.97	40542.76
532.14	40645.74
532.31	40224.45
532.48	40652.76
532.65	40903.20
532.82	40559.14
532.99	41050.66
533.16	40552.12
533.33	41123.21
533.50	41359.61
533.67	40545.10
533.84	40844.69
534.01	41237.90
534.18	41057.68
534.35	41097.47
534.52	41214.49
534.69	41649.83
534.86	41663.88
535.03	41825.37
535.20	42052.41
535.37	42319.23
535.54	42122.62
535.71	41743.45
535.88	41937.72
536.05	41771.54
536.22	41696.64
536.38	42078.15
536.55	41947.08
536.72	41645.15
536.89	41764.52
537.06	41808.99
537.23	42127.30
537.40	42190.50
537.57	42124.96
537.74	42279.44
537.91	42707.76
538.08	42122.62
538.25	41867.50
538.42	42197.52
538.59	42274.76
538.75	42281.78
538.92	42527.53
539.09	42616.47
539.26	42089.85
539.43	42237.31
539.60	42302.84
539.77	42316.89
539.94	42483.06
540.11	42251.35
540.28	42218.58
540.44	42602.43
540.61	42586.05
540.78	42000.91
540.95	42663.28
541.12	42326.25
541.29	42749.88
541.46	42490.09
541.62	43072.88
541.79	43255.44
541.96	42614.13
542.13	42799.04
542.30	42871.59
542.47	43047.13
542.63	42829.46
542.80	43423.96
542.97	43482.47
543.14	43650.99
543.31	43632.27
543.48	43669.72
543.64	43814.83
543.81	43973.98
543.98	43667.37
544.15	44088.67
544.32	44107.40
544.48	44076.97
544.65	44095.69
544.82	44186.97
544.99	43950.58
545.16	43753.97
545.32	44140.16
545.49	44374.22
545.66	44437.41
545.83	44409.32
546.00	44210.38
546.16	44746.36
546.33	44083.99
546.50	43929.51
546.67	44484.22
546.83	43955.26
547.00	44275.91
547.17	43999.73
547.34	44474.86
547.50	44091.01
547.67	44362.51
547.84	44470.18
548.00	44573.16
548.17	44535.71
548.34	44580.18
548.51	45083.40
548.67	44500.61
548.84	44891.48
549.01	44814.24
549.18	44865.73
549.34	44538.05
549.51	44861.05
549.68	45099.78
549.84	44966.37
550.01	45209.79
550.18	44800.19
550.34	45074.04
550.51	44968.71
550.68	44783.81
550.84	44940.63
551.01	45434.48
551.18	45092.76
551.34	45057.65
551.51	45219.15
551.68	45617.04
551.84	45280.00
552.01	45282.34
552.18	45530.44
552.34	45251.92
552.51	45120.85
552.68	45319.79
552.84	45715.34
553.01	45876.84
553.18	45588.95
553.34	45947.06
553.51	45371.28
553.67	45242.56
553.84	45811.31
554.01	45610.02
554.17	46059.40
554.34	45476.61
554.51	45991.53
554.67	45570.23
554.84	45698.96
555.00	45284.68
555.17	45642.79
555.33	45434.48
555.50	45902.59
555.67	45542.14
555.83	45720.02
556.00	45755.13
556.16	46108.55
556.33	45399.37
556.50	45787.90
556.66	45785.56
556.83	45635.77
556.99	46115.58
557.16	46036.00
557.32	45830.03
557.49	46106.21
557.65	45869.82
557.82	46248.99
557.98	46075.79
558.15	45832.37
558.32	46185.79
558.48	45820.67
558.65	46012.59
558.81	45886.20
558.98	45478.95
559.14	45787.90
559.31	46033.66
559.47	46485.38
559.64	45951.74
559.80	46321.54
559.97	46499.42
560.13	46344.95
560.30	46202.18
560.46	46045.36
560.63	46539.21
560.79	46213.88
560.96	46906.68
561.12	46185.79
561.29	46241.96
561.45	46319.20
561.61	46246.65
561.78	46094.51
561.94	46368.35
562.11	46047.70
562.27	46059.40
562.44	46628.15
562.60	46494.74
562.77	46422.19
562.93	46410.48
563.10	46986.25
563.26	46492.40
563.42	46590.70
563.59	46466.66
563.75	46340.27
563.92	46770.93
564.08	46487.72
564.24	46859.87
564.41	46745.18
564.57	46801.35
564.74	46831.78
564.90	46740.50
565.07	46539.21
565.23	46096.85
565.39	46263.03
565.56	46717.09
565.72	46204.52
565.88	46417.50
566.05	46358.99
566.21	46763.90
566.38	46581.34
566.54	46686.67
566.70	47091.58
566.87	46869.23
567.03	46909.02
567.19	47131.37
567.36	47079.88
567.52	46857.52
567.68	46918.38
567.85	46504.10
568.01	46728.80
568.17	46880.93
568.34	46990.94
568.50	46857.52
568.66	46656.24
568.83	46689.01
568.99	46581.34
569.15	46880.93
569.32	46927.74
569.48	46380.06
569.64	46904.34
569.81	46745.18
569.97	46843.48
570.13	47112.64
570.30	46209.20
570.46	46515.81
570.62	46358.99
570.78	46756.88
570.95	46686.67
571.11	46635.17
571.27	46911.36
571.43	46424.53
571.60	46738.16
571.76	46773.27
571.92	46784.97
572.09	46689.01
572.25	46719.43
572.41	46775.61
572.57	47166.48
572.74	47313.93
572.90	46979.23
573.06	47320.95
573.22	46700.71
573.38	46815.40
573.55	46431.55
573.71	47091.58
573.87	46836.46
574.03	46789.65
574.20	46913.70
574.36	46593.04
574.52	46969.87
574.68	46855.18
574.84	46892.63
575.01	46930.08
575.17	46951.15
575.33	46628.15
575.49	46883.27
575.65	46960.51
575.82	46820.08
575.98	46595.38
576.14	47161.79
576.30	47267.12
576.46	47044.77
576.62	46637.51
576.79	46960.51
576.95	46726.46
577.11	46885.61
577.27	47302.23
577.43	46857.52
577.59	46972.21
577.75	46836.46
577.92	46398.78
578.08	46899.65
578.24	46674.96
578.40	46391.76
578.56	46693.69
578.72	46869.23
578.88	47166.48
579.04	47217.97
579.21	46815.40
579.37	47105.62
579.53	46951.15
579.69	46838.80
579.85	47114.98
580.01	47098.60
580.17	46759.22
580.33	46789.65
580.49	46827.10
580.65	46773.27
580.82	47358.40
580.98	47072.85
581.14	46665.60
581.30	47143.07
581.46	46712.41
581.62	47098.60
581.78	47068.17
581.94	47175.84
582.10	46810.71
582.26	46834.12
582.42	46939.44
582.58	46902.00
582.74	47093.92
582.90	47379.46
583.06	46951.15
583.22	47423.93
583.38	47473.09
583.54	47030.72
583.70	47203.92
583.86	46937.10
584.02	46979.23
584.18	47166.48
584.34	46976.89
584.50	47009.66
584.66	46932.42
584.82	46981.57
584.98	46799.01
585.14	47070.51
585.30	46770.93
585.46	46986.25
585.62	46597.73
585.78	46756.88
585.94	46686.67
586.10	46689.01
586.26	46686.67
586.42	47342.02
586.58	46866.89
586.74	47140.73
586.90	46801.35
587.06	46913.70
587.22	47449.68
587.38	46658.58
587.54	46824.76
587.70	47199.24
587.86	47042.43
588.02	46649.22
588.18	46703.05
588.34	47203.92
588.49	46396.44
588.65	45879.18
588.81	46284.09
588.97	46796.67
589.13	46188.13
589.29	46415.16
589.45	46927.74
589.61	46745.18
589.77	46983.91
589.93	46679.64
590.08	47157.11
590.24	47129.03
590.40	47040.09
590.56	47206.26
590.72	47164.14
590.88	46871.57
591.04	47306.91
591.20	47636.92
591.35	47503.51
591.51	47564.37
591.67	46944.12
591.83	47243.71
591.99	46979.23
592.15	47496.49
592.31	46946.47
592.46	47636.92
592.62	47599.47
592.78	47232.01
592.94	47349.04
593.10	46855.18
593.26	47304.57
593.41	47152.43
593.57	47180.52
593.73	47248.39
593.89	46976.89
594.05	47377.12
594.20	47299.89
594.36	47084.56
594.52	46880.93
594.68	46974.55
594.84	47189.88
594.99	47030.72
595.15	47051.79
595.31	47571.39
595.47	47175.84
595.62	47019.02
595.78	46859.87
595.94	47650.97
596.10	47672.03
596.25	47124.35
596.41	47138.39
596.57	46887.95
596.73	47033.07
596.88	46885.61
597.04	47189.88
597.20	47337.33
597.36	47217.97
597.51	47435.64
597.67	47208.61
597.83	47278.82
597.99	47746.93
598.14	47299.89
598.30	47185.20
598.46	47232.01
598.61	47384.15
598.77	46909.02
598.93	46834.12
599.09	47089.24
599.24	47742.25
599.40	47573.73
599.56	47407.55
599.71	47224.99
599.87	47498.83
600.03	47093.92
600.18	46539.21
600.34	47243.71
600.50	46887.95
600.65	47103.28
600.81	47728.20
600.97	47437.98
601.12	47454.36
601.28	46756.88
601.44	47178.18
601.59	47110.30
601.75	46490.06
601.91	47037.75
602.06	46799.01
602.22	47377.12
602.37	47098.60
602.53	47274.14
602.69	47271.80
602.84	46930.08
603.00	46691.35
603.16	47208.61
603.31	46894.97
603.47	47487.13
603.62	46946.47
603.78	46745.18
603.94	47065.83
604.09	47304.57
604.25	47402.87
604.40	47084.56
604.56	47234.35
604.71	47356.06
604.87	47035.41
605.03	46621.13
605.18	46763.90
605.34	46911.36
605.49	46490.06
605.65	47159.45
605.80	46815.40
605.96	47262.44
606.12	47168.82
606.27	47072.85
606.43	46775.61
606.58	47028.38
606.74	46485.38
606.89	46855.18
607.05	47222.65
607.20	46941.78
607.36	46761.56
607.51	46955.83
607.67	47089.24
607.82	47044.77
607.98	46562.62
608.13	46286.43
608.29	46525.17
608.44	46576.66
608.60	46319.20
608.75	46768.58
608.91	46859.87
609.06	46501.76
609.22	46550.91
609.37	46738.16
609.53	46902.00
609.68	46593.04
609.84	46260.69
609.99	46314.52
610.15	46106.21
610.30	46611.77
610.46	46113.23
610.61	46401.12
610.76	46529.85
610.92	46469.00
611.07	46745.18
611.23	46822.42
611.38	46354.31
611.54	46504.10
611.69	46019.61
611.84	46487.72
612.00	46026.63
612.15	45895.56
612.31	46534.53
612.46	46045.36
612.62	46665.60
612.77	46349.63
612.92	46396.44
613.08	46096.85
613.23	46178.77
613.39	45603.00
613.54	45350.22
613.69	45626.40
613.85	45977.48
614.00	46550.91
614.15	46506.44
614.31	46248.99
614.46	46473.68
614.62	46087.49
614.77	46017.27
614.92	46146.00
615.08	46143.66
615.23	45670.87
615.38	45586.61
615.54	45563.21
615.69	45188.72
615.84	45483.63
616.00	46204.52
616.15	45642.79
616.30	45715.34
616.46	44870.41
616.61	45579.59
616.76	45411.07
616.92	45027.23
617.07	45317.45
617.22	45478.95
617.37	45354.90
617.53	45741.09
617.68	45727.05
617.83	45893.22
617.99	45439.16
618.14	45226.17
618.29	45413.41
618.45	44832.96
618.60	44666.78
618.75	45006.16
618.90	45345.54
619.06	44891.48
619.21	45694.28
619.36	45621.72
619.51	44694.87
619.67	45242.56
619.82	45413.41
619.97	45219.15
620.12	45240.21
620.28	44690.19
620.43	45158.30
620.58	45280.00
620.73	44767.43
620.89	44788.49
621.04	45034.25
621.19	45141.91
621.34	45050.63
621.49	44999.14
621.65	44634.02
621.80	44952.33
621.95	44624.65
622.10	45212.13
622.25	44322.72
622.41	44528.69
622.56	44444.43
622.71	44966.37
622.86	44467.84
623.01	44509.97
623.16	44456.14
623.32	44430.39
623.47	44282.94
623.62	44451.45
623.77	44203.36
623.92	44678.49
624.07	44177.61
624.23	44205.70
624.38	44311.02
624.53	44156.55
624.68	44243.15
624.83	44545.08
624.98	44472.52
625.13	43863.98
625.29	44067.61
625.44	44093.35
625.59	43648.65
625.74	43948.24
625.89	43508.22
626.04	43632.27
626.19	44088.67
626.34	43866.32
626.49	43435.66
626.65	43749.29
626.80	44093.35
626.95	43784.40
627.10	43545.67
627.25	44004.41
627.40	43613.54
627.55	43220.33
627.70	43533.96
627.85	43323.32
628.00	43735.25
628.15	43344.38
628.30	43173.52
628.45	43494.18
628.60	43126.71
628.76	43470.77
628.91	43552.69
629.06	43309.27
629.21	43033.09
629.36	42682.01
629.51	43185.22
629.66	43012.02
629.81	42529.87
629.96	43019.05
630.11	43349.06
630.26	43093.94
630.41	43084.58
630.56	42983.94
630.71	42925.42
630.86	43075.22
631.01	42693.71
631.16	42782.65
631.31	42862.23
631.46	42574.34
631.61	42953.51
631.76	42873.93
631.91	42773.29
632.06	42703.07
632.21	43105.65
632.36	43068.20
632.51	42155.39
632.66	42513.49
632.81	42244.33
632.96	42462.00
633.10	42515.83
633.25	42707.76
633.40	42298.16
633.55	42738.18
633.70	42321.57
633.85	42139.00
634.00	42265.39
634.15	42567.32
634.30	42398.80
634.45	42808.40
634.60	42398.80
634.75	42429.23
634.90	41766.86
635.05	42450.30
635.19	42087.51
635.34	42043.04
635.49	41881.55
635.64	42225.60
635.79	42253.69
635.94	41930.70
636.09	41989.21
636.24	41811.33
636.39	41181.73
636.53	41860.48
636.68	41787.92
636.83	41675.58
636.98	41909.63
637.13	41235.56
637.28	41659.20
637.43	42436.25
637.57	42333.27
637.72	41078.74
637.87	41783.24
638.02	42082.83
638.17	41762.18
638.32	41780.90
638.46	41780.90
638.61	41429.82
638.76	41322.16
638.91	41518.76
639.06	41160.66
639.20	41638.13
639.35	41736.43
639.50	41476.63
639.65	41727.07
639.80	41469.61
639.94	41277.69
640.09	41193.43
640.24	40849.37
640.39	41144.28
640.54	41219.17
640.68	41287.05
640.83	41111.51
640.98	40753.41
641.13	40935.97
641.27	41010.87
641.42	41123.21
641.57	41518.76
641.72	41181.73
641.86	40868.09
642.01	40788.52
642.16	40559.14
642.31	40175.30
642.45	40795.54
642.60	40711.28
642.75	40837.67
642.90	40622.34
643.04	40896.18
643.19	40367.22
643.34	40996.82
643.48	40126.14
643.63	41006.19
643.78	40425.73
643.93	40959.38
644.07	41198.11
644.22	40512.33
644.37	40341.47
644.51	40119.12
644.66	40371.90
644.81	40350.84
644.95	40893.84
645.10	40257.21
645.25	40367.22
645.39	40818.94
645.54	40612.98
645.69	40156.57
645.83	40100.40
645.98	40149.55
646.13	39613.57
646.27	40334.45
646.42	40086.36
646.57	39770.38
646.71	39746.98
646.86	40449.14
647.00	40037.20
647.15	40320.41
647.30	39915.50
647.44	39852.30
647.59	39974.01
647.74	40280.62
647.88	39880.39
648.03	39917.84
648.17	40158.91
648.32	39782.09
648.47	39718.89
648.61	39379.51
648.76	39892.09
648.90	39742.30
649.05	39625.27
649.20	39459.09
649.34	39388.88
649.49	39126.74
649.63	39498.88
649.78	39618.25
649.92	39777.40
650.07	39449.73
650.21	39405.26
650.36	39587.82
650.51	39608.89
650.65	40601.27
650.80	39971.67
650.94	39545.69
651.09	39379.51
651.23	39063.54
651.38	39173.55
651.52	39103.33
651.67	39187.59
651.81	38923.11
651.96	39234.40
652.10	39086.95
652.25	38902.04
652.39	38869.28
652.54	38995.67
652.68	38920.77
652.83	38836.51
652.97	39075.24
653.12	38759.27
653.26	38508.83
653.41	38698.42
653.55	38728.84
653.70	38693.74
653.84	38476.07
653.99	38707.78
654.13	38513.52
654.27	38611.82
654.42	38525.22
654.56	38391.81
654.71	38763.95
654.85	38707.78
655.00	38431.60
655.14	38522.88
655.29	38120.31
655.43	38000.94
655.57	38005.62
655.72	37694.33
655.86	37764.54
656.01	37596.03
656.15	37287.07
656.30	38012.64
656.44	38176.48
656.58	37584.32
656.73	37958.81
656.87	38010.30
657.01	37706.03
657.16	38361.38
657.30	37581.98
657.45	37621.77
657.59	37502.40
657.73	37926.04
657.88	38110.94
658.02	37979.87
658.16	38267.76
658.31	37916.68
658.45	37916.68
658.60	37649.86
658.74	38143.71
658.88	37848.80
659.03	37750.50
659.17	37366.65
659.31	37237.92
659.46	37289.42
659.60	37425.17
659.74	37298.78
659.89	37027.28
660.03	37202.82
660.17	37401.76
660.32	37450.91
660.46	37745.82
660.60	37137.28
660.74	36868.12
660.89	37191.11
661.03	36610.66
661.17	37069.40
661.32	36957.06
661.46	37001.53
661.60	36694.92
661.74	36507.68
661.89	37219.20
662.03	37055.36
662.17	36624.70
662.31	36840.03
662.46	36856.42
662.60	36931.31
662.74	36797.90
662.88	36802.58
663.03	36210.43
663.17	36474.91
663.31	36130.85
663.45	36212.77
663.60	36341.50
663.74	35913.18
663.88	36140.21
664.02	36053.61
664.17	36336.82
664.31	35594.87
664.45	35590.19
664.59	35704.87
664.73	35704.87
664.88	35990.42
665.02	35754.02
665.16	35393.58
665.30	34976.97
665.44	35864.03
665.59	35243.79
665.73	35463.80
665.87	35110.38
666.01	34993.35
666.15	35229.74
666.29	35381.88
666.44	35234.42
666.58	35112.72
666.72	35138.46
666.86	34843.56
667.00	35229.74
667.14	34389.49
667.28	34314.59
667.43	34761.64
667.57	34998.03
667.71	34684.40
667.85	34672.70
667.99	34560.35
668.13	34511.20
668.27	34689.08
668.41	34803.77
668.56	34022.03
668.70	34686.74
668.84	34422.26
668.98	34080.54
669.12	34209.27
669.26	34181.18
669.40	33914.36
669.54	34029.05
669.68	34017.35
669.82	33907.34
669.96	33362.00
670.10	33460.30
670.25	33593.71
670.39	33418.17
670.53	33329.23
670.67	33415.83
670.81	33406.47
670.95	33099.86
671.09	33251.99
671.23	33371.36
671.37	33200.50
671.51	33446.26
671.65	33181.77
671.79	32781.54
671.93	32905.59
672.07	32987.51
672.21	33067.09
672.35	33071.77
672.49	32917.29
672.63	32783.88
672.77	32851.76
672.91	32753.46
673.05	32467.91
673.19	32500.68
673.33	31889.80
673.47	31538.72
673.61	32121.51
673.75	31981.08
673.89	31929.59
674.03	31981.08
674.17	32238.54
674.31	31409.99
674.45	31592.55
674.59	31363.18
674.73	31952.99
674.87	31805.54
675.01	31527.02
675.15	31042.53
675.29	31182.96
675.43	31033.16
675.56	30738.26
675.70	31021.46
675.84	30852.94
675.98	30340.36
676.12	30930.18
676.26	31035.50
676.40	30806.13
676.54	30845.92
676.68	30670.38
676.82	29832.47
676.96	29886.30
677.10	30536.97
677.23	30176.53
677.37	30150.78
677.51	30363.77
677.65	30106.31
677.79	29766.93
677.93	29326.91
678.07	29516.50
678.21	29191.16
678.34	29120.95
678.48	29149.03
678.62	28767.52
678.76	28957.11
678.90	28952.43
679.04	28863.49
679.18	28517.09
679.31	28730.08
679.45	28180.05
679.59	28086.43
679.73	27791.52
679.87	28376.66
680.00	28676.24
680.14	28098.13
680.28	28304.10
680.42	28189.41
680.56	27779.82
680.70	28142.60
680.83	28318.14
680.97	27899.19
681.11	27854.72
681.25	27468.53
681.39	27971.74
681.52	27866.42
681.66	27267.24
681.80	27339.80
681.94	27487.25
682.07	27421.72
682.21	26647.00
682.35	26843.60
682.49	27007.44
682.62	26464.44
682.76	26569.76
682.90	26436.35
683.04	26359.11
683.17	26494.86
683.31	26244.43
683.45	26452.73
683.59	26129.74
683.72	26029.10
683.86	25825.47
684.00	25881.64
684.13	25958.88
684.27	25689.72
684.41	25530.56
684.55	25560.99
684.68	25380.77
684.82	25399.49
684.96	25371.41
685.09	25270.76
685.23	25036.71
685.37	25401.83
685.50	25109.27
685.64	24826.06
685.78	24662.22
685.91	24648.18
686.05	24526.47
686.19	24542.86
686.32	23997.51
686.46	23688.56
686.60	23468.55
686.73	23552.81
686.87	23447.49
687.01	23431.10
687.14	23639.41
687.28	23543.45
687.42	23473.23
687.55	22930.23
687.69	23164.28
687.82	23035.55
687.96	23283.65
688.10	23061.30
688.23	22927.89
688.37	22796.82
688.50	22972.36
688.64	23000.44
688.78	22590.85
688.91	22647.02
689.05	22782.77
689.18	22291.26
689.32	22380.20
689.46	22366.16
689.59	22581.49
689.73	22214.02
689.86	22017.42
690.00	22031.46
690.13	22012.74
690.27	21757.62
690.41	21762.30
690.54	21401.86
690.68	21523.57
690.81	21619.53
690.95	21455.69
691.08	21596.12
691.22	21259.09
691.35	21165.46
691.49	21556.33
691.62	21200.57
691.76	20903.32
691.89	21186.53
692.03	21036.74
692.16	20957.16
692.30	20758.21
692.43	20456.28
692.57	20510.11
692.70	20245.63
692.84	20383.73
692.97	20355.64
693.11	20376.70
693.24	20168.40
693.38	20119.24
693.51	19852.42
693.65	20212.87
693.78	19667.52
693.92	19742.42
694.05	19447.51
694.19	19431.13
694.32	19424.11
694.45	19599.65
694.59	19164.31
694.72	19236.86
694.86	18991.11
694.99	18867.06
695.13	19178.35
695.26	19091.75
695.39	18677.48
695.53	18986.43
695.66	18820.25
695.80	19082.39
695.93	18527.68
696.07	18654.07
696.20	18848.33
696.33	18555.77
696.47	18171.92
696.60	18345.12
696.73	18080.64
696.87	18012.76
697.00	18164.90
697.14	17905.10
697.27	17717.86
697.40	17528.27
697.54	17605.51
697.67	17420.61
697.80	17530.61
697.94	17303.58
698.07	17174.85
698.21	17390.18
698.34	17294.22
698.47	17352.73
698.61	16807.39
698.74	17032.08
698.87	16982.93
699.01	16830.79
699.14	16524.18
699.27	16566.31
699.40	16540.57
699.54	16552.27
699.67	16578.01
699.80	15988.20
699.94	16156.72
700.07	16159.06
700.20	16259.70
700.34	16081.82
700.47	16180.12
700.60	16266.72
700.73	16287.79
700.87	15847.77
701.00	15840.75
701.13	15564.56
701.26	15882.88
701.40	15679.25
701.53	15260.29
701.66	15466.26
701.79	15328.17
701.93	15176.03
702.06	15014.54
702.19	14979.43
702.32	15051.99
702.46	15169.01
702.59	15215.82
702.72	15328.17
702.85	14939.64
702.99	14934.96
703.12	14480.89
703.25	14494.94
703.38	14307.69
703.51	14368.55
703.65	14359.19
703.78	14569.83
703.91	14246.84
704.04	14326.42
704.17	14263.22
704.31	13912.14
704.44	13998.74
704.57	14029.17
704.70	13965.98
704.83	14012.79
704.96	14071.30
705.10	13877.04
705.23	13729.58
>>>>>End Processed Spectral Data<<<<<
