SpectraSuite Data File
++++++++++++++++++++++++++++++++++++
Date: Fri Oct 25 10:43:57 EDT 2013
User: price-jones
Dark Spectrum Present: No
Reference Spectrum Present: No
Number of Sampled Component Spectra: 1
Spectrometers: USB2+H05261
Integration Time (usec): 100000 (USB2+H05261)
Spectra Averaged: 1 (USB2+H05261)
Boxcar Smoothing: 0 (USB2+H05261)
Correct for Electrical Dark: No (USB2+H05261)
Strobe/Lamp Enabled: No (USB2+H05261)
Correct for Detector Non-linearity: No (USB2+H05261)
Correct for Stray Light: No (USB2+H05261)
Number of Pixels in Processed Spectrum: 2048
>>>>>Begin Processed Spectral Data<<<<<
365.73	91.28
365.92	91.28
366.12	91.28
366.32	53.83
366.52	18.72
366.72	49.15
366.91	58.51
367.11	44.47
367.31	30.43
367.51	35.11
367.70	84.26
367.90	105.32
368.10	0.00
368.30	16.38
368.49	0.00
368.69	49.15
368.89	91.28
369.09	37.45
369.28	39.79
369.48	44.47
369.68	110.01
369.87	149.79
370.07	124.05
370.27	145.11
370.47	152.13
370.66	362.78
370.86	454.06
371.06	507.90
371.25	517.26
371.45	559.39
371.65	475.13
371.84	463.43
372.04	421.30
372.24	458.74
372.44	454.06
372.63	496.19
372.83	440.02
373.03	484.49
373.22	519.60
373.42	543.00
373.62	524.28
373.81	582.79
374.01	610.88
374.21	582.79
374.40	629.60
374.60	566.41
374.79	517.26
374.99	566.41
375.19	587.47
375.38	578.11
375.58	601.52
375.78	592.16
375.97	594.50
376.17	683.44
376.37	638.97
376.56	690.46
376.76	592.16
376.95	550.03
377.15	571.09
377.35	702.16
377.54	622.58
377.74	657.69
377.93	744.29
378.13	681.10
378.33	739.61
378.52	730.25
378.72	720.88
378.91	660.03
379.11	669.39
379.31	653.01
379.50	610.88
379.70	699.82
379.89	720.88
380.09	641.31
380.28	713.86
380.48	716.20
380.68	723.23
380.87	702.16
381.07	788.76
381.26	662.37
381.46	723.23
381.65	706.84
381.85	681.10
382.04	763.01
382.24	692.80
382.43	730.25
382.63	704.50
382.83	772.38
383.02	788.76
383.22	793.44
383.41	734.93
383.61	755.99
383.80	777.06
384.00	772.38
384.19	791.10
384.39	760.67
384.58	718.54
384.78	837.91
384.97	887.06
385.17	699.82
385.36	826.21
385.56	823.87
385.75	840.25
385.95	847.27
386.14	821.53
386.34	826.21
386.53	835.57
386.72	837.91
386.92	870.68
387.11	889.40
387.31	882.38
387.50	915.15
387.70	821.53
387.89	884.72
388.09	983.02
388.28	905.79
388.48	842.59
388.67	945.58
388.86	990.05
389.06	863.66
389.25	964.30
389.45	929.19
389.64	931.53
389.84	992.39
390.03	1006.43
390.22	964.30
390.42	1083.67
390.61	1067.28
390.81	1069.62
391.00	1102.39
391.19	1011.11
391.39	1069.62
391.58	1041.54
391.78	1046.22
391.97	1050.90
392.16	1011.11
392.36	1057.92
392.55	1109.41
392.75	1086.01
392.94	976.00
393.13	999.41
393.33	894.08
393.52	992.39
393.71	1165.59
393.91	1055.58
394.10	1081.33
394.29	1165.59
394.49	1174.95
394.68	1252.19
394.88	1287.29
395.07	1268.57
395.26	1217.08
395.46	1217.08
395.65	1291.98
395.84	1259.21
396.04	1252.19
396.23	1102.39
396.42	1102.39
396.62	1151.54
396.81	1240.48
397.00	1317.72
397.19	1341.13
397.39	1399.64
397.58	1287.29
397.77	1493.26
397.97	1462.83
398.16	1437.09
398.35	1479.22
398.55	1554.12
398.74	1568.16
398.93	1465.18
399.12	1493.26
399.32	1549.43
399.51	1568.16
399.70	1650.08
399.90	1600.93
400.09	1682.85
400.28	1643.06
400.47	1673.48
400.67	1713.27
400.86	1743.70
401.05	1650.08
401.24	1668.80
401.44	1851.36
401.63	1661.78
401.82	1724.97
402.01	1755.40
402.21	1788.17
402.40	1717.95
402.59	1746.04
402.78	1792.85
402.97	1795.19
403.17	1797.53
403.36	1919.24
403.55	1900.52
403.74	1944.99
403.93	1914.56
404.13	1884.13
404.32	1884.13
404.51	1851.36
404.70	1825.62
404.89	1998.82
405.09	1987.11
405.28	1966.05
405.47	2026.90
405.66	2015.20
405.85	1973.07
406.05	2101.80
406.24	2040.95
406.43	2033.93
406.62	2085.42
406.81	2160.31
407.00	2099.46
407.20	2024.56
407.39	2071.37
407.58	2120.53
407.77	2221.17
407.96	2256.28
408.15	2282.02
408.34	2211.81
408.54	2380.32
408.73	2352.24
408.92	2317.13
409.11	2286.70
409.30	2263.30
409.49	2338.20
409.68	2345.22
409.87	2279.68
410.07	2424.80
410.26	2326.49
410.45	2448.20
410.64	2497.35
410.83	2576.93
411.02	2520.76
411.21	2649.49
411.40	2588.63
411.59	2684.59
411.78	2654.17
411.98	2616.72
412.17	2738.43
412.36	2705.66
412.55	2799.28
412.74	2832.05
412.93	2764.17
413.12	2726.72
413.31	2932.69
413.50	2881.20
413.69	2895.24
413.88	2909.29
414.07	2899.92
414.26	3019.29
414.45	2965.46
414.64	3019.29
414.83	3049.72
415.02	3141.00
415.22	3157.38
415.41	3220.58
415.60	3131.64
415.79	3222.92
415.98	3370.37
416.17	3410.16
416.36	3396.12
416.55	3243.98
416.74	3389.10
416.93	3265.05
417.12	3375.05
417.31	3328.24
417.50	3494.42
417.69	3517.83
417.88	3433.57
418.07	3480.38
418.26	3496.76
418.45	3461.65
418.64	3782.31
418.83	3712.09
419.02	3541.23
419.21	3669.96
419.39	3644.21
419.58	3625.49
419.77	3662.94
419.96	3641.87
420.15	3763.58
420.34	3726.13
420.53	3878.27
420.72	3932.10
420.91	3691.02
421.10	4067.85
421.29	3985.93
421.48	3941.46
421.67	3964.87
421.86	3955.51
422.05	3911.04
422.24	3845.50
422.43	3901.67
422.61	3927.42
422.80	4053.81
422.99	3997.64
423.18	3969.55
423.37	4063.17
423.56	4074.87
423.75	4053.81
423.94	3957.85
424.13	3726.13
424.32	3894.65
424.50	3936.78
424.69	4145.09
424.88	4070.19
425.07	3929.76
425.26	4011.68
425.45	4049.13
425.64	4049.13
425.83	4051.47
426.01	4035.08
426.20	4152.11
426.39	4105.30
426.58	3950.82
426.77	3969.55
426.96	4081.89
427.15	4154.45
427.33	4046.79
427.52	4058.49
427.71	4161.47
427.90	4212.96
428.09	4131.05
428.28	4131.05
428.46	4177.86
428.65	4184.88
428.84	4440.00
429.03	4280.84
429.22	4166.15
429.40	4236.37
429.59	4238.71
429.78	4051.47
429.97	4053.81
430.16	4067.85
430.34	4060.83
430.53	4294.88
430.72	4264.46
430.91	4381.48
431.10	4418.93
431.28	4582.77
431.47	4781.71
431.66	4865.97
431.85	4676.39
432.03	4552.34
432.22	4695.11
432.41	4770.01
432.60	4833.21
432.79	4880.02
432.97	4823.84
433.16	4842.57
433.35	4615.54
433.54	4760.65
433.72	4762.99
433.91	4842.57
434.10	4805.12
434.28	4816.82
434.47	4798.10
434.66	4947.89
434.85	4997.04
435.03	5022.79
435.22	5043.85
435.41	5298.97
435.59	5263.86
435.78	5174.92
435.97	5132.79
436.16	5181.95
436.34	5172.58
436.53	5249.82
436.72	5434.72
436.90	5071.94
437.09	5324.72
437.28	5057.90
437.46	5219.39
437.65	5240.46
437.84	5188.97
438.02	5198.33
438.21	5256.84
438.40	5167.90
438.58	5418.34
438.77	5671.12
438.96	5458.13
439.14	5799.85
439.33	5792.83
439.52	5668.78
439.70	5664.10
439.89	5720.27
440.08	5788.14
440.26	5701.54
440.45	5750.70
440.63	5944.96
440.82	6181.35
441.01	5968.37
441.19	6188.38
441.38	6324.13
441.57	6303.06
441.75	6303.06
441.94	6368.60
442.12	6333.49
442.31	6394.34
442.50	6604.99
442.68	6471.58
442.87	6523.07
443.05	6459.88
443.24	6513.71
443.43	6534.78
443.61	6822.66
443.80	6693.93
443.98	6494.99
444.17	6394.34
444.35	6628.40
444.54	6703.29
444.73	6841.39
444.91	6541.80
445.10	6677.55
445.28	6649.46
445.47	6492.65
445.65	6497.33
445.84	6682.23
446.02	6801.60
446.21	6679.89
446.39	6668.19
446.58	6736.06
446.77	6848.41
446.95	6656.48
447.14	6820.32
447.32	6794.58
447.51	6836.70
447.69	6825.00
447.88	6864.79
448.06	6871.81
448.25	6867.13
448.43	6925.65
448.62	6855.43
448.80	6785.21
448.99	6958.41
449.17	6899.90
449.36	6799.26
449.54	7119.91
449.73	7162.04
449.91	7094.16
450.10	7220.55
450.28	7478.01
450.46	7349.28
450.65	7480.35
450.83	7269.70
451.02	7260.34
451.20	7403.11
451.39	7353.96
451.57	7241.62
451.76	7248.64
451.94	7255.66
452.13	7368.01
452.31	7241.62
452.49	7241.62
452.68	7494.40
452.86	7176.08
453.05	7414.82
453.23	7353.96
453.42	7293.11
453.60	7389.07
453.78	7550.57
453.97	7433.54
454.15	7688.66
454.34	7382.05
454.52	7648.87
454.70	7756.54
454.89	7808.03
455.07	7861.86
455.26	7712.07
455.44	7719.09
455.62	7707.38
455.81	7648.87
455.99	7948.46
456.17	8074.85
456.36	7927.39
456.54	7889.95
456.73	8236.35
456.91	8276.13
457.09	8365.07
457.28	8554.66
457.46	8152.09
457.64	8339.33
457.83	8299.54
458.01	8093.57
458.19	8315.92
458.38	8379.12
458.56	8451.67
458.74	8573.38
458.93	8463.38
459.11	8439.97
459.29	8456.36
459.48	8339.33
459.66	8538.27
459.84	8603.81
460.03	8753.60
460.21	8538.27
460.39	8538.27
460.57	8697.43
460.76	8636.58
460.94	8987.66
461.12	8940.85
461.31	8990.00
461.49	8863.61
461.67	8674.03
461.85	9008.72
462.04	8952.55
462.22	9261.50
462.40	9001.70
462.59	9212.35
462.77	9193.62
462.95	9092.98
463.13	9013.40
463.32	9268.52
463.50	9146.81
463.68	8931.48
463.86	9090.64
464.05	9076.60
464.23	9062.55
464.41	9305.97
464.59	8889.35
464.78	9317.67
464.96	9261.50
465.14	9132.77
465.32	9373.85
465.50	9462.79
465.69	9472.15
465.87	9362.14
466.05	9483.85
466.23	9212.35
466.41	9364.48
466.60	9563.43
466.78	9547.05
466.96	9364.48
467.14	9563.43
467.32	9853.66
467.51	9657.05
467.69	9284.91
467.87	9643.01
468.05	9605.56
468.23	9451.08
468.41	9596.20
468.60	9689.82
468.78	9848.97
468.96	9771.74
469.14	9720.24
469.32	9881.74
469.50	9584.49
469.69	9823.23
469.87	9792.80
470.05	10080.69
470.23	9980.04
470.41	10111.11
470.59	10120.48
470.77	10143.88
470.95	9982.38
471.14	10455.17
471.32	10253.89
471.50	10487.94
471.68	10541.77
471.86	10527.73
472.04	10448.15
472.22	10871.79
472.40	10349.85
472.58	10434.11
472.77	10621.35
472.95	10778.17
473.13	11077.76
473.31	10883.49
473.49	10824.98
473.67	10878.81
473.85	10981.79
474.03	11063.71
474.21	11318.83
474.39	11412.45
474.57	11356.28
474.75	11431.18
474.93	11363.30
475.12	11300.11
475.30	11421.81
475.48	11370.32
475.66	11517.78
475.84	11426.50
476.02	11679.27
476.20	11489.69
476.38	11744.81
476.56	12177.81
476.74	11892.26
476.92	11957.80
477.10	12147.38
477.28	12191.85
477.46	12388.46
477.64	12416.54
477.82	12486.76
478.00	12629.53
478.18	12762.94
478.36	12821.45
478.54	12695.07
478.72	12903.37
478.90	13259.13
479.08	13348.08
479.26	13312.97
479.44	13247.43
479.62	13500.21
479.80	13741.29
479.98	13785.76
480.16	14279.61
480.34	13607.87
480.52	13965.98
480.70	14094.71
480.88	13809.16
481.06	13879.38
481.24	14148.54
481.41	14534.73
481.59	14654.09
481.77	14427.06
481.95	14483.24
482.13	15152.63
482.31	14569.83
482.49	14906.87
482.67	15152.63
482.85	15173.69
483.03	15421.79
483.21	15625.42
483.39	15349.23
483.57	15398.38
483.74	15997.56
483.92	16053.73
484.10	15992.88
484.28	16006.92
484.46	16400.13
484.64	16521.84
484.82	16262.04
485.00	16460.99
485.18	16739.51
485.35	16559.29
485.53	16673.98
485.71	16449.28
485.89	16697.38
486.07	16776.96
486.25	17032.08
486.43	17013.35
486.61	17434.65
486.78	17525.93
486.96	17563.38
487.14	17624.23
487.32	18120.43
487.50	18188.30
487.68	18567.47
487.85	19016.85
488.03	18860.04
488.21	19047.28
488.39	18789.82
488.57	18888.12
488.75	19150.26
488.92	19435.81
489.10	19592.62
489.28	19700.29
489.46	20166.06
489.64	20091.16
489.81	20255.00
489.99	20809.70
490.17	20594.37
490.35	20704.38
490.53	20854.17
490.70	20917.37
490.88	20805.02
491.06	21441.65
491.24	20994.61
491.41	21048.44
491.59	21158.44
491.77	21238.02
491.95	21511.86
492.13	21366.75
492.30	21942.52
492.48	22085.30
492.66	22106.36
492.84	22040.82
493.01	22574.47
493.19	22183.60
493.37	22354.46
493.54	22764.05
493.72	22862.35
493.90	22970.02
494.08	23391.31
494.25	23709.63
494.43	23613.66
494.61	23686.22
494.79	24018.58
494.96	23779.84
495.14	23836.02
495.32	24142.63
495.49	24105.18
495.67	24175.39
495.85	24383.70
496.02	24706.70
496.20	24678.61
496.38	24709.04
496.55	25008.62
496.73	25303.53
496.91	25076.50
497.09	25338.64
497.26	25450.99
497.44	25788.02
497.62	25261.40
497.79	25893.35
497.97	25605.46
498.14	25830.15
498.32	25818.45
498.50	26197.62
498.67	26689.13
498.85	26518.27
499.03	26749.98
499.20	26574.44
499.38	26862.33
499.56	26703.17
499.73	26647.00
499.91	26855.31
500.08	27204.05
500.26	26892.76
500.44	27173.62
500.61	26827.22
500.79	27199.37
500.97	27571.51
501.14	27676.83
501.32	27571.51
501.49	27381.93
501.67	27707.26
501.84	27665.13
502.02	27758.75
502.20	28236.22
502.37	28418.78
502.55	28142.60
502.72	28229.20
502.90	28741.78
503.07	28519.43
503.25	28620.07
503.43	28472.62
503.60	28458.57
503.78	28552.20
503.95	28783.91
504.13	28587.30
504.30	29336.27
504.48	28978.17
504.65	29315.21
504.83	29481.39
505.01	29582.03
505.18	29862.90
505.36	30103.97
505.53	30068.86
505.71	30302.92
505.88	30155.46
506.06	30094.61
506.23	30281.85
506.41	30050.14
506.58	30129.72
506.76	30661.02
506.93	30974.65
507.11	30679.74
507.28	30780.39
507.46	29979.92
507.63	30595.48
507.81	30595.48
507.98	30443.35
508.16	30885.71
508.33	30672.72
508.50	31044.87
508.68	31276.58
508.85	31700.22
509.03	31704.90
509.20	31653.40
509.38	31707.24
509.55	31613.62
509.73	31999.80
509.90	31648.72
510.08	31723.62
510.25	31887.46
510.42	32044.27
510.60	31964.70
510.77	32301.73
510.95	32329.82
511.12	32465.57
511.30	32802.61
511.47	32926.66
511.64	33015.60
511.82	32835.38
511.99	32781.54
512.17	33226.24
512.34	33006.23
512.51	33226.24
512.69	33362.00
512.86	33022.62
513.04	33647.54
513.21	33050.70
513.38	33055.39
513.56	33364.34
513.73	33251.99
513.90	33439.23
514.08	33624.14
514.25	33975.22
514.43	33790.31
514.60	33830.10
514.77	33757.55
514.95	34188.21
515.12	33673.29
515.29	34202.25
515.47	34398.85
515.64	34504.18
515.81	34525.24
515.99	34314.59
516.16	33963.51
516.33	33736.48
516.51	34218.63
516.68	33776.27
516.85	33628.82
517.03	34148.42
517.20	33867.55
517.37	34873.98
517.54	35012.07
517.72	34733.55
517.89	34478.43
518.06	34431.62
518.24	34841.21
518.41	34785.04
518.58	34885.68
518.75	35042.50
518.93	35667.42
519.10	35246.13
519.27	35761.05
519.45	35772.75
519.62	35878.07
519.79	35569.12
519.96	35814.88
520.14	35721.26
520.31	35737.64
520.48	36306.39
520.65	35903.82
520.83	36577.89
521.00	35988.08
521.17	36282.98
521.34	36503.00
521.52	36732.37
521.69	36613.00
521.86	36835.35
522.03	36865.78
522.20	36823.65
522.38	36968.76
522.55	37120.90
522.72	36903.23
522.89	36650.45
523.07	37373.67
523.24	37404.10
523.41	37715.39
523.58	37453.25
523.75	38096.90
523.92	38029.02
524.10	37521.13
524.27	37930.72
524.44	38162.43
524.61	37930.72
524.78	38066.47
524.96	37991.58
525.13	37954.13
525.30	38403.51
525.47	38192.86
525.64	37865.19
525.81	38029.02
525.98	37813.70
526.16	38108.60
526.33	37972.85
526.50	37900.29
526.67	37703.69
526.84	37961.15
527.01	38359.04
527.18	38190.52
527.36	38799.06
527.53	39182.91
527.70	38880.98
527.87	38859.91
528.04	38717.14
528.21	38857.57
528.38	39267.17
528.55	39367.81
528.72	39564.42
528.89	39363.13
529.07	39257.81
529.24	39140.78
529.41	39606.55
529.58	38993.32
529.75	38974.60
529.92	39461.43
530.09	39445.05
530.26	39880.39
530.43	39943.58
530.60	39491.86
530.77	39889.75
530.94	40046.57
531.11	39910.82
531.28	40119.12
531.46	40032.52
531.63	40161.25
531.80	39927.20
531.97	39735.27
532.14	39995.07
532.31	39763.36
532.48	40072.31
532.65	40184.66
532.82	39976.35
532.99	40268.92
533.16	40360.20
533.33	40718.30
533.50	40765.11
533.67	40514.67
533.84	40435.10
534.01	40463.18
534.18	40732.34
534.35	40774.47
534.52	40746.39
534.69	40559.14
534.86	41221.52
535.03	40924.27
535.20	41581.96
535.37	41715.37
535.54	41596.00
535.71	40914.90
535.88	41326.84
536.05	41247.26
536.22	41113.85
536.38	41490.68
536.55	41617.07
536.72	41106.83
536.89	41471.95
537.06	40840.01
537.23	41509.40
537.40	41645.15
537.57	41586.64
537.74	41682.60
537.91	42146.03
538.08	41771.54
538.25	41701.32
538.42	42106.24
538.59	41923.68
538.75	41799.63
538.92	42014.96
539.09	42036.02
539.26	42302.84
539.43	42136.66
539.60	42192.84
539.77	41907.29
539.94	41926.02
540.11	41982.19
540.28	42251.35
540.44	41762.18
540.61	42059.43
540.78	41474.29
540.95	42014.96
541.12	42422.21
541.29	41956.44
541.46	42464.34
541.62	42314.55
541.79	42389.44
541.96	41883.89
542.13	42223.26
542.30	42714.78
542.47	42646.90
542.63	42483.06
542.80	42738.18
542.97	43072.88
543.14	43147.78
543.31	43019.05
543.48	43342.04
543.64	43786.74
543.81	43517.58
543.98	43634.61
544.15	43358.42
544.32	43234.38
544.48	43555.03
544.65	43522.26
544.82	43463.75
544.99	43026.07
545.16	43510.56
545.32	42686.69
545.49	43856.96
545.66	43636.95
545.83	43744.61
546.00	43805.47
546.16	43690.78
546.33	43697.80
546.50	43573.75
546.67	43826.53
546.83	43241.40
547.00	43718.87
547.17	43686.10
547.34	43737.59
547.50	44329.75
547.67	43880.36
547.84	44037.18
548.00	44421.03
548.17	44388.26
548.34	44486.56
548.51	44388.26
548.67	44308.68
548.84	44381.24
549.01	43959.94
549.18	44105.06
549.34	44219.74
549.51	44350.81
549.68	44161.23
549.84	44760.40
550.01	44704.23
550.18	44357.83
550.34	44430.39
550.51	44421.03
550.68	44458.48
550.84	44076.97
551.01	44559.12
551.18	44577.84
551.34	45024.89
551.51	45064.67
551.68	44989.78
551.84	44861.05
552.01	44371.88
552.18	44460.82
552.34	44390.60
552.51	44889.13
552.68	44744.02
552.84	44999.14
553.01	45036.59
553.18	44767.43
553.34	45425.12
553.51	44999.14
553.67	45052.97
553.84	45151.27
554.01	45333.84
554.17	45249.58
554.34	45165.32
554.51	45497.67
554.67	45235.53
554.84	45230.85
555.00	44811.90
555.17	44811.90
555.33	45535.12
555.50	45067.02
555.67	45052.97
555.83	45535.12
556.00	45591.30
556.16	45715.34
556.33	45331.50
556.50	44608.27
556.66	45460.23
556.83	45221.49
556.99	45450.86
557.16	45921.31
557.32	45893.22
557.49	45577.25
557.65	45530.44
557.82	45708.32
557.98	45649.81
558.15	45586.61
558.32	45743.43
558.48	45308.09
558.65	45226.17
558.81	45614.70
558.98	45357.24
559.14	45151.27
559.31	45743.43
559.47	45776.20
559.64	45525.76
559.80	45652.15
559.97	45940.04
560.13	45799.60
560.30	45502.35
560.46	45998.55
560.63	45806.62
560.79	46312.18
560.96	46141.32
561.12	46328.56
561.29	45778.54
561.45	45586.61
561.61	46047.70
561.78	45677.90
561.94	45750.45
562.11	45790.24
562.27	45897.91
562.44	45696.62
562.60	45961.10
562.77	46452.61
562.93	45710.66
563.10	45937.69
563.26	45865.14
563.42	46094.51
563.59	45879.18
563.75	46373.03
563.92	46363.67
564.08	46230.26
564.24	46241.96
564.41	46340.27
564.57	45790.24
564.74	46103.87
564.90	46138.98
565.07	46382.40
565.23	46415.16
565.39	45972.80
565.56	46316.86
565.72	46160.05
565.88	46246.65
566.05	46050.04
566.21	45757.47
566.38	46190.47
566.54	46227.92
566.70	46595.38
566.87	46466.66
567.03	46263.03
567.19	46305.16
567.36	45993.87
567.52	46553.26
567.68	46593.04
567.85	46356.65
568.01	46581.34
568.17	46153.02
568.34	46342.61
568.50	46618.79
568.66	45986.85
568.83	46305.16
568.99	45954.08
569.15	46188.13
569.32	45996.21
569.48	46136.64
569.64	46291.12
569.81	46431.55
569.97	46124.94
570.13	46129.62
570.30	45647.47
570.46	45727.05
570.62	46019.61
570.78	46136.64
570.95	45970.46
571.11	46684.33
571.27	46071.10
571.43	46337.93
571.60	46625.81
571.76	46096.85
571.92	46155.36
572.09	46679.64
572.25	46501.76
572.41	46522.83
572.57	46806.03
572.74	46789.65
572.90	46440.91
573.06	46653.90
573.22	46728.80
573.38	46490.06
573.55	46085.15
573.71	46719.43
573.87	46564.96
574.03	46733.48
574.20	46707.73
574.36	46347.29
574.52	46775.61
574.68	46777.95
574.84	46459.63
575.01	46478.36
575.17	46354.31
575.33	46019.61
575.49	46227.92
575.65	46780.29
575.82	46377.72
575.98	46810.71
576.14	46422.19
576.30	46597.73
576.46	46066.42
576.62	46560.28
576.79	46983.91
576.95	46532.19
577.11	46541.55
577.27	46696.03
577.43	46340.27
577.59	46227.92
577.75	46335.59
577.92	45984.51
578.08	45827.69
578.24	45914.29
578.40	46333.24
578.56	46171.75
578.72	46553.26
578.88	47016.68
579.04	46681.98
579.21	46614.11
579.37	46635.17
579.53	46239.62
579.69	46597.73
579.85	46745.18
580.01	46546.23
580.17	46579.00
580.33	46562.62
580.49	46902.00
580.65	46691.35
580.82	46859.87
580.98	46665.60
581.14	46588.36
581.30	47058.81
581.46	46789.65
581.62	46581.34
581.78	46321.54
581.94	47508.19
582.10	46583.68
582.26	46733.48
582.42	46515.81
582.58	47044.77
582.74	46302.82
582.90	46789.65
583.06	46754.54
583.22	46637.51
583.38	46967.53
583.54	46724.11
583.70	46983.91
583.86	46756.88
584.02	46569.64
584.18	46738.16
584.34	46480.70
584.50	46663.26
584.66	46508.79
584.82	46370.69
584.98	46651.56
585.14	46609.43
585.30	46396.44
585.46	46417.50
585.62	46174.09
585.78	46927.74
585.94	46120.26
586.10	46433.89
586.26	46192.81
586.42	46969.87
586.58	47044.77
586.74	46211.54
586.90	46801.35
587.06	46841.14
587.22	46728.80
587.38	46642.20
587.54	46298.14
587.70	46726.46
587.86	46808.37
588.02	46288.77
588.18	46848.16
588.34	46476.02
588.49	46199.83
588.65	45881.52
588.81	46536.87
588.97	46553.26
589.13	46546.23
589.29	46611.77
589.45	46960.51
589.61	46763.90
589.77	46834.12
589.93	46625.81
590.08	46724.11
590.24	46820.08
590.40	47477.77
590.56	46796.67
590.72	46878.59
590.88	46796.67
591.04	46452.61
591.20	47224.99
591.35	46871.57
591.51	47459.04
591.67	46571.98
591.83	46658.58
591.99	46466.66
592.15	46728.80
592.31	46953.49
592.46	46576.66
592.62	46679.64
592.78	46522.83
592.94	46967.53
593.10	46827.10
593.26	46981.57
593.41	47126.69
593.57	46660.92
593.73	46831.78
593.89	46679.64
594.05	46756.88
594.20	46892.63
594.36	47044.77
594.52	47035.41
594.68	46714.75
594.84	46143.66
594.99	46838.80
595.15	47021.36
595.31	46768.58
595.47	46539.21
595.62	46857.52
595.78	46604.75
595.94	46766.24
596.10	47409.89
596.25	46841.14
596.41	46738.16
596.57	47208.61
596.73	47072.85
596.88	46649.22
597.04	46796.67
597.20	47178.18
597.36	46946.47
597.51	47164.14
597.67	46677.30
597.83	46869.23
597.99	47201.58
598.14	46885.61
598.30	46401.12
598.46	47023.70
598.61	46649.22
598.77	46487.72
598.93	46892.63
599.09	47019.02
599.24	47283.50
599.40	46948.81
599.56	46768.58
599.71	47089.24
599.87	46855.18
600.03	46995.62
600.18	46796.67
600.34	46897.31
600.50	46548.57
600.65	46466.66
600.81	46981.57
600.97	46677.30
601.12	47044.77
601.28	46941.78
601.44	46431.55
601.59	46457.29
601.75	46618.79
601.91	46651.56
602.06	46841.14
602.22	46447.93
602.37	46796.67
602.53	46670.28
602.69	47320.95
602.84	46686.67
603.00	46859.87
603.16	46869.23
603.31	46806.03
603.47	46696.03
603.62	46918.38
603.78	47161.79
603.94	46567.30
604.09	47351.38
604.25	46801.35
604.40	46431.55
604.56	46644.54
604.71	46962.85
604.87	46857.52
605.03	46583.68
605.18	46602.41
605.34	46632.83
605.49	46492.40
605.65	46719.43
605.80	46799.01
605.96	46494.74
606.12	46777.95
606.27	47131.37
606.43	46267.71
606.58	46639.86
606.74	46763.90
606.89	46583.68
607.05	46490.06
607.20	46902.00
607.36	46007.91
607.51	46909.02
607.67	46784.97
607.82	46298.14
607.98	46206.86
608.13	46340.27
608.29	46504.10
608.44	45930.67
608.60	46019.61
608.75	46054.72
608.91	46110.89
609.06	45965.78
609.22	46806.03
609.37	46300.48
609.53	46286.43
609.68	45935.35
609.84	46478.36
609.99	45703.64
610.15	45750.45
610.30	45762.15
610.46	45834.71
610.61	46028.98
610.76	46174.09
610.92	45986.85
611.07	45975.14
611.23	45925.99
611.38	46195.15
611.54	45902.59
611.69	45937.69
611.84	45368.94
612.00	45656.83
612.15	45949.40
612.31	46452.61
612.46	46085.15
612.62	46312.18
612.77	45890.88
612.92	46356.65
613.08	45399.37
613.23	46113.23
613.39	45846.41
613.54	45261.28
613.69	45684.92
613.85	45429.80
614.00	45792.58
614.15	45659.17
614.31	45830.03
614.46	46101.53
614.62	45553.85
614.77	45617.04
614.92	45584.27
615.08	45766.84
615.23	45237.87
615.38	45378.31
615.54	45170.00
615.69	45277.66
615.84	45167.66
616.00	45345.54
616.15	45038.93
616.30	45537.46
616.46	45092.76
616.61	44959.35
616.76	45385.33
616.92	45015.52
617.07	45010.84
617.22	44828.28
617.37	45048.29
617.53	45052.97
617.68	45268.30
617.83	45581.93
617.99	45511.72
618.14	44671.46
618.29	44952.33
618.45	44512.31
618.60	44638.70
618.75	44907.86
618.90	44938.29
619.06	44528.69
619.21	44971.05
619.36	45001.48
619.51	44879.77
619.67	44762.75
619.82	45315.11
619.97	44900.84
620.12	44603.59
620.28	44479.54
620.43	44832.96
620.58	44708.91
620.73	44491.24
620.89	44589.55
621.04	45003.82
621.19	44580.18
621.34	44603.59
621.49	44622.31
621.65	44268.89
621.80	44982.76
621.95	44346.13
622.10	44416.35
622.25	44568.48
622.41	44016.11
622.56	44369.54
622.71	44346.13
622.86	44126.12
623.01	44467.84
623.16	44109.74
623.32	44254.85
623.47	43999.73
623.62	44081.65
623.77	44306.34
623.92	44081.65
624.07	44259.53
624.23	43732.91
624.38	43786.74
624.53	43693.12
624.68	44051.22
624.83	43995.05
624.98	43674.40
625.13	43543.33
625.29	43482.47
625.44	43379.49
625.59	43189.91
625.74	42880.95
625.89	43538.65
626.04	43419.28
626.19	43468.43
626.34	43447.36
626.49	43723.55
626.65	43629.93
626.80	43880.36
626.95	43496.52
627.10	43168.84
627.25	43386.51
627.40	43115.01
627.55	43498.86
627.70	43098.62
627.85	43168.84
628.00	43208.63
628.15	43257.78
628.30	43466.09
628.45	43735.25
628.60	43009.68
628.76	43161.82
628.91	42955.85
629.06	42511.15
629.21	42845.85
629.36	43000.32
629.51	42382.42
629.66	42656.26
629.81	42731.16
629.96	42707.76
630.11	42770.95
630.26	43164.16
630.41	43016.71
630.56	42820.10
630.71	42887.98
630.86	42555.62
631.01	42307.52
631.16	42892.66
631.31	42784.99
631.46	42263.05
631.61	42670.31
631.76	42518.17
631.91	42480.72
632.06	42696.05
632.21	42838.83
632.36	42623.50
632.51	42146.03
632.66	42251.35
632.81	42160.07
632.96	42218.58
633.10	42457.32
633.25	42312.20
633.40	42265.39
633.55	42969.90
633.70	42190.50
633.85	41820.69
634.00	42181.13
634.15	42260.71
634.30	42370.72
634.45	41998.57
634.60	42342.63
634.75	42029.00
634.90	42045.38
635.05	41933.04
635.19	41757.50
635.34	42195.18
635.49	41808.99
635.64	41797.29
635.79	41610.04
635.94	41584.30
636.09	41574.94
636.24	41504.72
636.39	41146.62
636.53	42230.29
636.68	41720.05
636.83	41453.23
636.98	41631.11
637.13	41467.27
637.28	41853.46
637.43	41921.34
637.57	41640.47
637.72	41689.62
637.87	41373.65
638.02	41963.46
638.17	41783.24
638.32	41415.78
638.46	41139.60
638.61	40924.27
638.76	40942.99
638.91	41687.28
639.06	41392.37
639.20	41708.35
639.35	41448.55
639.50	41247.26
639.65	41317.48
639.80	41525.78
639.94	41106.83
640.09	40802.56
640.24	40825.96
640.39	40652.76
640.54	40816.60
640.68	40966.40
640.83	41242.58
640.98	40589.57
641.13	40531.06
641.27	41106.83
641.42	40781.49
641.57	40882.14
641.72	40399.99
641.86	40605.95
642.01	40837.67
642.16	40322.75
642.31	40133.17
642.45	40484.25
642.60	40245.51
642.75	40343.81
642.90	40556.80
643.04	40505.31
643.19	40233.81
643.34	40332.11
643.48	40275.94
643.63	40278.28
643.78	40458.50
643.93	40133.17
644.07	40481.91
644.22	40392.97
644.37	40128.48
644.51	40301.68
644.66	40287.64
644.81	40662.13
644.95	40161.25
645.10	40289.98
645.25	40659.79
645.39	39828.90
645.54	40432.75
645.69	40137.85
645.83	40041.88
645.98	40011.46
646.13	40060.61
646.27	40318.07
646.42	39791.45
646.57	39845.28
646.71	39648.68
646.86	39480.16
647.00	39988.05
647.15	40079.33
647.30	39901.45
647.44	39604.20
647.59	39409.94
647.74	39133.76
647.88	39477.82
648.03	39695.49
648.17	39225.04
648.32	39014.39
648.47	39709.53
648.61	39323.34
648.76	39679.10
648.90	39459.09
649.05	39438.03
649.20	39328.02
649.34	39538.67
649.49	39063.54
649.63	39468.45
649.78	39365.47
649.92	38890.34
650.07	39632.29
650.21	38974.60
650.36	39393.56
650.51	39384.19
650.65	39782.09
650.80	39641.65
650.94	39522.29
651.09	39351.43
651.23	39061.20
651.38	39098.65
651.52	38487.77
651.67	38522.88
651.81	38476.07
651.96	38611.82
652.10	39026.09
652.25	38759.27
652.39	39236.74
652.54	38925.45
652.68	38859.91
652.83	38841.19
652.97	39065.88
653.12	38738.21
653.26	38525.22
653.41	39049.50
653.55	38220.95
653.70	38677.35
653.84	38698.42
653.99	38162.43
654.13	38199.88
654.27	38368.40
654.42	38328.61
654.56	38232.65
654.71	38630.54
654.85	37869.87
655.00	38113.28
655.14	38017.32
655.29	37792.63
655.43	37876.89
655.57	38082.86
655.72	38101.58
655.86	37404.10
656.01	37916.68
656.15	37411.12
656.30	37525.81
656.44	37670.92
656.58	37773.91
656.73	38036.05
656.87	37563.26
657.01	37617.09
657.16	37525.81
657.30	37450.91
657.45	37787.95
657.59	37448.57
657.73	37638.15
657.88	37713.05
658.02	37659.22
658.16	37762.20
658.31	37776.25
658.45	37727.10
658.60	37364.31
658.74	37413.46
658.88	37448.57
659.03	37720.07
659.17	37282.39
659.31	37336.23
659.46	37200.47
659.60	37434.53
659.74	37167.71
659.89	37144.30
660.03	36926.63
660.17	37151.32
660.32	37177.07
660.46	37287.07
660.60	36924.29
660.74	36793.22
660.89	36928.97
661.03	36678.54
661.17	36430.44
661.32	36311.07
661.46	36872.80
661.60	36947.70
661.74	36456.18
661.89	36823.65
662.03	36329.80
662.17	36795.56
662.31	36449.16
662.46	37134.94
662.60	36842.37
662.74	36280.64
662.88	36325.11
663.03	35857.01
663.17	36385.97
663.31	35974.03
663.45	35576.14
663.60	36027.87
663.74	35662.74
663.88	35737.64
664.02	35819.56
664.17	36233.83
664.31	35608.91
664.45	35672.10
664.59	35133.78
664.73	35761.05
664.88	35742.32
665.02	35236.77
665.16	35679.13
665.30	35309.32
665.44	34698.44
665.59	34763.98
665.73	35517.63
665.87	35051.86
666.01	35384.22
666.15	35323.36
666.29	35299.96
666.44	35211.02
666.58	35168.89
666.72	34958.24
666.86	34897.39
667.00	34462.05
667.14	34412.90
667.28	34644.61
667.43	34490.13
667.57	34618.86
667.71	34382.47
667.85	34511.20
667.99	34686.74
668.13	34363.75
668.27	34199.91
668.41	34239.70
668.56	34272.46
668.70	33989.26
668.84	33635.84
668.98	33680.31
669.12	33762.23
669.26	33968.19
669.40	33591.37
669.54	33626.48
669.68	33703.71
669.82	33570.30
669.96	33172.41
670.10	33462.64
670.25	33621.80
670.39	33383.06
670.53	33216.88
670.67	33151.35
670.81	32992.19
670.95	33221.56
671.09	32741.75
671.23	33127.94
671.37	32807.29
671.51	32802.61
671.65	32631.75
671.79	32835.38
671.93	32781.54
672.07	32957.08
672.21	32666.86
672.35	32559.19
672.49	32826.01
672.63	32666.86
672.77	32243.22
672.91	32250.24
673.05	32098.11
673.19	32196.41
673.33	32147.26
673.47	31908.52
673.61	31988.10
673.75	31548.08
673.89	31393.61
674.03	31438.08
674.17	31725.96
674.31	31730.64
674.45	31278.92
674.59	31842.99
674.73	31747.03
674.87	31529.36
675.01	31154.87
675.15	31494.25
675.29	31140.83
675.43	31241.47
675.56	31159.55
675.70	31030.82
675.84	30735.92
675.98	30300.58
676.12	30735.92
676.26	30646.97
676.40	30499.52
676.54	30586.12
676.68	30909.11
676.82	30417.60
676.96	29968.22
677.10	30106.31
677.23	30092.27
677.37	29645.23
677.51	30082.91
677.65	29771.61
677.79	29174.78
677.93	29399.47
678.07	29205.20
678.21	28800.29
678.34	28891.57
678.48	29429.90
678.62	28816.68
678.76	28673.90
678.90	28865.83
679.04	28732.42
679.18	28540.49
679.31	28540.49
679.45	28510.07
679.59	28456.23
679.73	28629.43
679.87	28224.52
680.00	28119.20
680.14	27971.74
680.28	28163.67
680.42	27784.50
680.56	27906.21
680.70	28013.87
680.83	27821.95
680.97	27524.70
681.11	27718.96
681.25	27524.70
681.39	27742.37
681.52	27185.32
681.66	27082.34
681.80	27248.52
681.94	27190.00
682.07	26899.78
682.21	27192.34
682.35	26792.11
682.49	26733.60
682.62	26899.78
682.76	26555.72
682.90	26347.41
683.04	26429.33
683.17	26321.66
683.31	26115.70
683.45	26019.74
683.59	25792.70
683.72	26089.95
683.86	25876.96
684.00	26111.02
684.13	26167.19
684.27	25628.87
684.41	25570.35
684.55	25502.48
684.68	25252.04
684.82	25060.12
684.96	25132.67
685.09	25252.04
685.23	24884.58
685.37	25317.57
685.50	24893.94
685.64	24830.74
685.78	24931.39
685.91	24489.03
686.05	24355.61
686.19	24030.28
686.32	24140.29
686.46	23953.04
686.60	23751.76
686.73	23520.04
686.87	23190.03
687.01	23482.59
687.14	23311.74
687.28	23314.08
687.42	23342.16
687.55	23316.42
687.69	23353.87
687.82	23180.67
687.96	23098.75
688.10	23110.45
688.23	22764.05
688.37	22773.41
688.50	22377.86
688.64	22820.22
688.78	22698.52
688.91	22443.40
689.05	22679.79
689.18	22593.19
689.32	22101.68
689.46	22384.88
689.59	22366.16
689.73	22333.39
689.86	22230.41
690.00	21991.67
690.13	22263.18
690.27	21961.25
690.41	21958.91
690.54	21673.36
690.68	21266.11
690.81	21507.18
690.95	21778.68
691.08	21713.15
691.22	21198.23
691.35	21078.86
691.49	21219.30
691.62	21018.01
691.76	21106.95
691.89	21022.69
692.03	21025.03
692.16	21046.10
692.30	20592.03
692.43	20414.15
692.57	20458.62
692.70	20369.68
692.84	20269.04
692.97	19962.43
693.11	19997.54
693.24	19864.13
693.38	19845.40
693.51	19896.89
693.65	20025.62
693.78	20098.18
693.92	19550.49
694.05	19709.65
694.19	19475.60
694.32	19363.25
694.45	19164.31
694.59	19215.80
694.72	19117.50
694.86	19110.47
694.99	18864.72
695.13	19110.47
695.26	18956.00
695.39	18829.61
695.53	18738.33
695.66	18815.57
695.80	18534.70
695.93	18691.52
696.07	18312.35
696.20	18436.40
696.33	18658.75
696.47	18518.32
696.60	18052.55
696.73	18082.98
696.87	17937.87
697.00	17965.95
697.14	17975.31
697.27	17633.60
697.40	17886.37
697.54	17640.62
697.67	17378.48
697.80	17572.74
697.94	17177.19
698.07	17132.72
698.21	17057.82
698.34	17270.81
698.47	17139.74
698.61	17039.10
698.74	16917.39
698.87	16706.74
699.01	16741.85
699.14	16306.51
699.27	16240.98
699.40	16273.74
699.54	16477.37
699.67	16482.05
699.80	16353.32
699.94	16194.17
700.07	16269.06
700.20	16294.81
700.34	15913.30
700.47	15917.98
700.60	16248.00
700.73	16116.93
700.87	16020.97
701.00	15805.64
701.13	15683.93
701.26	15484.98
701.40	15665.21
701.53	15517.75
701.66	15346.89
701.79	15295.40
701.93	15328.17
702.06	14904.53
702.19	15023.90
702.32	15063.69
702.46	14857.72
702.59	14916.23
702.72	15042.62
702.85	14941.98
702.99	14771.12
703.12	14649.41
703.25	14698.56
703.38	14520.68
703.51	14295.99
703.65	14602.60
703.78	14562.81
703.91	14157.90
704.04	14251.52
704.17	14001.08
704.31	14185.99
704.44	14033.85
704.57	13965.98
704.70	13965.98
704.83	13891.08
704.96	13998.74
705.10	13647.66
705.23	13764.69
>>>>>End Processed Spectral Data<<<<<
