SpectraSuite Data File
++++++++++++++++++++++++++++++++++++
Date: Fri Oct 25 11:33:45 EDT 2013
User: price-jones
Dark Spectrum Present: No
Reference Spectrum Present: No
Number of Sampled Component Spectra: 1
Spectrometers: USB2+H05261
Integration Time (usec): 100000 (USB2+H05261)
Spectra Averaged: 1 (USB2+H05261)
Boxcar Smoothing: 0 (USB2+H05261)
Correct for Electrical Dark: No (USB2+H05261)
Strobe/Lamp Enabled: No (USB2+H05261)
Correct for Detector Non-linearity: No (USB2+H05261)
Correct for Stray Light: No (USB2+H05261)
Number of Pixels in Processed Spectrum: 2048
>>>>>Begin Processed Spectral Data<<<<<
365.73	231.71
365.92	231.71
366.12	231.71
366.32	191.92
366.52	138.09
366.72	161.50
366.91	170.86
367.11	133.41
367.31	154.48
367.51	187.24
367.70	140.43
367.90	168.52
368.10	175.54
368.30	175.54
368.49	224.69
368.69	212.99
368.89	173.20
369.09	133.41
369.28	238.73
369.48	224.69
369.68	227.03
369.87	252.78
370.07	210.65
370.27	250.44
370.47	308.95
370.66	414.27
370.86	491.51
371.06	564.07
371.25	533.64
371.45	582.79
371.65	540.66
371.84	582.79
372.04	540.66
372.24	580.45
372.44	669.39
372.63	594.50
372.83	620.24
373.03	615.56
373.22	575.77
373.42	596.84
373.62	657.69
373.81	592.16
374.01	678.76
374.21	571.09
374.40	624.92
374.60	603.86
374.79	730.25
374.99	627.26
375.19	755.99
375.38	676.41
375.58	638.97
375.78	629.60
375.97	643.65
376.17	802.80
376.37	669.39
376.56	709.18
376.76	638.97
376.95	634.29
377.15	690.46
377.35	734.93
377.54	709.18
377.74	713.86
377.93	631.94
378.13	678.76
378.33	765.36
378.52	660.03
378.72	713.86
378.91	706.84
379.11	734.93
379.31	685.78
379.50	774.72
379.70	739.61
379.89	774.72
380.09	641.31
380.28	664.71
380.48	772.38
380.68	734.93
380.87	763.01
381.07	748.97
381.26	774.72
381.46	685.78
381.65	732.59
381.85	755.99
382.04	737.27
382.24	835.57
382.43	709.18
382.63	767.70
382.83	821.53
383.02	737.27
383.22	847.27
383.41	884.72
383.61	858.98
383.80	819.19
384.00	781.74
384.19	851.96
384.39	851.96
384.58	781.74
384.78	802.80
384.97	861.32
385.17	873.02
385.36	877.70
385.56	849.61
385.75	805.14
385.95	795.78
386.14	870.68
386.34	849.61
386.53	868.34
386.72	786.42
386.92	966.64
387.11	866.00
387.31	973.66
387.50	994.73
387.70	884.72
387.89	940.90
388.09	866.00
388.28	966.64
388.48	870.68
388.67	997.07
388.86	844.93
389.06	866.00
389.25	1039.20
389.45	976.00
389.64	999.41
389.84	976.00
390.03	891.74
390.22	954.94
390.42	912.81
390.61	978.34
390.81	985.37
391.00	1053.24
391.19	1004.09
391.39	1074.31
391.58	980.68
391.78	1041.54
391.97	1086.01
392.16	1034.52
392.36	1107.07
392.55	1083.67
392.75	1090.69
392.94	1039.20
393.13	1067.28
393.33	1041.54
393.52	1144.52
393.71	1132.82
393.91	1020.47
394.10	1076.65
394.29	1116.44
394.49	1100.05
394.68	1177.29
394.88	1139.84
395.07	1095.37
395.26	1107.07
395.46	1174.95
395.65	1179.63
395.84	1188.99
396.04	1233.46
396.23	1177.29
396.42	1207.72
396.62	1196.01
396.81	1130.48
397.00	1259.21
397.19	1219.42
397.39	1205.38
397.58	1231.12
397.77	1219.42
397.97	1303.68
398.16	1263.89
398.35	1366.87
398.55	1249.85
398.74	1212.40
398.93	1263.89
399.12	1334.11
399.32	1345.81
399.51	1406.66
399.70	1437.09
399.90	1401.98
400.09	1362.19
400.28	1397.30
400.47	1359.85
400.67	1392.62
400.86	1383.26
401.05	1416.02
401.24	1425.39
401.44	1416.02
401.63	1495.60
401.82	1446.45
402.01	1490.92
402.21	1427.73
402.40	1502.62
402.59	1460.49
402.78	1511.99
402.97	1479.22
403.17	1486.24
403.36	1600.93
403.55	1561.14
403.74	1579.86
403.93	1636.03
404.13	1600.93
404.32	1673.48
404.51	1621.99
404.70	1612.63
404.89	1624.33
405.09	1717.95
405.28	1626.67
405.47	1692.21
405.66	1715.61
405.85	1647.74
406.05	1664.12
406.24	1792.85
406.43	1671.14
406.62	1832.64
406.81	1813.92
407.00	1802.21
407.20	1764.76
407.39	1668.80
407.58	1825.62
407.77	1858.39
407.96	1898.17
408.15	1884.13
408.34	1923.92
408.54	1928.60
408.73	1905.20
408.92	1905.20
409.11	1982.43
409.30	2038.61
409.49	1940.30
409.68	2008.18
409.87	1998.82
410.07	1994.14
410.26	2059.67
410.45	2064.35
410.64	2092.44
410.83	2083.08
411.02	2179.04
411.21	2193.08
411.40	2251.60
411.59	2181.38
411.78	2132.23
411.98	2221.17
412.17	2211.81
412.36	2188.40
412.55	2249.25
412.74	2345.22
412.93	2385.01
413.12	2408.41
413.31	2340.54
413.50	2443.52
413.69	2443.52
413.88	2443.52
414.07	2436.50
414.26	2427.14
414.45	2523.10
414.64	2614.38
414.83	2616.72
415.02	2658.85
415.22	2782.90
415.41	2703.32
415.60	2623.74
415.79	2612.04
415.98	2789.92
416.17	2672.89
416.36	2759.49
416.55	2771.19
416.74	2895.24
416.93	2878.86
417.12	2841.41
417.31	2892.90
417.50	2855.45
417.69	3061.42
417.88	2902.26
418.07	3030.99
418.26	3005.25
418.45	3016.95
418.64	3150.36
418.83	3052.06
419.02	3059.08
419.21	3117.59
419.39	3084.83
419.58	3059.08
419.77	3000.57
419.96	3157.38
420.15	3185.47
420.34	3281.43
420.53	3082.49
420.72	3192.49
420.91	3321.22
421.10	3171.43
421.29	3323.56
421.48	3288.45
421.67	3208.87
421.86	3304.84
422.05	3279.09
422.24	3232.28
422.43	3304.84
422.61	3339.94
422.80	3330.58
422.99	3398.46
423.18	3323.56
423.37	3398.46
423.56	3375.05
423.75	3520.17
423.94	3501.44
424.13	3082.49
424.32	3262.71
424.50	3442.93
424.69	3571.66
424.88	3592.72
425.07	3389.10
425.26	3407.82
425.45	3471.01
425.64	3304.84
425.83	3461.65
426.01	3442.93
426.20	3482.72
426.39	3524.85
426.58	3442.93
426.77	3438.25
426.96	3524.85
427.15	3646.55
427.33	3510.80
427.52	3627.83
427.71	3705.07
427.90	3653.58
428.09	3747.20
428.28	3646.55
428.46	3733.15
428.65	3637.19
428.84	3782.31
429.03	3840.82
429.22	3679.32
429.40	3630.17
429.59	3719.11
429.78	3527.19
429.97	3712.09
430.16	3817.41
430.34	3889.97
430.53	3866.56
430.72	3850.18
430.91	3789.33
431.10	3885.29
431.28	4051.47
431.47	3988.27
431.66	4051.47
431.85	3941.46
432.03	4133.39
432.22	4049.13
432.41	4264.46
432.60	4058.49
432.79	4107.64
432.97	4138.07
433.16	4084.23
433.35	4105.30
433.54	4166.15
433.72	4152.11
433.91	4248.07
434.10	4346.37
434.28	4308.93
434.47	4318.29
434.66	4372.12
434.85	4397.87
435.03	4383.82
435.22	4360.42
435.41	4430.63
435.59	4351.06
435.78	4381.48
435.97	4388.50
436.16	4538.30
436.34	4416.59
436.53	4510.21
436.72	4528.94
436.90	4400.21
437.09	4500.85
437.28	4454.04
437.46	4404.89
437.65	4709.16
437.84	4620.22
438.02	4557.02
438.21	4512.55
438.40	4547.66
438.58	4793.42
438.77	4840.23
438.96	4617.88
439.14	4816.82
439.33	4870.65
439.52	4938.53
439.70	4964.28
439.89	5060.24
440.08	5015.77
440.26	5085.98
440.45	5048.54
440.63	5195.99
440.82	5165.56
441.01	5135.14
441.19	5181.95
441.38	5188.97
441.57	5266.21
441.75	5313.02
441.94	5434.72
442.12	5430.04
442.31	5282.59
442.50	5596.22
442.68	5455.79
442.87	5444.09
443.05	5561.11
443.24	5710.91
443.43	5432.38
443.61	5591.54
443.80	5668.78
443.98	5575.16
444.17	5418.34
444.35	5589.20
444.54	5734.31
444.73	5593.88
444.91	5518.98
445.10	5720.27
445.28	5727.29
445.47	5610.26
445.65	5680.48
445.84	5781.12
446.02	5687.50
446.21	5696.86
446.39	5804.53
446.58	5774.10
446.77	5811.55
446.95	5633.67
447.14	5856.02
447.32	5823.25
447.51	5975.39
447.69	5593.88
447.88	5776.44
448.06	5846.66
448.25	5710.91
448.43	5867.72
448.62	5853.68
448.80	5738.99
448.99	5776.44
449.17	5989.43
449.36	5982.41
449.54	6101.78
449.73	6045.60
449.91	6387.32
450.10	6052.63
450.28	5968.37
450.46	6141.57
450.65	6087.73
450.83	6061.99
451.02	6164.97
451.20	6209.44
451.39	6333.49
451.57	6155.61
451.76	6120.50
451.94	6097.10
452.13	6242.21
452.31	6207.10
452.49	6214.12
452.68	6296.04
452.86	6300.72
453.05	6413.07
453.23	6457.54
453.42	6520.73
453.60	6389.66
453.78	6406.05
453.97	6284.34
454.15	6368.60
454.34	6450.52
454.52	6499.67
454.70	6518.39
454.89	6485.62
455.07	6429.45
455.26	6679.89
455.44	6820.32
455.62	6801.60
455.81	6731.38
455.99	6750.10
456.17	6630.74
456.36	6803.94
456.54	7136.29
456.73	7040.33
456.91	6897.56
457.09	7052.03
457.28	7040.33
457.46	6902.24
457.64	7126.93
457.83	7054.37
458.01	7073.10
458.19	7197.15
458.38	7124.59
458.56	7229.91
458.74	7140.97
458.93	7187.79
459.11	7190.13
459.29	7124.59
459.48	7262.68
459.66	7248.64
459.84	7417.16
460.03	7494.40
460.21	7405.46
460.39	7482.69
460.57	7461.63
460.76	7407.80
460.94	7588.02
461.12	7328.22
461.31	7438.22
461.49	7499.08
461.67	7599.72
461.85	7693.34
462.04	7592.70
462.22	7985.91
462.40	7779.94
462.59	7712.07
462.77	7709.72
462.95	7845.48
463.13	7686.32
463.32	7922.71
463.50	7889.95
463.68	7932.08
463.86	8013.99
464.05	7772.92
464.23	7903.99
464.41	7911.01
464.59	7815.05
464.78	8283.16
464.96	8058.46
465.14	7943.78
465.32	8060.80
465.50	8299.54
465.69	8114.64
465.87	8142.72
466.05	8114.64
466.23	8121.66
466.41	8226.98
466.60	8360.39
466.78	8091.23
466.96	8262.09
467.14	8332.31
467.32	8273.79
467.51	8386.14
467.69	8222.30
467.87	8334.65
468.05	8437.63
468.23	8334.65
468.41	8280.82
468.60	8545.30
468.78	8585.08
468.96	8561.68
469.14	8528.91
469.32	8786.37
469.50	8423.59
469.69	8638.92
469.87	8779.35
470.05	8819.14
470.23	8905.74
470.41	8585.08
470.59	8847.22
470.77	8800.41
470.95	8819.14
471.14	9135.11
471.32	8901.06
471.50	9015.74
471.68	9163.20
471.86	9013.40
472.04	9219.37
472.22	9348.10
472.40	9088.30
472.58	9315.33
472.77	9390.23
472.95	9521.30
473.13	9530.66
473.31	9362.14
473.49	9525.98
473.67	9624.28
473.85	9462.79
474.03	9851.31
474.21	9778.76
474.39	9980.04
474.57	9909.83
474.75	9858.34
474.93	10054.94
475.12	9912.17
475.30	10174.31
475.48	9914.51
475.66	10087.71
475.84	10139.20
476.02	10448.15
476.20	10277.29
476.38	10354.53
476.56	10761.78
476.74	10455.17
476.92	10511.35
477.10	10789.87
477.28	10733.70
477.46	10726.68
477.64	10881.15
477.82	10946.69
478.00	11377.34
478.18	11157.33
478.36	11250.96
478.54	11454.58
478.72	11655.87
478.90	11569.27
479.08	11688.64
479.26	11761.19
479.44	11906.31
479.62	11988.22
479.80	11805.66
479.98	11962.48
480.16	12390.80
480.34	12044.40
480.52	12170.79
480.70	12388.46
480.88	12238.66
481.06	12554.63
481.24	12461.01
481.41	12758.26
481.59	12765.28
481.77	12788.69
481.95	12858.90
482.13	12889.33
482.31	12945.50
482.49	13394.89
482.67	13247.43
482.85	13500.21
483.03	13521.27
483.21	13790.44
483.39	13982.36
483.57	13900.44
483.74	13909.80
483.92	13977.68
484.10	13916.83
484.28	14380.25
484.46	14228.12
484.64	14761.76
484.82	14530.05
485.00	14841.34
485.18	15082.41
485.35	15014.54
485.53	14998.15
485.71	15087.09
485.89	15403.07
486.07	15438.17
486.25	15466.26
486.43	15452.22
486.61	15943.73
486.78	16049.05
486.96	15819.68
487.14	16053.73
487.32	16166.08
487.50	16358.00
487.68	16381.41
487.85	17032.08
488.03	16805.05
488.21	16917.39
488.39	17008.67
488.57	17099.95
488.75	17053.14
488.92	17696.79
489.10	17799.77
489.28	17734.24
489.46	18061.91
489.64	17905.10
489.81	18118.09
489.99	18225.75
490.17	18377.89
490.35	18654.07
490.53	18567.47
490.70	18539.38
490.88	18794.50
491.06	19030.90
491.24	18845.99
491.41	19098.77
491.59	18967.70
491.77	19164.31
491.95	19597.31
492.13	19417.08
492.30	19611.35
492.48	19730.72
492.66	19974.13
492.84	20168.40
493.01	20056.05
493.19	20142.65
493.37	20315.85
493.54	20418.83
493.72	20617.78
493.90	20807.36
494.08	20987.58
494.25	20877.58
494.43	21078.86
494.61	21371.43
494.79	21228.66
494.96	21479.10
495.14	21436.97
495.32	21568.04
495.49	22015.08
495.67	21872.31
495.85	22171.89
496.02	22260.84
496.20	22483.19
496.38	22115.72
496.55	22611.92
496.73	22789.80
496.91	22757.03
497.09	23016.83
497.26	23068.32
497.44	23300.03
497.62	22808.52
497.79	23625.37
497.97	23332.80
498.14	23503.66
498.32	23931.98
498.50	23817.29
498.67	24051.34
498.85	23929.64
499.03	23873.46
499.20	24016.24
499.38	24725.42
499.56	24257.31
499.73	24514.77
499.91	24872.87
500.08	24931.39
500.26	24753.51
500.44	24636.48
500.61	24982.88
500.79	24931.39
500.97	24999.26
501.14	25153.74
501.32	25275.45
501.49	25303.53
501.67	25256.72
501.84	26015.05
502.02	25418.22
502.20	25848.88
502.37	25759.94
502.55	25757.60
502.72	25745.89
502.90	26129.74
503.07	25963.56
503.25	26106.34
503.43	26349.75
503.60	26441.03
503.78	26689.13
503.95	26253.79
504.13	26490.18
504.30	26581.46
504.48	26307.62
504.65	27105.74
504.83	26930.20
505.01	27080.00
505.18	26808.50
505.36	27143.19
505.53	27379.59
505.71	27402.99
505.88	27611.30
506.06	27229.79
506.23	27814.93
506.41	27264.90
506.58	28142.60
506.76	28074.73
506.93	28322.82
507.11	28098.13
507.28	28222.18
507.46	28451.55
507.63	28278.35
507.81	28692.63
507.98	28563.90
508.16	28760.50
508.33	28793.27
508.50	29057.75
508.68	28861.15
508.85	29172.44
509.03	28634.11
509.20	28872.85
509.38	29448.62
509.55	29415.85
509.73	29422.87
509.90	29589.05
510.08	29472.03
510.25	29968.22
510.42	29670.97
510.60	29914.39
510.77	30012.69
510.95	29972.90
511.12	30181.21
511.30	30237.38
511.47	30265.47
511.64	30125.04
511.82	30345.05
511.99	30171.85
512.17	30312.28
512.34	30721.87
512.51	31103.38
512.69	30906.77
512.86	30731.23
513.04	31377.22
513.21	31016.78
513.38	31276.58
513.56	31271.90
513.73	31098.70
513.90	31098.70
514.08	31428.71
514.25	31129.12
514.43	31604.25
514.60	31402.97
514.77	31711.92
514.95	31957.67
515.12	31489.57
515.29	31814.90
515.47	32219.81
515.64	31997.46
515.81	31941.29
515.99	32374.29
516.16	32622.39
516.33	32517.06
516.51	32624.73
516.68	32545.15
516.85	32992.19
517.03	32657.49
517.20	32849.42
517.37	32538.13
517.54	32575.58
517.72	32737.07
517.89	32807.29
518.06	33193.48
518.24	33076.45
518.41	33146.67
518.58	33167.73
518.75	33296.46
518.93	33408.81
519.10	33036.66
519.27	33333.91
519.45	33752.87
519.62	33984.58
519.79	33687.33
519.96	33666.27
520.14	33820.74
520.31	34026.71
520.48	34328.64
520.65	34164.80
520.83	34574.39
521.00	34513.54
521.17	34394.17
521.34	34501.84
521.52	34857.60
521.69	34937.18
521.86	34881.00
522.03	35108.04
522.20	35241.45
522.38	35381.88
522.55	35096.33
522.72	35016.75
522.89	35023.78
523.07	35629.98
523.24	35206.34
523.41	35365.49
523.58	35098.67
523.75	35508.27
523.92	35686.15
524.10	35779.77
524.27	35374.86
524.44	35845.30
524.61	35559.76
524.78	36048.93
524.96	36481.93
525.13	36091.06
525.30	35922.54
525.47	36346.18
525.64	36355.54
525.81	36048.93
525.98	36463.21
526.16	36343.84
526.33	36905.57
526.50	36594.28
526.67	36334.48
526.84	36765.14
527.01	36507.68
527.18	36531.08
527.36	37130.26
527.53	37071.75
527.70	37221.54
527.87	37759.86
528.04	37008.55
528.21	37408.78
528.38	36856.42
528.55	37404.10
528.72	37170.05
528.89	37289.42
529.07	37209.84
529.24	37214.52
529.41	37577.30
529.58	37385.38
529.75	37848.80
529.92	37729.44
530.09	37769.22
530.26	37546.87
530.43	37755.18
530.60	37294.10
530.77	37682.62
530.94	38017.32
531.11	37820.72
531.28	37954.13
531.46	37897.95
531.63	38094.56
531.80	38263.08
531.97	38560.33
532.14	38099.24
532.31	38415.21
532.48	38136.69
532.65	38983.96
532.82	38288.82
532.99	38546.28
533.16	38583.73
533.33	39044.82
533.50	38955.88
533.67	38637.56
533.84	38761.61
534.01	39442.71
534.18	38735.87
534.35	39377.17
534.52	38930.13
534.69	39580.80
534.86	39435.69
535.03	39438.03
535.20	39810.17
535.37	39702.51
535.54	39613.57
535.71	39370.15
535.88	40058.27
536.05	39594.84
536.22	39763.36
536.38	39821.87
536.55	40065.29
536.72	39634.63
536.89	39711.87
537.06	39683.78
537.23	40381.26
537.40	39772.72
537.57	39983.37
537.74	39894.43
537.91	40718.30
538.08	39974.01
538.25	40189.34
538.42	40304.02
538.59	40392.97
538.75	40187.00
538.92	40407.01
539.09	40725.32
539.26	40189.34
539.43	40624.68
539.60	40732.34
539.77	40580.21
539.94	41031.93
540.11	40690.21
540.28	41034.27
540.44	40821.28
540.61	40865.75
540.78	40748.73
540.95	40938.31
541.12	41223.86
541.29	41418.12
541.46	41036.61
541.62	40989.80
541.79	41228.54
541.96	41256.62
542.13	41043.63
542.30	41535.15
542.47	41233.22
542.63	41160.66
542.80	41542.17
542.97	41834.74
543.14	41904.95
543.31	41874.52
543.48	41680.26
543.64	42195.18
543.81	42068.79
543.98	42064.11
544.15	41977.51
544.32	42129.64
544.48	42227.95
544.65	42260.71
544.82	42784.99
544.99	42300.50
545.16	42330.93
545.32	42443.27
545.49	42625.84
545.66	42909.04
545.83	43068.20
546.00	42976.92
546.16	42738.18
546.33	42754.57
546.50	42607.11
546.67	42733.50
546.83	42361.36
547.00	42777.97
547.17	42466.68
547.34	43014.37
547.50	43044.79
547.67	43309.27
547.84	42838.83
548.00	43281.19
548.17	43232.04
548.34	43295.23
548.51	43379.49
548.67	43349.06
548.84	43112.67
549.01	43388.85
549.18	43349.06
549.34	43454.39
549.51	43739.93
549.68	43531.62
549.84	43688.44
550.01	43711.84
550.18	43585.46
550.34	43739.93
550.51	43821.85
550.68	44329.75
550.84	43281.19
551.01	43950.58
551.18	43440.34
551.34	43814.83
551.51	44294.64
551.68	43868.66
551.84	43985.69
552.01	43468.43
552.18	43540.99
552.34	43821.85
552.51	44360.17
552.68	44299.32
552.84	44367.20
553.01	44577.84
553.18	44044.20
553.34	44404.64
553.51	43969.30
553.67	44619.97
553.84	44278.25
554.01	44753.38
554.17	44512.31
554.34	44774.45
554.51	44524.01
554.67	44636.36
554.84	44715.93
555.00	44875.09
555.17	44210.38
555.33	44390.60
555.50	44776.79
555.67	45184.04
555.83	44652.74
556.00	44837.64
556.16	45504.70
556.33	45193.40
556.50	45120.85
556.66	45415.76
556.83	44783.81
556.99	45336.18
557.16	44968.71
557.32	45415.76
557.49	45134.89
557.65	44839.98
557.82	45265.96
557.98	45247.24
558.15	45500.01
558.32	45322.13
558.48	45240.21
558.65	45198.09
558.81	45406.39
558.98	45170.00
559.14	45352.56
559.31	45481.29
559.47	45492.99
559.64	45401.71
559.80	45354.90
559.97	45684.92
560.13	45806.62
560.30	45701.30
560.46	45741.09
560.63	45827.69
560.79	45682.58
560.96	45691.94
561.12	45549.17
561.29	45553.85
561.45	46153.02
561.61	46040.68
561.78	45745.77
561.94	45778.54
562.11	46188.13
562.27	45745.77
562.44	45970.46
562.60	46110.89
562.77	45865.14
562.93	46148.34
563.10	46380.06
563.26	45729.39
563.42	46293.46
563.59	46007.91
563.75	45595.98
563.92	45844.07
564.08	45879.18
564.24	46089.83
564.41	45876.84
564.57	46033.66
564.74	46223.24
564.90	45523.42
565.07	46312.18
565.23	46562.62
565.39	46263.03
565.56	46368.35
565.72	46464.32
565.88	46248.99
566.05	46337.93
566.21	46263.03
566.38	46089.83
566.54	46513.47
566.70	46560.28
566.87	45968.12
567.03	46246.65
567.19	46752.20
567.36	46656.24
567.52	46663.26
567.68	46447.93
567.85	46405.80
568.01	46801.35
568.17	46387.08
568.34	46511.13
568.50	46944.12
568.66	46227.92
568.83	46501.76
568.99	46438.57
569.15	46569.64
569.32	46630.49
569.48	46630.49
569.64	46995.62
569.81	46417.50
569.97	46916.04
570.13	47040.09
570.30	46031.32
570.46	46525.17
570.62	46583.68
570.78	47033.07
570.95	46618.79
571.11	46740.50
571.27	46831.78
571.43	46461.97
571.60	46899.65
571.76	46766.24
571.92	46579.00
572.09	46567.30
572.25	46948.81
572.41	46803.69
572.57	46401.12
572.74	47058.81
572.90	46483.04
573.06	46916.04
573.22	47124.35
573.38	47154.77
573.55	47028.38
573.71	47494.15
573.87	47138.39
574.03	47007.32
574.20	47145.41
574.36	47206.26
574.52	47159.45
574.68	47330.31
574.84	47126.69
575.01	47189.88
575.17	46794.33
575.33	47196.90
575.49	46550.91
575.65	47150.09
575.82	47112.64
575.98	46960.51
576.14	47547.98
576.30	47189.88
576.46	47035.41
576.62	46960.51
576.79	47243.71
576.95	46791.99
577.11	47093.92
577.27	47461.38
577.43	47143.07
577.59	47349.04
577.75	47323.29
577.92	46801.35
578.08	47470.75
578.24	47456.70
578.40	47339.68
578.56	47330.31
578.72	47033.07
578.88	47592.45
579.04	47182.86
579.21	47145.41
579.37	47590.11
579.53	47524.58
579.69	47250.74
579.85	47178.18
580.01	47019.02
580.17	47026.04
580.33	47091.58
580.49	47075.19
580.65	47674.37
580.82	46883.27
580.98	47178.18
581.14	46878.59
581.30	47313.93
581.46	47086.90
581.62	47461.38
581.78	47330.31
581.94	47358.40
582.10	47072.85
582.26	47084.56
582.42	47220.31
582.58	47540.96
582.74	47641.60
582.90	47796.08
583.06	47232.01
583.22	47323.29
583.38	47264.78
583.54	47316.27
583.70	47313.93
583.86	47496.49
584.02	47358.40
584.18	47564.37
584.34	47550.32
584.50	47735.23
584.66	47379.46
584.82	47576.07
584.98	48083.97
585.14	47440.32
585.30	47459.04
585.46	47351.38
585.62	47620.54
585.78	47461.38
585.94	46820.08
586.10	47367.76
586.26	47283.50
586.42	47327.97
586.58	47796.08
586.74	47512.88
586.90	47461.38
587.06	47353.72
587.22	47686.07
587.38	47234.35
587.54	47894.38
587.70	48210.35
587.86	47763.31
588.02	47309.25
588.18	47381.80
588.34	47330.31
588.49	47681.39
588.65	47452.02
588.81	47339.68
588.97	47597.13
589.13	47437.98
589.29	47533.94
589.45	47634.58
589.61	47777.36
589.77	47948.21
589.93	47693.10
590.08	48135.46
590.24	47819.49
590.40	48189.29
590.56	48002.05
590.72	48037.16
590.88	47948.21
591.04	47896.72
591.20	48060.56
591.35	47835.87
591.51	48643.35
591.67	48048.86
591.83	48039.50
591.99	48114.39
592.15	47786.72
592.31	47517.56
592.46	47744.59
592.62	47906.08
592.78	48060.56
592.94	48123.75
593.10	48006.73
593.26	48114.39
593.41	48320.36
593.57	47997.37
593.73	48184.61
593.89	48406.96
594.05	48488.88
594.20	48154.18
594.36	48849.32
594.52	48453.77
594.68	47711.82
594.84	47854.59
594.99	48072.26
595.15	48062.90
595.31	48474.84
595.47	47957.58
595.62	48296.95
595.78	48006.73
595.94	48315.68
596.10	48528.67
596.25	48144.82
596.41	48348.45
596.57	47866.30
596.73	48657.40
596.88	48313.34
597.04	48107.37
597.20	48222.06
597.36	48168.22
597.51	48261.85
597.67	48219.72
597.83	47990.34
597.99	48360.15
598.14	48505.26
598.30	48329.72
598.46	48128.44
598.61	48687.82
598.77	48512.28
598.93	48090.99
599.09	48041.84
599.24	48842.30
599.40	48451.43
599.56	48790.81
599.71	48523.99
599.87	48996.77
600.03	48479.52
600.18	48430.36
600.34	48516.96
600.50	48451.43
600.65	48477.18
600.81	48753.36
600.97	48350.79
601.12	48573.14
601.28	48507.60
601.44	48315.68
601.59	48446.75
601.75	48371.85
601.91	48680.80
602.06	48231.42
602.22	48556.75
602.37	48271.21
602.53	48495.90
602.69	48512.28
602.84	48128.44
603.00	48271.21
603.16	48837.62
603.31	48217.38
603.47	48507.60
603.62	48474.84
603.78	48982.73
603.94	48261.85
604.09	48793.15
604.25	48690.16
604.40	48631.65
604.56	48458.45
604.71	48732.29
604.87	48413.98
605.03	48168.22
605.18	48051.20
605.34	48540.37
605.49	47758.63
605.65	48945.28
605.80	47725.86
605.96	47805.44
606.12	47955.24
606.27	48308.66
606.43	47866.30
606.58	48200.99
606.74	48079.28
606.89	48130.78
607.05	48371.85
607.20	48535.69
607.36	48311.00
607.51	48399.94
607.67	48243.12
607.82	47894.38
607.98	48458.45
608.13	47920.13
608.29	48112.05
608.44	48095.67
608.60	47943.53
608.75	48060.56
608.91	48161.20
609.06	48208.01
609.22	48264.19
609.37	48119.07
609.53	48170.57
609.68	48643.35
609.84	47980.98
609.99	47929.49
610.15	48165.88
610.30	48308.66
610.46	48175.25
610.61	47899.06
610.76	48025.45
610.92	47634.58
611.07	47828.85
611.23	47669.69
611.38	48062.90
611.54	47646.29
611.69	48006.73
611.84	47868.64
612.00	47707.14
612.15	47962.26
612.31	48034.81
612.46	47435.64
612.62	47798.42
612.77	47859.27
612.92	47892.04
613.08	48074.60
613.23	47887.36
613.39	47950.56
613.54	47136.05
613.69	48034.81
613.85	47641.60
614.00	47667.35
614.15	47700.12
614.31	47599.47
614.46	47452.02
614.62	47384.15
614.77	47721.18
614.92	47604.16
615.08	47491.81
615.23	47552.66
615.38	48013.75
615.54	47552.66
615.69	47842.89
615.84	47704.80
616.00	47913.11
616.15	47931.83
616.30	47800.76
616.46	47323.29
616.61	47262.44
616.76	47224.99
616.92	47370.10
617.07	47833.53
617.22	47363.08
617.37	46836.46
617.53	47419.25
617.68	47487.13
617.83	47463.72
617.99	47730.54
618.14	47555.00
618.29	47405.21
618.45	47044.77
618.60	47035.41
618.75	46838.80
618.90	47302.23
619.06	47363.08
619.21	47075.19
619.36	47173.50
619.51	47129.03
619.67	46707.73
619.82	47047.11
619.97	47166.48
620.12	47168.82
620.28	46829.44
620.43	47250.74
620.58	47075.19
620.73	46904.34
620.89	47468.40
621.04	47260.10
621.19	46866.89
621.34	46506.44
621.49	46735.82
621.65	47129.03
621.80	47199.24
621.95	46806.03
622.10	46604.75
622.25	46700.71
622.41	46862.21
622.56	46857.52
622.71	46855.18
622.86	47126.69
623.01	46993.28
623.16	46689.01
623.32	46719.43
623.47	46651.56
623.62	46539.21
623.77	46735.82
623.92	46534.53
624.07	46843.48
624.23	46665.60
624.38	46887.95
624.53	46326.22
624.68	46483.04
624.83	46431.55
624.98	46494.74
625.13	46244.30
625.29	46422.19
625.44	46361.33
625.59	46117.92
625.74	46258.35
625.89	46281.75
626.04	46064.08
626.19	46073.45
626.34	45841.73
626.49	46059.40
626.65	46120.26
626.80	46473.68
626.95	46052.38
627.10	45546.82
627.25	46019.61
627.40	46047.70
627.55	45872.16
627.70	46115.58
627.85	45942.38
628.00	46354.31
628.15	45815.99
628.30	45422.78
628.45	45633.42
628.60	45268.30
628.76	45858.12
628.91	45776.20
629.06	45354.90
629.21	45340.86
629.36	45392.35
629.51	45453.20
629.66	45727.05
629.81	45670.87
629.96	46117.92
630.11	45528.10
630.26	45420.44
630.41	45696.62
630.56	45743.43
630.71	45558.53
630.86	45448.52
631.01	45181.70
631.16	44814.24
631.31	45085.74
631.46	45146.59
631.61	45308.09
631.76	45258.94
631.91	45485.97
632.06	45411.07
632.21	44982.76
632.36	45762.15
632.51	44825.94
632.66	45521.08
632.81	45125.53
632.96	45528.10
633.10	45567.89
633.25	45001.48
633.40	44893.82
633.55	45223.83
633.70	45052.97
633.85	44961.69
634.00	44449.11
634.15	44519.33
634.30	44416.35
634.45	44804.88
634.60	44673.81
634.75	44959.35
634.90	44856.37
635.05	44938.29
635.19	44886.79
635.34	45106.80
635.49	44701.89
635.64	44575.50
635.79	44978.07
635.94	44800.19
636.09	44790.83
636.24	44746.36
636.39	44910.20
636.53	44533.37
636.68	44083.99
636.83	44294.64
636.98	44346.13
637.13	44039.52
637.28	44231.44
637.43	44292.30
637.57	44516.99
637.72	44011.43
637.87	44360.17
638.02	44210.38
638.17	44659.76
638.32	44271.23
638.46	44016.11
638.61	43328.00
638.76	43863.98
638.91	44016.11
639.06	43522.26
639.20	44006.75
639.35	43871.00
639.50	43856.96
639.65	44474.86
639.80	44161.23
639.94	43957.60
640.09	44268.89
640.24	44348.47
640.39	43613.54
640.54	43246.08
640.68	43751.63
640.83	44025.48
640.98	43899.09
641.13	43868.66
641.27	43753.97
641.42	43756.32
641.57	43206.29
641.72	43342.04
641.86	43255.44
642.01	42951.17
642.16	43777.38
642.31	43232.04
642.45	43463.75
642.60	43112.67
642.75	43643.97
642.90	43693.12
643.04	43386.51
643.19	43503.54
643.34	43283.53
643.48	43517.58
643.63	43388.85
643.78	43363.11
643.93	43555.03
644.07	43381.83
644.22	43477.79
644.37	43037.77
644.51	43063.52
644.66	43250.76
644.81	43241.40
644.95	43606.52
645.10	43222.67
645.25	43035.43
645.39	42909.04
645.54	42873.93
645.69	42464.34
645.83	42719.46
645.98	42564.98
646.13	43107.99
646.27	42644.56
646.42	42745.20
646.57	43225.01
646.71	42822.44
646.86	43196.93
647.00	43217.99
647.15	43054.15
647.30	42625.84
647.44	42733.50
647.59	42693.71
647.74	42483.06
647.88	43021.39
648.03	42745.20
648.17	42916.06
648.32	43002.66
648.47	43047.13
648.61	42672.65
648.76	42396.46
648.90	42351.99
649.05	42710.10
649.20	42433.91
649.34	42171.77
649.49	42808.40
649.63	42422.21
649.78	42340.29
649.92	42293.48
650.07	42480.72
650.21	42733.50
650.36	42623.50
650.51	42384.76
650.65	42777.97
650.80	42366.04
650.94	42366.04
651.09	42410.51
651.23	41755.16
651.38	42043.04
651.52	41888.57
651.67	41654.51
651.81	42281.78
651.96	42263.05
652.10	41375.99
652.25	42014.96
652.39	42094.53
652.54	41972.83
652.68	41546.85
652.83	41794.95
652.97	42134.32
653.12	41752.82
653.26	41610.04
653.41	41881.55
653.55	41853.46
653.70	42195.18
653.84	41984.53
653.99	41914.31
654.13	41790.27
654.27	41752.82
654.42	41776.22
654.56	41345.56
654.71	42005.59
654.85	41886.23
655.00	41883.89
655.14	41329.18
655.29	41961.12
655.43	41818.35
655.57	41750.48
655.72	41483.66
655.86	41172.36
656.01	40921.93
656.15	40975.76
656.30	40713.62
656.44	41322.16
656.58	41247.26
656.73	40957.03
656.87	40921.93
657.01	41022.57
657.16	41350.24
657.30	40989.80
657.45	41074.06
657.59	40744.05
657.73	40884.48
657.88	40748.73
658.02	41102.15
658.16	41102.15
658.31	40999.16
658.45	40802.56
658.60	40509.99
658.74	40575.53
658.88	40634.04
659.03	40708.94
659.17	40872.78
659.31	40369.56
659.46	40215.08
659.60	40194.02
659.74	40098.06
659.89	40072.31
660.03	39807.83
660.17	40449.14
660.32	40119.12
660.46	40402.33
660.60	39739.96
660.74	40194.02
660.89	40383.60
661.03	39526.97
661.17	39995.07
661.32	39594.84
661.46	40158.91
661.60	39756.34
661.74	39515.26
661.89	39524.63
662.03	39892.09
662.17	39714.21
662.31	39522.29
662.46	39887.41
662.60	39770.38
662.74	39517.60
662.88	39007.37
663.03	39068.22
663.17	38834.17
663.31	38958.22
663.45	38923.11
663.60	39026.09
663.74	39388.88
663.88	38953.54
664.02	38609.48
664.17	39377.17
664.31	38878.64
664.45	38492.45
664.59	38569.69
664.73	38483.09
664.88	38766.29
665.02	38586.07
665.16	38431.60
665.30	38672.67
665.44	37972.85
665.59	38162.43
665.73	38216.27
665.87	37682.62
666.01	38003.28
666.15	38859.91
666.29	37574.96
666.44	38206.90
666.58	37862.85
666.72	37741.14
666.86	37727.10
667.00	37713.05
667.14	37635.81
667.28	37523.47
667.43	37713.05
667.57	37546.87
667.71	37963.49
667.85	37773.91
667.99	37600.71
668.13	37570.28
668.27	36732.37
668.41	37024.93
668.56	36631.72
668.70	36931.31
668.84	36627.04
668.98	37013.23
669.12	36924.29
669.26	36804.92
669.40	36931.31
669.54	36664.49
669.68	36737.05
669.82	36699.60
669.96	36044.25
670.10	36385.97
670.25	36268.94
670.39	35789.13
670.53	36212.77
670.67	35917.86
670.81	36407.03
670.95	36575.55
671.09	36074.68
671.23	35917.86
671.37	35524.65
671.51	35515.29
671.65	35896.80
671.79	35585.50
671.93	35838.28
672.07	36102.76
672.21	35339.75
672.35	35349.11
672.49	35166.55
672.63	35402.94
672.77	35021.44
672.91	35309.32
673.05	35129.10
673.19	34693.76
673.33	34752.27
673.47	35299.96
673.61	34717.17
673.75	34604.82
673.89	34932.50
674.03	34136.71
674.17	34024.37
674.31	34094.58
674.45	33914.36
674.59	34019.69
674.73	34176.50
674.87	34094.58
675.01	33350.29
675.15	33305.82
675.29	33549.24
675.43	33413.49
675.56	33668.61
675.70	33397.10
675.84	32950.06
675.98	32542.81
676.12	33523.49
676.26	33050.70
676.40	33137.30
676.54	32692.60
676.68	32690.26
676.82	32339.18
676.96	32648.13
677.10	32797.93
677.23	32385.99
677.37	32598.98
677.51	32505.36
677.65	32250.24
677.79	32364.93
677.93	32301.73
678.07	32238.54
678.21	31945.97
678.34	31435.74
678.48	31669.79
678.62	31349.14
678.76	31005.08
678.90	31391.26
679.04	31522.34
679.18	31805.54
679.31	31388.92
679.45	30995.71
679.59	30806.13
679.73	31201.68
679.87	30455.05
680.00	30445.69
680.14	30604.84
680.28	30375.47
680.42	30267.81
680.56	30501.86
680.70	29544.58
680.83	29926.09
680.97	30000.99
681.11	30108.65
681.25	30073.54
681.39	29645.23
681.52	29865.24
681.66	29317.55
681.80	29046.05
681.94	29046.05
682.07	29029.66
682.21	28950.09
682.35	28706.67
682.49	28692.63
682.62	28833.06
682.76	29160.73
682.90	28238.56
683.04	28407.08
683.17	28280.69
683.31	27892.16
683.45	28098.13
683.59	27716.62
683.72	27798.54
683.86	27669.81
684.00	27983.44
684.13	27419.38
684.27	27412.35
684.41	27594.92
684.55	27431.08
684.68	27117.45
684.82	27213.41
684.96	26775.73
685.09	27185.32
685.23	27098.72
685.37	27309.37
685.50	26981.70
685.64	26923.18
685.78	26401.24
685.91	26527.63
686.05	26249.11
686.19	25652.27
686.32	26106.34
686.46	25614.82
686.60	25563.33
686.73	25783.34
686.87	25628.87
687.01	25961.22
687.14	25830.15
687.28	25458.01
687.42	25673.34
687.55	25137.35
687.69	25099.90
687.82	25301.19
687.96	24762.87
688.10	24807.34
688.23	25296.51
688.37	24837.76
688.50	25336.30
688.64	24922.02
688.78	24694.99
688.91	24259.65
689.05	24159.01
689.18	23669.84
689.32	23976.45
689.46	23360.89
689.59	23901.55
689.73	23733.03
689.86	24018.58
690.00	23733.03
690.13	23875.80
690.27	23391.31
690.41	23527.06
690.54	23187.69
690.68	23208.75
690.81	23215.77
690.95	23206.41
691.08	22581.49
691.22	22963.00
691.35	22352.12
691.49	22644.68
691.62	22785.12
691.76	22223.39
691.89	22033.80
692.03	21975.29
692.16	22064.23
692.30	22181.26
692.43	21986.99
692.57	21851.24
692.70	21664.00
692.84	21862.94
692.97	21453.35
693.11	21296.53
693.24	21092.91
693.38	21352.71
693.51	20833.11
693.65	21235.68
693.78	20996.95
693.92	20563.95
694.05	20739.49
694.19	20615.44
694.32	20470.33
694.45	20650.55
694.59	20414.15
694.72	21041.42
694.86	20517.14
694.99	20156.69
695.13	20025.62
695.26	19824.34
695.39	19988.18
695.53	19847.74
695.66	19648.80
695.80	19438.15
695.93	19606.67
696.07	19442.83
696.20	18974.72
696.33	19126.86
696.47	19262.61
696.60	19311.76
696.73	19391.34
696.87	18843.65
697.00	18977.06
697.14	18913.87
697.27	18714.92
697.40	18665.77
697.54	18209.37
697.67	18408.31
697.80	18616.62
697.94	18607.26
698.07	18436.40
698.21	18211.71
698.34	18214.05
698.47	18178.94
698.61	17357.41
698.74	17816.16
698.87	17614.87
699.01	17509.55
699.14	17521.25
699.27	17326.99
699.40	17593.81
699.54	17455.72
699.67	17336.35
699.80	17090.59
699.94	16940.80
700.07	17053.14
700.20	17062.51
700.34	16643.55
700.47	16704.40
700.60	16893.99
700.73	16980.59
700.87	16299.49
701.00	16163.74
701.13	16163.74
701.26	16140.33
701.40	16250.34
701.53	16025.65
701.66	15892.24
701.79	16217.57
701.93	15927.35
702.06	15740.10
702.19	15513.07
702.32	15419.45
702.46	15501.37
702.59	15653.50
702.72	15524.77
702.85	15489.67
702.99	15101.14
703.12	15220.50
703.25	15105.82
703.38	14944.32
703.51	14775.80
703.65	14846.02
703.78	14745.38
703.91	14537.07
704.04	14654.09
704.17	14527.71
704.31	14321.74
704.44	14525.36
704.57	14544.09
704.70	14398.98
704.83	14148.54
704.96	14389.61
705.10	13900.44
705.23	14090.02
>>>>>End Processed Spectral Data<<<<<
