SpectraSuite Data File
++++++++++++++++++++++++++++++++++++
Date: Fri Oct 25 10:43:39 EDT 2013
User: price-jones
Dark Spectrum Present: No
Reference Spectrum Present: No
Number of Sampled Component Spectra: 1
Spectrometers: USB2+H05261
Integration Time (usec): 100000 (USB2+H05261)
Spectra Averaged: 1 (USB2+H05261)
Boxcar Smoothing: 0 (USB2+H05261)
Correct for Electrical Dark: No (USB2+H05261)
Strobe/Lamp Enabled: No (USB2+H05261)
Correct for Detector Non-linearity: No (USB2+H05261)
Correct for Stray Light: No (USB2+H05261)
Number of Pixels in Processed Spectrum: 2048
>>>>>Begin Processed Spectral Data<<<<<
365.73	128.73
365.92	128.73
366.12	128.73
366.32	56.17
366.52	53.83
366.72	70.22
366.91	11.70
367.11	56.17
367.31	84.26
367.51	42.13
367.70	7.02
367.90	42.13
368.10	21.06
368.30	0.00
368.49	0.00
368.69	42.13
368.89	67.88
369.09	53.83
369.28	58.51
369.48	42.13
369.68	88.94
369.87	107.66
370.07	56.17
370.27	126.39
370.47	205.97
370.66	330.02
370.86	390.87
371.06	463.43
371.25	531.30
371.45	411.93
371.65	472.79
371.84	486.83
372.04	514.92
372.24	503.22
372.44	489.17
372.63	507.90
372.83	524.28
373.03	486.83
373.22	519.60
373.42	531.30
373.62	535.98
373.81	500.87
374.01	528.96
374.21	533.64
374.40	528.96
374.60	543.00
374.79	557.05
374.99	601.52
375.19	641.31
375.38	655.35
375.58	566.41
375.78	657.69
375.97	638.97
376.17	620.24
376.37	622.58
376.56	596.84
376.76	552.37
376.95	662.37
377.15	636.63
377.35	610.88
377.54	692.80
377.74	613.22
377.93	711.52
378.13	720.88
378.33	695.14
378.52	718.54
378.72	704.50
378.91	580.45
379.11	650.67
379.31	690.46
379.50	648.33
379.70	636.63
379.89	704.50
380.09	636.63
380.28	650.67
380.48	645.99
380.68	702.16
380.87	645.99
381.07	711.52
381.26	814.51
381.46	709.18
381.65	671.73
381.85	669.39
382.04	709.18
382.24	706.84
382.43	688.12
382.63	688.12
382.83	779.40
383.02	751.31
383.22	748.97
383.41	683.44
383.61	760.67
383.80	861.32
384.00	788.76
384.19	847.27
384.39	795.78
384.58	807.48
384.78	732.59
384.97	802.80
385.17	777.06
385.36	786.42
385.56	870.68
385.75	802.80
385.95	800.46
386.14	800.46
386.34	887.06
386.53	816.85
386.72	772.38
386.92	983.02
387.11	842.59
387.31	901.11
387.50	877.70
387.70	877.70
387.89	870.68
388.09	891.74
388.28	894.08
388.48	919.83
388.67	917.49
388.86	1018.13
389.06	976.00
389.25	992.39
389.45	976.00
389.64	1022.81
389.84	1011.11
390.03	1029.84
390.22	985.37
390.42	1006.43
390.61	926.85
390.81	1053.24
391.00	1114.10
391.19	1088.35
391.39	1071.97
391.58	1076.65
391.78	1004.09
391.97	1001.75
392.16	1088.35
392.36	1067.28
392.55	980.68
392.75	1050.90
392.94	987.71
393.13	1034.52
393.33	976.00
393.52	1055.58
393.71	1163.25
393.91	1053.24
394.10	1167.93
394.29	1177.29
394.49	1219.42
394.68	1193.67
394.88	1207.72
395.07	1289.64
395.26	1203.04
395.46	1240.48
395.65	1303.68
395.84	1245.16
396.04	1263.89
396.23	1219.42
396.42	1217.08
396.62	1191.33
396.81	1245.16
397.00	1261.55
397.19	1268.57
397.39	1291.98
397.58	1329.42
397.77	1329.42
397.97	1399.64
398.16	1399.64
398.35	1495.60
398.55	1453.47
398.74	1547.09
398.93	1624.33
399.12	1516.67
399.32	1474.54
399.51	1551.78
399.70	1692.21
399.90	1535.39
400.09	1621.99
400.28	1685.19
400.47	1633.69
400.67	1633.69
400.86	1713.27
401.05	1717.95
401.24	1701.57
401.44	1699.23
401.63	1666.46
401.82	1724.97
402.01	1710.93
402.21	1778.81
402.40	1687.53
402.59	1708.59
402.78	1694.55
402.97	1748.38
403.17	1853.70
403.36	1830.30
403.55	1849.02
403.74	1886.47
403.93	1802.21
404.13	1966.05
404.32	1944.99
404.51	1888.81
404.70	1949.67
404.89	1970.73
405.09	2010.52
405.28	2057.33
405.47	2038.61
405.66	1944.99
405.85	2057.33
406.05	2202.44
406.24	2029.24
406.43	2029.24
406.62	2167.34
406.81	2186.06
407.00	2076.06
407.20	2036.27
407.39	2195.42
407.58	2108.82
407.77	2258.62
407.96	2139.25
408.15	2209.47
408.34	2232.87
408.54	2286.70
408.73	2263.30
408.92	2296.07
409.11	2342.88
409.30	2347.56
409.49	2251.60
409.68	2314.79
409.87	2300.75
410.07	2394.37
410.26	2406.07
410.45	2473.95
410.64	2530.12
410.83	2502.03
411.02	2633.10
411.21	2710.34
411.40	2633.10
411.59	2516.08
411.78	2675.23
411.98	2623.74
412.17	2656.51
412.36	2686.94
412.55	2715.02
412.74	2853.11
412.93	2803.96
413.12	2750.13
413.31	2935.03
413.50	2839.07
413.69	2892.90
413.88	2963.12
414.07	3056.74
414.26	3049.72
414.45	3059.08
414.64	3021.63
414.83	3094.19
415.02	3133.98
415.22	3108.23
415.41	3227.60
415.60	3155.04
415.79	3248.66
415.98	3286.11
416.17	3162.06
416.36	3393.78
416.55	3370.37
416.74	3344.63
416.93	3309.52
417.12	3337.60
417.31	3459.31
417.50	3349.31
417.69	3400.80
417.88	3417.18
418.07	3492.08
418.26	3618.47
418.45	3489.74
418.64	3684.00
418.83	3686.34
419.02	3726.13
419.21	3583.36
419.39	3669.96
419.58	3569.32
419.77	3574.00
419.96	3679.32
420.15	3751.88
420.34	3805.71
420.53	3779.97
420.72	3796.35
420.91	3946.14
421.10	3730.81
421.29	3894.65
421.48	3803.37
421.67	3906.35
421.86	3805.71
422.05	3908.69
422.24	3700.39
422.43	3838.48
422.61	3985.93
422.80	4023.38
422.99	3906.35
423.18	3978.91
423.37	4018.70
423.56	4079.55
423.75	3885.29
423.94	3995.29
424.13	3737.84
424.32	3829.12
424.50	4072.53
424.69	4109.98
424.88	4091.26
425.07	4072.53
425.26	3978.91
425.45	4018.70
425.64	3999.98
425.83	4156.79
426.01	3988.27
426.20	3988.27
426.39	4098.28
426.58	3964.87
426.77	4262.12
426.96	4140.41
427.15	3934.44
427.33	4173.18
427.52	4023.38
427.71	4149.77
427.90	4236.37
428.09	4180.20
428.28	4189.56
428.46	4400.21
428.65	4107.64
428.84	4234.03
429.03	4269.14
429.22	4173.18
429.40	4234.03
429.59	4100.62
429.78	3957.85
429.97	3974.23
430.16	4030.40
430.34	4189.56
430.53	4219.99
430.72	4454.04
430.91	4304.25
431.10	4365.10
431.28	4561.70
431.47	4685.75
431.66	4802.78
431.85	4526.60
432.03	4748.95
432.22	4767.67
432.41	4592.13
432.60	4699.80
432.79	4692.77
432.97	4882.36
433.16	4875.34
433.35	4770.01
433.54	4596.81
433.72	4795.76
433.91	4851.93
434.10	4873.00
434.28	4734.90
434.47	4844.91
434.66	4975.98
434.85	4973.64
435.03	5114.07
435.22	5259.18
435.41	5259.18
435.59	5184.29
435.78	5301.31
435.97	5266.21
436.16	5329.40
436.34	5261.52
436.53	5270.89
436.72	5298.97
436.90	5121.09
437.09	5186.63
437.28	5242.80
437.46	5217.05
437.65	5355.15
437.84	5282.59
438.02	5280.25
438.21	5027.47
438.40	5336.42
438.58	5270.89
438.77	5423.02
438.96	5568.13
439.14	5636.01
439.33	5743.67
439.52	5659.42
439.70	5898.15
439.89	5795.17
440.08	5940.28
440.26	5891.13
440.45	5816.23
440.63	5802.19
440.82	6015.18
441.01	6108.80
441.19	6061.99
441.38	6239.87
441.57	6148.59
441.75	6298.38
441.94	6408.39
442.12	6335.83
442.31	6401.37
442.50	6319.45
442.68	6464.56
442.87	6356.90
443.05	6214.12
443.24	6661.16
443.43	6443.49
443.61	6506.69
443.80	6686.91
443.98	6272.64
444.17	6434.13
444.35	6661.16
444.54	6644.78
444.73	6626.06
444.91	6572.22
445.10	6707.98
445.28	6518.39
445.47	6497.33
445.65	6417.75
445.84	6600.31
446.02	6616.69
446.21	6623.72
446.39	6464.56
446.58	6682.23
446.77	6766.49
446.95	6799.26
447.14	6965.43
447.32	6958.41
447.51	6834.36
447.69	6813.30
447.88	6787.55
448.06	6813.30
448.25	6586.27
448.43	6803.94
448.62	6780.53
448.80	6956.07
448.99	6836.70
449.17	6986.50
449.36	6876.49
449.54	7138.63
449.73	7094.16
449.91	7110.55
450.10	6993.52
450.28	7339.92
450.46	7279.07
450.65	7342.26
450.83	7253.32
451.02	7211.19
451.20	7316.51
451.39	7330.56
451.57	7150.34
451.76	7377.37
451.94	7335.24
452.13	7239.28
452.31	7229.91
452.49	7274.38
452.68	7213.53
452.86	7225.23
453.05	7407.80
453.23	7487.37
453.42	7375.03
453.60	7480.35
453.78	7555.25
453.97	7375.03
454.15	7508.44
454.34	7529.50
454.52	7627.81
454.70	7648.87
454.89	7597.38
455.07	7653.55
455.26	7770.58
455.44	7812.71
455.62	7840.79
455.81	7861.86
455.99	7789.30
456.17	7882.92
456.36	8121.66
456.54	8208.26
456.73	8152.09
456.91	8149.75
457.09	8156.77
457.28	8557.00
457.46	8215.28
457.64	8229.32
457.83	8182.51
458.01	8175.49
458.19	8425.93
458.38	8250.39
458.56	8468.06
458.74	8336.99
458.93	8231.66
459.11	8369.76
459.29	8486.78
459.48	8311.24
459.66	8290.18
459.84	8755.94
460.03	8699.77
460.21	8519.55
460.39	8709.13
460.57	8425.93
460.76	8690.41
460.94	8692.75
461.12	8667.00
461.31	8760.63
461.49	8732.54
461.67	8634.24
461.85	9121.07
462.04	8915.10
462.22	9577.47
462.40	8922.12
462.59	9039.15
462.77	8868.29
462.95	9202.99
463.13	8980.64
463.32	9149.15
463.50	9217.03
463.68	9102.34
463.86	9188.94
464.05	9029.79
464.23	8992.34
464.41	9298.95
464.59	9151.49
464.78	9268.52
464.96	9247.46
465.14	9109.36
465.32	9170.22
465.50	9521.30
465.69	9579.81
465.87	9336.40
466.05	9373.85
466.23	9277.88
466.41	9186.60
466.60	9533.00
466.78	9404.27
466.96	9294.27
467.14	9439.38
467.32	9561.09
467.51	9678.12
467.69	9320.01
467.87	9399.59
468.05	9476.83
468.23	9650.03
468.41	9554.07
468.60	9525.98
468.78	9692.16
468.96	9650.03
469.14	9652.37
469.32	9877.06
469.50	9675.77
469.69	9823.23
469.87	9884.08
470.05	9818.55
470.23	9907.49
470.41	9914.51
470.59	9982.38
470.77	9872.38
470.95	10087.71
471.14	10108.77
471.32	10008.13
471.50	10272.61
471.68	10260.91
471.86	10551.14
472.04	10583.90
472.22	10731.36
472.40	10228.14
472.58	10518.37
472.77	10691.57
472.95	10834.34
473.13	11098.82
473.31	10733.70
473.49	10661.14
473.67	10593.26
473.85	10712.63
474.03	11105.84
474.21	11255.64
474.39	11314.15
474.57	11115.20
474.75	11110.52
474.93	11389.05
475.12	11070.73
475.30	11386.71
475.48	11222.87
475.66	11477.99
475.84	11339.90
476.02	11606.72
476.20	11648.85
476.38	11756.51
476.56	12187.17
476.74	11974.18
476.92	11716.72
477.10	11985.88
477.28	12245.68
477.46	12381.43
477.64	12430.59
477.82	12599.10
478.00	12659.96
478.18	12723.15
478.36	12816.77
478.54	12856.56
478.72	12793.37
478.90	13076.57
479.08	13125.72
479.26	13324.67
479.44	13195.94
479.62	13392.55
479.80	13338.71
479.98	13448.72
480.16	13947.25
480.34	13455.74
480.52	14031.51
480.70	13788.10
480.88	13640.64
481.06	13956.61
481.24	14113.43
481.41	14295.99
481.59	14511.32
481.77	14480.89
481.95	14359.19
482.13	14651.75
482.31	14726.65
482.49	15028.58
482.67	15019.22
482.85	15330.51
483.03	15328.17
483.21	15356.25
483.39	15550.52
483.57	15208.80
483.74	15707.34
483.92	15819.68
484.10	15604.35
484.28	16042.03
484.46	16121.61
484.64	16662.27
484.82	16528.86
485.00	16540.57
485.18	16678.66
485.35	16793.34
485.53	16175.44
485.71	16404.81
485.89	16400.13
486.07	16556.95
486.25	16631.85
486.43	17305.92
486.61	16929.09
486.78	17343.37
486.96	17774.03
487.14	17699.13
487.32	17855.95
487.50	18368.52
487.68	18207.03
487.85	18263.20
488.03	18590.88
488.21	18780.46
488.39	18724.29
488.57	18787.48
488.75	18752.37
488.92	19176.01
489.10	19571.56
489.28	19487.30
489.46	19709.65
489.64	19885.19
489.81	20091.16
489.99	20425.86
490.17	20257.34
490.35	20418.83
490.53	20411.81
490.70	20884.60
490.88	20645.87
491.06	20957.16
491.24	21235.68
491.41	20870.56
491.59	21193.55
491.77	21062.48
491.95	21238.02
492.13	21720.17
492.30	21493.14
492.48	22167.21
492.66	21788.05
492.84	22300.62
493.01	22253.81
493.19	22073.59
493.37	22504.25
493.54	22808.52
493.72	22965.34
493.90	22855.33
494.08	23332.80
494.25	23372.59
494.43	23531.75
494.61	23695.58
494.79	23653.45
494.96	24020.92
495.14	23714.31
495.32	24112.20
495.49	23974.11
495.67	24360.30
495.85	24271.36
496.02	24404.77
496.20	24580.31
496.38	24842.45
496.55	24467.96
496.73	25151.40
496.91	25170.12
497.09	25212.25
497.26	25095.22
497.44	25394.81
497.62	25626.53
497.79	25483.75
497.97	25514.18
498.14	25762.28
498.32	25809.09
498.50	25785.68
498.67	26160.17
498.85	26017.40
499.03	26270.17
499.20	26562.74
499.38	26389.54
499.56	26525.29
499.73	26628.27
499.91	26813.18
500.08	26785.09
500.26	26726.58
500.44	26859.99
500.61	27082.34
500.79	26859.99
500.97	27044.89
501.14	27199.37
501.32	27379.59
501.49	27227.45
501.67	27377.25
501.84	27861.74
502.02	27541.08
502.20	28032.60
502.37	27843.01
502.55	28266.65
502.72	28196.43
502.90	28734.76
503.07	28360.27
503.25	28297.08
503.43	28474.96
503.60	28467.94
503.78	28297.08
503.95	28114.52
504.13	28814.34
504.30	29050.73
504.48	28781.57
504.65	29146.69
504.83	29266.06
505.01	29539.90
505.18	29415.85
505.36	29907.37
505.53	30204.61
505.71	29750.55
505.88	29867.58
506.06	29607.78
506.23	29944.81
506.41	30300.58
506.58	30024.39
506.76	30218.66
506.93	30541.65
507.11	30078.22
507.28	30464.41
507.46	30319.30
507.63	30391.86
507.81	30808.47
507.98	30448.03
508.16	30684.42
508.33	30789.75
508.50	30892.73
508.68	31077.63
508.85	31290.62
509.03	31140.83
509.20	31143.17
509.38	31791.50
509.55	31606.59
509.73	31793.84
509.90	31943.63
510.08	31501.27
510.25	31718.94
510.42	31936.61
510.60	32165.98
510.77	32343.86
510.95	32072.36
511.12	32325.14
511.30	32568.55
511.47	32416.42
511.64	32524.08
511.82	32547.49
511.99	32512.38
512.17	32486.64
512.34	32435.14
512.51	32685.58
512.69	33371.36
512.86	33003.89
513.04	33013.26
513.21	33057.73
513.38	32821.33
513.56	33102.20
513.73	33254.33
513.90	33244.97
514.08	33039.00
514.25	33207.52
514.43	33457.96
514.60	33551.58
514.77	33614.77
514.95	33890.96
515.12	33851.17
515.29	33935.43
515.47	34024.37
515.64	34066.50
515.81	33921.38
515.99	34312.25
516.16	33886.28
516.33	33420.51
516.51	33888.62
516.68	33640.52
516.85	33537.54
517.03	33621.80
517.20	33879.25
517.37	34675.04
517.54	35054.20
517.72	34529.92
517.89	34497.16
518.06	33935.43
518.24	34668.02
518.41	34323.96
518.58	34862.28
518.75	34766.32
518.93	35068.25
519.10	34906.75
519.27	35363.15
519.45	35452.09
519.62	35676.79
519.79	35496.56
519.96	35622.95
520.14	36046.59
520.31	35566.78
520.48	35714.23
520.65	35821.90
520.83	36273.62
521.00	35798.49
521.17	36400.01
521.34	36397.67
521.52	36608.32
521.69	36835.35
521.86	36568.53
522.03	36517.04
522.20	36634.06
522.38	36720.66
522.55	37137.28
522.72	36627.04
522.89	36697.26
523.07	36912.59
523.24	37343.25
523.41	37277.71
523.58	37432.19
523.75	38045.41
523.92	37326.86
524.10	37757.52
524.27	37680.28
524.44	37322.18
524.61	37558.58
524.78	37677.94
524.96	37441.55
525.13	37635.81
525.30	38038.39
525.47	37909.66
525.64	38099.24
525.81	37699.01
525.98	37537.51
526.16	37432.19
526.33	37769.22
526.50	38026.68
526.67	37251.97
526.84	37670.92
527.01	37514.11
527.18	38064.13
527.36	37926.04
527.53	38630.54
527.70	38934.81
527.87	38326.27
528.04	38532.24
528.21	38995.67
528.38	38855.23
528.55	38866.94
528.72	39159.50
528.89	39227.38
529.07	38951.20
529.24	38960.56
529.41	39246.10
529.58	39129.08
529.75	39047.16
529.92	39283.55
530.09	39246.10
530.26	39229.72
530.43	39819.53
530.60	39117.37
530.77	39452.07
530.94	39552.71
531.11	39765.70
531.28	39995.07
531.46	39906.13
531.63	40278.28
531.80	39339.72
531.97	39646.33
532.14	39751.66
532.31	39482.50
532.48	40006.78
532.65	39992.73
532.82	40023.16
532.99	40177.64
533.16	40074.65
533.33	40210.40
533.50	40346.15
533.67	40062.95
533.84	39871.03
534.01	40531.06
534.18	40458.50
534.35	40858.73
534.52	40884.48
534.69	41123.21
534.86	41249.60
535.03	40222.11
535.20	41331.52
535.37	41123.21
535.54	41572.60
535.71	41191.09
535.88	40877.46
536.05	40828.30
536.22	40975.76
536.38	41219.17
536.55	40840.01
536.72	40889.16
536.89	40928.95
537.06	41008.53
537.23	41682.60
537.40	41170.02
537.57	41317.48
537.74	41890.91
537.91	41626.43
538.08	41460.25
538.25	41383.01
538.42	41624.09
538.59	41940.06
538.75	41827.71
538.92	41741.11
539.09	42036.02
539.26	41579.62
539.43	41926.02
539.60	41813.67
539.77	41640.47
539.94	41874.52
540.11	41347.90
540.28	42366.04
540.44	41759.84
540.61	41865.16
540.78	41663.88
540.95	42045.38
541.12	42007.94
541.29	41762.18
541.46	42150.71
541.62	42309.86
541.79	42307.52
541.96	42092.19
542.13	42260.71
542.30	42080.49
542.47	42593.07
542.63	42410.51
542.80	42674.99
542.97	42911.38
543.14	42782.65
543.31	42801.38
543.48	42873.93
543.64	43110.33
543.81	42946.49
543.98	42845.85
544.15	42897.34
544.32	43250.76
544.48	43250.76
544.65	43353.74
544.82	43290.55
544.99	42981.60
545.16	43213.31
545.32	42796.70
545.49	43557.37
545.66	43683.76
545.83	43288.21
546.00	43606.52
546.16	43302.25
546.33	43234.38
546.50	43096.28
546.67	43388.85
546.83	42838.83
547.00	43824.19
547.17	43433.32
547.34	43206.29
547.50	43615.88
547.67	44231.44
547.84	43505.88
548.00	43866.32
548.17	44095.69
548.34	43931.86
548.51	44526.35
548.67	44023.14
548.84	43889.73
549.01	43791.42
549.18	44222.08
549.34	44233.78
549.51	44257.19
549.68	44053.56
549.84	43803.13
550.01	44446.77
550.18	44116.76
550.34	44414.01
550.51	43948.24
550.68	44041.86
550.84	43758.66
551.01	44549.76
551.18	44453.79
551.34	44364.85
551.51	44559.12
551.68	44708.91
551.84	44505.29
552.01	44664.44
552.18	44516.99
552.34	44610.61
552.51	44446.77
552.68	44575.50
552.84	44694.87
553.01	44327.41
553.18	44828.28
553.34	44776.79
553.51	44568.48
553.67	44818.92
553.84	45200.43
554.01	45284.68
554.17	44989.78
554.34	45247.24
554.51	45022.54
554.67	45006.16
554.84	44781.47
555.00	44699.55
555.17	44926.58
555.33	44830.62
555.50	45055.31
555.67	44687.85
555.83	45078.72
556.00	44889.13
556.16	45282.34
556.33	45088.08
556.50	45373.63
556.66	44769.77
556.83	45099.78
556.99	45109.14
557.16	45139.57
557.32	45394.69
557.49	45172.34
557.65	45336.18
557.82	45521.08
557.98	45514.06
558.15	45008.50
558.32	45347.88
558.48	45113.83
558.65	45146.59
558.81	45361.92
558.98	45427.46
559.14	45457.88
559.31	45148.93
559.47	45600.66
559.64	45677.90
559.80	45745.77
559.97	45441.50
560.13	45170.00
560.30	45418.10
560.46	46040.68
560.63	45347.88
560.79	45862.80
560.96	45776.20
561.12	45722.37
561.29	45500.01
561.45	45942.38
561.61	45862.80
561.78	45397.03
561.94	45771.52
562.11	45343.20
562.27	45397.03
562.44	45841.73
562.60	45752.79
562.77	45610.02
562.93	45586.61
563.10	46256.01
563.26	45619.38
563.42	46263.03
563.59	45453.20
563.75	45715.34
563.92	46241.96
564.08	45783.22
564.24	46401.12
564.41	45785.56
564.57	46260.69
564.74	45844.07
564.90	45734.07
565.07	46007.91
565.23	45647.47
565.39	45827.69
565.56	45972.80
565.72	45801.94
565.88	45605.34
566.05	45806.62
566.21	45886.20
566.38	45691.94
566.54	46033.66
566.70	46157.70
566.87	46635.17
567.03	45869.82
567.19	46167.07
567.36	46251.33
567.52	45979.82
567.68	46248.99
567.85	45940.04
568.01	46089.83
568.17	46176.43
568.34	46047.70
568.50	46146.00
568.66	45993.87
568.83	45986.85
568.99	46038.34
569.15	46040.68
569.32	45853.44
569.48	46335.59
569.64	46546.23
569.81	46347.29
569.97	45752.79
570.13	46443.25
570.30	46000.89
570.46	45780.88
570.62	45801.94
570.78	45675.55
570.95	45474.27
571.11	45762.15
571.27	45963.44
571.43	46356.65
571.60	46293.46
571.76	46564.96
571.92	46003.23
572.09	46129.62
572.25	46213.88
572.41	46412.82
572.57	46398.78
572.74	46412.82
572.90	46574.32
573.06	46333.24
573.22	46312.18
573.38	46146.00
573.55	45731.73
573.71	46387.08
573.87	46534.53
574.03	46485.38
574.20	46134.30
574.36	46103.87
574.52	46103.87
574.68	46483.04
574.84	46485.38
575.01	46312.18
575.17	46129.62
575.33	46342.61
575.49	46021.95
575.65	46426.87
575.82	46232.60
575.98	46068.76
576.14	46532.19
576.30	46333.24
576.46	46115.58
576.62	46277.07
576.79	46019.61
576.95	46211.54
577.11	46347.29
577.27	46567.30
577.43	46096.85
577.59	46099.19
577.75	46094.51
577.92	45806.62
578.08	46136.64
578.24	45972.80
578.40	45925.99
578.56	46335.59
578.72	46248.99
578.88	46323.88
579.04	46564.96
579.21	45907.27
579.37	45708.32
579.53	46623.47
579.69	46232.60
579.85	46174.09
580.01	46078.13
580.17	46108.55
580.33	46426.87
580.49	46431.55
580.65	46398.78
580.82	46218.56
580.98	46368.35
581.14	46330.90
581.30	46976.89
581.46	46316.86
581.62	46321.54
581.78	46050.04
581.94	46653.90
582.10	46609.43
582.26	46499.42
582.42	46473.68
582.58	46646.88
582.74	46614.11
582.90	46909.02
583.06	46791.99
583.22	46656.24
583.38	47026.04
583.54	46412.82
583.70	46525.17
583.86	46471.34
584.02	46288.77
584.18	46351.97
584.34	46246.65
584.50	46611.77
584.66	46143.66
584.82	46138.98
584.98	46632.83
585.14	46443.25
585.30	45904.93
585.46	46000.89
585.62	46176.43
585.78	46272.39
585.94	46227.92
586.10	46387.08
586.26	46497.08
586.42	46394.10
586.58	46714.75
586.74	46347.29
586.90	46358.99
587.06	46485.38
587.22	46857.52
587.38	46438.57
587.54	46340.27
587.70	46279.41
587.86	46667.94
588.02	46422.19
588.18	46602.41
588.34	46403.46
588.49	45984.51
588.65	45642.79
588.81	45909.61
588.97	46033.66
589.13	46113.23
589.29	45900.25
589.45	46131.96
589.61	46319.20
589.77	46148.34
589.93	46389.42
590.08	46494.74
590.24	46761.56
590.40	46391.76
590.56	46703.05
590.72	46670.28
590.88	46087.49
591.04	46887.95
591.20	46658.58
591.35	46890.29
591.51	46951.15
591.67	46651.56
591.83	46469.00
591.99	46209.20
592.15	46803.69
592.31	46625.81
592.46	46677.30
592.62	46426.87
592.78	46803.69
592.94	46766.24
593.10	46351.97
593.26	46637.51
593.41	46525.17
593.57	46501.76
593.73	46204.52
593.89	46611.77
594.05	46604.75
594.20	46342.61
594.36	46536.87
594.52	46548.57
594.68	46319.20
594.84	46728.80
594.99	46534.53
595.15	46625.81
595.31	46529.85
595.47	46663.26
595.62	46632.83
595.78	46195.15
595.94	46529.85
596.10	46740.50
596.25	46944.12
596.41	46644.54
596.57	46469.00
596.73	46422.19
596.88	46328.56
597.04	46653.90
597.20	46670.28
597.36	46316.86
597.51	46923.06
597.67	46642.20
597.83	46478.36
597.99	46930.08
598.14	46321.54
598.30	46546.23
598.46	46260.69
598.61	46511.13
598.77	46085.15
598.93	46319.20
599.09	46419.84
599.24	46639.86
599.40	46478.36
599.56	46679.64
599.71	46197.49
599.87	47206.26
600.03	46082.81
600.18	46389.42
600.34	46773.27
600.50	46321.54
600.65	46373.03
600.81	46590.70
600.97	46447.93
601.12	46770.93
601.28	47227.33
601.44	46593.04
601.59	46810.71
601.75	46241.96
601.91	46270.05
602.06	46103.87
602.22	46440.91
602.37	46520.49
602.53	46417.50
602.69	46553.26
602.84	46227.92
603.00	46328.56
603.16	46024.29
603.31	46731.14
603.47	46616.45
603.62	46380.06
603.78	46497.08
603.94	46579.00
604.09	46749.86
604.25	46513.47
604.40	46014.93
604.56	46628.15
604.71	46461.97
604.87	46646.88
605.03	46251.33
605.18	46223.24
605.34	46309.84
605.49	46422.19
605.65	46438.57
605.80	46464.32
605.96	46354.31
606.12	46272.39
606.27	46499.42
606.43	46248.99
606.58	46705.39
606.74	46478.36
606.89	46010.25
607.05	46403.46
607.20	46396.44
607.36	46206.86
607.51	46899.65
607.67	46485.38
607.82	45797.26
607.98	46014.93
608.13	46010.25
608.29	45944.72
608.44	45858.12
608.60	45713.00
608.75	46103.87
608.91	46101.53
609.06	46494.74
609.22	45928.33
609.37	46202.18
609.53	46024.29
609.68	46162.39
609.84	46150.68
609.99	45954.08
610.15	45734.07
610.30	46007.91
610.46	45879.18
610.61	45998.55
610.76	46263.03
610.92	46302.82
611.07	45989.19
611.23	45776.20
611.38	46061.74
611.54	45806.62
611.69	45401.71
611.84	45652.15
612.00	45670.87
612.15	45787.90
612.31	45893.22
612.46	46061.74
612.62	46080.47
612.77	45301.07
612.92	45638.11
613.08	45617.04
613.23	45691.94
613.39	45188.72
613.54	45200.43
613.69	45092.76
613.85	45020.20
614.00	45532.78
614.15	45081.06
614.31	45097.44
614.46	45427.46
614.62	45797.26
614.77	45537.46
614.92	45038.93
615.08	44896.16
615.23	45003.82
615.38	45106.80
615.54	44802.53
615.69	45041.27
615.84	45289.37
616.00	45436.82
616.15	45078.72
616.30	45268.30
616.46	45097.44
616.61	45050.63
616.76	44832.96
616.92	44652.74
617.07	44933.60
617.22	44851.69
617.37	45090.42
617.53	44856.37
617.68	45216.81
617.83	44919.56
617.99	44823.60
618.14	44570.82
618.29	44680.83
618.45	44264.21
618.60	44390.60
618.75	44233.78
618.90	44144.84
619.06	44542.74
619.21	44575.50
619.36	44917.22
619.51	44641.04
619.67	44491.24
619.82	45130.21
619.97	44552.10
620.12	44105.06
620.28	44135.48
620.43	44346.13
620.58	44271.23
620.73	44172.93
620.89	44102.71
621.04	44215.06
621.19	44552.10
621.34	44884.45
621.49	44563.80
621.65	44105.06
621.80	44406.98
621.95	44318.04
622.10	44076.97
622.25	44142.50
622.41	43964.62
622.56	44051.22
622.71	44285.28
622.86	43962.28
623.01	43636.95
623.16	44102.71
623.32	43931.86
623.47	44130.80
623.62	43676.74
623.77	43976.33
623.92	43489.49
624.07	43529.28
624.23	43634.61
624.38	43107.99
624.53	43550.35
624.68	43683.76
624.83	43777.38
624.98	43894.41
625.13	43367.79
625.29	43318.64
625.44	43583.12
625.59	43545.67
625.74	43470.77
625.89	43196.93
626.04	43456.73
626.19	43409.92
626.34	43316.29
626.49	43761.00
626.65	42719.46
626.80	43620.56
626.95	43297.57
627.10	43234.38
627.25	42890.32
627.40	42850.53
627.55	42766.27
627.70	42789.67
627.85	43250.76
628.00	42803.72
628.15	42925.42
628.30	42649.24
628.45	43297.57
628.60	42946.49
628.76	43316.29
628.91	42462.00
629.06	42787.33
629.21	43220.33
629.36	42696.05
629.51	42302.84
629.66	42808.40
629.81	42698.39
629.96	42621.16
630.11	42703.07
630.26	42782.65
630.41	42564.98
630.56	42632.86
630.71	42799.04
630.86	42513.49
631.01	42230.29
631.16	42614.13
631.31	41638.13
631.46	41991.55
631.61	42134.32
631.76	42564.98
631.91	42375.40
632.06	42499.45
632.21	42466.68
632.36	42351.99
632.51	42323.91
632.66	42064.11
632.81	42363.70
632.96	42220.92
633.10	42108.58
633.25	42436.25
633.40	42078.15
633.55	41640.47
633.70	42021.98
633.85	41610.04
634.00	41385.35
634.15	42113.26
634.30	41773.88
634.45	42007.94
634.60	42010.28
634.75	41588.98
634.90	41591.32
635.05	41500.04
635.19	41565.57
635.34	41897.93
635.49	41694.30
635.64	42183.48
635.79	41965.81
635.94	41766.86
636.09	41303.43
636.24	41464.93
636.39	40804.90
636.53	41256.62
636.68	41273.01
636.83	41282.37
636.98	41453.23
637.13	41354.93
637.28	41455.57
637.43	41490.68
637.57	41593.66
637.72	41228.54
637.87	41186.41
638.02	41340.88
638.17	41359.61
638.32	41193.43
638.46	40952.35
638.61	40893.84
638.76	40849.37
638.91	41289.39
639.06	41013.21
639.20	41205.13
639.35	41387.69
639.50	40966.40
639.65	41270.67
639.80	40458.50
639.94	40664.47
640.09	40470.20
640.24	40612.98
640.39	40376.58
640.54	40182.32
640.68	40460.84
640.83	40931.29
640.98	40587.23
641.13	40376.58
641.27	40678.51
641.42	40582.55
641.57	40645.74
641.72	40570.85
641.86	40500.63
642.01	39807.83
642.16	40554.46
642.31	39981.03
642.45	40414.03
642.60	39873.37
642.75	40254.87
642.90	40114.44
643.04	40428.07
643.19	40308.71
643.34	40187.00
643.48	40020.82
643.63	39988.05
643.78	39454.41
643.93	40343.81
644.07	40172.96
644.22	40126.14
644.37	39625.27
644.51	39974.01
644.66	39555.05
644.81	40535.74
644.95	40327.43
645.10	40069.97
645.25	39770.38
645.39	40020.82
645.54	39739.96
645.69	39758.68
645.83	39686.12
645.98	39578.46
646.13	40069.97
646.27	39878.05
646.42	39569.10
646.57	39459.09
646.71	39328.02
646.86	39920.18
647.00	39271.85
647.15	39597.18
647.30	40114.44
647.44	39578.46
647.59	39182.91
647.74	39196.95
647.88	39236.74
648.03	39423.98
648.17	39402.92
648.32	39344.41
648.47	39180.57
648.61	38752.25
648.76	39648.68
648.90	38913.75
649.05	39313.98
649.20	39117.37
649.34	39229.72
649.49	38726.50
649.63	39103.33
649.78	39105.67
649.92	38878.64
650.07	39187.59
650.21	38815.44
650.36	39091.63
650.51	38979.28
650.65	39714.21
650.80	39529.31
650.94	39070.56
651.09	39040.14
651.23	38342.66
651.38	38913.75
651.52	38672.67
651.67	38543.94
651.81	38300.53
651.96	38869.28
652.10	38707.78
652.25	38815.44
652.39	38895.02
652.54	39047.16
652.68	38621.18
652.83	38611.82
652.97	38483.09
653.12	38394.15
653.26	38251.38
653.41	38277.12
653.55	38403.51
653.70	38286.48
653.84	38602.46
653.99	38178.82
654.13	38387.13
654.27	38370.74
654.42	37830.08
654.56	38473.73
654.71	38586.07
654.85	38010.30
655.00	37965.83
655.14	37741.14
655.29	37596.03
655.43	37469.64
655.57	37649.86
655.72	37368.99
655.86	37729.44
656.01	36875.14
656.15	37273.03
656.30	37469.64
656.44	37624.11
656.58	37490.70
656.73	37488.36
656.87	37792.63
657.01	37104.51
657.16	37443.89
657.30	37263.67
657.45	37298.78
657.59	37244.94
657.73	37783.27
657.88	37979.87
658.02	37535.17
658.16	37677.94
658.31	37401.76
658.45	37511.77
658.60	37415.80
658.74	37361.97
658.88	37558.58
659.03	37235.58
659.17	37254.31
659.31	36840.03
659.46	37029.62
659.60	36704.28
659.74	36961.74
659.89	36781.52
660.03	36636.41
660.17	36840.03
660.32	37303.46
660.46	37378.36
660.60	36603.64
660.74	37340.91
660.89	36566.19
661.03	37081.11
661.17	37074.09
661.32	36168.30
661.46	36793.22
661.60	36552.15
661.74	36177.66
661.89	36266.60
662.03	36287.67
662.17	36287.67
662.31	36568.53
662.46	36573.21
662.60	36627.04
662.74	36432.78
662.88	36271.28
663.03	36165.96
663.17	35510.61
663.31	35941.27
663.45	35941.27
663.60	35924.88
663.74	35391.24
663.88	35772.75
664.02	35360.81
664.17	35756.36
664.31	35405.28
664.45	35211.02
664.59	34890.37
664.73	35501.25
664.88	34911.43
665.02	35070.59
665.16	35295.28
665.30	34995.69
665.44	35035.48
665.59	34675.04
665.73	34951.22
665.87	34522.90
666.01	34550.99
666.15	35112.72
666.29	34630.57
666.44	35009.73
666.58	34965.26
666.72	34541.63
666.86	34473.75
667.00	34621.20
667.14	34473.75
667.28	34455.03
667.43	34270.12
667.57	34122.67
667.71	34120.33
667.85	34361.40
667.99	34361.40
668.13	34162.46
668.27	34267.78
668.41	34340.34
668.56	33900.32
668.70	33846.49
668.84	33518.81
668.98	33668.61
669.12	33687.33
669.26	33972.88
669.40	33624.14
669.54	33790.31
669.68	33289.44
669.82	33092.83
669.96	32849.42
670.10	32744.09
670.25	33233.27
670.39	33247.31
670.53	32861.12
670.67	32809.63
670.81	32704.31
670.95	33156.03
671.09	32884.53
671.23	32765.16
671.37	32388.33
671.51	32816.65
671.65	32606.00
671.79	32451.53
671.93	32608.34
672.07	32355.57
672.21	32357.91
672.35	32409.40
672.49	32196.41
672.63	32687.92
672.77	32084.06
672.91	32044.27
673.05	32095.77
673.19	32004.49
673.33	31777.45
673.47	31772.77
673.61	31412.33
673.75	31850.01
673.89	31274.24
674.03	31426.37
674.17	30981.67
674.31	31782.13
674.45	31227.43
674.59	31672.13
674.73	31477.86
674.87	31468.50
675.01	31428.71
675.15	30941.88
675.29	30888.05
675.43	31026.14
675.56	31274.24
675.70	30904.43
675.84	30696.13
675.98	29589.05
676.12	30333.34
676.26	30691.44
676.40	30169.51
676.54	30593.14
676.68	30410.58
676.82	29633.52
676.96	30122.69
677.10	30218.66
677.23	29799.70
677.37	29504.79
677.51	29942.47
677.65	29525.86
677.79	29305.85
677.93	29212.23
678.07	29397.13
678.21	28594.32
678.34	28760.50
678.48	28804.97
678.62	28566.24
678.76	28779.23
678.90	28479.64
679.04	28575.60
679.18	28493.68
679.31	28472.62
679.45	28196.43
679.59	28233.88
679.73	28121.54
679.87	28292.40
680.00	28011.53
680.14	28063.02
680.28	27948.34
680.42	27489.59
680.56	27782.16
680.70	27470.87
680.83	27510.66
680.97	27768.12
681.11	27580.87
681.25	27625.34
681.39	27360.86
681.52	27269.58
681.66	27182.98
681.80	27360.86
681.94	26965.31
682.07	26366.13
682.21	26555.72
682.35	26841.26
682.49	26384.86
682.62	26541.68
682.76	26111.02
682.90	26244.43
683.04	26209.32
683.17	26291.24
683.31	26024.42
683.45	25818.45
683.59	25544.61
683.72	25788.02
683.86	26169.53
684.00	25640.57
684.13	25245.02
684.27	25640.57
684.41	25235.66
684.55	25408.86
684.68	25109.27
684.82	25207.57
684.96	24517.11
685.09	24912.66
685.23	24542.86
685.37	24666.91
685.50	24800.32
685.64	24896.28
685.78	24575.62
685.91	24428.17
686.05	24276.04
686.19	23857.08
686.32	24009.22
686.46	23740.05
686.60	23396.00
686.73	23726.01
686.87	23068.32
687.01	23484.94
687.14	23131.51
687.28	22820.22
687.42	23300.03
687.55	22897.46
687.69	23311.74
687.82	22958.31
687.96	23096.41
688.10	23157.26
688.23	22623.62
688.37	22918.53
688.50	22757.03
688.64	22583.83
688.78	22583.83
688.91	22338.07
689.05	22185.94
689.18	22120.40
689.32	21921.46
689.46	22214.02
689.59	22249.13
689.73	22328.71
689.86	21790.39
690.00	21507.18
690.13	22003.38
690.27	21315.26
690.41	21427.60
690.54	21252.06
690.68	21333.98
690.81	21369.09
690.95	21350.37
691.08	21277.81
691.22	21273.13
691.35	21029.71
691.49	21467.39
691.62	21113.97
691.76	20566.29
691.89	20870.56
692.03	20798.00
692.16	20716.08
692.30	20203.50
692.43	20643.52
692.57	20383.73
692.70	20306.49
692.84	19969.45
692.97	19950.73
693.11	19669.86
693.24	19754.12
693.38	19873.49
693.51	19599.65
693.65	19843.06
693.78	19445.17
693.92	19241.54
694.05	19124.52
694.19	19531.77
694.32	19126.86
694.45	19456.87
694.59	19014.51
694.72	19178.35
694.86	19129.20
694.99	18820.25
695.13	18778.12
695.26	19098.77
695.39	18560.45
695.53	18775.78
695.66	18738.33
695.80	18501.93
695.93	18274.90
696.07	18469.17
696.20	18394.27
696.33	18340.44
696.47	18251.50
696.60	18001.06
696.73	17727.22
696.87	17940.21
697.00	17476.78
697.14	17668.70
697.27	17525.93
697.40	17528.27
697.54	17460.40
697.67	17289.54
697.80	17254.43
697.94	17242.73
698.07	17216.98
698.21	17275.49
698.34	17001.65
698.47	17055.48
698.61	16793.34
698.74	17003.99
698.87	16716.11
699.01	16486.73
699.14	16451.63
699.27	16570.99
699.40	16343.96
699.54	16278.43
699.67	16262.04
699.80	16322.90
699.94	15805.64
700.07	16051.39
700.20	16109.91
700.34	16205.87
700.47	16002.24
700.60	15896.92
700.73	15812.66
700.87	15761.17
701.00	15648.82
701.13	15283.70
701.26	15576.27
701.40	15428.81
701.53	15482.64
701.66	15269.66
701.79	15037.94
701.93	15014.54
702.06	14824.95
702.19	15152.63
702.32	15173.69
702.46	14888.15
702.59	14726.65
702.72	14647.07
702.85	14668.14
702.99	14707.93
703.12	14661.12
703.25	14394.29
703.38	14565.15
703.51	14375.57
703.65	14321.74
703.78	14188.33
703.91	14059.60
704.04	14246.84
704.17	14167.26
704.31	14127.47
704.44	14139.18
704.57	13841.93
704.70	13912.14
704.83	13717.88
704.96	13907.46
705.10	13731.92
705.23	13717.88
>>>>>End Processed Spectral Data<<<<<
