SpectraSuite Data File
++++++++++++++++++++++++++++++++++++
Date: Fri Oct 25 11:34:42 EDT 2013
User: price-jones
Dark Spectrum Present: No
Reference Spectrum Present: No
Number of Sampled Component Spectra: 1
Spectrometers: USB2+H05261
Integration Time (usec): 100000 (USB2+H05261)
Spectra Averaged: 1 (USB2+H05261)
Boxcar Smoothing: 0 (USB2+H05261)
Correct for Electrical Dark: No (USB2+H05261)
Strobe/Lamp Enabled: No (USB2+H05261)
Correct for Detector Non-linearity: No (USB2+H05261)
Correct for Stray Light: No (USB2+H05261)
Number of Pixels in Processed Spectrum: 2048
>>>>>Begin Processed Spectral Data<<<<<
365.73	287.89
365.92	287.89
366.12	287.89
366.32	248.10
366.52	159.16
366.72	215.33
366.91	117.03
367.11	189.58
367.31	201.29
367.51	184.90
367.70	194.26
367.90	217.67
368.10	184.90
368.30	194.26
368.49	138.09
368.69	152.13
368.89	212.99
369.09	201.29
369.28	163.84
369.48	241.08
369.68	180.22
369.87	292.57
370.07	201.29
370.27	283.20
370.47	388.53
370.66	479.81
370.86	575.77
371.06	582.79
371.25	550.03
371.45	433.00
371.65	512.58
371.84	486.83
372.04	503.22
372.24	554.71
372.44	596.84
372.63	603.86
372.83	589.82
373.03	620.24
373.22	568.75
373.42	578.11
373.62	681.10
373.81	603.86
374.01	608.54
374.21	641.31
374.40	648.33
374.60	727.91
374.79	641.31
374.99	636.63
375.19	601.52
375.38	603.86
375.58	655.35
375.78	667.05
375.97	650.67
376.17	667.05
376.37	634.29
376.56	660.03
376.76	624.92
376.95	695.14
377.15	685.78
377.35	610.88
377.54	716.20
377.74	713.86
377.93	657.69
378.13	718.54
378.33	772.38
378.52	603.86
378.72	678.76
378.91	709.18
379.11	669.39
379.31	587.47
379.50	671.73
379.70	723.23
379.89	671.73
380.09	653.01
380.28	791.10
380.48	781.74
380.68	746.63
380.87	664.71
381.07	812.17
381.26	723.23
381.46	723.23
381.65	688.12
381.85	662.37
382.04	753.65
382.24	816.85
382.43	713.86
382.63	671.73
382.83	671.73
383.02	791.10
383.22	777.06
383.41	800.46
383.61	849.61
383.80	791.10
384.00	861.32
384.19	770.04
384.39	870.68
384.58	770.04
384.78	812.17
384.97	748.97
385.17	826.21
385.36	760.67
385.56	844.93
385.75	758.33
385.95	788.76
386.14	819.19
386.34	875.36
386.53	779.40
386.72	812.17
386.92	894.08
387.11	903.45
387.31	903.45
387.50	840.25
387.70	807.48
387.89	835.57
388.09	912.81
388.28	891.74
388.48	952.60
388.67	903.45
388.86	861.32
389.06	903.45
389.25	950.26
389.45	903.45
389.64	873.02
389.84	957.28
390.03	954.94
390.22	959.62
390.42	887.06
390.61	884.72
390.81	952.60
391.00	976.00
391.19	985.37
391.39	945.58
391.58	1022.81
391.78	908.13
391.97	922.17
392.16	929.19
392.36	999.41
392.55	997.07
392.75	1032.18
392.94	1062.60
393.13	1071.97
393.33	1086.01
393.52	945.58
393.71	1078.99
393.91	1067.28
394.10	1093.03
394.29	1001.75
394.49	1132.82
394.68	1090.69
394.88	1074.31
395.07	1109.41
395.26	1123.46
395.46	1053.24
395.65	1177.29
395.84	1193.67
396.04	1205.38
396.23	1156.22
396.42	1132.82
396.62	1071.97
396.81	1071.97
397.00	1142.18
397.19	1252.19
397.39	1097.71
397.58	1203.04
397.77	1109.41
397.97	1221.76
398.16	1214.74
398.35	1231.12
398.55	1207.72
398.74	1263.89
398.93	1336.45
399.12	1277.93
399.32	1263.89
399.51	1282.61
399.70	1310.70
399.90	1219.42
400.09	1308.36
400.28	1383.26
400.47	1352.83
400.67	1287.29
400.86	1378.58
401.05	1418.36
401.24	1254.53
401.44	1287.29
401.63	1369.21
401.82	1469.86
402.01	1313.04
402.21	1350.49
402.40	1401.98
402.59	1465.18
402.78	1451.13
402.97	1481.56
403.17	1399.64
403.36	1404.32
403.55	1596.25
403.74	1530.71
403.93	1533.05
404.13	1570.50
404.32	1472.20
404.51	1533.05
404.70	1514.33
404.89	1490.92
405.09	1638.38
405.28	1626.67
405.47	1596.25
405.66	1638.38
405.85	1554.12
406.05	1626.67
406.24	1680.50
406.43	1650.08
406.62	1645.40
406.81	1757.74
407.00	1657.10
407.20	1657.10
407.39	1619.65
407.58	1673.48
407.77	1830.30
407.96	1858.39
408.15	1795.19
408.34	1811.57
408.54	1788.17
408.73	1825.62
408.92	1811.57
409.11	1853.70
409.30	1825.62
409.49	1834.98
409.68	1881.79
409.87	1898.17
410.07	1944.99
410.26	1898.17
410.45	2029.24
410.64	1935.62
410.83	2050.31
411.02	2005.84
411.21	1989.46
411.40	2062.01
411.59	2120.53
411.78	2066.69
411.98	2073.71
412.17	2115.84
412.36	2085.42
412.55	2204.78
412.74	2186.06
412.93	2181.38
413.12	2291.38
413.31	2434.16
413.50	2319.47
413.69	2263.30
413.88	2478.63
414.07	2291.38
414.26	2363.94
414.45	2354.58
414.64	2438.84
414.83	2354.58
415.02	2438.84
415.22	2476.29
415.41	2626.08
415.60	2490.33
415.79	2485.65
415.98	2525.44
416.17	2642.46
416.36	2553.52
416.55	2616.72
416.74	2677.57
416.93	2686.94
417.12	2593.31
417.31	2696.30
417.50	2761.83
417.69	2803.96
417.88	2780.56
418.07	2724.38
418.26	2764.17
418.45	2904.60
418.64	2937.37
418.83	2904.60
419.02	3005.25
419.21	2963.12
419.39	2925.67
419.58	2963.12
419.77	2913.97
419.96	3045.04
420.15	2986.52
420.34	3077.80
420.53	3122.27
420.72	3089.51
420.91	3045.04
421.10	3115.25
421.29	3300.16
421.48	3068.44
421.67	3091.85
421.86	3108.23
422.05	3066.10
422.24	3115.25
422.43	2998.23
422.61	3197.17
422.80	3269.73
422.99	3232.28
423.18	3131.64
423.37	3274.41
423.56	3304.84
423.75	3222.92
423.94	3087.17
424.13	3082.49
424.32	3122.27
424.50	3258.03
424.69	3325.90
424.88	3356.33
425.07	3309.52
425.26	3206.53
425.45	3138.66
425.64	3162.06
425.83	3370.37
426.01	3344.63
426.20	3344.63
426.39	3372.71
426.58	3262.71
426.77	3293.13
426.96	3403.14
427.15	3361.01
427.33	3356.33
427.52	3321.22
427.71	3578.68
427.90	3524.85
428.09	3424.20
428.28	3475.70
428.46	3545.91
428.65	3456.97
428.84	3440.59
429.03	3726.13
429.22	3431.23
429.40	3510.80
429.59	3665.28
429.78	3536.55
429.97	3368.03
430.16	3592.72
430.34	3597.40
430.53	3712.09
430.72	3613.79
430.91	3595.06
431.10	3559.95
431.28	3819.75
431.47	3765.92
431.66	3756.56
431.85	3763.58
432.03	3826.78
432.22	3894.65
432.41	3756.56
432.60	3983.59
432.79	3868.91
432.97	3908.69
433.16	3873.59
433.35	3852.52
433.54	3911.04
433.72	3964.87
433.91	3861.88
434.10	3922.74
434.28	3939.12
434.47	4093.60
434.66	3990.61
434.85	4187.22
435.03	4189.56
435.22	3995.29
435.41	4196.58
435.59	4177.86
435.78	4191.90
435.97	4086.58
436.16	4149.77
436.34	4212.96
436.53	4344.03
436.72	4369.78
436.90	4039.76
437.09	4362.76
437.28	4248.07
437.46	4304.25
437.65	4292.54
437.84	4304.25
438.02	4386.16
438.21	4404.89
438.40	4297.22
438.58	4627.24
438.77	4514.89
438.96	4454.04
439.14	4538.30
439.33	4554.68
439.52	4711.50
439.70	4718.52
439.89	4819.16
440.08	4863.63
440.26	4688.09
440.45	4662.35
440.63	4891.72
440.82	4901.08
441.01	4940.87
441.19	5022.79
441.38	4971.30
441.57	4887.04
441.75	4917.47
441.94	5118.75
442.12	5100.03
442.31	5184.29
442.50	5177.26
442.68	5153.86
442.87	5083.64
443.05	5095.35
443.24	5294.29
443.43	5233.44
443.61	5242.80
443.80	5483.88
443.98	5123.43
444.17	5111.73
444.35	5228.76
444.54	5310.68
444.73	5242.80
444.91	5245.14
445.10	5394.93
445.28	5322.38
445.47	5308.34
445.65	5303.65
445.84	5390.25
446.02	5434.72
446.21	5305.99
446.39	5455.79
446.58	5486.22
446.77	5570.48
446.95	5221.74
447.14	5324.72
447.32	5439.40
447.51	5336.42
447.69	5348.12
447.88	5465.15
448.06	5507.28
448.25	5479.19
448.43	5416.00
448.62	5575.16
448.80	5556.43
448.99	5624.31
449.17	5666.44
449.36	5516.64
449.54	5640.69
449.73	5846.66
449.91	5727.29
450.10	5647.71
450.28	5689.84
450.46	5858.36
450.65	5694.52
450.83	5907.51
451.02	5839.64
451.20	5912.19
451.39	5928.58
451.57	5844.32
451.76	5760.06
451.94	5865.38
452.13	5884.11
452.31	5970.71
452.49	5776.44
452.68	5865.38
452.86	5895.81
453.05	5998.79
453.23	6127.52
453.42	6022.20
453.60	5959.00
453.78	6087.73
453.97	5954.32
454.15	5914.53
454.34	5966.03
454.52	6090.07
454.70	6113.48
454.89	6195.40
455.07	6310.08
455.26	6202.42
455.44	6450.52
455.62	6296.04
455.81	6312.42
455.99	6253.91
456.17	6373.28
456.36	6382.64
456.54	6499.67
456.73	6640.10
456.91	6511.37
457.09	6658.82
457.28	6588.61
457.46	6558.18
457.64	6658.82
457.83	6663.51
458.01	6626.06
458.19	6808.62
458.38	6864.79
458.56	6761.81
458.74	6799.26
458.93	6843.73
459.11	6832.02
459.29	6782.87
459.48	6773.51
459.66	6925.65
459.84	7045.01
460.03	7211.19
460.21	7101.19
460.39	7019.27
460.57	6993.52
460.76	6911.60
460.94	7030.97
461.12	7183.10
461.31	7059.06
461.49	6932.67
461.67	6953.73
461.85	7424.18
462.04	7218.21
462.22	7332.90
462.40	7440.56
462.59	7250.98
462.77	7173.74
462.95	7363.33
463.13	7499.08
463.32	7508.44
463.50	7550.57
463.68	7588.02
463.86	7499.08
464.05	7337.58
464.23	7379.71
464.41	7613.76
464.59	7445.24
464.78	7627.81
464.96	7508.44
465.14	7426.52
465.32	7728.45
465.50	7545.89
465.69	7691.00
465.87	7702.70
466.05	7606.74
466.23	7786.96
466.41	7620.78
466.60	7805.69
466.78	7588.02
466.96	7861.86
467.14	7859.52
467.32	7803.35
467.51	7763.56
467.69	7817.39
467.87	7871.22
468.05	7864.20
468.23	7929.74
468.41	8021.02
468.60	7932.08
468.78	7953.14
468.96	7995.27
469.14	8187.19
469.32	7920.37
469.50	7943.78
469.69	8252.73
469.87	8180.17
470.05	8297.20
470.23	8308.90
470.41	8306.56
470.59	8503.17
470.77	8355.71
470.95	8318.26
471.14	8507.85
471.32	8278.47
471.50	8500.83
471.68	8344.01
471.86	8547.64
472.04	8624.87
472.22	8926.80
472.40	8671.68
472.58	8608.49
472.77	8514.87
472.95	8784.03
473.13	9210.01
473.31	8744.24
473.49	8840.20
473.67	8706.79
473.85	8905.74
474.03	9142.13
474.21	9151.49
474.39	9242.78
474.57	8999.36
474.75	9170.22
474.93	9350.44
475.12	9305.97
475.30	9378.53
475.48	9425.34
475.66	9509.60
475.84	9444.06
476.02	9525.98
476.20	9701.52
476.38	9769.40
476.56	9928.55
476.74	9980.04
476.92	9933.23
477.10	9914.51
477.28	10141.54
477.46	10200.05
477.64	10129.84
477.82	10352.19
478.00	10696.25
478.18	10469.22
478.36	10450.49
478.54	10726.68
478.72	10686.89
478.90	10534.75
479.08	11145.63
479.26	11028.60
479.44	10998.18
479.62	11183.08
479.80	10897.53
479.98	11272.02
480.16	11506.07
480.34	11445.22
480.52	11833.75
480.70	11627.78
480.88	11590.33
481.06	11770.55
481.24	11590.33
481.41	11815.02
481.59	11922.69
481.77	12226.96
481.95	12114.61
482.13	12339.30
482.31	12091.21
482.49	12643.57
482.67	12475.06
482.85	12751.24
483.03	12727.83
483.21	12894.01
483.39	12774.64
483.57	13104.66
483.74	13247.43
483.92	12877.63
484.10	13153.81
484.28	13619.58
484.46	13518.93
484.64	13767.03
484.82	13764.69
485.00	13736.60
485.18	14127.47
485.35	14073.64
485.53	13916.83
485.71	14113.43
485.89	14448.13
486.07	14305.35
486.25	14710.27
486.43	14689.20
486.61	14785.16
486.78	14745.38
486.96	15061.35
487.14	15110.50
487.32	15126.88
487.50	15510.73
487.68	15576.27
487.85	15712.02
488.03	15604.35
488.21	15850.11
488.39	15974.16
488.57	15990.54
488.75	16367.37
488.92	16503.12
489.10	16453.97
489.28	16463.33
489.46	17001.65
489.64	16711.42
489.81	17060.16
489.99	17233.36
490.17	17214.64
490.35	17252.09
490.53	17486.14
490.70	17579.76
490.88	17474.44
491.06	17844.24
491.24	17727.22
491.41	17776.37
491.59	17994.04
491.77	17832.54
491.95	18455.12
492.13	18408.31
492.30	18555.77
492.48	18345.12
492.66	18548.75
492.84	18581.51
493.01	18970.04
493.19	18883.44
493.37	19150.26
493.54	19101.11
493.72	19454.53
493.90	19534.11
494.08	19721.35
494.25	19463.90
494.43	19765.82
494.61	19915.62
494.79	19798.59
494.96	20121.59
495.14	20365.00
495.32	20458.62
495.49	20596.71
495.67	20507.77
495.85	20561.61
496.02	21135.04
496.20	20961.84
496.38	20819.07
496.55	21165.46
496.73	21586.76
496.91	21525.91
497.09	21591.44
497.26	21451.01
497.44	21488.46
497.62	22045.51
497.79	22120.40
497.97	21687.40
498.14	22515.95
498.32	22225.73
498.50	22207.00
498.67	22607.23
498.85	22471.48
499.03	22513.61
499.20	22356.80
499.38	22932.57
499.56	22897.46
499.73	22979.38
499.91	23070.66
500.08	23314.08
500.26	23115.13
500.44	23239.18
500.61	23131.51
500.79	23372.59
500.97	23571.54
501.14	23768.14
501.32	23955.38
501.49	23934.32
501.67	23711.97
501.84	23960.06
502.02	23768.14
502.20	24098.16
502.37	24130.92
502.55	23899.21
502.72	24496.05
502.90	24608.39
503.07	24437.53
503.25	24402.43
503.43	24390.72
503.60	24737.12
503.78	24809.68
503.95	24737.12
504.13	24999.26
504.30	25055.43
504.48	25170.12
504.65	25036.71
504.83	25642.91
505.01	25530.56
505.18	25631.21
505.36	25755.26
505.53	25596.10
505.71	25617.16
505.88	25757.60
506.06	25390.13
506.23	26005.69
506.41	25879.30
506.58	25689.72
506.76	26361.45
506.93	26513.59
507.11	26670.40
507.28	26141.44
507.46	26607.21
507.63	26536.99
507.81	26705.51
507.98	26368.48
508.16	27005.10
508.33	26696.15
508.50	26611.89
508.68	27049.57
508.85	27166.60
509.03	26831.90
509.20	27281.28
509.38	27550.45
509.55	27374.91
509.73	27611.30
509.90	27529.38
510.08	27878.12
510.25	27505.98
510.42	27981.10
510.60	27983.44
510.77	28311.12
510.95	28109.83
511.12	27915.57
511.30	28041.96
511.47	27906.21
511.64	28070.04
511.82	28608.37
511.99	28360.27
512.17	28634.11
512.34	28601.35
512.51	29022.64
512.69	28599.01
512.86	28926.68
513.04	29254.36
513.21	29193.50
513.38	29097.54
513.56	29235.63
513.73	28610.71
513.90	29046.05
514.08	29589.05
514.25	29773.95
514.43	29701.40
514.60	30066.52
514.77	29900.34
514.95	29624.16
515.12	29872.26
515.29	30026.73
515.47	30120.35
515.64	30108.65
515.81	30228.02
515.99	30155.46
516.16	30600.16
516.33	30766.34
516.51	30623.57
516.68	30441.01
516.85	30340.36
517.03	30630.59
517.20	30661.02
517.37	30976.99
517.54	31082.31
517.72	30808.47
517.89	31239.13
518.06	31175.94
518.24	31220.41
518.41	30876.35
518.58	31276.58
518.75	31023.80
518.93	31388.92
519.10	31234.45
519.27	31269.56
519.45	31534.04
519.62	31611.28
519.79	31412.33
519.96	31716.60
520.14	31758.73
520.31	31634.68
520.48	31716.60
520.65	31632.34
520.83	32371.95
521.00	32027.89
521.17	32048.96
521.34	32409.40
521.52	32549.83
521.69	32320.46
521.86	32767.50
522.03	32341.52
522.20	32952.40
522.38	33102.20
522.55	32687.92
522.72	32910.27
522.89	33017.94
523.07	33251.99
523.24	33317.53
523.41	32893.89
523.58	32720.69
523.75	33453.28
523.92	33399.44
524.10	33301.14
524.27	33455.62
524.44	33331.57
524.61	33823.08
524.78	33343.27
524.96	33947.13
525.13	34314.59
525.30	33642.86
525.47	34085.22
525.64	33958.83
525.81	34022.03
525.98	34232.68
526.16	34040.75
526.33	33996.28
526.50	34852.92
526.67	34293.53
526.84	34623.54
527.01	34054.79
527.18	34450.35
527.36	34352.04
527.53	34513.54
527.70	34808.45
527.87	35096.33
528.04	34604.82
528.21	34855.26
528.38	34756.96
528.55	35007.39
528.72	35000.37
528.89	35058.88
529.07	35079.95
529.24	35042.50
529.41	35393.58
529.58	35473.16
529.75	35424.01
529.92	35559.76
530.09	35578.48
530.26	35524.65
530.43	35452.09
530.60	35299.96
530.77	35627.63
530.94	35248.47
531.11	35424.01
531.28	35718.92
531.46	35887.43
531.63	35978.72
531.80	36151.91
531.97	36168.30
532.14	35889.77
532.31	35749.34
532.48	36395.33
532.65	36322.77
532.82	35910.84
532.99	35983.40
533.16	36348.52
533.33	36437.46
533.50	36285.33
533.67	36545.12
533.84	36355.54
534.01	36708.96
534.18	36844.71
534.35	37006.21
534.52	36542.78
534.69	37308.14
534.86	36643.43
535.03	36788.54
535.20	36788.54
535.37	37368.99
535.54	37132.60
535.71	36961.74
535.88	37301.12
536.05	37310.48
536.22	37336.23
536.38	37696.67
536.55	37408.78
536.72	37762.20
536.89	37371.33
537.06	37912.00
537.23	37542.19
537.40	37273.03
537.57	37567.94
537.74	37422.83
537.91	38026.68
538.08	37598.37
538.25	37666.24
538.42	37699.01
538.59	38246.69
538.75	37661.56
538.92	38164.78
539.09	38115.62
539.26	38108.60
539.43	38405.85
539.60	38003.28
539.77	38143.71
539.94	38279.46
540.11	38316.91
540.28	38532.24
540.44	38323.93
540.61	38127.33
540.78	38157.75
540.95	38309.89
541.12	38096.90
541.29	38494.79
541.46	38094.56
541.62	38923.11
541.79	38768.63
541.96	38359.04
542.13	38352.02
542.30	39241.42
542.47	39049.50
542.63	38684.37
542.80	38780.34
542.97	39768.04
543.14	39503.56
543.31	39381.85
543.48	39494.20
543.64	39569.10
543.81	39800.81
543.98	39615.91
544.15	39566.76
544.32	39473.13
544.48	40158.91
544.65	39620.59
544.82	39936.56
544.99	39585.48
545.16	39688.46
545.32	39779.74
545.49	40554.46
545.66	40341.47
545.83	40315.73
546.00	40156.57
546.16	40076.99
546.33	39948.26
546.50	39948.26
546.67	40458.50
546.83	39440.37
547.00	39917.84
547.17	40175.30
547.34	40397.65
547.50	40325.09
547.67	40526.38
547.84	40217.43
548.00	40685.53
548.17	40809.58
548.34	40601.27
548.51	40634.04
548.67	40800.22
548.84	40816.60
549.01	40739.36
549.18	40514.67
549.34	40797.88
549.51	40938.31
549.68	40828.30
549.84	40683.19
550.01	41216.83
550.18	40989.80
550.34	41111.51
550.51	40847.03
550.68	41237.90
550.84	41013.21
551.01	41392.37
551.18	41123.21
551.34	41134.92
551.51	41425.14
551.68	41120.87
551.84	41448.55
552.01	41106.83
552.18	41123.21
552.34	41581.96
552.51	41598.34
552.68	41408.76
552.84	41352.58
553.01	41837.08
553.18	41537.49
553.34	41446.21
553.51	41420.46
553.67	41471.95
553.84	41619.41
554.01	42167.09
554.17	42277.10
554.34	42094.53
554.51	41879.21
554.67	41923.68
554.84	41743.45
555.00	41642.81
555.17	42064.11
555.33	42319.23
555.50	41801.97
555.67	42031.34
555.83	42120.28
556.00	42440.93
556.16	42529.87
556.33	42120.28
556.50	42447.96
556.66	42419.87
556.83	42389.44
556.99	42396.46
557.16	42518.17
557.32	42195.18
557.49	42483.06
557.65	42054.75
557.82	42691.37
557.98	42506.47
558.15	42487.74
558.32	42593.07
558.48	42581.37
558.65	42738.18
558.81	42691.37
558.98	42408.17
559.14	42539.24
559.31	42515.83
559.47	42543.92
559.64	42784.99
559.80	42651.58
559.97	42958.19
560.13	42515.83
560.30	42796.70
560.46	42813.08
560.63	43133.73
560.79	42756.91
560.96	43227.35
561.12	43234.38
561.29	43161.82
561.45	43042.45
561.61	42859.89
561.78	42822.44
561.94	43250.76
562.11	43028.41
562.27	43077.56
562.44	43168.84
562.60	43037.77
562.77	43143.09
562.93	42925.42
563.10	43709.50
563.26	43358.42
563.42	43379.49
563.59	43220.33
563.75	43182.88
563.92	43210.97
564.08	43255.44
564.24	43835.89
564.41	43426.30
564.57	43618.22
564.74	43407.58
564.90	43388.85
565.07	43601.84
565.23	43400.55
565.39	43297.57
565.56	43477.79
565.72	43636.95
565.88	43519.92
566.05	43459.07
566.21	43983.35
566.38	43452.05
566.54	43454.39
566.70	44093.35
566.87	43796.10
567.03	43248.42
567.19	43498.86
567.36	43442.68
567.52	43775.04
567.68	44023.14
567.85	43847.60
568.01	44486.56
568.17	43346.72
568.34	43913.13
568.50	43618.22
568.66	43821.85
568.83	43929.51
568.99	43690.78
569.15	43772.70
569.32	43746.95
569.48	43908.45
569.64	44130.80
569.81	44212.72
569.97	43840.57
570.13	44039.52
570.30	43388.85
570.46	44521.67
570.62	43669.72
570.78	44353.15
570.95	43728.23
571.11	44587.21
571.27	43990.37
571.43	44168.25
571.60	44245.49
571.76	43938.88
571.92	43859.30
572.09	44172.93
572.25	44142.50
572.41	43976.33
572.57	44032.50
572.74	44931.26
572.90	43702.48
573.06	44381.24
573.22	44149.53
573.38	44271.23
573.55	44060.58
573.71	44594.23
573.87	44320.38
574.03	44825.94
574.20	44767.43
574.36	44034.84
574.52	44332.09
574.68	44060.58
574.84	44343.79
575.01	44835.30
575.17	44439.75
575.33	44509.97
575.49	44161.23
575.65	44065.27
575.82	44135.48
575.98	44397.62
576.14	44907.86
576.30	44676.15
576.46	44418.69
576.62	44353.15
576.79	44240.81
576.95	44055.90
577.11	43768.02
577.27	44013.77
577.43	44027.82
577.59	44311.02
577.75	44451.45
577.92	44135.48
578.08	44093.35
578.24	44271.23
578.40	44715.93
578.56	44495.92
578.72	44699.55
578.88	44245.49
579.04	44875.09
579.21	44091.01
579.37	44713.59
579.53	44463.16
579.69	44659.76
579.85	44842.32
580.01	44587.21
580.17	44582.52
580.33	44739.34
580.49	44645.72
580.65	45116.17
580.82	44729.98
580.98	44949.99
581.14	44643.38
581.30	44697.21
581.46	44641.04
581.62	44451.45
581.78	44409.32
581.94	44879.77
582.10	44814.24
582.26	44629.34
582.42	44825.94
582.58	44715.93
582.74	44758.06
582.90	44547.42
583.06	45083.40
583.22	44737.00
583.38	44851.69
583.54	44350.81
583.70	44755.72
583.86	45237.87
584.02	44612.95
584.18	44877.43
584.34	44598.91
584.50	45130.21
584.66	44889.13
584.82	44949.99
584.98	44699.55
585.14	44711.25
585.30	44638.70
585.46	45048.29
585.62	44973.39
585.78	44933.60
585.94	44816.58
586.10	44947.65
586.26	44432.73
586.42	44678.49
586.58	44701.89
586.74	44921.90
586.90	44842.32
587.06	44903.18
587.22	45284.68
587.38	44697.21
587.54	44713.59
587.70	45027.23
587.86	44999.14
588.02	44451.45
588.18	44507.63
588.34	44634.02
588.49	44390.60
588.65	44933.60
588.81	44886.79
588.97	44832.96
589.13	44692.53
589.29	44790.83
589.45	44790.83
589.61	45116.17
589.77	45361.92
589.93	44954.67
590.08	45111.49
590.24	44994.46
590.40	45413.41
590.56	45315.11
590.72	45305.75
590.88	44828.28
591.04	44823.60
591.20	45570.23
591.35	45310.43
591.51	45249.58
591.67	44748.70
591.83	45759.81
591.99	45455.54
592.15	45345.54
592.31	45532.78
592.46	45361.92
592.62	44935.95
592.78	45010.84
592.94	45485.97
593.10	45401.71
593.26	45195.74
593.41	45408.73
593.57	45546.82
593.73	45357.24
593.89	45511.72
594.05	45542.14
594.20	45390.01
594.36	45628.74
594.52	45029.57
594.68	45574.91
594.84	45354.90
594.99	45769.18
595.15	45729.39
595.31	45497.67
595.47	45610.02
595.62	45514.06
595.78	45188.72
595.94	46045.36
596.10	45661.51
596.25	45509.38
596.41	45467.25
596.57	45375.97
596.73	45610.02
596.88	45565.55
597.04	45593.64
597.20	45535.12
597.36	45478.95
597.51	45698.96
597.67	45317.45
597.83	45422.78
597.99	45242.56
598.14	45556.19
598.30	45308.09
598.46	45282.34
598.61	45848.75
598.77	45759.81
598.93	45626.40
599.09	45523.42
599.24	45628.74
599.40	45801.94
599.56	45984.51
599.71	45759.81
599.87	46183.45
600.03	45837.05
600.18	45539.80
600.34	45911.95
600.50	45933.01
600.65	45588.95
600.81	45521.08
600.97	45874.50
601.12	45930.67
601.28	45659.17
601.44	45820.67
601.59	45865.14
601.75	45502.35
601.91	45481.29
602.06	45673.21
602.22	45813.65
602.37	45652.15
602.53	46012.59
602.69	45610.02
602.84	45331.50
603.00	45755.13
603.16	45631.08
603.31	45640.45
603.47	45738.75
603.62	45382.99
603.78	45827.69
603.94	45113.83
604.09	45617.04
604.25	45223.83
604.40	45207.45
604.56	45464.91
604.71	45975.14
604.87	45757.47
605.03	45315.11
605.18	45057.65
605.34	45659.17
605.49	45464.91
605.65	45631.08
605.80	45457.88
605.96	45420.44
606.12	45804.28
606.27	45647.47
606.43	45123.19
606.58	45717.68
606.74	45230.85
606.89	44863.39
607.05	45778.54
607.20	45790.24
607.36	44980.42
607.51	45350.22
607.67	45460.23
607.82	45235.53
607.98	45399.37
608.13	45413.41
608.29	45249.58
608.44	45605.34
608.60	45223.83
608.75	45780.88
608.91	45294.05
609.06	44872.75
609.22	45509.38
609.37	45308.09
609.53	45628.74
609.68	45820.67
609.84	45272.98
609.99	45317.45
610.15	45331.50
610.30	45251.92
610.46	45460.23
610.61	45200.43
610.76	45380.65
610.92	45256.60
611.07	45291.71
611.23	44493.58
611.38	45013.18
611.54	45141.91
611.69	45450.86
611.84	45034.25
612.00	45439.16
612.15	45048.29
612.31	45734.07
612.46	44776.79
612.62	45102.12
612.77	44949.99
612.92	45462.57
613.08	45078.72
613.23	44905.52
613.39	45188.72
613.54	44882.11
613.69	45272.98
613.85	45226.17
614.00	45095.10
614.15	45284.68
614.31	44868.07
614.46	44631.68
614.62	44847.00
614.77	44753.38
614.92	45134.89
615.08	44854.03
615.23	45116.17
615.38	44973.39
615.54	45282.34
615.69	45067.02
615.84	44692.53
616.00	45102.12
616.15	44903.18
616.30	45045.95
616.46	45022.54
616.61	44938.29
616.76	44816.58
616.92	44849.35
617.07	45193.40
617.22	44350.81
617.37	44421.03
617.53	44495.92
617.68	44648.06
617.83	44739.34
617.99	44975.73
618.14	44484.22
618.29	44495.92
618.45	43959.94
618.60	44451.45
618.75	44079.31
618.90	44390.60
619.06	44596.57
619.21	44484.22
619.36	44891.48
619.51	43903.77
619.67	44224.42
619.82	44229.10
619.97	44542.74
620.12	44655.08
620.28	44128.46
620.43	44362.51
620.58	44306.34
620.73	44289.96
620.89	44259.53
621.04	44186.97
621.19	43934.20
621.34	43845.26
621.49	43894.41
621.65	44339.11
621.80	44376.56
621.95	44589.55
622.10	44247.83
622.25	44397.62
622.41	44149.53
622.56	44086.33
622.71	44238.47
622.86	44137.82
623.01	44224.42
623.16	43775.04
623.32	44240.81
623.47	43880.36
623.62	43973.98
623.77	43995.05
623.92	43594.82
624.07	43889.73
624.23	44245.49
624.38	44027.82
624.53	43711.84
624.68	43653.33
624.83	42955.85
624.98	43618.22
625.13	43372.47
625.29	43531.62
625.44	43817.17
625.59	43512.90
625.74	43421.62
625.89	43416.94
626.04	43363.11
626.19	42965.21
626.34	43578.43
626.49	42794.36
626.65	43269.48
626.80	43304.59
626.95	43005.00
627.10	42857.55
627.25	43267.14
627.40	43297.57
627.55	43356.08
627.70	42817.76
627.85	43316.29
628.00	43019.05
628.15	43122.03
628.30	42335.61
628.45	42756.91
628.60	42958.19
628.76	43133.73
628.91	42981.60
629.06	42726.48
629.21	42857.55
629.36	42733.50
629.51	43217.99
629.66	43168.84
629.81	42691.37
629.96	42843.51
630.11	42469.02
630.26	42284.12
630.41	42677.33
630.56	42464.34
630.71	42653.92
630.86	42815.42
631.01	42967.55
631.16	42277.10
631.31	42359.02
631.46	42684.35
631.61	42962.87
631.76	42735.84
631.91	42691.37
632.06	42873.93
632.21	43159.48
632.36	42513.49
632.51	41989.21
632.66	42408.17
632.81	42417.53
632.96	42560.30
633.10	42066.45
633.25	42232.63
633.40	42368.38
633.55	42604.77
633.70	42169.43
633.85	41853.46
634.00	42092.19
634.15	42071.13
634.30	41886.23
634.45	41881.55
634.60	41986.87
634.75	42356.67
634.90	42443.27
635.05	42335.61
635.19	41855.80
635.34	41844.10
635.49	41666.22
635.64	42209.22
635.79	42150.71
635.94	41769.20
636.09	42431.57
636.24	41940.06
636.39	41923.68
636.53	42258.37
636.68	41488.34
636.83	41631.11
636.98	41701.32
637.13	41514.08
637.28	41738.77
637.43	41219.17
637.57	41446.21
637.72	41439.18
637.87	41918.99
638.02	41380.67
638.17	41244.92
638.32	41174.70
638.46	41237.90
638.61	41464.93
638.76	41280.03
638.91	41619.41
639.06	41553.87
639.20	41020.23
639.35	41174.70
639.50	41088.10
639.65	41123.21
639.80	41560.89
639.94	41734.09
640.09	41301.09
640.24	41280.03
640.39	40620.00
640.54	40919.59
640.68	40933.63
640.83	41626.43
640.98	41284.71
641.13	40849.37
641.27	41088.10
641.42	40601.27
641.57	40762.77
641.72	41083.42
641.86	41216.83
642.01	40521.69
642.16	40783.83
642.31	40451.48
642.45	40659.79
642.60	40215.08
642.75	40423.39
642.90	40666.81
643.04	40842.35
643.19	40678.51
643.34	40376.58
643.48	40320.41
643.63	40418.71
643.78	40177.64
643.93	40694.89
644.07	41041.29
644.22	40531.06
644.37	40598.93
644.51	40509.99
644.66	40634.04
644.81	40301.68
644.95	40425.73
645.10	40196.36
645.25	39728.25
645.39	40102.74
645.54	40367.22
645.69	39751.66
645.83	40006.78
645.98	39887.41
646.13	40229.13
646.27	39777.40
646.42	40247.85
646.57	40301.68
646.71	40280.62
646.86	40086.36
647.00	40121.46
647.15	40229.13
647.30	40135.51
647.44	39892.09
647.59	39873.37
647.74	39704.85
647.88	39854.64
648.03	40245.51
648.17	40554.46
648.32	40114.44
648.47	40275.94
648.61	39711.87
648.76	39725.91
648.90	39915.50
649.05	39557.39
649.20	39622.93
649.34	39791.45
649.49	39824.22
649.63	39669.74
649.78	39819.53
649.92	40126.14
650.07	40088.70
650.21	39978.69
650.36	40140.19
650.51	39480.16
650.65	39864.00
650.80	39674.42
650.94	39674.42
651.09	39693.15
651.23	39290.57
651.38	39421.64
651.52	39035.45
651.67	39414.62
651.81	39330.36
651.96	39192.27
652.10	39346.75
652.25	39154.82
652.39	39131.42
652.54	39501.22
652.68	39117.37
652.83	38969.92
652.97	39112.69
653.12	39622.93
653.26	38782.68
653.41	39531.65
653.55	38902.04
653.70	39709.53
653.84	39201.63
653.99	39438.03
654.13	39021.41
654.27	38965.24
654.42	39112.69
654.56	38412.87
654.71	38918.43
654.85	39009.71
655.00	38401.17
655.14	39000.35
655.29	39093.97
655.43	38986.30
655.57	38841.19
655.72	38511.17
655.86	38749.91
656.01	38667.99
656.15	38490.11
656.30	38581.39
656.44	38508.83
656.58	38225.63
656.73	38763.95
656.87	38225.63
657.01	38134.35
657.16	38288.82
657.30	38834.17
657.45	38639.90
657.59	38199.88
657.73	38525.22
657.88	38314.57
658.02	38785.02
658.16	38408.19
658.31	37867.53
658.45	38366.06
658.60	38220.95
658.74	38122.65
658.88	38457.34
659.03	37942.42
659.17	38059.45
659.31	37317.50
659.46	37677.94
659.60	37823.06
659.74	38211.59
659.89	37397.08
660.03	37209.84
660.17	37713.05
660.32	37844.12
660.46	37156.00
660.60	37184.09
660.74	37350.27
660.89	37790.29
661.03	37378.36
661.17	36844.71
661.32	37205.16
661.46	37319.84
661.60	36924.29
661.74	37134.94
661.89	37102.17
662.03	37088.13
662.17	37071.75
662.31	37046.00
662.46	37263.67
662.60	36825.99
662.74	36411.71
662.88	36570.87
663.03	36510.02
663.17	36533.42
663.31	36247.88
663.45	36315.75
663.60	36835.35
663.74	36514.70
663.88	36613.00
664.02	36123.83
664.17	36360.22
664.31	35817.22
664.45	35833.60
664.59	36224.47
664.73	36107.44
664.88	36135.53
665.02	35974.03
665.16	35864.03
665.30	36140.21
665.44	36126.17
665.59	35512.95
665.73	35681.47
665.87	35693.17
666.01	35484.86
666.15	35550.40
666.29	35510.61
666.44	35849.99
666.58	35585.50
666.72	35426.35
666.86	35384.22
667.00	35377.20
667.14	35157.19
667.28	35587.85
667.43	34934.84
667.57	35370.18
667.71	35555.08
667.85	35339.75
667.99	35204.00
668.13	34675.04
668.27	34822.49
668.41	34487.79
668.56	33888.62
668.70	34195.23
668.84	34691.42
668.98	34466.73
669.12	34574.39
669.26	34050.11
669.40	34136.71
669.54	34338.00
669.68	34412.90
669.82	34251.40
669.96	33926.07
670.10	33563.28
670.25	33956.49
670.39	33841.81
670.53	33820.74
670.67	34115.65
670.81	33905.00
670.95	33659.24
671.09	33603.07
671.23	33572.64
671.37	33530.51
671.51	33174.75
671.65	33097.52
671.79	33369.02
671.93	33647.54
672.07	33486.04
672.21	33329.23
672.35	32912.61
672.49	33156.03
672.63	33146.67
672.77	32545.15
672.91	33106.88
673.05	32678.56
673.19	32446.85
673.33	32510.04
673.47	32472.59
673.61	32027.89
673.75	32376.63
673.89	32308.76
674.03	31831.29
674.17	31714.26
674.31	31784.48
674.45	31901.50
674.59	31740.00
674.73	31669.79
674.87	31747.03
675.01	31435.74
675.15	31433.39
675.29	31449.78
675.43	31182.96
675.56	31168.91
675.70	31569.15
675.84	31393.61
675.98	30272.49
676.12	31285.94
676.26	31276.58
676.40	30925.50
676.54	30782.73
676.68	30817.83
676.82	30232.70
676.96	30464.41
677.10	30433.99
677.23	30539.31
677.37	30225.68
677.51	30125.04
677.65	30160.14
677.79	30064.18
677.93	29778.64
678.07	30022.05
678.21	29504.79
678.34	29277.76
678.48	29167.76
678.62	29106.90
678.76	28996.90
678.90	29298.83
679.04	29226.27
679.18	29530.54
679.31	29057.75
679.45	28500.70
679.59	28683.27
679.73	28758.16
679.87	28411.76
680.00	28933.70
680.14	28458.57
680.28	28308.78
680.42	28189.41
680.56	27936.63
680.70	27992.81
680.83	27536.40
680.97	27983.44
681.11	27854.72
681.25	27498.95
681.39	27615.98
681.52	27510.66
681.66	27182.98
681.80	26867.01
681.94	26600.19
682.07	26883.39
682.21	27051.91
682.35	26909.14
682.49	26803.82
682.62	26628.27
682.76	26808.50
682.90	27030.85
683.04	26305.28
683.17	26478.48
683.31	26356.77
683.45	25628.87
683.59	25937.82
683.72	25942.50
683.86	26024.42
684.00	25811.43
684.13	25759.94
684.27	25317.57
684.41	25427.58
684.55	25549.29
684.68	25071.82
684.82	25479.07
684.96	25193.53
685.09	24732.44
685.23	25191.19
685.37	25420.56
685.50	25013.31
685.64	24971.18
685.78	24879.89
685.91	24638.82
686.05	24053.69
686.19	23559.83
686.32	24250.29
686.46	24257.31
686.60	23931.98
686.73	23931.98
686.87	23913.25
687.01	24025.60
687.14	23646.43
687.28	23625.37
687.42	23498.98
687.55	23681.54
687.69	23463.87
687.82	23152.58
687.96	23283.65
688.10	23398.34
688.23	23262.58
688.37	22963.00
688.50	23302.37
688.64	22955.97
688.78	22651.70
688.91	22745.33
689.05	22780.43
689.18	22457.44
689.32	22441.06
689.46	21928.48
689.59	22171.89
689.73	22527.66
689.86	22452.76
690.00	22019.76
690.13	21951.88
690.27	21612.51
690.41	22001.04
690.54	21771.66
690.68	21586.76
690.81	21448.67
690.95	21642.93
691.08	21439.31
691.22	21095.25
691.35	20966.52
691.49	21312.92
691.62	21156.10
691.76	20697.36
691.89	20570.97
692.03	20491.39
692.16	20107.54
692.30	20332.23
692.43	20332.23
692.57	20039.67
692.70	20161.37
692.84	20210.53
692.97	19922.64
693.11	19709.65
693.24	19814.98
693.38	19756.46
693.51	19573.90
693.65	19264.95
693.78	19721.35
693.92	19506.02
694.05	19307.08
694.19	19396.02
694.32	19098.77
694.45	19220.48
694.59	19122.18
694.72	19138.56
694.86	19161.97
694.99	18714.92
695.13	18590.88
695.26	18373.21
695.39	18412.99
695.53	18541.72
695.66	18565.13
695.80	18412.99
695.93	18190.64
696.07	17980.00
696.20	17467.42
696.33	17671.04
696.47	17797.43
696.60	17717.86
696.73	17736.58
696.87	17652.32
697.00	17544.66
697.14	17514.23
697.27	17486.14
697.40	17195.92
697.54	17277.83
697.67	17282.52
697.80	17411.25
697.94	17074.21
698.07	16936.12
698.21	17025.06
698.34	16809.73
698.47	16692.70
698.61	16280.77
698.74	16301.83
698.87	16643.55
699.01	16173.10
699.14	16482.05
699.27	16568.65
699.40	16137.99
699.54	16163.74
699.67	16027.99
699.80	16035.01
699.94	15779.89
700.07	15719.04
700.20	16109.91
700.34	15562.22
700.47	15674.57
700.60	15695.63
700.73	15690.95
700.87	15501.37
701.00	15274.34
701.13	15279.02
701.26	15124.54
701.40	14941.98
701.53	14787.50
701.66	15000.49
701.79	14785.16
701.93	14871.76
702.06	14389.61
702.19	14567.49
702.32	14541.75
702.46	14398.98
702.59	14579.20
702.72	14588.56
702.85	14478.55
702.99	14513.66
703.12	14436.42
703.25	14031.51
703.38	14211.73
703.51	14045.55
703.65	13860.65
703.78	13802.14
703.91	13586.81
704.04	13362.12
704.17	13645.32
704.31	13291.90
704.44	13481.49
704.57	13525.96
704.70	13373.82
704.83	13277.86
704.96	13224.03
705.10	13111.68
705.23	13097.64
>>>>>End Processed Spectral Data<<<<<
