SpectraSuite Data File
++++++++++++++++++++++++++++++++++++
Date: Fri Oct 25 10:44:51 EDT 2013
User: price-jones
Dark Spectrum Present: No
Reference Spectrum Present: No
Number of Sampled Component Spectra: 1
Spectrometers: USB2+H05261
Integration Time (usec): 100000 (USB2+H05261)
Spectra Averaged: 1 (USB2+H05261)
Boxcar Smoothing: 0 (USB2+H05261)
Correct for Electrical Dark: No (USB2+H05261)
Strobe/Lamp Enabled: No (USB2+H05261)
Correct for Detector Non-linearity: No (USB2+H05261)
Correct for Stray Light: No (USB2+H05261)
Number of Pixels in Processed Spectrum: 2048
>>>>>Begin Processed Spectral Data<<<<<
365.73	170.86
365.92	170.86
366.12	170.86
366.32	4.68
366.52	25.75
366.72	30.43
366.91	25.75
367.11	72.56
367.31	46.81
367.51	0.00
367.70	18.72
367.90	163.84
368.10	63.19
368.30	65.54
368.49	18.72
368.69	63.19
368.89	37.45
369.09	39.79
369.28	39.79
369.48	53.83
369.68	124.05
369.87	135.75
370.07	91.28
370.27	191.92
370.47	266.82
370.66	304.27
370.86	322.99
371.06	374.49
371.25	482.15
371.45	311.29
371.65	369.80
371.84	447.04
372.04	447.04
372.24	470.45
372.44	418.96
372.63	470.45
372.83	458.74
373.03	461.09
373.22	442.36
373.42	489.17
373.62	444.70
373.81	454.06
374.01	503.22
374.21	615.56
374.40	463.43
374.60	510.24
374.79	475.13
374.99	477.47
375.19	521.94
375.38	596.84
375.58	507.90
375.78	599.18
375.97	564.07
376.17	657.69
376.37	624.92
376.56	589.82
376.76	610.88
376.95	550.03
377.15	580.45
377.35	648.33
377.54	507.90
377.74	620.24
377.93	615.56
378.13	643.65
378.33	613.22
378.52	540.66
378.72	564.07
378.91	638.97
379.11	540.66
379.31	660.03
379.50	580.45
379.70	641.31
379.89	704.50
380.09	510.24
380.28	601.52
380.48	592.16
380.68	660.03
380.87	587.47
381.07	716.20
381.26	744.29
381.46	753.65
381.65	571.09
381.85	594.50
382.04	631.94
382.24	594.50
382.43	638.97
382.63	634.29
382.83	774.72
383.02	706.84
383.22	711.52
383.41	669.39
383.61	669.39
383.80	760.67
384.00	730.25
384.19	723.23
384.39	788.76
384.58	716.20
384.78	755.99
384.97	767.70
385.17	870.68
385.36	786.42
385.56	692.80
385.75	716.20
385.95	765.36
386.14	814.51
386.34	732.59
386.53	774.72
386.72	763.01
386.92	763.01
387.11	793.44
387.31	744.29
387.50	807.48
387.70	765.36
387.89	805.14
388.09	774.72
388.28	858.98
388.48	800.46
388.67	854.30
388.86	891.74
389.06	833.23
389.25	926.85
389.45	929.19
389.64	898.77
389.84	870.68
390.03	919.83
390.22	884.72
390.42	903.45
390.61	856.64
390.81	823.87
391.00	947.92
391.19	968.98
391.39	1008.77
391.58	964.30
391.78	884.72
391.97	971.32
392.16	903.45
392.36	968.98
392.55	980.68
392.75	971.32
392.94	861.32
393.13	1055.58
393.33	959.62
393.52	961.96
393.71	1006.43
393.91	1020.47
394.10	1128.14
394.29	1034.52
394.49	1109.41
394.68	1158.57
394.88	1076.65
395.07	1167.93
395.26	1062.60
395.46	1149.20
395.65	1083.67
395.84	1093.03
396.04	1198.35
396.23	1118.78
396.42	1203.04
396.62	1064.94
396.81	1071.97
397.00	1114.10
397.19	1177.29
397.39	1235.80
397.58	1317.72
397.77	1254.53
397.97	1240.48
398.16	1277.93
398.35	1196.01
398.55	1306.02
398.74	1291.98
398.93	1303.68
399.12	1352.83
399.32	1320.06
399.51	1357.51
399.70	1437.09
399.90	1451.13
400.09	1453.47
400.28	1310.70
400.47	1420.71
400.67	1420.71
400.86	1387.94
401.05	1451.13
401.24	1488.58
401.44	1409.00
401.63	1584.54
401.82	1549.43
402.01	1551.78
402.21	1551.78
402.40	1540.07
402.59	1474.54
402.78	1568.16
402.97	1535.39
403.17	1603.27
403.36	1631.35
403.55	1593.90
403.74	1652.42
403.93	1544.75
404.13	1610.29
404.32	1650.08
404.51	1685.19
404.70	1643.06
404.89	1647.74
405.09	1734.34
405.28	1816.26
405.47	1720.29
405.66	1809.23
405.85	1825.62
406.05	1710.93
406.24	1769.44
406.43	1755.40
406.62	1895.83
406.81	1839.66
407.00	1837.32
407.20	1842.00
407.39	1764.76
407.58	1870.09
407.77	1851.36
407.96	1933.28
408.15	2127.55
408.34	1956.69
408.54	1996.48
408.73	2038.61
408.92	2097.12
409.11	2064.35
409.30	2047.97
409.49	2069.03
409.68	2022.22
409.87	1937.96
410.07	2143.93
410.26	2122.87
410.45	2076.06
410.64	2225.85
410.83	2190.74
411.02	2207.13
411.21	2221.17
411.40	2202.44
411.59	2326.49
411.78	2272.66
411.98	2289.04
412.17	2352.24
412.36	2401.39
412.55	2282.02
412.74	2480.97
412.93	2485.65
413.12	2469.27
413.31	2586.29
413.50	2396.71
413.69	2523.10
413.88	2553.52
414.07	2588.63
414.26	2649.49
414.45	2684.59
414.64	2651.83
414.83	2668.21
415.02	2750.13
415.22	2794.60
415.41	2759.49
415.60	2864.82
415.79	2787.58
415.98	2881.20
416.17	2867.16
416.36	2885.88
416.55	2956.10
416.74	2998.23
416.93	3002.91
417.12	2860.13
417.31	2935.03
417.50	2939.71
417.69	3192.49
417.88	3054.40
418.07	3019.29
418.26	3066.10
418.45	3194.83
418.64	3243.98
418.83	3112.91
419.02	3155.04
419.21	3098.87
419.39	3234.62
419.58	3211.22
419.77	3176.11
419.96	3192.49
420.15	3391.44
420.34	3375.05
420.53	3435.91
420.72	3358.67
420.91	3466.33
421.10	3335.26
421.29	3391.44
421.48	3431.23
421.67	3419.52
421.86	3440.59
422.05	3527.19
422.24	3424.20
422.43	3459.31
422.61	3574.00
422.80	3463.99
422.99	3382.07
423.18	3662.94
423.37	3574.00
423.56	3634.85
423.75	3562.30
423.94	3435.91
424.13	3417.18
424.32	3375.05
424.50	3541.23
424.69	3620.81
424.88	3726.13
425.07	3585.70
425.26	3536.55
425.45	3590.38
425.64	3492.08
425.83	3548.25
426.01	3742.52
426.20	3569.32
426.39	3632.51
426.58	3641.87
426.77	3559.95
426.96	3585.70
427.15	3597.40
427.33	3630.17
427.52	3758.90
427.71	3833.80
427.90	3878.27
428.09	3817.41
428.28	3810.39
428.46	3908.69
428.65	3845.50
428.84	3946.14
429.03	3882.95
429.22	3805.71
429.40	3763.58
429.59	3779.97
429.78	3693.37
429.97	3616.13
430.16	3669.96
430.34	3829.12
430.53	3889.97
430.72	3950.82
430.91	3913.38
431.10	3992.95
431.28	4044.45
431.47	4182.54
431.66	4166.15
431.85	4102.96
432.03	4037.42
432.22	4198.92
432.41	4147.43
432.60	4337.01
432.79	4205.94
432.97	4154.45
433.16	4409.57
433.35	4294.88
433.54	4280.84
433.72	4287.86
433.91	4184.88
434.10	4208.28
434.28	4351.06
434.47	4369.78
434.66	4381.48
434.85	4421.27
435.03	4416.59
435.22	4332.33
435.41	4641.28
435.59	4461.06
435.78	4582.77
435.97	4552.34
436.16	4521.92
436.34	4491.49
436.53	4575.75
436.72	4613.20
436.90	4631.92
437.09	4688.09
437.28	4568.73
437.46	4809.80
437.65	4734.90
437.84	4739.58
438.02	4589.79
438.21	4800.44
438.40	4734.90
438.58	4870.65
438.77	4819.16
438.96	4940.87
439.14	4973.64
439.33	5114.07
439.52	5100.03
439.70	5107.05
439.89	5186.63
440.08	5090.67
440.26	5329.40
440.45	5270.89
440.63	5408.98
440.82	5324.72
441.01	5305.99
441.19	5373.87
441.38	5444.09
441.57	5556.43
441.75	5547.07
441.94	5708.57
442.12	5650.05
442.31	5720.27
442.50	5673.46
442.68	5699.20
442.87	5643.03
443.05	5682.82
443.24	5867.72
443.43	5734.31
443.61	5893.47
443.80	5982.41
443.98	5650.05
444.17	5701.54
444.35	5888.79
444.54	6026.88
444.73	5905.17
444.91	5923.90
445.10	5837.30
445.28	5734.31
445.47	5666.44
445.65	5849.00
445.84	5853.68
446.02	5968.37
446.21	6064.33
446.39	6057.31
446.58	6083.05
446.77	5987.09
446.95	6010.50
447.14	6010.50
447.32	6101.78
447.51	6012.84
447.69	5947.30
447.88	5975.39
448.06	6050.28
448.25	6043.26
448.43	6104.12
448.62	6057.31
448.80	5970.71
448.99	6054.97
449.17	6267.95
449.36	6179.01
449.54	6031.56
449.73	6235.19
449.91	6384.98
450.10	6434.13
450.28	6476.26
450.46	6370.94
450.65	6377.96
450.83	6359.24
451.02	6282.00
451.20	6539.46
451.39	6527.75
451.57	6408.39
451.76	6518.39
451.94	6562.86
452.13	6623.72
452.31	6649.46
452.49	6195.40
452.68	6473.92
452.86	6595.63
453.05	6658.82
453.23	6689.25
453.42	6443.49
453.60	6487.96
453.78	6738.40
453.97	6422.43
454.15	6705.63
454.34	6583.93
454.52	6768.83
454.70	6679.89
454.89	6932.67
455.07	6829.68
455.26	6902.24
455.44	7059.06
455.62	6906.92
455.81	6871.81
455.99	7033.31
456.17	6995.86
456.36	7075.44
456.54	7019.27
456.73	7023.95
456.91	7349.28
457.09	7255.66
457.28	7403.11
457.46	7346.94
457.64	7353.96
457.83	7524.82
458.01	7293.11
458.19	7438.22
458.38	7543.55
458.56	7513.12
458.74	7365.67
458.93	7363.33
459.11	7611.42
459.29	7550.57
459.48	7648.87
459.66	7651.21
459.84	7517.80
460.03	7892.29
460.21	7569.29
460.39	7726.11
460.57	7644.19
460.76	7763.56
460.94	7861.86
461.12	7730.79
461.31	7840.79
461.49	7756.54
461.67	7894.63
461.85	8212.94
462.04	8088.89
462.22	8112.30
462.40	8222.30
462.59	7950.80
462.77	7934.42
462.95	8102.93
463.13	8046.76
463.32	7964.84
463.50	8194.22
463.68	8203.58
463.86	8285.50
464.05	8030.38
464.23	8205.92
464.41	8252.73
464.59	8124.00
464.78	8283.16
464.96	8252.73
465.14	8156.77
465.32	8203.58
465.50	8421.25
465.69	8489.12
465.87	8369.76
466.05	8446.99
466.23	8369.76
466.41	8292.52
466.60	8545.30
466.78	8243.37
466.96	8332.31
467.14	8582.74
467.32	8564.02
467.51	8610.83
467.69	8285.50
467.87	8517.21
468.05	8545.30
468.23	8552.32
468.41	8615.51
468.60	8755.94
468.78	8748.92
468.96	8732.54
469.14	8681.05
469.32	8877.65
469.50	8617.85
469.69	8950.21
469.87	9039.15
470.05	8999.36
470.23	9053.19
470.41	8945.53
470.59	9153.84
470.77	8835.52
470.95	9085.96
471.14	9151.49
471.32	8854.25
471.50	9320.01
471.68	9387.89
471.86	9350.44
472.04	9324.69
472.22	9509.60
472.40	9100.00
472.58	9579.81
472.77	9460.45
472.95	9664.07
473.13	10029.20
473.31	9895.78
473.49	9624.28
473.67	9804.50
473.85	9989.41
474.03	9980.04
474.21	10118.14
474.39	10015.15
474.57	10239.84
474.75	10113.45
474.93	10150.90
475.12	10174.31
475.30	10326.44
475.48	10333.47
475.66	10171.97
475.84	10068.98
476.02	10593.26
476.20	10569.86
476.38	10485.60
476.56	10897.53
476.74	10787.53
476.92	10906.90
477.10	10934.98
477.28	11007.54
477.46	11159.67
477.64	10986.47
477.82	11281.38
478.00	11510.75
478.18	11541.18
478.36	11351.60
478.54	11618.42
478.72	11597.35
478.90	11793.96
479.08	11962.48
479.26	11873.54
479.44	12046.74
479.62	12063.12
479.80	12198.87
479.98	12208.23
480.16	12561.66
480.34	12533.57
480.52	12650.60
480.70	12601.44
480.88	12343.99
481.06	12737.20
481.24	12863.58
481.41	12884.65
481.59	12805.07
481.77	12999.34
481.95	13280.20
482.13	13355.10
482.31	13179.56
482.49	13614.90
482.67	13535.32
482.85	13680.43
483.03	14038.53
483.21	14143.86
483.39	14118.11
483.57	14129.81
483.74	14148.54
483.92	14085.34
484.10	14466.85
484.28	14590.90
484.46	14764.10
484.64	14864.74
484.82	14768.78
485.00	15012.20
485.18	15384.34
485.35	15482.64
485.53	15129.22
485.71	15049.64
485.89	15119.86
486.07	15152.63
486.25	15461.58
486.43	15807.98
486.61	15349.23
486.78	16133.31
486.96	15932.03
487.14	16592.06
487.32	16432.90
487.50	16744.19
487.68	16519.50
487.85	16772.28
488.03	17254.43
488.21	17069.53
488.39	16996.97
488.57	17308.26
488.75	17453.37
488.92	17476.78
489.10	17898.08
489.28	18146.17
489.46	18059.57
489.64	17738.92
489.81	18520.66
489.99	18476.19
490.17	18743.01
490.35	18906.85
490.53	18483.21
490.70	18871.74
490.88	18743.01
491.06	19164.31
491.24	18897.49
491.41	19199.41
491.59	19599.65
491.77	19115.16
491.95	19372.61
492.13	19665.18
492.30	19576.24
492.48	19714.33
492.66	20039.67
492.84	20049.03
493.01	20350.96
493.19	20388.41
493.37	20622.46
493.54	20547.56
493.72	20690.34
493.90	20898.64
494.08	21039.08
494.25	21268.45
494.43	21153.76
494.61	21282.49
494.79	21558.67
494.96	21476.76
495.14	21586.76
495.32	21991.67
495.49	21694.43
495.67	22104.02
495.85	22441.06
496.02	22246.79
496.20	22459.78
496.38	22356.80
496.55	22651.70
496.73	22991.08
496.91	22876.40
497.09	23049.60
497.26	23461.53
497.44	22925.55
497.62	22888.10
497.79	23506.00
497.97	23077.68
498.14	23431.10
498.32	23934.32
498.50	23676.86
498.67	23953.04
498.85	24121.56
499.03	24376.68
499.20	24308.80
499.38	23997.51
499.56	24402.43
499.73	24538.18
499.91	24421.15
500.08	24861.17
500.26	24498.39
500.44	24830.74
500.61	24568.60
500.79	24678.61
500.97	25060.12
501.14	25352.68
501.32	25057.78
501.49	25177.14
501.67	25497.80
501.84	25516.52
502.02	25682.70
502.20	26089.95
502.37	25804.41
502.55	26075.91
502.72	26085.27
502.90	26012.71
503.07	25682.70
503.25	26089.95
503.43	26057.18
503.60	26518.27
503.78	26127.40
503.95	26043.14
504.13	26396.56
504.30	26799.13
504.48	26930.20
504.65	27051.91
504.83	27159.58
505.01	26988.72
505.18	26932.54
505.36	27461.51
505.53	27276.60
505.71	27557.47
505.88	27414.69
506.06	27103.40
506.23	27889.82
506.41	27723.65
506.58	27536.40
506.76	27812.59
506.93	27828.97
507.11	27775.14
507.28	28018.55
507.46	27920.25
507.63	27744.71
507.81	27960.04
507.98	28252.61
508.16	28259.63
508.33	28458.57
508.50	28903.28
508.68	28727.74
508.85	29017.96
509.03	28886.89
509.20	28898.59
509.38	29102.22
509.55	29139.67
509.73	29408.83
509.90	29137.33
510.08	29298.83
510.25	29230.95
510.42	29631.18
510.60	29521.18
510.77	29886.30
510.95	29909.71
511.12	29741.19
511.30	29930.77
511.47	30216.32
511.64	30288.87
511.82	30087.59
511.99	29839.49
512.17	30333.34
512.34	30050.14
512.51	30637.61
512.69	30768.68
512.86	30738.26
513.04	30710.17
513.21	30866.98
513.38	30930.18
513.56	30689.10
513.73	30721.87
513.90	31400.63
514.08	31108.06
514.25	31164.23
514.43	30817.83
514.60	31189.98
514.77	30895.07
514.95	31782.13
515.12	30923.16
515.29	31592.55
515.47	31992.78
515.64	32039.59
515.81	31580.85
515.99	31653.40
516.16	31852.35
516.33	31732.98
516.51	31927.25
516.68	31400.63
516.85	31627.66
517.03	32020.87
517.20	32444.51
517.37	32037.25
517.54	32629.41
517.72	31828.95
517.89	32364.93
518.06	31835.97
518.24	32147.26
518.41	32496.00
518.58	32467.91
518.75	32980.49
518.93	33041.34
519.10	32481.95
519.27	33429.87
519.45	33083.47
519.62	32994.53
519.79	32847.08
519.96	33359.66
520.14	33523.49
520.31	33198.16
520.48	33642.86
520.65	33343.27
520.83	33769.25
521.00	34160.12
521.17	33649.88
521.34	34031.39
521.52	33965.85
521.69	33750.52
521.86	33958.83
522.03	34277.15
522.20	33766.91
522.38	34492.47
522.55	33972.88
522.72	34342.68
522.89	34426.94
523.07	34417.58
523.24	34249.06
523.41	35070.59
523.58	34703.12
523.75	35435.71
523.92	34869.30
524.10	34972.28
524.27	35021.44
524.44	35070.59
524.61	35117.40
524.78	35400.60
524.96	35646.36
525.13	35416.99
525.30	35629.98
525.47	35732.96
525.64	35618.27
525.81	35550.40
525.98	35866.37
526.16	35306.98
526.33	35592.53
526.50	35618.27
526.67	35239.11
526.84	35791.47
527.01	35747.00
527.18	35943.61
527.36	35803.17
527.53	36575.55
527.70	36332.14
527.87	35990.42
528.04	36105.10
528.21	36102.76
528.38	36107.44
528.55	36507.68
528.72	36425.76
528.89	36678.54
529.07	36643.43
529.24	36645.77
529.41	36933.65
529.58	36442.14
529.75	36643.43
529.92	37031.96
530.09	36765.14
530.26	36947.70
530.43	37165.37
530.60	36779.18
530.77	37048.34
530.94	37607.73
531.11	36889.18
531.28	37338.57
531.46	37502.40
531.63	37177.07
531.80	37577.30
531.97	37298.78
532.14	37677.94
532.31	37001.53
532.48	37170.05
532.65	37507.08
532.82	37471.98
532.99	37675.60
533.16	37441.55
533.33	37574.96
533.50	37951.79
533.67	38211.59
533.84	38071.15
534.01	37972.85
534.18	37610.07
534.35	37982.21
534.52	38368.40
534.69	38691.40
534.86	38719.48
535.03	38272.44
535.20	38778.00
535.37	38843.53
535.54	38747.57
535.71	38267.76
535.88	38429.26
536.05	38464.36
536.22	38740.55
536.38	38742.89
536.55	39040.14
536.72	38728.84
536.89	38600.12
537.06	38370.74
537.23	38960.56
537.40	38817.78
537.57	39044.82
537.74	39189.93
537.91	39353.77
538.08	38939.49
538.25	38569.69
538.42	39016.73
538.59	39187.59
538.75	38742.89
538.92	38946.51
539.09	39007.37
539.26	39215.68
539.43	39321.00
539.60	39262.49
539.77	39070.56
539.94	39494.20
540.11	39325.68
540.28	39548.03
540.44	39550.37
540.61	39019.07
540.78	39805.49
540.95	39789.11
541.12	39302.28
541.29	39735.27
541.46	39557.39
541.62	39651.02
541.79	39812.51
541.96	39847.62
542.13	39428.66
542.30	39782.09
542.47	39969.33
542.63	40004.44
542.80	39683.78
542.97	40538.08
543.14	40837.67
543.31	40797.88
543.48	40528.72
543.64	41003.85
543.81	40643.40
543.98	40793.20
544.15	40629.36
544.32	40919.59
544.48	40992.14
544.65	41120.87
544.82	40758.09
544.99	40797.88
545.16	40715.96
545.32	40713.62
545.49	41507.06
545.66	41013.21
545.83	41064.70
546.00	41666.22
546.16	41205.13
546.33	41031.93
546.50	40898.52
546.67	41160.66
546.83	40933.63
547.00	41151.30
547.17	41350.24
547.34	41247.26
547.50	41560.89
547.67	41497.70
547.84	41691.96
548.00	41581.96
548.17	41951.76
548.34	41415.78
548.51	41743.45
548.67	41813.67
548.84	41745.80
549.01	41687.28
549.18	41703.67
549.34	41724.73
549.51	41991.55
549.68	41698.98
549.84	41914.31
550.01	42108.58
550.18	41539.83
550.34	42232.63
550.51	42029.00
550.68	42281.78
550.84	41605.36
551.01	42373.06
551.18	42021.98
551.34	42127.30
551.51	42176.45
551.68	42225.60
551.84	42387.10
552.01	42085.17
552.18	42244.33
552.34	41720.05
552.51	42134.32
552.68	42059.43
552.84	42789.67
553.01	42885.64
553.18	42651.58
553.34	42344.97
553.51	42377.74
553.67	42361.36
553.84	42363.70
554.01	42693.71
554.17	43021.39
554.34	43072.88
554.51	42960.53
554.67	43061.18
554.84	42515.83
555.00	42670.31
555.17	42721.80
555.33	43182.88
555.50	42733.50
555.67	42705.41
555.83	42871.59
556.00	42595.41
556.16	43620.56
556.33	42749.88
556.50	42775.63
556.66	43040.11
556.83	42590.73
556.99	43548.01
557.16	43501.20
557.32	43115.01
557.49	43285.87
557.65	42862.23
557.82	43391.19
557.98	43510.56
558.15	43091.60
558.32	43622.90
558.48	43154.80
558.65	43569.07
558.81	43246.08
558.98	43161.82
559.14	43615.88
559.31	43093.94
559.47	43400.55
559.64	43487.15
559.80	43461.41
559.97	43515.24
560.13	43330.34
560.30	43367.79
560.46	43384.17
560.63	43423.96
560.79	43540.99
560.96	43798.44
561.12	43131.39
561.29	43459.07
561.45	43419.28
561.61	44009.09
561.78	43299.91
561.94	43606.52
562.11	43739.93
562.27	43583.12
562.44	43414.60
562.60	44013.77
562.77	43983.35
562.93	43599.50
563.10	44224.42
563.26	43510.56
563.42	43798.44
563.59	43779.72
563.75	43810.15
563.92	44381.24
564.08	43908.45
564.24	44299.32
564.41	44172.93
564.57	43714.19
564.74	43732.91
564.90	43777.38
565.07	43805.47
565.23	43929.51
565.39	43763.34
565.56	43838.23
565.72	43737.59
565.88	43990.37
566.05	43835.89
566.21	44179.95
566.38	43629.93
566.54	44107.40
566.70	44020.80
566.87	44535.71
567.03	44114.42
567.19	44687.85
567.36	44322.72
567.52	44435.07
567.68	44233.78
567.85	44053.56
568.01	44278.25
568.17	43948.24
568.34	44023.14
568.50	44025.48
568.66	43753.97
568.83	44177.61
568.99	43924.83
569.15	44243.15
569.32	44142.50
569.48	44168.25
569.64	44240.81
569.81	44437.41
569.97	44212.72
570.13	44245.49
570.30	44013.77
570.46	43882.70
570.62	43847.60
570.78	44095.69
570.95	44275.91
571.11	44388.26
571.27	44048.88
571.43	43889.73
571.60	44318.04
571.76	44044.20
571.92	44378.90
572.09	44189.31
572.25	44053.56
572.41	44404.64
572.57	44217.40
572.74	44465.50
572.90	44477.20
573.06	43945.90
573.22	44172.93
573.38	44374.22
573.55	44095.69
573.71	44446.77
573.87	44617.63
574.03	44130.80
574.20	44467.84
574.36	44348.47
574.52	44582.52
574.68	44725.30
574.84	44278.25
575.01	44528.69
575.17	44832.96
575.33	44341.45
575.49	44421.03
575.65	44865.73
575.82	44418.69
575.98	44102.71
576.14	44341.45
576.30	45106.80
576.46	44346.13
576.62	44509.97
576.79	44582.52
576.95	44154.21
577.11	44229.10
577.27	44360.17
577.43	44645.72
577.59	44493.58
577.75	44411.67
577.92	44381.24
578.08	44669.12
578.24	44041.86
578.40	43943.56
578.56	44233.78
578.72	44238.47
578.88	44926.58
579.04	44687.85
579.21	44837.64
579.37	44802.53
579.53	44587.21
579.69	44329.75
579.85	44559.12
580.01	44381.24
580.17	44334.43
580.33	44839.98
580.49	44732.32
580.65	44582.52
580.82	44535.71
580.98	44533.37
581.14	44715.93
581.30	44839.98
581.46	44439.75
581.62	44741.68
581.78	44673.81
581.94	44980.42
582.10	44240.81
582.26	44570.82
582.42	44474.86
582.58	44549.76
582.74	44428.05
582.90	44554.44
583.06	44863.39
583.22	44987.44
583.38	44626.99
583.54	44744.02
583.70	44498.26
583.86	44488.90
584.02	44563.80
584.18	44942.97
584.34	44739.34
584.50	44694.87
584.66	44364.85
584.82	44453.79
584.98	44776.79
585.14	44753.38
585.30	44629.34
585.46	44509.97
585.62	44254.85
585.78	44362.51
585.94	44744.02
586.10	44575.50
586.26	44694.87
586.42	44788.49
586.58	44942.97
586.74	44535.71
586.90	44460.82
587.06	44711.25
587.22	44893.82
587.38	44147.18
587.54	44435.07
587.70	44619.97
587.86	45069.36
588.02	44559.12
588.18	45186.38
588.34	44685.51
588.49	44428.05
588.65	44210.38
588.81	44320.38
588.97	44566.14
589.13	44423.37
589.29	44332.09
589.45	44573.16
589.61	44814.24
589.77	44889.13
589.93	44914.88
590.08	44797.85
590.24	44699.55
590.40	45219.15
590.56	45181.70
590.72	45062.33
590.88	45022.54
591.04	44879.77
591.20	45097.44
591.35	45361.92
591.51	45153.62
591.67	44999.14
591.83	44762.75
591.99	44619.97
592.15	45233.19
592.31	45059.99
592.46	44669.12
592.62	44849.35
592.78	45036.59
592.94	45059.99
593.10	44694.87
593.26	45097.44
593.41	44744.02
593.57	44868.07
593.73	44938.29
593.89	44854.03
594.05	44994.46
594.20	45006.16
594.36	44753.38
594.52	44811.90
594.68	44718.28
594.84	44832.96
594.99	45375.97
595.15	44659.76
595.31	45043.61
595.47	44498.26
595.62	45291.71
595.78	45172.34
595.94	45109.14
596.10	45146.59
596.25	45125.53
596.41	45289.37
596.57	44877.43
596.73	45162.98
596.88	45081.06
597.04	45296.39
597.20	44985.10
597.36	45221.49
597.51	45518.74
597.67	45439.16
597.83	45085.74
597.99	45661.51
598.14	45319.79
598.30	45174.68
598.46	45261.28
598.61	44790.83
598.77	44933.60
598.93	44992.12
599.09	45289.37
599.24	45462.57
599.40	44886.79
599.56	45184.04
599.71	45090.42
599.87	45067.02
600.03	45247.24
600.18	44872.75
600.34	44844.66
600.50	45081.06
600.65	44884.45
600.81	44821.26
600.97	45024.89
601.12	45415.76
601.28	45050.63
601.44	44940.63
601.59	45020.20
601.75	44821.26
601.91	45055.31
602.06	44935.95
602.22	44975.73
602.37	45109.14
602.53	45315.11
602.69	45425.12
602.84	45448.52
603.00	44832.96
603.16	45001.48
603.31	44935.95
603.47	45258.94
603.62	44762.75
603.78	45265.96
603.94	45130.21
604.09	45291.71
604.25	45074.04
604.40	45654.49
604.56	44879.77
604.71	45088.08
604.87	44877.43
605.03	44692.53
605.18	44516.99
605.34	45050.63
605.49	44243.15
605.65	45057.65
605.80	44882.11
605.96	45134.89
606.12	45083.40
606.27	45022.54
606.43	44996.80
606.58	45041.27
606.74	44650.40
606.89	44851.69
607.05	44971.05
607.20	44858.71
607.36	45001.48
607.51	44896.16
607.67	44807.22
607.82	44591.89
607.98	44823.60
608.13	44662.10
608.29	45003.82
608.44	44378.90
608.60	44751.04
608.75	44444.43
608.91	44591.89
609.06	44521.67
609.22	44563.80
609.37	44774.45
609.53	44526.35
609.68	45013.18
609.84	44484.22
609.99	44516.99
610.15	44804.88
610.30	44212.72
610.46	44179.95
610.61	44411.67
610.76	44442.09
610.92	44301.66
611.07	44648.06
611.23	44587.21
611.38	44786.15
611.54	44163.57
611.69	44201.02
611.84	44149.53
612.00	44381.24
612.15	44563.80
612.31	44626.99
612.46	44011.43
612.62	44184.63
612.77	44343.79
612.92	44481.88
613.08	44076.97
613.23	44360.17
613.39	44194.00
613.54	44093.35
613.69	43871.00
613.85	44032.50
614.00	43988.03
614.15	44421.03
614.31	44126.12
614.46	44381.24
614.62	44306.34
614.77	43906.11
614.92	43990.37
615.08	43892.07
615.23	43606.52
615.38	43751.63
615.54	43639.29
615.69	43379.49
615.84	43681.42
616.00	43880.36
616.15	43601.84
616.30	44177.61
616.46	43545.67
616.61	43578.43
616.76	43505.88
616.92	43189.91
617.07	43309.27
617.22	43370.13
617.37	43463.75
617.53	43583.12
617.68	43821.85
617.83	43550.35
617.99	43395.87
618.14	43583.12
618.29	43894.41
618.45	43091.60
618.60	43592.48
618.75	43377.15
618.90	43510.56
619.06	43704.82
619.21	43625.25
619.36	43650.99
619.51	43220.33
619.67	43098.62
619.82	43714.19
619.97	43576.09
620.12	43255.44
620.28	42904.36
620.43	43023.73
620.58	42630.52
620.73	43442.68
620.89	43227.35
621.04	43309.27
621.19	42913.72
621.34	43297.57
621.49	42887.98
621.65	42747.54
621.80	42897.34
621.95	43381.83
622.10	42848.19
622.25	42990.96
622.41	43012.02
622.56	42588.39
622.71	42602.43
622.86	42529.87
623.01	43023.73
623.16	42887.98
623.32	43000.32
623.47	42983.94
623.62	42719.46
623.77	42164.75
623.92	42817.76
624.07	42223.26
624.23	42555.62
624.38	42246.67
624.53	42141.35
624.68	42469.02
624.83	42607.11
624.98	42380.08
625.13	42033.68
625.29	42515.83
625.44	42115.60
625.59	41757.50
625.74	41993.89
625.89	42043.04
626.04	42204.54
626.19	42426.89
626.34	42450.30
626.49	42066.45
626.65	41895.59
626.80	42337.95
626.95	42623.50
627.10	42190.50
627.25	42073.47
627.40	41610.04
627.55	41759.84
627.70	41308.11
627.85	41766.86
628.00	41717.71
628.15	41600.68
628.30	41720.05
628.45	41652.17
628.60	41530.47
628.76	41944.74
628.91	42036.02
629.06	41221.52
629.21	41659.20
629.36	41881.55
629.51	41336.20
629.66	41411.10
629.81	41160.66
629.96	41584.30
630.11	41717.71
630.26	41794.95
630.41	41745.80
630.56	41378.33
630.71	41404.08
630.86	41467.27
631.01	41053.00
631.16	41628.77
631.31	40809.58
631.46	40767.45
631.61	41298.75
631.76	41029.59
631.91	41106.83
632.06	41027.25
632.21	41434.50
632.36	41123.21
632.51	40886.82
632.66	40987.46
632.81	40470.20
632.96	40816.60
633.10	40971.08
633.25	41148.96
633.40	40795.54
633.55	41144.28
633.70	41029.59
633.85	40573.19
634.00	40772.13
634.15	41357.27
634.30	40964.06
634.45	40760.43
634.60	40559.14
634.75	40669.15
634.90	40718.30
635.05	40622.34
635.19	40540.42
635.34	40816.60
635.49	40577.87
635.64	40458.50
635.79	40229.13
635.94	40428.07
636.09	40484.25
636.24	40158.91
636.39	40439.78
636.53	40371.90
636.68	39765.70
636.83	40154.23
636.98	40664.47
637.13	39798.47
637.28	40297.00
637.43	40348.50
637.57	40540.42
637.72	39866.34
637.87	39683.78
638.02	40289.98
638.17	40121.46
638.32	39758.68
638.46	39854.64
638.61	40329.77
638.76	39742.30
638.91	40053.59
639.06	39971.67
639.20	39697.83
639.35	39814.85
639.50	39782.09
639.65	40491.27
639.80	40341.47
639.94	40086.36
640.09	39974.01
640.24	39777.40
640.39	39377.17
640.54	39557.39
640.68	39349.09
640.83	39828.90
640.98	39662.72
641.13	39093.97
641.27	39828.90
641.42	39423.98
641.57	39770.38
641.72	39367.81
641.86	39185.25
642.01	39405.26
642.16	39133.76
642.31	38820.13
642.45	39732.93
642.60	39030.77
642.75	39421.64
642.90	39421.64
643.04	39112.69
643.19	39234.40
643.34	39098.65
643.48	39098.65
643.63	38642.24
643.78	38885.66
643.93	38333.29
644.07	38862.26
644.22	38897.36
644.37	38724.16
644.51	39323.34
644.66	38904.38
644.81	39077.58
644.95	39222.70
645.10	39016.73
645.25	39072.90
645.39	39463.77
645.54	38899.70
645.69	38820.13
645.83	38724.16
645.98	38967.58
646.13	38541.60
646.27	38829.49
646.42	38780.34
646.57	38768.63
646.71	38443.30
646.86	38796.72
647.00	38890.34
647.15	38770.97
647.30	38412.87
647.44	38504.15
647.59	38785.02
647.74	38354.36
647.88	38438.62
648.03	38499.47
648.17	38417.55
648.32	38455.00
648.47	38455.00
648.61	37895.61
648.76	38377.76
648.90	38382.45
649.05	38080.52
649.20	38197.54
649.34	37902.64
649.49	37731.78
649.63	37926.04
649.78	38305.21
649.92	37769.22
650.07	38527.56
650.21	38375.42
650.36	37752.84
650.51	37893.27
650.65	38508.83
650.80	38391.81
650.94	38181.16
651.09	38038.39
651.23	37689.65
651.38	37614.75
651.52	37535.17
651.67	37823.06
651.81	37450.91
651.96	37750.50
652.10	38054.77
652.25	37579.64
652.39	38127.33
652.54	37813.70
652.68	37958.81
652.83	37839.44
652.97	37638.15
653.12	37682.62
653.26	37401.76
653.41	37787.95
653.55	37127.92
653.70	37170.05
653.84	37317.50
653.99	37209.84
654.13	37233.24
654.27	37626.45
654.42	37247.29
654.56	37134.94
654.71	37504.74
654.85	37251.97
655.00	37312.82
655.14	37235.58
655.29	36882.16
655.43	37069.40
655.57	36528.74
655.72	36671.51
655.86	36732.37
656.01	36627.04
656.15	36694.92
656.30	36390.65
656.44	36790.88
656.58	36683.22
656.73	36842.37
656.87	36748.75
657.01	36823.65
657.16	36666.83
657.30	36706.62
657.45	36521.72
657.59	36519.38
657.73	36701.94
657.88	36907.91
658.02	36896.20
658.16	36760.45
658.31	36886.84
658.45	36421.08
658.60	36364.90
658.74	36734.71
658.88	36500.65
659.03	36730.03
659.17	36034.89
659.31	36168.30
659.46	36023.19
659.60	36439.80
659.74	36526.40
659.89	36219.79
660.03	35917.86
660.17	36020.84
660.32	36065.31
660.46	36034.89
660.60	35924.88
660.74	35997.44
660.89	35882.75
661.03	35564.44
661.17	35969.35
661.32	35264.85
661.46	35615.93
661.60	35426.35
661.74	35702.53
661.89	35372.52
662.03	35634.66
662.17	35393.58
662.31	35370.18
662.46	35641.68
662.60	35604.23
662.74	35297.62
662.88	35019.10
663.03	34838.87
663.17	35091.65
663.31	34754.61
663.45	35297.62
663.60	34651.63
663.74	34745.25
663.88	34752.27
664.02	35152.51
664.17	35042.50
664.31	34602.48
664.45	34850.58
664.59	34668.02
664.73	34452.69
664.88	34347.36
665.02	34120.33
665.16	34448.00
665.30	34335.66
665.44	33909.68
665.59	34122.67
665.73	33806.70
665.87	33982.24
666.01	34260.76
666.15	34258.42
666.29	34213.95
666.44	34087.56
666.58	33883.94
666.72	34356.72
666.86	33579.67
667.00	34064.16
667.14	33530.51
667.28	33481.36
667.43	33649.88
667.57	33511.79
667.71	33574.98
667.85	33259.01
667.99	33640.52
668.13	33373.70
668.27	33280.08
668.41	33369.02
668.56	33565.62
668.70	33046.02
668.84	32987.51
668.98	32577.92
669.12	32807.29
669.26	32690.26
669.40	32739.41
669.54	32870.48
669.68	32444.51
669.82	32414.08
669.96	32439.82
670.10	32734.73
670.25	32898.57
670.39	32446.85
670.53	32606.00
670.67	32421.10
670.81	32325.14
670.95	32479.61
671.09	32294.71
671.23	32477.27
671.37	31978.74
671.51	31999.80
671.65	31782.13
671.79	31861.71
671.93	31683.83
672.07	31812.56
672.21	31880.44
672.35	32123.85
672.49	31889.80
672.63	31723.62
672.77	31676.81
672.91	31772.77
673.05	31440.42
673.19	31384.24
673.33	30866.98
673.47	31094.02
673.61	31129.12
673.75	31040.18
673.89	31082.31
674.03	30569.74
674.17	30579.10
674.31	30808.47
674.45	30773.36
674.59	30728.89
674.73	30881.03
674.87	30967.63
675.01	30539.31
675.15	30499.52
675.29	30668.04
675.43	30312.28
675.56	30188.23
675.70	30382.49
675.84	30249.08
675.98	29083.50
676.12	29825.45
676.26	30008.01
676.40	29944.81
676.54	29790.34
676.68	29355.00
676.82	29167.76
676.96	29411.17
677.10	29303.51
677.23	29486.07
677.37	29453.30
677.51	28985.19
677.65	28870.51
677.79	28725.39
677.93	28486.66
678.07	28828.38
678.21	28535.81
678.34	28444.53
678.48	28549.85
678.62	28313.46
678.76	27964.72
678.90	27704.92
679.04	27821.95
679.18	28067.70
679.31	27330.44
679.45	27417.04
679.59	27857.06
679.73	27161.92
679.87	27108.08
680.00	27344.48
680.14	27585.55
680.28	27157.24
680.42	27288.31
680.56	27529.38
680.70	26878.71
680.83	26923.18
680.97	27044.89
681.11	27035.53
681.25	27054.25
681.39	26654.02
681.52	26609.55
681.66	26714.87
681.80	26534.65
681.94	26237.41
682.07	26405.92
682.21	26340.39
682.35	26001.01
682.49	26141.44
682.62	25841.85
682.76	25965.90
682.90	26080.59
683.04	25895.69
683.17	25935.48
683.31	25338.64
683.45	25310.55
683.59	25284.81
683.72	24933.73
683.86	25200.55
684.00	25184.16
684.13	24793.29
684.27	25102.25
684.41	24755.85
684.55	25202.89
684.68	24741.80
684.82	24287.74
684.96	24772.23
685.09	24762.87
685.23	24393.06
685.37	24477.32
685.50	24311.14
685.64	24245.61
685.78	24210.50
685.91	23833.68
686.05	23751.76
686.19	23646.43
686.32	23974.11
686.46	23454.51
686.60	23028.53
686.73	23276.63
686.87	22977.04
687.01	22874.06
687.14	22998.10
687.28	22897.46
687.42	22937.25
687.55	22813.20
687.69	23138.54
687.82	22920.87
687.96	22787.46
688.10	22534.68
688.23	22331.05
688.37	21888.69
688.50	22082.95
688.64	21865.28
688.78	22209.34
688.91	22157.85
689.05	21909.75
689.18	22057.21
689.32	21675.70
689.46	21804.43
689.59	21869.97
689.73	21806.77
689.86	21743.58
690.00	21818.47
690.13	21261.43
690.27	21092.91
690.41	21170.15
690.54	21015.67
690.68	20772.25
690.81	20819.07
690.95	21212.28
691.08	20680.97
691.22	20809.70
691.35	21170.15
691.49	20896.30
691.62	20685.65
691.76	20627.14
691.89	20402.45
692.03	20339.26
692.16	20215.21
692.30	20320.53
692.43	19840.72
692.57	20044.35
692.70	20278.40
692.84	19917.96
692.97	19772.85
693.11	19426.45
693.24	19737.74
693.38	19379.64
693.51	19445.17
693.65	19370.27
693.78	19379.64
693.92	19424.11
694.05	19225.16
694.19	19119.84
694.32	19068.34
694.45	18878.76
694.59	18731.31
694.72	18485.55
694.86	18621.30
694.99	18600.24
695.13	18586.19
695.26	18513.64
695.39	18333.42
695.53	18394.27
695.66	18246.82
695.80	18642.37
695.93	18260.86
696.07	17930.84
696.20	18146.17
696.33	18092.34
696.47	17991.70
696.60	17888.71
696.73	17778.71
696.87	17591.47
697.00	17900.42
697.14	17458.06
697.27	17453.37
697.40	17539.97
697.54	17357.41
697.67	16926.75
697.80	17364.43
697.94	16959.52
698.07	16718.45
698.21	16730.15
698.34	16989.95
698.47	16734.83
698.61	16343.96
698.74	16683.34
698.87	16479.71
699.01	15953.09
699.14	16016.29
699.27	16004.58
699.40	16128.63
699.54	15894.58
699.67	15920.32
699.80	16067.78
699.94	16044.37
700.07	15784.57
700.20	15749.46
700.34	15812.66
700.47	15770.53
700.60	15864.15
700.73	16081.82
700.87	15550.52
701.00	15466.26
701.13	15248.59
701.26	15426.47
701.40	15309.44
701.53	15227.53
701.66	15215.82
701.79	14871.76
701.93	15138.58
702.06	14958.36
702.19	14518.34
702.32	14803.89
702.46	14593.24
702.59	14576.86
702.72	14574.52
702.85	14551.11
702.99	14544.09
703.12	14569.83
703.25	14260.88
703.38	14057.26
703.51	14167.26
703.65	14150.88
703.78	14244.50
703.91	14171.94
704.04	13949.59
704.17	13893.42
704.31	13729.58
704.44	13848.95
704.57	13612.56
704.70	13558.72
704.83	13554.04
704.96	13610.22
705.10	13418.29
705.23	13348.08
>>>>>End Processed Spectral Data<<<<<
