SpectraSuite Data File
++++++++++++++++++++++++++++++++++++
Date: Fri Oct 25 10:48:11 EDT 2013
User: price-jones
Dark Spectrum Present: No
Reference Spectrum Present: No
Number of Sampled Component Spectra: 1
Spectrometers: USB2+H05261
Integration Time (usec): 100000 (USB2+H05261)
Spectra Averaged: 1 (USB2+H05261)
Boxcar Smoothing: 0 (USB2+H05261)
Correct for Electrical Dark: No (USB2+H05261)
Strobe/Lamp Enabled: No (USB2+H05261)
Correct for Detector Non-linearity: No (USB2+H05261)
Correct for Stray Light: No (USB2+H05261)
Number of Pixels in Processed Spectrum: 2048
>>>>>Begin Processed Spectral Data<<<<<
365.73	88.94
365.92	88.94
366.12	88.94
366.32	0.00
366.52	72.56
366.72	135.75
366.91	63.19
367.11	11.70
367.31	16.38
367.51	7.02
367.70	32.77
367.90	23.41
368.10	51.49
368.30	91.28
368.49	124.05
368.69	91.28
368.89	67.88
369.09	44.47
369.28	72.56
369.48	44.47
369.68	149.79
369.87	170.86
370.07	65.54
370.27	119.37
370.47	210.65
370.66	390.87
370.86	395.55
371.06	512.58
371.25	503.22
371.45	454.06
371.65	486.83
371.84	416.62
372.04	458.74
372.24	451.72
372.44	486.83
372.63	456.40
372.83	540.66
373.03	512.58
373.22	484.49
373.42	538.32
373.62	524.28
373.81	503.22
374.01	505.56
374.21	535.98
374.40	521.94
374.60	571.09
374.79	603.86
374.99	592.16
375.19	564.07
375.38	550.03
375.58	550.03
375.78	667.05
375.97	667.05
376.17	575.77
376.37	540.66
376.56	533.64
376.76	547.69
376.95	528.96
377.15	660.03
377.35	627.26
377.54	653.01
377.74	545.34
377.93	669.39
378.13	660.03
378.33	653.01
378.52	624.92
378.72	648.33
378.91	645.99
379.11	557.05
379.31	557.05
379.50	589.82
379.70	650.67
379.89	587.47
380.09	645.99
380.28	613.22
380.48	557.05
380.68	634.29
380.87	601.52
381.07	678.76
381.26	657.69
381.46	641.31
381.65	828.55
381.85	674.07
382.04	699.82
382.24	667.05
382.43	755.99
382.63	638.97
382.83	709.18
383.02	720.88
383.22	795.78
383.41	727.91
383.61	706.84
383.80	741.95
384.00	741.95
384.19	734.93
384.39	767.70
384.58	760.67
384.78	779.40
384.97	746.63
385.17	727.91
385.36	744.29
385.56	781.74
385.75	711.52
385.95	734.93
386.14	772.38
386.34	760.67
386.53	800.46
386.72	720.88
386.92	868.34
387.11	725.57
387.31	861.32
387.50	793.44
387.70	709.18
387.89	840.25
388.09	802.80
388.28	833.23
388.48	837.91
388.67	903.45
388.86	856.64
389.06	952.60
389.25	912.81
389.45	908.13
389.64	945.58
389.84	908.13
390.03	896.43
390.22	940.90
390.42	905.79
390.61	952.60
390.81	858.98
391.00	905.79
391.19	870.68
391.39	983.02
391.58	992.39
391.78	959.62
391.97	985.37
392.16	1006.43
392.36	997.07
392.55	1048.56
392.75	1011.11
392.94	1004.09
393.13	1004.09
393.33	957.28
393.52	1022.81
393.71	1034.52
393.91	994.73
394.10	1060.26
394.29	1032.18
394.49	1034.52
394.68	1015.79
394.88	1132.82
395.07	1135.16
395.26	1142.18
395.46	1125.80
395.65	1146.86
395.84	1104.73
396.04	1273.25
396.23	1116.44
396.42	1142.18
396.62	1205.38
396.81	1179.63
397.00	1125.80
397.19	1114.10
397.39	1217.08
397.58	1214.74
397.77	1191.33
397.97	1261.55
398.16	1287.29
398.35	1268.57
398.55	1233.46
398.74	1273.25
398.93	1343.47
399.12	1268.57
399.32	1338.79
399.51	1322.40
399.70	1343.47
399.90	1383.26
400.09	1380.92
400.28	1439.43
400.47	1434.75
400.67	1369.21
400.86	1483.90
401.05	1488.58
401.24	1451.13
401.44	1511.99
401.63	1516.67
401.82	1507.30
402.01	1535.39
402.21	1516.67
402.40	1556.46
402.59	1535.39
402.78	1476.88
402.97	1519.01
403.17	1549.43
403.36	1600.93
403.55	1486.24
403.74	1654.76
403.93	1638.38
404.13	1610.29
404.32	1603.27
404.51	1650.08
404.70	1640.72
404.89	1584.54
405.09	1687.53
405.28	1727.32
405.47	1680.50
405.66	1774.13
405.85	1692.21
406.05	1673.48
406.24	1797.53
406.43	1795.19
406.62	1809.23
406.81	1879.45
407.00	1797.53
407.20	1811.57
407.39	1825.62
407.58	1846.68
407.77	1942.64
407.96	1949.67
408.15	1921.58
408.34	1973.07
408.54	1977.75
408.73	1984.77
408.92	1998.82
409.11	2003.50
409.30	2024.56
409.49	2108.82
409.68	2050.31
409.87	2150.95
410.07	2040.95
410.26	2148.61
410.45	1989.46
410.64	2202.44
410.83	2181.38
411.02	2157.97
411.21	2300.75
411.40	2237.55
411.59	2335.85
411.78	2207.13
411.98	2183.72
412.17	2380.32
412.36	2204.78
412.55	2242.23
412.74	2429.48
412.93	2422.45
413.12	2457.56
413.31	2513.74
413.50	2450.54
413.69	2443.52
413.88	2630.76
414.07	2504.37
414.26	2560.55
414.45	2616.72
414.64	2635.44
414.83	2626.08
415.02	2612.04
415.22	2719.70
415.41	2864.82
415.60	2801.62
415.79	2855.45
415.98	2892.90
416.17	2944.39
416.36	2848.43
416.55	2757.15
416.74	2836.73
416.93	2850.77
417.12	2925.67
417.31	3016.95
417.50	3016.95
417.69	3059.08
417.88	3023.97
418.07	3077.80
418.26	3030.99
418.45	3091.85
418.64	3276.75
418.83	3155.04
419.02	3089.51
419.21	3126.96
419.39	3180.79
419.58	3220.58
419.77	3098.87
419.96	3328.24
420.15	3243.98
420.34	3281.43
420.53	3391.44
420.72	3267.39
420.91	3234.62
421.10	3330.58
421.29	3346.97
421.48	3377.39
421.67	3363.35
421.86	3403.14
422.05	3438.25
422.24	3304.84
422.43	3412.50
422.61	3524.85
422.80	3508.46
422.99	3412.50
423.18	3456.97
423.37	3407.82
423.56	3414.84
423.75	3440.59
423.94	3555.27
424.13	3428.88
424.32	3276.75
424.50	3527.19
424.69	3660.60
424.88	3681.66
425.07	3442.93
425.26	3604.42
425.45	3543.57
425.64	3592.72
425.83	3583.36
426.01	3609.11
426.20	3566.98
426.39	3637.19
426.58	3517.83
426.77	3747.20
426.96	3700.39
427.15	3576.34
427.33	3688.68
427.52	3616.13
427.71	3691.02
427.90	3754.22
428.09	3786.99
428.28	3840.82
428.46	3756.56
428.65	3836.14
428.84	3838.48
429.03	3934.44
429.22	3765.92
429.40	3948.48
429.59	3819.75
429.78	3599.74
429.97	3660.60
430.16	3772.94
430.34	3892.31
430.53	3871.25
430.72	3861.88
430.91	3939.12
431.10	3932.10
431.28	4145.09
431.47	4142.75
431.66	4196.58
431.85	3922.74
432.03	4074.87
432.22	4154.45
432.41	4393.19
432.60	4166.15
432.79	4280.84
432.97	4126.36
433.16	4329.99
433.35	4077.21
433.54	4117.00
433.72	4079.55
433.91	4166.15
434.10	4252.75
434.28	4128.70
434.47	4292.54
434.66	4348.72
434.85	4449.36
435.03	4496.17
435.22	4341.69
435.41	4542.98
435.59	4489.15
435.78	4538.30
435.97	4545.32
436.16	4524.26
436.34	4603.83
436.53	4535.96
436.72	4627.24
436.90	4727.88
437.09	4711.50
437.28	4430.63
437.46	4734.90
437.65	4489.15
437.84	4704.48
438.02	4643.62
438.21	4575.75
438.40	4669.37
438.58	4751.29
438.77	4727.88
438.96	4809.80
439.14	5090.67
439.33	5055.56
439.52	5053.22
439.70	4980.66
439.89	5050.88
440.08	5078.96
440.26	5242.80
440.45	5214.71
440.63	5343.44
440.82	5207.69
441.01	5277.91
441.19	5310.68
441.38	5439.40
441.57	5416.00
441.75	5584.52
441.94	5563.45
442.12	5561.11
442.31	5734.31
442.50	5715.59
442.68	5715.59
442.87	5502.60
443.05	5720.27
443.24	5830.27
443.43	5856.02
443.61	5720.27
443.80	5841.98
443.98	5776.44
444.17	5596.22
444.35	5919.21
444.54	5865.38
444.73	5802.19
444.91	5767.08
445.10	5638.35
445.28	5727.29
445.47	5865.38
445.65	5703.89
445.84	5797.51
446.02	6043.26
446.21	5863.04
446.39	5746.02
446.58	5994.11
446.77	5902.83
446.95	5912.19
447.14	6038.58
447.32	6169.65
447.51	5956.66
447.69	5790.49
447.88	6033.90
448.06	5830.27
448.25	5902.83
448.43	6033.90
448.62	6001.13
448.80	5919.21
448.99	6090.07
449.17	6183.70
449.36	6155.61
449.54	6223.48
449.73	6331.15
449.91	6218.80
450.10	6345.19
450.28	6317.11
450.46	6174.33
450.65	6319.45
450.83	6258.59
451.02	6464.56
451.20	6452.86
451.39	6553.50
451.57	6502.01
451.76	6274.98
451.94	6485.62
452.13	6499.67
452.31	6588.61
452.49	6525.41
452.68	6579.25
452.86	6445.84
453.05	6544.14
453.23	6597.97
453.42	6459.88
453.60	6672.87
453.78	6736.06
453.97	6410.73
454.15	6520.73
454.34	6602.65
454.52	6726.70
454.70	6614.35
454.89	6623.72
455.07	6686.91
455.26	6902.24
455.44	7023.95
455.62	6874.15
455.81	7052.03
455.99	6927.99
456.17	7047.35
456.36	7126.93
456.54	7077.78
456.73	7077.78
456.91	7225.23
457.09	7162.04
457.28	7431.20
457.46	7346.94
457.64	7297.79
457.83	7286.09
458.01	7026.29
458.19	7414.82
458.38	7339.92
458.56	7552.91
458.74	7377.37
458.93	7473.33
459.11	7433.54
459.29	7276.73
459.48	7417.16
459.66	7550.57
459.84	7576.31
460.03	7665.25
460.21	7548.23
460.39	7611.42
460.57	7662.91
460.76	7681.64
460.94	7653.55
461.12	7686.32
461.31	7672.28
461.49	7686.32
461.67	7852.50
461.85	7911.01
462.04	7920.37
462.22	8283.16
462.40	7950.80
462.59	8067.83
462.77	7906.33
462.95	8100.59
463.13	7901.65
463.32	8114.64
463.50	8063.15
463.68	8173.15
463.86	8028.04
464.05	8018.68
464.23	7908.67
464.41	8241.03
464.59	7960.16
464.78	8264.43
464.96	8140.38
465.14	8023.36
465.32	8161.45
465.50	8236.35
465.69	8161.45
465.87	8339.33
466.05	8437.63
466.23	8023.36
466.41	8320.60
466.60	8528.91
466.78	8383.80
466.96	8346.35
467.14	8407.20
467.32	8554.66
467.51	8379.12
467.69	8294.86
467.87	8449.33
468.05	8470.40
468.23	8610.83
468.41	8489.12
468.60	8650.62
468.78	8676.37
468.96	8484.44
469.14	8582.74
469.32	8706.79
469.50	8540.61
469.69	8842.54
469.87	8968.93
470.05	8805.10
470.23	9020.42
470.41	8933.82
470.59	9027.45
470.77	9090.64
470.95	8947.87
471.14	9102.34
471.32	8964.25
471.50	9202.99
471.68	9298.95
471.86	9301.29
472.04	9263.84
472.22	9605.56
472.40	9282.56
472.58	9345.76
472.77	9444.06
472.95	9549.39
473.13	9973.02
473.31	9652.37
473.49	9547.05
473.67	9537.68
473.85	9589.17
474.03	9956.64
474.21	9893.44
474.39	10066.64
474.57	9893.44
474.75	10036.22
474.93	10057.28
475.12	10012.81
475.30	10150.90
475.48	10359.21
475.66	10148.56
475.84	10307.72
476.02	10373.25
476.20	10186.01
476.38	10408.36
476.56	10649.44
476.74	10590.92
476.92	10499.64
477.10	10513.69
477.28	10757.10
477.46	10782.85
477.64	10988.82
477.82	11187.76
478.00	11363.30
478.18	11133.93
478.36	11281.38
478.54	11440.54
478.72	11372.66
478.90	11676.93
479.08	11791.62
479.26	11826.73
479.44	11936.73
479.62	11838.43
479.80	11777.58
479.98	12126.32
480.16	12421.22
480.34	12203.55
480.52	12304.20
480.70	12414.20
480.88	12519.53
481.06	12659.96
481.24	12592.08
481.41	12908.05
481.59	12987.63
481.77	12912.74
481.95	13099.98
482.13	13195.94
482.31	13090.62
482.49	13530.64
482.67	13504.89
482.85	13605.53
483.03	13748.31
483.21	14054.92
483.39	13912.14
483.57	13891.08
483.74	14108.75
483.92	14190.67
484.10	14024.49
484.28	14703.25
484.46	14455.15
484.64	14595.58
484.82	14647.07
485.00	14775.80
485.18	15033.26
485.35	15241.57
485.53	14740.69
485.71	14913.89
485.89	15192.42
486.07	15484.98
486.25	15178.37
486.43	15262.63
486.61	15690.95
486.78	15721.38
486.96	15939.05
487.14	16231.62
487.32	16262.04
487.50	16374.39
487.68	16643.55
487.85	16739.51
488.03	17130.38
488.21	16798.02
488.39	17050.80
488.57	17179.53
488.75	17476.78
488.92	17373.80
489.10	17682.75
489.28	17764.67
489.46	17977.65
489.64	17848.93
489.81	18291.29
489.99	18422.36
490.17	18630.66
490.35	18651.73
490.53	18677.48
490.70	18728.97
490.88	18429.38
491.06	18977.06
491.24	19000.47
491.41	19042.60
491.59	19288.35
491.77	19176.01
491.95	19473.26
492.13	19461.55
492.30	19814.98
492.48	19854.76
492.66	19859.45
492.84	19915.62
493.01	20093.50
493.19	20269.04
493.37	20421.17
493.54	20442.24
493.72	20692.68
493.90	20395.43
494.08	20798.00
494.25	21191.21
494.43	21188.87
494.61	21352.71
494.79	21240.36
494.96	21205.25
495.14	21156.10
495.32	21940.18
495.49	21741.24
495.67	21975.29
495.85	22054.87
496.02	22169.55
496.20	22396.59
496.38	22094.66
496.55	22363.82
496.73	22958.31
496.91	22534.68
497.09	23042.57
497.26	22747.67
497.44	22787.46
497.62	23253.22
497.79	23276.63
497.97	23206.41
498.14	23342.16
498.32	23658.14
498.50	23601.96
498.67	24067.73
498.85	23950.70
499.03	23962.40
499.20	23929.64
499.38	24112.20
499.56	24432.85
499.73	24556.90
499.91	24418.81
500.08	24886.92
500.26	24215.18
500.44	24854.15
500.61	24650.52
500.79	24727.76
500.97	24842.45
501.14	24985.22
501.32	25310.55
501.49	24830.74
501.67	25263.74
501.84	25249.70
502.02	25202.89
502.20	26230.38
502.37	25631.21
502.55	25696.74
502.72	25638.23
502.90	25713.13
503.07	25736.53
503.25	26160.17
503.43	25827.81
503.60	26075.91
503.78	25951.86
503.95	26033.78
504.13	26506.57
504.30	26508.91
504.48	26499.55
504.65	26497.20
504.83	26881.05
505.01	27016.80
505.18	27035.53
505.36	27426.40
505.53	27042.55
505.71	27276.60
505.88	27536.40
506.06	27185.32
506.23	27515.34
506.41	27428.74
506.58	27496.61
506.76	27538.74
506.93	27669.81
507.11	27695.56
507.28	27686.20
507.46	27676.83
507.63	28032.60
507.81	28037.28
507.98	27962.38
508.16	28383.68
508.33	28126.22
508.50	28453.89
508.68	28273.67
508.85	28465.60
509.03	28772.21
509.20	29064.77
509.38	29109.24
509.55	29022.64
509.73	28730.08
509.90	28929.02
510.08	29034.35
510.25	29167.76
510.42	29287.12
510.60	29551.60
510.77	29158.39
510.95	29610.12
511.12	29675.65
511.30	29832.47
511.47	30054.82
511.64	30143.76
511.82	30300.58
511.99	29923.75
512.17	29979.92
512.34	30167.16
512.51	30558.03
512.69	30244.40
512.86	30352.07
513.04	30771.02
513.21	30712.51
513.38	30937.20
513.56	30588.46
513.73	31087.00
513.90	30803.79
514.08	30527.61
514.25	31019.12
514.43	31065.93
514.60	31035.50
514.77	31002.74
514.95	31438.08
515.12	31065.93
515.29	31686.17
515.47	31711.92
515.64	31887.46
515.81	31868.73
515.99	31171.25
516.16	31618.30
516.33	31606.59
516.51	31658.09
516.68	31725.96
516.85	31868.73
517.03	31683.83
517.20	31920.23
517.37	31611.28
517.54	32161.30
517.72	32362.59
517.89	32016.19
518.06	32400.04
518.24	32222.16
518.41	32156.62
518.58	32519.40
518.75	32063.00
518.93	32893.89
519.10	32381.31
519.27	32261.94
519.45	33123.26
519.62	33111.56
519.79	32739.41
519.96	33092.83
520.14	33572.64
520.31	32924.32
520.48	33462.64
520.65	33078.79
520.83	33710.74
521.00	33263.69
521.17	33626.48
521.34	33514.13
521.52	33832.44
521.69	33937.77
521.86	34075.86
522.03	33879.25
522.20	34726.53
522.38	34398.85
522.55	34099.26
522.72	34117.99
522.89	34061.82
523.07	34513.54
523.24	33935.43
523.41	34515.88
523.58	34342.68
523.75	34656.31
523.92	34719.51
524.10	34869.30
524.27	34902.07
524.44	35288.26
524.61	35115.06
524.78	34941.86
524.96	35075.27
525.13	35344.43
525.30	35416.99
525.47	35344.43
525.64	35086.97
525.81	35360.81
525.98	35145.48
526.16	35115.06
526.33	35262.51
526.50	35662.74
526.67	35051.86
526.84	35468.48
527.01	35440.39
527.18	35541.03
527.36	35765.73
527.53	36259.58
527.70	36025.53
527.87	36385.97
528.04	36250.22
528.21	36086.38
528.38	35957.65
528.55	36507.68
528.72	36081.70
528.89	36704.28
529.07	36510.02
529.24	36126.17
529.41	36411.71
529.58	36353.20
529.75	36411.71
529.92	36732.37
530.09	36938.33
530.26	36828.33
530.43	36720.66
530.60	36554.49
530.77	37029.62
530.94	37303.46
531.11	37060.04
531.28	37186.43
531.46	37254.31
531.63	37167.71
531.80	37202.82
531.97	37354.95
532.14	37186.43
532.31	36954.72
532.48	37289.42
532.65	37319.84
532.82	37357.29
532.99	37584.32
533.16	37198.13
533.33	37598.37
533.50	37942.42
533.67	37914.34
533.84	37556.24
534.01	38010.30
534.18	37738.80
534.35	37823.06
534.52	37827.74
534.69	38225.63
534.86	37811.35
535.03	38054.77
535.20	38663.31
535.37	38515.86
535.54	38405.85
535.71	38244.35
535.88	38211.59
536.05	38302.87
536.22	38679.69
536.38	38139.03
536.55	38305.21
536.72	38295.85
536.89	38462.02
537.06	38663.31
537.23	38780.34
537.40	38422.23
537.57	38349.68
537.74	38941.83
537.91	39220.36
538.08	38672.67
538.25	38859.91
538.42	38990.98
538.59	38630.54
538.75	38820.13
538.92	39274.19
539.09	39423.98
539.26	39981.03
539.43	39360.79
539.60	39283.55
539.77	39075.24
539.94	39386.54
540.11	39187.59
540.28	39559.73
540.44	39466.11
540.61	39758.68
540.78	39222.70
540.95	39365.47
541.12	39047.16
541.29	39250.78
541.46	39615.91
541.62	39564.42
541.79	39807.83
541.96	39695.49
542.13	39379.51
542.30	40091.04
542.47	39735.27
542.63	39955.29
542.80	40121.46
542.97	40304.02
543.14	40449.14
543.31	40589.57
543.48	40547.44
543.64	40683.19
543.81	40638.72
543.98	40573.19
544.15	40495.95
544.32	40947.67
544.48	40996.82
544.65	40526.38
544.82	40605.95
544.99	40566.16
545.16	40945.33
545.32	40219.77
545.49	40940.65
545.66	41366.63
545.83	40957.03
546.00	41174.70
546.16	41001.50
546.33	40741.71
546.50	40517.01
546.67	40797.88
546.83	40573.19
547.00	41123.21
547.17	41088.10
547.34	41289.39
547.50	41036.61
547.67	41556.21
547.84	41268.33
548.00	41617.07
548.17	41797.29
548.34	41497.70
548.51	41624.09
548.67	41888.57
548.84	41755.16
549.01	41361.95
549.18	41366.63
549.34	41888.57
549.51	41418.12
549.68	41654.51
549.84	42260.71
550.01	41940.06
550.18	41691.96
550.34	42232.63
550.51	41984.53
550.68	41551.53
550.84	41776.22
551.01	42045.38
551.18	41691.96
551.34	42106.24
551.51	42218.58
551.68	42237.31
551.84	42157.73
552.01	42270.08
552.18	42506.47
552.34	42036.02
552.51	42160.07
552.68	42487.74
552.84	42483.06
553.01	43222.67
553.18	42415.19
553.34	42410.51
553.51	42356.67
553.67	42457.32
553.84	42548.60
554.01	42803.72
554.17	42792.01
554.34	43143.09
554.51	42529.87
554.67	43274.16
554.84	42838.83
555.00	42616.47
555.17	42490.09
555.33	42548.60
555.50	43014.37
555.67	42703.07
555.83	43133.73
556.00	43147.78
556.16	43522.26
556.33	42934.79
556.50	43173.52
556.66	42965.21
556.83	42852.87
556.99	43117.35
557.16	43306.93
557.32	43335.02
557.49	42841.17
557.65	42806.06
557.82	43051.81
557.98	42990.96
558.15	43147.78
558.32	43311.61
558.48	43318.64
558.65	43363.11
558.81	42850.53
558.98	43344.38
559.14	43234.38
559.31	43360.76
559.47	43529.28
559.64	43690.78
559.80	43311.61
559.97	43501.20
560.13	43592.48
560.30	43274.16
560.46	43821.85
560.63	43400.55
560.79	43618.22
560.96	43578.43
561.12	43290.55
561.29	43599.50
561.45	43683.76
561.61	43578.43
561.78	43477.79
561.94	43313.95
562.11	43786.74
562.27	43948.24
562.44	43711.84
562.60	43934.20
562.77	43945.90
562.93	43772.70
563.10	43613.54
563.26	43838.23
563.42	43515.24
563.59	43618.22
563.75	43962.28
563.92	43725.89
564.08	44304.00
564.24	44072.29
564.41	43849.94
564.57	43798.44
564.74	44011.43
564.90	43756.32
565.07	44048.88
565.23	44006.75
565.39	44048.88
565.56	43983.35
565.72	44198.68
565.88	43873.34
566.05	43707.16
566.21	44231.44
566.38	43922.49
566.54	44069.95
566.70	44474.86
566.87	44729.98
567.03	44346.13
567.19	44718.28
567.36	44210.38
567.52	43842.92
567.68	44318.04
567.85	44240.81
568.01	44149.53
568.17	44107.40
568.34	44116.76
568.50	44456.14
568.66	44409.32
568.83	43868.66
568.99	44151.87
569.15	44069.95
569.32	44065.27
569.48	44278.25
569.64	44563.80
569.81	44573.16
569.97	43992.71
570.13	44545.08
570.30	44383.58
570.46	43999.73
570.62	44016.11
570.78	44002.07
570.95	44385.92
571.11	44800.19
571.27	44615.29
571.43	44336.77
571.60	44449.11
571.76	44278.25
571.92	44289.96
572.09	44189.31
572.25	44477.20
572.41	44584.86
572.57	44526.35
572.74	44898.50
572.90	43889.73
573.06	43936.54
573.22	44320.38
573.38	45001.48
573.55	44399.96
573.71	44474.86
573.87	44369.54
574.03	44793.17
574.20	44563.80
574.36	44444.43
574.52	44467.84
574.68	44748.70
574.84	44374.22
575.01	44397.62
575.17	44215.06
575.33	44493.58
575.49	44013.77
575.65	44575.50
575.82	44863.39
575.98	44619.97
576.14	44835.30
576.30	44638.70
576.46	43793.76
576.62	44336.77
576.79	44907.86
576.95	44208.04
577.11	44729.98
577.27	44924.24
577.43	44575.50
577.59	44428.05
577.75	44435.07
577.92	44318.04
578.08	44100.37
578.24	44011.43
578.40	44341.45
578.56	44182.29
578.72	44425.71
578.88	44493.58
579.04	44222.08
579.21	44215.06
579.37	44484.22
579.53	44470.18
579.69	44023.14
579.85	44236.12
580.01	44952.33
580.17	44762.75
580.33	44748.70
580.49	45198.09
580.65	44634.02
580.82	44655.08
580.98	44788.49
581.14	44350.81
581.30	44559.12
581.46	44355.49
581.62	44575.50
581.78	44795.51
581.94	44875.09
582.10	44643.38
582.26	44357.83
582.42	44465.50
582.58	44809.56
582.74	44552.10
582.90	44690.19
583.06	44807.22
583.22	44861.05
583.38	44418.69
583.54	44809.56
583.70	44744.02
583.86	44786.15
584.02	44362.51
584.18	44854.03
584.34	45029.57
584.50	45015.52
584.66	44800.19
584.82	44477.20
584.98	44680.83
585.14	44781.47
585.30	44378.90
585.46	44612.95
585.62	44514.65
585.78	44615.29
585.94	44357.83
586.10	44748.70
586.26	44573.16
586.42	44603.59
586.58	45048.29
586.74	45170.00
586.90	44842.32
587.06	44779.13
587.22	44872.75
587.38	44568.48
587.54	44692.53
587.70	44879.77
587.86	44945.31
588.02	44875.09
588.18	45074.04
588.34	44830.62
588.49	44729.98
588.65	44498.26
588.81	44467.84
588.97	44313.36
589.13	44264.21
589.29	44973.39
589.45	44692.53
589.61	45174.68
589.77	44931.26
589.93	44837.64
590.08	45219.15
590.24	44877.43
590.40	44821.26
590.56	44903.18
590.72	45008.50
590.88	44519.33
591.04	44788.49
591.20	45134.89
591.35	45488.31
591.51	45588.95
591.67	44919.56
591.83	44933.60
591.99	44933.60
592.15	44758.06
592.31	45141.91
592.46	45111.49
592.62	44842.32
592.78	44882.11
592.94	45399.37
593.10	44896.16
593.26	45235.53
593.41	45097.44
593.57	44938.29
593.73	44669.12
593.89	45319.79
594.05	44818.92
594.20	45111.49
594.36	45277.66
594.52	45081.06
594.68	45382.99
594.84	45422.78
594.99	45471.93
595.15	45067.02
595.31	45165.32
595.47	44959.35
595.62	45497.67
595.78	45572.57
595.94	45406.39
596.10	45425.12
596.25	45301.07
596.41	45500.01
596.57	44945.31
596.73	45261.28
596.88	44816.58
597.04	45200.43
597.20	45563.21
597.36	45013.18
597.51	45338.52
597.67	45315.11
597.83	45675.55
597.99	45432.14
598.14	45193.40
598.30	45099.78
598.46	45270.64
598.61	45322.13
598.77	45057.65
598.93	45268.30
599.09	44800.19
599.24	45888.54
599.40	45350.22
599.56	44952.33
599.71	45221.49
599.87	45413.41
600.03	45446.18
600.18	45137.23
600.34	44872.75
600.50	44765.09
600.65	45041.27
600.81	45497.67
600.97	45186.38
601.12	45530.44
601.28	45067.02
601.44	45488.31
601.59	45083.40
601.75	45118.51
601.91	45282.34
602.06	44884.45
602.22	45713.00
602.37	45123.19
602.53	45134.89
602.69	45584.27
602.84	45350.22
603.00	45565.55
603.16	45347.88
603.31	45045.95
603.47	45298.73
603.62	44751.04
603.78	45272.98
603.94	45113.83
604.09	44886.79
604.25	45298.73
604.40	44886.79
604.56	45371.28
604.71	45291.71
604.87	45097.44
605.03	45062.33
605.18	45146.59
605.34	44914.88
605.49	44634.02
605.65	45411.07
605.80	45315.11
605.96	45179.36
606.12	44802.53
606.27	44968.71
606.43	45006.16
606.58	44989.78
606.74	44839.98
606.89	45062.33
607.05	45209.79
607.20	44966.37
607.36	45277.66
607.51	45282.34
607.67	45717.68
607.82	45170.00
607.98	45394.69
608.13	44734.66
608.29	44772.11
608.44	44423.37
608.60	43917.81
608.75	44907.86
608.91	44233.78
609.06	44839.98
609.22	44781.47
609.37	44699.55
609.53	44961.69
609.68	45085.74
609.84	44863.39
609.99	44928.92
610.15	44678.49
610.30	44729.98
610.46	44189.31
610.61	44793.17
610.76	44516.99
610.92	44259.53
611.07	44725.30
611.23	44533.37
611.38	44542.74
611.54	44116.76
611.69	44428.05
611.84	44399.96
612.00	44425.71
612.15	44573.16
612.31	44629.34
612.46	44383.58
612.62	44676.15
612.77	44573.16
612.92	44751.04
613.08	44458.48
613.23	44350.81
613.39	44011.43
613.54	43810.15
613.69	44348.47
613.85	44191.65
614.00	44603.59
614.15	44638.70
614.31	44126.12
614.46	44786.15
614.62	43878.02
614.77	44140.16
614.92	44311.02
615.08	43824.19
615.23	43840.57
615.38	44392.94
615.54	44048.88
615.69	43831.21
615.84	43878.02
616.00	44046.54
616.15	43875.68
616.30	44004.41
616.46	43707.16
616.61	43433.32
616.76	43800.79
616.92	43899.09
617.07	43782.06
617.22	43667.37
617.37	44044.20
617.53	44044.20
617.68	44013.77
617.83	43772.70
617.99	43629.93
618.14	43625.25
618.29	43402.89
618.45	43533.96
618.60	43821.85
618.75	43831.21
618.90	43548.01
619.06	43730.57
619.21	43356.08
619.36	44123.78
619.51	43180.54
619.67	43817.17
619.82	44023.14
619.97	43510.56
620.12	43168.84
620.28	43037.77
620.43	43381.83
620.58	43395.87
620.73	43201.61
620.89	43330.34
621.04	43213.31
621.19	43475.45
621.34	43002.66
621.49	42876.27
621.65	43358.42
621.80	42983.94
621.95	42855.21
622.10	43297.57
622.25	42862.23
622.41	42822.44
622.56	43208.63
622.71	43189.91
622.86	42637.54
623.01	43264.80
623.16	43311.61
623.32	42990.96
623.47	43313.95
623.62	43140.75
623.77	42855.21
623.92	42988.62
624.07	42595.41
624.23	42810.74
624.38	42799.04
624.53	43023.73
624.68	42990.96
624.83	42850.53
624.98	42682.01
625.13	42300.50
625.29	42993.30
625.44	43103.31
625.59	42579.03
625.74	42588.39
625.89	41949.42
626.04	42085.17
626.19	42344.97
626.34	42122.62
626.49	41839.42
626.65	42354.33
626.80	42703.07
626.95	42190.50
627.10	41727.07
627.25	41853.46
627.40	42153.05
627.55	41907.29
627.70	41598.34
627.85	41841.76
628.00	41493.02
628.15	42178.79
628.30	42024.32
628.45	41886.23
628.60	42155.39
628.76	42307.52
628.91	42017.30
629.06	42043.04
629.21	41900.27
629.36	41834.74
629.51	41600.68
629.66	41677.92
629.81	41738.77
629.96	41535.15
630.11	42150.71
630.26	41881.55
630.41	41663.88
630.56	41691.96
630.71	41551.53
630.86	41481.31
631.01	41394.71
631.16	41621.75
631.31	41132.57
631.46	40926.61
631.61	41638.13
631.76	41743.45
631.91	41064.70
632.06	41076.40
632.21	41361.95
632.36	41656.85
632.51	41055.34
632.66	41205.13
632.81	40903.20
632.96	41106.83
633.10	40982.78
633.25	40950.01
633.40	40935.97
633.55	41291.73
633.70	41034.27
633.85	41062.36
634.00	41163.00
634.15	41205.13
634.30	40383.60
634.45	41347.90
634.60	40954.69
634.75	40898.52
634.90	40680.85
635.05	41141.94
635.19	40877.46
635.34	40699.58
635.49	40912.56
635.64	40950.01
635.79	40477.22
635.94	40720.64
636.09	40786.18
636.24	40952.35
636.39	40404.67
636.53	40528.72
636.68	40388.28
636.83	40414.03
636.98	40402.33
637.13	40041.88
637.28	40542.76
637.43	40692.55
637.57	40451.48
637.72	40081.67
637.87	40762.77
638.02	40215.08
638.17	40280.62
638.32	40339.13
638.46	40449.14
638.61	40336.79
638.76	39688.46
638.91	40062.95
639.06	39812.51
639.20	39765.70
639.35	40280.62
639.50	40004.44
639.65	40170.61
639.80	40069.97
639.94	40168.27
640.09	40390.62
640.24	39938.90
640.39	39978.69
640.54	39475.48
640.68	39639.31
640.83	39868.69
640.98	40051.25
641.13	39770.38
641.27	39885.07
641.42	39438.03
641.57	39831.24
641.72	39456.75
641.86	39351.43
642.01	39606.55
642.16	39480.16
642.31	38939.49
642.45	39758.68
642.60	39227.38
642.75	38820.13
642.90	39391.22
643.04	39402.92
643.19	39218.02
643.34	39442.71
643.48	39213.34
643.63	38981.62
643.78	39442.71
643.93	39220.36
644.07	39271.85
644.22	38838.85
644.37	38539.26
644.51	39299.94
644.66	39489.52
644.81	39374.83
644.95	39166.52
645.10	39147.80
645.25	39164.18
645.39	39086.95
645.54	39505.90
645.69	38962.90
645.83	38885.66
645.98	38778.00
646.13	38960.56
646.27	38897.36
646.42	38862.26
646.57	38682.03
646.71	39005.03
646.86	38892.68
647.00	39030.77
647.15	39019.07
647.30	39075.24
647.44	38628.20
647.59	39175.89
647.74	38501.81
647.88	38637.56
648.03	38768.63
648.17	38649.27
648.32	38391.81
648.47	38529.90
648.61	38345.00
648.76	38565.01
648.90	39037.80
649.05	38878.64
649.20	38455.00
649.34	38616.50
649.49	38499.47
649.63	38504.15
649.78	38602.46
649.92	38541.60
650.07	38576.71
650.21	37720.07
650.36	38373.08
650.51	38263.08
650.65	38291.16
650.80	38672.67
650.94	38604.80
651.09	37638.15
651.23	38333.29
651.38	37984.55
651.52	38052.43
651.67	38237.33
651.81	38103.92
651.96	38012.64
652.10	37741.14
652.25	37724.75
652.39	38101.58
652.54	38108.60
652.68	38190.52
652.83	38213.93
652.97	37963.49
653.12	37780.93
653.26	38122.65
653.41	37926.04
653.55	37146.64
653.70	37699.01
653.84	37701.35
653.99	37532.83
654.13	37549.21
654.27	37359.63
654.42	37560.92
654.56	37371.33
654.71	37745.82
654.85	37387.72
655.00	37736.46
655.14	37240.26
655.29	36844.71
655.43	37275.37
655.57	36900.89
655.72	37088.13
655.86	37254.31
656.01	37036.64
656.15	37137.28
656.30	36861.10
656.44	37172.39
656.58	37411.12
656.73	36678.54
656.87	36879.82
657.01	36559.17
657.16	36989.83
657.30	36968.76
657.45	36678.54
657.59	36732.37
657.73	36510.02
657.88	37003.87
658.02	36727.69
658.16	36610.66
658.31	36690.24
658.45	36891.52
658.60	36465.55
658.74	37024.93
658.88	36727.69
659.03	36687.90
659.17	36011.48
659.31	36596.62
659.46	36290.01
659.60	36659.81
659.74	36505.34
659.89	36016.16
660.03	36130.85
660.17	36390.65
660.32	36704.28
660.46	36474.91
660.60	36100.42
660.74	36252.56
660.89	36268.94
661.03	35952.97
661.17	35555.08
661.32	35732.96
661.46	35819.56
661.60	35702.53
661.74	35700.19
661.89	35817.22
662.03	35421.67
662.17	35562.10
662.31	35470.82
662.46	36046.59
662.60	35779.77
662.74	35431.03
662.88	35697.85
663.03	35419.33
663.17	35377.20
663.31	35274.21
663.45	35290.60
663.60	35367.84
663.74	35016.75
663.88	35035.48
664.02	34965.26
664.17	35122.08
664.31	34611.84
664.45	34675.04
664.59	34946.54
664.73	34754.61
664.88	35023.78
665.02	34656.31
665.16	34663.33
665.30	34869.30
665.44	34700.78
665.59	34546.31
665.73	34227.99
665.87	33993.94
666.01	34309.91
666.15	34588.44
666.29	34368.43
666.44	34415.24
666.58	33853.51
666.72	34171.82
666.86	34515.88
667.00	34223.31
667.14	33956.49
667.28	33914.36
667.43	33832.44
667.57	33855.85
667.71	33490.73
667.85	33780.95
667.99	33820.74
668.13	33420.51
668.27	33532.86
668.41	33668.61
668.56	33071.77
668.70	33507.11
668.84	33530.51
668.98	33053.05
669.12	33024.96
669.26	33418.17
669.40	33174.75
669.54	33357.32
669.68	32779.20
669.82	33240.29
669.96	32746.44
670.10	32732.39
670.25	32959.42
670.39	32573.24
670.53	32545.15
670.67	32456.21
670.81	32659.84
670.95	32671.54
671.09	32797.93
671.23	32830.69
671.37	32929.00
671.51	31833.63
671.65	31997.46
671.79	32154.28
671.93	31983.42
672.07	32297.05
672.21	32140.24
672.35	31821.92
672.49	32079.38
672.63	31538.72
672.77	31962.36
672.91	31501.27
673.05	31569.15
673.19	31393.61
673.33	31896.82
673.47	31412.33
673.61	31122.10
673.75	31466.16
673.89	30817.83
674.03	30843.58
674.17	30675.06
674.31	30677.40
674.45	30827.20
674.59	30916.14
674.73	30920.82
674.87	31424.03
675.01	30932.52
675.15	30881.03
675.29	30843.58
675.43	30319.30
675.56	30728.89
675.70	30206.95
675.84	30377.81
675.98	29453.30
676.12	30356.75
676.26	30375.47
676.40	29741.19
676.54	30134.40
676.68	29846.51
676.82	29179.46
676.96	29401.81
677.10	29394.79
677.23	29195.84
677.37	29844.17
677.51	29088.18
677.65	29465.00
677.79	28800.29
677.93	29230.95
678.07	29003.92
678.21	28882.21
678.34	28788.59
678.48	28823.70
678.62	28414.10
678.76	28533.47
678.90	28500.70
679.04	28320.48
679.18	28662.20
679.31	28283.03
679.45	27803.22
679.59	27524.70
679.73	27901.53
679.87	27711.94
680.00	28060.68
680.14	27510.66
680.28	27552.79
680.42	27414.69
680.56	27391.29
680.70	27360.86
680.83	27201.71
680.97	27587.89
681.11	26675.09
681.25	26911.48
681.39	27182.98
681.52	26749.98
681.66	26705.51
681.80	26593.17
681.94	26581.46
682.07	26768.71
682.21	26380.18
682.35	26246.77
682.49	26513.59
682.62	26499.55
682.76	26214.00
682.90	25785.68
683.04	26043.14
683.17	25984.63
683.31	25310.55
683.45	25881.64
683.59	25511.84
683.72	25504.82
683.86	25355.02
684.00	25584.40
684.13	25553.97
684.27	25308.21
684.41	25172.46
684.55	24847.13
684.68	24606.05
684.82	24744.14
684.96	24697.33
685.09	24439.87
685.23	24428.17
685.37	24360.30
685.50	24606.05
685.64	24271.36
685.78	24369.66
685.91	24437.53
686.05	24025.60
686.19	23594.94
686.32	23800.91
686.46	23726.01
686.60	23449.83
686.73	23494.30
686.87	23314.08
687.01	23253.22
687.14	23400.68
687.28	23016.83
687.42	22782.77
687.55	22782.77
687.69	23084.70
687.82	22733.62
687.96	23012.15
688.10	22602.55
688.23	22597.87
688.37	22658.73
688.50	22359.14
688.64	22293.60
688.78	22237.43
688.91	22094.66
689.05	21916.78
689.18	22146.15
689.32	22157.85
689.46	21612.51
689.59	22143.81
689.73	21848.90
689.86	21731.87
690.00	21762.30
690.13	21933.16
690.27	21338.66
690.41	21816.13
690.54	21139.72
690.68	21163.12
690.81	20994.61
690.95	21048.44
691.08	20992.26
691.22	20985.24
691.35	20697.36
691.49	20828.43
691.62	20870.56
691.76	20767.57
691.89	20882.26
692.03	20365.00
692.16	20170.74
692.30	20592.03
692.43	20460.96
692.57	20152.01
692.70	20088.82
692.84	20088.82
692.97	19908.60
693.11	19648.80
693.24	19690.93
693.38	19609.01
693.51	19522.41
693.65	19281.33
693.78	19522.41
693.92	19695.61
694.05	19164.31
694.19	18937.27
694.32	19389.00
694.45	19248.57
694.59	19199.41
694.72	18679.82
694.86	18822.59
694.99	18530.02
695.13	18391.93
695.26	18410.65
695.39	18368.52
695.53	18714.92
695.66	18375.55
695.80	18106.38
695.93	18464.49
696.07	17855.95
696.20	18338.10
696.33	18080.64
696.47	18061.91
696.60	17891.06
696.73	17577.42
696.87	17804.46
697.00	17771.69
697.14	17525.93
697.27	17444.01
697.40	17483.80
697.54	17563.38
697.67	17315.28
697.80	17319.96
697.94	17146.76
698.07	17144.42
698.21	16915.05
698.34	17111.66
698.47	16627.17
698.61	16610.78
698.74	16760.58
698.87	16624.83
699.01	16538.23
699.14	16587.38
699.27	16465.67
699.40	16561.63
699.54	15981.18
699.67	15878.19
699.80	16219.91
699.94	16320.56
700.07	16004.58
700.20	15925.00
700.34	15957.77
700.47	15807.98
700.60	15719.04
700.73	16095.86
700.87	15548.18
701.00	15473.28
701.13	15470.94
701.26	15871.17
701.40	15360.94
701.53	14925.60
701.66	15321.15
701.79	14778.14
701.93	14937.30
702.06	14981.77
702.19	14506.64
702.32	14834.32
702.46	14448.13
702.59	14724.31
702.72	14930.28
702.85	14984.11
702.99	14909.21
703.12	14597.92
703.25	14640.05
703.38	14141.52
703.51	14270.25
703.65	14686.86
703.78	14293.65
703.91	14085.34
704.04	13923.85
704.17	14033.85
704.31	13839.59
704.44	13965.98
704.57	13708.52
704.70	13549.36
704.83	13497.87
704.96	13827.88
705.10	13834.91
705.23	13502.55
>>>>>End Processed Spectral Data<<<<<
