SpectraSuite Data File
++++++++++++++++++++++++++++++++++++
Date: Fri Oct 25 10:44:14 EDT 2013
User: price-jones
Dark Spectrum Present: No
Reference Spectrum Present: No
Number of Sampled Component Spectra: 1
Spectrometers: USB2+H05261
Integration Time (usec): 100000 (USB2+H05261)
Spectra Averaged: 1 (USB2+H05261)
Boxcar Smoothing: 0 (USB2+H05261)
Correct for Electrical Dark: No (USB2+H05261)
Strobe/Lamp Enabled: No (USB2+H05261)
Correct for Detector Non-linearity: No (USB2+H05261)
Correct for Stray Light: No (USB2+H05261)
Number of Pixels in Processed Spectrum: 2048
>>>>>Begin Processed Spectral Data<<<<<
365.73	102.98
365.92	102.98
366.12	102.98
366.32	16.38
366.52	0.00
366.72	114.69
366.91	0.00
367.11	4.68
367.31	39.79
367.51	16.38
367.70	0.00
367.90	28.09
368.10	16.38
368.30	11.70
368.49	18.72
368.69	140.43
368.89	159.16
369.09	0.00
369.28	0.00
369.48	0.00
369.68	53.83
369.87	145.11
370.07	138.09
370.27	163.84
370.47	245.76
370.66	355.76
370.86	418.96
371.06	465.77
371.25	425.98
371.45	397.89
371.65	425.98
371.84	437.68
372.04	437.68
372.24	505.56
372.44	470.45
372.63	507.90
372.83	498.53
373.03	477.47
373.22	468.11
373.42	482.15
373.62	475.13
373.81	491.51
374.01	535.98
374.21	543.00
374.40	470.45
374.60	667.05
374.79	559.39
374.99	559.39
375.19	641.31
375.38	571.09
375.58	613.22
375.78	622.58
375.97	667.05
376.17	734.93
376.37	606.20
376.56	599.18
376.76	585.13
376.95	636.63
377.15	627.26
377.35	657.69
377.54	629.60
377.74	596.84
377.93	711.52
378.13	645.99
378.33	620.24
378.52	671.73
378.72	643.65
378.91	664.71
379.11	631.94
379.31	610.88
379.50	671.73
379.70	753.65
379.89	709.18
380.09	636.63
380.28	641.31
380.48	657.69
380.68	741.95
380.87	690.46
381.07	758.33
381.26	720.88
381.46	695.14
381.65	751.31
381.85	702.16
382.04	734.93
382.24	734.93
382.43	779.40
382.63	741.95
382.83	664.71
383.02	842.59
383.22	690.46
383.41	669.39
383.61	681.10
383.80	809.83
384.00	840.25
384.19	760.67
384.39	819.19
384.58	828.55
384.78	835.57
384.97	837.91
385.17	812.17
385.36	784.08
385.56	723.23
385.75	823.87
385.95	784.08
386.14	905.79
386.34	882.38
386.53	826.21
386.72	795.78
386.92	936.21
387.11	851.96
387.31	898.77
387.50	851.96
387.70	882.38
387.89	910.47
388.09	1022.81
388.28	966.64
388.48	926.85
388.67	926.85
388.86	947.92
389.06	931.53
389.25	1006.43
389.45	933.87
389.64	931.53
389.84	1027.50
390.03	961.96
390.22	999.41
390.42	891.74
390.61	978.34
390.81	1011.11
391.00	1125.80
391.19	1067.28
391.39	978.34
391.58	1071.97
391.78	1057.92
391.97	1048.56
392.16	973.66
392.36	1043.88
392.55	973.66
392.75	961.96
392.94	926.85
393.13	1034.52
393.33	999.41
393.52	994.73
393.71	1034.52
393.91	1109.41
394.10	1088.35
394.29	1165.59
394.49	1097.71
394.68	1172.61
394.88	1125.80
395.07	1231.12
395.26	1219.42
395.46	1205.38
395.65	1249.85
395.84	1228.78
396.04	1224.10
396.23	1156.22
396.42	1179.63
396.62	1322.40
396.81	1235.80
397.00	1249.85
397.19	1275.59
397.39	1329.42
397.58	1394.96
397.77	1364.53
397.97	1394.96
398.16	1394.96
398.35	1488.58
398.55	1446.45
398.74	1437.09
398.93	1519.01
399.12	1570.50
399.32	1430.07
399.51	1516.67
399.70	1617.31
399.90	1572.84
400.09	1563.48
400.28	1624.33
400.47	1584.54
400.67	1591.56
400.86	1624.33
401.05	1687.53
401.24	1687.53
401.44	1753.06
401.63	1720.29
401.82	1633.69
402.01	1593.90
402.21	1799.87
402.40	1703.91
402.59	1671.14
402.78	1701.57
402.97	1750.72
403.17	1811.57
403.36	1783.49
403.55	1863.07
403.74	1909.88
403.93	1802.21
404.13	1825.62
404.32	1834.98
404.51	1830.30
404.70	1842.00
404.89	1863.07
405.09	1952.01
405.28	1961.37
405.47	1902.86
405.66	1916.90
405.85	1954.35
406.05	1905.20
406.24	1963.71
406.43	1987.11
406.62	2054.99
406.81	2146.27
407.00	1998.82
407.20	1989.46
407.39	2139.25
407.58	2207.13
407.77	2223.51
407.96	2284.36
408.15	2249.25
408.34	2249.25
408.54	2270.32
408.73	2204.78
408.92	2214.15
409.11	2263.30
409.30	2296.07
409.49	2265.64
409.68	2190.74
409.87	2263.30
410.07	2403.73
410.26	2392.03
410.45	2392.03
410.64	2289.04
410.83	2464.58
411.02	2476.29
411.21	2478.63
411.40	2597.99
411.59	2628.42
411.78	2609.70
411.98	2616.72
412.17	2609.70
412.36	2609.70
412.55	2747.79
412.74	2703.32
412.93	2642.46
413.12	2675.23
413.31	2862.48
413.50	2703.32
413.69	2839.07
413.88	2881.20
414.07	2829.71
414.26	2932.69
414.45	2874.18
414.64	2897.58
414.83	2967.80
415.02	2986.52
415.22	3098.87
415.41	3126.96
415.60	3222.92
415.79	3138.66
415.98	3112.91
416.17	3213.56
416.36	3248.66
416.55	3346.97
416.74	3288.45
416.93	3166.74
417.12	3410.16
417.31	3377.39
417.50	3332.92
417.69	3492.08
417.88	3419.52
418.07	3492.08
418.26	3361.01
418.45	3447.61
418.64	3583.36
418.83	3602.08
419.02	3644.21
419.21	3543.57
419.39	3585.70
419.58	3487.40
419.77	3611.45
419.96	3522.51
420.15	3721.45
420.34	3747.20
420.53	3700.39
420.72	3801.03
420.91	3641.87
421.10	3815.07
421.29	3777.62
421.48	3709.75
421.67	3929.76
421.86	3681.66
422.05	3782.31
422.24	3772.94
422.43	3836.14
422.61	3735.50
422.80	3887.63
422.99	3962.53
423.18	3803.37
423.37	3985.93
423.56	3829.12
423.75	4002.32
423.94	3878.27
424.13	3782.31
424.32	3901.67
424.50	3908.69
424.69	4060.83
424.88	4032.74
425.07	3779.97
425.26	3875.93
425.45	3936.78
425.64	3861.88
425.83	3953.16
426.01	4105.30
426.20	3981.25
426.39	3983.59
426.58	4009.34
426.77	3864.22
426.96	3974.23
427.15	3990.61
427.33	4009.34
427.52	4030.40
427.71	4109.98
427.90	4156.79
428.09	4241.05
428.28	4138.07
428.46	4037.42
428.65	4189.56
428.84	4231.69
429.03	4416.59
429.22	4086.58
429.40	4105.30
429.59	4201.26
429.78	3904.01
429.97	3901.67
430.16	3971.89
430.34	4077.21
430.53	4002.32
430.72	4093.60
430.91	4212.96
431.10	4177.86
431.28	4393.19
431.47	4688.09
431.66	4676.39
431.85	4557.02
432.03	4702.14
432.22	4786.40
432.41	4606.17
432.60	4648.30
432.79	4709.16
432.97	4751.29
433.16	4760.65
433.35	4545.32
433.54	4652.98
433.72	4660.01
433.91	4620.22
434.10	4606.17
434.28	4826.18
434.47	4800.44
434.66	4851.93
434.85	4856.61
435.03	4770.01
435.22	4931.51
435.41	4964.28
435.59	4994.70
435.78	5076.62
435.97	5128.11
436.16	4975.98
436.34	4980.66
436.53	5093.01
436.72	5238.12
436.90	5118.75
437.09	5177.26
437.28	5001.72
437.46	5078.96
437.65	5179.61
437.84	5247.48
438.02	5071.94
438.21	5153.86
438.40	5345.78
438.58	5387.91
438.77	5469.83
438.96	5252.16
439.14	5638.35
439.33	5591.54
439.52	5537.71
439.70	5664.10
439.89	5563.45
440.08	5760.06
440.26	5657.07
440.45	5589.20
440.63	5975.39
440.82	5980.07
441.01	6022.20
441.19	6087.73
441.38	6113.48
441.57	6047.94
441.75	6106.46
441.94	6134.54
442.12	6314.77
442.31	6267.95
442.50	6209.44
442.68	6342.85
442.87	6054.97
443.05	6352.21
443.24	6396.68
443.43	6424.77
443.61	6434.13
443.80	6661.16
443.98	6448.18
444.17	6321.79
444.35	6464.56
444.54	6635.42
444.73	6473.92
444.91	6345.19
445.10	6445.84
445.28	6427.11
445.47	6258.59
445.65	6270.30
445.84	6380.30
446.02	6677.55
446.21	6700.95
446.39	6700.95
446.58	6707.98
446.77	6682.23
446.95	6520.73
447.14	6633.08
447.32	6707.98
447.51	6754.79
447.69	6602.65
447.88	6644.78
448.06	6719.68
448.25	6703.29
448.43	6839.05
448.62	6581.59
448.80	6684.57
448.99	6829.68
449.17	6707.98
449.36	6750.10
449.54	7023.95
449.73	7059.06
449.91	7082.46
450.10	7232.26
450.28	7255.66
450.46	7089.48
450.65	7321.20
450.83	7360.98
451.02	7133.95
451.20	7084.80
451.39	7269.70
451.57	7307.15
451.76	7070.76
451.94	7276.73
452.13	7403.11
452.31	7073.10
452.49	7077.78
452.68	7185.44
452.86	7119.91
453.05	7185.44
453.23	7234.60
453.42	7194.81
453.60	7407.80
453.78	7239.28
453.97	7248.64
454.15	7346.94
454.34	7220.55
454.52	7578.65
454.70	7407.80
454.89	7595.04
455.07	7468.65
455.26	7494.40
455.44	7716.75
455.62	7604.40
455.81	7620.78
455.99	7838.45
456.17	7676.96
456.36	7726.11
456.54	8177.83
456.73	7864.20
456.91	8109.96
457.09	8023.36
457.28	8262.09
457.46	7833.77
457.64	8184.85
457.83	7995.27
458.01	7906.33
458.19	8217.62
458.38	7995.27
458.56	8114.64
458.74	8044.42
458.93	8283.16
459.11	8287.84
459.29	8248.05
459.48	8187.19
459.66	8168.47
459.84	8299.54
460.03	8461.04
460.21	8531.25
460.39	8432.95
460.57	8423.59
460.76	8613.17
460.94	8645.94
461.12	8716.16
461.31	8538.27
461.49	8606.15
461.67	8610.83
461.85	8767.65
462.04	8697.43
462.22	8805.10
462.40	8943.19
462.59	8779.35
462.77	8826.16
462.95	8950.21
463.13	8688.07
463.32	8690.41
463.50	8877.65
463.68	8924.46
463.86	9191.28
464.05	8987.66
464.23	8882.33
464.41	9006.38
464.59	9022.77
464.78	9247.46
464.96	8994.68
465.14	8959.57
465.32	9198.31
465.50	9207.67
465.69	9233.41
465.87	9130.43
466.05	9245.12
466.23	9053.19
466.41	9092.98
466.60	9301.29
466.78	9025.11
466.96	9036.81
467.14	9376.19
467.32	9280.22
467.51	9488.53
467.69	9254.48
467.87	9472.15
468.05	9598.54
468.23	9380.87
468.41	9221.71
468.60	9488.53
468.78	9514.28
468.96	9380.87
469.14	9664.07
469.32	9755.35
469.50	9479.17
469.69	9678.12
469.87	9727.27
470.05	9783.44
470.23	9820.89
470.41	9671.09
470.59	9830.25
470.77	9879.40
470.95	9951.96
471.14	9984.73
471.32	9886.42
471.50	10186.01
471.68	10143.88
471.86	10415.38
472.04	10413.04
472.22	10506.66
472.40	10181.33
472.58	10406.02
472.77	10406.02
472.95	10509.01
473.13	10789.87
473.31	10576.88
473.49	10682.20
473.67	10457.51
473.85	10483.26
474.03	10829.66
474.21	11030.94
474.39	11215.85
474.57	10829.66
474.75	11026.26
474.93	11527.14
475.12	11089.46
475.30	11218.19
475.48	11166.70
475.66	11283.72
475.84	11169.04
476.02	11344.58
476.20	11250.96
476.38	11410.11
476.56	11918.01
476.74	11838.43
476.92	11538.84
477.10	11932.05
477.28	12086.53
477.46	12028.01
477.64	12079.50
477.82	12360.37
478.00	12301.86
478.18	12475.06
478.36	12692.73
478.54	12503.14
478.72	12718.47
478.90	12699.75
479.08	12830.82
479.26	12999.34
479.44	12896.35
479.62	13170.19
479.80	13207.64
479.98	13385.52
480.16	13682.77
480.34	13596.17
480.52	13729.58
480.70	13621.92
480.88	13434.68
481.06	13865.33
481.24	13886.40
481.41	14324.08
481.59	14242.16
481.77	14373.23
481.95	14200.03
482.13	14359.19
482.31	14628.35
482.49	14757.08
482.67	15061.35
482.85	14850.70
483.03	15283.70
483.21	15115.18
483.39	15403.07
483.57	15419.45
483.74	15613.71
483.92	15599.67
484.10	15475.62
484.28	15920.32
484.46	16077.14
484.64	16217.57
484.82	16025.65
485.00	15929.69
485.18	16116.93
485.35	16542.91
485.53	16449.28
485.71	16369.71
485.89	16704.40
486.07	16299.49
486.25	16580.36
486.43	17015.69
486.61	17233.36
486.78	17275.49
486.96	17060.16
487.14	17664.02
487.32	17738.92
487.50	17965.95
487.68	17898.08
487.85	18583.85
488.03	18288.95
488.21	18534.70
488.39	18431.72
488.57	18539.38
488.75	18792.16
488.92	19117.50
489.10	19290.70
489.28	19426.45
489.46	19702.63
489.64	19543.47
489.81	20020.94
489.99	20116.90
490.17	20308.83
490.35	20439.90
490.53	20266.70
490.70	20318.19
490.88	20538.20
491.06	20676.29
491.24	20702.04
491.41	20741.83
491.59	20861.19
491.77	20879.92
491.95	20896.30
492.13	21095.25
492.30	21539.95
492.48	21682.72
492.66	21809.11
492.84	21809.11
493.01	22122.74
493.19	21909.75
493.37	22223.39
493.54	22361.48
493.72	22642.34
493.90	22309.99
494.08	22576.81
494.25	23073.00
494.43	23047.26
494.61	23463.87
494.79	23346.84
494.96	23515.36
495.14	23564.51
495.32	23332.80
495.49	23768.14
495.67	23981.13
495.85	24198.80
496.02	23861.76
496.20	24315.83
496.38	24173.05
496.55	24247.95
496.73	24634.14
496.91	24683.29
497.09	24844.79
497.26	25165.44
497.44	25055.43
497.62	25076.50
497.79	25350.34
497.97	25034.37
498.14	25535.24
498.32	25813.77
498.50	25706.10
498.67	25776.32
498.85	25940.16
499.03	26380.18
499.20	26127.40
499.38	26316.98
499.56	26396.56
499.73	26469.12
499.91	26221.02
500.08	26459.76
500.26	26316.98
500.44	26471.46
500.61	26478.48
500.79	26490.18
500.97	26647.00
501.14	27215.75
501.32	27154.90
501.49	26616.57
501.67	27248.52
501.84	27395.97
502.02	27103.40
502.20	27257.88
502.37	27679.18
502.55	27623.00
502.72	27885.14
502.90	28154.30
503.07	27835.99
503.25	28034.94
503.43	28006.85
503.60	28086.43
503.78	28393.04
503.95	28135.58
504.13	28549.85
504.30	28720.71
504.48	28858.81
504.65	29104.56
504.83	28933.70
505.01	28889.23
505.18	29390.11
505.36	29277.76
505.53	29350.32
505.71	29661.61
505.88	29600.76
506.06	29134.99
506.23	29649.91
506.41	29654.59
506.58	29979.92
506.76	29928.43
506.93	30181.21
507.11	30195.25
507.28	29996.31
507.46	29729.48
507.63	30050.14
507.81	29790.34
507.98	29928.43
508.16	30199.93
508.33	30803.79
508.50	30810.81
508.68	30590.80
508.85	30988.69
509.03	30768.68
509.20	30764.00
509.38	31201.68
509.55	31189.98
509.73	31290.62
509.90	31220.41
510.08	31388.92
510.25	31524.68
510.42	31449.78
510.60	31667.45
510.77	31732.98
510.95	32135.56
511.12	31564.46
511.30	32187.05
511.47	32395.35
511.64	32470.25
511.82	32362.59
511.99	32100.45
512.17	32238.54
512.34	31880.44
512.51	32655.15
512.69	32863.46
512.86	32629.41
513.04	32912.61
513.21	32357.91
513.38	32598.98
513.56	33062.41
513.73	32732.39
513.90	32945.38
514.08	32683.24
514.25	33425.19
514.43	33031.98
514.60	32762.82
514.77	33600.73
514.95	33483.70
515.12	33773.93
515.29	33872.23
515.47	34586.10
515.64	33979.90
515.81	33460.30
515.99	33773.93
516.16	34089.90
516.33	33799.68
516.51	33603.07
516.68	33270.72
516.85	33205.18
517.03	33638.18
517.20	33865.21
517.37	34244.38
517.54	34260.76
517.72	34216.29
517.89	34148.42
518.06	33954.15
518.24	34464.39
518.41	34319.28
518.58	34515.88
518.75	34405.88
518.93	34546.31
519.10	35257.83
519.27	35028.46
519.45	34899.73
519.62	35023.78
519.79	35536.35
519.96	35285.92
520.14	35227.40
520.31	35131.44
520.48	35580.82
520.65	35653.38
520.83	35744.66
521.00	36294.69
521.17	35920.20
521.34	35618.27
521.52	35892.12
521.69	35971.69
521.86	35838.28
522.03	36472.57
522.20	36439.80
522.38	36673.85
522.55	36170.64
522.72	36409.37
522.89	36774.50
523.07	36751.09
523.24	36416.40
523.41	37024.93
523.58	36741.73
523.75	37083.45
523.92	37273.03
524.10	37352.61
524.27	37184.09
524.44	37364.31
524.61	36959.40
524.78	37188.77
524.96	37841.78
525.13	37298.78
525.30	37886.25
525.47	37876.89
525.64	37553.90
525.81	37687.31
525.98	37853.48
526.16	37656.88
526.33	37432.19
526.50	37420.48
526.67	37654.54
526.84	37127.92
527.01	37701.35
527.18	37275.37
527.36	37986.89
527.53	38562.67
527.70	38401.17
527.87	37818.38
528.04	38220.95
528.21	38660.97
528.38	38621.18
528.55	38745.23
528.72	38944.17
528.89	39072.90
529.07	39037.80
529.24	38286.48
529.41	39220.36
529.58	38852.89
529.75	39203.97
529.92	38967.58
530.09	39112.69
530.26	39115.03
530.43	39508.24
530.60	39112.69
530.77	39077.58
530.94	39407.60
531.11	39063.54
531.28	39643.99
531.46	39728.25
531.63	39651.02
531.80	39014.39
531.97	39147.80
532.14	39775.06
532.31	39250.78
532.48	39868.69
532.65	39576.12
532.82	39648.68
532.99	40172.96
533.16	39709.53
533.33	40053.59
533.50	40147.21
533.67	39765.70
533.84	40034.86
534.01	39878.05
534.18	39924.86
534.35	40519.35
534.52	40236.15
534.69	40755.75
534.86	40540.42
535.03	40147.21
535.20	41045.97
535.37	40561.48
535.54	40809.58
535.71	40402.33
535.88	40931.29
536.05	40549.78
536.22	40898.52
536.38	41106.83
536.55	40655.11
536.72	40727.66
536.89	40524.04
537.06	41099.81
537.23	41116.19
537.40	40919.59
537.57	41258.96
537.74	41258.96
537.91	41083.42
538.08	41450.89
538.25	40966.40
538.42	41462.59
538.59	41258.96
538.75	40683.19
538.92	41556.21
539.09	41607.70
539.26	41415.78
539.43	41354.93
539.60	41532.81
539.77	41422.80
539.94	41390.03
540.11	41441.53
540.28	41511.74
540.44	41776.22
540.61	41645.15
540.78	41743.45
540.95	41631.11
541.12	41352.58
541.29	41813.67
541.46	41844.10
541.62	41853.46
541.79	42387.10
541.96	41621.75
542.13	42014.96
542.30	41867.50
542.47	42466.68
542.63	42127.30
542.80	42068.79
542.97	42518.17
543.14	42831.80
543.31	42698.39
543.48	42546.26
543.64	43576.09
543.81	43143.09
543.98	42834.14
544.15	42656.26
544.32	43124.37
544.48	43229.69
544.65	43098.62
544.82	42707.76
544.99	42541.58
545.16	42974.58
545.32	42679.67
545.49	42979.26
545.66	43573.75
545.83	43496.52
546.00	43196.93
546.16	43302.25
546.33	43194.59
546.50	43129.05
546.67	43255.44
546.83	42916.06
547.00	43503.54
547.17	43065.86
547.34	43297.57
547.50	43515.24
547.67	43288.21
547.84	43552.69
548.00	44058.24
548.17	43824.19
548.34	43555.03
548.51	43756.32
548.67	43976.33
548.84	44065.27
549.01	43562.05
549.18	43643.97
549.34	43456.73
549.51	44126.12
549.68	44179.95
549.84	44095.69
550.01	43988.03
550.18	43639.29
550.34	44016.11
550.51	44243.15
550.68	44170.59
550.84	43489.49
551.01	44135.48
551.18	44116.76
551.34	43985.69
551.51	44432.73
551.68	44617.63
551.84	44350.81
552.01	44039.52
552.18	44226.76
552.34	43934.20
552.51	44353.15
552.68	44121.44
552.84	44818.92
553.01	44259.53
553.18	44589.55
553.34	44744.02
553.51	44224.42
553.67	44772.11
553.84	44397.62
554.01	44811.90
554.17	45043.61
554.34	44842.32
554.51	44596.57
554.67	45062.33
554.84	45158.30
555.00	44610.61
555.17	44921.90
555.33	45148.93
555.50	44690.19
555.67	44605.93
555.83	45031.91
556.00	44722.96
556.16	44662.10
556.33	44561.46
556.50	44605.93
556.66	44713.59
556.83	44931.26
556.99	45113.83
557.16	44931.26
557.32	45109.14
557.49	45478.95
557.65	45024.89
557.82	45076.38
557.98	45532.78
558.15	45148.93
558.32	45193.40
558.48	44713.59
558.65	45022.54
558.81	44891.48
558.98	45209.79
559.14	45502.35
559.31	44989.78
559.47	45724.71
559.64	45694.28
559.80	45778.54
559.97	45139.57
560.13	45027.23
560.30	45432.14
560.46	45184.04
560.63	45652.15
560.79	45397.03
560.96	45900.25
561.12	45450.86
561.29	45315.11
561.45	45567.89
561.61	45530.44
561.78	45535.12
561.94	45029.57
562.11	45326.81
562.27	45581.93
562.44	45652.15
562.60	45560.87
562.77	45497.67
562.93	45464.91
563.10	45979.82
563.26	45158.30
563.42	45745.77
563.59	45750.45
563.75	45738.75
563.92	45425.12
564.08	45736.41
564.24	45956.42
564.41	45694.28
564.57	45893.22
564.74	45471.93
564.90	45827.69
565.07	45649.81
565.23	45872.16
565.39	45930.67
565.56	45815.99
565.72	45446.18
565.88	45507.04
566.05	45663.85
566.21	45790.24
566.38	45418.10
566.54	45991.53
566.70	45958.76
566.87	46155.36
567.03	45642.79
567.19	46286.43
567.36	45823.01
567.52	46087.49
567.68	46101.53
567.85	46230.26
568.01	46103.87
568.17	45724.71
568.34	45846.41
568.50	45956.42
568.66	45759.81
568.83	46005.57
568.99	45846.41
569.15	45694.28
569.32	45940.04
569.48	46117.92
569.64	46045.36
569.81	45933.01
569.97	45727.05
570.13	45907.27
570.30	45752.79
570.46	45780.88
570.62	45490.65
570.78	45352.56
570.95	45584.27
571.11	45998.55
571.27	45769.18
571.43	45581.93
571.60	46073.45
571.76	46068.76
571.92	46387.08
572.09	45998.55
572.25	45724.71
572.41	45694.28
572.57	46438.57
572.74	46562.62
572.90	46234.94
573.06	46164.73
573.22	46316.86
573.38	46115.58
573.55	45979.82
573.71	46319.20
573.87	45993.87
574.03	45961.10
574.20	46337.93
574.36	46148.34
574.52	45776.20
574.68	46206.86
574.84	46103.87
575.01	46174.09
575.17	46073.45
575.33	46012.59
575.49	46253.67
575.65	46094.51
575.82	46251.33
575.98	45647.47
576.14	46216.22
576.30	46160.05
576.46	46141.32
576.62	46237.28
576.79	46256.01
576.95	45867.48
577.11	46089.83
577.27	45916.63
577.43	46204.52
577.59	46106.21
577.75	46120.26
577.92	45741.09
578.08	45752.79
578.24	46096.85
578.40	46131.96
578.56	46394.10
578.72	46227.92
578.88	46483.04
579.04	46471.34
579.21	45755.13
579.37	46199.83
579.53	46232.60
579.69	45827.69
579.85	46080.47
580.01	46251.33
580.17	46087.49
580.33	46476.02
580.49	46398.78
580.65	46253.67
580.82	46174.09
580.98	45911.95
581.14	46581.34
581.30	46330.90
581.46	46108.55
581.62	46499.42
581.78	46373.03
581.94	46471.34
582.10	45991.53
582.26	45785.56
582.42	46340.27
582.58	46330.90
582.74	46185.79
582.90	46579.00
583.06	46557.94
583.22	46625.81
583.38	46204.52
583.54	46387.08
583.70	46600.07
583.86	46330.90
584.02	46223.24
584.18	46106.21
584.34	46101.53
584.50	46302.82
584.66	46335.59
584.82	46382.40
584.98	46717.09
585.14	46742.84
585.30	46321.54
585.46	46504.10
585.62	46131.96
585.78	46389.42
585.94	45942.38
586.10	46068.76
586.26	45989.19
586.42	46134.30
586.58	46681.98
586.74	46272.39
586.90	46045.36
587.06	46010.25
587.22	46340.27
587.38	46490.06
587.54	46213.88
587.70	46131.96
587.86	46759.22
588.02	46382.40
588.18	46525.17
588.34	46326.22
588.49	45738.75
588.65	45867.48
588.81	45806.62
588.97	45600.66
589.13	45937.69
589.29	45855.78
589.45	45940.04
589.61	45916.63
589.77	46637.51
589.93	46160.05
590.08	46237.28
590.24	46319.20
590.40	46590.70
590.56	46902.00
590.72	46677.30
590.88	45930.67
591.04	46258.35
591.20	46674.96
591.35	46817.74
591.51	46527.51
591.67	46426.87
591.83	46595.38
591.99	46543.89
592.15	46590.70
592.31	46443.25
592.46	46527.51
592.62	46387.08
592.78	47014.34
592.94	46990.94
593.10	46223.24
593.26	46543.89
593.41	46419.84
593.57	46433.89
593.73	46124.94
593.89	46527.51
594.05	46305.16
594.20	46651.56
594.36	46403.46
594.52	46281.75
594.68	46473.68
594.84	46092.17
594.99	46656.24
595.15	46291.12
595.31	46698.37
595.47	46499.42
595.62	46625.81
595.78	46464.32
595.94	46665.60
596.10	46408.14
596.25	46714.75
596.41	46623.47
596.57	46239.62
596.73	46845.82
596.88	46672.62
597.04	45991.53
597.20	46412.82
597.36	46344.95
597.51	46719.43
597.67	46593.04
597.83	46700.71
597.99	46490.06
598.14	46501.76
598.30	46384.74
598.46	46314.52
598.61	46197.49
598.77	46110.89
598.93	46288.77
599.09	46660.92
599.24	47217.97
599.40	46609.43
599.56	46876.25
599.71	46527.51
599.87	46560.28
600.03	46185.79
600.18	46363.67
600.34	46286.43
600.50	46532.19
600.65	46480.70
600.81	46672.62
600.97	46719.43
601.12	46710.07
601.28	46557.94
601.44	46440.91
601.59	46373.03
601.75	45752.79
601.91	46466.66
602.06	46094.51
602.22	46265.37
602.37	46047.70
602.53	46607.09
602.69	46986.25
602.84	46342.61
603.00	46237.28
603.16	46550.91
603.31	46277.07
603.47	46651.56
603.62	46431.55
603.78	46518.15
603.94	46270.05
604.09	46923.06
604.25	46443.25
604.40	46380.06
604.56	46569.64
604.71	46244.30
604.87	46611.77
605.03	46476.02
605.18	46213.88
605.34	46686.67
605.49	46143.66
605.65	46340.27
605.80	46277.07
605.96	46555.60
606.12	46780.29
606.27	46843.48
606.43	45944.72
606.58	46431.55
606.74	46181.11
606.89	46335.59
607.05	46562.62
607.20	46663.26
607.36	46520.49
607.51	46356.65
607.67	46251.33
607.82	46358.99
607.98	46115.58
608.13	46040.68
608.29	45965.78
608.44	46178.77
608.60	45485.97
608.75	45659.17
608.91	46178.77
609.06	46106.21
609.22	46157.70
609.37	45851.09
609.53	46351.97
609.68	45916.63
609.84	45635.77
609.99	46014.93
610.15	45956.42
610.30	45521.08
610.46	45986.85
610.61	45668.53
610.76	45996.21
610.92	45593.64
611.07	46138.98
611.23	46089.83
611.38	45687.26
611.54	45471.93
611.69	45815.99
611.84	45382.99
612.00	45694.28
612.15	45509.38
612.31	45806.62
612.46	45579.59
612.62	45682.58
612.77	45914.29
612.92	45666.19
613.08	45551.51
613.23	45434.48
613.39	45605.34
613.54	44889.13
613.69	45188.72
613.85	45272.98
614.00	45411.07
614.15	45703.64
614.31	45387.67
614.46	45270.64
614.62	45359.58
614.77	45441.50
614.92	45399.37
615.08	44921.90
615.23	45198.09
615.38	44957.01
615.54	44767.43
615.69	44577.84
615.84	45071.70
616.00	45043.61
616.15	44945.31
616.30	45116.17
616.46	45109.14
616.61	44678.49
616.76	45085.74
616.92	44680.83
617.07	44697.21
617.22	44435.07
617.37	44706.57
617.53	45317.45
617.68	45277.66
617.83	45144.25
617.99	45022.54
618.14	44980.42
618.29	45188.72
618.45	44961.69
618.60	44692.53
618.75	44369.54
618.90	44470.18
619.06	44678.49
619.21	44947.65
619.36	44795.51
619.51	44458.48
619.67	44247.83
619.82	44435.07
619.97	44994.46
620.12	44374.22
620.28	44285.28
620.43	44332.09
620.58	44631.68
620.73	44025.48
620.89	44526.35
621.04	44182.29
621.19	44432.73
621.34	44357.83
621.49	44189.31
621.65	44289.96
621.80	44392.94
621.95	43859.30
622.10	43908.45
622.25	43744.61
622.41	43894.41
622.56	43859.30
622.71	44542.74
622.86	44165.91
623.01	44020.80
623.16	43959.94
623.32	43978.67
623.47	43973.98
623.62	44158.89
623.77	44023.14
623.92	44259.53
624.07	43868.66
624.23	43702.48
624.38	43765.68
624.53	43232.04
624.68	43349.06
624.83	43749.29
624.98	43601.84
625.13	43208.63
625.29	43875.68
625.44	43555.03
625.59	43325.66
625.74	42981.60
625.89	42906.70
626.04	43264.80
626.19	43119.69
626.34	43517.58
626.49	43229.69
626.65	43421.62
626.80	43466.09
626.95	43112.67
627.10	43047.13
627.25	42904.36
627.40	42550.94
627.55	42979.26
627.70	42848.19
627.85	42749.88
628.00	42848.19
628.15	43288.21
628.30	42920.74
628.45	43117.35
628.60	42834.14
628.76	42946.49
628.91	43012.02
629.06	42705.41
629.21	42270.08
629.36	42534.56
629.51	42562.64
629.66	42838.83
629.81	42092.19
629.96	42792.01
630.11	42674.99
630.26	42583.71
630.41	42581.37
630.56	42567.32
630.71	42656.26
630.86	42426.89
631.01	42373.06
631.16	41977.51
631.31	42244.33
631.46	41724.73
631.61	42272.42
631.76	42075.81
631.91	41923.68
632.06	42787.33
632.21	42534.56
632.36	42464.34
632.51	42110.92
632.66	42354.33
632.81	41790.27
632.96	42403.49
633.10	41532.81
633.25	42024.32
633.40	42220.92
633.55	42171.77
633.70	41638.13
633.85	41661.54
634.00	41944.74
634.15	42071.13
634.30	41787.92
634.45	41724.73
634.60	42026.66
634.75	41930.70
634.90	41635.79
635.05	41771.54
635.19	41633.45
635.34	42099.22
635.49	41539.83
635.64	41635.79
635.79	41387.69
635.94	41521.10
636.09	41745.80
636.24	41724.73
636.39	40868.09
636.53	41427.48
636.68	41020.23
636.83	41427.48
636.98	41525.78
637.13	40924.27
637.28	41556.21
637.43	41172.36
637.57	41642.81
637.72	41008.53
637.87	41249.60
638.02	41486.00
638.17	41280.03
638.32	41216.83
638.46	40931.29
638.61	41345.56
638.76	41006.19
638.91	41153.64
639.06	40987.46
639.20	41280.03
639.35	41104.49
639.50	41179.39
639.65	41670.90
639.80	40896.18
639.94	40442.12
640.09	40652.76
640.24	40980.44
640.39	40650.42
640.54	40554.46
640.68	40687.87
640.83	40514.67
640.98	40664.47
641.13	40671.49
641.27	41076.40
641.42	40149.55
641.57	40666.81
641.72	40512.33
641.86	40519.35
642.01	39810.17
642.16	39864.00
642.31	40423.39
642.45	40378.92
642.60	40336.79
642.75	40376.58
642.90	40016.14
643.04	40439.78
643.19	40222.11
643.34	40184.66
643.48	39945.92
643.63	40250.19
643.78	39913.16
643.93	39658.04
644.07	40257.21
644.22	39955.29
644.37	39512.92
644.51	39695.49
644.66	39770.38
644.81	39721.23
644.95	39835.92
645.10	39636.97
645.25	39952.94
645.39	39803.15
645.54	39648.68
645.69	39421.64
645.83	39955.29
645.98	39847.62
646.13	39749.32
646.27	39985.71
646.42	39646.33
646.57	39318.66
646.71	39749.32
646.86	39849.96
647.00	39810.17
647.15	39571.44
647.30	39402.92
647.44	39281.21
647.59	39831.24
647.74	39709.53
647.88	39391.22
648.03	39578.46
648.17	39435.69
648.32	39304.62
648.47	39295.25
648.61	39346.75
648.76	39236.74
648.90	39395.90
649.05	39295.25
649.20	39419.30
649.34	38794.38
649.49	39136.10
649.63	39171.21
649.78	39124.40
649.92	39044.82
650.07	39126.74
650.21	38888.00
650.36	38888.00
650.51	39140.78
650.65	39131.42
650.80	39393.56
650.94	39814.85
651.09	38848.21
651.23	39124.40
651.38	38918.43
651.52	38836.51
651.67	38785.02
651.81	38829.49
651.96	38745.23
652.10	39037.80
652.25	38480.75
652.39	38759.27
652.54	38665.65
652.68	38902.04
652.83	39171.21
652.97	39243.76
653.12	39124.40
653.26	38199.88
653.41	38614.16
653.55	38143.71
653.70	38539.26
653.84	38382.45
653.99	38485.43
654.13	38223.29
654.27	38113.28
654.42	38110.94
654.56	38029.02
654.71	38333.29
654.85	38251.38
655.00	37893.27
655.14	38309.89
655.29	37778.59
655.43	37869.87
655.57	37876.89
655.72	37560.92
655.86	37516.45
656.01	37109.19
656.15	37219.20
656.30	37581.98
656.44	37757.52
656.58	37394.74
656.73	37668.58
656.87	37748.16
657.01	37319.84
657.16	37340.91
657.30	37972.85
657.45	37191.11
657.59	37446.23
657.73	37333.89
657.88	37401.76
658.02	37699.01
658.16	37858.17
658.31	37563.26
658.45	37783.27
658.60	37368.99
658.74	37266.01
658.88	37258.99
659.03	37263.67
659.17	37385.38
659.31	36875.14
659.46	37020.25
659.60	37378.36
659.74	36917.27
659.89	36968.76
660.03	37048.34
660.17	36865.78
660.32	36671.51
660.46	36975.78
660.60	36870.46
660.74	36556.83
660.89	36591.94
661.03	36229.15
661.17	36517.04
661.32	36245.54
661.46	36123.83
661.60	36589.59
661.74	36465.55
661.89	36863.44
662.03	36400.01
662.17	36449.16
662.31	36327.45
662.46	36140.21
662.60	36261.92
662.74	36446.82
662.88	36051.27
663.03	35709.55
663.17	35845.30
663.31	35672.10
663.45	36294.69
663.60	35835.94
663.74	35992.76
663.88	35658.06
664.02	35868.71
664.17	35501.25
664.31	35402.94
664.45	35278.89
664.59	35522.31
664.73	35220.38
664.88	35103.35
665.02	35227.40
665.16	35002.71
665.30	35061.22
665.44	35297.62
665.59	35152.51
665.73	35168.89
665.87	34731.21
666.01	34857.60
666.15	35152.51
666.29	35023.78
666.44	34721.85
666.58	34852.92
666.72	34705.46
666.86	34735.89
667.00	34464.39
667.14	34246.72
667.28	33879.25
667.43	34003.30
667.57	34405.88
667.71	34494.82
667.85	34272.46
667.99	34721.85
668.13	34398.85
668.27	34330.98
668.41	34672.70
668.56	33883.94
668.70	34239.70
668.84	33860.53
668.98	33516.47
669.12	33579.67
669.26	33638.18
669.40	33301.14
669.54	33565.62
669.68	33663.93
669.82	33303.48
669.96	33401.79
670.10	33277.74
670.25	33799.68
670.39	33291.78
670.53	33006.23
670.67	33083.47
670.81	33434.55
670.95	33273.06
671.09	32669.20
671.23	32905.59
671.37	32828.35
671.51	32545.15
671.65	33041.34
671.79	32311.10
671.93	32467.91
672.07	32666.86
672.21	32666.86
672.35	32554.51
672.49	32510.04
672.63	32517.06
672.77	32229.18
672.91	32060.66
673.05	31934.27
673.19	31775.11
673.33	32112.15
673.47	31917.89
673.61	31981.08
673.75	31779.79
673.89	31660.43
674.03	31344.45
674.17	31299.98
674.31	31508.29
674.45	31519.99
674.59	31463.82
674.73	31651.06
674.87	31243.81
675.01	31199.34
675.15	31079.97
675.29	31335.09
675.43	30829.54
675.56	30937.20
675.70	30972.31
675.84	30696.13
675.98	30118.01
676.12	30525.27
676.26	30979.33
676.40	30593.14
676.54	30260.79
676.68	30558.03
676.82	30022.05
676.96	30522.93
677.10	29954.18
677.23	30071.20
677.37	29759.91
677.51	29223.93
677.65	29399.47
677.79	29476.71
677.93	29713.10
678.07	29116.26
678.21	29198.18
678.34	28786.25
678.48	28929.02
678.62	28907.96
678.76	29064.77
678.90	28811.99
679.04	28683.27
679.18	28467.94
679.31	28411.76
679.45	28287.71
679.59	28173.03
679.73	28570.92
679.87	27782.16
680.00	28013.87
680.14	28091.11
680.28	27683.86
680.42	27770.46
680.56	28006.85
680.70	27646.41
680.83	27747.05
680.97	27644.07
681.11	27302.35
681.25	27150.21
681.39	27435.76
681.52	27264.90
681.66	27077.66
681.80	27424.06
681.94	26775.73
682.07	27232.13
682.21	26483.16
682.35	26401.24
682.49	26567.42
682.62	26560.40
682.76	26314.64
682.90	26434.01
683.04	26221.02
683.17	26331.03
683.31	26223.36
683.45	25916.75
683.59	25891.01
683.72	25748.23
683.86	25635.89
684.00	25708.44
684.13	25502.48
684.27	25532.90
684.41	25296.51
684.55	25167.78
684.68	25467.37
684.82	25348.00
684.96	25296.51
685.09	25238.00
685.23	24933.73
685.37	25041.39
685.50	24882.24
685.64	24521.79
685.78	24666.91
685.91	24290.08
686.05	24484.34
686.19	24058.37
686.32	24046.66
686.46	23831.33
686.60	23667.50
686.73	23566.85
686.87	23440.47
687.01	23365.57
687.14	23494.30
687.28	23381.95
687.42	23396.00
687.55	22902.14
687.69	23250.88
687.82	22998.10
687.96	23611.32
688.10	23190.03
688.23	22520.63
688.37	22401.27
688.50	22642.34
688.64	22731.28
688.78	22452.76
688.91	22588.51
689.05	22640.00
689.18	22431.69
689.32	21717.83
689.46	21865.28
689.59	22375.52
689.73	22412.97
689.86	22160.19
690.00	21940.18
690.13	22087.64
690.27	21743.58
690.41	21427.60
690.54	21469.73
690.68	21446.33
690.81	21177.17
690.95	21479.10
691.08	21179.51
691.22	21247.38
691.35	21214.62
691.49	21120.99
691.62	21188.87
691.76	20816.72
691.89	20978.22
692.03	21102.27
692.16	20568.63
692.30	20570.97
692.43	20416.49
692.57	20407.13
692.70	20460.96
692.84	20168.40
692.97	19957.75
693.11	20020.94
693.24	19969.45
693.38	19662.84
693.51	19887.53
693.65	19974.13
693.78	19873.49
693.92	19499.00
694.05	19601.99
694.19	19503.68
694.32	19281.33
694.45	19138.56
694.59	19103.45
694.72	19199.41
694.86	19068.34
694.99	19073.03
695.13	19033.24
695.26	18581.51
695.39	18668.11
695.53	18649.39
695.66	19070.68
695.80	18574.49
695.93	18752.37
696.07	18221.07
696.20	18033.83
696.33	18125.11
696.47	18218.73
696.60	18190.64
696.73	17874.67
696.87	18043.19
697.00	17991.70
697.14	18122.77
697.27	17462.74
697.40	17846.58
697.54	17413.59
697.67	17589.13
697.80	17085.91
697.94	17263.79
698.07	17067.19
698.21	17104.64
698.34	17083.57
698.47	17081.23
698.61	16753.55
698.74	16802.71
698.87	16868.24
699.01	16716.11
699.14	16500.78
699.27	16531.20
699.40	16437.58
699.54	16292.47
699.67	16362.69
699.80	16355.66
699.94	16187.14
700.07	16255.02
700.20	15981.18
700.34	15981.18
700.47	15887.56
700.60	16065.44
700.73	16198.85
700.87	15712.02
701.00	15782.23
701.13	15817.34
701.26	15564.56
701.40	15452.22
701.53	15239.23
701.66	15597.33
701.79	15176.03
701.93	15274.34
702.06	14944.32
702.19	15180.71
702.32	14738.35
702.46	14993.47
702.59	14867.08
702.72	14864.74
702.85	15016.88
702.99	14820.27
703.12	14445.79
703.25	14389.61
703.38	14476.21
703.51	14443.45
703.65	14494.94
703.78	14019.81
703.91	14230.46
704.04	14242.16
704.17	14321.74
704.31	14183.65
704.44	14036.19
704.57	14059.60
704.70	13874.70
704.83	14134.50
704.96	13975.34
705.10	13954.27
705.23	13886.40
>>>>>End Processed Spectral Data<<<<<
