SpectraSuite Data File
++++++++++++++++++++++++++++++++++++
Date: Fri Oct 25 10:48:19 EDT 2013
User: price-jones
Dark Spectrum Present: No
Reference Spectrum Present: No
Number of Sampled Component Spectra: 1
Spectrometers: USB2+H05261
Integration Time (usec): 100000 (USB2+H05261)
Spectra Averaged: 1 (USB2+H05261)
Boxcar Smoothing: 0 (USB2+H05261)
Correct for Electrical Dark: No (USB2+H05261)
Strobe/Lamp Enabled: No (USB2+H05261)
Correct for Detector Non-linearity: No (USB2+H05261)
Correct for Stray Light: No (USB2+H05261)
Number of Pixels in Processed Spectrum: 2048
>>>>>Begin Processed Spectral Data<<<<<
365.73	107.66
365.92	107.66
366.12	107.66
366.32	37.45
366.52	7.02
366.72	102.98
366.91	56.17
367.11	49.15
367.31	74.90
367.51	9.36
367.70	0.00
367.90	81.92
368.10	44.47
368.30	51.49
368.49	35.11
368.69	95.96
368.89	88.94
369.09	63.19
369.28	100.64
369.48	39.79
369.68	117.03
369.87	131.07
370.07	81.92
370.27	161.50
370.47	262.14
370.66	407.25
370.86	402.57
371.06	475.13
371.25	507.90
371.45	442.36
371.65	493.85
371.84	449.38
372.04	543.00
372.24	500.87
372.44	503.22
372.63	498.53
372.83	547.69
373.03	603.86
373.22	540.66
373.42	533.64
373.62	554.71
373.81	568.75
374.01	596.84
374.21	559.39
374.40	550.03
374.60	573.43
374.79	638.97
374.99	627.26
375.19	615.56
375.38	641.31
375.58	624.92
375.78	725.57
375.97	645.99
376.17	634.29
376.37	641.31
376.56	676.41
376.76	643.65
376.95	596.84
377.15	734.93
377.35	629.60
377.54	690.46
377.74	641.31
377.93	720.88
378.13	636.63
378.33	674.07
378.52	690.46
378.72	655.35
378.91	678.76
379.11	695.14
379.31	648.33
379.50	720.88
379.70	655.35
379.89	709.18
380.09	767.70
380.28	683.44
380.48	706.84
380.68	786.42
380.87	765.36
381.07	720.88
381.26	688.12
381.46	739.61
381.65	610.88
381.85	793.44
382.04	688.12
382.24	725.57
382.43	774.72
382.63	770.04
382.83	758.33
383.02	725.57
383.22	772.38
383.41	795.78
383.61	688.12
383.80	823.87
384.00	809.83
384.19	812.17
384.39	791.10
384.58	866.00
384.78	760.67
384.97	896.43
385.17	812.17
385.36	734.93
385.56	844.93
385.75	856.64
385.95	863.66
386.14	915.15
386.34	847.27
386.53	889.40
386.72	887.06
386.92	912.81
387.11	870.68
387.31	943.24
387.50	847.27
387.70	894.08
387.89	896.43
388.09	964.30
388.28	945.58
388.48	877.70
388.67	1029.84
388.86	952.60
389.06	1018.13
389.25	990.05
389.45	1013.45
389.64	1018.13
389.84	1027.50
390.03	1149.20
390.22	1067.28
390.42	1008.77
390.61	1086.01
390.81	1107.07
391.00	1137.50
391.19	1114.10
391.39	1076.65
391.58	1170.27
391.78	1167.93
391.97	1151.54
392.16	1032.18
392.36	1090.69
392.55	1121.12
392.75	1125.80
392.94	1078.99
393.13	1022.81
393.33	1008.77
393.52	1156.22
393.71	1102.39
393.91	1151.54
394.10	1188.99
394.29	1207.72
394.49	1228.78
394.68	1310.70
394.88	1355.17
395.07	1221.76
395.26	1287.29
395.46	1366.87
395.65	1320.06
395.84	1261.55
396.04	1275.59
396.23	1266.23
396.42	1252.19
396.62	1310.70
396.81	1238.14
397.00	1277.93
397.19	1273.25
397.39	1282.61
397.58	1369.21
397.77	1453.47
397.97	1483.90
398.16	1413.68
398.35	1551.78
398.55	1488.58
398.74	1554.12
398.93	1720.29
399.12	1584.54
399.32	1568.16
399.51	1621.99
399.70	1575.18
399.90	1647.74
400.09	1668.80
400.28	1734.34
400.47	1720.29
400.67	1696.89
400.86	1687.53
401.05	1781.15
401.24	1877.11
401.44	1739.02
401.63	1820.94
401.82	1764.76
402.01	1743.70
402.21	1746.04
402.40	1909.88
402.59	1802.21
402.78	1799.87
402.97	1860.73
403.17	1886.47
403.36	1942.64
403.55	1975.41
403.74	1935.62
403.93	1987.11
404.13	1914.56
404.32	1935.62
404.51	1867.75
404.70	2101.80
404.89	2054.99
405.09	2176.70
405.28	2043.29
405.47	2132.23
405.66	2024.56
405.85	2085.42
406.05	2036.27
406.24	2129.89
406.43	2017.54
406.62	2127.55
406.81	2300.75
407.00	2127.55
407.20	2150.95
407.39	2134.57
407.58	2157.97
407.77	2204.78
407.96	2310.11
408.15	2307.77
408.34	2340.54
408.54	2300.75
408.73	2464.58
408.92	2279.68
409.11	2448.20
409.30	2476.29
409.49	2406.07
409.68	2443.52
409.87	2448.20
410.07	2480.97
410.26	2607.36
410.45	2476.29
410.64	2530.12
410.83	2558.21
411.02	2626.08
411.21	2670.55
411.40	2696.30
411.59	2682.25
411.78	2597.99
411.98	2771.19
412.17	2785.24
412.36	2857.79
412.55	2963.12
412.74	2860.13
412.93	2897.58
413.12	2829.71
413.31	3007.59
413.50	2892.90
413.69	2995.89
413.88	3066.10
414.07	2958.44
414.26	2991.20
414.45	3028.65
414.64	3014.61
414.83	3129.30
415.02	3098.87
415.22	3232.28
415.41	3318.88
415.60	3211.22
415.79	3314.20
415.98	3419.52
416.17	3185.47
416.36	3510.80
416.55	3393.78
416.74	3384.41
416.93	3309.52
417.12	3342.28
417.31	3405.48
417.50	3414.84
417.69	3676.98
417.88	3595.06
418.07	3595.06
418.26	3667.62
418.45	3602.08
418.64	3684.00
418.83	3667.62
419.02	3810.39
419.21	3660.60
419.39	3749.54
419.58	3742.52
419.77	3801.03
419.96	3765.92
420.15	3845.50
420.34	3983.59
420.53	4053.81
420.72	4021.04
420.91	3812.73
421.10	4056.15
421.29	4070.19
421.48	3962.53
421.67	4042.11
421.86	3983.59
422.05	3894.65
422.24	3913.38
422.43	4063.17
422.61	4065.51
422.80	4159.13
422.99	4166.15
423.18	4091.26
423.37	4250.41
423.56	4077.21
423.75	4109.98
423.94	3981.25
424.13	3801.03
424.32	3946.14
424.50	4145.09
424.69	4280.84
424.88	4299.56
425.07	4238.71
425.26	3901.67
425.45	4032.74
425.64	4042.11
425.83	4098.28
426.01	4257.43
426.20	4269.14
426.39	4198.92
426.58	4241.05
426.77	4074.87
426.96	4074.87
427.15	4091.26
427.33	4161.47
427.52	4318.29
427.71	4386.16
427.90	4222.33
428.09	4409.57
428.28	4472.76
428.46	4393.19
428.65	4430.63
428.84	4390.84
429.03	4257.43
429.22	4381.48
429.40	4475.10
429.59	4329.99
429.78	3978.91
429.97	3976.57
430.16	4152.11
430.34	4191.90
430.53	4444.68
430.72	4353.40
430.91	4432.97
431.10	4517.23
431.28	4601.49
431.47	4784.06
431.66	4987.68
431.85	4688.09
432.03	4819.16
432.22	4777.03
432.41	4954.91
432.60	4917.47
432.79	4933.85
432.97	4938.53
433.16	4980.66
433.35	4873.00
433.54	4737.24
433.72	4819.16
433.91	4802.78
434.10	4992.36
434.28	4861.29
434.47	4997.04
434.66	5160.88
434.85	5151.52
435.03	5025.13
435.22	5284.93
435.41	5212.37
435.59	5261.52
435.78	5268.55
435.97	5416.00
436.16	5284.93
436.34	5413.66
436.53	5432.38
436.72	5521.32
436.90	5320.04
437.09	5305.99
437.28	5348.12
437.46	5266.21
437.65	5526.00
437.84	5497.92
438.02	5294.29
438.21	5434.72
438.40	5448.77
438.58	5647.71
438.77	5605.58
438.96	5631.33
439.14	5774.10
439.33	5671.12
439.52	5748.36
439.70	5804.53
439.89	5757.72
440.08	5956.66
440.26	5895.81
440.45	5837.30
440.63	6080.71
440.82	6176.67
441.01	6204.76
441.19	6303.06
441.38	6415.41
441.57	6331.15
441.75	6420.09
441.94	6394.34
442.12	6410.73
442.31	6604.99
442.50	6628.40
442.68	6682.23
442.87	6574.56
443.05	6581.59
443.24	6640.10
443.43	6731.38
443.61	6780.53
443.80	6857.77
443.98	6679.89
444.17	6396.68
444.35	6864.79
444.54	7021.61
444.73	6806.28
444.91	6689.25
445.10	6700.95
445.28	6462.22
445.47	6792.23
445.65	6649.46
445.84	6949.05
446.02	6946.71
446.21	6848.41
446.39	6759.47
446.58	6867.13
446.77	6885.86
446.95	6932.67
447.14	6883.52
447.32	6911.60
447.51	7012.24
447.69	6890.54
447.88	6878.83
448.06	6953.73
448.25	7129.27
448.43	7080.12
448.62	7045.01
448.80	6888.20
448.99	7232.26
449.17	7208.85
449.36	7068.42
449.54	7304.81
449.73	7187.79
449.91	7431.20
450.10	7391.41
450.28	7550.57
450.46	7475.67
450.65	7410.14
450.83	7513.12
451.02	7440.56
451.20	7599.72
451.39	7412.48
451.57	7599.72
451.76	7424.18
451.94	7433.54
452.13	7695.68
452.31	7414.82
452.49	7604.40
452.68	7573.97
452.86	7440.56
453.05	7517.80
453.23	7784.62
453.42	7550.57
453.60	7864.20
453.78	7885.26
453.97	7578.65
454.15	7599.72
454.34	7735.47
454.52	7789.30
454.70	7819.73
454.89	7978.89
455.07	7770.58
455.26	7894.63
455.44	7896.97
455.62	7967.18
455.81	8088.89
455.99	7976.55
456.17	8243.37
456.36	7990.59
456.54	8383.80
456.73	8339.33
456.91	8367.42
457.09	8505.51
457.28	8620.19
457.46	8313.58
457.64	8428.27
457.83	8304.22
458.01	8482.10
458.19	8479.76
458.38	8559.34
458.56	8650.62
458.74	8610.83
458.93	8559.34
459.11	8695.09
459.29	8573.38
459.48	8718.50
459.66	8622.53
459.84	8872.97
460.03	8805.10
460.21	8762.97
460.39	8994.68
460.57	8739.56
460.76	9043.83
460.94	8894.04
461.12	8823.82
461.31	8870.63
461.49	8936.17
461.67	8868.29
461.85	9088.30
462.04	9153.84
462.22	9591.52
462.40	9399.59
462.59	9224.05
462.77	9219.37
462.95	9242.78
463.13	9226.39
463.32	9193.62
463.50	9357.46
463.68	9324.69
463.86	9329.38
464.05	9296.61
464.23	9329.38
464.41	9474.49
464.59	9064.89
464.78	9584.49
464.96	9446.40
465.14	9383.21
465.32	9383.21
465.50	9516.62
465.69	9717.90
465.87	9430.02
466.05	9692.16
466.23	9458.10
466.41	9628.96
466.60	9575.13
466.78	9476.83
466.96	9664.07
467.14	9542.36
467.32	9816.21
467.51	9881.74
467.69	9554.07
467.87	9659.39
468.05	9736.63
468.23	9820.89
468.41	9734.29
468.60	9806.84
468.78	9942.60
468.96	9928.55
469.14	9891.10
469.32	9937.91
469.50	9921.53
469.69	10190.69
469.87	10078.35
470.05	10274.95
470.23	10328.78
470.41	10296.02
470.59	10228.14
470.77	10450.49
470.95	10335.81
471.14	10738.38
471.32	10413.04
471.50	10602.63
471.68	10607.31
471.86	10729.02
472.04	10597.95
472.22	11037.97
472.40	10565.18
472.58	10696.25
472.77	10700.93
472.95	11138.61
473.13	11356.28
473.31	11052.01
473.49	10897.53
473.67	11218.19
473.85	11070.73
474.03	11056.69
474.21	11463.94
474.39	11384.37
474.57	11440.54
474.75	11536.50
474.93	11765.87
475.12	11775.24
475.30	11688.64
475.48	11761.19
475.66	11761.19
475.84	11566.93
476.02	11971.84
476.20	11655.87
476.38	12095.89
476.56	12358.03
476.74	12198.87
476.92	12152.06
477.10	12273.77
477.28	12383.77
477.46	12655.28
477.64	12538.25
477.82	12812.09
478.00	13270.84
478.18	12999.34
478.36	12903.37
478.54	13123.38
478.72	13144.45
478.90	13521.27
479.08	13593.83
479.26	13724.90
479.44	13507.23
479.62	13706.18
479.80	13944.91
479.98	13973.00
480.16	14078.32
480.34	14218.75
480.52	14459.83
480.70	14328.76
480.88	14120.45
481.06	14326.42
481.24	14562.81
481.41	14677.50
481.59	14834.32
481.77	15136.24
481.95	14846.02
482.13	14944.32
482.31	15374.98
482.49	15267.31
482.67	15403.07
482.85	15807.98
483.03	15791.59
483.21	15908.62
483.39	15953.09
483.57	15793.94
483.74	15999.90
483.92	16168.42
484.10	15946.07
484.28	16596.74
484.46	16945.48
484.64	16798.02
484.82	16767.60
485.00	16599.08
485.18	17149.11
485.35	16980.59
485.53	16634.19
485.71	16795.68
485.89	17121.02
486.07	16933.78
486.25	17018.04
486.43	17523.59
486.61	17694.45
486.78	17888.71
486.96	17968.29
487.14	18317.03
487.32	18469.17
487.50	18359.16
487.68	19030.90
487.85	19204.10
488.03	19105.79
488.21	19257.93
488.39	19026.21
488.57	19494.32
488.75	19309.42
488.92	19791.57
489.10	19850.08
489.28	20086.48
489.46	20210.53
489.64	20407.13
489.81	20856.51
489.99	21034.39
490.17	21111.63
490.35	20905.66
490.53	20858.85
490.70	21343.35
490.88	21298.88
491.06	21898.05
491.24	21420.58
491.41	21710.81
491.59	21881.67
491.77	21577.40
491.95	21879.33
492.13	22068.91
492.30	22218.71
492.48	22546.38
492.66	22478.50
492.84	22333.39
493.01	22850.65
493.19	22689.15
493.37	22885.76
493.54	22913.84
493.72	23501.32
493.90	23559.83
494.08	23218.11
494.25	24030.28
494.43	24053.69
494.61	24329.87
494.79	24526.47
494.96	24130.92
495.14	24257.31
495.32	24662.22
495.49	24793.29
495.67	24744.14
495.85	25167.78
496.02	25149.06
496.20	25130.33
496.38	25422.90
496.55	25647.59
496.73	26022.08
496.91	25544.61
497.09	25736.53
497.26	26111.02
497.44	26050.16
497.62	25659.29
497.79	26127.40
497.97	26272.51
498.14	26115.70
498.32	26735.94
498.50	26228.04
498.67	26857.65
498.85	27152.55
499.03	27075.32
499.20	27101.06
499.38	27201.71
499.56	27428.74
499.73	27140.85
499.91	27627.68
500.08	27861.74
500.26	27510.66
500.44	27613.64
500.61	27644.07
500.79	27468.53
500.97	27662.79
501.14	28252.61
501.32	28313.46
501.49	27967.06
501.67	28018.55
501.84	28170.69
502.02	28219.84
502.20	28650.50
502.37	28503.04
502.55	28666.88
502.72	28847.10
502.90	28952.43
503.07	28856.46
503.25	29041.37
503.43	28922.00
503.60	29303.51
503.78	29160.73
503.95	29193.50
504.13	29633.52
504.30	29970.56
504.48	29750.55
504.65	30094.61
504.83	29656.93
505.01	30312.28
505.18	30221.00
505.36	30726.55
505.53	30616.55
505.71	30874.01
505.88	30888.05
506.06	30223.34
506.23	30588.46
506.41	30422.28
506.58	30869.33
506.76	30593.14
506.93	31161.89
507.11	31033.16
507.28	31058.91
507.46	30756.98
507.63	31012.10
507.81	31063.59
507.98	30953.58
508.16	31377.22
508.33	31906.18
508.50	31945.97
508.68	32051.30
508.85	32348.54
509.03	32013.85
509.20	32165.98
509.38	32119.17
509.55	32339.18
509.73	32704.31
509.90	32730.05
510.08	32584.94
510.25	32531.11
510.42	32622.39
510.60	32762.82
510.77	33134.96
510.95	33448.60
511.12	33010.92
511.30	33315.19
511.47	33916.70
511.64	33591.37
511.82	33645.20
511.99	33071.77
512.17	33500.09
512.34	33111.56
512.51	33708.40
512.69	34033.73
512.86	34038.41
513.04	34279.49
513.21	34078.20
513.38	33895.64
513.56	33799.68
513.73	33708.40
513.90	33893.30
514.08	34204.59
514.25	34485.45
514.43	34270.12
514.60	34543.97
514.77	34574.39
514.95	34646.95
515.12	35110.38
515.29	34721.85
515.47	34871.64
515.64	35206.34
515.81	34927.81
515.99	35117.40
516.16	34698.44
516.33	34995.69
516.51	34646.95
516.68	34267.78
516.85	34258.42
517.03	34476.09
517.20	35133.78
517.37	35510.61
517.54	35615.93
517.72	35585.50
517.89	35077.61
518.06	35082.29
518.24	35323.36
518.41	35644.02
518.58	35557.42
518.75	35690.83
518.93	35742.32
519.10	36006.80
519.27	35714.23
519.45	36290.01
519.62	36521.72
519.79	36463.21
519.96	36919.61
520.14	36781.52
520.31	35962.33
520.48	36900.89
520.65	36879.82
520.83	36884.50
521.00	37287.07
521.17	36879.82
521.34	36940.68
521.52	37188.77
521.69	37413.46
521.86	37495.38
522.03	37544.53
522.20	37483.68
522.38	37724.75
522.55	37474.32
522.72	37689.65
522.89	37617.09
523.07	38082.86
523.24	37818.38
523.41	38279.46
523.58	37876.89
523.75	38377.76
523.92	38377.76
524.10	38417.55
524.27	38345.00
524.44	38520.54
524.61	38471.39
524.78	38707.78
524.96	38649.27
525.13	39056.52
525.30	39037.80
525.47	39056.52
525.64	38939.49
525.81	38789.70
525.98	38873.96
526.16	38265.42
526.33	38726.50
526.50	38705.44
526.67	38426.92
526.84	38855.23
527.01	38525.22
527.18	39037.80
527.36	39236.74
527.53	39573.78
527.70	39941.24
527.87	39791.45
528.04	39545.69
528.21	40039.54
528.38	39700.17
528.55	40385.94
528.72	39971.67
528.89	40341.47
529.07	40112.10
529.24	39871.03
529.41	40355.52
529.58	39651.02
529.75	39498.88
529.92	40297.00
530.09	40275.94
530.26	40346.15
530.43	40435.10
530.60	39955.29
530.77	40652.76
530.94	40865.75
531.11	40697.24
531.28	40886.82
531.46	40732.34
531.63	41165.34
531.80	40669.15
531.97	40725.32
532.14	40992.14
532.31	40463.18
532.48	40704.26
532.65	41001.50
532.82	40945.33
532.99	40959.38
533.16	40907.88
533.33	40648.08
533.50	41572.60
533.67	41464.93
533.84	41050.66
534.01	41174.70
534.18	41226.20
534.35	41560.89
534.52	41151.30
534.69	41715.37
534.86	41511.74
535.03	41378.33
535.20	42155.39
535.37	41909.63
535.54	42246.67
535.71	42115.60
535.88	41933.04
536.05	41717.71
536.22	41984.53
536.38	41869.84
536.55	41991.55
536.72	42075.81
536.89	41996.23
537.06	41881.55
537.23	42543.92
537.40	42370.72
537.57	42246.67
537.74	42340.29
537.91	42581.37
538.08	42216.24
538.25	42445.62
538.42	42597.75
538.59	43091.60
538.75	42373.06
538.92	42155.39
539.09	42864.57
539.26	42478.38
539.43	42548.60
539.60	42581.37
539.77	42562.64
539.94	42766.27
540.11	42080.49
540.28	42567.32
540.44	42691.37
540.61	42644.56
540.78	42838.83
540.95	42843.51
541.12	42653.92
541.29	43012.02
541.46	42948.83
541.62	43320.98
541.79	43346.72
541.96	42632.86
542.13	43210.97
542.30	43351.40
542.47	43428.64
542.63	43583.12
542.80	43416.94
542.97	43665.03
543.14	44025.48
543.31	43622.90
543.48	43838.23
543.64	44325.07
543.81	44208.04
543.98	43824.19
544.15	43608.86
544.32	44201.02
544.48	44287.62
544.65	43924.83
544.82	44247.83
544.99	43384.17
545.16	43594.82
545.32	44250.17
545.49	44418.69
545.66	44535.71
545.83	44781.47
546.00	44318.04
546.16	44271.23
546.33	43957.60
546.50	43978.67
546.67	44545.08
546.83	44233.78
547.00	44842.32
547.17	44069.95
547.34	44421.03
547.50	44687.85
547.67	44729.98
547.84	44531.03
548.00	44760.40
548.17	44907.86
548.34	44879.77
548.51	45617.04
548.67	45247.24
548.84	45120.85
549.01	45287.03
549.18	45059.99
549.34	44839.98
549.51	45490.65
549.68	44914.88
549.84	45006.16
550.01	45492.99
550.18	44837.64
550.34	45207.45
550.51	44891.48
550.68	45155.96
550.84	45055.31
551.01	45633.42
551.18	44746.36
551.34	45172.34
551.51	45268.30
551.68	45502.35
551.84	45411.07
552.01	45659.17
552.18	45635.77
552.34	45083.40
552.51	45853.44
552.68	45677.90
552.84	45949.40
553.01	46515.81
553.18	45317.45
553.34	45628.74
553.51	45752.79
553.67	45532.78
553.84	45865.14
554.01	46284.09
554.17	46157.70
554.34	46305.16
554.51	45588.95
554.67	46220.90
554.84	45867.48
555.00	45911.95
555.17	45944.72
555.33	46211.54
555.50	45724.71
555.67	45972.80
555.83	46436.23
556.00	46454.95
556.16	46691.35
556.33	46080.47
556.50	46342.61
556.66	45925.99
556.83	46050.04
556.99	46115.58
557.16	46185.79
557.32	46167.07
557.49	46635.17
557.65	45991.53
557.82	46349.63
557.98	45982.16
558.15	46066.42
558.32	46267.71
558.48	46068.76
558.65	46328.56
558.81	46225.58
558.98	46120.26
559.14	46417.50
559.31	46579.00
559.47	46408.14
559.64	46230.26
559.80	47002.64
559.97	46543.89
560.13	46309.84
560.30	46616.45
560.46	46689.01
560.63	46520.49
560.79	46883.27
560.96	46848.16
561.12	46916.04
561.29	46429.21
561.45	46586.02
561.61	46595.38
561.78	46277.07
561.94	46670.28
562.11	46752.20
562.27	46595.38
562.44	46471.34
562.60	46925.40
562.77	46972.21
562.93	47051.79
563.10	47030.72
563.26	46799.01
563.42	47007.32
563.59	46644.54
563.75	46763.90
563.92	47131.37
564.08	46948.81
564.24	47126.69
564.41	47065.83
564.57	47012.00
564.74	47114.98
564.90	47019.02
565.07	46934.76
565.23	46672.62
565.39	46731.14
565.56	47152.43
565.72	46497.08
565.88	46698.37
566.05	47079.88
566.21	46939.44
566.38	46972.21
566.54	47224.99
566.70	47318.61
566.87	47437.98
567.03	47147.75
567.19	47285.84
567.36	47395.85
567.52	46541.55
567.68	47515.22
567.85	47138.39
568.01	47077.54
568.17	46887.95
568.34	46672.62
568.50	46997.96
568.66	46698.37
568.83	47304.57
568.99	46951.15
569.15	46738.16
569.32	47075.19
569.48	47171.16
569.64	47606.50
569.81	46855.18
569.97	46829.44
570.13	47285.84
570.30	46712.41
570.46	46876.25
570.62	47000.30
570.78	46560.28
570.95	47000.30
571.11	47224.99
571.27	46848.16
571.43	46876.25
571.60	47152.43
571.76	46955.83
571.92	47136.05
572.09	47150.09
572.25	47009.66
572.41	47402.87
572.57	47136.05
572.74	47917.79
572.90	47489.47
573.06	47327.97
573.22	47054.13
573.38	47423.93
573.55	47274.14
573.71	47356.06
573.87	47192.22
574.03	47114.98
574.20	46986.25
574.36	47182.86
574.52	47447.34
574.68	47302.23
574.84	47423.93
575.01	47351.38
575.17	47021.36
575.33	47054.13
575.49	47494.15
575.65	47423.93
575.82	47503.51
575.98	47342.02
576.14	47782.04
576.30	47124.35
576.46	47084.56
576.62	47295.21
576.79	47232.01
576.95	46777.95
577.11	46857.52
577.27	47199.24
577.43	47461.38
577.59	47002.64
577.75	46850.50
577.92	46817.74
578.08	47033.07
578.24	46824.76
578.40	47070.51
578.56	47051.79
578.72	46976.89
578.88	47665.01
579.04	47569.05
579.21	47021.36
579.37	46852.84
579.53	47096.26
579.69	47000.30
579.85	46995.62
580.01	47503.51
580.17	47217.97
580.33	47721.18
580.49	47484.79
580.65	47683.73
580.82	47363.08
580.98	47079.88
581.14	47002.64
581.30	47409.89
581.46	47323.29
581.62	47416.91
581.78	47447.34
581.94	47810.12
582.10	47650.97
582.26	47817.14
582.42	47349.04
582.58	47669.69
582.74	47299.89
582.90	47536.28
583.06	47386.49
583.22	47311.59
583.38	47522.24
583.54	47606.50
583.70	47454.36
583.86	47281.16
584.02	46976.89
584.18	47681.39
584.34	47459.04
584.50	47180.52
584.66	47480.11
584.82	47407.55
584.98	47487.13
585.14	47423.93
585.30	47096.26
585.46	47374.78
585.62	46890.29
585.78	47363.08
585.94	46913.70
586.10	47342.02
586.26	46813.05
586.42	47519.90
586.58	47388.83
586.74	47590.11
586.90	47377.12
587.06	47260.10
587.22	47580.75
587.38	47182.86
587.54	47519.90
587.70	47512.88
587.86	47227.33
588.02	47318.61
588.18	47227.33
588.34	47232.01
588.49	47126.69
588.65	46642.20
588.81	46375.37
588.97	47133.71
589.13	46906.68
589.29	47037.75
589.45	47077.54
589.61	47217.97
589.77	47753.95
589.93	47140.73
590.08	47751.61
590.24	47276.48
590.40	47636.92
590.56	47657.99
590.72	47512.88
590.88	47189.88
591.04	47503.51
591.20	47983.32
591.35	47873.32
591.51	47791.40
591.67	47473.09
591.83	47278.82
591.99	47400.53
592.15	47433.30
592.31	47775.02
592.46	47463.72
592.62	47299.89
592.78	47538.62
592.94	47285.84
593.10	47379.46
593.26	47777.36
593.41	47454.36
593.57	47725.86
593.73	47625.22
593.89	47522.24
594.05	47302.23
594.20	47594.79
594.36	47725.86
594.52	47540.96
594.68	47519.90
594.84	47379.46
594.99	48051.20
595.15	47224.99
595.31	47620.54
595.47	47800.76
595.62	47861.61
595.78	47749.27
595.94	47665.01
596.10	47957.58
596.25	47653.31
596.41	47835.87
596.57	47704.80
596.73	47775.02
596.88	46986.25
597.04	47711.82
597.20	48093.33
597.36	47807.78
597.51	47763.31
597.67	47782.04
597.83	47798.42
597.99	47643.94
598.14	47805.44
598.30	47445.00
598.46	47264.78
598.61	47744.59
598.77	47334.99
598.93	47316.27
599.09	47370.10
599.24	47882.68
599.40	47435.64
599.56	47288.18
599.71	47622.88
599.87	47765.65
600.03	47590.11
600.18	47510.53
600.34	47398.19
600.50	47931.83
600.65	47562.03
600.81	47463.72
600.97	47576.07
601.12	48100.35
601.28	47896.72
601.44	47414.57
601.59	47236.69
601.75	47587.77
601.91	47489.47
602.06	47533.94
602.22	47721.18
602.37	47140.73
602.53	47646.29
602.69	48161.20
602.84	47515.22
603.00	47686.07
603.16	47672.03
603.31	47344.36
603.47	47543.30
603.62	47718.84
603.78	47388.83
603.94	47145.41
604.09	47793.74
604.25	47784.38
604.40	47487.13
604.56	47421.59
604.71	47363.08
604.87	47770.33
605.03	47482.45
605.18	47491.81
605.34	47288.18
605.49	46768.58
605.65	47735.23
605.80	47194.56
605.96	47416.91
606.12	47208.61
606.27	47430.96
606.43	47145.41
606.58	47587.77
606.74	47339.68
606.89	47627.56
607.05	47143.07
607.20	47445.00
607.36	47728.20
607.51	47555.00
607.67	47515.22
607.82	47334.99
607.98	47143.07
608.13	47164.14
608.29	46827.10
608.44	46967.53
608.60	46850.50
608.75	47187.54
608.91	46808.37
609.06	47007.32
609.22	47262.44
609.37	47030.72
609.53	47192.22
609.68	46897.31
609.84	46923.06
609.99	47100.94
610.15	46820.08
610.30	46550.91
610.46	46644.54
610.61	46848.16
610.76	46653.90
610.92	46979.23
611.07	47124.35
611.23	46597.73
611.38	46656.24
611.54	46354.31
611.69	46588.36
611.84	46358.99
612.00	46471.34
612.15	46731.14
612.31	46550.91
612.46	46370.69
612.62	46691.35
612.77	46646.88
612.92	47037.75
613.08	46745.18
613.23	46721.77
613.39	46473.68
613.54	46438.57
613.69	46438.57
613.85	46677.30
614.00	46731.14
614.15	46916.04
614.31	46660.92
614.46	46445.59
614.62	46667.94
614.77	46873.91
614.92	46052.38
615.08	46113.23
615.23	46246.65
615.38	45930.67
615.54	46260.69
615.69	46106.21
615.84	45916.63
616.00	46066.42
616.15	46087.49
616.30	46155.36
616.46	45722.37
616.61	45930.67
616.76	45769.18
616.92	45684.92
617.07	46300.48
617.22	45537.46
617.37	45525.76
617.53	46340.27
617.68	46190.47
617.83	46092.17
617.99	46012.59
618.14	45928.33
618.29	46036.00
618.45	45614.70
618.60	46122.60
618.75	45553.85
618.90	45963.44
619.06	46010.25
619.21	45698.96
619.36	45825.35
619.51	46160.05
619.67	45291.71
619.82	45977.48
619.97	45703.64
620.12	45610.02
620.28	45219.15
620.43	45088.08
620.58	45418.10
620.73	45670.87
620.89	45563.21
621.04	45184.04
621.19	45212.13
621.34	45249.58
621.49	45247.24
621.65	45331.50
621.80	45497.67
621.95	45205.11
622.10	45294.05
622.25	45460.23
622.41	44928.92
622.56	45237.87
622.71	45485.97
622.86	45006.16
623.01	45287.03
623.16	45546.82
623.32	45354.90
623.47	44994.46
623.62	44942.97
623.77	45006.16
623.92	45219.15
624.07	44762.75
624.23	44591.89
624.38	44914.88
624.53	45003.82
624.68	44971.05
624.83	44751.04
624.98	44828.28
625.13	44472.52
625.29	44449.11
625.44	44818.92
625.59	44474.86
625.74	44179.95
625.89	43997.39
626.04	44254.85
626.19	44325.07
626.34	44271.23
626.49	44467.84
626.65	44062.93
626.80	44706.57
626.95	44509.97
627.10	44296.98
627.25	44135.48
627.40	43749.29
627.55	43416.94
627.70	43372.47
627.85	43875.68
628.00	43934.20
628.15	43828.87
628.30	44123.78
628.45	44062.93
628.60	43817.17
628.76	44378.90
628.91	44060.58
629.06	43924.83
629.21	44032.50
629.36	43367.79
629.51	43543.33
629.66	43353.74
629.81	43873.34
629.96	43548.01
630.11	43658.01
630.26	43742.27
630.41	43756.32
630.56	43063.52
630.71	43604.18
630.86	43538.65
631.01	43325.66
631.16	43295.23
631.31	43292.89
631.46	43112.67
631.61	43543.33
631.76	43421.62
631.91	43414.60
632.06	43173.52
632.21	43445.02
632.36	43878.02
632.51	43384.17
632.66	43632.27
632.81	42918.40
632.96	43145.44
633.10	43042.45
633.25	42808.40
633.40	42602.43
633.55	43328.00
633.70	43398.21
633.85	42960.53
634.00	42780.31
634.15	42969.90
634.30	42871.59
634.45	42965.21
634.60	42457.32
634.75	43098.62
634.90	42572.00
635.05	42572.00
635.19	42574.34
635.34	42820.10
635.49	42632.86
635.64	42698.39
635.79	42485.40
635.94	42515.83
636.09	42609.45
636.24	42454.98
636.39	42199.86
636.53	42335.61
636.68	42405.83
636.83	42003.25
636.98	42803.72
637.13	42513.49
637.28	42249.01
637.43	42387.10
637.57	42784.99
637.72	42703.07
637.87	42560.30
638.02	42550.94
638.17	42253.69
638.32	41958.78
638.46	42040.70
638.61	42368.38
638.76	41687.28
638.91	42192.84
639.06	42131.98
639.20	42033.68
639.35	42120.28
639.50	42040.70
639.65	41963.46
639.80	42019.64
639.94	41825.37
640.09	41668.56
640.24	41935.38
640.39	41949.42
640.54	41605.36
640.68	41745.80
640.83	41804.31
640.98	41525.78
641.13	41455.57
641.27	41811.33
641.42	41333.86
641.57	41984.53
641.72	41537.49
641.86	41537.49
642.01	41097.47
642.16	41368.97
642.31	41081.08
642.45	41155.98
642.60	41071.72
642.75	40566.16
642.90	41270.67
643.04	41736.43
643.19	41490.68
643.34	41273.01
643.48	41670.90
643.63	41415.78
643.78	41064.70
643.93	40718.30
644.07	41097.47
644.22	40821.28
644.37	40786.18
644.51	41069.38
644.66	41010.87
644.81	40835.33
644.95	40704.26
645.10	41109.17
645.25	40973.42
645.39	40587.23
645.54	40760.43
645.69	40753.41
645.83	40814.26
645.98	41067.04
646.13	40886.82
646.27	41071.72
646.42	40657.45
646.57	40694.89
646.71	40662.13
646.86	40552.12
647.00	40533.40
647.15	40423.39
647.30	40612.98
647.44	40474.88
647.59	40706.60
647.74	40046.57
647.88	40531.06
648.03	40292.32
648.17	40395.31
648.32	40098.06
648.47	40308.71
648.61	40383.60
648.76	40554.46
648.90	40240.83
649.05	40416.37
649.20	39875.71
649.34	40444.46
649.49	40247.85
649.63	40229.13
649.78	40074.65
649.92	39480.16
650.07	39842.94
650.21	39557.39
650.36	40275.94
650.51	39686.12
650.65	40399.99
650.80	40601.27
650.94	40151.89
651.09	39765.70
651.23	39667.40
651.38	39409.94
651.52	39805.49
651.67	39402.92
651.81	39653.36
651.96	39267.17
652.10	39428.66
652.25	38993.32
652.39	39168.87
652.54	39920.18
652.68	39611.23
652.83	39627.61
652.97	39882.73
653.12	39510.58
653.26	39201.63
653.41	39159.50
653.55	39168.87
653.70	39150.14
653.84	39489.52
653.99	39344.41
654.13	39215.68
654.27	39370.15
654.42	39412.28
654.56	39541.01
654.71	39012.05
654.85	39742.30
655.00	38983.96
655.14	38967.58
655.29	38808.42
655.43	38700.76
655.57	38623.52
655.72	38682.03
655.86	38387.13
656.01	38628.20
656.15	38150.73
656.30	38373.08
656.44	38904.38
656.58	37984.55
656.73	38169.46
656.87	38522.88
657.01	38501.81
657.16	38162.43
657.30	38799.06
657.45	38160.09
657.59	38010.30
657.73	37979.87
657.88	38632.88
658.02	38361.38
658.16	38770.97
658.31	38555.64
658.45	38447.98
658.60	38234.99
658.74	38078.18
658.88	37937.74
659.03	37638.15
659.17	38136.69
659.31	38260.74
659.46	38300.53
659.60	37797.31
659.74	37841.78
659.89	37453.25
660.03	37865.19
660.17	38230.31
660.32	37935.40
660.46	37883.91
660.60	37816.04
660.74	37661.56
660.89	37738.80
661.03	37457.93
661.17	37553.90
661.32	36935.99
661.46	37605.39
661.60	37385.38
661.74	37322.18
661.89	37490.70
662.03	37441.55
662.17	37038.98
662.31	36964.08
662.46	37109.19
662.60	37670.92
662.74	36512.36
662.88	37050.68
663.03	36737.05
663.17	36648.11
663.31	36297.03
663.45	36861.10
663.60	36935.99
663.74	36301.71
663.88	36470.23
664.02	35995.10
664.17	36662.15
664.31	36201.07
664.45	36070.00
664.59	36545.12
664.73	36524.06
664.88	36627.04
665.02	36091.06
665.16	36212.77
665.30	36278.30
665.44	36282.98
665.59	35793.81
665.73	36126.17
665.87	35519.97
666.01	35765.73
666.15	35510.61
666.29	35508.27
666.44	35597.21
666.58	35295.28
666.72	35648.70
666.86	35985.74
667.00	35775.09
667.14	35452.09
667.28	35541.03
667.43	35260.17
667.57	35061.22
667.71	35283.58
667.85	34944.20
667.99	35241.45
668.13	35164.21
668.27	34665.67
668.41	35328.05
668.56	34745.25
668.70	35122.08
668.84	34574.39
668.98	34560.35
669.12	34738.23
669.26	34799.08
669.40	34565.03
669.54	34644.61
669.68	34550.99
669.82	34380.13
669.96	33825.42
670.10	33984.58
670.25	34106.29
670.39	34237.36
670.53	33582.01
670.67	33804.36
670.81	34033.73
670.95	33600.73
671.09	33979.90
671.23	33830.10
671.37	33834.78
671.51	33923.72
671.65	33420.51
671.79	33493.07
671.93	33879.25
672.07	33558.60
672.21	33308.16
672.35	33106.88
672.49	33198.16
672.63	33296.46
672.77	33354.97
672.91	33244.97
673.05	32947.72
673.19	33029.64
673.33	33378.38
673.47	33170.07
673.61	32596.64
673.75	32388.33
673.89	32180.03
674.03	32561.53
674.17	32240.88
674.31	32147.26
674.45	32278.33
674.59	32275.99
674.73	32041.93
674.87	32156.62
675.01	32283.01
675.15	32168.32
675.29	31903.84
675.43	31945.97
675.56	31978.74
675.70	31913.20
675.84	31779.79
675.98	31000.40
676.12	31023.80
676.26	31168.91
676.40	31241.47
676.54	30916.14
676.68	31241.47
676.82	30543.99
676.96	30895.07
677.10	30852.94
677.23	30600.16
677.37	30934.86
677.51	30522.93
677.65	30565.06
677.79	29928.43
677.93	30181.21
678.07	30125.04
678.21	29797.36
678.34	29933.11
678.48	29738.85
678.62	29462.66
678.76	29848.85
678.90	29516.50
679.04	29778.64
679.18	29649.91
679.31	29088.18
679.45	29057.75
679.59	29048.39
679.73	29244.99
679.87	28950.09
680.00	29446.28
680.14	28826.04
680.28	28907.96
680.42	28306.44
680.56	28493.68
680.70	28556.88
680.83	28264.31
680.97	28121.54
681.11	27880.46
681.25	28030.26
681.39	27990.47
681.52	27857.06
681.66	27716.62
681.80	27288.31
681.94	27576.19
682.07	27508.32
682.21	27426.40
682.35	27211.07
682.49	27129.15
682.62	27676.83
682.76	27115.11
682.90	26991.06
683.04	27281.28
683.17	26998.08
683.31	27159.58
683.45	26768.71
683.59	26551.04
683.72	26738.28
683.86	26363.79
684.00	26441.03
684.13	26492.52
684.27	26258.47
684.41	26052.50
684.55	25614.82
684.68	25727.17
684.82	25788.02
684.96	25816.11
685.09	25607.80
685.23	25462.69
685.37	25443.96
685.50	25680.36
685.64	25099.90
685.78	25315.23
685.91	25355.02
686.05	25308.21
686.19	24982.88
686.32	25139.69
686.46	24559.24
686.60	24477.32
686.73	24074.75
686.87	23791.55
687.01	23964.75
687.14	23889.85
687.28	23763.46
687.42	23913.25
687.55	23688.56
687.69	23758.78
687.82	23269.61
687.96	23789.20
688.10	23414.72
688.23	23365.57
688.37	23412.38
688.50	23126.83
688.64	23026.19
688.78	22911.50
688.91	22654.05
689.05	22691.49
689.18	22567.45
689.32	22562.76
689.46	23028.53
689.59	22953.63
689.73	22967.68
689.86	22534.68
690.00	22225.73
690.13	22604.89
690.27	22298.28
690.41	22707.88
690.54	22008.06
690.68	21825.50
690.81	21965.93
690.95	21792.73
691.08	21916.78
691.22	21441.65
691.35	21958.91
691.49	21544.63
691.62	21958.91
691.76	21591.44
691.89	21500.16
692.03	21303.56
692.16	21057.80
692.30	21399.52
692.43	21312.92
692.57	21156.10
692.70	20713.74
692.84	20889.28
692.97	20725.44
693.11	20594.37
693.24	20086.48
693.38	20100.52
693.51	20278.40
693.65	20346.28
693.78	20250.32
693.92	20144.99
694.05	20107.54
694.19	20086.48
694.32	19784.55
694.45	19761.14
694.59	19644.12
694.72	19587.94
694.86	19550.49
694.99	19131.54
695.13	19283.67
695.26	19119.84
695.39	19094.09
695.53	19084.73
695.66	19091.75
695.80	19077.71
695.93	18986.43
696.07	18820.25
696.20	19201.76
696.33	18513.64
696.47	18487.89
696.60	18721.95
696.73	18492.57
696.87	18476.19
697.00	18319.37
697.14	18225.75
697.27	18270.22
697.40	18356.82
697.54	18335.76
697.67	17869.99
697.80	17741.26
697.94	18003.40
698.07	17509.55
698.21	17582.10
698.34	17624.23
698.47	17614.87
698.61	17254.43
698.74	17167.83
698.87	17495.50
699.01	17144.42
699.14	17001.65
699.27	16779.30
699.40	17319.96
699.54	16798.02
699.67	16336.94
699.80	16442.26
699.94	16690.36
700.07	16697.38
700.20	16582.70
700.34	16240.98
700.47	16210.55
700.60	16343.96
700.73	16573.33
700.87	16500.78
701.00	16147.36
701.13	16112.25
701.26	16116.93
701.40	15807.98
701.53	15747.12
701.66	15374.98
701.79	15576.27
701.93	15559.88
702.06	15419.45
702.19	15124.54
702.32	15325.83
702.46	14972.41
702.59	15110.50
702.72	15403.07
702.85	15400.72
702.99	15307.10
703.12	15044.96
703.25	14925.60
703.38	14775.80
703.51	14874.10
703.65	14937.30
703.78	14913.89
703.91	14663.46
704.04	14544.09
704.17	14562.81
704.31	14462.17
704.44	14281.95
704.57	14324.08
704.70	14303.01
704.83	14260.88
704.96	14127.47
705.10	14101.73
705.23	13980.02
>>>>>End Processed Spectral Data<<<<<
