SpectraSuite Data File
++++++++++++++++++++++++++++++++++++
Date: Fri Oct 25 10:47:53 EDT 2013
User: price-jones
Dark Spectrum Present: No
Reference Spectrum Present: No
Number of Sampled Component Spectra: 1
Spectrometers: USB2+H05261
Integration Time (usec): 100000 (USB2+H05261)
Spectra Averaged: 1 (USB2+H05261)
Boxcar Smoothing: 0 (USB2+H05261)
Correct for Electrical Dark: No (USB2+H05261)
Strobe/Lamp Enabled: No (USB2+H05261)
Correct for Detector Non-linearity: No (USB2+H05261)
Correct for Stray Light: No (USB2+H05261)
Number of Pixels in Processed Spectrum: 2048
>>>>>Begin Processed Spectral Data<<<<<
365.73	133.41
365.92	133.41
366.12	133.41
366.32	100.64
366.52	0.00
366.72	0.00
366.91	0.00
367.11	0.00
367.31	16.38
367.51	28.09
367.70	84.26
367.90	35.11
368.10	51.49
368.30	128.73
368.49	42.13
368.69	58.51
368.89	72.56
369.09	58.51
369.28	30.43
369.48	53.83
369.68	105.32
369.87	117.03
370.07	74.90
370.27	145.11
370.47	227.03
370.66	287.89
370.86	407.25
371.06	400.23
371.25	496.19
371.45	486.83
371.65	447.04
371.84	383.85
372.04	435.34
372.24	472.79
372.44	451.72
372.63	498.53
372.83	540.66
373.03	524.28
373.22	512.58
373.42	489.17
373.62	463.43
373.81	566.41
374.01	608.54
374.21	561.73
374.40	526.62
374.60	535.98
374.79	538.32
374.99	580.45
375.19	582.79
375.38	521.94
375.58	617.90
375.78	538.32
375.97	585.13
376.17	601.52
376.37	582.79
376.56	603.86
376.76	519.60
376.95	608.54
377.15	631.94
377.35	596.84
377.54	589.82
377.74	575.77
377.93	627.26
378.13	660.03
378.33	629.60
378.52	578.11
378.72	683.44
378.91	636.63
379.11	622.58
379.31	592.16
379.50	578.11
379.70	622.58
379.89	692.80
380.09	664.71
380.28	655.35
380.48	669.39
380.68	711.52
380.87	655.35
381.07	688.12
381.26	760.67
381.46	678.76
381.65	660.03
381.85	636.63
382.04	732.59
382.24	718.54
382.43	638.97
382.63	690.46
382.83	676.41
383.02	685.78
383.22	753.65
383.41	683.44
383.61	664.71
383.80	774.72
384.00	723.23
384.19	734.93
384.39	821.53
384.58	716.20
384.78	791.10
384.97	814.51
385.17	697.48
385.36	739.61
385.56	739.61
385.75	770.04
385.95	711.52
386.14	814.51
386.34	755.99
386.53	793.44
386.72	753.65
386.92	821.53
387.11	866.00
387.31	898.77
387.50	851.96
387.70	755.99
387.89	835.57
388.09	826.21
388.28	784.08
388.48	809.83
388.67	954.94
388.86	873.02
389.06	877.70
389.25	973.66
389.45	964.30
389.64	891.74
389.84	1001.75
390.03	912.81
390.22	945.58
390.42	823.87
390.61	945.58
390.81	816.85
391.00	1015.79
391.19	1022.81
391.39	917.49
391.58	987.71
391.78	1004.09
391.97	957.28
392.16	1011.11
392.36	1032.18
392.55	1025.15
392.75	1039.20
392.94	1032.18
393.13	926.85
393.33	943.24
393.52	1015.79
393.71	985.37
393.91	1069.62
394.10	978.34
394.29	1111.75
394.49	1069.62
394.68	1055.58
394.88	1132.82
395.07	1203.04
395.26	1069.62
395.46	1100.05
395.65	1198.35
395.84	1121.12
396.04	1172.61
396.23	1093.03
396.42	1132.82
396.62	1252.19
396.81	1179.63
397.00	1170.27
397.19	1153.88
397.39	1177.29
397.58	1193.67
397.77	1207.72
397.97	1238.14
398.16	1296.66
398.35	1287.29
398.55	1181.97
398.74	1242.82
398.93	1409.00
399.12	1336.45
399.32	1380.92
399.51	1355.17
399.70	1355.17
399.90	1416.02
400.09	1385.60
400.28	1500.28
400.47	1432.41
400.67	1493.26
400.86	1409.00
401.05	1502.62
401.24	1448.79
401.44	1526.03
401.63	1511.99
401.82	1488.58
402.01	1598.59
402.21	1526.03
402.40	1511.99
402.59	1533.05
402.78	1593.90
402.97	1591.56
403.17	1582.20
403.36	1570.50
403.55	1596.25
403.74	1614.97
403.93	1610.29
404.13	1699.23
404.32	1593.90
404.51	1685.19
404.70	1671.14
404.89	1734.34
405.09	1703.91
405.28	1792.85
405.47	1778.81
405.66	1767.10
405.85	1675.82
406.05	1746.04
406.24	1846.68
406.43	1755.40
406.62	1771.79
406.81	1886.47
407.00	1774.13
407.20	1858.39
407.39	1872.43
407.58	1832.64
407.77	1980.09
407.96	1926.26
408.15	2066.69
408.34	2038.61
408.54	1996.48
408.73	1956.69
408.92	2001.16
409.11	2012.86
409.30	2017.54
409.49	2029.24
409.68	2015.20
409.87	1996.48
410.07	2136.91
410.26	2183.72
410.45	2209.47
410.64	2207.13
410.83	2204.78
411.02	2183.72
411.21	2204.78
411.40	2326.49
411.59	2326.49
411.78	2242.23
411.98	2328.83
412.17	2373.30
412.36	2375.64
412.55	2420.11
412.74	2363.94
412.93	2415.43
413.12	2331.17
413.31	2539.48
413.50	2546.50
413.69	2555.86
413.88	2698.64
414.07	2635.44
414.26	2607.36
414.45	2546.50
414.64	2754.81
414.83	2574.59
415.02	2717.36
415.22	2775.88
415.41	2708.00
415.60	2703.32
415.79	2768.85
415.98	2913.97
416.17	2951.42
416.36	2885.88
416.55	2825.03
416.74	2881.20
416.93	2960.78
417.12	2967.80
417.31	3070.78
417.50	2904.60
417.69	3103.55
417.88	2977.16
418.07	3075.46
418.26	3103.55
418.45	3026.31
418.64	3082.49
418.83	3068.44
419.02	3089.51
419.21	3112.91
419.39	3208.87
419.58	3152.70
419.77	3176.11
419.96	3178.45
420.15	3206.53
420.34	3300.16
420.53	3414.84
420.72	3396.12
420.91	3405.48
421.10	3314.20
421.29	3393.78
421.48	3349.31
421.67	3370.37
421.86	3363.35
422.05	3471.01
422.24	3508.46
422.43	3281.43
422.61	3618.47
422.80	3463.99
422.99	3435.91
423.18	3508.46
423.37	3531.87
423.56	3566.98
423.75	3417.18
423.94	3466.33
424.13	3358.67
424.32	3410.16
424.50	3506.12
424.69	3669.96
424.88	3672.30
425.07	3501.44
425.26	3557.61
425.45	3595.06
425.64	3597.40
425.83	3534.21
426.01	3522.51
426.20	3545.91
426.39	3595.06
426.58	3597.40
426.77	3522.51
426.96	3595.06
427.15	3627.83
427.33	3620.81
427.52	3784.65
427.71	3688.68
427.90	3684.00
428.09	3714.43
428.28	3772.94
428.46	3833.80
428.65	3796.35
428.84	3688.68
429.03	3747.20
429.22	3702.73
429.40	3770.60
429.59	3805.71
429.78	3618.47
429.97	3726.13
430.16	3665.28
430.34	3803.37
430.53	3950.82
430.72	3925.08
430.91	3845.50
431.10	3896.99
431.28	4119.34
431.47	4056.15
431.66	4170.83
431.85	4168.49
432.03	4142.75
432.22	4191.90
432.41	4201.26
432.60	4210.62
432.79	4168.49
432.97	4255.09
433.16	4229.35
433.35	4149.77
433.54	4234.03
433.72	4315.95
433.91	4234.03
434.10	4381.48
434.28	4432.97
434.47	4421.27
434.66	4440.00
434.85	4402.55
435.03	4482.13
435.22	4390.84
435.41	4440.00
435.59	4430.63
435.78	4484.47
435.97	4552.34
436.16	4641.28
436.34	4512.55
436.53	4631.92
436.72	4685.75
436.90	4566.39
437.09	4592.13
437.28	4601.49
437.46	4629.58
437.65	4770.01
437.84	4814.48
438.02	4627.24
438.21	4690.43
438.40	4601.49
438.58	4833.21
438.77	4767.67
438.96	4779.37
439.14	4964.28
439.33	5163.22
439.52	5123.43
439.70	4978.32
439.89	5184.29
440.08	5186.63
440.26	5294.29
440.45	5149.18
440.63	5355.15
440.82	5327.06
441.01	5408.98
441.19	5315.36
441.38	5598.56
441.57	5423.02
441.75	5507.28
441.94	5699.20
442.12	5558.77
442.31	5650.05
442.50	5600.90
442.68	5673.46
442.87	5596.22
443.05	5696.86
443.24	5727.29
443.43	5614.95
443.61	5708.57
443.80	5963.68
443.98	5692.18
444.17	5528.35
444.35	5696.86
444.54	5832.62
444.73	5858.36
444.91	5785.80
445.10	5738.99
445.28	6008.16
445.47	5689.84
445.65	5841.98
445.84	5879.43
446.02	5853.68
446.21	5884.11
446.39	5900.49
446.58	5823.25
446.77	5928.58
446.95	5736.65
447.14	6120.50
447.32	5916.87
447.51	5973.05
447.69	5907.51
447.88	5961.34
448.06	5975.39
448.25	5923.90
448.43	5933.26
448.62	5909.85
448.80	6012.84
448.99	6099.44
449.17	6092.41
449.36	5902.83
449.54	6171.99
449.73	6228.17
449.91	6452.86
450.10	6314.77
450.28	6370.94
450.46	6483.28
450.65	6480.94
450.83	6209.44
451.02	6387.32
451.20	6441.15
451.39	6494.99
451.57	6270.30
451.76	6455.20
451.94	6581.59
452.13	6626.06
452.31	6520.73
452.49	6340.51
452.68	6525.41
452.86	6621.38
453.05	6565.20
453.23	6562.86
453.42	6579.25
453.60	6319.45
453.78	6773.51
453.97	6530.09
454.15	6572.22
454.34	6595.63
454.52	6698.61
454.70	6810.96
454.89	6843.73
455.07	6799.26
455.26	6836.70
455.44	6904.58
455.62	6855.43
455.81	6920.96
455.99	6942.03
456.17	7030.97
456.36	6920.96
456.54	7122.25
456.73	7019.27
456.91	7466.31
457.09	7286.09
457.28	7314.17
457.46	7215.87
457.64	7407.80
457.83	7368.01
458.01	7194.81
458.19	7314.17
458.38	7363.33
458.56	7492.05
458.74	7421.84
458.93	7323.54
459.11	7616.10
459.29	7386.73
459.48	7379.71
459.66	7433.54
459.84	7639.51
460.03	7681.64
460.21	7616.10
460.39	7557.59
460.57	7599.72
460.76	7573.97
460.94	7754.19
461.12	7714.41
461.31	7723.77
461.49	7747.17
461.67	7798.66
461.85	7873.56
462.04	7805.69
462.22	8175.49
462.40	8039.74
462.59	7953.14
462.77	7857.18
462.95	7992.93
463.13	7763.56
463.32	7882.92
463.50	7925.05
463.68	8234.00
463.86	7882.92
464.05	8102.93
464.23	8037.40
464.41	8173.15
464.59	8119.32
464.78	8386.14
464.96	8131.02
465.14	8161.45
465.32	8407.20
465.50	8379.12
465.69	8524.23
465.87	8344.01
466.05	8400.18
466.23	8294.86
466.41	8182.51
466.60	8535.93
466.78	8224.64
466.96	8336.99
467.14	8432.95
467.32	8690.41
467.51	8547.64
467.69	8332.31
467.87	8332.31
468.05	8615.51
468.23	8430.61
468.41	8477.42
468.60	8695.09
468.78	8557.00
468.96	8568.70
469.14	8898.72
469.32	8718.50
469.50	8587.43
469.69	8788.71
469.87	8922.12
470.05	8957.23
470.23	9036.81
470.41	8922.12
470.59	8919.78
470.77	8706.79
470.95	9039.15
471.14	9083.62
471.32	9151.49
471.50	9231.07
471.68	9111.71
471.86	9296.61
472.04	9427.68
472.22	9703.86
472.40	9214.69
472.58	9423.00
472.77	9242.78
472.95	9561.09
473.13	9755.35
473.31	9792.80
473.49	9664.07
473.67	9486.19
473.85	9678.12
474.03	9781.10
474.21	9926.21
474.39	9865.36
474.57	9792.80
474.75	10040.90
474.93	10017.49
475.12	10001.11
475.30	10141.54
475.48	10218.78
475.66	10253.89
475.84	10083.03
476.02	10455.17
476.20	10059.62
476.38	10548.79
476.56	10789.87
476.74	10846.04
476.92	10820.30
477.10	10768.80
477.28	10869.45
477.46	10677.52
477.64	10864.77
477.82	11183.08
478.00	11667.57
478.18	11517.78
478.36	11412.45
478.54	11693.32
478.72	11611.40
478.90	11754.17
479.08	11683.95
479.26	12035.03
479.44	11903.96
479.62	12006.95
479.80	11962.48
479.98	12248.02
480.16	12418.88
480.34	12311.22
480.52	12503.14
480.70	12407.18
480.88	12416.54
481.06	12737.20
481.24	12697.41
481.41	12786.35
481.59	13186.58
481.77	13090.62
481.95	13123.38
482.13	13259.13
482.31	13266.16
482.49	13312.97
482.67	13717.88
482.85	13610.22
483.03	14036.19
483.21	13935.55
483.39	13940.23
483.57	13788.10
483.74	14183.65
483.92	14583.88
484.10	14099.39
484.28	14300.67
484.46	14682.18
484.64	14670.48
484.82	14401.32
485.00	14780.48
485.18	14888.15
485.35	15030.92
485.53	14956.02
485.71	14906.87
485.89	15356.25
486.07	15159.65
486.25	15555.20
486.43	15337.53
486.61	15815.00
486.78	15807.98
486.96	15908.62
487.14	16606.10
487.32	16266.72
487.50	16573.33
487.68	16608.44
487.85	16910.37
488.03	17104.64
488.21	17034.42
488.39	16844.84
488.57	17259.11
488.75	17249.75
488.92	17635.94
489.10	17659.34
489.28	17980.00
489.46	17923.82
489.64	17844.24
489.81	18473.85
489.99	18530.02
490.17	18487.89
490.35	18609.60
490.53	18523.00
490.70	18782.80
490.88	18436.40
491.06	19049.62
491.24	18979.40
491.41	19014.51
491.59	19461.55
491.77	19232.18
491.95	19454.53
492.13	19653.48
492.30	19702.63
492.48	19772.85
492.66	20460.96
492.84	20065.41
493.01	20156.69
493.19	20009.24
493.37	20697.36
493.54	20517.14
493.72	20783.96
493.90	20730.12
494.08	20762.89
494.25	21521.23
494.43	21177.17
494.61	21315.26
494.79	21586.76
494.96	21411.22
495.14	21439.31
495.32	21769.32
495.49	21886.35
495.67	21806.77
495.85	22417.65
496.02	21968.27
496.20	22419.99
496.38	22689.15
496.55	22541.70
496.73	22794.48
496.91	22597.87
497.09	22768.73
497.26	23438.12
497.44	22934.91
497.62	23222.80
497.79	23456.85
497.97	23143.22
498.14	23482.59
498.32	23857.08
498.50	23704.95
498.67	23721.33
498.85	23920.28
499.03	24318.17
499.20	24215.18
499.38	24355.61
499.56	24491.37
499.73	24290.08
499.91	24620.10
500.08	25003.94
500.26	24301.78
500.44	24762.87
500.61	24924.36
500.79	24706.70
500.97	25338.64
501.14	25043.73
501.32	24931.39
501.49	24987.56
501.67	25113.95
501.84	25572.69
502.02	25563.33
502.20	25795.04
502.37	25797.38
502.55	25940.16
502.72	26136.76
502.90	26244.43
503.07	26045.48
503.25	26211.66
503.43	25940.16
503.60	26324.01
503.78	26328.69
503.95	26375.50
504.13	26614.23
504.30	26501.89
504.48	26749.98
504.65	26717.22
504.83	27152.55
505.01	27044.89
505.18	26883.39
505.36	27623.00
505.53	27241.50
505.71	27332.78
505.88	27585.55
506.06	27564.49
506.23	27590.24
506.41	27126.81
506.58	27372.57
506.76	27456.82
506.93	27693.22
507.11	27740.03
507.28	27807.90
507.46	28081.75
507.63	28140.26
507.81	28294.74
507.98	27990.47
508.16	28205.80
508.33	27997.49
508.50	28404.74
508.68	28400.06
508.85	28889.23
509.03	28435.17
509.20	28669.22
509.38	29125.63
509.55	29336.27
509.73	29266.06
509.90	29062.43
510.08	28950.09
510.25	29170.10
510.42	29113.92
510.60	29497.77
510.77	29532.88
510.95	29621.82
511.12	29809.06
511.30	29579.69
511.47	30157.80
511.64	30183.55
511.82	29972.90
511.99	30026.73
512.17	29986.94
512.34	30122.69
512.51	30354.41
512.69	30302.92
512.86	30277.17
513.04	30588.46
513.21	30532.29
513.38	30932.52
513.56	30396.54
513.73	30342.70
513.90	30974.65
514.08	30859.96
514.25	31248.49
514.43	31094.02
514.60	31316.37
514.77	30838.90
514.95	31627.66
515.12	31393.61
515.29	31468.50
515.47	31611.28
515.64	31791.50
515.81	31299.98
515.99	31655.75
516.16	31505.95
516.33	31564.46
516.51	31831.29
516.68	31632.34
516.85	31325.73
517.03	31590.21
517.20	32194.07
517.37	32121.51
517.54	32369.61
517.72	31920.23
517.89	32311.10
518.06	32163.64
518.24	32428.12
518.41	32378.97
518.58	32601.32
518.75	32275.99
518.93	33060.07
519.10	32535.79
519.27	32910.27
519.45	33223.90
519.62	32879.85
519.79	33329.23
519.96	33338.59
520.14	33223.90
520.31	33682.65
520.48	33411.15
520.65	33357.32
520.83	33759.89
521.00	33521.15
521.17	33591.37
521.34	33762.23
521.52	33991.60
521.69	33699.03
521.86	34249.06
522.03	34007.98
522.20	34188.21
522.38	34232.68
522.55	34534.60
522.72	34396.51
522.89	34373.11
523.07	34373.11
523.24	34232.68
523.41	35028.46
523.58	34499.50
523.75	34866.96
523.92	34749.93
524.10	34902.07
524.27	34927.81
524.44	35084.63
524.61	35194.64
524.78	35232.08
524.96	35386.56
525.13	35424.01
525.30	35828.92
525.47	35594.87
525.64	35395.92
525.81	35594.87
525.98	36158.94
526.16	35115.06
526.33	35239.11
526.50	35498.91
526.67	35145.48
526.84	35571.46
527.01	35948.29
527.18	35431.03
527.36	35852.33
527.53	36032.55
527.70	36163.62
527.87	35955.31
528.04	36161.28
528.21	36348.52
528.38	36095.74
528.55	36636.41
528.72	36444.48
528.89	36547.47
529.07	36397.67
529.24	36196.38
529.41	36437.46
529.58	36313.41
529.75	36732.37
529.92	36594.28
530.09	37036.64
530.26	36809.61
530.43	36524.06
530.60	36807.26
530.77	36552.15
530.94	36968.76
531.11	37125.58
531.28	37354.95
531.46	37158.34
531.63	37256.65
531.80	37163.03
531.97	36842.37
532.14	37329.20
532.31	37261.33
532.48	37317.50
532.65	37621.77
532.82	37432.19
532.99	37481.34
533.16	37773.91
533.33	37743.48
533.50	37661.56
533.67	37979.87
533.84	37757.52
534.01	37776.25
534.18	37713.05
534.35	38213.93
534.52	37977.53
534.69	38036.05
534.86	38352.02
535.03	37902.64
535.20	38246.69
535.37	38792.04
535.54	38817.78
535.71	38136.69
535.88	38754.59
536.05	38618.84
536.22	38539.26
536.38	38906.73
536.55	38719.48
536.72	38319.25
536.89	38672.67
537.06	38787.36
537.23	38969.92
537.40	38696.08
537.57	39152.48
537.74	39316.32
537.91	39194.61
538.08	39136.10
538.25	39044.82
538.42	39108.01
538.59	39381.85
538.75	39234.40
538.92	38689.06
539.09	39145.46
539.26	39515.26
539.43	38911.41
539.60	39115.03
539.77	39374.83
539.94	39321.00
540.11	39526.97
540.28	39477.82
540.44	39571.44
540.61	39255.46
540.78	39445.05
540.95	39627.61
541.12	39402.92
541.29	39688.46
541.46	39833.58
541.62	39711.87
541.79	39821.87
541.96	39524.63
542.13	39718.89
542.30	39871.03
542.47	39845.28
542.63	39754.00
542.80	40699.58
542.97	40840.01
543.14	40463.18
543.31	40725.32
543.48	40388.28
543.64	41151.30
543.81	41071.72
543.98	41167.68
544.15	40648.08
544.32	40912.56
544.48	41340.88
544.65	40830.65
544.82	40933.63
544.99	40676.17
545.16	40917.25
545.32	40872.78
545.49	41064.70
545.66	41060.02
545.83	41050.66
546.00	41390.03
546.16	40961.72
546.33	40924.27
546.50	40605.95
546.67	41298.75
546.83	40676.17
547.00	41202.79
547.17	41399.40
547.34	40861.07
547.50	41422.80
547.67	41640.47
547.84	41844.10
548.00	41621.75
548.17	41886.23
548.34	41411.10
548.51	41820.69
548.67	41820.69
548.84	41865.16
549.01	41441.53
549.18	41378.33
549.34	41776.22
549.51	41755.16
549.68	41610.04
549.84	42043.04
550.01	41907.29
550.18	41858.14
550.34	42153.05
550.51	41996.23
550.68	42052.41
550.84	41757.50
551.01	42284.12
551.18	42007.94
551.34	41766.86
551.51	42188.16
551.68	42457.32
551.84	42302.84
552.01	42337.95
552.18	42602.43
552.34	42080.49
552.51	42529.87
552.68	42253.69
552.84	42359.02
553.01	42550.94
553.18	42227.95
553.34	42452.64
553.51	42483.06
553.67	42590.73
553.84	42824.78
554.01	42787.33
554.17	42897.34
554.34	42635.20
554.51	42976.92
554.67	43009.68
554.84	43091.60
555.00	42871.59
555.17	42473.70
555.33	43021.39
555.50	42700.73
555.67	43145.44
555.83	42684.35
556.00	43210.97
556.16	43379.49
556.33	43070.54
556.50	42841.17
556.66	43304.59
556.83	42873.93
556.99	43297.57
557.16	43353.74
557.32	43449.70
557.49	43627.59
557.65	43061.18
557.82	42951.17
557.98	43049.47
558.15	43243.74
558.32	43129.05
558.48	42965.21
558.65	43484.81
558.81	42712.44
558.98	43255.44
559.14	43646.31
559.31	43255.44
559.47	43419.28
559.64	43182.88
559.80	43613.54
559.97	43484.81
560.13	43220.33
560.30	43367.79
560.46	43613.54
560.63	43948.24
560.79	43669.72
560.96	43854.62
561.12	43597.16
561.29	43739.93
561.45	43824.19
561.61	43643.97
561.78	43723.55
561.94	43702.48
562.11	43945.90
562.27	43955.26
562.44	43992.71
562.60	43749.29
562.77	43833.55
562.93	43854.62
563.10	44285.28
563.26	43817.17
563.42	43959.94
563.59	43896.75
563.75	44140.16
563.92	44027.82
564.08	44404.64
564.24	44299.32
564.41	44882.11
564.57	44205.70
564.74	43988.03
564.90	44222.08
565.07	44273.57
565.23	43959.94
565.39	43990.37
565.56	43819.51
565.72	43618.22
565.88	43924.83
566.05	43934.20
566.21	44156.55
566.38	43517.58
566.54	43924.83
566.70	43941.22
566.87	44390.60
567.03	43814.83
567.19	44692.53
567.36	44308.68
567.52	44027.82
567.68	44690.19
567.85	43971.64
568.01	43915.47
568.17	44414.01
568.34	44233.78
568.50	44294.64
568.66	43985.69
568.83	44346.13
568.99	44013.77
569.15	44304.00
569.32	43976.33
569.48	44479.54
569.64	44563.80
569.81	44659.76
569.97	43915.47
570.13	44027.82
570.30	43847.60
570.46	43796.10
570.62	44271.23
570.78	44416.35
570.95	44123.78
571.11	44215.06
571.27	44264.21
571.43	44474.86
571.60	44765.09
571.76	44598.91
571.92	44156.55
572.09	44030.16
572.25	43978.67
572.41	44608.27
572.57	44790.83
572.74	44753.38
572.90	44676.15
573.06	44727.64
573.22	44538.05
573.38	44608.27
573.55	44224.42
573.71	44591.89
573.87	44781.47
574.03	44133.14
574.20	44315.70
574.36	44477.20
574.52	44484.22
574.68	44512.31
574.84	44737.00
575.01	44720.62
575.17	44247.83
575.33	44051.22
575.49	44278.25
575.65	45006.16
575.82	44477.20
575.98	44474.86
576.14	44708.91
576.30	44622.31
576.46	44701.89
576.62	44772.11
576.79	44325.07
576.95	44154.21
577.11	44531.03
577.27	44261.87
577.43	44348.47
577.59	44105.06
577.75	44418.69
577.92	44472.52
578.08	43995.05
578.24	44617.63
578.40	44729.98
578.56	44786.15
578.72	44596.57
578.88	44711.25
579.04	44842.32
579.21	45097.44
579.37	44762.75
579.53	44582.52
579.69	44425.71
579.85	44514.65
580.01	44678.49
580.17	44280.60
580.33	44807.22
580.49	44811.90
580.65	44615.29
580.82	44809.56
580.98	44669.12
581.14	44758.06
581.30	44451.45
581.46	44648.06
581.62	44870.41
581.78	44308.68
581.94	44760.40
582.10	44999.14
582.26	44769.77
582.42	44376.56
582.58	44603.59
582.74	44928.92
582.90	44975.73
583.06	44685.51
583.22	45249.58
583.38	45261.28
583.54	44638.70
583.70	44692.53
583.86	44917.22
584.02	44552.10
584.18	44425.71
584.34	45001.48
584.50	44713.59
584.66	44512.31
584.82	44676.15
584.98	44624.65
585.14	44804.88
585.30	44823.60
585.46	45139.57
585.62	44416.35
585.78	44493.58
585.94	44584.86
586.10	44528.69
586.26	44868.07
586.42	45287.03
586.58	45195.74
586.74	44760.40
586.90	45118.51
587.06	44512.31
587.22	45123.19
587.38	44327.41
587.54	45008.50
587.70	45382.99
587.86	44884.45
588.02	44879.77
588.18	44872.75
588.34	44304.00
588.49	44870.41
588.65	44795.51
588.81	44626.99
588.97	44641.04
589.13	44917.22
589.29	44978.07
589.45	45034.25
589.61	45144.25
589.77	45207.45
589.93	45230.85
590.08	45219.15
590.24	45275.32
590.40	45331.50
590.56	44783.81
590.72	45380.65
590.88	45083.40
591.04	45429.80
591.20	44940.63
591.35	45265.96
591.51	45340.86
591.67	44861.05
591.83	45254.26
591.99	44500.61
592.15	44870.41
592.31	44671.46
592.46	45200.43
592.62	45158.30
592.78	45144.25
592.94	45492.99
593.10	44954.67
593.26	45535.12
593.41	44966.37
593.57	45006.16
593.73	44910.20
593.89	45177.02
594.05	45076.38
594.20	44641.04
594.36	45027.23
594.52	44952.33
594.68	45008.50
594.84	45198.09
594.99	45230.85
595.15	45013.18
595.31	45165.32
595.47	45125.53
595.62	44935.95
595.78	44987.44
595.94	45195.74
596.10	45406.39
596.25	45331.50
596.41	45172.34
596.57	45216.81
596.73	45366.60
596.88	45340.86
597.04	45420.44
597.20	45031.91
597.36	45507.04
597.51	45230.85
597.67	45673.21
597.83	45448.52
597.99	45586.61
598.14	45223.83
598.30	45340.86
598.46	45081.06
598.61	45170.00
598.77	44966.37
598.93	45038.93
599.09	44968.71
599.24	45610.02
599.40	45806.62
599.56	45324.47
599.71	45476.61
599.87	45500.01
600.03	45144.25
600.18	45127.87
600.34	45024.89
600.50	45577.25
600.65	45010.84
600.81	45301.07
600.97	45390.01
601.12	45668.53
601.28	45427.46
601.44	45031.91
601.59	45502.35
601.75	45104.46
601.91	45574.91
602.06	45013.18
602.22	45251.92
602.37	44685.51
602.53	45289.37
602.69	45446.18
602.84	45291.71
603.00	44889.13
603.16	44896.16
603.31	44917.22
603.47	45221.49
603.62	45223.83
603.78	45338.52
603.94	45158.30
604.09	45464.91
604.25	45191.06
604.40	45378.31
604.56	45397.03
604.71	45200.43
604.87	45045.95
605.03	45034.25
605.18	44847.00
605.34	44669.12
605.49	44945.31
605.65	45024.89
605.80	44748.70
605.96	44975.73
606.12	45277.66
606.27	45640.45
606.43	45230.85
606.58	45212.13
606.74	44896.16
606.89	44907.86
607.05	44690.19
607.20	45069.36
607.36	45052.97
607.51	45331.50
607.67	44580.18
607.82	45109.14
607.98	44811.90
608.13	44973.39
608.29	44605.93
608.44	44706.57
608.60	44516.99
608.75	44491.24
608.91	44542.74
609.06	44760.40
609.22	44973.39
609.37	44364.85
609.53	44978.07
609.68	44629.34
609.84	45008.50
609.99	45212.13
610.15	45153.62
610.30	44734.66
610.46	44568.48
610.61	44804.88
610.76	44704.23
610.92	44498.26
611.07	44545.08
611.23	44898.50
611.38	44367.20
611.54	44563.80
611.69	44889.13
611.84	44395.28
612.00	44498.26
612.15	43934.20
612.31	44662.10
612.46	44570.82
612.62	44800.19
612.77	44383.58
612.92	44650.40
613.08	44381.24
613.23	44603.59
613.39	44547.42
613.54	44126.12
613.69	44435.07
613.85	44289.96
614.00	44472.52
614.15	44479.54
614.31	44879.77
614.46	44570.82
614.62	44282.94
614.77	44060.58
614.92	44231.44
615.08	44287.62
615.23	44156.55
615.38	44189.31
615.54	43814.83
615.69	43882.70
615.84	43711.84
616.00	43999.73
616.15	43990.37
616.30	43770.36
616.46	43889.73
616.61	43992.71
616.76	43695.46
616.92	43765.68
617.07	43632.27
617.22	43807.81
617.37	43601.84
617.53	44112.08
617.68	43908.45
617.83	43988.03
617.99	43852.28
618.14	43950.58
618.29	44081.65
618.45	43339.70
618.60	44027.82
618.75	43643.97
618.90	43840.57
619.06	43763.34
619.21	43728.23
619.36	43494.18
619.51	43810.15
619.67	43030.75
619.82	43683.76
619.97	43409.92
620.12	43346.72
620.28	43351.40
620.43	43269.48
620.58	43665.03
620.73	43246.08
620.89	43194.59
621.04	43503.54
621.19	43679.08
621.34	43344.38
621.49	42909.04
621.65	42955.85
621.80	43201.61
621.95	42890.32
622.10	43093.94
622.25	43194.59
622.41	42906.70
622.56	43196.93
622.71	43206.29
622.86	42740.52
623.01	42988.62
623.16	43360.76
623.32	42728.82
623.47	43192.25
623.62	43358.42
623.77	43143.09
623.92	42801.38
624.07	42639.88
624.23	42419.87
624.38	42799.04
624.53	42714.78
624.68	43143.09
624.83	43283.53
624.98	42693.71
625.13	42321.57
625.29	42789.67
625.44	42787.33
625.59	42497.11
625.74	42249.01
625.89	42192.84
626.04	42454.98
626.19	42354.33
626.34	42600.09
626.49	42466.68
626.65	42422.21
626.80	42562.64
626.95	42642.22
627.10	42157.73
627.25	42454.98
627.40	41755.16
627.55	41869.84
627.70	41624.09
627.85	41603.02
628.00	41750.48
628.15	42550.94
628.30	42057.09
628.45	41591.32
628.60	41961.12
628.76	42277.10
628.91	42195.18
629.06	42000.91
629.21	42038.36
629.36	41909.63
629.51	41888.57
629.66	41420.46
629.81	41401.74
629.96	41497.70
630.11	41881.55
630.26	41537.49
630.41	41645.15
630.56	41579.62
630.71	41668.56
630.86	41525.78
631.01	41324.50
631.16	41677.92
631.31	41532.81
631.46	41420.46
631.61	41240.24
631.76	41268.33
631.91	41322.16
632.06	41340.88
632.21	41546.85
632.36	41432.16
632.51	41462.59
632.66	41736.43
632.81	41057.68
632.96	40938.31
633.10	41184.07
633.25	41399.40
633.40	41277.69
633.55	41394.71
633.70	40830.65
633.85	40739.36
634.00	41476.63
634.15	41106.83
634.30	40903.20
634.45	41366.63
634.60	40610.64
634.75	40903.20
634.90	41027.25
635.05	41139.60
635.19	41209.81
635.34	41640.47
635.49	40961.72
635.64	40371.90
635.79	40790.86
635.94	40608.29
636.09	40832.99
636.24	40673.83
636.39	40612.98
636.53	40484.25
636.68	39868.69
636.83	40458.50
636.98	40734.68
637.13	40201.04
637.28	40332.11
637.43	40926.61
637.57	40847.03
637.72	41092.79
637.87	40751.07
638.02	40418.71
638.17	39995.07
638.32	40203.38
638.46	40165.93
638.61	39945.92
638.76	40112.10
638.91	40325.09
639.06	40638.72
639.20	40254.87
639.35	40552.12
639.50	40437.44
639.65	40123.80
639.80	40177.64
639.94	40287.64
640.09	39974.01
640.24	40215.08
640.39	39587.82
640.54	39983.37
640.68	40013.80
640.83	39819.53
640.98	39608.89
641.13	39873.37
641.27	40198.70
641.42	39931.88
641.57	40163.59
641.72	39594.84
641.86	39285.89
642.01	39543.35
642.16	39852.30
642.31	39203.97
642.45	39817.19
642.60	39089.29
642.75	39023.75
642.90	39384.19
643.04	39707.19
643.19	39351.43
643.34	39335.04
643.48	39379.51
643.63	39688.46
643.78	39257.81
643.93	39426.32
644.07	39026.09
644.22	39119.71
644.37	38995.67
644.51	38813.10
644.66	39487.18
644.81	39136.10
644.95	39126.74
645.10	39028.43
645.25	39391.22
645.39	39105.67
645.54	39803.15
645.69	38726.50
645.83	38583.73
645.98	38857.57
646.13	39168.87
646.27	39023.75
646.42	39129.08
646.57	38534.58
646.71	38873.96
646.86	39028.43
647.00	38824.81
647.15	38698.42
647.30	38831.83
647.44	38878.64
647.59	38639.90
647.74	38445.64
647.88	38651.61
648.03	38485.43
648.17	38410.53
648.32	38274.78
648.47	38590.75
648.61	38576.71
648.76	38815.44
648.90	38595.43
649.05	38445.64
649.20	38679.69
649.34	38787.36
649.49	38082.86
649.63	38703.10
649.78	38087.54
649.92	38431.60
650.07	38614.16
650.21	38171.80
650.36	38195.20
650.51	38286.48
650.65	38696.08
650.80	38703.10
650.94	38569.69
651.09	38103.92
651.23	38117.96
651.38	37832.42
651.52	38185.84
651.67	38422.23
651.81	38466.70
651.96	37762.20
652.10	37841.78
652.25	37741.14
652.39	37951.79
652.54	38429.26
652.68	37993.92
652.83	38040.73
652.97	38031.36
653.12	38096.90
653.26	37511.77
653.41	38029.02
653.55	37848.80
653.70	37567.94
653.84	37514.11
653.99	37811.35
654.13	37771.57
654.27	37654.54
654.42	37455.59
654.56	37373.67
654.71	37523.47
654.85	37663.90
655.00	37895.61
655.14	37535.17
655.29	37296.44
655.43	37921.36
655.57	36671.51
655.72	36678.54
655.86	36849.39
656.01	36907.91
656.15	36966.42
656.30	37099.83
656.44	36917.27
656.58	37088.13
656.73	36940.68
656.87	36589.59
657.01	36577.89
657.16	36849.39
657.30	36678.54
657.45	36327.45
657.59	37022.59
657.73	36811.95
657.88	36624.70
658.02	36617.68
658.16	36776.84
658.31	36896.20
658.45	36465.55
658.60	36706.62
658.74	36428.10
658.88	36657.47
659.03	36596.62
659.17	36423.42
659.31	36514.70
659.46	36524.06
659.60	36376.61
659.74	36023.19
659.89	36458.52
660.03	36154.26
660.17	36194.04
660.32	36201.07
660.46	36488.95
660.60	36290.01
660.74	36671.51
660.89	36002.12
661.03	35917.86
661.17	36107.44
661.32	35779.77
661.46	35959.99
661.60	35578.48
661.74	35751.68
661.89	35639.34
662.03	35967.01
662.17	35501.25
662.31	35424.01
662.46	36119.15
662.60	35878.07
662.74	35391.24
662.88	35522.31
663.03	35428.69
663.17	35531.67
663.31	35035.48
663.45	35072.93
663.60	35246.13
663.74	35026.12
663.88	35218.04
664.02	34925.47
664.17	35201.66
664.31	34532.26
664.45	34864.62
664.59	34930.16
664.73	34794.40
664.88	34677.38
665.02	34499.50
665.16	34923.13
665.30	35000.37
665.44	34546.31
665.59	34085.22
665.73	34089.90
665.87	34520.56
666.01	34246.72
666.15	34717.17
666.29	34092.24
666.44	34724.19
666.58	33841.81
666.72	34036.07
666.86	34309.91
667.00	34192.89
667.14	34157.78
667.28	33607.75
667.43	33626.48
667.57	33846.49
667.71	33734.14
667.85	33724.78
667.99	33670.95
668.13	33230.93
668.27	33720.10
668.41	33703.71
668.56	33027.30
668.70	33303.48
668.84	33401.79
668.98	33165.39
669.12	33401.79
669.26	33195.82
669.40	33043.68
669.54	32793.25
669.68	33312.84
669.82	33394.76
669.96	33275.40
670.10	32830.69
670.25	33069.43
670.39	32816.65
670.53	32842.40
670.67	32589.62
670.81	32797.93
670.95	32385.99
671.09	32713.67
671.23	32701.96
671.37	32807.29
671.51	32327.48
671.65	32268.97
671.79	32208.11
671.93	32018.53
672.07	32168.32
672.21	32224.50
672.35	32002.14
672.49	32041.93
672.63	31917.89
672.77	32046.62
672.91	31688.51
673.05	31779.79
673.19	31611.28
673.33	31232.11
673.47	31274.24
673.61	31555.10
673.75	30962.95
673.89	31028.48
674.03	30764.00
674.17	31393.61
674.31	31222.75
674.45	31082.31
674.59	30600.16
674.73	31395.95
674.87	31089.34
675.01	31005.08
675.15	30869.33
675.29	30654.00
675.43	30567.40
675.56	30728.89
675.70	30712.51
675.84	30017.37
675.98	29310.53
676.12	30190.57
676.26	30192.91
676.40	30071.20
676.54	30384.83
676.68	30391.86
676.82	29099.88
676.96	30022.05
677.10	29205.20
677.23	29570.33
677.37	29352.66
677.51	29661.61
677.65	29355.00
677.79	28872.85
677.93	28947.75
678.07	28987.53
678.21	29024.98
678.34	28718.37
678.48	28711.35
678.62	28713.69
678.76	28512.41
678.90	28306.44
679.04	28315.80
679.18	28432.83
679.31	27910.89
679.45	27592.58
679.59	27962.38
679.73	27711.94
679.87	27929.61
680.00	27651.09
680.14	27580.87
680.28	27456.82
680.42	27285.97
680.56	27510.66
680.70	27592.58
680.83	27410.01
680.97	27131.49
681.11	27358.52
681.25	26972.33
681.39	26944.25
681.52	27351.50
681.66	26675.09
681.80	26597.85
681.94	26689.13
682.07	26654.02
682.21	26466.78
682.35	26335.71
682.49	26316.98
682.62	26010.37
682.76	26155.49
682.90	26492.52
683.04	25956.54
683.17	25916.75
683.31	25806.75
683.45	25869.94
683.59	25781.00
683.72	25364.39
683.86	25422.90
684.00	25624.18
684.13	25565.67
684.27	25263.74
684.41	24982.88
684.55	25095.22
684.68	25135.01
684.82	24865.85
684.96	24617.75
685.09	24418.81
685.23	24800.32
685.37	24788.61
685.50	24662.22
685.64	24594.35
685.78	24669.25
685.91	24187.10
686.05	24037.30
686.19	24041.98
686.32	24088.79
686.46	24051.34
686.60	23934.32
686.73	23381.95
686.87	23552.81
687.01	23208.75
687.14	23374.93
687.28	23159.60
687.42	23150.24
687.55	23054.28
687.69	23075.34
687.82	22726.60
687.96	22757.03
688.10	22614.26
688.23	22691.49
688.37	22642.34
688.50	22459.78
688.64	22579.15
688.78	21986.99
688.91	21961.25
689.05	22136.79
689.18	21869.97
689.32	21537.61
689.46	21748.26
689.59	21774.00
689.73	22235.09
689.86	21818.47
690.00	21631.23
690.13	21872.31
690.27	21324.62
690.41	21392.50
690.54	20933.75
690.68	21352.71
690.81	21186.53
690.95	20826.09
691.08	21125.68
691.22	21025.03
691.35	21128.02
691.49	20950.14
691.62	21205.25
691.76	20814.38
691.89	20814.38
692.03	20594.37
692.16	20308.83
692.30	20292.44
692.43	20189.46
692.57	19981.15
692.70	20320.53
692.84	20404.79
692.97	19831.36
693.11	19857.10
693.24	19810.29
693.38	19529.43
693.51	19688.59
693.65	19814.98
693.78	19749.44
693.92	19709.65
694.05	19585.60
694.19	19316.44
694.32	18979.40
694.45	18991.11
694.59	19073.03
694.72	19023.87
694.86	19026.21
694.99	18471.51
695.13	18438.74
695.26	18604.92
695.39	18029.15
695.53	18881.10
695.66	18506.62
695.80	18513.64
695.93	18302.99
696.07	18181.28
696.20	18324.05
696.33	17891.06
696.47	18022.12
696.60	17916.80
696.73	17989.36
696.87	17539.97
697.00	17947.23
697.14	17893.40
697.27	17490.82
697.40	17652.32
697.54	17441.67
697.67	17193.58
697.80	17076.55
697.94	17177.19
698.07	17102.29
698.21	16896.33
698.34	16809.73
698.47	16781.64
698.61	16751.21
698.74	16514.82
698.87	16489.07
699.01	16589.72
699.14	16458.65
699.27	16369.71
699.40	16430.56
699.54	16287.79
699.67	16067.78
699.80	16240.98
699.94	16018.63
700.07	16271.40
700.20	15967.13
700.34	15756.49
700.47	16119.27
700.60	16093.52
700.73	15859.47
700.87	15641.80
701.00	15283.70
701.13	15351.57
701.26	15489.67
701.40	15346.89
701.53	15288.38
701.66	15517.75
701.79	15295.40
701.93	14876.44
702.06	14944.32
702.19	14792.19
702.32	14796.87
702.46	14960.70
702.59	14635.37
702.72	14576.86
702.85	14471.53
702.99	14630.69
703.12	14733.67
703.25	14319.40
703.38	14263.22
703.51	14574.52
703.65	14459.83
703.78	14391.95
703.91	14176.62
704.04	14148.54
704.17	14310.04
704.31	13900.44
704.44	13851.29
704.57	13778.73
704.70	13591.49
704.83	13516.59
704.96	13792.78
705.10	13804.48
705.23	13631.28
>>>>>End Processed Spectral Data<<<<<
