SpectraSuite Data File
++++++++++++++++++++++++++++++++++++
Date: Fri Oct 25 11:33:14 EDT 2013
User: price-jones
Dark Spectrum Present: No
Reference Spectrum Present: No
Number of Sampled Component Spectra: 1
Spectrometers: USB2+H05261
Integration Time (usec): 100000 (USB2+H05261)
Spectra Averaged: 1 (USB2+H05261)
Boxcar Smoothing: 0 (USB2+H05261)
Correct for Electrical Dark: No (USB2+H05261)
Strobe/Lamp Enabled: No (USB2+H05261)
Correct for Detector Non-linearity: No (USB2+H05261)
Correct for Stray Light: No (USB2+H05261)
Number of Pixels in Processed Spectrum: 2048
>>>>>Begin Processed Spectral Data<<<<<
365.73	248.10
365.92	248.10
366.12	248.10
366.32	243.42
366.52	215.33
366.72	180.22
366.91	191.92
367.11	156.82
367.31	217.67
367.51	135.75
367.70	74.90
367.90	131.07
368.10	189.58
368.30	117.03
368.49	107.66
368.69	128.73
368.89	182.56
369.09	159.16
369.28	250.44
369.48	241.08
369.68	301.93
369.87	227.03
370.07	208.31
370.27	353.42
370.47	278.52
370.66	489.17
370.86	552.37
371.06	496.19
371.25	589.82
371.45	540.66
371.65	505.56
371.84	489.17
372.04	557.05
372.24	615.56
372.44	491.51
372.63	636.63
372.83	683.44
373.03	603.86
373.22	603.86
373.42	596.84
373.62	608.54
373.81	615.56
374.01	664.71
374.21	683.44
374.40	622.58
374.60	711.52
374.79	706.84
374.99	655.35
375.19	683.44
375.38	653.01
375.58	608.54
375.78	697.48
375.97	739.61
376.17	678.76
376.37	711.52
376.56	699.82
376.76	730.25
376.95	657.69
377.15	671.73
377.35	704.50
377.54	690.46
377.74	704.50
377.93	641.31
378.13	709.18
378.33	758.33
378.52	732.59
378.72	734.93
378.91	720.88
379.11	718.54
379.31	655.35
379.50	734.93
379.70	788.76
379.89	674.07
380.09	716.20
380.28	732.59
380.48	737.27
380.68	788.76
380.87	753.65
381.07	805.14
381.26	779.40
381.46	854.30
381.65	767.70
381.85	718.54
382.04	688.12
382.24	791.10
382.43	844.93
382.63	786.42
382.83	812.17
383.02	866.00
383.22	868.34
383.41	802.80
383.61	828.55
383.80	777.06
384.00	830.89
384.19	791.10
384.39	791.10
384.58	823.87
384.78	849.61
384.97	828.55
385.17	767.70
385.36	875.36
385.56	884.72
385.75	777.06
385.95	812.17
386.14	861.32
386.34	849.61
386.53	870.68
386.72	877.70
386.92	861.32
387.11	875.36
387.31	805.14
387.50	866.00
387.70	826.21
387.89	954.94
388.09	873.02
388.28	851.96
388.48	875.36
388.67	961.96
388.86	910.47
389.06	905.79
389.25	919.83
389.45	990.05
389.64	971.32
389.84	994.73
390.03	1011.11
390.22	1013.45
390.42	1020.47
390.61	875.36
390.81	985.37
391.00	992.39
391.19	1053.24
391.39	1027.50
391.58	957.28
391.78	973.66
391.97	980.68
392.16	1015.79
392.36	1093.03
392.55	1008.77
392.75	1053.24
392.94	1102.39
393.13	1027.50
393.33	1057.92
393.52	997.07
393.71	1107.07
393.91	1104.73
394.10	1107.07
394.29	1116.44
394.49	1060.26
394.68	1083.67
394.88	1081.33
395.07	1097.71
395.26	1170.27
395.46	1184.31
395.65	1256.87
395.84	1158.57
396.04	1193.67
396.23	1207.72
396.42	1207.72
396.62	1268.57
396.81	1198.35
397.00	1221.76
397.19	1203.04
397.39	1219.42
397.58	1294.32
397.77	1228.78
397.97	1226.44
398.16	1203.04
398.35	1249.85
398.55	1275.59
398.74	1308.36
398.93	1448.79
399.12	1331.76
399.32	1280.27
399.51	1275.59
399.70	1451.13
399.90	1338.79
400.09	1364.53
400.28	1455.81
400.47	1362.19
400.67	1432.41
400.86	1458.15
401.05	1460.49
401.24	1441.77
401.44	1387.94
401.63	1514.33
401.82	1451.13
402.01	1493.26
402.21	1537.73
402.40	1462.83
402.59	1565.82
402.78	1413.68
402.97	1430.07
403.17	1556.46
403.36	1509.65
403.55	1565.82
403.74	1542.41
403.93	1629.01
404.13	1607.95
404.32	1577.52
404.51	1610.29
404.70	1619.65
404.89	1652.42
405.09	1701.57
405.28	1703.91
405.47	1652.42
405.66	1708.59
405.85	1722.63
406.05	1621.99
406.24	1739.02
406.43	1732.00
406.62	1652.42
406.81	1952.01
407.00	1825.62
407.20	1811.57
407.39	1778.81
407.58	1837.32
407.77	1818.60
407.96	1872.43
408.15	1921.58
408.34	1799.87
408.54	1989.46
408.73	1975.41
408.92	1975.41
409.11	1966.05
409.30	1970.73
409.49	1982.43
409.68	2008.18
409.87	2003.50
410.07	2036.27
410.26	2092.44
410.45	2132.23
410.64	2165.00
410.83	2083.08
411.02	2076.06
411.21	2277.34
411.40	2251.60
411.59	2249.25
411.78	2333.51
411.98	2186.06
412.17	2260.96
412.36	2321.81
412.55	2401.39
412.74	2345.22
412.93	2312.45
413.12	2246.91
413.31	2438.84
413.50	2373.30
413.69	2424.80
413.88	2462.24
414.07	2401.39
414.26	2492.67
414.45	2490.33
414.64	2546.50
414.83	2569.91
415.02	2583.95
415.22	2597.99
415.41	2689.28
415.60	2726.72
415.79	2682.25
415.98	2902.26
416.17	2696.30
416.36	2750.13
416.55	2764.17
416.74	2832.05
416.93	2946.73
417.12	2855.45
417.31	2864.82
417.50	2909.29
417.69	3019.29
417.88	2935.03
418.07	2939.71
418.26	2878.86
418.45	3059.08
418.64	3183.13
418.83	3115.25
419.02	2993.55
419.21	3145.68
419.39	3012.27
419.58	3108.23
419.77	3129.30
419.96	3155.04
420.15	3208.87
420.34	3330.58
420.53	3124.62
420.72	3218.24
420.91	3293.13
421.10	3293.13
421.29	3225.26
421.48	3206.53
421.67	3349.31
421.86	3199.51
422.05	3318.88
422.24	3368.03
422.43	3431.23
422.61	3426.54
422.80	3323.56
422.99	3375.05
423.18	3403.14
423.37	3503.78
423.56	3480.38
423.75	3372.71
423.94	3251.00
424.13	3201.85
424.32	3206.53
424.50	3428.88
424.69	3583.36
424.88	3501.44
425.07	3389.10
425.26	3506.12
425.45	3604.42
425.64	3510.80
425.83	3435.91
426.01	3576.34
426.20	3433.57
426.39	3496.76
426.58	3517.83
426.77	3449.95
426.96	3569.32
427.15	3536.55
427.33	3667.62
427.52	3566.98
427.71	3648.90
427.90	3667.62
428.09	3637.19
428.28	3583.36
428.46	3655.92
428.65	3623.15
428.84	3782.31
429.03	3875.93
429.22	3595.06
429.40	3702.73
429.59	3740.18
429.78	3728.47
429.97	3749.54
430.16	3829.12
430.34	3693.37
430.53	3763.58
430.72	3967.21
430.91	3999.98
431.10	3913.38
431.28	3941.46
431.47	3927.42
431.66	4028.06
431.85	3971.89
432.03	4018.70
432.22	4227.01
432.41	4044.45
432.60	4030.40
432.79	4138.07
432.97	4133.39
433.16	4166.15
433.35	4201.26
433.54	4140.41
433.72	4238.71
433.91	4262.12
434.10	4238.71
434.28	4238.71
434.47	4299.56
434.66	4280.84
434.85	4173.18
435.03	4500.85
435.22	4367.44
435.41	4477.44
435.59	4479.79
435.78	4418.93
435.97	4421.27
436.16	4496.17
436.34	4367.44
436.53	4470.42
436.72	4512.55
436.90	4552.34
437.09	4507.87
437.28	4510.21
437.46	4629.58
437.65	4535.96
437.84	4688.09
438.02	4507.87
438.21	4496.17
438.40	4531.28
438.58	4770.01
438.77	4779.37
438.96	4779.37
439.14	4868.31
439.33	4931.51
439.52	5057.90
439.70	4755.97
439.89	5062.58
440.08	4994.70
440.26	5102.37
440.45	4987.68
440.63	5074.28
440.82	5210.03
441.01	5179.61
441.19	5135.14
441.38	5294.29
441.57	5357.49
441.75	5289.61
441.94	5549.41
442.12	5540.05
442.31	5523.66
442.50	5570.48
442.68	5420.68
442.87	5493.24
443.05	5626.65
443.24	5586.86
443.43	5643.03
443.61	5715.59
443.80	5764.74
443.98	5526.00
444.17	5427.70
444.35	5437.06
444.54	5715.59
444.73	5610.26
444.91	5650.05
445.10	5783.46
445.28	5727.29
445.47	5706.23
445.65	5851.34
445.84	5792.83
446.02	5806.87
446.21	5671.12
446.39	5582.18
446.58	5923.90
446.77	5940.28
446.95	5797.51
447.14	5762.40
447.32	5661.76
447.51	5893.47
447.69	5797.51
447.88	5685.16
448.06	5781.12
448.25	5785.80
448.43	5816.23
448.62	5863.04
448.80	5926.24
448.99	5975.39
449.17	5884.11
449.36	5893.47
449.54	6036.24
449.73	6160.29
449.91	6026.88
450.10	6136.88
450.28	6190.72
450.46	6181.35
450.65	6171.99
450.83	6010.50
451.02	6202.42
451.20	6221.14
451.39	6186.04
451.57	6340.51
451.76	6087.73
451.94	6267.95
452.13	6370.94
452.31	6359.24
452.49	6284.34
452.68	6546.48
452.86	6368.60
453.05	6424.77
453.23	6532.44
453.42	6403.71
453.60	6380.30
453.78	6555.84
453.97	6368.60
454.15	6537.12
454.34	6466.90
454.52	6565.20
454.70	6555.84
454.89	6619.04
455.07	6532.44
455.26	6773.51
455.44	6719.68
455.62	6722.02
455.81	6773.51
455.99	6958.41
456.17	6906.92
456.36	6773.51
456.54	6913.94
456.73	6979.48
456.91	6904.58
457.09	7115.23
457.28	7098.84
457.46	6984.16
457.64	7021.61
457.83	7260.34
458.01	6981.82
458.19	7185.44
458.38	7052.03
458.56	7227.57
458.74	7145.66
458.93	7246.30
459.11	7265.02
459.29	7129.27
459.48	7316.51
459.66	7110.55
459.84	7536.52
460.03	7620.78
460.21	7353.96
460.39	7279.07
460.57	7236.94
460.76	7494.40
460.94	7552.91
461.12	7613.76
461.31	7529.50
461.49	7573.97
461.67	7442.90
461.85	7817.39
462.04	7611.42
462.22	8088.89
462.40	7784.62
462.59	7761.22
462.77	7836.11
462.95	7955.48
463.13	7819.73
463.32	7829.09
463.50	7992.93
463.68	7922.71
463.86	7948.46
464.05	7801.01
464.23	7962.50
464.41	7992.93
464.59	7934.42
464.78	8173.15
464.96	8013.99
465.14	7906.33
465.32	8145.06
465.50	8170.81
465.69	8100.59
465.87	8135.70
466.05	8173.15
466.23	8386.14
466.41	8269.11
466.60	8526.57
466.78	8259.75
466.96	8107.62
467.14	8266.77
467.32	8271.45
467.51	8409.54
467.69	8369.76
467.87	8456.36
468.05	8613.17
468.23	8217.62
468.41	8362.73
468.60	8477.42
468.78	8613.17
468.96	8458.70
469.14	8585.08
469.32	8865.95
469.50	8542.96
469.69	8737.22
469.87	8709.13
470.05	8748.92
470.23	8910.42
470.41	8674.03
470.59	8964.25
470.77	8779.35
470.95	8912.76
471.14	9158.52
471.32	8791.05
471.50	9165.54
471.68	9118.73
471.86	9240.44
472.04	9228.73
472.22	9373.85
472.40	9224.05
472.58	9392.57
472.77	9455.76
472.95	9334.06
473.13	9696.84
473.31	9385.55
473.49	9392.57
473.67	9448.74
473.85	9495.55
474.03	9785.78
474.21	9895.78
474.39	9961.32
474.57	9668.75
474.75	10162.61
474.93	9848.97
475.12	9830.25
475.30	10122.82
475.48	10118.14
475.66	10312.40
475.84	10134.52
476.02	10249.21
476.20	10403.68
476.38	10555.82
476.56	10717.31
476.74	10750.08
476.92	10642.42
477.10	10700.93
477.28	10672.84
477.46	10712.63
477.64	10785.19
477.82	11059.03
478.00	11398.41
478.18	11300.11
478.36	11061.37
478.54	11267.34
478.72	11564.59
478.90	11545.86
479.08	11793.96
479.26	11698.00
479.44	11786.94
479.62	11932.05
479.80	11854.81
479.98	12095.89
480.16	12395.48
480.34	12086.53
480.52	12215.26
480.70	12346.33
480.88	12336.96
481.06	12301.86
481.24	12727.83
481.41	12564.00
481.59	12500.80
481.77	12919.76
481.95	13151.47
482.13	13345.73
482.31	13226.37
482.49	13198.28
482.67	13373.82
482.85	13795.12
483.03	13893.42
483.21	13706.18
483.39	13928.53
483.57	13884.06
483.74	13795.12
483.92	14057.26
484.10	13970.66
484.28	14134.50
484.46	14401.32
484.64	14927.94
484.82	14544.09
485.00	14696.22
485.18	15150.29
485.35	15194.76
485.53	15241.57
485.71	15213.48
485.89	15578.61
486.07	15627.76
486.25	15522.43
486.43	15726.06
486.61	15754.15
486.78	15999.90
486.96	16116.93
487.14	16088.84
487.32	16121.61
487.50	16367.37
487.68	16566.31
487.85	16793.34
488.03	16973.56
488.21	16940.80
488.39	17193.58
488.57	17032.08
488.75	17516.57
488.92	17319.96
489.10	17661.68
489.28	17825.52
489.46	17879.35
489.64	17596.15
489.81	18167.24
489.99	18235.11
490.17	18382.57
490.35	18520.66
490.53	18625.98
490.70	18965.36
490.88	18602.58
491.06	18946.64
491.24	18918.55
491.41	19213.46
491.59	19510.71
491.77	19651.14
491.95	19562.20
492.13	19585.60
492.30	19669.86
492.48	19988.18
492.66	19939.02
492.84	19908.60
493.01	20407.13
493.19	20685.65
493.37	20376.70
493.54	20622.46
493.72	20776.94
493.90	20697.36
494.08	21095.25
494.25	21266.11
494.43	21273.13
494.61	21443.99
494.79	21352.71
494.96	21556.33
495.14	21507.18
495.32	22040.82
495.49	21476.76
495.67	21912.10
495.85	22366.16
496.02	22008.06
496.20	22560.42
496.38	22511.27
496.55	22623.62
496.73	23168.96
496.91	22670.43
497.09	23138.54
497.26	22986.40
497.44	23234.50
497.62	23398.34
497.79	23381.95
497.97	23557.49
498.14	23527.06
498.32	23679.20
498.50	23999.85
498.67	24025.60
498.85	23999.85
499.03	24114.54
499.20	24554.56
499.38	24276.04
499.56	24505.41
499.73	24772.23
499.91	25006.28
500.08	24870.53
500.26	24844.79
500.44	25008.62
500.61	25266.08
500.79	25074.16
500.97	25378.43
501.14	25652.27
501.32	25465.03
501.49	25671.00
501.67	25460.35
501.84	26087.61
502.02	25715.47
502.20	26216.34
502.37	25923.77
502.55	25544.61
502.72	26426.99
502.90	26068.89
503.07	26015.05
503.25	26373.16
503.43	26015.05
503.60	26295.92
503.78	26555.72
503.95	26567.42
504.13	26824.88
504.30	27082.34
504.48	26843.60
504.65	26780.41
504.83	27489.59
505.01	27250.86
505.18	27463.85
505.36	27782.16
505.53	27300.01
505.71	27468.53
505.88	27555.13
506.06	27672.15
506.23	27707.26
506.41	27683.86
506.58	27920.25
506.76	27948.34
506.93	28470.28
507.11	28491.34
507.28	28603.69
507.46	28631.77
507.63	28706.67
507.81	28477.30
507.98	28662.20
508.16	28559.22
508.33	28945.41
508.50	29123.29
508.68	29191.16
508.85	28996.90
509.03	28891.57
509.20	29610.12
509.38	29685.01
509.55	29401.81
509.73	29596.07
509.90	29607.78
510.08	29935.45
510.25	29940.13
510.42	30188.23
510.60	30190.57
510.77	29928.43
510.95	30513.56
511.12	29979.92
511.30	30085.25
511.47	30258.45
511.64	30422.28
511.82	30759.32
511.99	30436.33
512.17	31000.40
512.34	30691.44
512.51	31489.57
512.69	30965.29
512.86	31323.39
513.04	31143.17
513.21	31386.58
513.38	31377.22
513.56	31395.95
513.73	31243.81
513.90	31508.29
514.08	31763.41
514.25	31796.18
514.43	31835.97
514.60	32144.92
514.77	31908.52
514.95	32601.32
515.12	31754.05
515.29	31608.93
515.47	32463.23
515.64	32177.68
515.81	32503.02
515.99	32421.10
516.16	32774.52
516.33	32690.26
516.51	33062.41
516.68	32430.46
516.85	32662.18
517.03	33118.58
517.20	32975.81
517.37	33132.62
517.54	33085.81
517.72	33074.11
517.89	33170.07
518.06	33406.47
518.24	33324.55
518.41	33446.26
518.58	33280.08
518.75	33310.50
518.93	33949.47
519.10	33890.96
519.27	33743.50
519.45	33872.23
519.62	34108.63
519.79	33893.30
519.96	33504.77
520.14	34125.01
520.31	34370.77
520.48	34359.06
520.65	34295.87
520.83	34403.53
521.00	34747.59
521.17	34260.76
521.34	34794.40
521.52	34478.43
521.69	34885.68
521.86	34815.47
522.03	35030.80
522.20	35318.68
522.38	35903.82
522.55	35175.91
522.72	35276.55
522.89	35379.54
523.07	35707.21
523.24	35257.83
523.41	35632.32
523.58	35573.80
523.75	36067.66
523.92	35629.98
524.10	35688.49
524.27	36233.83
524.44	35941.27
524.61	36039.57
524.78	36128.51
524.96	36254.90
525.13	36570.87
525.30	36463.21
525.47	36374.27
525.64	36776.84
525.81	36580.23
525.98	36526.40
526.16	36734.71
526.33	36444.48
526.50	36748.75
526.67	36371.92
526.84	36903.23
527.01	37280.05
527.18	37216.86
527.36	37097.49
527.53	36912.59
527.70	37354.95
527.87	37593.68
528.04	36973.44
528.21	37270.69
528.38	37450.91
528.55	37450.91
528.72	37195.79
528.89	38066.47
529.07	37837.10
529.24	37479.00
529.41	37869.87
529.58	37951.79
529.75	37617.09
529.92	38026.68
530.09	37893.27
530.26	38024.34
530.43	38059.45
530.60	38183.50
530.77	38124.99
530.94	38190.52
531.11	38263.08
531.28	38342.66
531.46	38267.76
531.63	38557.99
531.80	38361.38
531.97	38417.55
532.14	38363.72
532.31	38651.61
532.48	38841.19
532.65	39058.86
532.82	38330.95
532.99	39082.27
533.16	38888.00
533.33	39131.42
533.50	39009.71
533.67	39035.45
533.84	39108.01
534.01	39426.32
534.18	39138.44
534.35	39573.78
534.52	39323.34
534.69	39583.14
534.86	39674.42
535.03	39456.75
535.20	39913.16
535.37	39983.37
535.54	40018.48
535.71	39901.45
535.88	39899.11
536.05	39906.13
536.22	40151.89
536.38	40683.19
536.55	39817.19
536.72	40004.44
536.89	39871.03
537.06	40086.36
537.23	40465.52
537.40	40168.27
537.57	40421.05
537.74	40458.50
537.91	40739.36
538.08	40374.24
538.25	40418.71
538.42	40832.99
538.59	40905.54
538.75	40353.18
538.92	40835.33
539.09	40870.43
539.26	41013.21
539.43	40638.72
539.60	40910.22
539.77	40697.24
539.94	41242.58
540.11	40748.73
540.28	41277.69
540.44	41017.89
540.61	41273.01
540.78	41113.85
540.95	41523.44
541.12	41127.89
541.29	41233.22
541.46	41806.65
541.62	41214.49
541.79	41132.57
541.96	41256.62
542.13	41273.01
542.30	41654.51
542.47	41223.86
542.63	41539.83
542.80	42148.37
542.97	42328.59
543.14	42312.20
543.31	42003.25
543.48	42223.26
543.64	42459.66
543.81	42572.00
543.98	42590.73
544.15	41930.70
544.32	42483.06
544.48	42993.30
544.65	42408.17
544.82	42670.31
544.99	42321.57
545.16	42429.23
545.32	42426.89
545.49	42756.91
545.66	43009.68
545.83	42852.87
546.00	42967.55
546.16	42660.94
546.33	42799.04
546.50	42738.18
546.67	43112.67
546.83	42429.23
547.00	43297.57
547.17	42815.42
547.34	43021.39
547.50	42775.63
547.67	43463.75
547.84	43281.19
548.00	43412.26
548.17	43606.52
548.34	43658.01
548.51	43732.91
548.67	43503.54
548.84	43576.09
549.01	43838.23
549.18	43318.64
549.34	43569.07
549.51	43845.26
549.68	44100.37
549.84	44060.58
550.01	43477.79
550.18	43339.70
550.34	43590.14
550.51	44048.88
550.68	44142.50
550.84	43873.34
551.01	44376.56
551.18	44105.06
551.34	44044.20
551.51	44140.16
551.68	44154.21
551.84	44222.08
552.01	44320.38
552.18	43971.64
552.34	44540.39
552.51	44168.25
552.68	44348.47
552.84	44374.22
553.01	44486.56
553.18	44760.40
553.34	44774.45
553.51	44486.56
553.67	44790.83
553.84	44844.66
554.01	44830.62
554.17	44942.97
554.34	45158.30
554.51	44706.57
554.67	45507.04
554.84	45483.63
555.00	45088.08
555.17	45301.07
555.33	45158.30
555.50	45097.44
555.67	44952.33
555.83	45059.99
556.00	45331.50
556.16	46038.34
556.33	45170.00
556.50	45081.06
556.66	45572.57
556.83	45045.95
556.99	45710.66
557.16	45663.85
557.32	45317.45
557.49	45610.02
557.65	45380.65
557.82	45448.52
557.98	45593.64
558.15	45581.93
558.32	45652.15
558.48	45708.32
558.65	45258.94
558.81	45546.82
558.98	45542.14
559.14	45722.37
559.31	45670.87
559.47	45708.32
559.64	45914.29
559.80	45736.41
559.97	46113.23
560.13	45464.91
560.30	45841.73
560.46	46284.09
560.63	45961.10
560.79	46358.99
560.96	46028.98
561.12	46305.16
561.29	46068.76
561.45	46319.20
561.61	46279.41
561.78	45858.12
561.94	46239.62
562.11	46335.59
562.27	45975.14
562.44	45865.14
562.60	46199.83
562.77	46454.95
562.93	46012.59
563.10	46431.55
563.26	46174.09
563.42	46770.93
563.59	46396.44
563.75	46370.69
563.92	46225.58
564.08	46534.53
564.24	46225.58
564.41	46302.82
564.57	46340.27
564.74	46581.34
564.90	46216.22
565.07	46211.54
565.23	46312.18
565.39	46344.95
565.56	46681.98
565.72	46698.37
565.88	46625.81
566.05	46761.56
566.21	46590.70
566.38	46780.29
566.54	46902.00
566.70	46712.41
566.87	46651.56
567.03	46251.33
567.19	47117.32
567.36	47004.98
567.52	46733.48
567.68	47166.48
567.85	46658.58
568.01	46829.44
568.17	46625.81
568.34	46944.12
568.50	46934.76
568.66	46527.51
568.83	46817.74
568.99	46478.36
569.15	46864.55
569.32	46972.21
569.48	47194.56
569.64	47079.88
569.81	46836.46
569.97	47325.63
570.13	47316.27
570.30	46333.24
570.46	47040.09
570.62	46845.82
570.78	47143.07
570.95	47262.44
571.11	47100.94
571.27	46665.60
571.43	46972.21
571.60	47243.71
571.76	47180.52
571.92	46766.24
572.09	47086.90
572.25	46658.58
572.41	46684.33
572.57	46803.69
572.74	47475.43
572.90	46815.40
573.06	46937.10
573.22	47367.76
573.38	47194.56
573.55	47157.11
573.71	47456.70
573.87	47332.65
574.03	47260.10
574.20	47627.56
574.36	47426.28
574.52	47187.54
574.68	47578.41
574.84	47606.50
575.01	47498.83
575.17	47660.33
575.33	47482.45
575.49	47215.63
575.65	47363.08
575.82	47477.77
575.98	47480.11
576.14	47583.09
576.30	47782.04
576.46	47157.11
576.62	47786.72
576.79	47606.50
576.95	47016.68
577.11	47290.52
577.27	47508.19
577.43	47292.86
577.59	47363.08
577.75	47133.71
577.92	47112.64
578.08	47344.36
578.24	47227.33
578.40	47976.30
578.56	47700.12
578.72	47449.68
578.88	47421.59
579.04	47920.13
579.21	47363.08
579.37	47789.06
579.53	47452.02
579.69	47222.65
579.85	47540.96
580.01	47423.93
580.17	47203.92
580.33	47636.92
580.49	47594.79
580.65	47725.86
580.82	47386.49
580.98	47487.13
581.14	47463.72
581.30	47789.06
581.46	47196.90
581.62	47707.14
581.78	47145.41
581.94	48130.78
582.10	47388.83
582.26	47826.51
582.42	47552.66
582.58	47772.67
582.74	47756.29
582.90	47714.16
583.06	47786.72
583.22	48039.50
583.38	47875.66
583.54	47842.89
583.70	47767.99
583.86	47878.00
584.02	47131.37
584.18	47971.62
584.34	48006.73
584.50	47959.92
584.66	47863.96
584.82	47969.28
584.98	48200.99
585.14	48334.40
585.30	48067.58
585.46	47880.34
585.62	47709.48
585.78	47655.65
585.94	47847.57
586.10	47281.16
586.26	47597.13
586.42	47517.56
586.58	47934.17
586.74	47576.07
586.90	47777.36
587.06	47697.78
587.22	47859.27
587.38	47473.09
587.54	47980.98
587.70	48261.85
587.86	47786.72
588.02	47676.71
588.18	48074.60
588.34	47388.83
588.49	47580.75
588.65	47501.17
588.81	48105.03
588.97	48114.39
589.13	47915.45
589.29	47447.34
589.45	48303.98
589.61	48114.39
589.77	47915.45
589.93	48254.82
590.08	47831.19
590.24	48088.65
590.40	48392.92
590.56	48170.57
590.72	47821.83
590.88	47643.94
591.04	47878.00
591.20	48624.63
591.35	48067.58
591.51	48432.71
591.67	48442.07
591.83	48463.13
591.99	48343.77
592.15	48465.47
592.31	48287.59
592.46	47714.16
592.62	48126.10
592.78	48044.18
592.94	48402.28
593.10	48505.26
593.26	48360.15
593.41	48837.62
593.57	48453.77
593.73	48591.86
593.89	48802.51
594.05	48949.96
594.20	48357.81
594.36	48343.77
594.52	48624.63
594.68	48423.34
594.84	48360.15
594.99	48250.14
595.15	48268.87
595.31	48528.67
595.47	48481.86
595.62	48446.75
595.78	48397.60
595.94	48505.26
596.10	48182.27
596.25	48332.06
596.41	48741.66
596.57	48580.16
596.73	48556.75
596.88	48671.44
597.04	48521.65
597.20	48601.22
597.36	48444.41
597.51	48505.26
597.67	48488.88
597.83	48760.38
597.99	48575.48
598.14	48477.18
598.30	48456.11
598.46	48301.64
598.61	49308.07
598.77	48676.12
598.93	48786.13
599.09	48797.83
599.24	48968.69
599.40	48472.49
599.56	49022.52
599.71	48669.10
599.87	49003.80
600.03	48760.38
600.18	48807.19
600.34	48650.38
600.50	48846.98
600.65	48727.61
600.81	48898.47
600.97	48732.29
601.12	48538.03
601.28	48552.07
601.44	48678.46
601.59	48849.32
601.75	48828.26
601.91	48814.21
602.06	48701.87
602.22	48978.05
602.37	48683.14
602.53	48664.42
602.69	48917.20
602.84	48657.40
603.00	48807.19
603.16	48325.04
603.31	48528.67
603.47	48893.79
603.62	49205.08
603.78	48835.28
603.94	48802.51
604.09	48830.60
604.25	48722.93
604.40	48130.78
604.56	48678.46
604.71	48879.75
604.87	48523.99
605.03	48301.64
605.18	48727.61
605.34	48704.21
605.49	48488.88
605.65	48877.41
605.80	48257.17
605.96	48098.01
606.12	48474.84
606.27	48753.36
606.43	48549.73
606.58	48704.21
606.74	48388.24
606.89	48645.69
607.05	49090.40
607.20	48933.58
607.36	48442.07
607.51	48584.84
607.67	48423.34
607.82	48161.20
607.98	48329.72
608.13	48079.28
608.29	48320.36
608.44	48727.61
608.60	48313.34
608.75	48556.75
608.91	48247.80
609.06	48081.63
609.22	48809.53
609.37	47892.04
609.53	48112.05
609.68	48617.61
609.84	48247.80
609.99	48388.24
610.15	48364.83
610.30	48098.01
610.46	47856.93
610.61	48224.40
610.76	48362.49
610.92	48083.97
611.07	48268.87
611.23	48289.93
611.38	48381.21
611.54	48182.27
611.69	48875.07
611.84	48437.39
612.00	48390.58
612.15	47889.70
612.31	48821.23
612.46	47992.68
612.62	48004.39
612.77	48240.78
612.92	48505.26
613.08	47927.15
613.23	48357.81
613.39	48243.12
613.54	48055.88
613.69	48105.03
613.85	48182.27
614.00	47971.62
614.15	48343.77
614.31	48023.11
614.46	47835.87
614.62	47817.14
614.77	48215.04
614.92	48100.35
615.08	47702.46
615.23	48130.78
615.38	48016.09
615.54	47737.57
615.69	47753.95
615.84	47950.56
616.00	48147.16
616.15	47777.36
616.30	48002.05
616.46	47255.42
616.61	47723.52
616.76	47854.59
616.92	47400.53
617.07	47737.57
617.22	47679.05
617.37	47543.30
617.53	47613.52
617.68	47700.12
617.83	47557.35
617.99	48060.56
618.14	47950.56
618.29	47241.37
618.45	47129.03
618.60	47611.18
618.75	47384.15
618.90	47414.57
619.06	47281.16
619.21	47501.17
619.36	47487.13
619.51	47545.64
619.67	47054.13
619.82	47056.47
619.97	47618.20
620.12	47320.95
620.28	47449.68
620.43	47674.37
620.58	47512.88
620.73	47325.63
620.89	47442.66
621.04	47360.74
621.19	47489.47
621.34	47161.79
621.49	47047.11
621.65	47295.21
621.80	47047.11
621.95	47327.97
622.10	47426.28
622.25	47075.19
622.41	47232.01
622.56	46810.71
622.71	47133.71
622.86	47543.30
623.01	46777.95
623.16	46894.97
623.32	46529.85
623.47	47274.14
623.62	46934.76
623.77	47084.56
623.92	46923.06
624.07	46838.80
624.23	47236.69
624.38	46918.38
624.53	46960.51
624.68	46611.77
624.83	46930.08
624.98	46700.71
625.13	46660.92
625.29	46225.58
625.44	46656.24
625.59	47023.70
625.74	46707.73
625.89	46490.06
626.04	46635.17
626.19	46756.88
626.34	46176.43
626.49	46239.62
626.65	46099.19
626.80	46373.03
626.95	46190.47
627.10	46017.27
627.25	46457.29
627.40	46579.00
627.55	45958.76
627.70	46164.73
627.85	46543.89
628.00	46403.46
628.15	46731.14
628.30	45879.18
628.45	46291.12
628.60	45600.66
628.76	45869.82
628.91	46150.68
629.06	45429.80
629.21	46157.70
629.36	45907.27
629.51	46108.55
629.66	46284.09
629.81	46380.06
629.96	46005.57
630.11	45893.22
630.26	45895.56
630.41	45989.19
630.56	45574.91
630.71	45869.82
630.86	45577.25
631.01	45474.27
631.16	45174.68
631.31	45923.65
631.46	45418.10
631.61	46017.27
631.76	46117.92
631.91	45776.20
632.06	45727.05
632.21	45790.24
632.36	45942.38
632.51	45207.45
632.66	45422.78
632.81	45399.37
632.96	45464.91
633.10	45200.43
633.25	45591.30
633.40	45411.07
633.55	45839.39
633.70	45198.09
633.85	45127.87
634.00	45076.38
634.15	45088.08
634.30	44973.39
634.45	44907.86
634.60	45296.39
634.75	45373.63
634.90	45207.45
635.05	45544.48
635.19	45268.30
635.34	45289.37
635.49	45055.31
635.64	44767.43
635.79	45399.37
635.94	44720.62
636.09	45219.15
636.24	44774.45
636.39	45336.18
636.53	45158.30
636.68	44711.25
636.83	44247.83
636.98	44741.68
637.13	44781.47
637.28	44203.36
637.43	44978.07
637.57	44928.92
637.72	44395.28
637.87	44706.57
638.02	44655.08
638.17	44755.72
638.32	44353.15
638.46	44191.65
638.61	44636.36
638.76	44451.45
638.91	44612.95
639.06	44224.42
639.20	44041.86
639.35	43981.01
639.50	44348.47
639.65	44416.35
639.80	44315.70
639.94	44327.41
640.09	44205.70
640.24	44275.91
640.39	43632.27
640.54	43789.08
640.68	44224.42
640.83	44093.35
640.98	44083.99
641.13	43878.02
641.27	44177.61
641.42	44456.14
641.57	44116.76
641.72	43976.33
641.86	44098.03
642.01	43842.92
642.16	44044.20
642.31	43709.50
642.45	44112.08
642.60	43412.26
642.75	43871.00
642.90	44196.34
643.04	43779.72
643.19	43847.60
643.34	43370.13
643.48	43456.73
643.63	43676.74
643.78	43756.32
643.93	43578.43
644.07	44172.93
644.22	43342.04
644.37	43070.54
644.51	43725.89
644.66	43342.04
644.81	43477.79
644.95	43505.88
645.10	43559.71
645.25	42916.06
645.39	42775.63
645.54	43255.44
645.69	43323.32
645.83	43096.28
645.98	43370.13
646.13	43086.92
646.27	43335.02
646.42	42829.46
646.57	42829.46
646.71	43318.64
646.86	43138.41
647.00	43063.52
647.15	43508.22
647.30	43093.94
647.44	42813.08
647.59	43470.77
647.74	42806.06
647.88	43447.36
648.03	43283.53
648.17	43489.49
648.32	43267.14
648.47	43730.57
648.61	42925.42
648.76	43040.11
648.90	42714.78
649.05	42852.87
649.20	42997.98
649.34	42941.81
649.49	42864.57
649.63	43026.07
649.78	43150.12
649.92	42693.71
650.07	43201.61
650.21	42885.64
650.36	42775.63
650.51	42976.92
650.65	43054.15
650.80	42674.99
650.94	42677.33
651.09	42555.62
651.23	42078.15
651.38	42527.53
651.52	42394.12
651.67	42494.77
651.81	42291.14
651.96	42113.26
652.10	42225.60
652.25	42211.56
652.39	42600.09
652.54	42267.73
652.68	42419.87
652.83	42426.89
652.97	42038.36
653.12	42323.91
653.26	42206.88
653.41	41989.21
653.55	42447.96
653.70	42213.90
653.84	42010.28
653.99	42178.79
654.13	41935.38
654.27	42124.96
654.42	41851.12
654.56	41553.87
654.71	42494.77
654.85	42101.56
655.00	41860.48
655.14	42096.88
655.29	41612.38
655.43	42277.10
655.57	41663.88
655.72	41483.66
655.86	41975.17
656.01	41495.36
656.15	41399.40
656.30	41317.48
656.44	41799.63
656.58	41918.99
656.73	41813.67
656.87	41556.21
657.01	40968.74
657.16	42036.02
657.30	41457.91
657.45	41301.09
657.59	40950.01
657.73	40664.47
657.88	40938.31
658.02	41588.98
658.16	41385.35
658.31	41237.90
658.45	41263.64
658.60	40533.40
658.74	41064.70
658.88	41331.52
659.03	41151.30
659.17	40919.59
659.31	40678.51
659.46	40463.18
659.60	41155.98
659.74	40699.58
659.89	40353.18
660.03	40114.44
660.17	40259.55
660.32	40875.12
660.46	40275.94
660.60	40179.98
660.74	40257.21
660.89	40765.11
661.03	40137.85
661.17	40009.12
661.32	40264.24
661.46	40301.68
661.60	40301.68
661.74	40084.01
661.89	40292.32
662.03	39704.85
662.17	39812.51
662.31	39791.45
662.46	39728.25
662.60	39908.47
662.74	39842.94
662.88	39400.58
663.03	39023.75
663.17	38888.00
663.31	38962.90
663.45	39407.60
663.60	39454.41
663.74	39297.59
663.88	38974.60
664.02	38817.78
664.17	39758.68
664.31	39243.76
664.45	39168.87
664.59	39133.76
664.73	38869.28
664.88	39051.84
665.02	38740.55
665.16	38845.87
665.30	38794.38
665.44	38918.43
665.59	38405.85
665.73	38637.56
665.87	37993.92
666.01	38639.90
666.15	38335.63
666.29	38045.41
666.44	38522.88
666.58	38169.46
666.72	37844.12
666.86	38258.40
667.00	38082.86
667.14	38347.34
667.28	37874.55
667.43	37858.17
667.57	38349.68
667.71	38150.73
667.85	38003.28
667.99	37574.96
668.13	37923.70
668.27	37610.07
668.41	37331.54
668.56	37177.07
668.70	36912.59
668.84	36919.61
668.98	36882.16
669.12	37258.99
669.26	36973.44
669.40	37544.53
669.54	37357.29
669.68	36945.36
669.82	37109.19
669.96	36935.99
670.10	36945.36
670.25	36741.73
670.39	36364.90
670.53	36236.17
670.67	36528.74
670.81	36470.23
670.95	36615.34
671.09	36334.48
671.23	35751.68
671.37	36119.15
671.51	35962.33
671.65	36079.36
671.79	35978.72
671.93	36247.88
672.07	36477.25
672.21	35718.92
672.35	35569.12
672.49	35924.88
672.63	35632.32
672.77	35365.49
672.91	35576.14
673.05	35555.08
673.19	35253.15
673.33	35117.40
673.47	35159.53
673.61	34843.56
673.75	34724.19
673.89	34878.66
674.03	34522.90
674.17	34417.58
674.31	34321.62
674.45	34272.46
674.59	34223.31
674.73	34377.79
674.87	34026.71
675.01	33811.38
675.15	33647.54
675.29	33954.15
675.43	33979.90
675.56	34005.64
675.70	33811.38
675.84	33455.62
675.98	32711.33
676.12	33729.46
676.26	33535.20
676.40	33230.93
676.54	33156.03
676.68	33118.58
676.82	32598.98
676.96	32966.45
677.10	33160.71
677.23	32807.29
677.37	32732.39
677.51	32458.55
677.65	32449.19
677.79	32552.17
677.93	32620.05
678.07	32313.44
678.21	32240.88
678.34	32123.85
678.48	31658.09
678.62	31559.78
678.76	31543.40
678.90	31873.42
679.04	31634.68
679.18	31850.01
679.31	31438.08
679.45	31220.41
679.59	31033.16
679.73	31164.23
679.87	31056.57
680.00	30831.88
680.14	31189.98
680.28	30583.78
680.42	30824.86
680.56	30553.35
680.70	30689.10
680.83	29771.61
680.97	29965.88
681.11	29954.18
681.25	29935.45
681.39	29928.43
681.52	29460.32
681.66	29252.02
681.80	29083.50
681.94	29116.26
682.07	29151.37
682.21	29188.82
682.35	29221.59
682.49	28776.89
682.62	29057.75
682.76	29191.16
682.90	28762.84
683.04	28563.90
683.17	28554.54
683.31	28486.66
683.45	28339.21
683.59	28142.60
683.72	28027.92
683.86	27992.81
684.00	28156.64
684.13	27983.44
684.27	27672.15
684.41	27370.22
684.55	27627.68
684.68	27431.08
684.82	27082.34
684.96	26682.11
685.09	27513.00
685.23	27562.15
685.37	27585.55
685.50	27461.51
685.64	27232.13
685.78	26778.07
685.91	26951.27
686.05	26560.40
686.19	26139.10
686.32	26859.99
686.46	25832.49
686.60	26066.55
686.73	26162.51
686.87	26188.25
687.01	25696.74
687.14	25769.30
687.28	25694.40
687.42	25954.20
687.55	25572.69
687.69	25235.66
687.82	24987.56
687.96	25399.49
688.10	24959.47
688.23	24875.21
688.37	25142.03
688.50	25099.90
688.64	24886.92
688.78	24861.17
688.91	24933.73
689.05	24533.50
689.18	24266.67
689.32	23889.85
689.46	24002.19
689.59	23882.83
689.73	24025.60
689.86	24390.72
690.00	24107.52
690.13	24292.42
690.27	23688.56
690.41	23653.45
690.54	23360.89
690.68	23360.89
690.81	23201.73
690.95	23021.51
691.08	23098.75
691.22	22668.09
691.35	22775.75
691.49	23103.43
691.62	23000.44
691.76	22724.26
691.89	22504.25
692.03	22532.34
692.16	22026.78
692.30	22057.21
692.43	21998.70
692.57	21795.07
692.70	21933.16
692.84	21832.52
692.97	21507.18
693.11	21497.82
693.24	21631.23
693.38	21429.94
693.51	21434.63
693.65	21289.51
693.78	20950.14
693.92	20898.64
694.05	21123.33
694.19	20982.90
694.32	20767.57
694.45	21071.84
694.59	20849.49
694.72	21071.84
694.86	20475.01
694.99	20159.03
695.13	20079.46
695.26	20070.09
695.39	19845.40
695.53	19932.00
695.66	20044.35
695.80	19768.16
695.93	19686.25
696.07	19611.35
696.20	19208.78
696.33	18857.70
696.47	19262.61
696.60	19084.73
696.73	19414.74
696.87	19161.97
697.00	19087.07
697.14	19126.86
697.27	18625.98
697.40	18979.40
697.54	19171.33
697.67	18340.44
697.80	18506.62
697.94	18686.84
698.07	18239.79
698.21	18284.26
698.34	18043.19
698.47	17989.36
698.61	17727.22
698.74	17987.02
698.87	17898.08
699.01	17593.81
699.14	17476.78
699.27	17500.19
699.40	17687.43
699.54	17350.39
699.67	17584.44
699.80	17329.33
699.94	17118.68
700.07	17132.72
700.20	16952.50
700.34	16835.47
700.47	16706.74
700.60	17071.87
700.73	16996.97
700.87	16573.33
701.00	16570.99
701.13	16547.59
701.26	16336.94
701.40	16432.90
701.53	16067.78
701.66	16210.55
701.79	16182.46
701.93	15892.24
702.06	15733.08
702.19	15953.09
702.32	15819.68
702.46	15538.82
702.59	15903.94
702.72	15882.88
702.85	15824.36
702.99	15639.46
703.12	15403.07
703.25	15129.22
703.38	15180.71
703.51	15096.46
703.65	14853.04
703.78	14855.38
703.91	14609.62
704.04	14747.72
704.17	14546.43
704.31	14445.79
704.44	14698.56
704.57	14478.55
704.70	14387.27
704.83	14347.48
704.96	14235.14
705.10	14225.78
705.23	14169.60
>>>>>End Processed Spectral Data<<<<<
