SpectraSuite Data File
++++++++++++++++++++++++++++++++++++
Date: Fri Oct 25 11:34:09 EDT 2013
User: price-jones
Dark Spectrum Present: No
Reference Spectrum Present: No
Number of Sampled Component Spectra: 1
Spectrometers: USB2+H05261
Integration Time (usec): 100000 (USB2+H05261)
Spectra Averaged: 1 (USB2+H05261)
Boxcar Smoothing: 0 (USB2+H05261)
Correct for Electrical Dark: No (USB2+H05261)
Strobe/Lamp Enabled: No (USB2+H05261)
Correct for Detector Non-linearity: No (USB2+H05261)
Correct for Stray Light: No (USB2+H05261)
Number of Pixels in Processed Spectrum: 2048
>>>>>Begin Processed Spectral Data<<<<<
365.73	301.93
365.92	301.93
366.12	301.93
366.32	187.24
366.52	191.92
366.72	236.39
366.91	191.92
367.11	168.52
367.31	156.82
367.51	227.03
367.70	184.90
367.90	196.60
368.10	124.05
368.30	119.37
368.49	236.39
368.69	196.60
368.89	182.56
369.09	159.16
369.28	184.90
369.48	201.29
369.68	252.78
369.87	220.01
370.07	287.89
370.27	308.95
370.47	276.18
370.66	505.56
370.86	463.43
371.06	538.32
371.25	573.43
371.45	491.51
371.65	578.11
371.84	543.00
372.04	514.92
372.24	524.28
372.44	580.45
372.63	561.73
372.83	606.20
373.03	634.29
373.22	498.53
373.42	610.88
373.62	617.90
373.81	531.30
374.01	627.26
374.21	613.22
374.40	674.07
374.60	636.63
374.79	606.20
374.99	678.76
375.19	606.20
375.38	596.84
375.58	711.52
375.78	676.41
375.97	664.71
376.17	788.76
376.37	645.99
376.56	660.03
376.76	688.12
376.95	664.71
377.15	709.18
377.35	678.76
377.54	692.80
377.74	648.33
377.93	730.25
378.13	629.60
378.33	683.44
378.52	683.44
378.72	737.27
378.91	676.41
379.11	685.78
379.31	620.24
379.50	688.12
379.70	765.36
379.89	697.48
380.09	671.73
380.28	704.50
380.48	772.38
380.68	716.20
380.87	725.57
381.07	725.57
381.26	739.61
381.46	732.59
381.65	786.42
381.85	753.65
382.04	856.64
382.24	734.93
382.43	826.21
382.63	786.42
382.83	727.91
383.02	798.12
383.22	844.93
383.41	758.33
383.61	734.93
383.80	755.99
384.00	727.91
384.19	755.99
384.39	798.12
384.58	821.53
384.78	840.25
384.97	898.77
385.17	821.53
385.36	858.98
385.56	828.55
385.75	882.38
385.95	938.55
386.14	847.27
386.34	884.72
386.53	856.64
386.72	842.59
386.92	908.13
387.11	926.85
387.31	844.93
387.50	833.23
387.70	922.17
387.89	877.70
388.09	912.81
388.28	873.02
388.48	784.08
388.67	924.51
388.86	903.45
389.06	959.62
389.25	823.87
389.45	912.81
389.64	840.25
389.84	929.19
390.03	1032.18
390.22	905.79
390.42	964.30
390.61	976.00
390.81	1029.84
391.00	905.79
391.19	994.73
391.39	952.60
391.58	992.39
391.78	1062.60
391.97	997.07
392.16	1088.35
392.36	1097.71
392.55	980.68
392.75	1041.54
392.94	936.21
393.13	1081.33
393.33	1039.20
393.52	1104.73
393.71	1062.60
393.91	1034.52
394.10	1039.20
394.29	1078.99
394.49	1081.33
394.68	1090.69
394.88	1114.10
395.07	1100.05
395.26	1177.29
395.46	1093.03
395.65	1109.41
395.84	1170.27
396.04	1125.80
396.23	1142.18
396.42	1137.50
396.62	1200.69
396.81	1256.87
397.00	1207.72
397.19	1139.84
397.39	1233.46
397.58	1128.14
397.77	1238.14
397.97	1193.67
398.16	1125.80
398.35	1310.70
398.55	1270.91
398.74	1174.95
398.93	1317.72
399.12	1196.01
399.32	1275.59
399.51	1139.84
399.70	1383.26
399.90	1343.47
400.09	1259.21
400.28	1425.39
400.47	1331.76
400.67	1406.66
400.86	1362.19
401.05	1357.51
401.24	1397.30
401.44	1409.00
401.63	1387.94
401.82	1490.92
402.01	1453.47
402.21	1500.28
402.40	1481.56
402.59	1521.35
402.78	1507.30
402.97	1483.90
403.17	1479.22
403.36	1460.49
403.55	1511.99
403.74	1624.33
403.93	1516.67
404.13	1586.88
404.32	1558.80
404.51	1565.82
404.70	1668.80
404.89	1533.05
405.09	1701.57
405.28	1577.52
405.47	1666.46
405.66	1682.85
405.85	1694.55
406.05	1633.69
406.24	1795.19
406.43	1781.15
406.62	1820.94
406.81	1891.15
407.00	1739.02
407.20	1722.63
407.39	1713.27
407.58	1884.13
407.77	1762.42
407.96	1827.96
408.15	1902.86
408.34	1881.79
408.54	1923.92
408.73	1865.41
408.92	1863.07
409.11	1973.07
409.30	1870.09
409.49	1893.49
409.68	1952.01
409.87	1832.64
410.07	1900.52
410.26	2017.54
410.45	1825.62
410.64	2071.37
410.83	2024.56
411.02	2026.90
411.21	2059.67
411.40	2136.91
411.59	2129.89
411.78	2155.63
411.98	2251.60
412.17	2183.72
412.36	2214.15
412.55	2305.43
412.74	2256.28
412.93	2267.98
413.12	2277.34
413.31	2445.86
413.50	2370.96
413.69	2286.70
413.88	2396.71
414.07	2394.37
414.26	2415.43
414.45	2487.99
414.64	2436.50
414.83	2480.97
415.02	2502.03
415.22	2560.55
415.41	2544.16
415.60	2593.31
415.79	2651.83
415.98	2670.55
416.17	2661.19
416.36	2698.64
416.55	2607.36
416.74	2757.15
416.93	2738.43
417.12	2832.05
417.31	2803.96
417.50	2815.66
417.69	2918.65
417.88	2944.39
418.07	2780.56
418.26	2935.03
418.45	2918.65
418.64	3066.10
418.83	3049.72
419.02	2906.95
419.21	3014.61
419.39	3047.38
419.58	2951.42
419.77	3054.40
419.96	3063.76
420.15	3103.55
420.34	3138.66
420.53	3131.64
420.72	3190.15
420.91	3016.95
421.10	3141.00
421.29	3091.85
421.48	3248.66
421.67	3180.79
421.86	3269.73
422.05	3328.24
422.24	3286.11
422.43	3236.96
422.61	3262.71
422.80	3316.54
422.99	3382.07
423.18	3337.60
423.37	3398.46
423.56	3276.75
423.75	3393.78
423.94	3229.94
424.13	3183.13
424.32	3115.25
424.50	3339.94
424.69	3454.63
424.88	3417.18
425.07	3361.01
425.26	3269.73
425.45	3356.33
425.64	3288.45
425.83	3265.05
426.01	3356.33
426.20	3442.93
426.39	3442.93
426.58	3410.16
426.77	3421.86
426.96	3344.63
427.15	3382.07
427.33	3510.80
427.52	3435.91
427.71	3571.66
427.90	3445.27
428.09	3510.80
428.28	3578.68
428.46	3562.30
428.65	3538.89
428.84	3730.81
429.03	3742.52
429.22	3564.64
429.40	3566.98
429.59	3559.95
429.78	3501.44
429.97	3459.31
430.16	3625.49
430.34	3812.73
430.53	3784.65
430.72	3770.60
430.91	3733.15
431.10	3857.20
431.28	3868.91
431.47	3934.44
431.66	3922.74
431.85	3786.99
432.03	3857.20
432.22	3971.89
432.41	4051.47
432.60	3906.35
432.79	3955.51
432.97	3995.29
433.16	4011.68
433.35	3840.82
433.54	3922.74
433.72	4056.15
433.91	4023.38
434.10	4234.03
434.28	4138.07
434.47	4175.52
434.66	4168.49
434.85	4177.86
435.03	4315.95
435.22	4156.79
435.41	4219.99
435.59	4404.89
435.78	4360.42
435.97	4278.50
436.16	4313.61
436.34	4390.84
436.53	4444.68
436.72	4432.97
436.90	4147.43
437.09	4451.70
437.28	4259.78
437.46	4346.37
437.65	4554.68
437.84	4585.11
438.02	4524.26
438.21	4409.57
438.40	4454.04
438.58	4568.73
438.77	4594.47
438.96	4638.94
439.14	4826.18
439.33	4926.83
439.52	4629.58
439.70	4617.88
439.89	4821.50
440.08	4856.61
440.26	4952.57
440.45	4865.97
440.63	4961.94
440.82	4971.30
441.01	5046.20
441.19	5076.62
441.38	5081.30
441.57	5069.60
441.75	5200.67
441.94	5195.99
442.12	5210.03
442.31	5158.54
442.50	5214.71
442.68	5355.15
442.87	5256.84
443.05	5404.30
443.24	5343.44
443.43	5378.55
443.61	5434.72
443.80	5547.07
443.98	5364.51
444.17	5160.88
444.35	5394.93
444.54	5645.37
444.73	5472.17
444.91	5633.67
445.10	5558.77
445.28	5392.59
445.47	5664.10
445.65	5652.39
445.84	5542.39
446.02	5612.60
446.21	5514.30
446.39	5535.37
446.58	5631.33
446.77	5434.72
446.95	5542.39
447.14	5495.58
447.32	5734.31
447.51	5582.18
447.69	5591.54
447.88	5528.35
448.06	5680.48
448.25	5593.88
448.43	5706.23
448.62	5734.31
448.80	5841.98
448.99	5692.18
449.17	5820.91
449.36	5816.23
449.54	5785.80
449.73	5680.48
449.91	6045.60
450.10	5954.32
450.28	6061.99
450.46	6045.60
450.65	6017.52
450.83	6059.65
451.02	5921.56
451.20	5944.96
451.39	5804.53
451.57	5849.00
451.76	5935.60
451.94	5940.28
452.13	6265.61
452.31	6181.35
452.49	6092.41
452.68	6085.39
452.86	6139.23
453.05	6289.02
453.23	6225.82
453.42	6104.12
453.60	6186.04
453.78	6235.19
453.97	6169.65
454.15	6160.29
454.34	6078.37
454.52	6389.66
454.70	6258.59
454.89	6389.66
455.07	6452.86
455.26	6396.68
455.44	6520.73
455.62	6504.35
455.81	6544.14
455.99	6670.53
456.17	6670.53
456.36	6583.93
456.54	6663.51
456.73	6935.01
456.91	6815.64
457.09	6850.75
457.28	6848.41
457.46	6719.68
457.64	6827.34
457.83	6885.86
458.01	6799.26
458.19	6937.35
458.38	6869.47
458.56	7056.72
458.74	6965.43
458.93	6864.79
459.11	7023.95
459.29	7138.63
459.48	7098.84
459.66	6946.71
459.84	7199.49
460.03	7248.64
460.21	7255.66
460.39	7201.83
460.57	7258.00
460.76	7119.91
460.94	7208.85
461.12	7449.93
461.31	7353.96
461.49	7337.58
461.67	7438.22
461.85	7316.51
462.04	7405.46
462.22	7840.79
462.40	7513.12
462.59	7534.18
462.77	7400.77
462.95	7552.91
463.13	7466.31
463.32	7585.68
463.50	7655.89
463.68	7634.83
463.86	7672.28
464.05	7613.76
464.23	7641.85
464.41	7885.26
464.59	7508.44
464.78	7728.45
464.96	7695.68
465.14	7620.78
465.32	7831.43
465.50	7808.03
465.69	7922.71
465.87	7889.95
466.05	7840.79
466.23	7850.16
466.41	8028.04
466.60	8131.02
466.78	7941.44
466.96	7985.91
467.14	8229.32
467.32	8067.83
467.51	8138.04
467.69	7962.50
467.87	8006.97
468.05	8271.45
468.23	8021.02
468.41	8135.70
468.60	8372.10
468.78	8372.10
468.96	8278.47
469.14	8177.83
469.32	8542.96
469.50	8063.15
469.69	8238.69
469.87	8685.73
470.05	8608.49
470.23	8491.46
470.41	8561.68
470.59	8620.19
470.77	8652.96
470.95	8720.84
471.14	8741.90
471.32	8528.91
471.50	8769.99
471.68	8777.01
471.86	8734.88
472.04	9048.51
472.22	9034.47
472.40	8858.93
472.58	8889.35
472.77	9043.83
472.95	9198.31
473.13	9345.76
473.31	9247.46
473.49	9111.71
473.67	9224.05
473.85	9425.34
474.03	9554.07
474.21	9415.98
474.39	9537.68
474.57	9514.28
474.75	9731.95
474.93	9577.47
475.12	9542.36
475.30	9816.21
475.48	9837.27
475.66	9628.96
475.84	9729.61
476.02	9799.82
476.20	10115.80
476.38	10293.68
476.56	10382.62
476.74	10366.23
476.92	10328.78
477.10	10279.63
477.28	10193.03
477.46	10518.37
477.64	10368.57
477.82	10757.10
478.00	10876.47
478.18	10775.83
478.36	11236.91
478.54	11080.10
478.72	11101.16
478.90	11150.31
479.08	11382.03
479.26	11318.83
479.44	11517.78
479.62	11442.88
479.80	11585.65
479.98	11665.23
480.16	11840.77
480.34	11730.76
480.52	11988.22
480.70	12095.89
480.88	12049.08
481.06	11969.50
481.24	12109.93
481.41	12304.20
481.59	12362.71
481.77	12402.50
481.95	12528.89
482.13	12678.68
482.31	12669.32
482.49	12938.48
482.67	12812.09
482.85	12905.71
483.03	13153.81
483.21	13303.60
483.39	13488.51
483.57	13600.85
483.74	13509.57
483.92	13619.58
484.10	13570.43
484.28	14204.71
484.46	13963.64
484.64	14087.68
484.82	13984.70
485.00	14178.97
485.18	14469.19
485.35	14817.93
485.53	14621.33
485.71	14906.87
485.89	15255.61
486.07	14874.10
486.25	15276.68
486.43	14972.41
486.61	15520.09
486.78	15330.51
486.96	15426.47
487.14	15655.84
487.32	15733.08
487.50	15960.11
487.68	16100.55
487.85	16098.20
488.03	16112.25
488.21	16650.57
488.39	16458.65
488.57	16943.14
488.75	16575.67
488.92	16788.66
489.10	16716.11
489.28	17125.70
489.46	17462.74
489.64	17174.85
489.81	17586.79
489.99	17671.04
490.17	17476.78
490.35	17767.01
490.53	17898.08
490.70	18436.40
490.88	18094.68
491.06	18508.96
491.24	18136.81
491.41	18565.13
491.59	18728.97
491.77	18565.13
491.95	19201.76
492.13	19115.16
492.30	19152.60
492.48	19536.45
492.66	19026.21
492.84	19190.05
493.01	19641.78
493.19	19417.08
493.37	19686.25
493.54	19782.21
493.72	20006.90
493.90	20149.67
494.08	20093.50
494.25	20465.64
494.43	20692.68
494.61	20877.58
494.79	20917.37
494.96	20559.27
495.14	20929.07
495.32	21181.85
495.49	21036.74
495.67	21380.79
495.85	21537.61
496.02	21394.84
496.20	21570.38
496.38	21673.36
496.55	21596.12
496.73	22221.05
496.91	22045.51
497.09	22197.64
497.26	22370.84
497.44	22412.97
497.62	23007.47
497.79	22707.88
497.97	22405.95
498.14	22967.68
498.32	22721.92
498.50	23119.81
498.67	23417.06
498.85	23194.71
499.03	23314.08
499.20	23573.88
499.38	23433.44
499.56	23428.76
499.73	23924.96
499.91	23627.71
500.08	24093.47
500.26	23887.51
500.44	23786.86
500.61	24105.18
500.79	23824.31
500.97	24339.23
501.14	24671.59
501.32	24510.09
501.49	24659.88
501.67	24891.60
501.84	24936.07
502.02	24676.27
502.20	24985.22
502.37	24697.33
502.55	24863.51
502.72	25502.48
502.90	25303.53
503.07	25310.55
503.25	25465.03
503.43	25104.59
503.60	25909.73
503.78	25839.51
503.95	25357.36
504.13	25923.77
504.30	26202.30
504.48	25898.03
504.65	25750.57
504.83	26258.47
505.01	26494.86
505.18	26309.96
505.36	26319.32
505.53	26864.67
505.71	26553.38
505.88	26529.97
506.06	26108.68
506.23	27009.78
506.41	26955.95
506.58	26979.36
506.76	27101.06
506.93	27669.81
507.11	26981.70
507.28	27384.27
507.46	27318.73
507.63	27800.88
507.81	27658.11
507.98	27358.52
508.16	27924.93
508.33	27711.94
508.50	28079.41
508.68	28011.53
508.85	28058.34
509.03	28184.73
509.20	28292.40
509.38	28580.28
509.55	28383.68
509.73	28376.66
509.90	28524.11
510.08	28421.13
510.25	28580.28
510.42	28819.02
510.60	28746.46
510.77	28713.69
510.95	29322.23
511.12	29296.49
511.30	29364.36
511.47	29401.81
511.64	29502.45
511.82	29785.66
511.99	29617.14
512.17	29811.40
512.34	29233.29
512.51	29825.45
512.69	30040.78
512.86	30120.35
513.04	30101.63
513.21	29996.31
513.38	30162.48
513.56	30588.46
513.73	30089.93
513.90	30536.97
514.08	30300.58
514.25	30309.94
514.43	30567.40
514.60	30895.07
514.77	30843.58
514.95	30859.96
515.12	30941.88
515.29	30831.88
515.47	31047.21
515.64	30792.09
515.81	30897.41
515.99	31175.94
516.16	31730.64
516.33	31587.87
516.51	31529.36
516.68	31222.75
516.85	31466.16
517.03	31644.04
517.20	31871.07
517.37	31644.04
517.54	31948.31
517.72	31761.07
517.89	32102.79
518.06	32659.84
518.24	32142.58
518.41	32275.99
518.58	31786.82
518.75	32168.32
518.93	32306.41
519.10	32023.21
519.27	32683.24
519.45	32458.55
519.62	32716.01
519.79	33060.07
519.96	32704.31
520.14	32985.17
520.31	32638.77
520.48	33050.70
520.65	33312.84
520.83	33528.17
521.00	33439.23
521.17	33273.06
521.34	33280.08
521.52	34106.29
521.69	33549.24
521.86	33699.03
522.03	33841.81
522.20	33827.76
522.38	34176.50
522.55	34260.76
522.72	33425.19
522.89	34157.78
523.07	34796.74
523.24	33855.85
523.41	34326.30
523.58	33851.17
523.75	34026.71
523.92	34293.53
524.10	34471.41
524.27	34623.54
524.44	34782.70
524.61	35108.04
524.78	34993.35
524.96	35260.17
525.13	34883.34
525.30	34976.97
525.47	34827.17
525.64	35173.57
525.81	35281.24
525.98	35517.63
526.16	35218.04
526.33	35445.07
526.50	35419.33
526.67	35428.69
526.84	35564.44
527.01	35051.86
527.18	35566.78
527.36	35646.36
527.53	35442.73
527.70	36381.29
527.87	35791.47
528.04	36051.27
528.21	36212.77
528.38	36367.24
528.55	36224.47
528.72	36009.14
528.89	36287.67
529.07	36339.16
529.24	36425.76
529.41	36598.96
529.58	36615.34
529.75	36708.96
529.92	36526.40
530.09	36329.80
530.26	36355.54
530.43	36407.03
530.60	36524.06
530.77	36821.31
530.94	36783.86
531.11	36659.81
531.28	37069.40
531.46	37202.82
531.63	37200.47
531.80	37048.34
531.97	37691.99
532.14	37090.47
532.31	37092.81
532.48	37446.23
532.65	37563.26
532.82	37345.59
532.99	37408.78
533.16	37544.53
533.33	37659.22
533.50	37607.73
533.67	37713.05
533.84	37230.90
534.01	37598.37
534.18	37380.70
534.35	38417.55
534.52	38050.09
534.69	38373.08
534.86	38464.36
535.03	38127.33
535.20	38211.59
535.37	38115.62
535.54	38375.42
535.71	38684.37
535.88	38436.28
536.05	38391.81
536.22	38895.02
536.38	38417.55
536.55	38541.60
536.72	38572.03
536.89	38345.00
537.06	38469.04
537.23	39143.12
537.40	38909.07
537.57	38724.16
537.74	38710.12
537.91	39070.56
538.08	38930.13
538.25	38754.59
538.42	38684.37
538.59	39175.89
538.75	39079.92
538.92	39697.83
539.09	39559.73
539.26	39182.91
539.43	39171.21
539.60	39910.82
539.77	39496.54
539.94	39983.37
540.11	39667.40
540.28	39578.46
540.44	39709.53
540.61	39910.82
540.78	39655.70
540.95	39913.16
541.12	39358.45
541.29	40203.38
541.46	39583.14
541.62	39899.11
541.79	40051.25
541.96	39379.51
542.13	39608.89
542.30	39887.41
542.47	39927.20
542.63	40243.17
542.80	40517.01
542.97	41090.44
543.14	40767.45
543.31	40395.31
543.48	40165.93
543.64	41038.95
543.81	40886.82
543.98	40463.18
544.15	40907.88
544.32	40992.14
544.48	41177.04
544.65	41291.73
544.82	41099.81
544.99	40690.21
545.16	40964.06
545.32	40802.56
545.49	41228.54
545.66	41748.14
545.83	41170.02
546.00	41841.76
546.16	41427.48
546.33	40917.25
546.50	41411.10
546.67	41509.40
546.83	41130.23
547.00	41125.55
547.17	41537.49
547.34	41603.02
547.50	42000.91
547.67	42270.08
547.84	41855.80
548.00	41893.25
548.17	42328.59
548.34	42019.64
548.51	42209.22
548.67	42234.97
548.84	42068.79
549.01	41982.19
549.18	41890.91
549.34	42012.62
549.51	42064.11
549.68	42263.05
549.84	41914.31
550.01	42560.30
550.18	42426.89
550.34	42445.62
550.51	42831.80
550.68	42625.84
550.84	42026.66
551.01	42483.06
551.18	42412.85
551.34	42438.59
551.51	42539.24
551.68	42724.14
551.84	43145.44
552.01	42632.86
552.18	42782.65
552.34	42822.44
552.51	42923.08
552.68	42637.54
552.84	42976.92
553.01	43072.88
553.18	42590.73
553.34	42813.08
553.51	42799.04
553.67	43318.64
553.84	42836.48
554.01	43227.35
554.17	43009.68
554.34	43269.48
554.51	43161.82
554.67	43540.99
554.84	43412.26
555.00	43466.09
555.17	43459.07
555.33	43330.34
555.50	43374.81
555.67	43412.26
555.83	43110.33
556.00	43643.97
556.16	44559.12
556.33	43826.53
556.50	43606.52
556.66	43742.27
556.83	43622.90
556.99	44009.09
557.16	43800.79
557.32	44151.87
557.49	44371.88
557.65	44037.18
557.82	43510.56
557.98	43632.27
558.15	43552.69
558.32	44058.24
558.48	44196.34
558.65	43938.88
558.81	43679.08
558.98	43826.53
559.14	44018.46
559.31	43945.90
559.47	44315.70
559.64	44278.25
559.80	43985.69
559.97	44416.35
560.13	44278.25
560.30	44238.47
560.46	44725.30
560.63	44807.22
560.79	44273.57
560.96	44495.92
561.12	44250.17
561.29	44720.62
561.45	44938.29
561.61	44437.41
561.78	44437.41
561.94	44598.91
562.11	44383.58
562.27	44748.70
562.44	44376.56
562.60	45137.23
562.77	44535.71
562.93	44479.54
563.10	44346.13
563.26	44456.14
563.42	45167.66
563.59	44526.35
563.75	44519.33
563.92	44942.97
564.08	44636.36
564.24	44582.52
564.41	44385.92
564.57	45350.22
564.74	44832.96
564.90	44573.16
565.07	45167.66
565.23	44715.93
565.39	45127.87
565.56	44947.65
565.72	44512.31
565.88	45081.06
566.05	44896.16
566.21	45186.38
566.38	45125.53
566.54	45287.03
566.70	45151.27
566.87	44959.35
567.03	44762.75
567.19	45308.09
567.36	45153.62
567.52	45153.62
567.68	45691.94
567.85	45340.86
568.01	45287.03
568.17	45390.01
568.34	45371.28
568.50	45223.83
568.66	44762.75
568.83	45134.89
568.99	44975.73
569.15	45263.62
569.32	44987.44
569.48	45195.74
569.64	45757.47
569.81	45408.73
569.97	45167.66
570.13	45837.05
570.30	44900.84
570.46	45570.23
570.62	45209.79
570.78	45736.41
570.95	45319.79
571.11	45591.30
571.27	45167.66
571.43	45331.50
571.60	45368.94
571.76	45298.73
571.92	45284.68
572.09	45588.95
572.25	45364.26
572.41	45390.01
572.57	45762.15
572.74	45710.66
572.90	45586.61
573.06	45860.46
573.22	45801.94
573.38	45855.78
573.55	45553.85
573.71	46155.36
573.87	45811.31
574.03	45457.88
574.20	45827.69
574.36	45818.33
574.52	45851.09
574.68	45673.21
574.84	46239.62
575.01	46190.47
575.17	45963.44
575.33	45921.31
575.49	45530.44
575.65	45949.40
575.82	45890.88
575.98	45801.94
576.14	46146.00
576.30	46209.20
576.46	45713.00
576.62	45546.82
576.79	45853.44
576.95	45116.17
577.11	45488.31
577.27	45928.33
577.43	46045.36
577.59	45958.76
577.75	46078.13
577.92	45380.65
578.08	45930.67
578.24	46052.38
578.40	45890.88
578.56	45691.94
578.72	46195.15
578.88	46277.07
579.04	46178.77
579.21	46253.67
579.37	45897.91
579.53	46124.94
579.69	45834.71
579.85	46064.08
580.01	46089.83
580.17	45921.31
580.33	46038.34
580.49	45860.46
580.65	46351.97
580.82	45759.81
580.98	45916.63
581.14	45570.23
581.30	46021.95
581.46	45528.10
581.62	45851.09
581.78	45996.21
581.94	46225.58
582.10	46101.53
582.26	46031.32
582.42	46085.15
582.58	46171.75
582.74	46204.52
582.90	46045.36
583.06	46188.13
583.22	45886.20
583.38	45886.20
583.54	45986.85
583.70	46019.61
583.86	46096.85
584.02	45935.35
584.18	46635.17
584.34	46330.90
584.50	46494.74
584.66	46539.21
584.82	46438.57
584.98	46349.63
585.14	46405.80
585.30	45705.98
585.46	46284.09
585.62	46183.45
585.78	46431.55
585.94	46305.16
586.10	46248.99
586.26	45911.95
586.42	46066.42
586.58	46293.46
586.74	46066.42
586.90	46031.32
587.06	46377.72
587.22	46557.94
587.38	45984.51
587.54	46073.45
587.70	46120.26
587.86	46806.03
588.02	46380.06
588.18	46314.52
588.34	46265.37
588.49	46478.36
588.65	46103.87
588.81	46469.00
588.97	46148.34
589.13	46078.13
589.29	46052.38
589.45	46412.82
589.61	46529.85
589.77	46396.44
589.93	46614.11
590.08	46614.11
590.24	47004.98
590.40	46618.79
590.56	47084.56
590.72	46733.48
590.88	46686.67
591.04	46445.59
591.20	46894.97
591.35	46546.23
591.51	47002.64
591.67	46696.03
591.83	46827.10
591.99	46710.07
592.15	46433.89
592.31	46967.53
592.46	46471.34
592.62	46920.72
592.78	46885.61
592.94	47051.79
593.10	47264.78
593.26	47084.56
593.41	46845.82
593.57	46913.70
593.73	46740.50
593.89	46986.25
594.05	46838.80
594.20	46623.47
594.36	47110.30
594.52	47040.09
594.68	46841.14
594.84	46611.77
594.99	47033.07
595.15	46829.44
595.31	46667.94
595.47	46838.80
595.62	46600.07
595.78	46707.73
595.94	47117.32
596.10	47077.54
596.25	47082.22
596.41	46892.63
596.57	47281.16
596.73	46958.17
596.88	47316.27
597.04	47079.88
597.20	46845.82
597.36	47044.77
597.51	47098.60
597.67	46789.65
597.83	46855.18
597.99	47178.18
598.14	46476.02
598.30	46899.65
598.46	47007.32
598.61	46960.51
598.77	46494.74
598.93	46930.08
599.09	47096.26
599.24	47377.12
599.40	47215.63
599.56	47309.25
599.71	47377.12
599.87	47814.80
600.03	47702.46
600.18	47332.65
600.34	47026.04
600.50	47281.16
600.65	46801.35
600.81	47285.84
600.97	47526.92
601.12	47047.11
601.28	47079.88
601.44	47019.02
601.59	46749.86
601.75	46972.21
601.91	47482.45
602.06	47152.43
602.22	47466.06
602.37	47122.01
602.53	47215.63
602.69	47037.75
602.84	47241.37
603.00	47072.85
603.16	47257.76
603.31	46913.70
603.47	46878.59
603.62	47026.04
603.78	47599.47
603.94	46768.58
604.09	47227.33
604.25	46831.78
604.40	47117.32
604.56	47271.80
604.71	47194.56
604.87	47372.44
605.03	46770.93
605.18	47150.09
605.34	47044.77
605.49	46508.79
605.65	47049.45
605.80	46951.15
605.96	47262.44
606.12	47016.68
606.27	47309.25
606.43	46782.63
606.58	47281.16
606.74	46850.50
606.89	47576.07
607.05	46944.12
607.20	46817.74
607.36	46497.08
607.51	47320.95
607.67	46740.50
607.82	46726.46
607.98	46892.63
608.13	47255.42
608.29	46429.21
608.44	47171.16
608.60	46871.57
608.75	46941.78
608.91	46960.51
609.06	46504.10
609.22	46845.82
609.37	46461.97
609.53	46948.81
609.68	46567.30
609.84	46864.55
609.99	47131.37
610.15	46976.89
610.30	46784.97
610.46	46560.28
610.61	46932.42
610.76	46686.67
610.92	46660.92
611.07	46541.55
611.23	46504.10
611.38	46684.33
611.54	46976.89
611.69	46349.63
611.84	46962.85
612.00	46880.93
612.15	46520.49
612.31	46607.09
612.46	46595.38
612.62	46487.72
612.77	46316.86
612.92	46696.03
613.08	46267.71
613.23	46302.82
613.39	46408.14
613.54	45902.59
613.69	46670.28
613.85	46234.94
614.00	46419.84
614.15	46438.57
614.31	46295.80
614.46	46508.79
614.62	46146.00
614.77	46340.27
614.92	46370.69
615.08	46131.96
615.23	46583.68
615.38	46635.17
615.54	46279.41
615.69	46724.11
615.84	46476.02
616.00	46333.24
616.15	46211.54
616.30	46263.03
616.46	46110.89
616.61	46047.70
616.76	46447.93
616.92	45879.18
617.07	46183.45
617.22	46637.51
617.37	45879.18
617.53	46354.31
617.68	45820.67
617.83	46300.48
617.99	46234.94
618.14	46508.79
618.29	46066.42
618.45	45776.20
618.60	45823.01
618.75	45780.88
618.90	45647.47
619.06	45752.79
619.21	45968.12
619.36	46234.94
619.51	45453.20
619.67	45876.84
619.82	45696.62
619.97	45808.96
620.12	46066.42
620.28	45481.29
620.43	45991.53
620.58	45935.35
620.73	45647.47
620.89	46204.52
621.04	46171.75
621.19	45528.10
621.34	45514.06
621.49	45787.90
621.65	45504.70
621.80	45897.91
621.95	45572.57
622.10	45549.17
622.25	45717.68
622.41	45532.78
622.56	45329.16
622.71	45563.21
622.86	45537.46
623.01	45492.99
623.16	45605.34
623.32	45221.49
623.47	44865.73
623.62	45523.42
623.77	45619.38
623.92	45331.50
624.07	45141.91
624.23	45202.77
624.38	45539.80
624.53	45687.26
624.68	44823.60
624.83	45141.91
624.98	44739.34
625.13	44765.09
625.29	45474.27
625.44	45034.25
625.59	44992.12
625.74	44931.26
625.89	44804.88
626.04	45102.12
626.19	44891.48
626.34	44678.49
626.49	44725.30
626.65	44549.76
626.80	44460.82
626.95	44629.34
627.10	44704.23
627.25	44825.94
627.40	44760.40
627.55	44868.07
627.70	44589.55
627.85	44739.34
628.00	44659.76
628.15	44397.62
628.30	44329.75
628.45	44037.18
628.60	44208.04
628.76	44626.99
628.91	44486.56
629.06	44109.74
629.21	44119.10
629.36	44179.95
629.51	44259.53
629.66	44514.65
629.81	44341.45
629.96	43964.62
630.11	44240.81
630.26	44154.21
630.41	44519.33
630.56	44189.31
630.71	44161.23
630.86	44105.06
631.01	43901.43
631.16	43871.00
631.31	44460.82
631.46	43892.07
631.61	43985.69
631.76	44112.08
631.91	44027.82
632.06	44479.54
632.21	44179.95
632.36	43894.41
632.51	43688.44
632.66	44247.83
632.81	43653.33
632.96	44091.01
633.10	43711.84
633.25	43938.88
633.40	43800.79
633.55	44142.50
633.70	43716.53
633.85	43498.86
634.00	43508.22
634.15	43131.39
634.30	43587.80
634.45	43571.41
634.60	43421.62
634.75	43407.58
634.90	43578.43
635.05	43803.13
635.19	43524.60
635.34	43475.45
635.49	43409.92
635.64	43613.54
635.79	43660.35
635.94	43578.43
636.09	43435.66
636.24	43182.88
636.39	43400.55
636.53	43489.49
636.68	42946.49
636.83	42581.37
636.98	42962.87
637.13	42567.32
637.28	43262.46
637.43	43416.94
637.57	43239.06
637.72	42880.95
637.87	42902.02
638.02	42953.51
638.17	43157.14
638.32	42728.82
638.46	42330.93
638.61	42792.01
638.76	42766.27
638.91	42471.36
639.06	42363.70
639.20	42478.38
639.35	42293.48
639.50	42546.26
639.65	42672.65
639.80	42656.26
639.94	42925.42
640.09	42887.98
640.24	42712.44
640.39	42440.93
640.54	42139.00
640.68	42890.32
640.83	42548.60
640.98	42213.90
641.13	41989.21
641.27	42457.32
641.42	42351.99
641.57	42380.08
641.72	42724.14
641.86	42536.90
642.01	42103.90
642.16	42249.01
642.31	41837.08
642.45	42459.66
642.60	42150.71
642.75	42057.09
642.90	42068.79
643.04	42014.96
643.19	41846.44
643.34	42059.43
643.48	41598.34
643.63	41881.55
643.78	41947.08
643.93	42188.16
644.07	42124.96
644.22	42157.73
644.37	41752.82
644.51	42050.06
644.66	41806.65
644.81	41787.92
644.95	41975.17
645.10	41963.46
645.25	41415.78
645.39	41881.55
645.54	41649.83
645.69	41439.18
645.83	41270.67
645.98	41696.64
646.13	41614.72
646.27	41567.91
646.42	41731.75
646.57	41539.83
646.71	41331.52
646.86	41876.86
647.00	41921.34
647.15	41427.48
647.30	41490.68
647.44	41347.90
647.59	41247.26
647.74	40910.22
647.88	41329.18
648.03	41610.04
648.17	41347.90
648.32	41691.96
648.47	41420.46
648.61	40992.14
648.76	40973.42
648.90	41090.44
649.05	41359.61
649.20	41425.14
649.34	41460.25
649.49	41127.89
649.63	41486.00
649.78	41177.04
649.92	40950.01
650.07	41308.11
650.21	41338.54
650.36	41633.45
650.51	41392.37
650.65	41097.47
650.80	40992.14
650.94	41462.59
651.09	41139.60
651.23	40741.71
651.38	40477.22
651.52	40444.46
651.67	40531.06
651.81	40627.02
651.96	40521.69
652.10	40416.37
652.25	40016.14
652.39	40781.49
652.54	41170.02
652.68	40488.93
652.83	40610.64
652.97	40886.82
653.12	40327.43
653.26	40336.79
653.41	40542.76
653.55	40538.08
653.70	40460.84
653.84	40648.08
653.99	40748.73
654.13	40470.20
654.27	40062.95
654.42	40577.87
654.56	40240.83
654.71	40442.12
654.85	40418.71
655.00	40287.64
655.14	40638.72
655.29	40591.91
655.43	40479.57
655.57	39892.09
655.72	39929.54
655.86	40353.18
656.01	40238.49
656.15	39487.18
656.30	40212.74
656.44	39880.39
656.58	40285.30
656.73	39922.52
656.87	39992.73
657.01	39526.97
657.16	39889.75
657.30	39835.92
657.45	39536.33
657.59	39555.05
657.73	39625.27
657.88	39370.15
658.02	40182.32
658.16	39917.84
658.31	39480.16
658.45	40062.95
658.60	39590.16
658.74	39721.23
658.88	39248.44
659.03	39096.31
659.17	39178.23
659.31	38869.28
659.46	38967.58
659.60	39398.24
659.74	38834.17
659.89	38813.10
660.03	38677.35
660.17	39335.04
660.32	39227.38
660.46	39159.50
660.60	39026.09
660.74	38756.93
660.89	39152.48
661.03	38721.82
661.17	38433.94
661.32	38389.47
661.46	38520.54
661.60	38270.10
661.74	38412.87
661.89	38094.56
662.03	38440.96
662.17	38272.44
662.31	37909.66
662.46	38155.41
662.60	37944.76
662.74	37858.17
662.88	38059.45
663.03	37972.85
663.17	37610.07
663.31	37916.68
663.45	37654.54
663.60	38211.59
663.74	37713.05
663.88	37869.87
664.02	37563.26
664.17	37876.89
664.31	37577.30
664.45	37666.24
664.59	37605.39
664.73	37385.38
664.88	37443.89
665.02	37406.44
665.16	37237.92
665.30	37165.37
665.44	37181.75
665.59	36980.46
665.73	36739.39
665.87	36435.12
666.01	37069.40
666.15	36854.08
666.29	36966.42
666.44	36971.10
666.58	36624.70
666.72	36435.12
666.86	36711.30
667.00	36381.29
667.14	36608.32
667.28	36474.91
667.43	36397.67
667.57	36697.26
667.71	36411.71
667.85	36327.45
667.99	36343.84
668.13	35936.59
668.27	36051.27
668.41	36025.53
668.56	35742.32
668.70	35730.62
668.84	35697.85
668.98	35917.86
669.12	35690.83
669.26	35683.81
669.40	35697.85
669.54	35849.99
669.68	35587.85
669.82	35489.54
669.96	35007.39
670.10	34981.65
670.25	35166.55
670.39	34925.47
670.53	35426.35
670.67	34658.65
670.81	35737.64
670.95	35061.22
671.09	34644.61
671.23	34635.25
671.37	34834.19
671.51	34799.08
671.65	34499.50
671.79	34586.10
671.93	34431.62
672.07	34756.96
672.21	34532.26
672.35	34153.10
672.49	34026.71
672.63	34394.17
672.77	33963.51
672.91	34045.43
673.05	34132.03
673.19	33530.51
673.33	33617.11
673.47	33619.46
673.61	33326.89
673.75	33362.00
673.89	33397.10
674.03	33394.76
674.17	33048.36
674.31	33158.37
674.45	32931.34
674.59	33158.37
674.73	32893.89
674.87	32730.05
675.01	32573.24
675.15	32566.21
675.29	32425.78
675.43	32676.22
675.56	32847.08
675.70	32451.53
675.84	32362.59
675.98	31370.20
676.12	31992.78
676.26	32079.38
676.40	31899.16
676.54	31854.69
676.68	31789.16
676.82	31173.60
676.96	32048.96
677.10	31522.34
677.23	31438.08
677.37	31503.61
677.51	31548.08
677.65	31126.78
677.79	30995.71
677.93	31522.34
678.07	30969.97
678.21	30918.48
678.34	30632.93
678.48	30787.41
678.62	30745.28
678.76	30244.40
678.90	30059.50
679.04	30347.39
679.18	30370.79
679.31	30017.37
679.45	29963.54
679.59	29596.07
679.73	30127.38
679.87	29298.83
680.00	29731.83
680.14	29759.91
680.28	29752.89
680.42	29495.43
680.56	29280.10
680.70	29273.08
680.83	28606.03
680.97	28678.58
681.11	28744.12
681.25	28713.69
681.39	28470.28
681.52	28481.98
681.66	28346.23
681.80	28032.60
681.94	27981.10
682.07	27777.48
682.21	27594.92
682.35	27943.66
682.49	27660.45
682.62	27721.30
682.76	27847.69
682.90	27896.85
683.04	27758.75
683.17	27459.16
683.31	27314.05
683.45	27276.60
683.59	26995.74
683.72	26836.58
683.86	26843.60
684.00	27012.12
684.13	26904.46
684.27	26410.60
684.41	26419.97
684.55	26546.36
684.68	26494.86
684.82	26143.78
684.96	26094.63
685.09	26284.22
685.23	25848.88
685.37	26513.59
685.50	26272.51
685.64	25968.24
685.78	25465.03
685.91	25647.59
686.05	24905.64
686.19	25039.05
686.32	25404.17
686.46	24507.75
686.60	24917.34
686.73	24823.72
686.87	24652.86
687.01	25064.80
687.14	24638.82
687.28	24926.71
687.42	24954.79
687.55	24327.53
687.69	24418.81
687.82	23948.36
687.96	24194.12
688.10	24095.82
688.23	24081.77
688.37	24116.88
688.50	24100.50
688.64	23920.28
688.78	23798.57
688.91	23665.16
689.05	23405.36
689.18	23166.62
689.32	22995.76
689.46	22897.46
689.59	22977.04
689.73	23360.89
689.86	23229.82
690.00	23087.04
690.13	22824.90
690.27	22787.46
690.41	22824.90
690.54	22452.76
690.68	22120.40
690.81	22012.74
690.95	22221.05
691.08	22230.41
691.22	22104.02
691.35	21886.35
691.49	21837.20
691.62	21926.14
691.76	21626.55
691.89	21345.69
692.03	21020.35
692.16	21092.91
692.30	21238.02
692.43	21179.51
692.57	20856.51
692.70	21081.21
692.84	20840.13
692.97	20652.89
693.11	20837.79
693.24	20407.13
693.38	20395.43
693.51	20182.44
693.65	20285.42
693.78	20247.97
693.92	20240.95
694.05	20030.30
694.19	19887.53
694.32	19843.06
694.45	19831.36
694.59	20170.74
694.72	19976.47
694.86	19360.91
694.99	19278.99
695.13	19433.47
695.26	19213.46
695.39	18951.32
695.53	18993.45
695.66	19061.32
695.80	18876.42
695.93	18984.09
696.07	18993.45
696.20	18572.15
696.33	18415.34
696.47	18728.97
696.60	18480.87
696.73	18469.17
696.87	18490.23
697.00	18375.55
697.14	18115.75
697.27	18064.25
697.40	18232.77
697.54	18022.12
697.67	17750.62
697.80	17895.74
697.94	17977.65
698.07	17490.82
698.21	17474.44
698.34	17334.01
698.47	17277.83
698.61	17036.76
698.74	16989.95
698.87	16966.54
699.01	17043.78
699.14	16809.73
699.27	17177.19
699.40	16812.07
699.54	16671.64
699.67	16718.45
699.80	16470.35
699.94	16713.77
700.07	16510.14
700.20	16634.19
700.34	16453.97
700.47	16205.87
700.60	16503.12
700.73	16121.61
700.87	15953.09
701.00	15740.10
701.13	15674.57
701.26	15634.78
701.40	15857.13
701.53	15433.49
701.66	15702.65
701.79	15555.20
701.93	15143.27
702.06	15215.82
702.19	15089.43
702.32	15346.89
702.46	15300.08
702.59	15176.03
702.72	14972.41
702.85	15049.64
702.99	15119.86
703.12	14829.63
703.25	14471.53
703.38	14593.24
703.51	14731.33
703.65	14445.79
703.78	14157.90
703.91	14237.48
704.04	13984.70
704.17	14078.32
704.31	14164.92
704.44	13811.50
704.57	13694.47
704.70	13879.38
704.83	13570.43
704.96	13664.05
705.10	13790.44
705.23	13673.41
>>>>>End Processed Spectral Data<<<<<
