SpectraSuite Data File
++++++++++++++++++++++++++++++++++++
Date: Fri Oct 25 10:44:22 EDT 2013
User: price-jones
Dark Spectrum Present: No
Reference Spectrum Present: No
Number of Sampled Component Spectra: 1
Spectrometers: USB2+H05261
Integration Time (usec): 100000 (USB2+H05261)
Spectra Averaged: 1 (USB2+H05261)
Boxcar Smoothing: 0 (USB2+H05261)
Correct for Electrical Dark: No (USB2+H05261)
Strobe/Lamp Enabled: No (USB2+H05261)
Correct for Detector Non-linearity: No (USB2+H05261)
Correct for Stray Light: No (USB2+H05261)
Number of Pixels in Processed Spectrum: 2048
>>>>>Begin Processed Spectral Data<<<<<
365.73	187.24
365.92	187.24
366.12	187.24
366.32	70.22
366.52	39.79
366.72	0.00
366.91	39.79
367.11	51.49
367.31	14.04
367.51	9.36
367.70	7.02
367.90	37.45
368.10	46.81
368.30	65.54
368.49	9.36
368.69	32.77
368.89	37.45
369.09	88.94
369.28	53.83
369.48	39.79
369.68	79.58
369.87	70.22
370.07	88.94
370.27	42.13
370.47	131.07
370.66	404.91
370.86	482.15
371.06	507.90
371.25	606.20
371.45	468.11
371.65	440.02
371.84	475.13
372.04	468.11
372.24	493.85
372.44	433.00
372.63	585.13
372.83	543.00
373.03	475.13
373.22	475.13
373.42	599.18
373.62	526.62
373.81	524.28
374.01	690.46
374.21	531.30
374.40	517.26
374.60	578.11
374.79	550.03
374.99	629.60
375.19	564.07
375.38	575.77
375.58	606.20
375.78	690.46
375.97	648.33
376.17	685.78
376.37	699.82
376.56	664.71
376.76	613.22
376.95	552.37
377.15	688.12
377.35	629.60
377.54	671.73
377.74	720.88
377.93	643.65
378.13	767.70
378.33	704.50
378.52	723.23
378.72	765.36
378.91	678.76
379.11	631.94
379.31	683.44
379.50	723.23
379.70	716.20
379.89	669.39
380.09	650.67
380.28	709.18
380.48	671.73
380.68	730.25
380.87	786.42
381.07	784.08
381.26	774.72
381.46	711.52
381.65	763.01
381.85	678.76
382.04	660.03
382.24	704.50
382.43	821.53
382.63	702.16
382.83	788.76
383.02	823.87
383.22	737.27
383.41	800.46
383.61	779.40
383.80	798.12
384.00	777.06
384.19	753.65
384.39	793.44
384.58	828.55
384.78	812.17
384.97	805.14
385.17	866.00
385.36	772.38
385.56	858.98
385.75	894.08
385.95	849.61
386.14	903.45
386.34	842.59
386.53	884.72
386.72	861.32
386.92	891.74
387.11	863.66
387.31	933.87
387.50	912.81
387.70	870.68
387.89	922.17
388.09	868.34
388.28	856.64
388.48	938.55
388.67	997.07
388.86	971.32
389.06	957.28
389.25	926.85
389.45	1032.18
389.64	1055.58
389.84	1034.52
390.03	1062.60
390.22	1057.92
390.42	987.71
390.61	1121.12
390.81	1027.50
391.00	1088.35
391.19	1212.40
391.39	1069.62
391.58	1088.35
391.78	1174.95
391.97	1111.75
392.16	1088.35
392.36	1144.52
392.55	1102.39
392.75	1046.22
392.94	1039.20
393.13	1078.99
393.33	1027.50
393.52	1034.52
393.71	1193.67
393.91	1043.88
394.10	1048.56
394.29	1165.59
394.49	1160.91
394.68	1181.97
394.88	1214.74
395.07	1355.17
395.26	1238.14
395.46	1287.29
395.65	1186.65
395.84	1282.61
396.04	1277.93
396.23	1165.59
396.42	1057.92
396.62	1284.95
396.81	1266.23
397.00	1327.08
397.19	1228.78
397.39	1413.68
397.58	1460.49
397.77	1472.20
397.97	1369.21
398.16	1474.54
398.35	1451.13
398.55	1383.26
398.74	1507.30
398.93	1612.63
399.12	1619.65
399.32	1565.82
399.51	1537.73
399.70	1598.59
399.90	1476.88
400.09	1565.82
400.28	1584.54
400.47	1661.78
400.67	1734.34
400.86	1753.06
401.05	1832.64
401.24	1722.63
401.44	1732.00
401.63	1895.83
401.82	1902.86
402.01	1792.85
402.21	1834.98
402.40	1804.55
402.59	1809.23
402.78	1776.47
402.97	1741.36
403.17	1905.20
403.36	1834.98
403.55	1923.92
403.74	1963.71
403.93	2031.58
404.13	2062.01
404.32	1907.54
404.51	1963.71
404.70	2033.93
404.89	2026.90
405.09	1984.77
405.28	1867.75
405.47	2017.54
405.66	2052.65
405.85	2057.33
406.05	2057.33
406.24	2078.40
406.43	2097.12
406.62	2040.95
406.81	2312.45
407.00	2106.48
407.20	2127.55
407.39	2094.78
407.58	2251.60
407.77	2258.62
407.96	2368.62
408.15	2389.69
408.34	2277.34
408.54	2340.54
408.73	2434.16
408.92	2410.75
409.11	2385.01
409.30	2347.56
409.49	2328.83
409.68	2413.09
409.87	2408.41
410.07	2410.75
410.26	2537.14
410.45	2469.27
410.64	2626.08
410.83	2586.29
411.02	2593.31
411.21	2689.28
411.40	2553.52
411.59	2684.59
411.78	2759.49
411.98	2726.72
412.17	2733.75
412.36	2775.88
412.55	2827.37
412.74	2836.73
412.93	2853.11
413.12	2750.13
413.31	2902.26
413.50	2869.50
413.69	2937.37
413.88	3042.70
414.07	3061.42
414.26	3138.66
414.45	3042.70
414.64	3012.27
414.83	3173.77
415.02	3119.93
415.22	3143.34
415.41	3225.26
415.60	3162.06
415.79	3239.30
415.98	3431.23
416.17	3396.12
416.36	3361.01
416.55	3365.69
416.74	3389.10
416.93	3384.41
417.12	3445.27
417.31	3478.04
417.50	3482.72
417.69	3494.42
417.88	3681.66
418.07	3487.40
418.26	3471.01
418.45	3492.08
418.64	3623.15
418.83	3681.66
419.02	3630.17
419.21	3756.56
419.39	3651.24
419.58	3686.34
419.77	3597.40
419.96	3623.15
420.15	3735.50
420.34	3794.01
420.53	3983.59
420.72	4065.51
420.91	3836.14
421.10	3936.78
421.29	4056.15
421.48	3894.65
421.67	3911.04
421.86	3911.04
422.05	4060.83
422.24	3992.95
422.43	3843.16
422.61	4007.00
422.80	4037.42
422.99	3999.98
423.18	4126.36
423.37	4074.87
423.56	4135.73
423.75	4060.83
423.94	4018.70
424.13	3751.88
424.32	3934.44
424.50	3927.42
424.69	4173.18
424.88	4133.39
425.07	4014.02
425.26	3857.20
425.45	4156.79
425.64	3976.57
425.83	4074.87
426.01	4231.69
426.20	4100.62
426.39	4124.02
426.58	4133.39
426.77	4091.26
426.96	4049.13
427.15	4030.40
427.33	4241.05
427.52	4308.93
427.71	4346.37
427.90	4238.71
428.09	4376.80
428.28	4238.71
428.46	4219.99
428.65	4229.35
428.84	4376.80
429.03	4447.02
429.22	4201.26
429.40	4463.40
429.59	4208.28
429.78	4056.15
429.97	3906.35
430.16	4138.07
430.34	4243.39
430.53	4280.84
430.72	4351.06
430.91	4409.57
431.10	4503.19
431.28	4620.22
431.47	4755.97
431.66	4767.67
431.85	4657.67
432.03	4713.84
432.22	4840.23
432.41	4751.29
432.60	4826.18
432.79	4741.93
432.97	4943.21
433.16	5027.47
433.35	4842.57
433.54	4718.52
433.72	4910.44
433.91	4823.84
434.10	4854.27
434.28	4931.51
434.47	5004.07
434.66	5036.83
434.85	5006.41
435.03	5085.98
435.22	5060.24
435.41	5224.08
435.59	5242.80
435.78	5156.20
435.97	5235.78
436.16	5289.61
436.34	5425.36
436.53	5500.26
436.72	5481.53
436.90	5191.31
437.09	5399.62
437.28	5123.43
437.46	5359.83
437.65	5425.36
437.84	5364.51
438.02	5224.08
438.21	5280.25
438.40	5322.38
438.58	5537.71
438.77	5607.92
438.96	5460.47
439.14	5743.67
439.33	5699.20
439.52	5724.95
439.70	5818.57
439.89	5806.87
440.08	5788.14
440.26	5870.06
440.45	5858.36
440.63	5989.43
440.82	6272.64
441.01	5954.32
441.19	6071.35
441.38	6324.13
441.57	6289.02
441.75	6417.75
441.94	6352.21
442.12	6427.11
442.31	6628.40
442.50	6569.88
442.68	6410.73
442.87	6607.33
443.05	6581.59
443.24	6656.48
443.43	6581.59
443.61	6621.38
443.80	6717.34
443.98	6541.80
444.17	6377.96
444.35	6707.98
444.54	6860.11
444.73	6752.45
444.91	6665.85
445.10	6757.13
445.28	6520.73
445.47	6675.21
445.65	6820.32
445.84	6764.15
446.02	6789.89
446.21	6661.16
446.39	6853.09
446.58	6771.17
446.77	6932.67
446.95	6846.07
447.14	6773.51
447.32	6923.30
447.51	6920.96
447.69	6794.58
447.88	6913.94
448.06	7063.74
448.25	7002.88
448.43	6993.52
448.62	6813.30
448.80	6988.84
448.99	6988.84
449.17	7000.54
449.36	6909.26
449.54	7332.90
449.73	7412.48
449.91	7442.90
450.10	7424.18
450.28	7492.05
450.46	7492.05
450.65	7478.01
450.83	7412.48
451.02	7400.77
451.20	7595.04
451.39	7669.94
451.57	7393.75
451.76	7531.84
451.94	7557.59
452.13	7480.35
452.31	7541.21
452.49	7307.15
452.68	7379.71
452.86	7529.50
453.05	7372.69
453.23	7501.42
453.42	7372.69
453.60	7508.44
453.78	8046.76
453.97	7602.06
454.15	7527.16
454.34	7550.57
454.52	7810.37
454.70	7801.01
454.89	7878.24
455.07	7810.37
455.26	7941.44
455.44	8205.92
455.62	7815.05
455.81	7969.52
455.99	7985.91
456.17	8156.77
456.36	8030.38
456.54	8079.53
456.73	8243.37
456.91	8400.18
457.09	8428.27
457.28	8512.53
457.46	8262.09
457.64	8348.69
457.83	8496.14
458.01	8344.01
458.19	8456.36
458.38	8517.21
458.56	8458.70
458.74	8397.84
458.93	8575.72
459.11	8566.36
459.29	8432.95
459.48	8589.77
459.66	8580.40
459.84	8524.23
460.03	8814.46
460.21	8739.56
460.39	8671.68
460.57	9027.45
460.76	8615.51
460.94	8879.99
461.12	8947.87
461.31	8908.08
461.49	8847.22
461.67	8835.52
461.85	9191.28
462.04	9074.26
462.22	9249.80
462.40	9210.01
462.59	9163.20
462.77	9350.44
462.95	9245.12
463.13	9144.47
463.32	9036.81
463.50	9135.11
463.68	9467.47
463.86	9401.93
464.05	9256.82
464.23	9163.20
464.41	9458.10
464.59	9334.06
464.78	9413.63
464.96	9352.78
465.14	9406.61
465.32	9425.34
465.50	9437.04
465.69	9605.56
465.87	9462.79
466.05	9710.88
466.23	9341.08
466.41	9212.35
466.60	9933.23
466.78	9273.20
466.96	9582.15
467.14	9673.43
467.32	9923.87
467.51	9966.00
467.69	9497.89
467.87	9530.66
468.05	9809.19
468.23	9760.03
468.41	9738.97
468.60	9928.55
468.78	10113.45
468.96	9757.69
469.14	10024.51
469.32	9982.38
469.50	9916.85
469.69	9919.19
469.87	9907.49
470.05	10003.45
470.23	10115.80
470.41	10064.30
470.59	10193.03
470.77	10260.91
470.95	10162.61
471.14	10377.94
471.32	10399.00
471.50	10441.13
471.68	10824.98
471.86	10747.74
472.04	10567.52
472.22	11033.29
472.40	10396.66
472.58	10707.95
472.77	10757.10
472.95	10832.00
473.13	11164.36
473.31	11122.23
473.49	11005.20
473.67	10979.45
473.85	11033.29
474.03	11009.88
474.21	11236.91
474.39	11370.32
474.57	11311.81
474.75	11428.84
474.93	11515.44
475.12	11651.19
475.30	11672.25
475.48	11477.99
475.66	11716.72
475.84	11786.94
476.02	11978.86
476.20	11700.34
476.38	11747.15
476.56	12294.83
476.74	11819.71
476.92	12161.42
477.10	12145.04
477.28	12498.46
477.46	12444.63
477.64	12500.80
477.82	12812.09
478.00	12842.52
478.18	12805.07
478.36	13172.54
478.54	13153.81
478.72	13050.83
478.90	13401.91
479.08	13411.27
479.26	13401.91
479.44	13392.55
479.62	13467.44
479.80	13465.10
479.98	13818.52
480.16	14090.02
480.34	13998.74
480.52	14155.56
480.70	14504.30
480.88	14204.71
481.06	14349.82
481.24	14239.82
481.41	14555.79
481.59	14871.76
481.77	14679.84
481.95	14864.74
482.13	14977.09
482.31	15009.86
482.49	15426.47
482.67	15356.25
482.85	15176.03
483.03	15461.58
483.21	15499.03
483.39	15674.57
483.57	15770.53
483.74	16018.63
483.92	16318.22
484.10	15831.38
484.28	16306.51
484.46	16570.99
484.64	16957.18
484.82	16683.34
485.00	16538.23
485.18	16996.97
485.35	17160.81
485.53	16549.93
485.71	16561.63
485.89	16893.99
486.07	16762.92
486.25	17095.27
486.43	17216.98
486.61	17399.54
486.78	17689.77
486.96	17455.72
487.14	17905.10
487.32	18146.17
487.50	18410.65
487.68	18635.35
487.85	18644.71
488.03	18972.38
488.21	19016.85
488.39	18853.02
488.57	19531.77
488.75	19346.87
488.92	19777.53
489.10	20159.03
489.28	19768.16
489.46	20315.85
489.64	20107.54
489.81	20905.66
489.99	20739.49
490.17	20671.61
490.35	21088.23
490.53	20884.60
490.70	21034.39
490.88	21179.51
491.06	21439.31
491.24	21460.37
491.41	20912.69
491.59	21411.22
491.77	21605.49
491.95	21685.06
492.13	22125.08
492.30	21951.88
492.48	22160.19
492.66	22452.76
492.84	22485.53
493.01	22410.63
493.19	22845.97
493.37	23026.19
493.54	22963.00
493.72	23285.99
493.90	23159.60
494.08	23625.37
494.25	23616.01
494.43	23878.15
494.61	24079.43
494.79	24067.73
494.96	23821.97
495.14	24180.07
495.32	24367.32
495.49	24390.72
495.67	24554.56
495.85	24620.10
496.02	25055.43
496.20	25102.25
496.38	25331.62
496.55	25219.27
496.73	25851.22
496.91	25371.41
497.09	25689.72
497.26	25930.80
497.44	25671.00
497.62	25769.30
497.79	26242.09
497.97	25781.00
498.14	25958.88
498.32	26005.69
498.50	26223.36
498.67	26850.63
498.85	26656.36
499.03	26979.36
499.20	26857.65
499.38	26888.07
499.56	27260.22
499.73	27187.66
499.91	27222.77
500.08	27318.73
500.26	27171.28
500.44	27105.74
500.61	27124.47
500.79	27335.12
500.97	27758.75
501.14	28070.04
501.32	27716.62
501.49	27583.21
501.67	28077.07
501.84	28063.02
502.02	28203.46
502.20	28163.67
502.37	28222.18
502.55	28261.97
502.72	28652.84
502.90	28645.82
503.07	28905.62
503.25	29193.50
503.43	28734.76
503.60	28779.23
503.78	28985.19
503.95	28973.49
504.13	29156.05
504.30	29310.53
504.48	29624.16
504.65	29565.65
504.83	29780.98
505.01	29923.75
505.18	29893.32
505.36	30160.14
505.53	30403.56
505.71	29902.68
505.88	30415.26
506.06	30216.32
506.23	30459.73
506.41	30469.09
506.58	30962.95
506.76	30691.44
506.93	30665.70
507.11	30677.40
507.28	30646.97
507.46	30932.52
507.63	30895.07
507.81	31316.37
507.98	30754.64
508.16	31328.07
508.33	31564.46
508.50	31487.23
508.68	31732.98
508.85	32070.02
509.03	31924.91
509.20	32046.62
509.38	31899.16
509.55	32041.93
509.73	31981.08
509.90	32467.91
510.08	31896.82
510.25	32521.74
510.42	32198.75
510.60	32194.07
510.77	32685.58
510.95	32840.06
511.12	32601.32
511.30	33291.78
511.47	33153.69
511.64	33523.49
511.82	33244.97
511.99	32964.10
512.17	33574.98
512.34	33106.88
512.51	33310.50
512.69	33680.31
512.86	33713.08
513.04	33745.84
513.21	33638.18
513.38	33785.63
513.56	33790.31
513.73	33659.24
513.90	33790.31
514.08	34139.05
514.25	33916.70
514.43	34242.04
514.60	34059.48
514.77	34059.48
514.95	34506.52
515.12	34888.03
515.29	34347.36
515.47	34991.01
515.64	34890.37
515.81	34155.44
515.99	34763.98
516.16	34384.81
516.33	34174.16
516.51	34160.12
516.68	34218.63
516.85	33972.88
517.03	34251.40
517.20	34794.40
517.37	34944.20
517.54	35262.51
517.72	35342.09
517.89	34843.56
518.06	34574.39
518.24	34920.79
518.41	34817.81
518.58	35295.28
518.75	35770.41
518.93	35906.16
519.10	35758.70
519.27	35974.03
519.45	35959.99
519.62	35959.99
519.79	36093.40
519.96	36135.53
520.14	36435.12
520.31	36053.61
520.48	36343.84
520.65	36018.50
520.83	37083.45
521.00	36905.57
521.17	36816.63
521.34	36673.85
521.52	36830.67
521.69	36708.96
521.86	37146.64
522.03	37219.20
522.20	37350.27
522.38	37001.53
522.55	37172.39
522.72	36708.96
522.89	37516.45
523.07	37308.14
523.24	36926.63
523.41	38146.05
523.58	37589.00
523.75	38171.80
523.92	38139.03
524.10	38218.61
524.27	38309.89
524.44	37649.86
524.61	38576.71
524.78	38202.22
524.96	38543.94
525.13	38174.14
525.30	38799.06
525.47	38536.92
525.64	38703.10
525.81	38417.55
525.98	38541.60
526.16	38110.94
526.33	38005.62
526.50	38440.96
526.67	37855.82
526.84	38270.10
527.01	38211.59
527.18	38703.10
527.36	39412.28
527.53	39157.16
527.70	39321.00
527.87	39042.48
528.04	39061.20
528.21	39629.95
528.38	39573.78
528.55	40058.27
528.72	39772.72
528.89	39690.80
529.07	39681.44
529.24	39035.45
529.41	39611.23
529.58	39924.86
529.75	39772.72
529.92	39887.41
530.09	40011.46
530.26	39962.31
530.43	40205.72
530.60	39856.98
530.77	39775.06
530.94	40177.64
531.11	40311.05
531.28	40233.81
531.46	40453.82
531.63	40268.92
531.80	40285.30
531.97	40870.43
532.14	40320.41
532.31	39978.69
532.48	40493.61
532.65	40301.68
532.82	40425.73
532.99	40367.22
533.16	40542.76
533.33	40793.20
533.50	41270.67
533.67	41071.72
533.84	40804.90
534.01	40552.12
534.18	40741.71
534.35	41193.43
534.52	40982.78
534.69	41350.24
534.86	40933.63
535.03	41275.35
535.20	41586.64
535.37	42026.66
535.54	42188.16
535.71	42082.83
535.88	41553.87
536.05	41453.23
536.22	41518.76
536.38	41446.21
536.55	41170.02
536.72	41481.31
536.89	41329.18
537.06	41813.67
537.23	42340.29
537.40	41577.28
537.57	41979.85
537.74	41926.02
537.91	42462.00
538.08	42506.47
538.25	41762.18
538.42	41921.34
538.59	42249.01
538.75	41471.95
538.92	42232.63
539.09	42609.45
539.26	42239.65
539.43	42452.64
539.60	42204.54
539.77	42202.20
539.94	42314.55
540.11	42309.86
540.28	42593.07
540.44	42244.33
540.61	42188.16
540.78	42555.62
540.95	42071.13
541.12	42375.40
541.29	42431.57
541.46	42639.88
541.62	42749.88
541.79	42899.68
541.96	42838.83
542.13	42759.25
542.30	42899.68
542.47	42876.27
542.63	43119.69
542.80	43281.19
542.97	43566.73
543.14	43775.04
543.31	43430.98
543.48	44240.81
543.64	43941.22
543.81	44184.63
543.98	44055.90
544.15	43217.99
544.32	43599.50
544.48	43782.06
544.65	43650.99
544.82	43526.94
544.99	43555.03
545.16	43686.10
545.32	43803.13
545.49	44088.67
545.66	44397.62
545.83	44229.10
546.00	44507.63
546.16	44463.16
546.33	43943.56
546.50	43622.90
546.67	44168.25
546.83	43732.91
547.00	44282.94
547.17	43782.06
547.34	44222.08
547.50	44275.91
547.67	44549.76
547.84	44381.24
548.00	44802.53
548.17	44739.34
548.34	44488.90
548.51	44673.81
548.67	44744.02
548.84	44477.20
549.01	44872.75
549.18	44346.13
549.34	44556.78
549.51	44673.81
549.68	44921.90
549.84	44687.85
550.01	44947.65
550.18	44554.44
550.34	45097.44
550.51	44774.45
550.68	44896.16
550.84	44196.34
551.01	44849.35
551.18	45525.76
551.34	44767.43
551.51	45132.55
551.68	45167.66
551.84	44898.50
552.01	44619.97
552.18	45305.75
552.34	44957.01
552.51	45380.65
552.68	44863.39
552.84	45436.82
553.01	45734.07
553.18	45415.76
553.34	45221.49
553.51	44933.60
553.67	45160.64
553.84	45511.72
554.01	45104.46
554.17	45701.30
554.34	45675.55
554.51	45535.12
554.67	45830.03
554.84	45640.45
555.00	45272.98
555.17	45333.84
555.33	45797.26
555.50	45544.48
555.67	45434.48
555.83	45673.21
556.00	45490.65
556.16	45909.61
556.33	45663.85
556.50	45701.30
556.66	46036.00
556.83	45738.75
556.99	45792.58
557.16	46106.21
557.32	46153.02
557.49	45771.52
557.65	45579.59
557.82	45769.18
557.98	45736.41
558.15	46169.41
558.32	45801.94
558.48	45528.10
558.65	45469.59
558.81	45624.06
558.98	45366.60
559.14	45757.47
559.31	45958.76
559.47	46471.34
559.64	46396.44
559.80	46232.60
559.97	46080.47
560.13	45965.78
560.30	46050.04
560.46	46171.75
560.63	46202.18
560.79	46700.71
560.96	46230.26
561.12	46635.17
561.29	46302.82
561.45	45925.99
561.61	45961.10
561.78	45776.20
561.94	45996.21
562.11	46557.94
562.27	46321.54
562.44	46272.39
562.60	46574.32
562.77	46618.79
562.93	46160.05
563.10	46836.46
563.26	45696.62
563.42	46277.07
563.59	46504.10
563.75	46106.21
563.92	46501.76
564.08	46628.15
564.24	46464.32
564.41	46679.64
564.57	46401.12
564.74	46270.05
564.90	46579.00
565.07	46625.81
565.23	46447.93
565.39	46471.34
565.56	46183.45
565.72	46185.79
565.88	46674.96
566.05	46380.06
566.21	46080.47
566.38	46375.37
566.54	46497.08
566.70	47194.56
566.87	46965.19
567.03	46583.68
567.19	47070.51
567.36	46349.63
567.52	46595.38
567.68	46656.24
567.85	46557.94
568.01	46857.52
568.17	46534.53
568.34	46855.18
568.50	46260.69
568.66	46415.16
568.83	46461.97
568.99	45996.21
569.15	46628.15
569.32	46239.62
569.48	46403.46
569.64	46754.54
569.81	46717.09
569.97	46375.37
570.13	46934.76
570.30	46637.51
570.46	46270.05
570.62	45991.53
570.78	46284.09
570.95	46382.40
571.11	46337.93
571.27	46454.95
571.43	46384.74
571.60	46389.42
571.76	46799.01
571.92	46934.76
572.09	46632.83
572.25	46667.94
572.41	46916.04
572.57	46927.74
572.74	46995.62
572.90	46822.42
573.06	46529.85
573.22	46822.42
573.38	46728.80
573.55	46810.71
573.71	46937.10
573.87	46946.47
574.03	46623.47
574.20	46703.05
574.36	47107.96
574.52	47084.56
574.68	46768.58
574.84	46775.61
575.01	46639.86
575.17	46696.03
575.33	46274.73
575.49	46443.25
575.65	46625.81
575.82	46703.05
575.98	47072.85
576.14	46766.24
576.30	46791.99
576.46	46583.68
576.62	46770.93
576.79	46829.44
576.95	46735.82
577.11	46768.58
577.27	46883.27
577.43	46733.48
577.59	46969.87
577.75	46380.06
577.92	46127.28
578.08	46431.55
578.24	46667.94
578.40	46548.57
578.56	46841.14
578.72	46625.81
578.88	47072.85
579.04	47107.96
579.21	46941.78
579.37	46803.69
579.53	46770.93
579.69	46777.95
579.85	46672.62
580.01	47189.88
580.17	46710.07
580.33	47061.15
580.49	46981.57
580.65	46485.38
580.82	46775.61
580.98	46787.31
581.14	46670.28
581.30	46571.98
581.46	47037.75
581.62	46775.61
581.78	47320.95
581.94	47386.49
582.10	46920.72
582.26	46738.16
582.42	46813.05
582.58	46803.69
582.74	46880.93
582.90	47009.66
583.06	47222.65
583.22	47082.22
583.38	47337.33
583.54	46930.08
583.70	47210.95
583.86	46986.25
584.02	46824.76
584.18	47112.64
584.34	47159.45
584.50	46944.12
584.66	46583.68
584.82	46674.96
584.98	47552.66
585.14	46703.05
585.30	46733.48
585.46	46857.52
585.62	46831.78
585.78	46614.11
585.94	46384.74
586.10	47012.00
586.26	46658.58
586.42	47248.39
586.58	46848.16
586.74	46583.68
586.90	46843.48
587.06	47044.77
587.22	47330.31
587.38	46461.97
587.54	47042.43
587.70	47311.59
587.86	47239.03
588.02	46735.82
588.18	46913.70
588.34	46773.27
588.49	46677.30
588.65	46033.66
588.81	46597.73
588.97	46223.24
589.13	46635.17
589.29	46508.79
589.45	46791.99
589.61	46869.23
589.77	46958.17
589.93	46768.58
590.08	46967.53
590.24	46834.12
590.40	47255.42
590.56	47262.44
590.72	47103.28
590.88	46621.13
591.04	47210.95
591.20	47873.32
591.35	47419.25
591.51	47309.25
591.67	46990.94
591.83	47400.53
591.99	47199.24
592.15	47164.14
592.31	47168.82
592.46	46911.36
592.62	46892.63
592.78	47342.02
592.94	47407.55
593.10	46948.81
593.26	47447.34
593.41	47105.62
593.57	46955.83
593.73	46976.89
593.89	47309.25
594.05	46672.62
594.20	46808.37
594.36	46986.25
594.52	46906.68
594.68	46571.98
594.84	46817.74
594.99	47189.88
595.15	46761.56
595.31	46909.02
595.47	47040.09
595.62	47466.06
595.78	46990.94
595.94	47510.53
596.10	47629.90
596.25	47030.72
596.41	47278.82
596.57	47112.64
596.73	46993.28
596.88	46911.36
597.04	47056.47
597.20	47070.51
597.36	47103.28
597.51	47459.04
597.67	47199.24
597.83	47110.30
597.99	47065.83
598.14	47070.51
598.30	46869.23
598.46	47196.90
598.61	46859.87
598.77	46759.22
598.93	46557.94
599.09	47035.41
599.24	47817.14
599.40	47325.63
599.56	47206.26
599.71	47253.08
599.87	47606.50
600.03	47047.11
600.18	47337.33
600.34	46995.62
600.50	47091.58
600.65	47578.41
600.81	47049.45
600.97	47463.72
601.12	47372.44
601.28	47510.53
601.44	46997.96
601.59	46614.11
601.75	46799.01
601.91	46848.16
602.06	46869.23
602.22	47004.98
602.37	46801.35
602.53	46916.04
602.69	47547.98
602.84	46492.40
603.00	47220.31
603.16	46990.94
603.31	47054.13
603.47	47019.02
603.62	46934.76
603.78	47145.41
603.94	47196.90
604.09	47332.65
604.25	47213.29
604.40	47157.11
604.56	47136.05
604.71	47054.13
604.87	46609.43
605.03	46913.70
605.18	46749.86
605.34	46902.00
605.49	46810.71
605.65	46377.72
605.80	46749.86
605.96	46859.87
606.12	46997.96
606.27	47023.70
606.43	46576.66
606.58	47075.19
606.74	46850.50
606.89	46934.76
607.05	46749.86
607.20	46653.90
607.36	46731.14
607.51	46745.18
607.67	46965.19
607.82	47187.54
607.98	46822.42
608.13	46494.74
608.29	46600.07
608.44	46370.69
608.60	46248.99
608.75	46017.27
608.91	46085.15
609.06	46351.97
609.22	46490.06
609.37	46464.32
609.53	46899.65
609.68	46087.49
609.84	46335.59
609.99	46672.62
610.15	46223.24
610.30	46588.36
610.46	46192.81
610.61	46752.20
610.76	46436.23
610.92	45876.84
611.07	46131.96
611.23	46478.36
611.38	46660.92
611.54	46417.50
611.69	46052.38
611.84	46087.49
612.00	46103.87
612.15	46176.43
612.31	46539.21
612.46	46171.75
612.62	46202.18
612.77	46370.69
612.92	46543.89
613.08	46302.82
613.23	46600.07
613.39	46155.36
613.54	45823.01
613.69	45925.99
613.85	45935.35
614.00	46293.46
614.15	46485.38
614.31	46330.90
614.46	46026.63
614.62	45944.72
614.77	45881.52
614.92	45886.20
615.08	45729.39
615.23	45694.28
615.38	45617.04
615.54	45528.10
615.69	45537.46
615.84	45317.45
616.00	45329.16
616.15	45687.26
616.30	45457.88
616.46	45186.38
616.61	45422.78
616.76	45301.07
616.92	45352.56
617.07	45209.79
617.22	44912.54
617.37	45205.11
617.53	45586.61
617.68	45727.05
617.83	46110.89
617.99	45907.27
618.14	45097.44
618.29	45394.69
618.45	45420.44
618.60	44898.50
618.75	45237.87
618.90	45057.65
619.06	45413.41
619.21	45095.10
619.36	45235.53
619.51	44690.19
619.67	45336.18
619.82	45139.57
619.97	45041.27
620.12	45219.15
620.28	44676.15
620.43	44722.96
620.58	44722.96
620.73	45177.02
620.89	44666.78
621.04	44825.94
621.19	44369.54
621.34	45038.93
621.49	44479.54
621.65	44619.97
621.80	44924.24
621.95	44395.28
622.10	44664.44
622.25	44580.18
622.41	44383.58
622.56	44587.21
622.71	43997.39
622.86	44320.38
623.01	44802.53
623.16	44498.26
623.32	44458.48
623.47	44378.90
623.62	44301.66
623.77	44198.68
623.92	44191.65
624.07	44149.53
624.23	43847.60
624.38	44037.18
624.53	43831.21
624.68	43770.36
624.83	44067.61
624.98	44198.68
625.13	44044.20
625.29	43744.61
625.44	43700.14
625.59	43782.06
625.74	43718.87
625.89	43597.16
626.04	43791.42
626.19	43927.17
626.34	43997.39
626.49	43931.86
626.65	43625.25
626.80	43973.98
626.95	44334.43
627.10	43765.68
627.25	43494.18
627.40	43267.14
627.55	43374.81
627.70	42742.86
627.85	43098.62
628.00	43178.20
628.15	43117.35
628.30	43669.72
628.45	43896.75
628.60	43281.19
628.76	43690.78
628.91	43503.54
629.06	43054.15
629.21	43037.77
629.36	43360.76
629.51	42965.21
629.66	42628.18
629.81	42951.17
629.96	42749.88
630.11	43274.16
630.26	43302.25
630.41	43515.24
630.56	43115.01
630.71	42745.20
630.86	42698.39
631.01	42806.06
631.16	42574.34
631.31	42323.91
631.46	43084.58
631.61	42796.70
631.76	42618.81
631.91	42466.68
632.06	42852.87
632.21	42873.93
632.36	42703.07
632.51	42373.06
632.66	42462.00
632.81	42260.71
632.96	42483.06
633.10	42483.06
633.25	42567.32
633.40	42703.07
633.55	42649.24
633.70	42230.29
633.85	42712.44
634.00	42087.51
634.15	42340.29
634.30	42410.51
634.45	42532.22
634.60	42464.34
634.75	42572.00
634.90	42031.34
635.05	42064.11
635.19	41865.16
635.34	42274.76
635.49	41923.68
635.64	41586.64
635.79	42080.49
635.94	42094.53
636.09	42295.82
636.24	41958.78
636.39	41507.06
636.53	42038.36
636.68	41649.83
636.83	41853.46
636.98	42000.91
637.13	41581.96
637.28	41710.69
637.43	41944.74
637.57	42108.58
637.72	41738.77
637.87	41834.74
638.02	41963.46
638.17	42197.52
638.32	41811.33
638.46	41586.64
638.61	41450.89
638.76	41759.84
638.91	41715.37
639.06	41471.95
639.20	41247.26
639.35	41832.39
639.50	41530.47
639.65	41804.31
639.80	41783.24
639.94	41038.95
640.09	41244.92
640.24	41116.19
640.39	41055.34
640.54	40898.52
640.68	40940.65
640.83	41036.61
640.98	40737.02
641.13	41036.61
641.27	41577.28
641.42	40961.72
641.57	41027.25
641.72	41144.28
641.86	40493.61
642.01	40418.71
642.16	41060.02
642.31	40460.84
642.45	41523.44
642.60	40854.05
642.75	41038.95
642.90	40591.91
643.04	41214.49
643.19	40673.83
643.34	40767.45
643.48	40451.48
643.63	40554.46
643.78	40238.49
643.93	40479.57
644.07	40481.91
644.22	40301.68
644.37	40112.10
644.51	40367.22
644.66	40423.39
644.81	40381.26
644.95	40935.97
645.10	40540.42
645.25	40460.84
645.39	40240.83
645.54	40584.89
645.69	40203.38
645.83	40208.06
645.98	40140.19
646.13	40158.91
646.27	40388.28
646.42	40079.33
646.57	40329.77
646.71	39978.69
646.86	40343.81
647.00	40245.51
647.15	39749.32
647.30	39896.77
647.44	40170.61
647.59	40215.08
647.74	39697.83
647.88	39562.08
648.03	39990.39
648.17	39756.34
648.32	39660.38
648.47	39908.47
648.61	39817.19
648.76	39541.01
648.90	39571.44
649.05	39449.73
649.20	40011.46
649.34	39384.19
649.49	39566.76
649.63	39152.48
649.78	39220.36
649.92	39225.04
650.07	39583.14
650.21	39335.04
650.36	39583.14
650.51	39058.86
650.65	40004.44
650.80	39683.78
650.94	39697.83
651.09	39395.90
651.23	39257.81
651.38	39187.59
651.52	39321.00
651.67	38958.22
651.81	39222.70
651.96	38831.83
652.10	38995.67
652.25	39100.99
652.39	38740.55
652.54	39178.23
652.68	39049.50
652.83	39356.11
652.97	39105.67
653.12	38951.20
653.26	38651.61
653.41	38721.82
653.55	38742.89
653.70	38511.17
653.84	38529.90
653.99	38986.30
654.13	38700.76
654.27	38747.57
654.42	38363.72
654.56	38611.82
654.71	38583.73
654.85	38604.80
655.00	38693.74
655.14	38560.33
655.29	38237.33
655.43	38590.75
655.57	38003.28
655.72	37923.70
655.86	38108.60
656.01	37694.33
656.15	37827.74
656.30	38122.65
656.44	37652.20
656.58	37928.38
656.73	37979.87
656.87	38022.00
657.01	38195.20
657.16	38068.81
657.30	37937.74
657.45	37928.38
657.59	37736.46
657.73	37649.86
657.88	37883.91
658.02	38066.47
658.16	38096.90
658.31	38122.65
658.45	38010.30
658.60	37933.06
658.74	37661.56
658.88	37649.86
659.03	37539.85
659.17	37361.97
659.31	37298.78
659.46	37460.27
659.60	37336.23
659.74	37780.93
659.89	37607.73
660.03	37390.06
660.17	37137.28
660.32	37174.73
660.46	37322.18
660.60	37069.40
660.74	37432.19
660.89	37490.70
661.03	36566.19
661.17	37228.56
661.32	36865.78
661.46	36931.31
661.60	36868.12
661.74	37053.02
661.89	37010.89
662.03	36659.81
662.17	36566.19
662.31	36542.78
662.46	36582.57
662.60	36676.19
662.74	36449.16
662.88	36161.28
663.03	35997.44
663.17	36154.26
663.31	35969.35
663.45	36170.64
663.60	36514.70
663.74	35995.10
663.88	35999.78
664.02	35880.41
664.17	35681.47
664.31	35768.07
664.45	35913.18
664.59	35889.77
664.73	35833.60
664.88	35629.98
665.02	35316.34
665.16	35952.97
665.30	35641.68
665.44	35414.65
665.59	35168.89
665.73	35412.31
665.87	35613.59
666.01	35269.53
666.15	35559.76
666.29	35182.93
666.44	35512.95
666.58	35166.55
666.72	34595.46
666.86	35131.44
667.00	35084.63
667.14	34653.97
667.28	34991.01
667.43	34649.29
667.57	35019.10
667.71	34684.40
667.85	34778.02
667.99	34284.17
668.13	34431.62
668.27	34593.12
668.41	34401.19
668.56	34237.36
668.70	34621.20
668.84	34321.62
668.98	34178.84
669.12	34190.55
669.26	34047.77
669.40	33860.53
669.54	33624.14
669.68	34345.02
669.82	33748.18
669.96	33708.40
670.10	33462.64
670.25	33645.20
670.39	33570.30
670.53	33464.98
670.67	33380.72
670.81	33511.79
670.95	33790.31
671.09	33692.01
671.23	33518.81
671.37	33120.92
671.51	33174.75
671.65	32898.57
671.79	33277.74
671.93	33097.52
672.07	33394.76
672.21	32933.68
672.35	32643.45
672.49	32957.08
672.63	33177.09
672.77	32617.71
672.91	32318.12
673.05	32540.47
673.19	32603.66
673.33	32063.00
673.47	31866.39
673.61	32194.07
673.75	31697.88
673.89	32102.79
674.03	31737.66
674.17	31814.90
674.31	31599.57
674.45	31819.58
674.59	31910.86
674.73	32194.07
674.87	31611.28
675.01	31438.08
675.15	31360.84
675.29	31187.64
675.43	31386.58
675.56	31269.56
675.70	31255.51
675.84	30972.31
675.98	29956.52
676.12	30934.86
676.26	30813.15
676.40	31126.78
676.54	31101.04
676.68	30693.79
676.82	30448.03
676.96	30506.54
677.10	30295.89
677.23	30464.41
677.37	30188.23
677.51	29727.14
677.65	29998.65
677.79	29935.45
677.93	29572.67
678.07	29830.13
678.21	29303.51
678.34	29479.05
678.48	29284.78
678.62	28828.38
678.76	28723.05
678.90	28716.03
679.04	28861.15
679.18	28877.53
679.31	28865.83
679.45	28463.25
679.59	28526.45
679.73	28481.98
679.87	28332.18
680.00	27999.83
680.14	28086.43
680.28	28025.57
680.42	28168.35
680.56	28135.58
680.70	27770.46
680.83	28039.62
680.97	27931.95
681.11	28058.34
681.25	27707.26
681.39	27475.55
681.52	27821.95
681.66	27517.68
681.80	27227.45
681.94	27454.48
682.07	27440.44
682.21	27159.58
682.35	26782.75
682.49	26672.74
682.62	27058.93
682.76	26637.64
682.90	26576.78
683.04	26572.10
683.17	26647.00
683.31	26443.37
683.45	26347.41
683.59	26001.01
683.72	26363.79
683.86	25851.22
684.00	25832.49
684.13	25975.27
684.27	25788.02
684.41	25259.06
684.55	25563.33
684.68	25200.55
684.82	25729.51
684.96	25329.28
685.09	25656.95
685.23	25205.23
685.37	25245.02
685.50	25238.00
685.64	25071.82
685.78	24982.88
685.91	24631.80
686.05	24718.40
686.19	24372.00
686.32	24121.56
686.46	23915.59
686.60	23733.03
686.73	23892.19
686.87	23630.05
687.01	23522.38
687.14	23564.51
687.28	23564.51
687.42	23381.95
687.55	23159.60
687.69	23604.30
687.82	23040.23
687.96	23412.38
688.10	22984.06
688.23	22867.03
688.37	22469.14
688.50	23014.49
688.64	22773.41
688.78	22558.08
688.91	22820.22
689.05	22555.74
689.18	22796.82
689.32	22181.26
689.46	22586.17
689.59	22501.91
689.73	22155.51
689.86	22277.22
690.00	22331.05
690.13	21804.43
690.27	21802.09
690.41	21755.28
690.54	21509.52
690.68	21617.19
690.81	21289.51
690.95	21565.70
691.08	21261.43
691.22	21390.16
691.35	21132.70
691.49	21436.97
691.62	21469.73
691.76	21256.75
691.89	21076.52
692.03	20800.34
692.16	20917.37
692.30	20835.45
692.43	20933.75
692.57	20432.88
692.70	20360.32
692.84	20437.56
692.97	20636.50
693.11	20203.50
693.24	19800.93
693.38	20245.63
693.51	19913.28
693.65	20180.10
693.78	19939.02
693.92	20002.22
694.05	19833.70
694.19	19777.53
694.32	19711.99
694.45	19604.33
694.59	19222.82
694.72	19213.46
694.86	19363.25
694.99	19180.69
695.13	19288.35
695.26	18815.57
695.39	18785.14
695.53	18705.56
695.66	18918.55
695.80	18848.33
695.93	18923.23
696.07	18721.95
696.20	18494.91
696.33	18541.72
696.47	18480.87
696.60	18347.46
696.73	17975.31
696.87	17942.55
697.00	18104.04
697.14	17937.87
697.27	17633.60
697.40	17689.77
697.54	17879.35
697.67	17703.81
697.80	17549.34
697.94	17678.07
698.07	17294.22
698.21	16943.14
698.34	17322.30
698.47	17144.42
698.61	17078.89
698.74	16847.18
698.87	16776.96
699.01	16578.01
699.14	16578.01
699.27	16589.72
699.40	16795.68
699.54	16650.57
699.67	16362.69
699.80	16498.44
699.94	16386.09
700.07	16482.05
700.20	16180.12
700.34	15953.09
700.47	16535.88
700.60	16166.08
700.73	16259.70
700.87	16163.74
701.00	15920.32
701.13	15955.43
701.26	15405.41
701.40	15332.85
701.53	15662.86
701.66	15597.33
701.79	15414.77
701.93	15466.26
702.06	15356.25
702.19	15218.16
702.32	15152.63
702.46	15166.67
702.59	14972.41
702.72	14920.92
702.85	15154.97
702.99	15040.28
703.12	14963.04
703.25	14572.18
703.38	14593.24
703.51	14429.40
703.65	14719.63
703.78	14651.75
703.91	14516.00
704.04	14307.69
704.17	14366.21
704.31	14263.22
704.44	13846.61
704.57	14087.68
704.70	13947.25
704.83	13804.48
704.96	14211.73
705.10	13912.14
705.23	13902.78
>>>>>End Processed Spectral Data<<<<<
