SpectraSuite Data File
++++++++++++++++++++++++++++++++++++
Date: Fri Oct 25 11:34:19 EDT 2013
User: price-jones
Dark Spectrum Present: No
Reference Spectrum Present: No
Number of Sampled Component Spectra: 1
Spectrometers: USB2+H05261
Integration Time (usec): 100000 (USB2+H05261)
Spectra Averaged: 1 (USB2+H05261)
Boxcar Smoothing: 0 (USB2+H05261)
Correct for Electrical Dark: No (USB2+H05261)
Strobe/Lamp Enabled: No (USB2+H05261)
Correct for Detector Non-linearity: No (USB2+H05261)
Correct for Stray Light: No (USB2+H05261)
Number of Pixels in Processed Spectrum: 2048
>>>>>Begin Processed Spectral Data<<<<<
365.73	318.31
365.92	318.31
366.12	318.31
366.32	217.67
366.52	194.26
366.72	168.52
366.91	173.20
367.11	203.63
367.31	198.95
367.51	161.50
367.70	166.18
367.90	187.24
368.10	119.37
368.30	142.77
368.49	217.67
368.69	215.33
368.89	257.46
369.09	238.73
369.28	231.71
369.48	220.01
369.68	194.26
369.87	266.82
370.07	311.29
370.27	290.23
370.47	360.44
370.66	400.23
370.86	512.58
371.06	524.28
371.25	535.98
371.45	561.73
371.65	507.90
371.84	552.37
372.04	498.53
372.24	521.94
372.44	564.07
372.63	601.52
372.83	603.86
373.03	550.03
373.22	594.50
373.42	634.29
373.62	592.16
373.81	678.76
374.01	692.80
374.21	655.35
374.40	676.41
374.60	678.76
374.79	638.97
374.99	594.50
375.19	582.79
375.38	692.80
375.58	683.44
375.78	727.91
375.97	674.07
376.17	720.88
376.37	678.76
376.56	674.07
376.76	631.94
376.95	653.01
377.15	727.91
377.35	667.05
377.54	697.48
377.74	739.61
377.93	664.71
378.13	657.69
378.33	718.54
378.52	720.88
378.72	802.80
378.91	758.33
379.11	669.39
379.31	688.12
379.50	723.23
379.70	763.01
379.89	697.48
380.09	676.41
380.28	737.27
380.48	699.82
380.68	697.48
380.87	699.82
381.07	758.33
381.26	779.40
381.46	727.91
381.65	784.08
381.85	786.42
382.04	755.99
382.24	791.10
382.43	781.74
382.63	884.72
382.83	809.83
383.02	826.21
383.22	770.04
383.41	748.97
383.61	734.93
383.80	786.42
384.00	744.29
384.19	823.87
384.39	734.93
384.58	816.85
384.78	791.10
384.97	840.25
385.17	844.93
385.36	847.27
385.56	807.48
385.75	770.04
385.95	800.46
386.14	823.87
386.34	781.74
386.53	882.38
386.72	800.46
386.92	938.55
387.11	933.87
387.31	868.34
387.50	870.68
387.70	858.98
387.89	891.74
388.09	931.53
388.28	936.21
388.48	898.77
388.67	854.30
388.86	863.66
389.06	912.81
389.25	847.27
389.45	964.30
389.64	959.62
389.84	1025.15
390.03	933.87
390.22	1006.43
390.42	851.96
390.61	964.30
390.81	973.66
391.00	912.81
391.19	985.37
391.39	1013.45
391.58	973.66
391.78	1041.54
391.97	1032.18
392.16	985.37
392.36	1064.94
392.55	940.90
392.75	985.37
392.94	1067.28
393.13	1097.71
393.33	1046.22
393.52	1078.99
393.71	1029.84
393.91	1109.41
394.10	1107.07
394.29	1078.99
394.49	1144.52
394.68	1097.71
394.88	1125.80
395.07	1149.20
395.26	1160.91
395.46	1029.84
395.65	1128.14
395.84	1109.41
396.04	1224.10
396.23	1165.59
396.42	1158.57
396.62	1165.59
396.81	1158.57
397.00	1191.33
397.19	1069.62
397.39	1217.08
397.58	1322.40
397.77	1205.38
397.97	1165.59
398.16	1280.27
398.35	1313.04
398.55	1345.81
398.74	1221.76
398.93	1256.87
399.12	1221.76
399.32	1261.55
399.51	1294.32
399.70	1331.76
399.90	1387.94
400.09	1317.72
400.28	1355.17
400.47	1252.19
400.67	1390.28
400.86	1383.26
401.05	1404.32
401.24	1352.83
401.44	1474.54
401.63	1348.15
401.82	1439.43
402.01	1355.17
402.21	1418.36
402.40	1409.00
402.59	1460.49
402.78	1474.54
402.97	1423.05
403.17	1441.77
403.36	1458.15
403.55	1596.25
403.74	1486.24
403.93	1530.71
404.13	1579.86
404.32	1575.18
404.51	1589.22
404.70	1579.86
404.89	1528.37
405.09	1631.35
405.28	1643.06
405.47	1682.85
405.66	1694.55
405.85	1682.85
406.05	1753.06
406.24	1654.76
406.43	1668.80
406.62	1809.23
406.81	1849.02
407.00	1713.27
407.20	1755.40
407.39	1710.93
407.58	1757.74
407.77	1863.07
407.96	1839.66
408.15	1858.39
408.34	1858.39
408.54	1839.66
408.73	1788.17
408.92	1858.39
409.11	1891.15
409.30	1909.88
409.49	1970.73
409.68	1907.54
409.87	1928.60
410.07	1952.01
410.26	2003.50
410.45	1991.80
410.64	2108.82
410.83	2085.42
411.02	1998.82
411.21	2143.93
411.40	2193.08
411.59	2090.10
411.78	2165.00
411.98	2129.89
412.17	2190.74
412.36	2218.83
412.55	2190.74
412.74	2207.13
412.93	2345.22
413.12	2291.38
413.31	2403.73
413.50	2349.90
413.69	2232.87
413.88	2401.39
414.07	2401.39
414.26	2406.07
414.45	2441.18
414.64	2443.52
414.83	2532.46
415.02	2600.34
415.22	2499.69
415.41	2553.52
415.60	2602.68
415.79	2562.89
415.98	2565.23
416.17	2572.25
416.36	2628.42
416.55	2731.41
416.74	2808.64
416.93	2712.68
417.12	2703.32
417.31	2839.07
417.50	2825.03
417.69	2855.45
417.88	2902.26
418.07	2803.96
418.26	2862.48
418.45	2834.39
418.64	3054.40
418.83	2972.48
419.02	3038.02
419.21	3012.27
419.39	2993.55
419.58	2953.76
419.77	3061.42
419.96	3005.25
420.15	3075.46
420.34	3075.46
420.53	3014.61
420.72	3091.85
420.91	3157.38
421.10	3281.43
421.29	3183.13
421.48	3253.34
421.67	3178.45
421.86	3166.74
422.05	3220.58
422.24	3192.49
422.43	3283.77
422.61	3187.81
422.80	3258.03
422.99	3229.94
423.18	3351.65
423.37	3330.58
423.56	3351.65
423.75	3222.92
423.94	3225.26
424.13	3185.47
424.32	3227.60
424.50	3461.65
424.69	3382.07
424.88	3309.52
425.07	3300.16
425.26	3279.09
425.45	3330.58
425.64	3239.30
425.83	3286.11
426.01	3482.72
426.20	3349.31
426.39	3431.23
426.58	3365.69
426.77	3349.31
426.96	3365.69
427.15	3412.50
427.33	3456.97
427.52	3527.19
427.71	3578.68
427.90	3501.44
428.09	3541.23
428.28	3494.42
428.46	3634.85
428.65	3506.12
428.84	3794.01
429.03	3765.92
429.22	3552.93
429.40	3735.50
429.59	3616.13
429.78	3485.06
429.97	3454.63
430.16	3702.73
430.34	3714.43
430.53	3831.46
430.72	3686.34
430.91	3810.39
431.10	3648.90
431.28	3784.65
431.47	3826.78
431.66	3845.50
431.85	3843.16
432.03	3882.95
432.22	3922.74
432.41	3953.16
432.60	3981.25
432.79	3868.91
432.97	3948.48
433.16	4042.11
433.35	4025.72
433.54	3913.38
433.72	4109.98
433.91	4077.21
434.10	4088.92
434.28	4166.15
434.47	4053.81
434.66	4093.60
434.85	4091.26
435.03	4079.55
435.22	4198.92
435.41	4287.86
435.59	4250.41
435.78	4395.53
435.97	4414.25
436.16	4353.40
436.34	4189.56
436.53	4348.72
436.72	4425.95
436.90	4234.03
437.09	4353.40
437.28	4325.31
437.46	4395.53
437.65	4458.72
437.84	4512.55
438.02	4521.92
438.21	4573.41
438.40	4458.72
438.58	4624.90
438.77	4723.20
438.96	4629.58
439.14	4748.95
439.33	4814.48
439.52	4816.82
439.70	4692.77
439.89	4800.44
440.08	4828.53
440.26	4723.20
440.45	4793.42
440.63	4762.99
440.82	4933.85
441.01	5006.41
441.19	5121.09
441.38	5057.90
441.57	5116.41
441.75	5198.33
441.94	5242.80
442.12	5181.95
442.31	5282.59
442.50	5338.76
442.68	5261.52
442.87	5167.90
443.05	5254.50
443.24	5305.99
443.43	5298.97
443.61	5350.46
443.80	5556.43
443.98	5224.08
444.17	5181.95
444.35	5420.68
444.54	5514.30
444.73	5357.49
444.91	5383.23
445.10	5547.07
445.28	5488.56
445.47	5526.00
445.65	5584.52
445.84	5385.57
446.02	5551.75
446.21	5430.04
446.39	5509.62
446.58	5404.30
446.77	5582.18
446.95	5366.85
447.14	5465.15
447.32	5715.59
447.51	5507.28
447.69	5636.01
447.88	5612.60
448.06	5558.77
448.25	5500.26
448.43	5556.43
448.62	5591.54
448.80	5387.91
448.99	5657.07
449.17	5767.08
449.36	5851.34
449.54	5755.38
449.73	5879.43
449.91	5973.05
450.10	5827.93
450.28	5966.03
450.46	5795.17
450.65	5987.09
450.83	5970.71
451.02	6054.97
451.20	6078.37
451.39	5919.21
451.57	6019.86
451.76	6015.18
451.94	6073.69
452.13	6148.59
452.31	6115.82
452.49	6047.94
452.68	6181.35
452.86	6143.91
453.05	6207.10
453.23	6291.36
453.42	6242.21
453.60	6111.14
453.78	6347.53
453.97	6064.33
454.15	6181.35
454.34	6120.50
454.52	6373.28
454.70	6457.54
454.89	6469.24
455.07	6370.94
455.26	6490.31
455.44	6544.14
455.62	6574.56
455.81	6609.67
455.99	6443.49
456.17	6604.99
456.36	6516.05
456.54	6539.46
456.73	6689.25
456.91	6876.49
457.09	6892.88
457.28	6792.23
457.46	6722.02
457.64	6925.65
457.83	6967.77
458.01	6616.69
458.19	6890.54
458.38	7002.88
458.56	7056.72
458.74	6930.33
458.93	6874.15
459.11	7183.10
459.29	6995.86
459.48	6937.35
459.66	7061.40
459.84	7073.10
460.03	7346.94
460.21	7169.06
460.39	7002.88
460.57	7131.61
460.76	7215.87
460.94	7286.09
461.12	7248.64
461.31	7159.70
461.49	7339.92
461.67	7330.56
461.85	7384.39
462.04	7222.89
462.22	7728.45
462.40	7566.95
462.59	7541.21
462.77	7346.94
462.95	7419.50
463.13	7618.44
463.32	7644.19
463.50	7702.70
463.68	7552.91
463.86	7779.94
464.05	7520.14
464.23	7433.54
464.41	7646.53
464.59	7548.23
464.78	7887.61
464.96	7943.78
465.14	7749.51
465.32	7803.35
465.50	7735.47
465.69	7922.71
465.87	7761.22
466.05	7960.16
466.23	7892.29
466.41	7978.89
466.60	8049.10
466.78	8032.72
466.96	7915.69
467.14	8030.38
467.32	8037.40
467.51	8287.84
467.69	7957.82
467.87	7976.55
468.05	8355.71
468.23	8046.76
468.41	7936.76
468.60	8372.10
468.78	8271.45
468.96	8142.72
469.14	8439.97
469.32	8201.24
469.50	8142.72
469.69	8454.02
469.87	8308.90
470.05	8285.50
470.23	8641.26
470.41	8521.89
470.59	8528.91
470.77	8655.30
470.95	8634.24
471.14	8643.60
471.32	8641.26
471.50	8709.13
471.68	8711.47
471.86	8791.05
472.04	8870.63
472.22	9081.28
472.40	8898.72
472.58	9011.06
472.77	8851.91
472.95	8964.25
473.13	9336.40
473.31	8835.52
473.49	9259.16
473.67	9156.18
473.85	9263.84
474.03	9324.69
474.21	9348.10
474.39	9504.92
474.57	9380.87
474.75	9673.43
474.93	9633.64
475.12	9659.39
475.30	9720.24
475.48	9635.99
475.66	9799.82
475.84	9699.18
476.02	9750.67
476.20	9853.66
476.38	9966.00
476.56	10164.95
476.74	10310.06
476.92	10153.24
477.10	10066.64
477.28	10221.12
477.46	10516.03
477.64	10574.54
477.82	10593.26
478.00	10916.26
478.18	10743.06
478.36	10874.13
478.54	10970.09
478.72	10923.28
478.90	11269.68
479.08	11023.92
479.26	11098.82
479.44	11365.64
479.62	11452.24
479.80	11569.27
479.98	11459.26
480.16	11824.39
480.34	11463.94
480.52	11768.21
480.70	11758.85
480.88	11906.31
481.06	12114.61
481.24	12023.33
481.41	12159.08
481.59	12273.77
481.77	12105.25
481.95	12348.67
482.13	12390.80
482.31	12351.01
482.49	12943.16
482.67	12788.69
482.85	12816.77
483.03	13067.21
483.21	13327.01
483.39	13451.06
483.57	13036.78
483.74	13577.45
483.92	13809.16
484.10	13572.77
484.28	13776.39
484.46	14092.37
484.64	14293.65
484.82	14204.71
485.00	14104.07
485.18	14242.16
485.35	14677.50
485.53	14464.51
485.71	14544.09
485.89	14773.46
486.07	14600.26
486.25	14808.57
486.43	15288.38
486.61	15318.81
486.78	15154.97
486.96	15096.46
487.14	15398.38
487.32	15365.62
487.50	15819.68
487.68	15932.03
487.85	15915.64
488.03	16306.51
488.21	16383.75
488.39	16077.14
488.57	16479.71
488.75	16631.85
488.92	16652.91
489.10	16908.03
489.28	16933.78
489.46	17029.74
489.64	17092.93
489.81	17605.51
489.99	17537.63
490.17	17561.04
490.35	17977.65
490.53	18120.43
490.70	17886.37
490.88	17989.36
491.06	18551.09
491.24	18125.11
491.41	18328.74
491.59	18579.17
491.77	18436.40
491.95	18881.10
492.13	19075.37
492.30	18869.40
492.48	19044.94
492.66	19264.95
492.84	19365.59
493.01	19531.77
493.19	19564.54
493.37	19634.75
493.54	19597.31
493.72	19573.90
493.90	19941.36
494.08	19908.60
494.25	20491.39
494.43	20222.23
494.61	20353.30
494.79	20655.23
494.96	20482.03
495.14	20709.06
495.32	20898.64
495.49	20776.94
495.67	21111.63
495.85	21249.72
496.02	21312.92
496.20	21790.39
496.38	21572.72
496.55	21619.53
496.73	22192.96
496.91	21792.73
497.09	21977.63
497.26	21935.50
497.44	22207.00
497.62	22125.08
497.79	22026.78
497.97	22574.47
498.14	22551.06
498.32	22696.17
498.50	22836.61
498.67	23206.41
498.85	22857.67
499.03	23307.05
499.20	23309.40
499.38	23468.55
499.56	23473.23
499.73	23754.10
499.91	23655.79
500.08	23880.49
500.26	23482.59
500.44	24002.19
500.61	23981.13
500.79	23779.84
500.97	24025.60
501.14	24566.26
501.32	24482.00
501.49	24292.42
501.67	24554.56
501.84	24596.69
502.02	24423.49
502.20	24549.88
502.37	24896.28
502.55	24472.64
502.72	24863.51
502.90	25120.97
503.07	25062.46
503.25	25025.01
503.43	25172.46
503.60	25055.43
503.78	25598.44
503.95	25586.74
504.13	25563.33
504.30	25647.59
504.48	25706.10
504.65	25656.95
504.83	25975.27
505.01	26499.55
505.18	25921.43
505.36	26394.22
505.53	26298.26
505.71	26536.99
505.88	26588.49
506.06	26223.36
506.23	26548.70
506.41	26319.32
506.58	26916.16
506.76	26845.94
506.93	26862.33
507.11	26871.69
507.28	27262.56
507.46	27145.53
507.63	27157.24
507.81	27644.07
507.98	27182.98
508.16	27646.41
508.33	27433.42
508.50	27606.62
508.68	27672.15
508.85	27786.84
509.03	28032.60
509.20	27880.46
509.38	28517.09
509.55	28257.29
509.73	28306.44
509.90	28037.28
510.08	28549.85
510.25	28135.58
510.42	28652.84
510.60	28561.56
510.77	28973.49
510.95	29301.17
511.12	28854.12
511.30	28922.00
511.47	29252.02
511.64	29001.58
511.82	29149.03
511.99	29216.91
512.17	29350.32
512.34	29542.24
512.51	29589.05
512.69	29631.18
512.86	29603.10
513.04	29883.96
513.21	29839.49
513.38	30246.74
513.56	29942.47
513.73	29993.97
513.90	30073.54
514.08	30265.47
514.25	30401.22
514.43	30764.00
514.60	30941.88
514.77	30515.90
514.95	30560.37
515.12	30698.47
515.29	30433.99
515.47	30579.10
515.64	31098.70
515.81	30487.82
515.99	30803.79
516.16	31211.04
516.33	31133.81
516.51	31253.17
516.68	30759.32
516.85	31019.12
517.03	31861.71
517.20	31775.11
517.37	31644.04
517.54	31517.65
517.72	31997.46
517.89	31747.03
518.06	31887.46
518.24	32210.45
518.41	31512.97
518.58	32048.96
518.75	32027.89
518.93	32133.21
519.10	32051.30
519.27	31983.42
519.45	32292.37
519.62	32739.41
519.79	32453.87
519.96	32407.06
520.14	32556.85
520.31	32563.87
520.48	32943.04
520.65	32559.19
520.83	33266.03
521.00	33436.89
521.17	33046.02
521.34	33219.22
521.52	33048.36
521.69	33378.38
521.86	33596.05
522.03	33338.59
522.20	33848.83
522.38	33710.74
522.55	33912.02
522.72	34010.32
522.89	33916.70
523.07	34113.31
523.24	34010.32
523.41	34244.38
523.58	33989.26
523.75	34356.72
523.92	34129.69
524.10	34050.11
524.27	34373.11
524.44	34206.93
524.61	34553.33
524.78	34717.17
524.96	34455.03
525.13	34761.64
525.30	34902.07
525.47	34649.29
525.64	34394.17
525.81	34593.12
525.98	34841.21
526.16	34717.17
526.33	35056.54
526.50	34803.77
526.67	35264.85
526.84	35655.72
527.01	35182.93
527.18	35152.51
527.36	35615.93
527.53	35756.36
527.70	35512.95
527.87	36154.26
528.04	35730.62
528.21	35978.72
528.38	35988.08
528.55	36290.01
528.72	36023.19
528.89	36184.68
529.07	35679.13
529.24	35995.10
529.41	36177.66
529.58	36105.10
529.75	36355.54
529.92	36383.63
530.09	36187.02
530.26	36528.74
530.43	36126.17
530.60	36711.30
530.77	36336.82
530.94	36275.96
531.11	36495.97
531.28	36910.25
531.46	36959.40
531.63	36577.89
531.80	36732.37
531.97	37024.93
532.14	36811.95
532.31	37427.51
532.48	37043.66
532.65	37144.30
532.82	37378.36
532.99	37254.31
533.16	36767.48
533.33	37493.04
533.50	37429.85
533.67	37167.71
533.84	36989.83
534.01	36879.82
534.18	37937.74
534.35	38122.65
534.52	37968.17
534.69	38120.31
534.86	38000.94
535.03	37675.60
535.20	38665.65
535.37	38146.05
535.54	38286.48
535.71	37860.51
535.88	38359.04
536.05	37888.59
536.22	38270.10
536.38	38508.83
536.55	38160.09
536.72	38305.21
536.89	38206.90
537.06	38160.09
537.23	38550.96
537.40	38359.04
537.57	37881.57
537.74	38630.54
537.91	38756.93
538.08	38546.28
538.25	38272.44
538.42	38820.13
538.59	39274.19
538.75	38628.20
538.92	39054.18
539.09	39180.57
539.26	38946.51
539.43	39306.96
539.60	39124.40
539.77	39077.58
539.94	39641.65
540.11	39351.43
540.28	39328.02
540.44	39325.68
540.61	39257.81
540.78	39056.52
540.95	39725.91
541.12	39618.25
541.29	39819.53
541.46	39531.65
541.62	39351.43
541.79	39608.89
541.96	39285.89
542.13	39423.98
542.30	39431.01
542.47	39878.05
542.63	39810.17
542.80	40201.04
542.97	40266.58
543.14	40650.42
543.31	40306.37
543.48	40631.70
543.64	40327.43
543.81	40816.60
543.98	40278.28
544.15	40629.36
544.32	40622.34
544.48	40842.35
544.65	40802.56
544.82	40861.07
544.99	40568.51
545.16	40825.96
545.32	40428.07
545.49	41050.66
545.66	41109.17
545.83	41006.19
546.00	41207.47
546.16	41078.74
546.33	40861.07
546.50	40884.48
546.67	41500.04
546.83	41123.21
547.00	41539.83
547.17	41120.87
547.34	41148.96
547.50	41303.43
547.67	41336.20
547.84	41766.86
548.00	41621.75
548.17	42197.52
548.34	41717.71
548.51	41848.78
548.67	41443.87
548.84	41743.45
549.01	41734.09
549.18	41343.22
549.34	41675.58
549.51	42052.41
549.68	42038.36
549.84	41804.31
550.01	42012.62
550.18	41682.60
550.34	42019.64
550.51	42253.69
550.68	42075.81
550.84	41940.06
551.01	42307.52
551.18	41975.17
551.34	42160.07
551.51	42380.08
551.68	42309.86
551.84	42354.33
552.01	41963.46
552.18	42667.97
552.34	42263.05
552.51	42473.70
552.68	42087.51
552.84	42295.82
553.01	42801.38
553.18	42405.83
553.34	42969.90
553.51	42323.91
553.67	42745.20
553.84	42887.98
554.01	42749.88
554.17	42803.72
554.34	43065.86
554.51	42976.92
554.67	43278.85
554.84	43353.74
555.00	43077.56
555.17	42487.74
555.33	42773.29
555.50	42965.21
555.67	42848.19
555.83	43124.37
556.00	43278.85
556.16	43402.89
556.33	43330.34
556.50	43423.96
556.66	43702.48
556.83	43002.66
556.99	43744.61
557.16	43931.86
557.32	43672.06
557.49	43978.67
557.65	43751.63
557.82	43725.89
557.98	44156.55
558.15	43709.50
558.32	43910.79
558.48	43454.39
558.65	43697.80
558.81	44002.07
558.98	43365.45
559.14	43533.96
559.31	43971.64
559.47	43920.15
559.64	43950.58
559.80	43704.82
559.97	43957.60
560.13	43901.43
560.30	43697.80
560.46	44203.36
560.63	44114.42
560.79	43929.51
560.96	44409.32
561.12	44273.57
561.29	43966.96
561.45	44074.63
561.61	44243.15
561.78	44217.40
561.94	44109.74
562.11	44079.31
562.27	44552.10
562.44	44196.34
562.60	44357.83
562.77	44210.38
562.93	43945.90
563.10	44788.49
563.26	44194.00
563.42	44664.44
563.59	44339.11
563.75	44177.61
563.92	44582.52
564.08	44603.59
564.24	44706.57
564.41	44465.50
564.57	44683.17
564.74	44336.77
564.90	44259.53
565.07	44259.53
565.23	44737.00
565.39	44685.51
565.56	44987.44
565.72	44626.99
565.88	44645.72
566.05	44671.46
566.21	44947.65
566.38	44533.37
566.54	44917.22
566.70	44921.90
566.87	44687.85
567.03	44765.09
567.19	44739.34
567.36	44285.28
567.52	44636.36
567.68	45120.85
567.85	44919.56
568.01	45401.71
568.17	44804.88
568.34	44767.43
568.50	44804.88
568.66	44456.14
568.83	44985.10
568.99	44835.30
569.15	45504.70
569.32	44957.01
569.48	44781.47
569.64	45492.99
569.81	45125.53
569.97	44957.01
570.13	45013.18
570.30	44870.41
570.46	44589.55
570.62	45174.68
570.78	44863.39
570.95	45179.36
571.11	45315.11
571.27	45177.02
571.43	45106.80
571.60	45162.98
571.76	45317.45
571.92	45097.44
572.09	45116.17
572.25	45181.70
572.41	45385.33
572.57	45195.74
572.74	45521.08
572.90	45390.01
573.06	45675.55
573.22	45741.09
573.38	45366.60
573.55	45535.12
573.71	45464.91
573.87	45132.55
574.03	45205.11
574.20	45652.15
574.36	45570.23
574.52	45511.72
574.68	45574.91
574.84	45581.93
575.01	45514.06
575.17	45268.30
575.33	45207.45
575.49	45502.35
575.65	45640.45
575.82	45755.13
575.98	45464.91
576.14	45581.93
576.30	45715.34
576.46	45773.86
576.62	45502.35
576.79	45621.72
576.95	45411.07
577.11	44919.56
577.27	45378.31
577.43	45469.59
577.59	45598.32
577.75	45450.86
577.92	45048.29
578.08	45663.85
578.24	45539.80
578.40	45801.94
578.56	45621.72
578.72	45525.76
578.88	45600.66
579.04	45586.61
579.21	45546.82
579.37	45827.69
579.53	45834.71
579.69	45570.23
579.85	45350.22
580.01	45986.85
580.17	45811.31
580.33	45631.08
580.49	45830.03
580.65	45771.52
580.82	45464.91
580.98	45067.02
581.14	45485.97
581.30	45603.00
581.46	45240.21
581.62	45364.26
581.78	45415.76
581.94	45996.21
582.10	45640.45
582.26	45588.95
582.42	45977.48
582.58	45900.25
582.74	45921.31
582.90	45511.72
583.06	46021.95
583.22	45888.54
583.38	45776.20
583.54	45996.21
583.70	45975.14
583.86	45837.05
584.02	45961.10
584.18	46153.02
584.34	46181.11
584.50	46347.29
584.66	45535.12
584.82	46309.84
584.98	46061.74
585.14	46171.75
585.30	45698.96
585.46	45411.07
585.62	45551.51
585.78	45944.72
585.94	45675.55
586.10	45628.74
586.26	45560.87
586.42	46019.61
586.58	46040.68
586.74	45713.00
586.90	45471.93
587.06	45605.34
587.22	46298.14
587.38	45832.37
587.54	45963.44
587.70	45970.46
587.86	46141.32
588.02	45778.54
588.18	46047.70
588.34	46522.83
588.49	46012.59
588.65	45549.17
588.81	45813.65
588.97	45862.80
589.13	46007.91
589.29	46248.99
589.45	46178.77
589.61	46099.19
589.77	46337.93
589.93	46036.00
590.08	45860.46
590.24	46108.55
590.40	46295.80
590.56	46939.44
590.72	46436.23
590.88	46120.26
591.04	46057.06
591.20	46012.59
591.35	46347.29
591.51	46616.45
591.67	46904.34
591.83	46611.77
591.99	46363.67
592.15	46115.58
592.31	46473.68
592.46	45848.75
592.62	46387.08
592.78	46593.04
592.94	46422.19
593.10	46869.23
593.26	46782.63
593.41	46815.40
593.57	46609.43
593.73	46363.67
593.89	46813.05
594.05	46831.78
594.20	46866.89
594.36	47040.09
594.52	46478.36
594.68	46567.30
594.84	46583.68
594.99	46670.28
595.15	46408.14
595.31	46951.15
595.47	46157.70
595.62	46358.99
595.78	46426.87
595.94	46670.28
596.10	46412.82
596.25	46579.00
596.41	46600.07
596.57	46267.71
596.73	46651.56
596.88	46820.08
597.04	46621.13
597.20	46911.36
597.36	46447.93
597.51	46368.35
597.67	46403.46
597.83	46178.77
597.99	46993.28
598.14	46794.33
598.30	46738.16
598.46	46188.13
598.61	47274.14
598.77	46550.91
598.93	47194.56
599.09	46618.79
599.24	46850.50
599.40	46630.49
599.56	46511.13
599.71	46969.87
599.87	47154.77
600.03	47072.85
600.18	46986.25
600.34	47070.51
600.50	47103.28
600.65	46501.76
600.81	46686.67
600.97	47215.63
601.12	46958.17
601.28	47098.60
601.44	46600.07
601.59	46880.93
601.75	46834.12
601.91	46920.72
602.06	47114.98
602.22	47004.98
602.37	46555.60
602.53	46747.52
602.69	47035.41
602.84	46670.28
603.00	46583.68
603.16	46787.31
603.31	46791.99
603.47	46883.27
603.62	46560.28
603.78	47133.71
603.94	46672.62
604.09	46815.40
604.25	46595.38
604.40	46707.73
604.56	47014.34
604.71	46759.22
604.87	46349.63
605.03	46745.18
605.18	46859.87
605.34	46986.25
605.49	46602.41
605.65	46717.09
605.80	46490.06
605.96	46354.31
606.12	46864.55
606.27	46916.04
606.43	46019.61
606.58	47182.86
606.74	46527.51
606.89	46817.74
607.05	46756.88
607.20	46728.80
607.36	46440.91
607.51	46590.70
607.67	46871.57
607.82	46487.72
607.98	46216.22
608.13	46382.40
608.29	46501.76
608.44	46586.02
608.60	46698.37
608.75	46541.55
608.91	46185.79
609.06	46370.69
609.22	46857.52
609.37	46508.79
609.53	46667.94
609.68	46417.50
609.84	46080.47
609.99	46412.82
610.15	46279.41
610.30	46520.49
610.46	46415.16
610.61	46452.61
610.76	46131.96
610.92	46153.02
611.07	46396.44
611.23	46305.16
611.38	46003.23
611.54	46351.97
611.69	46403.46
611.84	46323.88
612.00	46431.55
612.15	46253.67
612.31	46134.30
612.46	45588.95
612.62	46071.10
612.77	45743.43
612.92	46316.86
613.08	45909.61
613.23	46188.13
613.39	46314.52
613.54	45783.22
613.69	46356.65
613.85	46333.24
614.00	45970.46
614.15	46005.57
614.31	45851.09
614.46	46124.94
614.62	46176.43
614.77	45734.07
614.92	46005.57
615.08	45982.16
615.23	46197.49
615.38	46445.59
615.54	46014.93
615.69	45745.77
615.84	45469.59
616.00	46253.67
616.15	46061.74
616.30	45804.28
616.46	45895.56
616.61	45893.22
616.76	46108.55
616.92	45558.53
617.07	45504.70
617.22	45581.93
617.37	45673.21
617.53	45729.39
617.68	45940.04
617.83	45820.67
617.99	46178.77
618.14	46155.36
618.29	45635.77
618.45	45277.66
618.60	45617.04
618.75	45364.26
618.90	45502.35
619.06	45507.04
619.21	45535.12
619.36	45897.91
619.51	45556.19
619.67	45078.72
619.82	45265.96
619.97	45251.92
620.12	45542.14
620.28	45553.85
620.43	45457.88
620.58	45340.86
620.73	45184.04
620.89	45593.64
621.04	45563.21
621.19	45064.67
621.34	44715.93
621.49	45158.30
621.65	45165.32
621.80	45219.15
621.95	45343.20
622.10	45177.02
622.25	45326.81
622.41	45092.76
622.56	44924.24
622.71	45050.63
622.86	45272.98
623.01	45287.03
623.16	44903.18
623.32	44570.82
623.47	44921.90
623.62	45153.62
623.77	45317.45
623.92	45059.99
624.07	44931.26
624.23	45109.14
624.38	45153.62
624.53	44893.82
624.68	44582.52
624.83	45137.23
624.98	44793.17
625.13	44786.15
625.29	44839.98
625.44	44428.05
625.59	44720.62
625.74	44751.04
625.89	44074.63
626.04	44126.12
626.19	44395.28
626.34	44697.21
626.49	44414.01
626.65	44229.10
626.80	44421.03
626.95	44559.12
627.10	43742.27
627.25	44596.57
627.40	44069.95
627.55	44547.42
627.70	44325.07
627.85	44205.70
628.00	44083.99
628.15	44201.02
628.30	43557.37
628.45	43789.08
628.60	43749.29
628.76	44011.43
628.91	44060.58
629.06	43653.33
629.21	43297.57
629.36	43667.37
629.51	44053.56
629.66	44385.92
629.81	44083.99
629.96	44133.14
630.11	43636.95
630.26	44046.54
630.41	44074.63
630.56	43899.09
630.71	43487.15
630.86	43585.46
631.01	43536.30
631.16	43852.28
631.31	43442.68
631.46	43758.66
631.61	43840.57
631.76	44491.24
631.91	43739.93
632.06	43737.59
632.21	43789.08
632.36	43688.44
632.51	43318.64
632.66	43854.62
632.81	43372.47
632.96	43583.12
633.10	43716.53
633.25	43379.49
633.40	43475.45
633.55	43449.70
633.70	43702.48
633.85	43384.17
634.00	42941.81
634.15	43290.55
634.30	43119.69
634.45	43311.61
634.60	43543.33
634.75	43131.39
634.90	42866.91
635.05	43372.47
635.19	43140.75
635.34	43620.56
635.49	43143.09
635.64	43033.09
635.79	43213.31
635.94	42958.19
636.09	43414.60
636.24	43159.48
636.39	43264.80
636.53	43133.73
636.68	42351.99
636.83	42483.06
636.98	42703.07
637.13	42698.39
637.28	42670.31
637.43	42834.14
637.57	42873.93
637.72	42356.67
637.87	42838.83
638.02	42822.44
638.17	42476.04
638.32	42614.13
638.46	42410.51
638.61	42305.18
638.76	42258.37
638.91	42646.90
639.06	42754.57
639.20	41956.44
639.35	42611.79
639.50	42476.04
639.65	42394.12
639.80	42384.76
639.94	42361.36
640.09	42089.85
640.24	42337.95
640.39	42033.68
640.54	41425.14
640.68	42188.16
640.83	42663.28
640.98	42284.12
641.13	41876.86
641.27	42029.00
641.42	42286.46
641.57	41949.42
641.72	42012.62
641.86	41942.40
642.01	41478.97
642.16	41853.46
642.31	41654.51
642.45	41954.10
642.60	41619.41
642.75	42043.04
642.90	41752.82
643.04	41907.29
643.19	41607.70
643.34	41656.85
643.48	41230.88
643.63	41614.72
643.78	41860.48
643.93	42000.91
644.07	41876.86
644.22	41820.69
644.37	41471.95
644.51	41722.39
644.66	41429.82
644.81	41881.55
644.95	41560.89
645.10	41612.38
645.25	41092.79
645.39	41265.99
645.54	41130.23
645.69	41088.10
645.83	41242.58
645.98	40854.05
646.13	40898.52
646.27	41539.83
646.42	40622.34
646.57	41139.60
646.71	41486.00
646.86	41549.19
647.00	41511.74
647.15	41146.62
647.30	41502.38
647.44	40921.93
647.59	41280.03
647.74	40701.92
647.88	41120.87
648.03	41006.19
648.17	41535.15
648.32	41034.27
648.47	41326.84
648.61	40830.65
648.76	40858.73
648.90	40971.08
649.05	40282.96
649.20	40755.75
649.34	40971.08
649.49	41198.11
649.63	40811.92
649.78	40950.01
649.92	40531.06
650.07	41263.64
650.21	41071.72
650.36	41326.84
650.51	40816.60
650.65	41144.28
650.80	40215.08
650.94	40762.77
651.09	40521.69
651.23	40374.24
651.38	40282.96
651.52	40297.00
651.67	40671.49
651.81	40732.34
651.96	40357.86
652.10	39915.50
652.25	40304.02
652.39	40484.25
652.54	40402.33
652.68	39948.26
652.83	40252.53
652.97	40184.66
653.12	40013.80
653.26	40158.91
653.41	40231.47
653.55	40172.96
653.70	40187.00
653.84	40196.36
653.99	40748.73
654.13	39903.79
654.27	40353.18
654.42	40074.65
654.56	39864.00
654.71	40332.11
654.85	40423.39
655.00	40233.81
655.14	39934.22
655.29	40194.02
655.43	40109.76
655.57	39735.27
655.72	39805.49
655.86	40095.72
656.01	39475.48
656.15	39571.44
656.30	39786.77
656.44	39782.09
656.58	39651.02
656.73	39805.49
656.87	39529.31
657.01	38625.86
657.16	39391.22
657.30	39304.62
657.45	39536.33
657.59	39232.06
657.73	39014.39
657.88	39548.03
658.02	39342.06
658.16	39400.58
658.31	39409.94
658.45	39466.11
658.60	39199.29
658.74	39157.16
658.88	39215.68
659.03	39005.03
659.17	38958.22
659.31	39353.77
659.46	38295.85
659.60	38869.28
659.74	38850.55
659.89	38227.97
660.03	38197.54
660.17	38518.20
660.32	38780.34
660.46	38553.30
660.60	38593.09
660.74	38747.57
660.89	38653.95
661.03	38014.98
661.17	38096.90
661.32	38244.35
661.46	38139.03
661.60	38403.51
661.74	38139.03
661.89	38005.62
662.03	38396.49
662.17	37982.21
662.31	38005.62
662.46	37928.38
662.60	37876.89
662.74	37804.33
662.88	37488.36
663.03	37586.66
663.17	37797.31
663.31	37132.60
663.45	37184.09
663.60	37888.59
663.74	37502.40
663.88	37184.09
664.02	37333.89
664.17	37551.56
664.31	37680.28
664.45	37296.44
664.59	37216.86
664.73	36978.12
664.88	37151.32
665.02	36769.82
665.16	36821.31
665.30	37228.56
665.44	37378.36
665.59	36737.05
665.73	36755.77
665.87	36217.45
666.01	36610.66
666.15	36535.76
666.29	36126.17
666.44	36692.58
666.58	36664.49
666.72	35988.08
666.86	36240.86
667.00	36442.14
667.14	36165.96
667.28	36315.75
667.43	36233.83
667.57	35859.35
667.71	36339.16
667.85	36252.56
667.99	35913.18
668.13	35644.02
668.27	35765.73
668.41	36048.93
668.56	35388.90
668.70	35070.59
668.84	35072.93
668.98	35042.50
669.12	35414.65
669.26	35204.00
669.40	35716.58
669.54	35360.81
669.68	35136.12
669.82	34859.94
669.96	34597.80
670.10	34820.15
670.25	34738.23
670.39	34623.54
670.53	35292.94
670.67	34810.79
670.81	35278.89
670.95	35131.44
671.09	34700.78
671.23	34335.66
671.37	34771.00
671.51	34183.52
671.65	34242.04
671.79	34110.97
671.93	34338.00
672.07	34242.04
672.21	33949.47
672.35	33743.50
672.49	34195.23
672.63	33591.37
672.77	33724.78
672.91	33996.28
673.05	33633.50
673.19	33640.52
673.33	33378.38
673.47	33099.86
673.61	32863.46
673.75	32973.47
673.89	33006.23
674.03	33282.42
674.17	32830.69
674.31	32947.72
674.45	32828.35
674.59	32666.86
674.73	32694.94
674.87	33022.62
675.01	32690.26
675.15	32371.95
675.29	31978.74
675.43	32378.97
675.56	32275.99
675.70	32322.80
675.84	31974.06
675.98	31182.96
676.12	31880.44
676.26	31885.12
676.40	31630.00
676.54	31812.56
676.68	31351.48
676.82	31009.76
676.96	31070.61
677.10	31388.92
677.23	31164.23
677.37	31220.41
677.51	31112.74
677.65	30885.71
677.79	30941.88
677.93	30438.67
678.07	30726.55
678.21	30087.59
678.34	30199.93
678.48	30064.18
678.62	29940.13
678.76	29844.17
678.90	30110.99
679.04	30185.89
679.18	30157.80
679.31	29397.13
679.45	29488.41
679.59	29439.26
679.73	29661.61
679.87	29017.96
680.00	29340.96
680.14	29542.24
680.28	28891.57
680.42	29134.99
680.56	28898.59
680.70	28802.63
680.83	28734.76
680.97	28692.63
681.11	28940.72
681.25	28386.02
681.39	28109.83
681.52	28533.47
681.66	27882.80
681.80	27733.01
681.94	27646.41
682.07	27571.51
682.21	27768.12
682.35	27534.06
682.49	27505.98
682.62	27611.30
682.76	27613.64
682.90	27185.32
683.04	27152.55
683.17	27075.32
683.31	27115.11
683.45	26878.71
683.59	26647.00
683.72	26647.00
683.86	26436.35
684.00	26625.93
684.13	26581.46
684.27	26745.30
684.41	26274.85
684.55	26387.20
684.68	26068.89
684.82	25446.30
684.96	25935.48
685.09	25986.97
685.23	25912.07
685.37	26141.44
685.50	25970.58
685.64	25841.85
685.78	25378.43
685.91	25411.20
686.05	25017.99
686.19	24416.47
686.32	24765.21
686.46	24533.50
686.60	24472.64
686.73	24842.45
686.87	24669.25
687.01	24961.81
687.14	24737.12
687.28	24776.91
687.42	24643.50
687.55	24390.72
687.69	24329.87
687.82	23709.63
687.96	24130.92
688.10	23758.78
688.23	23655.79
688.37	24051.34
688.50	23950.70
688.64	23529.41
688.78	23915.59
688.91	23213.43
689.05	23314.08
689.18	22808.52
689.32	22750.01
689.46	22625.96
689.59	22707.88
689.73	23075.34
689.86	22916.19
690.00	22857.67
690.13	22534.68
690.27	22712.56
690.41	22738.30
690.54	22207.00
690.68	22312.33
690.81	22391.91
690.95	21956.57
691.08	21673.36
691.22	21603.14
691.35	21593.78
691.49	21832.52
691.62	21678.04
691.76	21123.33
691.89	21399.52
692.03	21010.99
692.16	20954.82
692.30	21025.03
692.43	20917.37
692.57	20636.50
692.70	20788.64
692.84	20858.85
692.97	20348.62
693.11	20592.03
693.24	20133.29
693.38	20177.76
693.51	20372.02
693.65	20107.54
693.78	19924.98
693.92	19999.88
694.05	19449.85
694.19	19836.04
694.32	20016.26
694.45	19864.13
694.59	19873.49
694.72	19878.17
694.86	19463.90
694.99	19377.30
695.13	19058.98
695.26	19211.12
695.39	19030.90
695.53	18977.06
695.66	18817.91
695.80	18824.93
695.93	18941.96
696.07	18853.02
696.20	18293.63
696.33	18633.00
696.47	18047.87
696.60	18377.89
696.73	18375.55
696.87	18326.39
697.00	18115.75
697.14	18087.66
697.27	17916.80
697.40	18001.06
697.54	17851.27
697.67	17745.94
697.80	17848.93
697.94	17334.01
698.07	17502.53
698.21	17240.39
698.34	17067.19
698.47	17181.87
698.61	16657.59
698.74	16975.91
698.87	16959.52
699.01	16791.00
699.14	16905.69
699.27	16851.86
699.40	16760.58
699.54	16570.99
699.67	16444.60
699.80	16142.67
699.94	16339.28
700.07	16067.78
700.20	16350.98
700.34	16002.24
700.47	16027.99
700.60	16219.91
700.73	16198.85
700.87	15875.85
701.00	15489.67
701.13	15426.47
701.26	15660.52
701.40	15632.44
701.53	15009.86
701.66	15356.25
701.79	15272.00
701.93	15187.74
702.06	14831.97
702.19	14951.34
702.32	15122.20
702.46	14906.87
702.59	14883.47
702.72	14981.77
702.85	14864.74
702.99	14768.78
703.12	14705.59
703.25	14546.43
703.38	14375.57
703.51	14310.04
703.65	14141.52
703.78	14305.35
703.91	13809.16
704.04	13937.89
704.17	14111.09
704.31	13689.79
704.44	13947.25
704.57	13958.96
704.70	13891.08
704.83	13687.45
704.96	13724.90
705.10	13345.73
705.23	13273.18
>>>>>End Processed Spectral Data<<<<<
