SpectraSuite Data File
++++++++++++++++++++++++++++++++++++
Date: Fri Oct 25 10:47:57 EDT 2013
User: price-jones
Dark Spectrum Present: No
Reference Spectrum Present: No
Number of Sampled Component Spectra: 1
Spectrometers: USB2+H05261
Integration Time (usec): 100000 (USB2+H05261)
Spectra Averaged: 1 (USB2+H05261)
Boxcar Smoothing: 0 (USB2+H05261)
Correct for Electrical Dark: No (USB2+H05261)
Strobe/Lamp Enabled: No (USB2+H05261)
Correct for Detector Non-linearity: No (USB2+H05261)
Correct for Stray Light: No (USB2+H05261)
Number of Pixels in Processed Spectrum: 2048
>>>>>Begin Processed Spectral Data<<<<<
365.73	161.50
365.92	161.50
366.12	161.50
366.32	0.00
366.52	18.72
366.72	51.49
366.91	79.58
367.11	119.37
367.31	44.47
367.51	0.00
367.70	46.81
367.90	44.47
368.10	28.09
368.30	16.38
368.49	25.75
368.69	53.83
368.89	18.72
369.09	28.09
369.28	67.88
369.48	63.19
369.68	117.03
369.87	126.39
370.07	100.64
370.27	117.03
370.47	243.42
370.66	440.02
370.86	369.80
371.06	440.02
371.25	498.53
371.45	425.98
371.65	503.22
371.84	390.87
372.04	433.00
372.24	517.26
372.44	449.38
372.63	531.30
372.83	547.69
373.03	514.92
373.22	463.43
373.42	545.34
373.62	491.51
373.81	526.62
374.01	514.92
374.21	505.56
374.40	512.58
374.60	629.60
374.79	585.13
374.99	589.82
375.19	578.11
375.38	589.82
375.58	589.82
375.78	624.92
375.97	613.22
376.17	603.86
376.37	641.31
376.56	648.33
376.76	498.53
376.95	547.69
377.15	603.86
377.35	711.52
377.54	664.71
377.74	631.94
377.93	676.41
378.13	587.47
378.33	702.16
378.52	617.90
378.72	671.73
378.91	582.79
379.11	667.05
379.31	671.73
379.50	578.11
379.70	617.90
379.89	615.56
380.09	601.52
380.28	660.03
380.48	676.41
380.68	627.26
380.87	697.48
381.07	674.07
381.26	660.03
381.46	669.39
381.65	578.11
381.85	568.75
382.04	638.97
382.24	688.12
382.43	676.41
382.63	737.27
382.83	699.82
383.02	739.61
383.22	760.67
383.41	720.88
383.61	709.18
383.80	800.46
384.00	772.38
384.19	720.88
384.39	788.76
384.58	730.25
384.78	734.93
384.97	716.20
385.17	706.84
385.36	833.23
385.56	798.12
385.75	737.27
385.95	662.37
386.14	692.80
386.34	730.25
386.53	739.61
386.72	777.06
386.92	763.01
387.11	931.53
387.31	814.51
387.50	793.44
387.70	868.34
387.89	802.80
388.09	753.65
388.28	882.38
388.48	847.27
388.67	889.40
388.86	842.59
389.06	842.59
389.25	873.02
389.45	908.13
389.64	898.77
389.84	898.77
390.03	924.51
390.22	880.04
390.42	938.55
390.61	938.55
390.81	901.11
391.00	952.60
391.19	1022.81
391.39	1022.81
391.58	866.00
391.78	891.74
391.97	866.00
392.16	954.94
392.36	1006.43
392.55	936.21
392.75	1011.11
392.94	985.37
393.13	997.07
393.33	889.40
393.52	1013.45
393.71	1057.92
393.91	959.62
394.10	938.55
394.29	961.96
394.49	985.37
394.68	1102.39
394.88	1153.88
395.07	1034.52
395.26	1142.18
395.46	1125.80
395.65	1158.57
395.84	1170.27
396.04	1219.42
396.23	1074.31
396.42	1125.80
396.62	1041.54
396.81	1102.39
397.00	1114.10
397.19	1259.21
397.39	1205.38
397.58	1238.14
397.77	1158.57
397.97	1256.87
398.16	1179.63
398.35	1156.22
398.55	1259.21
398.74	1231.12
398.93	1357.51
399.12	1214.74
399.32	1186.65
399.51	1303.68
399.70	1334.11
399.90	1390.28
400.09	1413.68
400.28	1446.45
400.47	1411.34
400.67	1519.01
400.86	1373.89
401.05	1413.68
401.24	1430.07
401.44	1493.26
401.63	1434.75
401.82	1584.54
402.01	1425.39
402.21	1507.30
402.40	1371.55
402.59	1497.94
402.78	1563.48
402.97	1544.75
403.17	1537.73
403.36	1612.63
403.55	1619.65
403.74	1657.10
403.93	1657.10
404.13	1696.89
404.32	1551.78
404.51	1556.46
404.70	1703.91
404.89	1626.67
405.09	1741.36
405.28	1708.59
405.47	1813.92
405.66	1823.28
405.85	1776.47
406.05	1825.62
406.24	1788.17
406.43	1771.79
406.62	1893.49
406.81	1961.37
407.00	1804.55
407.20	1802.21
407.39	1811.57
407.58	1914.56
407.77	1919.24
407.96	1959.03
408.15	2118.18
408.34	1942.64
408.54	2090.10
408.73	2083.08
408.92	1968.39
409.11	2031.58
409.30	2087.76
409.49	1963.71
409.68	2083.08
409.87	2115.84
410.07	2085.42
410.26	2043.29
410.45	2106.48
410.64	2179.04
410.83	2099.46
411.02	2256.28
411.21	2235.21
411.40	2155.63
411.59	2209.47
411.78	2265.64
411.98	2195.42
412.17	2239.89
412.36	2352.24
412.55	2424.80
412.74	2340.54
412.93	2455.22
413.12	2415.43
413.31	2487.99
413.50	2558.21
413.69	2478.63
413.88	2607.36
414.07	2527.78
414.26	2642.46
414.45	2588.63
414.64	2679.91
414.83	2640.12
415.02	2738.43
415.22	2818.00
415.41	2700.98
415.60	2867.16
415.79	2689.28
415.98	2827.37
416.17	2984.18
416.36	2897.58
416.55	2771.19
416.74	3000.57
416.93	2843.75
417.12	2881.20
417.31	3035.67
417.50	2876.52
417.69	3096.53
417.88	2967.80
418.07	3052.06
418.26	2972.48
418.45	3038.02
418.64	3279.09
418.83	3049.72
419.02	3185.47
419.21	3234.62
419.39	3222.92
419.58	3089.51
419.77	3262.71
419.96	3141.00
420.15	3246.32
420.34	3267.39
420.53	3295.47
420.72	3346.97
420.91	3353.99
421.10	3421.86
421.29	3456.97
421.48	3459.31
421.67	3452.29
421.86	3407.82
422.05	3330.58
422.24	3410.16
422.43	3478.04
422.61	3393.78
422.80	3557.61
422.99	3508.46
423.18	3482.72
423.37	3665.28
423.56	3513.14
423.75	3478.04
423.94	3569.32
424.13	3169.09
424.32	3487.40
424.50	3510.80
424.69	3627.83
424.88	3513.14
425.07	3602.08
425.26	3431.23
425.45	3410.16
425.64	3552.93
425.83	3492.08
426.01	3651.24
426.20	3536.55
426.39	3496.76
426.58	3496.76
426.77	3555.27
426.96	3658.26
427.15	3803.37
427.33	3595.06
427.52	3588.04
427.71	3744.86
427.90	3789.33
428.09	3674.64
428.28	3794.01
428.46	3702.73
428.65	3742.52
428.84	3964.87
429.03	3850.18
429.22	3857.20
429.40	3779.97
429.59	3763.58
429.78	3653.58
429.97	3758.90
430.16	3796.35
430.34	3808.05
430.53	3906.35
430.72	3786.99
430.91	3873.59
431.10	3950.82
431.28	4079.55
431.47	4182.54
431.66	4227.01
431.85	4074.87
432.03	4147.43
432.22	4381.48
432.41	4147.43
432.60	4152.11
432.79	4198.92
432.97	4217.65
433.16	4262.12
433.35	4236.37
433.54	4266.80
433.72	4191.90
433.91	4397.87
434.10	4264.46
434.28	4301.90
434.47	4329.99
434.66	4486.81
434.85	4500.85
435.03	4227.01
435.22	4491.49
435.41	4444.68
435.59	4545.32
435.78	4540.64
435.97	4484.47
436.16	4521.92
436.34	4535.96
436.53	4645.96
436.72	4781.71
436.90	4652.98
437.09	4650.64
437.28	4671.71
437.46	4669.37
437.65	4725.54
437.84	4629.58
438.02	4641.28
438.21	4550.00
438.40	4538.30
438.58	4739.58
438.77	4966.62
438.96	4777.03
439.14	4933.85
439.33	5207.69
439.52	5160.88
439.70	5004.07
439.89	5139.82
440.08	5245.14
440.26	5078.96
440.45	5203.01
440.63	5245.14
440.82	5359.83
441.01	5203.01
441.19	5472.17
441.38	5392.59
441.57	5547.07
441.75	5359.83
441.94	5507.28
442.12	5472.17
442.31	5666.44
442.50	5657.07
442.68	5664.10
442.87	5858.36
443.05	5572.82
443.24	5701.54
443.43	5846.66
443.61	5792.83
443.80	5914.53
443.98	5544.73
444.17	5530.69
444.35	5731.97
444.54	5764.74
444.73	5867.72
444.91	5816.23
445.10	5823.25
445.28	5816.23
445.47	5584.52
445.65	5776.44
445.84	5680.48
446.02	6019.86
446.21	5937.94
446.39	5867.72
446.58	5790.49
446.77	5851.34
446.95	5909.85
447.14	6064.33
447.32	5942.62
447.51	5865.38
447.69	6005.81
447.88	5937.94
448.06	5919.21
448.25	5891.13
448.43	6017.52
448.62	5984.75
448.80	5921.56
448.99	6120.50
449.17	6043.26
449.36	6073.69
449.54	6277.32
449.73	6368.60
449.91	6237.53
450.10	6384.98
450.28	6523.07
450.46	6384.98
450.65	6518.39
450.83	6389.66
451.02	6401.37
451.20	6373.28
451.39	6314.77
451.57	6377.96
451.76	6415.41
451.94	6455.20
452.13	6562.86
452.31	6415.41
452.49	6314.77
452.68	6347.53
452.86	6485.62
453.05	6698.61
453.23	6576.91
453.42	6548.82
453.60	6569.88
453.78	6551.16
453.97	6675.21
454.15	6518.39
454.34	6621.38
454.52	6658.82
454.70	6724.36
454.89	6768.83
455.07	6759.47
455.26	6794.58
455.44	7047.35
455.62	6864.79
455.81	6801.60
455.99	6853.09
456.17	7007.56
456.36	6937.35
456.54	7140.97
456.73	7239.28
456.91	7155.02
457.09	7265.02
457.28	7461.63
457.46	7159.70
457.64	7316.51
457.83	7531.84
458.01	7166.72
458.19	7344.60
458.38	7398.43
458.56	7377.37
458.74	7517.80
458.93	7447.58
459.11	7665.25
459.29	7609.08
459.48	7473.33
459.66	7365.67
459.84	7531.84
460.03	7639.51
460.21	7517.80
460.39	7719.09
460.57	7632.49
460.76	7714.41
460.94	7686.32
461.12	7850.16
461.31	7772.92
461.49	7667.60
461.67	7705.04
461.85	7918.03
462.04	7803.35
462.22	8348.69
462.40	8262.09
462.59	8140.38
462.77	7878.24
462.95	8077.19
463.13	8086.55
463.32	7911.01
463.50	7974.21
463.68	8222.30
463.86	7850.16
464.05	8088.89
464.23	7999.95
464.41	8329.97
464.59	8060.80
464.78	8189.53
464.96	8166.13
465.14	8166.13
465.32	8327.63
465.50	8351.03
465.69	8580.40
465.87	8505.51
466.05	8479.76
466.23	8138.04
466.41	8395.50
466.60	8540.61
466.78	8404.86
466.96	8503.17
467.14	8585.08
467.32	8294.86
467.51	8648.28
467.69	8500.83
467.87	8491.46
468.05	8599.13
468.23	8437.63
468.41	8512.53
468.60	8709.13
468.78	8685.73
468.96	8533.59
469.14	8765.31
469.32	8954.89
469.50	8526.57
469.69	8877.65
469.87	9022.77
470.05	8997.02
470.23	8765.31
470.41	8805.10
470.59	8826.16
470.77	8849.57
470.95	9062.55
471.14	9114.05
471.32	8908.08
471.50	9188.94
471.68	9188.94
471.86	9301.29
472.04	9327.03
472.22	9591.52
472.40	9282.56
472.58	9322.35
472.77	9329.38
472.95	9551.73
473.13	9928.55
473.31	9554.07
473.49	9619.60
473.67	9591.52
473.85	9703.86
474.03	9949.62
474.21	10045.58
474.39	10001.11
474.57	10181.33
474.75	10010.47
474.93	10033.88
475.12	10080.69
475.30	10171.97
475.48	10080.69
475.66	10225.80
475.84	10434.11
476.02	10277.29
476.20	10284.31
476.38	10616.67
476.56	10684.55
476.74	10574.54
476.92	10724.33
477.10	10616.67
477.28	10813.28
477.46	10827.32
477.64	11089.46
477.82	11183.08
478.00	11307.13
478.18	11239.25
478.36	11342.24
478.54	11707.36
478.72	11749.49
478.90	11648.85
479.08	11840.77
479.26	11765.87
479.44	11915.67
479.62	12201.21
479.80	12035.03
479.98	12119.29
480.16	12461.01
480.34	12231.64
480.52	12409.52
480.70	12369.73
480.88	12381.43
481.06	12465.69
481.24	12540.59
481.41	13074.23
481.59	13015.72
481.77	13050.83
481.95	13219.35
482.13	13036.78
482.31	13137.43
482.49	13628.94
482.67	13591.49
482.85	13675.75
483.03	13720.22
483.21	13994.06
483.39	14094.71
483.57	13944.91
483.74	13954.27
483.92	13914.48
484.10	13973.00
484.28	14408.34
484.46	14628.35
484.64	14869.42
484.82	14513.66
485.00	14808.57
485.18	15087.09
485.35	15105.82
485.53	14677.50
485.71	15089.43
485.89	15346.89
486.07	15304.76
486.25	15379.66
486.43	15634.78
486.61	15686.27
486.78	15927.35
486.96	16086.50
487.14	16205.87
487.32	16102.89
487.50	16390.77
487.68	16545.25
487.85	16961.86
488.03	16835.47
488.21	16816.75
488.39	16929.09
488.57	16992.29
488.75	16959.52
488.92	17523.59
489.10	17811.48
489.28	17954.25
489.46	18050.21
489.64	17818.50
489.81	18380.23
489.99	18434.06
490.17	18511.30
490.35	18588.53
490.53	18427.04
490.70	18455.12
490.88	18590.88
491.06	19094.09
491.24	19124.52
491.41	18923.23
491.59	19105.79
491.77	19447.51
491.95	19527.09
492.13	19524.75
492.30	19648.80
492.48	19861.79
492.66	20168.40
492.84	19711.99
493.01	20095.84
493.19	20194.14
493.37	20425.86
493.54	20622.46
493.72	20634.16
493.90	20702.04
494.08	20847.15
494.25	20940.77
494.43	21202.91
494.61	21418.24
494.79	21401.86
494.96	21493.14
495.14	21624.21
495.32	21762.30
495.49	21797.41
495.67	22043.17
495.85	22436.38
496.02	22338.07
496.20	22368.50
496.38	22427.01
496.55	22520.63
496.73	22881.08
496.91	22396.59
497.09	22735.96
497.26	23300.03
497.44	22911.50
497.62	23124.49
497.79	23021.51
497.97	23311.74
498.14	23627.71
498.32	23491.96
498.50	23693.24
498.67	24210.50
498.85	23894.53
499.03	24620.10
499.20	23981.13
499.38	24095.82
499.56	24144.97
499.73	24402.43
499.91	24582.65
500.08	24589.67
500.26	24524.13
500.44	24584.99
500.61	25025.01
500.79	24500.73
500.97	24702.01
501.14	25050.75
501.32	25308.21
501.49	25137.35
501.67	25284.81
501.84	25352.68
502.02	25380.77
502.20	25319.92
502.37	25785.68
502.55	25942.50
502.72	25692.06
502.90	25865.26
503.07	25937.82
503.25	25844.20
503.43	25802.07
503.60	26171.87
503.78	26155.49
503.95	26120.38
504.13	26441.03
504.30	26169.53
504.48	26347.41
504.65	26691.47
504.83	27042.55
505.01	27112.77
505.18	26815.52
505.36	27538.74
505.53	27428.74
505.71	27304.69
505.88	27623.00
506.06	27395.97
506.23	27428.74
506.41	27594.92
506.58	27707.26
506.76	27744.71
506.93	27861.74
507.11	27482.57
507.28	28161.33
507.46	27964.72
507.63	28210.48
507.81	28283.03
507.98	28325.16
508.16	28074.73
508.33	28315.80
508.50	28917.32
508.68	28643.48
508.85	28879.87
509.03	29020.30
509.20	28547.51
509.38	28992.22
509.55	28900.94
509.73	29268.40
509.90	29123.29
510.08	29113.92
510.25	29244.99
510.42	29385.43
510.60	29329.25
510.77	29642.88
510.95	29589.05
511.12	29294.14
511.30	29823.11
511.47	29853.53
511.64	30094.61
511.82	30192.91
511.99	29727.14
512.17	30113.33
512.34	30024.39
512.51	30780.39
512.69	30696.13
512.86	30415.26
513.04	30281.85
513.21	30586.12
513.38	30572.08
513.56	30333.34
513.73	30672.72
513.90	30976.99
514.08	30754.64
514.25	31030.82
514.43	31103.38
514.60	30829.54
514.77	31098.70
514.95	31161.89
515.12	31468.50
515.29	31215.72
515.47	31945.97
515.64	31730.64
515.81	31852.35
515.99	31709.58
516.16	31772.77
516.33	31571.49
516.51	31494.25
516.68	31398.29
516.85	31754.05
517.03	31821.92
517.20	31896.82
517.37	32133.21
517.54	32084.06
517.72	32350.88
517.89	32400.04
518.06	32039.59
518.24	32311.10
518.41	32535.79
518.58	32924.32
518.75	32610.68
518.93	32865.80
519.10	32477.27
519.27	32676.22
519.45	32512.38
519.62	33139.65
519.79	33076.45
519.96	33343.27
520.14	33294.12
520.31	32933.68
520.48	33212.20
520.65	33191.14
520.83	33713.08
521.00	33448.60
521.17	33574.98
521.34	33654.56
521.52	33701.37
521.69	34115.65
521.86	34089.90
522.03	34235.02
522.20	34120.33
522.38	33986.92
522.55	34450.35
522.72	34487.79
522.89	33984.58
523.07	34480.77
523.24	34059.48
523.41	35016.75
523.58	34522.90
523.75	35136.12
523.92	34934.84
524.10	35117.40
524.27	34712.49
524.44	34815.47
524.61	34923.13
524.78	35133.78
524.96	35239.11
525.13	35363.15
525.30	35927.22
525.47	35828.92
525.64	35159.53
525.81	35580.82
525.98	35569.12
526.16	35276.55
526.33	35269.53
526.50	35756.36
526.67	35393.58
526.84	35267.19
527.01	35386.56
527.18	35606.57
527.36	36109.78
527.53	35683.81
527.70	36041.91
527.87	36568.53
528.04	35971.69
528.21	36058.29
528.38	36172.98
528.55	36364.90
528.72	35964.67
528.89	36306.39
529.07	36416.40
529.24	36486.61
529.41	36715.98
529.58	36526.40
529.75	36629.38
529.92	36631.72
530.09	36591.94
530.26	36402.35
530.43	36968.76
530.60	36392.99
530.77	36603.64
530.94	36987.49
531.11	36954.72
531.28	37539.85
531.46	37205.16
531.63	37170.05
531.80	37354.95
531.97	37081.11
532.14	37467.30
532.31	37331.54
532.48	37336.23
532.65	37457.93
532.82	37661.56
532.99	37525.81
533.16	37214.52
533.33	37816.04
533.50	37916.68
533.67	37574.96
533.84	37621.77
534.01	38057.11
534.18	37521.13
534.35	38206.90
534.52	38029.02
534.69	38188.18
534.86	38464.36
535.03	37942.42
535.20	38054.77
535.37	38452.66
535.54	38738.21
535.71	38471.39
535.88	38485.43
536.05	38384.79
536.22	38085.20
536.38	38749.91
536.55	38857.57
536.72	38761.61
536.89	38813.10
537.06	38787.36
537.23	38459.68
537.40	38319.25
537.57	38614.16
537.74	38387.13
537.91	38813.10
538.08	38923.11
538.25	38895.02
538.42	39136.10
538.59	39122.05
538.75	38885.66
538.92	39005.03
539.09	39407.60
539.26	39243.76
539.43	39264.83
539.60	39227.38
539.77	39159.50
539.94	39627.61
540.11	39147.80
540.28	39208.65
540.44	39002.69
540.61	39232.06
540.78	38955.88
540.95	39508.24
541.12	39655.70
541.29	39203.97
541.46	39065.88
541.62	39573.78
541.79	40194.02
541.96	39496.54
542.13	39578.46
542.30	40257.21
542.47	40044.23
542.63	39910.82
542.80	40032.52
542.97	40715.96
543.14	40332.11
543.31	40825.96
543.48	40718.30
543.64	41109.17
543.81	40687.87
543.98	40596.59
544.15	41003.85
544.32	40882.14
544.48	40959.38
544.65	40767.45
544.82	40992.14
544.99	40732.34
545.16	40947.67
545.32	40760.43
545.49	40966.40
545.66	40788.52
545.83	41170.02
546.00	41380.67
546.16	41478.97
546.33	41298.75
546.50	40509.99
546.67	40959.38
546.83	40596.59
547.00	41060.02
547.17	41109.17
547.34	40772.13
547.50	41125.55
547.67	42089.85
547.84	41390.03
548.00	41525.78
548.17	42017.30
548.34	41251.94
548.51	41968.15
548.67	41642.81
548.84	41673.24
549.01	41708.35
549.18	41769.20
549.34	41883.89
549.51	41731.75
549.68	41626.43
549.84	41572.60
550.01	41947.08
550.18	41446.21
550.34	42127.30
550.51	41851.12
550.68	41673.24
550.84	41675.58
551.01	42094.53
551.18	41659.20
551.34	41752.82
551.51	42426.89
551.68	42450.30
551.84	42389.44
552.01	42141.35
552.18	42326.25
552.34	41911.97
552.51	42672.65
552.68	42670.31
552.84	42623.50
553.01	42808.40
553.18	42644.56
553.34	42450.30
553.51	42621.16
553.67	42146.03
553.84	42918.40
554.01	42768.61
554.17	42801.38
554.34	42955.85
554.51	42761.59
554.67	43007.34
554.84	43136.07
555.00	42719.46
555.17	42614.13
555.33	43047.13
555.50	42810.74
555.67	43107.99
555.83	43377.15
556.00	42878.61
556.16	43421.62
556.33	43058.84
556.50	42703.07
556.66	43302.25
556.83	43203.95
556.99	43178.20
557.16	43484.81
557.32	42979.26
557.49	43173.52
557.65	42927.77
557.82	43257.78
557.98	43082.24
558.15	43306.93
558.32	43339.70
558.48	43126.71
558.65	43402.89
558.81	43154.80
558.98	43150.12
559.14	43374.81
559.31	43161.82
559.47	43363.11
559.64	43758.66
559.80	43531.62
559.97	43592.48
560.13	43241.40
560.30	43367.79
560.46	43309.27
560.63	43395.87
560.79	43665.03
560.96	43868.66
561.12	43531.62
561.29	43709.50
561.45	43482.47
561.61	43367.79
561.78	43468.43
561.94	43599.50
562.11	43878.02
562.27	44128.46
562.44	43936.54
562.60	43786.74
562.77	44140.16
562.93	44048.88
563.10	44116.76
563.26	43653.33
563.42	43590.14
563.59	43791.42
563.75	43913.13
563.92	43636.95
564.08	43885.04
564.24	44044.20
564.41	44069.95
564.57	43849.94
564.74	44194.00
564.90	44076.97
565.07	44055.90
565.23	44013.77
565.39	43730.57
565.56	44282.94
565.72	43758.66
565.88	44306.34
566.05	44208.04
566.21	44215.06
566.38	44032.50
566.54	44201.02
566.70	44425.71
566.87	44481.88
567.03	43847.60
567.19	44678.49
567.36	44713.59
567.52	44472.52
567.68	44339.11
567.85	43910.79
568.01	44528.69
568.17	44212.72
568.34	44397.62
568.50	44018.46
568.66	43824.19
568.83	44027.82
568.99	44121.44
569.15	43878.02
569.32	44032.50
569.48	44027.82
569.64	44456.14
569.81	44507.63
569.97	44308.68
570.13	44704.23
570.30	44332.09
570.46	44488.90
570.62	44280.60
570.78	43943.56
570.95	44610.61
571.11	44636.36
571.27	44645.72
571.43	44222.08
571.60	44575.50
571.76	44119.10
571.92	44404.64
572.09	43959.94
572.25	44626.99
572.41	44252.51
572.57	44762.75
572.74	44900.84
572.90	44371.88
573.06	44641.04
573.22	44491.24
573.38	44570.82
573.55	44154.21
573.71	44542.74
573.87	44533.37
574.03	44474.86
574.20	44472.52
574.36	44996.80
574.52	44683.17
574.68	44903.18
574.84	44610.61
575.01	44678.49
575.17	44456.14
575.33	44432.73
575.49	44652.74
575.65	44793.17
575.82	44601.25
575.98	44158.89
576.14	44603.59
576.30	44697.21
576.46	44081.65
576.62	44446.77
576.79	44561.46
576.95	44215.06
577.11	44425.71
577.27	44807.22
577.43	44641.04
577.59	44163.57
577.75	44900.84
577.92	44797.85
578.08	44179.95
578.24	44299.32
578.40	44318.04
578.56	44493.58
578.72	44439.75
578.88	44481.88
579.04	44949.99
579.21	44296.98
579.37	44821.26
579.53	44914.88
579.69	44128.46
579.85	44692.53
580.01	44493.58
580.17	44830.62
580.33	44945.31
580.49	44502.95
580.65	45010.84
580.82	45024.89
580.98	44980.42
581.14	44451.45
581.30	44521.67
581.46	44844.66
581.62	44519.33
581.78	44821.26
581.94	44924.24
582.10	44655.08
582.26	45319.79
582.42	44861.05
582.58	44825.94
582.74	44748.70
582.90	44411.67
583.06	44898.50
583.22	44886.79
583.38	45090.42
583.54	44858.71
583.70	44425.71
583.86	45015.52
584.02	44341.45
584.18	44701.89
584.34	44446.77
584.50	44865.73
584.66	44683.17
584.82	44692.53
584.98	45256.60
585.14	44608.27
585.30	44980.42
585.46	44807.22
585.62	44514.65
585.78	44903.18
585.94	44458.48
586.10	44484.22
586.26	44807.22
586.42	45125.53
586.58	44973.39
586.74	44509.97
586.90	44486.56
587.06	44545.08
587.22	44612.95
587.38	44774.45
587.54	45235.53
587.70	45074.04
587.86	45106.80
588.02	44779.13
588.18	45249.58
588.34	44882.11
588.49	44734.66
588.65	44524.01
588.81	44374.22
588.97	44552.10
589.13	44657.42
589.29	44823.60
589.45	44961.69
589.61	44957.01
589.77	45020.20
589.93	45216.81
590.08	45301.07
590.24	44999.14
590.40	45235.53
590.56	45177.02
590.72	44896.16
590.88	44687.85
591.04	45162.98
591.20	45640.45
591.35	45062.33
591.51	45354.90
591.67	45361.92
591.83	44753.38
591.99	44655.08
592.15	44816.58
592.31	45120.85
592.46	44942.97
592.62	45160.64
592.78	44641.04
592.94	44919.56
593.10	45144.25
593.26	45214.47
593.41	44959.35
593.57	45179.36
593.73	45067.02
593.89	44966.37
594.05	45462.57
594.20	45162.98
594.36	45287.03
594.52	45177.02
594.68	45385.33
594.84	45095.10
594.99	44966.37
595.15	44830.62
595.31	45537.46
595.47	45663.85
595.62	44865.73
595.78	45544.48
595.94	45034.25
596.10	45378.31
596.25	45663.85
596.41	45869.82
596.57	45282.34
596.73	45617.04
596.88	45181.70
597.04	45289.37
597.20	44889.13
597.36	45109.14
597.51	45289.37
597.67	45717.68
597.83	45277.66
597.99	45387.67
598.14	45406.39
598.30	45432.14
598.46	45013.18
598.61	45109.14
598.77	45104.46
598.93	45317.45
599.09	45544.48
599.24	45556.19
599.40	45256.60
599.56	45715.34
599.71	45600.66
599.87	45336.18
600.03	45319.79
600.18	44996.80
600.34	45441.50
600.50	44917.22
600.65	45144.25
600.81	45572.57
600.97	45563.21
601.12	45170.00
601.28	45188.72
601.44	45450.86
601.59	45261.28
601.75	44945.31
601.91	45132.55
602.06	45090.42
602.22	45336.18
602.37	45074.04
602.53	45027.23
602.69	45717.68
602.84	45350.22
603.00	45382.99
603.16	45272.98
603.31	45233.19
603.47	44961.69
603.62	45111.49
603.78	44732.32
603.94	45205.11
604.09	45312.77
604.25	44978.07
604.40	45207.45
604.56	45151.27
604.71	45289.37
604.87	45216.81
605.03	44975.73
605.18	44669.12
605.34	45036.59
605.49	44507.63
605.65	44994.46
605.80	45120.85
605.96	45256.60
606.12	45165.32
606.27	45109.14
606.43	44872.75
606.58	45041.27
606.74	44762.75
606.89	44453.79
607.05	45310.43
607.20	45258.94
607.36	44622.31
607.51	44949.99
607.67	45102.12
607.82	45123.19
607.98	44837.64
608.13	44594.23
608.29	44952.33
608.44	44559.12
608.60	44694.87
608.75	44556.78
608.91	44514.65
609.06	44673.81
609.22	45556.19
609.37	44390.60
609.53	44774.45
609.68	44814.24
609.84	44914.88
609.99	44847.00
610.15	44835.30
610.30	44648.06
610.46	44797.85
610.61	44577.84
610.76	44844.66
610.92	44825.94
611.07	45048.29
611.23	44325.07
611.38	44772.11
611.54	44458.48
611.69	44196.34
611.84	43950.58
612.00	44292.30
612.15	44027.82
612.31	44694.87
612.46	44442.09
612.62	44648.06
612.77	44573.16
612.92	44266.55
613.08	44615.29
613.23	44414.01
613.39	43875.68
613.54	44659.76
613.69	44172.93
613.85	44184.63
614.00	44521.67
614.15	44470.18
614.31	44734.66
614.46	44626.99
614.62	44149.53
614.77	43983.35
614.92	44119.10
615.08	44222.08
615.23	44296.98
615.38	44098.03
615.54	43899.09
615.69	44060.58
615.84	43627.59
616.00	44060.58
616.15	44184.63
616.30	44397.62
616.46	43962.28
616.61	43819.51
616.76	44126.12
616.92	43468.43
617.07	43913.13
617.22	43756.32
617.37	43852.28
617.53	44011.43
617.68	43927.17
617.83	43793.76
617.99	44168.25
618.14	43821.85
618.29	43662.69
618.45	43452.05
618.60	43791.42
618.75	43658.01
618.90	43274.16
619.06	43512.90
619.21	43456.73
619.36	43959.94
619.51	43482.47
619.67	43653.33
619.82	43702.48
619.97	43735.25
620.12	43494.18
620.28	42841.17
620.43	43271.82
620.58	43311.61
620.73	43566.73
620.89	43203.95
621.04	43423.96
621.19	43175.86
621.34	43030.75
621.49	43267.14
621.65	42976.92
621.80	43206.29
621.95	42848.19
622.10	43075.22
622.25	43281.19
622.41	43159.48
622.56	42827.12
622.71	43433.32
622.86	43072.88
623.01	42852.87
623.16	43379.49
623.32	42782.65
623.47	43166.50
623.62	43250.76
623.77	43171.18
623.92	43152.46
624.07	42890.32
624.23	42485.40
624.38	42880.95
624.53	42562.64
624.68	42810.74
624.83	43150.12
624.98	42972.24
625.13	42972.24
625.29	42494.77
625.44	42632.86
625.59	42665.63
625.74	42124.96
625.89	42281.78
626.04	42267.73
626.19	42586.05
626.34	42447.96
626.49	42728.82
626.65	42347.31
626.80	42321.57
626.95	42462.00
627.10	42094.53
627.25	42103.90
627.40	42185.82
627.55	41816.01
627.70	41144.28
627.85	41799.63
628.00	41792.61
628.15	42490.09
628.30	41986.87
628.45	42267.73
628.60	41808.99
628.76	41862.82
628.91	42024.32
629.06	41907.29
629.21	41883.89
629.36	42068.79
629.51	41624.09
629.66	41645.15
629.81	41504.72
629.96	41780.90
630.11	41968.15
630.26	41979.85
630.41	42401.14
630.56	41741.11
630.71	41446.21
630.86	41647.49
631.01	41558.55
631.16	41720.05
631.31	41345.56
631.46	41013.21
631.61	41565.57
631.76	41371.31
631.91	41724.73
632.06	41591.32
632.21	41605.36
632.36	41858.14
632.51	41242.58
632.66	41464.93
632.81	41038.95
632.96	41219.17
633.10	40921.93
633.25	40891.50
633.40	40992.14
633.55	41598.34
633.70	41172.36
633.85	41244.92
634.00	41081.08
634.15	41013.21
634.30	40935.97
634.45	41289.39
634.60	40722.98
634.75	41340.88
634.90	41120.87
635.05	40914.90
635.19	40423.39
635.34	41303.43
635.49	40818.94
635.64	40870.43
635.79	41036.61
635.94	40491.27
636.09	40807.24
636.24	40781.49
636.39	40325.09
636.53	40322.75
636.68	40194.02
636.83	40013.80
636.98	41148.96
637.13	40051.25
637.28	40245.51
637.43	40687.87
637.57	40634.04
637.72	40500.63
637.87	40591.91
638.02	40364.88
638.17	40407.01
638.32	39964.65
638.46	40259.55
638.61	40589.57
638.76	39988.05
638.91	40343.81
639.06	40114.44
639.20	40444.46
639.35	40149.55
639.50	39915.50
639.65	40327.43
639.80	40353.18
639.94	40301.68
640.09	40425.73
640.24	39555.05
640.39	39952.94
640.54	39772.72
640.68	39871.03
640.83	39835.92
640.98	39557.39
641.13	39679.10
641.27	39945.92
641.42	39761.02
641.57	40233.81
641.72	39974.01
641.86	39510.58
642.01	39349.09
642.16	39746.98
642.31	39466.11
642.45	39447.39
642.60	39288.23
642.75	39023.75
642.90	39035.45
643.04	39515.26
643.19	39800.81
643.34	39533.99
643.48	39386.54
643.63	39613.57
643.78	39297.59
643.93	39098.65
644.07	38974.60
644.22	39210.99
644.37	38625.86
644.51	38801.40
644.66	39585.48
644.81	39131.42
644.95	38770.97
645.10	39328.02
645.25	39592.50
645.39	39257.81
645.54	39164.18
645.69	38960.56
645.83	38976.94
645.98	38953.54
646.13	39477.82
646.27	39147.80
646.42	39290.57
646.57	39175.89
646.71	38492.45
646.86	38841.19
647.00	38670.33
647.15	38890.34
647.30	39061.20
647.44	39189.93
647.59	38581.39
647.74	39091.63
647.88	38752.25
648.03	38902.04
648.17	38808.42
648.32	38153.07
648.47	38635.22
648.61	38305.21
648.76	38747.57
648.90	38675.01
649.05	38710.12
649.20	39152.48
649.34	38436.28
649.49	38281.80
649.63	38508.83
649.78	38300.53
649.92	38405.85
650.07	38724.16
650.21	37977.53
650.36	38909.07
650.51	37963.49
650.65	38618.84
650.80	39030.77
650.94	38555.64
651.09	38342.66
651.23	38382.45
651.38	38129.67
651.52	37883.91
651.67	38267.76
651.81	38450.32
651.96	37635.81
652.10	37720.07
652.25	37834.76
652.39	38064.13
652.54	37979.87
652.68	37914.34
652.83	37825.40
652.97	38239.67
653.12	37993.92
653.26	37731.78
653.41	38029.02
653.55	37691.99
653.70	37668.58
653.84	38279.46
653.99	37813.70
654.13	37717.73
654.27	37792.63
654.42	37895.61
654.56	37350.27
654.71	37605.39
654.85	37811.35
655.00	37680.28
655.14	37406.44
655.29	37148.98
655.43	36950.04
655.57	37219.20
655.72	36985.15
655.86	36947.70
656.01	37261.33
656.15	37242.60
656.30	37357.29
656.44	37165.37
656.58	37146.64
656.73	37090.47
656.87	36697.26
657.01	36804.92
657.16	37104.51
657.30	36968.76
657.45	36664.49
657.59	36877.48
657.73	36704.28
657.88	36938.33
658.02	36554.49
658.16	36568.53
658.31	37188.77
658.45	37385.38
658.60	36912.59
658.74	36821.31
658.88	36877.48
659.03	36662.15
659.17	35959.99
659.31	36687.90
659.46	36589.59
659.60	36194.04
659.74	36339.16
659.89	36421.08
660.03	36194.04
660.17	36327.45
660.32	36390.65
660.46	36526.40
660.60	36126.17
660.74	36327.45
660.89	36170.64
661.03	35868.71
661.17	35798.49
661.32	35747.00
661.46	35878.07
661.60	35637.00
661.74	35838.28
661.89	35896.80
662.03	35569.12
662.17	35667.42
662.31	35992.76
662.46	35754.02
662.60	36011.48
662.74	35583.16
662.88	35353.79
663.03	35936.59
663.17	35519.97
663.31	34976.97
663.45	35332.73
663.60	35154.85
663.74	34768.66
663.88	35133.78
664.02	34457.37
664.17	35648.70
664.31	34948.88
664.45	34890.37
664.59	35384.22
664.73	34909.09
664.88	35002.71
665.02	35110.38
665.16	34824.83
665.30	34831.85
665.44	34562.69
665.59	34630.57
665.73	34483.11
665.87	34457.37
666.01	34405.88
666.15	34057.14
666.29	34190.55
666.44	34227.99
666.58	34415.24
666.72	34150.76
666.86	34412.90
667.00	34541.63
667.14	33865.21
667.28	33577.33
667.43	33813.72
667.57	33759.89
667.71	33769.25
667.85	33752.87
667.99	33507.11
668.13	33254.33
668.27	33703.71
668.41	33422.85
668.56	33174.75
668.70	33493.07
668.84	33436.89
668.98	33090.49
669.12	33289.44
669.26	33514.13
669.40	33053.05
669.54	33544.56
669.68	33219.22
669.82	32910.27
669.96	32877.51
670.10	33015.60
670.25	33029.64
670.39	33280.08
670.53	33010.92
670.67	32741.75
670.81	32510.04
670.95	32994.53
671.09	32952.40
671.23	32877.51
671.37	32687.92
671.51	32460.89
671.65	32631.75
671.79	32004.49
671.93	32154.28
672.07	31995.12
672.21	32217.47
672.35	31847.67
672.49	32013.85
672.63	32189.39
672.77	31735.32
672.91	32320.46
673.05	31578.51
673.19	31824.26
673.33	31555.10
673.47	31569.15
673.61	31000.40
673.75	31288.28
673.89	30946.56
674.03	30778.04
674.17	31019.12
674.31	30885.71
674.45	30742.94
674.59	31007.42
674.73	31157.21
674.87	30768.68
675.01	31115.08
675.15	31314.03
675.29	31021.46
675.43	30927.84
675.56	30494.84
675.70	30469.09
675.84	30436.33
675.98	29467.34
676.12	30267.81
676.26	30132.06
676.40	29802.04
676.54	29883.96
676.68	29996.31
676.82	29577.35
676.96	29420.53
677.10	29680.33
677.23	29577.35
677.37	29357.34
677.51	29104.56
677.65	28996.90
677.79	29142.01
677.93	28830.72
678.07	29355.00
678.21	28772.21
678.34	28692.63
678.48	28657.52
678.62	28720.71
678.76	28444.53
678.90	28456.23
679.04	28233.88
679.18	28671.56
679.31	28231.54
679.45	28334.53
679.59	27852.38
679.73	28030.26
679.87	27871.10
680.00	27878.12
680.14	27772.80
680.28	27775.14
680.42	27442.78
680.56	27395.97
680.70	27438.10
680.83	27517.68
680.97	27012.12
681.11	27040.21
681.25	26806.16
681.39	27021.48
681.52	26934.88
681.66	26951.27
681.80	26644.66
681.94	26834.24
682.07	26796.79
682.21	26387.20
682.35	26040.80
682.49	26153.15
682.62	26321.66
682.76	26064.21
682.90	26258.47
683.04	26008.03
683.17	25813.77
683.31	25745.89
683.45	25972.92
683.59	25376.09
683.72	25493.12
683.86	25415.88
684.00	25348.00
684.13	25408.86
684.27	25127.99
684.41	25076.50
684.55	24929.05
684.68	24751.17
684.82	24779.25
684.96	24802.66
685.09	24730.10
685.23	24238.59
685.37	24643.50
685.50	24463.28
685.64	24112.20
685.78	24545.20
685.91	24666.91
686.05	24175.39
686.19	24074.75
686.32	24187.10
686.46	24112.20
686.60	23459.19
686.73	23838.36
686.87	23506.00
687.01	23527.06
687.14	23442.81
687.28	23407.70
687.42	23145.56
687.55	23021.51
687.69	23119.81
687.82	23047.26
687.96	22750.01
688.10	22803.84
688.23	22771.07
688.37	22747.67
688.50	22520.63
688.64	22522.98
688.78	22349.78
688.91	22405.95
689.05	22024.44
689.18	22089.98
689.32	21898.05
689.46	22040.82
689.59	22115.72
689.73	21846.56
689.86	21837.20
690.00	21844.22
690.13	21724.85
690.27	21656.98
690.41	21504.84
690.54	21158.44
690.68	21476.76
690.81	20961.84
690.95	21130.36
691.08	20889.28
691.22	21020.35
691.35	20835.45
691.49	20758.21
691.62	20992.26
691.76	20711.40
691.89	21027.37
692.03	20512.46
692.16	20383.73
692.30	20444.58
692.43	20386.07
692.57	20173.08
692.70	20063.07
692.84	20002.22
692.97	19763.48
693.11	19875.83
693.24	19599.65
693.38	19606.67
693.51	19646.46
693.65	19548.15
693.78	19449.85
693.92	19552.84
694.05	19374.95
694.19	19281.33
694.32	19180.69
694.45	19133.88
694.59	19101.11
694.72	18813.23
694.86	18743.01
694.99	18443.42
695.13	18267.88
695.26	18455.12
695.39	18335.76
695.53	18394.27
695.66	18438.74
695.80	18654.07
695.93	18590.88
696.07	18190.64
696.20	18370.86
696.33	18246.82
696.47	17818.50
696.60	17865.31
696.73	17891.06
696.87	17825.52
697.00	17710.83
697.14	17860.63
697.27	17429.97
697.40	17610.19
697.54	17493.16
697.67	17142.08
697.80	17453.37
697.94	17259.11
698.07	17186.55
698.21	17099.95
698.34	17067.19
698.47	17003.99
698.61	16685.68
698.74	16741.85
698.87	16592.06
699.01	16444.60
699.14	16484.39
699.27	16503.12
699.40	16336.94
699.54	16006.92
699.67	16159.06
699.80	16191.83
699.94	16130.97
700.07	16500.78
700.20	15999.90
700.34	15936.71
700.47	15712.02
700.60	15948.41
700.73	15665.21
700.87	15815.00
701.00	15599.67
701.13	15655.84
701.26	15742.44
701.40	15421.79
701.53	15496.69
701.66	15438.17
701.79	15218.16
701.93	14836.66
702.06	14813.25
702.19	15080.07
702.32	15073.05
702.46	14773.46
702.59	14801.55
702.72	14801.55
702.85	14710.27
702.99	14871.76
703.12	14597.92
703.25	14539.41
703.38	14497.28
703.51	14396.64
703.65	14487.92
703.78	14466.85
703.91	14333.44
704.04	14066.62
704.17	14111.09
704.31	13851.29
704.44	13980.02
704.57	13483.83
704.70	13804.48
704.83	13652.34
704.96	13544.68
705.10	13949.59
705.23	13975.34
>>>>>End Processed Spectral Data<<<<<
