SpectraSuite Data File
++++++++++++++++++++++++++++++++++++
Date: Fri Oct 25 11:34:43 EDT 2013
User: price-jones
Dark Spectrum Present: No
Reference Spectrum Present: No
Number of Sampled Component Spectra: 1
Spectrometers: USB2+H05261
Integration Time (usec): 100000 (USB2+H05261)
Spectra Averaged: 1 (USB2+H05261)
Boxcar Smoothing: 0 (USB2+H05261)
Correct for Electrical Dark: No (USB2+H05261)
Strobe/Lamp Enabled: No (USB2+H05261)
Correct for Detector Non-linearity: No (USB2+H05261)
Correct for Stray Light: No (USB2+H05261)
Number of Pixels in Processed Spectrum: 2048
>>>>>Begin Processed Spectral Data<<<<<
365.73	311.29
365.92	311.29
366.12	311.29
366.32	215.33
366.52	149.79
366.72	229.37
366.91	147.45
367.11	191.92
367.31	196.60
367.51	177.88
367.70	212.99
367.90	203.63
368.10	159.16
368.30	126.39
368.49	133.41
368.69	184.90
368.89	149.79
369.09	173.20
369.28	241.08
369.48	166.18
369.68	262.14
369.87	189.58
370.07	220.01
370.27	262.14
370.47	325.33
370.66	463.43
370.86	521.94
371.06	514.92
371.25	554.71
371.45	507.90
371.65	479.81
371.84	545.34
372.04	580.45
372.24	547.69
372.44	667.05
372.63	552.37
372.83	610.88
373.03	601.52
373.22	552.37
373.42	564.07
373.62	582.79
373.81	608.54
374.01	606.20
374.21	638.97
374.40	664.71
374.60	667.05
374.79	716.20
374.99	641.31
375.19	629.60
375.38	617.90
375.58	624.92
375.78	739.61
375.97	622.58
376.17	697.48
376.37	699.82
376.56	638.97
376.76	601.52
376.95	709.18
377.15	683.44
377.35	798.12
377.54	634.29
377.74	695.14
377.93	683.44
378.13	695.14
378.33	763.01
378.52	617.90
378.72	653.01
378.91	653.01
379.11	657.69
379.31	615.56
379.50	727.91
379.70	791.10
379.89	751.31
380.09	674.07
380.28	830.89
380.48	725.57
380.68	809.83
380.87	716.20
381.07	718.54
381.26	704.50
381.46	709.18
381.65	786.42
381.85	777.06
382.04	784.08
382.24	777.06
382.43	772.38
382.63	821.53
382.83	772.38
383.02	774.72
383.22	837.91
383.41	753.65
383.61	760.67
383.80	793.44
384.00	835.57
384.19	858.98
384.39	828.55
384.58	777.06
384.78	873.02
384.97	861.32
385.17	753.65
385.36	805.14
385.56	819.19
385.75	784.08
385.95	917.49
386.14	863.66
386.34	753.65
386.53	837.91
386.72	758.33
386.92	828.55
387.11	873.02
387.31	849.61
387.50	805.14
387.70	875.36
387.89	908.13
388.09	807.48
388.28	903.45
388.48	875.36
388.67	964.30
388.86	931.53
389.06	863.66
389.25	1013.45
389.45	957.28
389.64	847.27
389.84	903.45
390.03	922.17
390.22	1001.75
390.42	952.60
390.61	933.87
390.81	959.62
391.00	1022.81
391.19	997.07
391.39	964.30
391.58	971.32
391.78	964.30
391.97	917.49
392.16	987.71
392.36	1022.81
392.55	1067.28
392.75	1015.79
392.94	1078.99
393.13	1062.60
393.33	1057.92
393.52	1025.15
393.71	1076.65
393.91	1069.62
394.10	1083.67
394.29	1053.24
394.49	1086.01
394.68	1057.92
394.88	1156.22
395.07	1083.67
395.26	1128.14
395.46	1069.62
395.65	1111.75
395.84	1128.14
396.04	1240.48
396.23	1186.65
396.42	1100.05
396.62	1249.85
396.81	1181.97
397.00	1153.88
397.19	1167.93
397.39	1177.29
397.58	1221.76
397.77	1212.40
397.97	1137.50
398.16	1254.53
398.35	1291.98
398.55	1341.13
398.74	1233.46
398.93	1296.66
399.12	1221.76
399.32	1273.25
399.51	1371.55
399.70	1310.70
399.90	1364.53
400.09	1362.19
400.28	1350.49
400.47	1345.81
400.67	1404.32
400.86	1277.93
401.05	1306.02
401.24	1352.83
401.44	1327.08
401.63	1306.02
401.82	1441.77
402.01	1355.17
402.21	1425.39
402.40	1451.13
402.59	1453.47
402.78	1432.41
402.97	1437.09
403.17	1521.35
403.36	1490.92
403.55	1437.09
403.74	1556.46
403.93	1481.56
404.13	1540.07
404.32	1521.35
404.51	1528.37
404.70	1619.65
404.89	1493.26
405.09	1694.55
405.28	1610.29
405.47	1605.61
405.66	1603.27
405.85	1734.34
406.05	1582.20
406.24	1710.93
406.43	1624.33
406.62	1610.29
406.81	1781.15
407.00	1661.78
407.20	1746.04
407.39	1666.46
407.58	1769.44
407.77	1771.79
407.96	1785.83
408.15	1849.02
408.34	1748.38
408.54	1799.87
408.73	1881.79
408.92	1778.81
409.11	1956.69
409.30	1909.88
409.49	1916.90
409.68	1893.49
409.87	1930.94
410.07	2045.63
410.26	1973.07
410.45	1966.05
410.64	1935.62
410.83	1956.69
411.02	2033.93
411.21	2024.56
411.40	2094.78
411.59	2108.82
411.78	2033.93
411.98	2090.10
412.17	2150.95
412.36	2111.16
412.55	2176.70
412.74	2162.66
412.93	2317.13
413.12	2143.93
413.31	2392.03
413.50	2335.85
413.69	2270.32
413.88	2359.26
414.07	2340.54
414.26	2424.80
414.45	2291.38
414.64	2342.88
414.83	2359.26
415.02	2448.20
415.22	2523.10
415.41	2506.71
415.60	2532.46
415.79	2586.29
415.98	2600.34
416.17	2607.36
416.36	2607.36
416.55	2635.44
416.74	2682.25
416.93	2665.87
417.12	2686.94
417.31	2675.23
417.50	2766.51
417.69	2785.24
417.88	2780.56
418.07	2579.27
418.26	2719.70
418.45	2768.85
418.64	2906.95
418.83	2902.26
419.02	2810.98
419.21	2876.52
419.39	3026.31
419.58	2960.78
419.77	2993.55
419.96	2984.18
420.15	3054.40
420.34	2935.03
420.53	3082.49
420.72	3129.30
420.91	3016.95
421.10	3185.47
421.29	3157.38
421.48	3030.99
421.67	3061.42
421.86	3035.67
422.05	3110.57
422.24	3162.06
422.43	3262.71
422.61	3213.56
422.80	3281.43
422.99	3260.37
423.18	3162.06
423.37	3426.54
423.56	3442.93
423.75	3204.19
423.94	3272.07
424.13	3124.62
424.32	3260.37
424.50	3258.03
424.69	3396.12
424.88	3323.56
425.07	3262.71
425.26	3164.40
425.45	3297.81
425.64	3386.76
425.83	3276.75
426.01	3300.16
426.20	3405.48
426.39	3246.32
426.58	3351.65
426.77	3251.00
426.96	3370.37
427.15	3356.33
427.33	3482.72
427.52	3417.18
427.71	3478.04
427.90	3471.01
428.09	3356.33
428.28	3384.41
428.46	3494.42
428.65	3370.37
428.84	3691.02
429.03	3623.15
429.22	3513.14
429.40	3552.93
429.59	3574.00
429.78	3447.61
429.97	3557.61
430.16	3627.83
430.34	3714.43
430.53	3702.73
430.72	3705.07
430.91	3796.35
431.10	3634.85
431.28	3751.88
431.47	3801.03
431.66	3803.37
431.85	3733.15
432.03	3932.10
432.22	3934.44
432.41	3974.23
432.60	3824.44
432.79	3974.23
432.97	3995.29
433.16	3957.85
433.35	3967.21
433.54	3985.93
433.72	3941.46
433.91	3911.04
434.10	3971.89
434.28	3964.87
434.47	4025.72
434.66	3999.98
434.85	4086.58
435.03	4065.51
435.22	4065.51
435.41	4191.90
435.59	4088.92
435.78	4124.02
435.97	4187.22
436.16	4241.05
436.34	4107.64
436.53	4140.41
436.72	4320.63
436.90	4290.20
437.09	4187.22
437.28	4301.90
437.46	4322.97
437.65	4430.63
437.84	4381.48
438.02	4407.23
438.21	4425.95
438.40	4273.82
438.58	4578.09
438.77	4592.13
438.96	4500.85
439.14	4608.51
439.33	4587.45
439.52	4606.17
439.70	4671.71
439.89	4840.23
440.08	4767.67
440.26	4645.96
440.45	4690.43
440.63	4929.17
440.82	4849.59
441.01	4915.12
441.19	4781.71
441.38	4919.81
441.57	5032.15
441.75	4936.19
441.94	5217.05
442.12	5102.37
442.31	5167.90
442.50	5015.77
442.68	4987.68
442.87	5268.55
443.05	5210.03
443.24	5341.10
443.43	5151.52
443.61	5331.74
443.80	5385.57
443.98	5240.46
444.17	5064.92
444.35	5303.65
444.54	5294.29
444.73	5366.85
444.91	5345.78
445.10	5357.49
445.28	5416.00
445.47	5364.51
445.65	5387.91
445.84	5320.04
446.02	5437.06
446.21	5338.76
446.39	5345.78
446.58	5397.28
446.77	5408.98
446.95	5364.51
447.14	5408.98
447.32	5518.98
447.51	5584.52
447.69	5404.30
447.88	5369.19
448.06	5586.86
448.25	5495.58
448.43	5650.05
448.62	5460.47
448.80	5563.45
448.99	5577.50
449.17	5685.16
449.36	5586.86
449.54	5741.33
449.73	5795.17
449.91	5781.12
450.10	5891.13
450.28	5900.49
450.46	5888.79
450.65	5907.51
450.83	5991.77
451.02	5703.89
451.20	5841.98
451.39	5823.25
451.57	5804.53
451.76	5891.13
451.94	6033.90
452.13	6125.18
452.31	5816.23
452.49	5982.41
452.68	5888.79
452.86	5970.71
453.05	6017.52
453.23	6052.63
453.42	6010.50
453.60	5935.60
453.78	6164.97
453.97	6204.76
454.15	6024.54
454.34	6073.69
454.52	6146.25
454.70	6209.44
454.89	6111.14
455.07	6169.65
455.26	6249.23
455.44	6314.77
455.62	6314.77
455.81	6303.06
455.99	6384.98
456.17	6445.84
456.36	6544.14
456.54	6642.44
456.73	6480.94
456.91	6700.95
457.09	6541.80
457.28	6745.42
457.46	6417.75
457.64	6724.36
457.83	6764.15
458.01	6619.04
458.19	6722.02
458.38	6621.38
458.56	6825.00
458.74	6740.74
458.93	6729.04
459.11	6621.38
459.29	6773.51
459.48	6958.41
459.66	6958.41
459.84	6829.68
460.03	7143.32
460.21	6953.73
460.39	7026.29
460.57	7037.99
460.76	7091.82
460.94	7112.89
461.12	7269.70
461.31	7005.22
461.49	7117.57
461.67	7201.83
461.85	7297.79
462.04	7194.81
462.22	7353.96
462.40	7384.39
462.59	7379.71
462.77	7258.00
462.95	7452.27
463.13	7414.82
463.32	7492.05
463.50	7595.04
463.68	7548.23
463.86	7625.47
464.05	7279.07
464.23	7349.28
464.41	7492.05
464.59	7468.65
464.78	7840.79
464.96	7597.38
465.14	7592.70
465.32	7508.44
465.50	7644.19
465.69	7686.32
465.87	7744.83
466.05	7955.48
466.23	7861.86
466.41	7641.85
466.60	7772.92
466.78	7501.42
466.96	7836.11
467.14	7866.54
467.32	8037.40
467.51	7969.52
467.69	7763.56
467.87	7887.61
468.05	8098.25
468.23	7744.83
468.41	7913.35
468.60	8018.68
468.78	8056.12
468.96	8121.66
469.14	8187.19
469.32	8046.76
469.50	7896.97
469.69	8327.63
469.87	8203.58
470.05	8348.69
470.23	8475.08
470.41	8374.44
470.59	8477.42
470.77	8376.78
470.95	8477.42
471.14	8327.63
471.32	8203.58
471.50	8638.92
471.68	8664.66
471.86	8655.30
472.04	8575.72
472.22	8727.86
472.40	8737.22
472.58	8659.98
472.77	8891.70
472.95	8908.08
473.13	9167.88
473.31	8894.04
473.49	8908.08
473.67	9015.74
473.85	9128.09
474.03	9312.99
474.21	9202.99
474.39	9273.20
474.57	9130.43
474.75	9369.16
474.93	9231.07
475.12	9345.76
475.30	9444.06
475.48	9310.65
475.66	9624.28
475.84	9577.47
476.02	9631.30
476.20	9598.54
476.38	10071.33
476.56	9951.96
476.74	9879.40
476.92	9881.74
477.10	10031.54
477.28	10160.27
477.46	10076.01
477.64	10207.08
477.82	10300.70
478.00	10476.24
478.18	10668.16
478.36	10532.41
478.54	10562.84
478.72	10773.49
478.90	10860.09
479.08	10834.34
479.26	10946.69
479.44	11030.94
479.62	11014.56
479.80	11346.92
479.98	11382.03
480.16	11529.48
480.34	11309.47
480.52	11595.01
480.70	11630.12
480.88	11475.65
481.06	11700.34
481.24	11882.90
481.41	11875.88
481.59	12063.12
481.77	12559.31
481.95	12018.65
482.13	12273.77
482.31	12383.77
482.49	12355.69
482.67	12552.29
482.85	12973.59
483.03	12690.38
483.21	12816.77
483.39	13200.62
483.57	12952.52
483.74	13076.57
483.92	13352.76
484.10	13116.36
484.28	13441.70
484.46	13511.91
484.64	13722.56
484.82	13823.20
485.00	13799.80
485.18	14176.62
485.35	14195.35
485.53	14324.08
485.71	14253.86
485.89	14398.98
486.07	14443.45
486.25	14293.65
486.43	14569.83
486.61	14773.46
486.78	14927.94
486.96	15005.17
487.14	15119.86
487.32	15262.63
487.50	15279.02
487.68	15419.45
487.85	15618.39
488.03	15899.26
488.21	15948.41
488.39	15957.77
488.57	16248.00
488.75	16194.17
488.92	16570.99
489.10	16638.87
489.28	16432.90
489.46	17050.80
489.64	16690.36
489.81	17116.34
489.99	17252.09
490.17	17104.64
490.35	17708.49
490.53	17348.05
490.70	17724.88
490.88	17497.84
491.06	17961.27
491.24	18078.30
491.41	18071.28
491.59	18174.26
491.77	17956.59
491.95	18185.96
492.13	18581.51
492.30	18679.82
492.48	18541.72
492.66	18668.11
492.84	18700.88
493.01	18925.57
493.19	18939.62
493.37	19227.50
493.54	19197.07
493.72	19323.46
493.90	19484.96
494.08	19679.22
494.25	19679.22
494.43	20123.93
494.61	19838.38
494.79	20215.21
494.96	20219.89
495.14	20187.12
495.32	20594.37
495.49	20374.36
495.67	20720.76
495.85	21055.46
496.02	21013.33
496.20	20870.56
496.38	21055.46
496.55	21109.29
496.73	21516.54
496.91	21364.41
497.09	21720.17
497.26	21635.91
497.44	21546.97
497.62	21572.72
497.79	22251.47
497.97	21914.44
498.14	22305.31
498.32	22342.75
498.50	22221.05
498.67	22508.93
498.85	22511.27
499.03	22675.11
499.20	22724.26
499.38	22642.34
499.56	22829.59
499.73	22726.60
499.91	22932.57
500.08	23290.67
500.26	23178.33
500.44	23442.81
500.61	23447.49
500.79	23206.41
500.97	23608.98
501.14	23927.30
501.32	23920.28
501.49	24196.46
501.67	23995.17
501.84	24292.42
502.02	23775.16
502.20	24140.29
502.37	24020.92
502.55	24357.96
502.72	24360.30
502.90	24472.64
503.07	24697.33
503.25	24657.54
503.43	24526.47
503.60	24856.49
503.78	24952.45
503.95	24774.57
504.13	24996.92
504.30	25371.41
504.48	25043.73
504.65	25537.59
504.83	25493.12
505.01	25390.13
505.18	25525.88
505.36	26089.95
505.53	26003.35
505.71	25621.84
505.88	25872.28
506.06	25797.38
506.23	26082.93
506.41	25671.00
506.58	26054.84
506.76	26466.78
506.93	26265.49
507.11	26422.31
507.28	26806.16
507.46	26651.68
507.63	26693.81
507.81	27026.17
507.98	26478.48
508.16	26981.70
508.33	26785.09
508.50	27337.46
508.68	26927.86
508.85	27072.98
509.03	27372.57
509.20	27534.06
509.38	27426.40
509.55	27608.96
509.73	27840.67
509.90	27798.54
510.08	27576.19
510.25	27646.41
510.42	27981.10
510.60	28423.47
510.77	28421.13
510.95	28292.40
511.12	27667.47
511.30	28292.40
511.47	28353.25
511.64	28620.07
511.82	28334.53
511.99	28620.07
512.17	28584.96
512.34	28744.12
512.51	29308.19
512.69	29069.45
512.86	28919.66
513.04	29106.90
513.21	29221.59
513.38	29364.36
513.56	29682.67
513.73	29322.23
513.90	29333.93
514.08	29158.39
514.25	30162.48
514.43	29589.05
514.60	29853.53
514.77	29565.65
514.95	30169.51
515.12	29954.18
515.29	29820.77
515.47	30398.88
515.64	30043.12
515.81	30143.76
515.99	30316.96
516.16	30780.39
516.33	30431.65
516.51	30548.67
516.68	30649.32
516.85	30518.25
517.03	30426.96
517.20	30918.48
517.37	30611.87
517.54	30293.55
517.72	30735.92
517.89	30909.11
518.06	31283.60
518.24	31421.69
518.41	30932.52
518.58	31358.50
518.75	31480.21
518.93	31587.87
519.10	31461.48
519.27	31522.34
519.45	31578.51
519.62	31999.80
519.79	32004.49
519.96	31641.70
520.14	31782.13
520.31	31475.52
520.48	32414.08
520.65	31896.82
520.83	32184.71
521.00	32575.58
521.17	32453.87
521.34	32357.91
521.52	32095.77
521.69	32161.30
521.86	32542.81
522.03	32676.22
522.20	33249.65
522.38	32893.89
522.55	33127.94
522.72	32739.41
522.89	32570.90
523.07	33221.56
523.24	33240.29
523.41	33441.57
523.58	33118.58
523.75	33322.21
523.92	32947.72
524.10	33837.12
524.27	33717.76
524.44	33495.41
524.61	33598.39
524.78	33745.84
524.96	33787.97
525.13	33963.51
525.30	33977.56
525.47	33956.49
525.64	34015.01
525.81	34017.35
525.98	34288.85
526.16	34349.70
526.33	34143.74
526.50	34621.20
526.67	34125.01
526.84	34644.61
527.01	34541.63
527.18	34347.36
527.36	34677.38
527.53	34906.75
527.70	35070.59
527.87	34644.61
528.04	34848.24
528.21	35002.71
528.38	34829.51
528.55	35400.60
528.72	35236.77
528.89	34953.56
529.07	34822.49
529.24	34955.90
529.41	35442.73
529.58	35702.53
529.75	35456.78
529.92	35421.67
530.09	35431.03
530.26	35311.66
530.43	35512.95
530.60	35594.87
530.77	35489.54
530.94	35660.40
531.11	35747.00
531.28	35608.91
531.46	36109.78
531.63	36088.72
531.80	35915.52
531.97	35910.84
532.14	36098.08
532.31	36123.83
532.48	36453.84
532.65	36594.28
532.82	36088.72
532.99	35903.82
533.16	36409.37
533.33	36503.00
533.50	36662.15
533.67	36512.36
533.84	36444.48
534.01	36802.58
534.18	36685.56
534.35	37570.28
534.52	36882.16
534.69	36928.97
534.86	37174.73
535.03	36999.19
535.20	37275.37
535.37	37233.24
535.54	37298.78
535.71	37317.50
535.88	37139.62
536.05	37610.07
536.22	37935.40
536.38	37806.67
536.55	37848.80
536.72	37865.19
536.89	37223.88
537.06	37748.16
537.23	37881.57
537.40	37493.04
537.57	37696.67
537.74	37373.67
537.91	37556.24
538.08	38019.66
538.25	37919.02
538.42	38094.56
538.59	38117.96
538.75	38026.68
538.92	38398.83
539.09	38117.96
539.26	38377.76
539.43	38155.41
539.60	38213.93
539.77	38359.04
539.94	38590.75
540.11	38263.08
540.28	38443.30
540.44	38897.36
540.61	38244.35
540.78	38698.42
540.95	38675.01
541.12	38293.50
541.29	38665.65
541.46	38698.42
541.62	38693.74
541.79	38883.32
541.96	38246.69
542.13	38878.64
542.30	38948.85
542.47	39119.71
542.63	39108.01
542.80	39187.59
542.97	39058.86
543.14	39840.60
543.31	39290.57
543.48	39559.73
543.64	40018.48
543.81	39786.77
543.98	39629.95
544.15	39686.12
544.32	39861.66
544.48	40140.19
544.65	39838.26
544.82	40105.08
544.99	39693.15
545.16	39992.73
545.32	40044.23
545.49	40121.46
545.66	40304.02
545.83	40112.10
546.00	40123.80
546.16	39950.60
546.33	40168.27
546.50	40467.86
546.67	40275.94
546.83	40229.13
547.00	39751.66
547.17	40210.40
547.34	40259.55
547.50	40730.00
547.67	40732.34
547.84	39966.99
548.00	40811.92
548.17	40952.35
548.34	40938.31
548.51	40781.49
548.67	41193.43
548.84	41001.50
549.01	40933.63
549.18	40795.54
549.34	41172.36
549.51	41036.61
549.68	41207.47
549.84	41102.15
550.01	41153.64
550.18	40809.58
550.34	41134.92
550.51	40966.40
550.68	40816.60
550.84	41109.17
551.01	41708.35
551.18	41361.95
551.34	41228.54
551.51	41340.88
551.68	41460.25
551.84	41284.71
552.01	41212.15
552.18	41338.54
552.34	41165.34
552.51	41453.23
552.68	41476.63
552.84	41736.43
553.01	41986.87
553.18	41354.93
553.34	41745.80
553.51	41263.64
553.67	41893.25
553.84	41991.55
554.01	42139.00
554.17	41638.13
554.34	42131.98
554.51	41818.35
554.67	42464.34
554.84	42040.70
555.00	42160.07
555.17	41750.48
555.33	42351.99
555.50	41804.31
555.67	42171.77
555.83	42473.70
556.00	42597.75
556.16	42766.27
556.33	42630.52
556.50	42183.48
556.66	42511.15
556.83	42335.61
556.99	42735.84
557.16	42213.90
557.32	42532.22
557.49	42986.28
557.65	42745.20
557.82	42415.19
557.98	42567.32
558.15	42674.99
558.32	42768.61
558.48	42541.58
558.65	42635.20
558.81	43019.05
558.98	42768.61
559.14	42658.60
559.31	42937.13
559.47	42691.37
559.64	42845.85
559.80	42696.05
559.97	43159.48
560.13	42522.85
560.30	43269.48
560.46	43086.92
560.63	43285.87
560.79	43068.20
560.96	43573.75
561.12	43508.22
561.29	43136.07
561.45	43421.62
561.61	42880.95
561.78	43154.80
561.94	43496.52
562.11	43192.25
562.27	42951.17
562.44	42628.18
562.60	43391.19
562.77	43328.00
562.93	43161.82
563.10	43573.75
563.26	43894.41
563.42	44247.83
563.59	43571.41
563.75	43271.82
563.92	43328.00
564.08	43269.48
564.24	43562.05
564.41	43529.28
564.57	43328.00
564.74	43920.15
564.90	43627.59
565.07	43540.99
565.23	43732.91
565.39	43878.02
565.56	43924.83
565.72	43611.20
565.88	43597.16
566.05	43725.89
566.21	44037.18
566.38	44299.32
566.54	43950.58
566.70	43840.57
566.87	43709.50
567.03	43482.47
567.19	44170.59
567.36	43814.83
567.52	43587.80
567.68	44690.19
567.85	43704.82
568.01	44095.69
568.17	43856.96
568.34	44065.27
568.50	43721.21
568.66	43828.87
568.83	43924.83
568.99	44102.71
569.15	43845.26
569.32	43959.94
569.48	43353.74
569.64	44032.50
569.81	43957.60
569.97	44086.33
570.13	44273.57
570.30	43835.89
570.46	44289.96
570.62	44154.21
570.78	44301.66
570.95	44060.58
571.11	44776.79
571.27	43910.79
571.43	44266.55
571.60	43906.11
571.76	44378.90
571.92	44041.86
572.09	44093.35
572.25	44142.50
572.41	43924.83
572.57	44414.01
572.74	44725.30
572.90	44477.20
573.06	43988.03
573.22	44254.85
573.38	44425.71
573.55	44800.19
573.71	44861.05
573.87	44264.21
574.03	44315.70
574.20	44708.91
574.36	43938.88
574.52	44570.82
574.68	44554.44
574.84	44690.19
575.01	44414.01
575.17	44737.00
575.33	44282.94
575.49	44563.80
575.65	44807.22
575.82	45111.49
575.98	44027.82
576.14	44837.64
576.30	44631.68
576.46	44474.86
576.62	44252.51
576.79	44271.23
576.95	43957.60
577.11	44732.32
577.27	44315.70
577.43	44596.57
577.59	44680.83
577.75	44388.26
577.92	43828.87
578.08	44619.97
578.24	44514.65
578.40	44556.78
578.56	44774.45
578.72	45015.52
578.88	44435.07
579.04	44435.07
579.21	44467.84
579.37	44575.50
579.53	44896.16
579.69	44395.28
579.85	44406.98
580.01	44898.50
580.17	44542.74
580.33	44961.69
580.49	44807.22
580.65	44582.52
580.82	44790.83
580.98	44718.28
581.14	44699.55
581.30	44545.08
581.46	44395.28
581.62	44439.75
581.78	44601.25
581.94	44622.31
582.10	45242.56
582.26	44959.35
582.42	44746.36
582.58	44608.27
582.74	44570.82
582.90	44816.58
583.06	44837.64
583.22	44304.00
583.38	45237.87
583.54	44683.17
583.70	44755.72
583.86	45027.23
584.02	44573.16
584.18	45247.24
584.34	45041.27
584.50	44666.78
584.66	44760.40
584.82	44861.05
584.98	44893.82
585.14	44708.91
585.30	44655.08
585.46	45024.89
585.62	44748.70
585.78	44978.07
585.94	44446.77
586.10	44994.46
586.26	44685.51
586.42	44381.24
586.58	45151.27
586.74	44966.37
586.90	44765.09
587.06	45034.25
587.22	45500.01
587.38	44800.19
587.54	45092.76
587.70	44957.01
587.86	44971.05
588.02	44994.46
588.18	45034.25
588.34	44701.89
588.49	45155.96
588.65	44591.89
588.81	44729.98
588.97	44971.05
589.13	45212.13
589.29	45338.52
589.45	45469.59
589.61	45139.57
589.77	45048.29
589.93	44952.33
590.08	44854.03
590.24	45148.93
590.40	45443.84
590.56	45298.73
590.72	45162.98
590.88	45104.46
591.04	45198.09
591.20	45270.64
591.35	45469.59
591.51	45794.92
591.67	45347.88
591.83	45305.75
591.99	45539.80
592.15	45184.04
592.31	45207.45
592.46	45635.77
592.62	45155.96
592.78	45663.85
592.94	46017.27
593.10	45851.09
593.26	45624.06
593.41	45387.67
593.57	45507.04
593.73	45624.06
593.89	46190.47
594.05	45340.86
594.20	45734.07
594.36	45893.22
594.52	45303.41
594.68	45443.84
594.84	45294.05
594.99	45813.65
595.15	45455.54
595.31	45762.15
595.47	45759.81
595.62	45713.00
595.78	45909.61
595.94	45549.17
596.10	45462.57
596.25	45818.33
596.41	46178.77
596.57	45675.55
596.73	45605.34
596.88	45883.86
597.04	45813.65
597.20	45450.86
597.36	45935.35
597.51	45804.28
597.67	45759.81
597.83	45422.78
597.99	45703.64
598.14	45251.92
598.30	45588.95
598.46	45780.88
598.61	45771.52
598.77	45570.23
598.93	45621.72
599.09	46127.28
599.24	45862.80
599.40	46258.35
599.56	45759.81
599.71	46248.99
599.87	46351.97
600.03	46040.68
600.18	46288.77
600.34	45567.89
600.50	45755.13
600.65	45797.26
600.81	45827.69
600.97	45860.46
601.12	46080.47
601.28	45640.45
601.44	45691.94
601.59	45923.65
601.75	45808.96
601.91	46087.49
602.06	46089.83
602.22	45610.02
602.37	45661.51
602.53	45928.33
602.69	46028.98
602.84	46026.63
603.00	45743.43
603.16	45855.78
603.31	45911.95
603.47	45617.04
603.62	45923.65
603.78	45654.49
603.94	45937.69
604.09	45675.55
604.25	45701.30
604.40	45841.73
604.56	46021.95
604.71	46335.59
604.87	45567.89
605.03	45846.41
605.18	45600.66
605.34	45869.82
605.49	45698.96
605.65	45549.17
605.80	45530.44
605.96	45469.59
606.12	45322.13
606.27	45841.73
606.43	45577.25
606.58	45752.79
606.74	45453.20
606.89	45378.31
607.05	45750.45
607.20	45998.55
607.36	45567.89
607.51	45560.87
607.67	45518.74
607.82	45315.11
607.98	45663.85
608.13	45638.11
608.29	45464.91
608.44	45729.39
608.60	45429.80
608.75	45677.90
608.91	45492.99
609.06	45610.02
609.22	45900.25
609.37	45017.86
609.53	45762.15
609.68	45633.42
609.84	45626.40
609.99	45427.46
610.15	45689.60
610.30	45324.47
610.46	45570.23
610.61	45771.52
610.76	45212.13
610.92	45350.22
611.07	45003.82
611.23	44947.65
611.38	45357.24
611.54	45787.90
611.69	45336.18
611.84	45532.78
612.00	45237.87
612.15	44708.91
612.31	45661.51
612.46	44755.72
612.62	45268.30
612.77	45022.54
612.92	44968.71
613.08	45305.75
613.23	45432.14
613.39	45350.22
613.54	44856.37
613.69	45450.86
613.85	45338.52
614.00	45287.03
614.15	45326.81
614.31	45134.89
614.46	44814.24
614.62	44493.58
614.77	44851.69
614.92	45013.18
615.08	45071.70
615.23	45076.38
615.38	45216.81
615.54	44741.68
615.69	45048.29
615.84	44729.98
616.00	45216.81
616.15	44776.79
616.30	44744.02
616.46	44809.56
616.61	44910.20
616.76	45041.27
616.92	44636.36
617.07	44378.90
617.22	44378.90
617.37	44378.90
617.53	45244.90
617.68	44821.26
617.83	44699.55
617.99	45237.87
618.14	45029.57
618.29	44870.41
618.45	44641.04
618.60	44659.76
618.75	44376.56
618.90	44584.86
619.06	44753.38
619.21	44516.99
619.36	45177.02
619.51	44580.18
619.67	44477.20
619.82	44533.37
619.97	44449.11
620.12	44605.93
620.28	44311.02
620.43	44973.39
620.58	44224.42
620.73	44577.84
620.89	44622.31
621.04	44580.18
621.19	44783.81
621.34	44158.89
621.49	44076.97
621.65	44383.58
621.80	44516.99
621.95	44018.46
622.10	44308.68
622.25	44170.59
622.41	44392.94
622.56	43929.51
622.71	44212.72
622.86	44025.48
623.01	44406.98
623.16	43882.70
623.32	43959.94
623.47	43878.02
623.62	44268.89
623.77	43871.00
623.92	44493.58
624.07	43969.30
624.23	44224.42
624.38	43966.96
624.53	43922.49
624.68	43395.87
624.83	43718.87
624.98	43653.33
625.13	43421.62
625.29	43880.36
625.44	43763.34
625.59	43540.99
625.74	43643.97
625.89	43075.22
626.04	43494.18
626.19	43442.68
626.34	43728.23
626.49	43592.48
626.65	43346.72
626.80	43129.05
626.95	43470.77
627.10	43147.78
627.25	43770.36
627.40	43716.53
627.55	43171.18
627.70	43140.75
627.85	43604.18
628.00	43138.41
628.15	43339.70
628.30	42710.10
628.45	42651.58
628.60	42483.06
628.76	42801.38
628.91	42822.44
629.06	42852.87
629.21	43096.28
629.36	42916.06
629.51	42923.08
629.66	43412.26
629.81	42969.90
629.96	43152.46
630.11	42539.24
630.26	42672.65
630.41	43189.91
630.56	42845.85
630.71	42700.73
630.86	43070.54
631.01	42202.20
631.16	42646.90
631.31	42560.30
631.46	42997.98
631.61	42979.26
631.76	42784.99
631.91	43051.81
632.06	42927.77
632.21	42564.98
632.36	42501.79
632.51	42204.54
632.66	42518.17
632.81	42155.39
632.96	42808.40
633.10	42230.29
633.25	42066.45
633.40	42747.54
633.55	42658.60
633.70	42328.59
633.85	42253.69
634.00	42003.25
634.15	41902.61
634.30	42024.32
634.45	42047.72
634.60	42164.75
634.75	42366.04
634.90	42232.63
635.05	42237.31
635.19	42497.11
635.34	42263.05
635.49	41687.28
635.64	42136.66
635.79	42019.64
635.94	41963.46
636.09	41691.96
636.24	41968.15
636.39	42036.02
636.53	41827.71
636.68	41748.14
636.83	41471.95
636.98	41799.63
637.13	41565.57
637.28	41478.97
637.43	41642.81
637.57	41769.20
637.72	41422.80
637.87	41493.02
638.02	41911.97
638.17	41991.55
638.32	41301.09
638.46	41397.06
638.61	41310.46
638.76	41013.21
638.91	41673.24
639.06	41249.60
639.20	41380.67
639.35	40975.76
639.50	41118.53
639.65	41343.22
639.80	41359.61
639.94	41659.20
640.09	41661.54
640.24	41392.37
640.39	40849.37
640.54	40837.67
640.68	41106.83
640.83	41816.01
640.98	41280.03
641.13	40889.16
641.27	41425.14
641.42	40989.80
641.57	41127.89
641.72	41038.95
641.86	40666.81
642.01	40933.63
642.16	41088.10
642.31	40875.12
642.45	41038.95
642.60	41024.91
642.75	40339.13
642.90	40603.61
643.04	40961.72
643.19	40680.85
643.34	40725.32
643.48	40149.55
643.63	40315.73
643.78	40481.91
643.93	41006.19
644.07	41006.19
644.22	40680.85
644.37	40013.80
644.51	40390.62
644.66	40603.61
644.81	40797.88
644.95	40470.20
645.10	40423.39
645.25	40376.58
645.39	39915.50
645.54	40172.96
645.69	40037.20
645.83	40252.53
645.98	39969.33
646.13	40217.43
646.27	40250.19
646.42	39838.26
646.57	40133.17
646.71	40486.59
646.86	40341.47
647.00	40311.05
647.15	40304.02
647.30	39775.06
647.44	40275.94
647.59	39948.26
647.74	39735.27
647.88	40512.33
648.03	40088.70
648.17	40287.64
648.32	40219.77
648.47	40252.53
648.61	39768.04
648.76	39962.31
648.90	40037.20
649.05	40147.21
649.20	39599.52
649.34	39819.53
649.49	39856.98
649.63	40201.04
649.78	40264.24
649.92	39681.44
650.07	40388.28
650.21	39964.65
650.36	39992.73
650.51	40025.50
650.65	40371.90
650.80	39807.83
650.94	39674.42
651.09	39695.49
651.23	39412.28
651.38	39924.86
651.52	39175.89
651.67	39522.29
651.81	39433.35
651.96	39889.75
652.10	39288.23
652.25	39248.44
652.39	39147.80
652.54	39082.27
652.68	39178.23
652.83	39199.29
652.97	39779.74
653.12	39131.42
653.26	38813.10
653.41	39049.50
653.55	39824.22
653.70	38813.10
653.84	39323.34
653.99	39227.38
654.13	39129.08
654.27	39042.48
654.42	39393.56
654.56	38698.42
654.71	39175.89
654.85	38888.00
655.00	39058.86
655.14	39257.81
655.29	38986.30
655.43	38773.31
655.57	38916.09
655.72	38602.46
655.86	38630.54
656.01	38483.09
656.15	38810.76
656.30	38506.49
656.44	38939.49
656.58	38705.44
656.73	38998.01
656.87	38328.61
657.01	38150.73
657.16	38656.29
657.30	38567.35
657.45	38459.68
657.59	38284.14
657.73	38057.11
657.88	38089.88
658.02	38532.24
658.16	38866.94
658.31	38157.75
658.45	38625.86
658.60	37977.53
658.74	37996.26
658.88	38014.98
659.03	38321.59
659.17	37912.00
659.31	37963.49
659.46	37940.08
659.60	38141.37
659.74	37689.65
659.89	37900.29
660.03	37762.20
660.17	37771.57
660.32	37766.88
660.46	37893.27
660.60	37336.23
660.74	37471.98
660.89	37518.79
661.03	37273.03
661.17	37364.31
661.32	37408.78
661.46	37027.28
661.60	37099.83
661.74	37399.42
661.89	37099.83
662.03	37277.71
662.17	36840.03
662.31	36816.63
662.46	37153.66
662.60	36961.74
662.74	36559.17
662.88	36301.71
663.03	36694.92
663.17	36570.87
663.31	36458.52
663.45	36737.05
663.60	36971.10
663.74	36215.11
663.88	36514.70
664.02	36100.42
664.17	36774.50
664.31	36196.38
664.45	36191.70
664.59	36102.76
664.73	35924.88
664.88	36465.55
665.02	35976.37
665.16	36294.69
665.30	36065.31
665.44	35868.71
665.59	35842.96
665.73	35512.95
665.87	35332.73
666.01	35873.39
666.15	35449.75
666.29	35534.01
666.44	35625.29
666.58	35466.14
666.72	35463.80
666.86	35440.39
667.00	35374.86
667.14	35438.05
667.28	35147.82
667.43	34895.05
667.57	35344.43
667.71	35157.19
667.85	35271.87
667.99	35278.89
668.13	34862.28
668.27	34799.08
668.41	34717.17
668.56	34492.47
668.70	34604.82
668.84	34188.21
668.98	34188.21
669.12	34822.49
669.26	34440.98
669.40	34394.17
669.54	33942.45
669.68	34403.53
669.82	34157.78
669.96	33944.79
670.10	33827.76
670.25	34061.82
670.39	34038.41
670.53	34206.93
670.67	33785.63
670.81	34096.92
670.95	33991.60
671.09	33813.72
671.23	33956.49
671.37	33631.16
671.51	33441.57
671.65	33816.06
671.79	33219.22
671.93	33418.17
672.07	33584.35
672.21	33319.87
672.35	32896.23
672.49	33036.66
672.63	33270.72
672.77	32634.09
672.91	33010.92
673.05	32823.67
673.19	32959.42
673.33	32538.13
673.47	32385.99
673.61	32147.26
673.75	32121.51
673.89	32268.97
674.03	32079.38
674.17	31964.70
674.31	31894.48
674.45	31791.50
674.59	32072.36
674.73	32086.40
674.87	31562.12
675.01	31391.26
675.15	31725.96
675.29	30941.88
675.43	31426.37
675.56	31161.89
675.70	31236.79
675.84	31140.83
675.98	30403.56
676.12	30923.16
676.26	31363.18
676.40	30979.33
676.54	30560.37
676.68	30979.33
676.82	30331.00
676.96	30782.73
677.10	30593.14
677.23	30480.80
677.37	30426.96
677.51	30349.73
677.65	30536.97
677.79	29961.20
677.93	30017.37
678.07	29893.32
678.21	29663.95
678.34	29280.10
678.48	29205.20
678.62	29032.00
678.76	29296.49
678.90	29319.89
679.04	29142.01
679.18	29006.26
679.31	29226.27
679.45	29123.29
679.59	28765.18
679.73	29146.69
679.87	28711.35
680.00	28643.48
680.14	28299.42
680.28	28126.22
680.42	28369.63
680.56	28379.00
680.70	28158.99
680.83	27995.15
680.97	27850.03
681.11	28072.39
681.25	27669.81
681.39	27592.58
681.52	27449.80
681.66	27522.36
681.80	27042.55
681.94	27154.90
682.07	26969.99
682.21	26911.48
682.35	26719.56
682.49	27044.89
682.62	26717.22
682.76	26845.94
682.90	26490.18
683.04	26331.03
683.17	26611.89
683.31	26462.10
683.45	25759.94
683.59	25972.92
683.72	25694.40
683.86	25745.89
684.00	26108.68
684.13	25867.60
684.27	25771.64
684.41	25729.51
684.55	25467.37
684.68	25429.92
684.82	25551.63
684.96	25099.90
685.09	25268.42
685.23	25376.09
685.37	25357.36
685.50	25654.61
685.64	24999.26
685.78	24816.70
685.91	24833.08
686.05	24456.26
686.19	23906.23
686.32	24208.16
686.46	24027.94
686.60	24175.39
686.73	23936.66
686.87	24236.25
687.01	24091.13
687.14	23981.13
687.28	23894.53
687.42	23892.19
687.55	23618.35
687.69	23730.69
687.82	23037.89
687.96	23384.29
688.10	23311.74
688.23	23173.64
688.37	23274.29
688.50	23077.68
688.64	22993.42
688.78	22579.15
688.91	23101.09
689.05	22714.90
689.18	22637.66
689.32	22141.47
689.46	22106.36
689.59	22349.78
689.73	22567.45
689.86	22448.08
690.00	22256.15
690.13	22092.32
690.27	21930.82
690.41	22242.11
690.54	21724.85
690.68	21652.30
690.81	21467.39
690.95	21572.72
691.08	21223.98
691.22	21359.73
691.35	21163.12
691.49	21729.53
691.62	21130.36
691.76	20812.04
691.89	20563.95
692.03	20411.81
692.16	20210.53
692.30	20470.33
692.43	20620.12
692.57	20252.66
692.70	20189.46
692.84	20093.50
692.97	19775.19
693.11	20116.90
693.24	19655.82
693.38	19742.42
693.51	19667.52
693.65	19711.99
693.78	19403.04
693.92	19288.35
694.05	19529.43
694.19	19164.31
694.32	19152.60
694.45	19412.40
694.59	19763.48
694.72	19318.78
694.86	18733.65
694.99	19051.96
695.13	18977.06
695.26	18504.28
695.39	18310.01
695.53	18415.34
695.66	18501.93
695.80	18253.84
695.93	18310.01
696.07	18420.02
696.20	17750.62
696.33	17614.87
696.47	17664.02
696.60	18080.64
696.73	17554.02
696.87	17767.01
697.00	18139.15
697.14	17572.74
697.27	17446.35
697.40	17635.94
697.54	17507.21
697.67	17160.81
697.80	17144.42
697.94	17252.09
698.07	16964.20
698.21	16802.71
698.34	16936.12
698.47	16931.44
698.61	16168.42
698.74	16409.50
698.87	16526.52
699.01	16423.54
699.14	16353.32
699.27	15974.16
699.40	16189.49
699.54	16128.63
699.67	16016.29
699.80	15932.03
699.94	15803.30
700.07	16016.29
700.20	15969.48
700.34	15632.44
700.47	15789.25
700.60	15779.89
700.73	15477.96
700.87	15389.02
701.00	14993.47
701.13	15351.57
701.26	15112.84
701.40	15094.11
701.53	15061.35
701.66	15087.09
701.79	15056.67
701.93	14843.68
702.06	14448.13
702.19	14443.45
702.32	14689.20
702.46	14747.72
702.59	14682.18
702.72	14436.42
702.85	14513.66
702.99	14611.96
703.12	14314.72
703.25	13823.20
703.38	13802.14
703.51	14291.31
703.65	13916.83
703.78	13729.58
703.91	13607.87
704.04	13734.26
704.17	13558.72
704.31	13415.95
704.44	13422.97
704.57	13556.38
704.70	13345.73
704.83	13139.77
704.96	13294.24
705.10	13104.66
705.23	12996.99
>>>>>End Processed Spectral Data<<<<<
