SpectraSuite Data File
++++++++++++++++++++++++++++++++++++
Date: Fri Oct 25 11:34:35 EDT 2013
User: price-jones
Dark Spectrum Present: No
Reference Spectrum Present: No
Number of Sampled Component Spectra: 1
Spectrometers: USB2+H05261
Integration Time (usec): 100000 (USB2+H05261)
Spectra Averaged: 1 (USB2+H05261)
Boxcar Smoothing: 0 (USB2+H05261)
Correct for Electrical Dark: No (USB2+H05261)
Strobe/Lamp Enabled: No (USB2+H05261)
Correct for Detector Non-linearity: No (USB2+H05261)
Correct for Stray Light: No (USB2+H05261)
Number of Pixels in Processed Spectrum: 2048
>>>>>Begin Processed Spectral Data<<<<<
365.73	313.63
365.92	313.63
366.12	313.63
366.32	205.97
366.52	241.08
366.72	189.58
366.91	208.31
367.11	154.48
367.31	205.97
367.51	138.09
367.70	208.31
367.90	203.63
368.10	163.84
368.30	138.09
368.49	166.18
368.69	201.29
368.89	212.99
369.09	198.95
369.28	168.52
369.48	205.97
369.68	163.84
369.87	198.95
370.07	222.35
370.27	271.50
370.47	304.27
370.66	425.98
370.86	540.66
371.06	517.26
371.25	582.79
371.45	547.69
371.65	552.37
371.84	510.24
372.04	524.28
372.24	568.75
372.44	564.07
372.63	587.47
372.83	610.88
373.03	566.41
373.22	573.43
373.42	514.92
373.62	662.37
373.81	638.97
374.01	753.65
374.21	641.31
374.40	624.92
374.60	695.14
374.79	664.71
374.99	610.88
375.19	610.88
375.38	578.11
375.58	655.35
375.78	592.16
375.97	704.50
376.17	662.37
376.37	620.24
376.56	711.52
376.76	603.86
376.95	580.45
377.15	697.48
377.35	634.29
377.54	727.91
377.74	683.44
377.93	720.88
378.13	662.37
378.33	709.18
378.52	751.31
378.72	755.99
378.91	713.86
379.11	664.71
379.31	674.07
379.50	627.26
379.70	774.72
379.89	695.14
380.09	662.37
380.28	622.58
380.48	688.12
380.68	713.86
380.87	702.16
381.07	788.76
381.26	720.88
381.46	798.12
381.65	793.44
381.85	645.99
382.04	809.83
382.24	814.51
382.43	753.65
382.63	741.95
382.83	812.17
383.02	720.88
383.22	732.59
383.41	774.72
383.61	830.89
383.80	802.80
384.00	758.33
384.19	760.67
384.39	772.38
384.58	753.65
384.78	882.38
384.97	858.98
385.17	805.14
385.36	805.14
385.56	830.89
385.75	795.78
385.95	777.06
386.14	791.10
386.34	828.55
386.53	777.06
386.72	873.02
386.92	812.17
387.11	847.27
387.31	856.64
387.50	807.48
387.70	816.85
387.89	856.64
388.09	898.77
388.28	919.83
388.48	814.51
388.67	957.28
388.86	849.61
389.06	884.72
389.25	945.58
389.45	901.11
389.64	882.38
389.84	863.66
390.03	915.15
390.22	924.51
390.42	931.53
390.61	971.32
390.81	980.68
391.00	854.30
391.19	1015.79
391.39	992.39
391.58	1064.94
391.78	936.21
391.97	983.02
392.16	1001.75
392.36	1027.50
392.55	968.98
392.75	891.74
392.94	940.90
393.13	1062.60
393.33	992.39
393.52	985.37
393.71	1062.60
393.91	1057.92
394.10	1050.90
394.29	1067.28
394.49	1151.54
394.68	1121.12
394.88	1102.39
395.07	1076.65
395.26	1027.50
395.46	1086.01
395.65	1156.22
395.84	1207.72
396.04	1252.19
396.23	1177.29
396.42	1123.46
396.62	1235.80
396.81	1207.72
397.00	1165.59
397.19	1146.86
397.39	1111.75
397.58	1158.57
397.77	1111.75
397.97	1212.40
398.16	1284.95
398.35	1254.53
398.55	1228.78
398.74	1273.25
398.93	1287.29
399.12	1277.93
399.32	1266.23
399.51	1249.85
399.70	1320.06
399.90	1313.04
400.09	1310.70
400.28	1296.66
400.47	1315.38
400.67	1306.02
400.86	1310.70
401.05	1399.64
401.24	1401.98
401.44	1371.55
401.63	1441.77
401.82	1350.49
402.01	1446.45
402.21	1432.41
402.40	1348.15
402.59	1458.15
402.78	1425.39
402.97	1504.96
403.17	1523.69
403.36	1483.90
403.55	1514.33
403.74	1544.75
403.93	1589.22
404.13	1579.86
404.32	1500.28
404.51	1488.58
404.70	1575.18
404.89	1558.80
405.09	1607.95
405.28	1668.80
405.47	1570.50
405.66	1563.48
405.85	1689.87
406.05	1687.53
406.24	1713.27
406.43	1636.03
406.62	1757.74
406.81	1811.57
407.00	1666.46
407.20	1626.67
407.39	1710.93
407.58	1767.10
407.77	1795.19
407.96	1860.73
408.15	1935.62
408.34	1783.49
408.54	1795.19
408.73	1872.43
408.92	1912.22
409.11	1926.26
409.30	1884.13
409.49	1930.94
409.68	1874.77
409.87	1952.01
410.07	1895.83
410.26	2076.06
410.45	2001.16
410.64	2022.22
410.83	2069.03
411.02	2090.10
411.21	2064.35
411.40	2064.35
411.59	2073.71
411.78	2033.93
411.98	2169.68
412.17	2080.74
412.36	2235.21
412.55	2317.13
412.74	2148.61
412.93	2331.17
413.12	2239.89
413.31	2387.35
413.50	2202.44
413.69	2204.78
413.88	2373.30
414.07	2291.38
414.26	2436.50
414.45	2396.71
414.64	2420.11
414.83	2436.50
415.02	2487.99
415.22	2609.70
415.41	2579.27
415.60	2609.70
415.79	2492.67
415.98	2635.44
416.17	2586.29
416.36	2729.06
416.55	2619.06
416.74	2754.81
416.93	2764.17
417.12	2705.66
417.31	2724.38
417.50	2850.77
417.69	2937.37
417.88	2836.73
418.07	2822.69
418.26	2740.77
418.45	2818.00
418.64	2916.31
418.83	2848.43
419.02	2993.55
419.21	2848.43
419.39	2977.16
419.58	2970.14
419.77	2822.69
419.96	2935.03
420.15	3136.32
420.34	3023.97
420.53	3047.38
420.72	2932.69
420.91	3094.19
421.10	3023.97
421.29	3171.43
421.48	3066.10
421.67	3243.98
421.86	3171.43
422.05	3185.47
422.24	3096.53
422.43	3197.17
422.61	3342.28
422.80	3276.75
422.99	3229.94
423.18	3246.32
423.37	3337.60
423.56	3206.53
423.75	3272.07
423.94	3183.13
424.13	3155.04
424.32	3070.78
424.50	3316.54
424.69	3300.16
424.88	3267.39
425.07	3192.49
425.26	3260.37
425.45	3204.19
425.64	3204.19
425.83	3229.94
426.01	3243.98
426.20	3267.39
426.39	3353.99
426.58	3304.84
426.77	3265.05
426.96	3538.89
427.15	3440.59
427.33	3253.34
427.52	3279.09
427.71	3393.78
427.90	3389.10
428.09	3543.57
428.28	3468.67
428.46	3531.87
428.65	3531.87
428.84	3637.19
429.03	3524.85
429.22	3489.74
429.40	3574.00
429.59	3625.49
429.78	3529.53
429.97	3463.99
430.16	3597.40
430.34	3576.34
430.53	3651.24
430.72	3641.87
430.91	3768.26
431.10	3700.39
431.28	3845.50
431.47	3763.58
431.66	3819.75
431.85	3761.24
432.03	3981.25
432.22	4014.02
432.41	3798.69
432.60	3992.95
432.79	3840.82
432.97	3887.63
433.16	3967.21
433.35	3985.93
433.54	4112.32
433.72	4028.06
433.91	4065.51
434.10	3936.78
434.28	4004.66
434.47	3873.59
434.66	4025.72
434.85	4215.30
435.03	4152.11
435.22	4023.38
435.41	4166.15
435.59	4112.32
435.78	4205.94
435.97	4124.02
436.16	4301.90
436.34	4201.26
436.53	4037.42
436.72	4402.55
436.90	4318.29
437.09	4294.88
437.28	4358.08
437.46	4308.93
437.65	4355.74
437.84	4442.34
438.02	4440.00
438.21	4510.21
438.40	4418.93
438.58	4582.77
438.77	4615.54
438.96	4416.59
439.14	4538.30
439.33	4685.75
439.52	4788.74
439.70	4716.18
439.89	4624.90
440.08	4751.29
440.26	4809.80
440.45	4765.33
440.63	4798.10
440.82	4828.53
441.01	4922.15
441.19	4971.30
441.38	5022.79
441.57	4959.60
441.75	5022.79
441.94	5090.67
442.12	5228.76
442.31	5249.82
442.50	5203.01
442.68	5191.31
442.87	5242.80
443.05	5226.42
443.24	5184.29
443.43	5249.82
443.61	5240.46
443.80	5350.46
443.98	5238.12
444.17	5259.18
444.35	5313.02
444.54	5434.72
444.73	5462.81
444.91	5455.79
445.10	5504.94
445.28	5369.19
445.47	5495.58
445.65	5303.65
445.84	5467.49
446.02	5451.11
446.21	5507.28
446.39	5336.42
446.58	5406.64
446.77	5430.04
446.95	5430.04
447.14	5533.03
447.32	5558.77
447.51	5458.13
447.69	5610.26
447.88	5427.70
448.06	5556.43
448.25	5593.88
448.43	5423.02
448.62	5488.56
448.80	5458.13
448.99	5528.35
449.17	5593.88
449.36	5516.64
449.54	5551.75
449.73	5722.61
449.91	5851.34
450.10	5792.83
450.28	5825.59
450.46	5790.49
450.65	5738.99
450.83	5802.19
451.02	5982.41
451.20	5907.51
451.39	6036.24
451.57	5858.36
451.76	5762.40
451.94	5919.21
452.13	6148.59
452.31	5947.30
452.49	5853.68
452.68	6040.92
452.86	5954.32
453.05	6157.95
453.23	6043.26
453.42	5933.26
453.60	5902.83
453.78	6246.89
453.97	6242.21
454.15	5977.73
454.34	6033.90
454.52	6239.87
454.70	6321.79
454.89	6307.74
455.07	6333.49
455.26	6366.26
455.44	6518.39
455.62	6317.11
455.81	6237.53
455.99	6459.88
456.17	6331.15
456.36	6366.26
456.54	6525.41
456.73	6743.08
456.91	6656.48
457.09	6719.68
457.28	6806.28
457.46	6754.79
457.64	6846.07
457.83	6686.91
458.01	6726.70
458.19	6899.90
458.38	6715.00
458.56	6752.45
458.74	6768.83
458.93	6780.53
459.11	6822.66
459.29	6829.68
459.48	6927.99
459.66	6942.03
459.84	6988.84
460.03	6927.99
460.21	7014.59
460.39	6956.07
460.57	6881.18
460.76	6965.43
460.94	7199.49
461.12	7190.13
461.31	7248.64
461.49	6991.18
461.67	7272.04
461.85	7304.81
462.04	7162.04
462.22	7632.49
462.40	7405.46
462.59	7351.62
462.77	7335.24
462.95	7321.20
463.13	7274.38
463.32	7339.92
463.50	7487.37
463.68	7728.45
463.86	7370.35
464.05	7311.83
464.23	7695.68
464.41	7459.29
464.59	7454.61
464.78	7723.77
464.96	7653.55
465.14	7494.40
465.32	7564.61
465.50	7864.20
465.69	7761.22
465.87	7749.51
466.05	7674.62
466.23	7702.70
466.41	7803.35
466.60	8086.55
466.78	7676.96
466.96	7887.61
467.14	7772.92
467.32	7971.86
467.51	8074.85
467.69	7889.95
467.87	8070.17
468.05	8095.91
468.23	7960.16
468.41	7943.78
468.60	7946.12
468.78	8018.68
468.96	8140.38
469.14	8198.90
469.32	8266.77
469.50	8006.97
469.69	8367.42
469.87	8430.61
470.05	8196.56
470.23	8304.22
470.41	8533.59
470.59	8376.78
470.77	8461.04
470.95	8414.23
471.14	8636.58
471.32	8400.18
471.50	8709.13
471.68	8571.04
471.86	8538.27
472.04	8589.77
472.22	8982.98
472.40	8557.00
472.58	8706.79
472.77	8812.12
472.95	8781.69
473.13	9210.01
473.31	8793.39
473.49	8952.55
473.67	8730.20
473.85	8966.59
474.03	9198.31
474.21	9198.31
474.39	9521.30
474.57	9284.91
474.75	9331.72
474.93	9404.27
475.12	9408.95
475.30	9542.36
475.48	9495.55
475.66	9713.22
475.84	9589.17
476.02	9921.53
476.20	9626.62
476.38	9916.85
476.56	10293.68
476.74	10204.74
476.92	10068.98
477.10	9970.68
477.28	10118.14
477.46	10167.29
477.64	10415.38
477.82	10422.41
478.00	10733.70
478.18	10714.97
478.36	10677.52
478.54	10736.04
478.72	10757.10
478.90	11103.50
479.08	11052.01
479.26	11042.65
479.44	11009.88
479.62	11166.70
479.80	11274.36
479.98	11674.59
480.16	11658.21
480.34	11454.58
480.52	11597.35
480.70	11620.76
480.88	11569.27
481.06	11744.81
481.24	11779.92
481.41	11861.84
481.59	12175.47
481.77	12013.97
481.95	12070.14
482.13	12592.08
482.31	12367.39
482.49	12723.15
482.67	12575.70
482.85	12669.32
483.03	12695.07
483.21	13109.34
483.39	13090.62
483.57	12952.52
483.74	13245.09
483.92	13261.48
484.10	13240.41
484.28	13530.64
484.46	13846.61
484.64	14012.79
484.82	13631.28
485.00	13947.25
485.18	14066.62
485.35	14459.83
485.53	14106.41
485.71	14427.06
485.89	14647.07
486.07	14628.35
486.25	14572.18
486.43	14815.59
486.61	14822.61
486.78	14974.75
486.96	15063.69
487.14	15070.71
487.32	15227.53
487.50	15407.75
487.68	15599.67
487.85	15627.76
488.03	16032.67
488.21	16189.49
488.39	15873.51
488.57	16395.45
488.75	16191.83
488.92	16655.25
489.10	16622.48
489.28	16788.66
489.46	16966.54
489.64	16683.34
489.81	17242.73
489.99	17095.27
490.17	17266.13
490.35	17298.90
490.53	17415.93
490.70	17610.19
490.88	17680.41
491.06	17958.93
491.24	17886.37
491.41	18134.47
491.59	17933.18
491.77	18174.26
491.95	18338.10
492.13	18558.11
492.30	18658.75
492.48	18705.56
492.66	18927.91
492.84	19005.15
493.01	19110.47
493.19	19243.88
493.37	19379.64
493.54	19316.44
493.72	19590.28
493.90	19480.28
494.08	19690.93
494.25	19967.11
494.43	19920.30
494.61	19999.88
494.79	20236.27
494.96	20173.08
495.14	20313.51
495.32	20723.10
495.49	20486.71
495.67	20807.36
495.85	20556.93
496.02	21142.06
496.20	21336.32
496.38	21472.07
496.55	21144.40
496.73	21647.61
496.91	21612.51
497.09	21579.74
497.26	21792.73
497.44	21682.72
497.62	22188.28
497.79	22277.22
497.97	21855.92
498.14	22464.46
498.32	22586.17
498.50	22202.32
498.67	22459.78
498.85	22902.14
499.03	22827.24
499.20	23042.57
499.38	22658.73
499.56	23129.17
499.73	23199.39
499.91	23379.61
500.08	23571.54
500.26	23014.49
500.44	23381.95
500.61	23522.38
500.79	23545.79
500.97	23754.10
501.14	24084.11
501.32	23896.87
501.49	23866.44
501.67	24142.63
501.84	24212.84
502.02	24077.09
502.20	24617.75
502.37	24706.70
502.55	24587.33
502.72	24346.25
502.90	24505.41
503.07	24425.83
503.25	25216.93
503.43	24421.15
503.60	24980.54
503.78	25067.14
503.95	25291.83
504.13	24978.20
504.30	25247.36
504.48	24776.91
504.65	25537.59
504.83	25582.06
505.01	25689.72
505.18	25633.55
505.36	26291.24
505.53	25846.54
505.71	25986.97
505.88	25874.62
506.06	25993.99
506.23	26539.33
506.41	25965.90
506.58	26167.19
506.76	26359.11
506.93	26579.12
507.11	26281.88
507.28	26593.17
507.46	26623.59
507.63	26796.79
507.81	27154.90
507.98	26623.59
508.16	27094.04
508.33	26845.94
508.50	27192.34
508.68	27285.97
508.85	27159.58
509.03	27236.81
509.20	27236.81
509.38	27615.98
509.55	27943.66
509.73	27527.04
509.90	27580.87
510.08	27850.03
510.25	27786.84
510.42	28041.96
510.60	28065.36
510.77	28341.55
510.95	28519.43
511.12	28247.93
511.30	28538.15
511.47	28514.75
511.64	28690.29
511.82	28870.51
511.99	28432.83
512.17	29113.92
512.34	28830.72
512.51	29235.63
512.69	29046.05
512.86	29294.14
513.04	29296.49
513.21	29333.93
513.38	29465.00
513.56	29560.97
513.73	29537.56
513.90	29523.52
514.08	29088.18
514.25	30024.39
514.43	29898.00
514.60	29876.94
514.77	30213.98
514.95	30045.46
515.12	29855.87
515.29	30195.25
515.47	30361.43
515.64	30272.49
515.81	30157.80
515.99	30546.33
516.16	30841.24
516.33	30895.07
516.51	30618.89
516.68	30417.60
516.85	31005.08
517.03	31152.53
517.20	31147.85
517.37	31023.80
517.54	30782.73
517.72	30827.20
517.89	31503.61
518.06	31456.80
518.24	31122.10
518.41	30991.03
518.58	31119.76
518.75	31384.24
518.93	31920.23
519.10	31702.56
519.27	31700.22
519.45	31704.90
519.62	31875.76
519.79	31732.98
519.96	31742.35
520.14	32320.46
520.31	31840.65
520.48	31997.46
520.65	32154.28
520.83	32746.44
521.00	32367.27
521.17	32299.39
521.34	32638.77
521.52	32708.99
521.69	32893.89
521.86	32889.21
522.03	32697.28
522.20	32662.18
522.38	33656.90
522.55	32973.47
522.72	33036.66
522.89	33160.71
523.07	33670.95
523.24	33008.58
523.41	33530.51
523.58	33462.64
523.75	33675.63
523.92	33467.32
524.10	33647.54
524.27	34061.82
524.44	33972.88
524.61	33853.51
524.78	33963.51
524.96	34096.92
525.13	34293.53
525.30	33979.90
525.47	34265.44
525.64	34064.16
525.81	34316.93
525.98	34555.67
526.16	34426.94
526.33	34546.31
526.50	34958.24
526.67	34440.98
526.84	34920.79
527.01	34635.25
527.18	34171.82
527.36	34845.90
527.53	35122.08
527.70	35220.38
527.87	35037.82
528.04	34885.68
528.21	35105.70
528.38	35192.30
528.55	34991.01
528.72	34902.07
528.89	35248.47
529.07	35426.35
529.24	35278.89
529.41	35742.32
529.58	35608.91
529.75	35835.94
529.92	35704.87
530.09	35669.76
530.26	35634.66
530.43	35913.18
530.60	35641.68
530.77	36034.89
530.94	35861.69
531.11	35625.29
531.28	36023.19
531.46	36114.47
531.63	36360.22
531.80	36030.21
531.97	36070.00
532.14	36189.36
532.31	36112.13
532.48	36664.49
532.65	36603.64
532.82	36149.57
532.99	36446.82
533.16	36280.64
533.33	37038.98
533.50	36704.28
533.67	36807.26
533.84	36531.08
534.01	37095.15
534.18	37043.66
534.35	37095.15
534.52	37074.09
534.69	37689.65
534.86	37046.00
535.03	36987.49
535.20	37226.22
535.37	37528.15
535.54	37612.41
535.71	37254.31
535.88	37717.73
536.05	37628.79
536.22	37401.76
536.38	37361.97
536.55	37736.46
536.72	37647.52
536.89	37607.73
537.06	37933.06
537.23	38115.62
537.40	38007.96
537.57	37860.51
537.74	37851.14
537.91	38225.63
538.08	38094.56
538.25	37874.55
538.42	38398.83
538.59	38745.23
538.75	38162.43
538.92	38124.99
539.09	38733.53
539.26	37975.19
539.43	38220.95
539.60	38534.58
539.77	38471.39
539.94	38660.97
540.11	38770.97
540.28	38689.06
540.44	39042.48
540.61	38642.24
540.78	38588.41
540.95	38618.84
541.12	38756.93
541.29	38642.24
541.46	38902.04
541.62	39274.19
541.79	39524.63
541.96	38405.85
542.13	38944.17
542.30	39189.93
542.47	39150.14
542.63	39192.27
542.80	39346.75
542.97	39618.25
543.14	39800.81
543.31	39536.33
543.48	39608.89
543.64	39798.47
543.81	39924.86
543.98	39742.30
544.15	39814.85
544.32	39969.33
544.48	40198.70
544.65	40259.55
544.82	40381.26
544.99	39732.93
545.16	40243.17
545.32	40271.26
545.49	40545.10
545.66	40627.02
545.83	40545.10
546.00	40414.03
546.16	40151.89
546.33	40100.40
546.50	40690.21
546.67	40603.61
546.83	40435.10
547.00	40477.22
547.17	40179.98
547.34	40701.92
547.50	41375.99
547.67	40928.95
547.84	40961.72
548.00	41219.17
548.17	40968.74
548.34	40804.90
548.51	41113.85
548.67	40938.31
548.84	41041.29
549.01	41141.94
549.18	41102.15
549.34	41071.72
549.51	41649.83
549.68	41647.49
549.84	41106.83
550.01	41577.28
550.18	40746.39
550.34	40978.10
550.51	41586.64
550.68	41698.98
550.84	41041.29
551.01	41394.71
551.18	41184.07
551.34	41237.90
551.51	41783.24
551.68	41464.93
551.84	41425.14
552.01	41605.36
552.18	41467.27
552.34	41490.68
552.51	41886.23
552.68	41586.64
552.84	41771.54
553.01	41734.09
553.18	41638.13
553.34	41818.35
553.51	42012.62
553.67	41897.93
553.84	42326.25
554.01	41759.84
554.17	42199.86
554.34	42183.48
554.51	42412.85
554.67	42457.32
554.84	42197.52
555.00	42445.62
555.17	42377.74
555.33	42103.90
555.50	42391.78
555.67	42583.71
555.83	42548.60
556.00	42672.65
556.16	43412.26
556.33	42712.44
556.50	42686.69
556.66	42679.67
556.83	42330.93
556.99	42696.05
557.16	43012.02
557.32	42749.88
557.49	43194.59
557.65	42504.13
557.82	42513.49
557.98	42728.82
558.15	43021.39
558.32	42499.45
558.48	42462.00
558.65	43241.40
558.81	42948.83
558.98	42916.06
559.14	43005.00
559.31	43351.40
559.47	42951.17
559.64	43140.75
559.80	43079.90
559.97	43133.73
560.13	42876.27
560.30	43454.39
560.46	43468.43
560.63	43124.37
560.79	43243.74
560.96	43566.73
561.12	43805.47
561.29	43166.50
561.45	43650.99
561.61	43498.86
561.78	43313.95
561.94	43412.26
562.11	43407.58
562.27	43679.08
562.44	43782.06
562.60	43115.01
562.77	43863.98
562.93	43508.22
563.10	43821.85
563.26	43758.66
563.42	43957.60
563.59	43552.69
563.75	43323.32
563.92	43494.18
564.08	43349.06
564.24	43896.75
564.41	43569.07
564.57	43875.68
564.74	43868.66
564.90	43732.91
565.07	43702.48
565.23	43812.49
565.39	44023.14
565.56	43688.44
565.72	43646.31
565.88	43700.14
566.05	43969.30
566.21	43817.17
566.38	43693.12
566.54	44397.62
566.70	44086.33
566.87	44224.42
567.03	43798.44
567.19	44315.70
567.36	44072.29
567.52	43992.71
567.68	44046.54
567.85	44664.44
568.01	44339.11
568.17	44147.18
568.34	44069.95
568.50	44229.10
568.66	44105.06
568.83	43981.01
568.99	44385.92
569.15	43388.85
569.32	43995.05
569.48	44858.71
569.64	44577.84
569.81	44009.09
569.97	44018.46
570.13	44032.50
570.30	44343.79
570.46	44430.39
570.62	44320.38
570.78	44383.58
570.95	44364.85
571.11	44854.03
571.27	44156.55
571.43	44526.35
571.60	44804.88
571.76	44107.40
571.92	44612.95
572.09	44304.00
572.25	44362.51
572.41	44343.79
572.57	44453.79
572.74	44685.51
572.90	44388.26
573.06	44669.12
573.22	45020.20
573.38	44884.45
573.55	44516.99
573.71	44933.60
573.87	44378.90
574.03	44296.98
574.20	44278.25
574.36	44746.36
574.52	44622.31
574.68	44636.36
574.84	44722.96
575.01	44849.35
575.17	44488.90
575.33	44795.51
575.49	44301.66
575.65	44631.68
575.82	45088.08
575.98	44346.13
576.14	45069.36
576.30	45092.76
576.46	45130.21
576.62	44603.59
576.79	44875.09
576.95	44044.20
577.11	44774.45
577.27	44751.04
577.43	44327.41
577.59	44460.82
577.75	44645.72
577.92	44687.85
578.08	44491.24
578.24	44708.91
578.40	44877.43
578.56	44631.68
578.72	44573.16
578.88	44844.66
579.04	45226.17
579.21	44861.05
579.37	44746.36
579.53	44917.22
579.69	44767.43
579.85	44734.66
580.01	45027.23
580.17	45092.76
580.33	44971.05
580.49	44875.09
580.65	45069.36
580.82	44821.26
580.98	44456.14
581.14	44807.22
581.30	45038.93
581.46	44893.82
581.62	44629.34
581.78	44662.10
581.94	44992.12
582.10	44772.11
582.26	45088.08
582.42	45010.84
582.58	44935.95
582.74	45146.59
582.90	44980.42
583.06	45188.72
583.22	44856.37
583.38	44910.20
583.54	45209.79
583.70	44676.15
583.86	45392.35
584.02	44964.03
584.18	45162.98
584.34	45195.74
584.50	45429.80
584.66	45127.87
584.82	45205.11
584.98	45003.82
585.14	45233.19
585.30	44849.35
585.46	45233.19
585.62	45078.72
585.78	45081.06
585.94	44451.45
586.10	45455.54
586.26	44863.39
586.42	45092.76
586.58	45074.04
586.74	44720.62
586.90	45184.04
587.06	44509.97
587.22	45158.30
587.38	45071.70
587.54	45371.28
587.70	45610.02
587.86	45174.68
588.02	45001.48
588.18	45394.69
588.34	45195.74
588.49	45256.60
588.65	44964.03
588.81	45434.48
588.97	45352.56
589.13	45052.97
589.29	45420.44
589.45	45336.18
589.61	45361.92
589.77	45649.81
589.93	45233.19
590.08	45488.31
590.24	45881.52
590.40	45909.61
590.56	45696.62
590.72	45701.30
590.88	45572.57
591.04	45677.90
591.20	45722.37
591.35	45291.71
591.51	46246.65
591.67	45862.80
591.83	45769.18
591.99	45551.51
592.15	45610.02
592.31	45375.97
592.46	45282.34
592.62	45783.22
592.78	45717.68
592.94	45635.77
593.10	45780.88
593.26	46080.47
593.41	46192.81
593.57	46036.00
593.73	45605.34
593.89	46000.89
594.05	45872.16
594.20	46014.93
594.36	46218.56
594.52	46115.58
594.68	45738.75
594.84	45940.04
594.99	45933.01
595.15	45717.68
595.31	46028.98
595.47	46000.89
595.62	45521.08
595.78	45839.39
595.94	46230.26
596.10	45610.02
596.25	46036.00
596.41	46511.13
596.57	45645.13
596.73	46099.19
596.88	46368.35
597.04	45703.64
597.20	46071.10
597.36	45684.92
597.51	45991.53
597.67	45830.03
597.83	45750.45
597.99	46108.55
598.14	46143.66
598.30	45764.49
598.46	45893.22
598.61	45975.14
598.77	45970.46
598.93	45886.20
599.09	45890.88
599.24	46415.16
599.40	46040.68
599.56	45897.91
599.71	46316.86
599.87	46422.19
600.03	46384.74
600.18	46337.93
600.34	46178.77
600.50	46169.41
600.65	46066.42
600.81	46440.91
600.97	46494.74
601.12	46295.80
601.28	46024.29
601.44	45965.78
601.59	46064.08
601.75	46412.82
601.91	46347.29
602.06	46225.58
602.22	46265.37
602.37	46274.73
602.53	46312.18
602.69	45961.10
602.84	45720.02
603.00	45797.26
603.16	46021.95
603.31	45954.08
603.47	46438.57
603.62	46092.17
603.78	46293.46
603.94	46281.75
604.09	45855.78
604.25	46206.86
604.40	45991.53
604.56	45970.46
604.71	46436.23
604.87	46258.35
605.03	45947.06
605.18	45874.50
605.34	45925.99
605.49	45815.99
605.65	46160.05
605.80	45815.99
605.96	45785.56
606.12	45652.15
606.27	45776.20
606.43	45771.52
606.58	45722.37
606.74	45876.84
606.89	45769.18
607.05	45764.49
607.20	46522.83
607.36	45825.35
607.51	45853.44
607.67	45705.98
607.82	45750.45
607.98	45535.12
608.13	45954.08
608.29	45872.16
608.44	46021.95
608.60	45942.38
608.75	45797.26
608.91	45886.20
609.06	45729.39
609.22	46059.40
609.37	45827.69
609.53	45837.05
609.68	45925.99
609.84	45603.00
609.99	45769.18
610.15	45642.79
610.30	45635.77
610.46	45144.25
610.61	45717.68
610.76	46129.62
610.92	45368.94
611.07	45322.13
611.23	45324.47
611.38	45546.82
611.54	45689.60
611.69	45621.72
611.84	45560.87
612.00	45815.99
612.15	45727.05
612.31	45633.42
612.46	45514.06
612.62	45324.47
612.77	45350.22
612.92	45869.82
613.08	45401.71
613.23	45216.81
613.39	45352.56
613.54	45586.61
613.69	45443.84
613.85	45312.77
614.00	45631.08
614.15	45560.87
614.31	44989.78
614.46	45595.98
614.62	44959.35
614.77	45563.21
614.92	45090.42
615.08	45282.34
615.23	45532.78
615.38	45818.33
615.54	45022.54
615.69	45275.32
615.84	45200.43
616.00	45411.07
616.15	45104.46
616.30	45205.11
616.46	44687.85
616.61	45057.65
616.76	45265.96
616.92	44968.71
617.07	45076.38
617.22	45029.57
617.37	44931.26
617.53	44935.95
617.68	44783.81
617.83	44734.66
617.99	45413.41
618.14	45167.66
618.29	44652.74
618.45	44549.76
618.60	44896.16
618.75	44479.54
618.90	44552.10
619.06	44531.03
619.21	44797.85
619.36	44765.09
619.51	44472.52
619.67	44535.71
619.82	44481.88
619.97	44861.05
620.12	44161.23
620.28	44437.41
620.43	44486.56
620.58	44580.18
620.73	44435.07
620.89	45057.65
621.04	44737.00
621.19	44626.99
621.34	44591.89
621.49	44023.14
621.65	44566.14
621.80	44601.25
621.95	44449.11
622.10	44732.32
622.25	44081.65
622.41	44493.58
622.56	44591.89
622.71	44404.64
622.86	44191.65
623.01	44484.22
623.16	44355.49
623.32	44341.45
623.47	44282.94
623.62	44226.76
623.77	44357.83
623.92	44559.12
624.07	44093.35
624.23	44495.92
624.38	44224.42
624.53	44172.93
624.68	43892.07
624.83	43653.33
624.98	44287.62
625.13	43545.67
625.29	43777.38
625.44	43779.72
625.59	43580.78
625.74	43945.90
625.89	43840.57
626.04	43463.75
626.19	43363.11
626.34	43742.27
626.49	43550.35
626.65	43463.75
626.80	43725.89
626.95	43690.78
627.10	42946.49
627.25	44079.31
627.40	43182.88
627.55	43374.81
627.70	43821.85
627.85	43775.04
628.00	43491.83
628.15	43290.55
628.30	42848.19
628.45	43016.71
628.60	43213.31
628.76	43182.88
628.91	43119.69
629.06	42581.37
629.21	42520.51
629.36	43161.82
629.51	43360.76
629.66	43489.49
629.81	43028.41
629.96	43147.78
630.11	43107.99
630.26	43168.84
630.41	43283.53
630.56	43051.81
630.71	42899.68
630.86	42747.54
631.01	42843.51
631.16	43115.01
631.31	42682.01
631.46	43068.20
631.61	43262.46
631.76	42808.40
631.91	42972.24
632.06	43208.63
632.21	43117.35
632.36	42995.64
632.51	42824.78
632.66	42986.28
632.81	42862.23
632.96	43187.56
633.10	42618.81
633.25	42810.74
633.40	42813.08
633.55	42377.74
633.70	42684.35
633.85	42721.80
634.00	42583.71
634.15	42581.37
634.30	42239.65
634.45	42225.60
634.60	42265.39
634.75	42686.69
634.90	42213.90
635.05	42728.82
635.19	42160.07
635.34	42628.18
635.49	41954.10
635.64	42155.39
635.79	42389.44
635.94	42237.31
636.09	42660.94
636.24	42143.69
636.39	42405.83
636.53	42387.10
636.68	41787.92
636.83	42089.85
636.98	42014.96
637.13	41418.12
637.28	41759.84
637.43	41715.37
637.57	42071.13
637.72	42029.00
637.87	42220.92
638.02	42155.39
638.17	42171.77
638.32	41502.38
638.46	41532.81
638.61	41996.23
638.76	41422.80
638.91	41867.50
639.06	42054.75
639.20	41450.89
639.35	41120.87
639.50	41069.38
639.65	41694.30
639.80	42206.88
639.94	41958.78
640.09	41914.31
640.24	41546.85
640.39	40847.03
640.54	41209.81
640.68	41219.17
640.83	41825.37
640.98	41368.97
641.13	41261.30
641.27	42052.41
641.42	41450.89
641.57	41312.80
641.72	41038.95
641.86	40910.22
642.01	40708.94
642.16	41141.94
642.31	40264.24
642.45	41757.50
642.60	40964.06
642.75	41134.92
642.90	41275.35
643.04	41081.08
643.19	41085.76
643.34	40982.78
643.48	40828.30
643.63	40945.33
643.78	41024.91
643.93	40877.46
644.07	41209.81
644.22	41104.49
644.37	40783.83
644.51	41207.47
644.66	40591.91
644.81	40432.75
644.95	41163.00
645.10	40657.45
645.25	40306.37
645.39	40247.85
645.54	40168.27
645.69	40128.48
645.83	40601.27
645.98	40128.48
646.13	40238.49
646.27	39796.13
646.42	40409.35
646.57	40435.10
646.71	40685.53
646.86	40851.71
647.00	40573.19
647.15	40715.96
647.30	40458.50
647.44	40486.59
647.59	40395.31
647.74	40144.87
647.88	40772.13
648.03	40418.71
648.17	40664.47
648.32	40584.89
648.47	40690.21
648.61	40339.13
648.76	40037.20
648.90	40084.01
649.05	40086.36
649.20	39838.26
649.34	40032.52
649.49	40074.65
649.63	40275.94
649.78	40208.06
649.92	40055.93
650.07	40364.88
650.21	40545.10
650.36	40442.12
650.51	39894.43
650.65	40278.28
650.80	40219.77
650.94	40149.55
651.09	39871.03
651.23	39168.87
651.38	39494.20
651.52	39356.11
651.67	39966.99
651.81	39840.60
651.96	39903.79
652.10	39393.56
652.25	39487.18
652.39	39524.63
652.54	39789.11
652.68	39606.55
652.83	39562.08
652.97	39669.74
653.12	39321.00
653.26	39566.76
653.41	39227.38
653.55	39262.49
653.70	39541.01
653.84	39831.24
653.99	39639.31
654.13	39538.67
654.27	39604.20
654.42	39173.55
654.56	38967.58
654.71	39042.48
654.85	39159.50
655.00	39274.19
655.14	39051.84
655.29	39533.99
655.43	39412.28
655.57	39339.72
655.72	38897.36
655.86	39152.48
656.01	38763.95
656.15	38457.34
656.30	39079.92
656.44	39257.81
656.58	38979.28
656.73	38920.77
656.87	38651.61
657.01	38717.14
657.16	38836.51
657.30	38522.88
657.45	38616.50
657.59	38623.52
657.73	38682.03
657.88	38480.75
658.02	38529.90
658.16	38473.73
658.31	38883.32
658.45	38756.93
658.60	38567.35
658.74	38532.24
658.88	38845.87
659.03	38057.11
659.17	38319.25
659.31	38122.65
659.46	38281.80
659.60	38206.90
659.74	38190.52
659.89	37780.93
660.03	37701.35
660.17	37909.66
660.32	37912.00
660.46	37865.19
660.60	37486.02
660.74	37867.53
660.89	37729.44
661.03	37535.17
661.17	37654.54
661.32	37525.81
661.46	37605.39
661.60	37696.67
661.74	37570.28
661.89	37378.36
662.03	37642.84
662.17	37282.39
662.31	37298.78
662.46	37525.81
662.60	36844.71
662.74	36940.68
662.88	37085.79
663.03	36711.30
663.17	36753.43
663.31	36652.79
663.45	36851.73
663.60	36959.40
663.74	36744.07
663.88	37027.28
664.02	36306.39
664.17	36973.44
664.31	36641.09
664.45	36524.06
664.59	36833.01
664.73	36474.91
664.88	36467.89
665.02	35924.88
665.16	36126.17
665.30	36514.70
665.44	35910.84
665.59	35800.83
665.73	35924.88
665.87	35660.40
666.01	35765.73
666.15	35807.86
666.29	35758.70
666.44	35784.45
666.58	35906.16
666.72	35620.61
666.86	35702.53
667.00	35255.49
667.14	35665.08
667.28	35730.62
667.43	35147.82
667.57	35847.64
667.71	35796.15
667.85	35704.87
667.99	35531.67
668.13	35590.19
668.27	34897.39
668.41	34993.35
668.56	35026.12
668.70	34644.61
668.84	34307.57
668.98	34691.42
669.12	34974.63
669.26	34686.74
669.40	34806.11
669.54	34780.36
669.68	34747.59
669.82	34473.75
669.96	33930.75
670.10	33951.81
670.25	34244.38
670.39	33926.07
670.53	34328.64
670.67	33893.30
670.81	34064.16
670.95	34022.03
671.09	34316.93
671.23	33523.49
671.37	33720.10
671.51	33755.21
671.65	33949.47
671.79	33462.64
671.93	33181.77
672.07	33851.17
672.21	33544.56
672.35	33413.49
672.49	33535.20
672.63	33661.58
672.77	33373.70
672.91	33099.86
673.05	33233.27
673.19	32804.95
673.33	32797.93
673.47	32706.65
673.61	32692.60
673.75	32472.59
673.89	32701.96
674.03	32465.57
674.17	31899.16
674.31	32264.28
674.45	32177.68
674.59	31971.72
674.73	32114.49
674.87	31688.51
675.01	31885.12
675.15	31456.80
675.29	31625.32
675.43	31538.72
675.56	31887.46
675.70	31662.77
675.84	31243.81
675.98	30450.37
676.12	31639.36
676.26	31307.01
676.40	30897.41
676.54	30902.09
676.68	31016.78
676.82	30221.00
676.96	31054.23
677.10	31075.29
677.23	30506.54
677.37	30979.33
677.51	30295.89
677.65	30377.81
677.79	30480.80
677.93	29984.60
678.07	29813.74
678.21	29649.91
678.34	29720.12
678.48	29425.22
678.62	30029.07
678.76	29350.32
678.90	29958.86
679.04	29315.21
679.18	29420.53
679.31	29270.74
679.45	29247.33
679.59	28957.11
679.73	29406.49
679.87	28615.39
680.00	28608.37
680.14	28622.41
680.28	28634.11
680.42	28711.35
680.56	28718.37
680.70	28268.99
680.83	28313.46
680.97	27817.27
681.11	28140.26
681.25	28046.64
681.39	27466.19
681.52	27861.74
681.66	27772.80
681.80	27080.00
681.94	27239.15
682.07	27428.74
682.21	27314.05
682.35	26991.06
682.49	26977.01
682.62	27147.87
682.76	26988.72
682.90	27112.77
683.04	27131.49
683.17	26731.26
683.31	26719.56
683.45	26335.71
683.59	26178.89
683.72	26202.30
683.86	25977.61
684.00	26003.35
684.13	25680.36
684.27	25603.12
684.41	25834.83
684.55	25502.48
684.68	25675.68
684.82	25392.47
684.96	25663.97
685.09	25097.56
685.23	25563.33
685.37	25582.06
685.50	25387.79
685.64	25167.78
685.78	25184.16
685.91	25233.32
686.05	24650.52
686.19	24308.80
686.32	24446.90
686.46	24119.22
686.60	24128.58
686.73	24233.91
686.87	24009.22
687.01	24379.02
687.14	24196.46
687.28	23913.25
687.42	24004.53
687.55	23871.12
687.69	23578.56
687.82	23332.80
687.96	23625.37
688.10	23461.53
688.23	23213.43
688.37	23145.56
688.50	23356.21
688.64	23592.60
688.78	23119.81
688.91	22778.09
689.05	23250.88
689.18	22740.64
689.32	22127.42
689.46	21984.65
689.59	22459.78
689.73	22412.97
689.86	22541.70
690.00	22445.74
690.13	22174.24
690.27	22033.80
690.41	22235.09
690.54	21851.24
690.68	21947.20
690.81	21378.45
690.95	21516.54
691.08	21628.89
691.22	21319.94
691.35	21315.26
691.49	21542.29
691.62	21341.00
691.76	20828.43
691.89	20556.93
692.03	20563.95
692.16	20657.57
692.30	20760.55
692.43	20475.01
692.57	20271.38
692.70	20535.86
692.84	20100.52
692.97	20257.34
693.11	20161.37
693.24	19882.85
693.38	19693.27
693.51	19840.72
693.65	19880.51
693.78	19653.48
693.92	19707.31
694.05	19676.88
694.19	19398.36
694.32	19580.92
694.45	19271.97
694.59	19456.87
694.72	19658.16
694.86	18988.77
694.99	18906.85
695.13	18661.09
695.26	18909.19
695.39	18703.22
695.53	18590.88
695.66	18941.96
695.80	18485.55
695.93	18286.61
696.07	18265.54
696.20	17912.12
696.33	17411.25
696.47	17872.33
696.60	18031.49
696.73	17767.01
696.87	17877.01
697.00	18293.63
697.14	17783.39
697.27	17554.02
697.40	17579.76
697.54	17511.89
697.67	17558.70
697.80	17146.76
697.94	17235.70
698.07	17331.67
698.21	16936.12
698.34	17046.12
698.47	16819.09
698.61	16629.51
698.74	16683.34
698.87	16884.62
699.01	16283.11
699.14	16411.84
699.27	16603.76
699.40	16182.46
699.54	16336.94
699.67	16013.95
699.80	16163.74
699.94	15990.54
700.07	15967.13
700.20	16147.36
700.34	15833.72
700.47	15737.76
700.60	15960.11
700.73	15770.53
700.87	15492.01
701.00	15489.67
701.13	15115.18
701.26	15110.50
701.40	14998.15
701.53	15154.97
701.66	15211.14
701.79	15255.61
701.93	14927.94
702.06	14808.57
702.19	14860.06
702.32	14766.44
702.46	14593.24
702.59	14745.38
702.72	14677.50
702.85	14712.61
702.99	14466.85
703.12	14328.76
703.25	14340.46
703.38	14099.39
703.51	14188.33
703.65	13998.74
703.78	13788.10
703.91	13781.07
704.04	13902.78
704.17	13710.86
704.31	13614.90
704.44	13652.34
704.57	13589.15
704.70	13750.65
704.83	13434.68
704.96	13298.92
705.10	13303.60
705.23	13156.15
>>>>>End Processed Spectral Data<<<<<
