SpectraSuite Data File
++++++++++++++++++++++++++++++++++++
Date: Fri Oct 25 10:43:15 EDT 2013
User: price-jones
Dark Spectrum Present: No
Reference Spectrum Present: No
Number of Sampled Component Spectra: 1
Spectrometers: USB2+H05261
Integration Time (usec): 100000 (USB2+H05261)
Spectra Averaged: 1 (USB2+H05261)
Boxcar Smoothing: 0 (USB2+H05261)
Correct for Electrical Dark: No (USB2+H05261)
Strobe/Lamp Enabled: No (USB2+H05261)
Correct for Detector Non-linearity: No (USB2+H05261)
Correct for Stray Light: No (USB2+H05261)
Number of Pixels in Processed Spectrum: 2048
>>>>>Begin Processed Spectral Data<<<<<
365.73	107.66
365.92	107.66
366.12	107.66
366.32	7.02
366.52	14.04
366.72	0.00
366.91	18.72
367.11	18.72
367.31	18.72
367.51	39.79
367.70	11.70
367.90	44.47
368.10	0.00
368.30	0.00
368.49	0.00
368.69	77.24
368.89	53.83
369.09	39.79
369.28	23.41
369.48	70.22
369.68	91.28
369.87	117.03
370.07	105.32
370.27	161.50
370.47	175.54
370.66	341.72
370.86	411.93
371.06	414.27
371.25	486.83
371.45	320.65
371.65	496.19
371.84	351.08
372.04	468.11
372.24	393.21
372.44	463.43
372.63	468.11
372.83	456.40
373.03	423.64
373.22	475.13
373.42	437.68
373.62	585.13
373.81	526.62
374.01	606.20
374.21	543.00
374.40	531.30
374.60	557.05
374.79	463.43
374.99	585.13
375.19	606.20
375.38	580.45
375.58	561.73
375.78	596.84
375.97	606.20
376.17	657.69
376.37	557.05
376.56	631.94
376.76	526.62
376.95	601.52
377.15	580.45
377.35	681.10
377.54	744.29
377.74	716.20
377.93	620.24
378.13	643.65
378.33	664.71
378.52	674.07
378.72	653.01
378.91	664.71
379.11	622.58
379.31	594.50
379.50	622.58
379.70	709.18
379.89	669.39
380.09	667.05
380.28	610.88
380.48	664.71
380.68	692.80
380.87	765.36
381.07	774.72
381.26	643.65
381.46	638.97
381.65	683.44
381.85	650.67
382.04	718.54
382.24	720.88
382.43	758.33
382.63	734.93
382.83	772.38
383.02	657.69
383.22	753.65
383.41	718.54
383.61	662.37
383.80	781.74
384.00	755.99
384.19	830.89
384.39	812.17
384.58	821.53
384.78	821.53
384.97	786.42
385.17	826.21
385.36	718.54
385.56	746.63
385.75	772.38
385.95	828.55
386.14	840.25
386.34	816.85
386.53	842.59
386.72	898.77
386.92	880.04
387.11	889.40
387.31	873.02
387.50	866.00
387.70	915.15
387.89	791.10
388.09	959.62
388.28	877.70
388.48	840.25
388.67	973.66
388.86	943.24
389.06	961.96
389.25	936.21
389.45	1053.24
389.64	952.60
389.84	994.73
390.03	997.07
390.22	1062.60
390.42	1020.47
390.61	980.68
390.81	1114.10
391.00	983.02
391.19	1128.14
391.39	1074.31
391.58	1104.73
391.78	943.24
391.97	1001.75
392.16	938.55
392.36	990.05
392.55	1036.86
392.75	1029.84
392.94	952.60
393.13	1027.50
393.33	943.24
393.52	1067.28
393.71	1062.60
393.91	1062.60
394.10	1123.46
394.29	1111.75
394.49	1153.88
394.68	1238.14
394.88	1228.78
395.07	1320.06
395.26	1245.16
395.46	1179.63
395.65	1203.04
395.84	1266.23
396.04	1315.38
396.23	1247.51
396.42	1151.54
396.62	1228.78
396.81	1186.65
397.00	1203.04
397.19	1303.68
397.39	1273.25
397.58	1383.26
397.77	1416.02
397.97	1465.18
398.16	1568.16
398.35	1509.65
398.55	1469.86
398.74	1497.94
398.93	1476.88
399.12	1486.24
399.32	1409.00
399.51	1591.56
399.70	1640.72
399.90	1455.81
400.09	1589.22
400.28	1739.02
400.47	1659.44
400.67	1661.78
400.86	1617.31
401.05	1640.72
401.24	1732.00
401.44	1717.95
401.63	1736.68
401.82	1774.13
402.01	1767.10
402.21	1830.30
402.40	1661.78
402.59	1708.59
402.78	1647.74
402.97	1844.34
403.17	1776.47
403.36	1832.64
403.55	1797.53
403.74	1813.92
403.93	1858.39
404.13	1881.79
404.32	1877.11
404.51	1933.28
404.70	1856.04
404.89	1961.37
405.09	2026.90
405.28	1937.96
405.47	2043.29
405.66	1973.07
405.85	1970.73
406.05	1982.43
406.24	2040.95
406.43	2026.90
406.62	2059.67
406.81	2172.02
407.00	2024.56
407.20	2094.78
407.39	1989.46
407.58	2232.87
407.77	2230.53
407.96	2204.78
408.15	2279.68
408.34	2232.87
408.54	2321.81
408.73	2223.51
408.92	2270.32
409.11	2291.38
409.30	2277.34
409.49	2209.47
409.68	2258.62
409.87	2312.45
410.07	2207.13
410.26	2361.60
410.45	2324.15
410.64	2438.84
410.83	2544.16
411.02	2438.84
411.21	2513.74
411.40	2525.44
411.59	2597.99
411.78	2583.95
411.98	2562.89
412.17	2651.83
412.36	2712.68
412.55	2754.81
412.74	2778.22
412.93	2743.11
413.12	2661.19
413.31	2920.99
413.50	2810.98
413.69	2710.34
413.88	2972.48
414.07	2836.73
414.26	2857.79
414.45	3045.04
414.64	3059.08
414.83	3019.29
415.02	3000.57
415.22	3192.49
415.41	3108.23
415.60	3110.57
415.79	3227.60
415.98	3286.11
416.17	3293.13
416.36	3222.92
416.55	3171.43
416.74	3215.90
416.93	3225.26
417.12	3215.90
417.31	3330.58
417.50	3314.20
417.69	3522.51
417.88	3431.23
418.07	3496.76
418.26	3487.40
418.45	3508.46
418.64	3702.73
418.83	3555.27
419.02	3496.76
419.21	3637.19
419.39	3555.27
419.58	3508.46
419.77	3426.54
419.96	3644.21
420.15	3639.53
420.34	3714.43
420.53	3707.41
420.72	3868.91
420.91	3782.31
421.10	3950.82
421.29	3868.91
421.48	3899.33
421.67	3868.91
421.86	3758.90
422.05	3866.56
422.24	3796.35
422.43	3815.07
422.61	3803.37
422.80	3929.76
422.99	3899.33
423.18	4046.79
423.37	4044.45
423.56	3911.04
423.75	3913.38
423.94	3817.41
424.13	3609.11
424.32	3885.29
424.50	3908.69
424.69	3887.63
424.88	4035.08
425.07	3918.06
425.26	3882.95
425.45	3927.42
425.64	3971.89
425.83	3957.85
426.01	4018.70
426.20	4044.45
426.39	3981.25
426.58	3946.14
426.77	3999.98
426.96	3882.95
427.15	3962.53
427.33	3974.23
427.52	4149.77
427.71	4173.18
427.90	4245.73
428.09	4201.26
428.28	4184.88
428.46	4217.65
428.65	3988.27
428.84	4285.52
429.03	4250.41
429.22	4032.74
429.40	4145.09
429.59	4112.32
429.78	3971.89
429.97	4032.74
430.16	3978.91
430.34	4063.17
430.53	4091.26
430.72	4093.60
430.91	4161.47
431.10	4327.65
431.28	4531.28
431.47	4545.32
431.66	4695.11
431.85	4699.80
432.03	4542.98
432.22	4613.20
432.41	4627.24
432.60	4765.33
432.79	4575.75
432.97	4709.16
433.16	4887.04
433.35	4720.86
433.54	4648.30
433.72	4667.03
433.91	4528.94
434.10	4765.33
434.28	4795.76
434.47	4823.84
434.66	4840.23
434.85	4884.70
435.03	4954.91
435.22	4798.10
435.41	5156.20
435.59	4947.89
435.78	5191.31
435.97	5256.84
436.16	5097.69
436.34	5137.48
436.53	5310.68
436.72	5097.69
436.90	5032.15
437.09	5221.74
437.28	5114.07
437.46	5238.12
437.65	4997.04
437.84	5116.41
438.02	5256.84
438.21	5240.46
438.40	5160.88
438.58	5397.28
438.77	5291.95
438.96	5455.79
439.14	5650.05
439.33	5523.66
439.52	5612.60
439.70	5652.39
439.89	5675.80
440.08	5605.58
440.26	5736.65
440.45	5628.99
440.63	5851.34
440.82	5916.87
441.01	5863.04
441.19	5886.45
441.38	6176.67
441.57	6090.07
441.75	6125.18
441.94	6188.38
442.12	6260.93
442.31	6352.21
442.50	6438.81
442.68	6286.68
442.87	6160.29
443.05	6326.47
443.24	6516.05
443.43	6534.78
443.61	6441.15
443.80	6649.46
443.98	6370.94
444.17	6162.63
444.35	6459.88
444.54	6621.38
444.73	6487.96
444.91	6492.65
445.10	6434.13
445.28	6497.33
445.47	6368.60
445.65	6363.92
445.84	6607.33
446.02	6663.51
446.21	6630.74
446.39	6520.73
446.58	6684.57
446.77	6635.42
446.95	6623.72
447.14	6637.76
447.32	6860.11
447.51	6726.70
447.69	6686.91
447.88	6630.74
448.06	6761.81
448.25	6705.63
448.43	6834.36
448.62	6773.51
448.80	6806.28
448.99	6764.15
449.17	6733.72
449.36	6693.93
449.54	7157.36
449.73	7176.08
449.91	7155.02
450.10	7267.36
450.28	7339.92
450.46	7295.45
450.65	7178.42
450.83	7201.83
451.02	7164.38
451.20	7358.64
451.39	7162.04
451.57	7220.55
451.76	7332.90
451.94	7070.76
452.13	7201.83
452.31	7101.19
452.49	7164.38
452.68	7283.75
452.86	7096.50
453.05	7232.26
453.23	7456.95
453.42	7335.24
453.60	7386.73
453.78	7456.95
453.97	7438.22
454.15	7288.43
454.34	7384.39
454.52	7562.27
454.70	7569.29
454.89	7576.31
455.07	7494.40
455.26	7417.16
455.44	7740.15
455.62	7723.77
455.81	7681.64
455.99	7667.60
456.17	7761.22
456.36	7829.09
456.54	7925.05
456.73	7974.21
456.91	8011.65
457.09	7988.25
457.28	8418.91
457.46	7960.16
457.64	8126.34
457.83	7978.89
458.01	8102.93
458.19	8154.43
458.38	8126.34
458.56	8170.81
458.74	8234.00
458.93	8306.56
459.11	8161.45
459.29	8231.66
459.48	8276.13
459.66	8428.27
459.84	8475.08
460.03	8643.60
460.21	8608.49
460.39	8587.43
460.57	8449.33
460.76	8641.26
460.94	8500.83
461.12	8587.43
461.31	8711.47
461.49	8837.86
461.67	8657.64
461.85	8767.65
462.04	8851.91
462.22	9233.41
462.40	8903.40
462.59	9008.72
462.77	8954.89
462.95	8872.97
463.13	8786.37
463.32	9027.45
463.50	9111.71
463.68	8971.27
463.86	9100.00
464.05	8882.33
464.23	8973.61
464.41	9041.49
464.59	8739.56
464.78	9273.20
464.96	9165.54
465.14	9121.07
465.32	9252.14
465.50	9430.02
465.69	9390.23
465.87	9186.60
466.05	9085.96
466.23	9062.55
466.41	9284.91
466.60	9249.80
466.78	9240.44
466.96	9095.32
467.14	9254.48
467.32	9554.07
467.51	9764.72
467.69	9294.27
467.87	9294.27
468.05	9621.94
468.23	9420.66
468.41	9453.42
468.60	9476.83
468.78	9591.52
468.96	9525.98
469.14	9743.65
469.32	9827.91
469.50	9530.66
469.69	9790.46
469.87	9900.47
470.05	9870.04
470.23	9804.50
470.41	9858.34
470.59	10005.79
470.77	9781.10
470.95	9870.04
471.14	9848.97
471.32	9947.28
471.50	10483.26
471.68	10200.05
471.86	10382.62
472.04	10560.50
472.22	10326.44
472.40	10099.41
472.58	10347.51
472.77	10427.09
472.95	10497.30
473.13	10890.51
473.31	10537.09
473.49	10427.09
473.67	10448.15
473.85	10810.93
474.03	10782.85
474.21	10953.71
474.39	11019.24
474.57	10949.03
474.75	11084.78
474.93	11206.48
475.12	10860.09
475.30	10995.84
475.48	11073.07
475.66	11316.49
475.84	11213.51
476.02	11463.94
476.20	11342.24
476.38	11765.87
476.56	11925.03
476.74	11812.68
476.92	11733.11
477.10	11894.60
477.28	11960.14
477.46	11864.18
477.64	12397.82
477.82	12386.12
478.00	12585.06
478.18	12514.84
478.36	12636.55
478.54	12762.94
478.72	12753.58
478.90	12823.80
479.08	13071.89
479.26	12915.08
479.44	13191.26
479.62	13078.91
479.80	13226.37
479.98	13249.77
480.16	13540.00
480.34	13666.39
480.52	13722.56
480.70	13727.24
480.88	13607.87
481.06	13790.44
481.24	14068.96
481.41	14368.55
481.59	14532.39
481.77	14354.51
481.95	14422.38
482.13	14497.28
482.31	14710.27
482.49	14869.42
482.67	14677.50
482.85	14998.15
483.03	15108.16
483.21	15166.67
483.39	15358.60
483.57	15262.63
483.74	15569.24
483.92	15370.30
484.10	15419.45
484.28	16046.71
484.46	16002.24
484.64	16390.77
484.82	15995.22
485.00	16194.17
485.18	16294.81
485.35	16376.73
485.53	16322.90
485.71	15978.84
485.89	16276.09
486.07	16168.42
486.25	16449.28
486.43	16793.34
486.61	17020.38
486.78	17294.22
486.96	17118.68
487.14	17792.75
487.32	17633.60
487.50	18010.42
487.68	18298.31
487.85	18401.29
488.03	18752.37
488.21	18768.76
488.39	18520.66
488.57	18862.38
488.75	18813.23
488.92	18836.63
489.10	18888.12
489.28	19267.29
489.46	19704.97
489.64	19576.24
489.81	19957.75
489.99	20067.75
490.17	20126.27
490.35	20182.44
490.53	20336.91
490.70	20776.94
490.88	20456.28
491.06	20680.97
491.24	20863.54
491.41	20573.31
491.59	20695.02
491.77	20744.17
491.95	20980.56
492.13	21350.37
492.30	21472.07
492.48	21607.83
492.66	21876.99
492.84	21755.28
493.01	22328.71
493.19	21933.16
493.37	22073.59
493.54	22595.53
493.72	22115.72
493.90	22682.13
494.08	22871.72
494.25	23073.00
494.43	22995.76
494.61	23337.48
494.79	23278.97
494.96	23403.02
495.14	23037.89
495.32	23569.19
495.49	23906.23
495.67	23765.80
495.85	23850.06
496.02	24397.74
496.20	24379.02
496.38	24655.20
496.55	24542.86
496.73	24856.49
496.91	24592.01
497.09	24409.45
497.26	24795.64
497.44	25144.38
497.62	25177.14
497.79	25256.72
497.97	25008.62
498.14	25326.94
498.32	25666.31
498.50	25879.30
498.67	25666.31
498.85	25972.92
499.03	26216.34
499.20	26080.59
499.38	26419.97
499.56	26338.05
499.73	26520.61
499.91	26476.14
500.08	26621.25
500.26	26281.88
500.44	26614.23
500.61	26600.19
500.79	26466.78
500.97	26637.64
501.14	27292.99
501.32	26972.33
501.49	27269.58
501.67	27232.13
501.84	27264.90
502.02	27309.37
502.20	27599.60
502.37	27452.14
502.55	27674.49
502.72	27974.08
502.90	27721.30
503.07	27969.40
503.25	27777.48
503.43	28245.58
503.60	28240.90
503.78	28093.45
503.95	27910.89
504.13	28479.64
504.30	28662.20
504.48	28287.71
504.65	28561.56
504.83	28980.51
505.01	28788.59
505.18	29256.70
505.36	29514.16
505.53	29502.45
505.71	29930.77
505.88	29701.40
506.06	29317.55
506.23	29759.91
506.41	29593.73
506.58	29575.01
506.76	29965.88
506.93	29853.53
507.11	29745.87
507.28	30169.51
507.46	29738.85
507.63	30038.44
507.81	29823.11
507.98	30019.71
508.16	30855.28
508.33	30525.27
508.50	30316.96
508.68	30909.11
508.85	30768.68
509.03	30937.20
509.20	30953.58
509.38	31232.11
509.55	31463.82
509.73	31360.84
509.90	31302.32
510.08	31363.18
510.25	31613.62
510.42	31168.91
510.60	31791.50
510.77	31803.20
510.95	31910.86
511.12	32252.58
511.30	32051.30
511.47	32086.40
511.64	32151.94
511.82	32252.58
511.99	32128.53
512.17	32222.16
512.34	31885.12
512.51	32442.17
512.69	32575.58
512.86	32662.18
513.04	32727.71
513.21	32790.91
513.38	32453.87
513.56	32690.26
513.73	32444.51
513.90	33048.36
514.08	32912.61
514.25	33273.06
514.43	33088.15
514.60	33174.75
514.77	33060.07
514.95	33715.42
515.12	33153.69
515.29	33565.62
515.47	33631.16
515.64	33743.50
515.81	33762.23
515.99	33603.07
516.16	33483.70
516.33	33593.71
516.51	33589.03
516.68	32999.21
516.85	33425.19
517.03	33731.80
517.20	34143.74
517.37	34045.43
517.54	34204.59
517.72	34171.82
517.89	33741.16
518.06	33684.99
518.24	33907.34
518.41	34080.54
518.58	34368.43
518.75	34550.99
518.93	34492.47
519.10	34717.17
519.27	35103.35
519.45	34808.45
519.62	35557.42
519.79	35480.18
519.96	35119.74
520.14	35400.60
520.31	35033.14
520.48	35332.73
520.65	35812.54
520.83	35875.73
521.00	35791.47
521.17	35929.56
521.34	35557.42
521.52	35978.72
521.69	35908.50
521.86	36098.08
522.03	36769.82
522.20	36243.20
522.38	36093.40
522.55	36070.00
522.72	35992.76
522.89	36261.92
523.07	36589.59
523.24	36952.38
523.41	36879.82
523.58	36753.43
523.75	36870.46
523.92	37008.55
524.10	37139.62
524.27	37219.20
524.44	36830.67
524.61	37453.25
524.78	37282.39
524.96	37148.98
525.13	37797.31
525.30	37495.38
525.47	37773.91
525.64	37425.17
525.81	37354.95
525.98	37249.63
526.16	37141.96
526.33	37118.56
526.50	37502.40
526.67	36987.49
526.84	37282.39
527.01	37317.50
527.18	37694.33
527.36	38029.02
527.53	38265.42
527.70	38649.27
527.87	38038.39
528.04	38146.05
528.21	38202.22
528.38	38160.09
528.55	38604.80
528.72	38873.96
528.89	38782.68
529.07	38850.55
529.24	38419.89
529.41	38822.47
529.58	38541.60
529.75	38691.40
529.92	38672.67
530.09	39044.82
530.26	39147.80
530.43	39274.19
530.60	38768.63
530.77	39082.27
530.94	39386.54
531.11	38785.02
531.28	39164.18
531.46	39023.75
531.63	39337.38
531.80	39306.96
531.97	39674.42
532.14	39328.02
532.31	39267.17
532.48	39405.26
532.65	39199.29
532.82	39243.76
532.99	39519.95
533.16	39725.91
533.33	39697.83
533.50	40053.59
533.67	39646.33
533.84	39887.41
534.01	40041.88
534.18	39955.29
534.35	40144.87
534.52	40048.91
534.69	40444.46
534.86	40285.30
535.03	40294.66
535.20	40942.99
535.37	40797.88
535.54	40545.10
535.71	40612.98
535.88	40287.64
536.05	40746.39
536.22	40732.34
536.38	40463.18
536.55	40884.48
536.72	40594.25
536.89	40254.87
537.06	40437.44
537.23	40942.99
537.40	40921.93
537.57	41038.95
537.74	41280.03
537.91	41085.76
538.08	41240.24
538.25	40879.80
538.42	40847.03
538.59	41062.36
538.75	40521.69
538.92	41268.33
539.09	41146.62
539.26	41265.99
539.43	41422.80
539.60	41509.40
539.77	40907.88
539.94	41429.82
540.11	41277.69
540.28	41572.60
540.44	41158.32
540.61	41975.17
540.78	41387.69
540.95	41656.85
541.12	41385.35
541.29	41319.82
541.46	41853.46
541.62	41748.14
541.79	41792.61
541.96	41195.77
542.13	41675.58
542.30	41998.57
542.47	41982.19
542.63	41734.09
542.80	42253.69
542.97	42185.82
543.14	42464.34
543.31	42462.00
543.48	42705.41
543.64	42639.88
543.81	42508.81
543.98	42539.24
544.15	42541.58
544.32	42604.77
544.48	43042.45
544.65	42878.61
544.82	42784.99
544.99	42653.92
545.16	42749.88
545.32	42583.71
545.49	43119.69
545.66	43257.78
545.83	43112.67
546.00	43246.08
546.16	42859.89
546.33	42850.53
546.50	42363.70
546.67	42859.89
546.83	42480.72
547.00	43159.48
547.17	43089.26
547.34	43143.09
547.50	43374.81
547.67	43276.51
547.84	43318.64
548.00	43330.34
548.17	43199.27
548.34	43386.51
548.51	43763.34
548.67	43625.25
548.84	43711.84
549.01	43496.52
549.18	43564.39
549.34	43409.92
549.51	43592.48
549.68	43466.09
549.84	43730.57
550.01	43749.29
550.18	43309.27
550.34	43622.90
550.51	43660.35
550.68	43976.33
550.84	43428.64
551.01	44062.93
551.18	43564.39
551.34	43522.26
551.51	44137.82
551.68	43901.43
551.84	44025.48
552.01	43803.13
552.18	43880.36
552.34	44179.95
552.51	44224.42
552.68	44086.33
552.84	44275.91
553.01	44509.97
553.18	44259.53
553.34	44509.97
553.51	44151.87
553.67	44282.94
553.84	44769.77
554.01	44779.13
554.17	44320.38
554.34	44355.49
554.51	44535.71
554.67	44486.56
554.84	44641.04
555.00	44587.21
555.17	44381.24
555.33	44266.55
555.50	44718.28
555.67	44472.52
555.83	44573.16
556.00	44737.00
556.16	44996.80
556.33	44842.32
556.50	44680.83
556.66	44617.63
556.83	44217.40
556.99	44882.11
557.16	44669.12
557.32	44858.71
557.49	44619.97
557.65	44954.67
557.82	44626.99
557.98	44821.26
558.15	45003.82
558.32	45287.03
558.48	44779.13
558.65	44378.90
558.81	44683.17
558.98	44954.67
559.14	44982.76
559.31	44687.85
559.47	45123.19
559.64	45038.93
559.80	45125.53
559.97	44694.87
560.13	45015.52
560.30	45291.71
560.46	45212.13
560.63	45483.63
560.79	45357.24
560.96	45090.42
561.12	45284.68
561.29	44994.46
561.45	45411.07
561.61	45174.68
561.78	45036.59
561.94	44931.26
562.11	45261.28
562.27	45120.85
562.44	45640.45
562.60	45216.81
562.77	45462.57
562.93	45315.11
563.10	45689.60
563.26	45090.42
563.42	45542.14
563.59	45284.68
563.75	45347.88
563.92	45799.60
564.08	45680.24
564.24	45722.37
564.41	45425.12
564.57	45354.90
564.74	45790.24
564.90	45062.33
565.07	45298.73
565.23	45336.18
565.39	45436.82
565.56	45900.25
565.72	44870.41
565.88	45364.26
566.05	45317.45
566.21	45553.85
566.38	45155.96
566.54	45153.62
566.70	45668.53
566.87	45797.26
567.03	45460.23
567.19	46082.81
567.36	45893.22
567.52	45539.80
567.68	46045.36
567.85	45434.48
568.01	45640.45
568.17	45900.25
568.34	45867.48
568.50	45588.95
568.66	45420.44
568.83	45560.87
568.99	45387.67
569.15	45668.53
569.32	45797.26
569.48	45549.17
569.64	45881.52
569.81	45485.97
569.97	45490.65
570.13	45949.40
570.30	45125.53
570.46	45294.05
570.62	45090.42
570.78	45237.87
570.95	45237.87
571.11	45357.24
571.27	45682.58
571.43	45191.06
571.60	45610.02
571.76	45607.68
571.92	45425.12
572.09	45731.73
572.25	45947.06
572.41	45853.44
572.57	45904.93
572.74	46078.13
572.90	45694.28
573.06	46279.41
573.22	45954.08
573.38	46239.62
573.55	45495.33
573.71	46078.13
573.87	46211.54
574.03	45542.14
574.20	45893.22
574.36	45830.03
574.52	45785.56
574.68	45823.01
574.84	45823.01
575.01	45801.94
575.17	45710.66
575.33	45500.01
575.49	45670.87
575.65	46017.27
575.82	45518.74
575.98	45677.90
576.14	45717.68
576.30	45853.44
576.46	45684.92
576.62	45794.92
576.79	45326.81
576.95	45485.97
577.11	45909.61
577.27	45783.22
577.43	45675.55
577.59	45387.67
577.75	45654.49
577.92	45572.57
578.08	45621.72
578.24	45411.07
578.40	45766.84
578.56	45598.32
578.72	45453.20
578.88	46059.40
579.04	46057.06
579.21	45741.09
579.37	45834.71
579.53	45764.49
579.69	45319.79
579.85	45708.32
580.01	45907.27
580.17	46012.59
580.33	46040.68
580.49	46089.83
580.65	45755.13
580.82	45776.20
580.98	45794.92
581.14	45628.74
581.30	46012.59
581.46	46204.52
581.62	46220.90
581.78	45806.62
581.94	45834.71
582.10	46155.36
582.26	46120.26
582.42	46014.93
582.58	45492.99
582.74	45731.73
582.90	46103.87
583.06	45942.38
583.22	46286.43
583.38	46075.79
583.54	45881.52
583.70	46087.49
583.86	46003.23
584.02	45439.16
584.18	45633.42
584.34	45694.28
584.50	45888.54
584.66	46211.54
584.82	46085.15
584.98	45713.00
585.14	46370.69
585.30	45998.55
585.46	45677.90
585.62	45701.30
585.78	45603.00
585.94	45755.13
586.10	46050.04
586.26	45539.80
586.42	45895.56
586.58	46129.62
586.74	45925.99
586.90	45881.52
587.06	46216.22
587.22	45855.78
587.38	45909.61
587.54	46382.40
587.70	45907.27
587.86	45724.71
588.02	46052.38
588.18	46007.91
588.34	45640.45
588.49	45371.28
588.65	45612.36
588.81	45464.91
588.97	45326.81
589.13	45256.60
589.29	45464.91
589.45	45956.42
589.61	45846.41
589.77	45778.54
589.93	46068.76
590.08	46007.91
590.24	46288.77
590.40	46162.39
590.56	46258.35
590.72	46068.76
590.88	45935.35
591.04	45998.55
591.20	46440.91
591.35	46354.31
591.51	46583.68
591.67	45951.74
591.83	46103.87
591.99	45595.98
592.15	45806.62
592.31	46085.15
592.46	46281.75
592.62	45846.41
592.78	46113.23
592.94	45888.54
593.10	46117.92
593.26	46579.00
593.41	46344.95
593.57	46174.09
593.73	45755.13
593.89	46223.24
594.05	46136.64
594.20	45764.49
594.36	46028.98
594.52	46387.08
594.68	45996.21
594.84	45930.67
594.99	46361.33
595.15	46382.40
595.31	46108.55
595.47	46094.51
595.62	46043.02
595.78	46124.94
595.94	46248.99
596.10	46373.03
596.25	46197.49
596.41	46195.15
596.57	46024.29
596.73	46333.24
596.88	45745.77
597.04	46223.24
597.20	46047.70
597.36	46239.62
597.51	46279.41
597.67	45867.48
597.83	45893.22
597.99	46534.53
598.14	46033.66
598.30	46241.96
598.46	45902.59
598.61	45940.04
598.77	45818.33
598.93	46363.67
599.09	46209.20
599.24	46499.42
599.40	46391.76
599.56	46176.43
599.71	46138.98
599.87	46204.52
600.03	46384.74
600.18	45837.05
600.34	46220.90
600.50	46094.51
600.65	46110.89
600.81	46239.62
600.97	46120.26
601.12	46106.21
601.28	46445.59
601.44	46059.40
601.59	45993.87
601.75	45705.98
601.91	45787.90
602.06	45677.90
602.22	46075.79
602.37	46256.01
602.53	46171.75
602.69	46501.76
602.84	45801.94
603.00	45724.71
603.16	46122.60
603.31	46185.79
603.47	45731.73
603.62	45986.85
603.78	46263.03
603.94	46237.28
604.09	46225.58
604.25	46143.66
604.40	45612.36
604.56	45975.14
604.71	46190.47
604.87	46134.30
605.03	46017.27
605.18	46005.57
605.34	46007.91
605.49	45631.08
605.65	46057.06
605.80	46277.07
605.96	46033.66
606.12	45586.61
606.27	46085.15
606.43	45867.48
606.58	45567.89
606.74	45902.59
606.89	45792.58
607.05	45928.33
607.20	45694.28
607.36	45832.37
607.51	46089.83
607.67	46066.42
607.82	45525.76
607.98	45052.97
608.13	45961.10
608.29	45724.71
608.44	45762.15
608.60	45230.85
608.75	45687.26
608.91	45666.19
609.06	45219.15
609.22	45944.72
609.37	45436.82
609.53	45853.44
609.68	45619.38
609.84	45687.26
609.99	45450.86
610.15	45102.12
610.30	45017.86
610.46	45567.89
610.61	45603.00
610.76	45418.10
610.92	45322.13
611.07	45511.72
611.23	45514.06
611.38	45783.22
611.54	45401.71
611.69	45202.77
611.84	45394.69
612.00	44933.60
612.15	45296.39
612.31	45240.21
612.46	44889.13
612.62	45385.33
612.77	45329.16
612.92	45228.51
613.08	45291.71
613.23	45045.95
613.39	44821.26
613.54	44495.92
613.69	45090.42
613.85	44755.72
614.00	44816.58
614.15	44959.35
614.31	45205.11
614.46	45205.11
614.62	45064.67
614.77	45083.40
614.92	44818.92
615.08	44762.75
615.23	44552.10
615.38	45036.59
615.54	44727.64
615.69	44914.88
615.84	44598.91
616.00	44666.78
616.15	44456.14
616.30	44802.53
616.46	44748.70
616.61	44678.49
616.76	44678.49
616.92	44322.72
617.07	44648.06
617.22	44334.43
617.37	44683.17
617.53	44652.74
617.68	44608.27
617.83	44378.90
617.99	44404.64
618.14	44521.67
618.29	44257.19
618.45	44425.71
618.60	44788.49
618.75	44058.24
618.90	43791.42
619.06	43866.32
619.21	44231.44
619.36	44210.38
619.51	44217.40
619.67	43976.33
619.82	44697.21
619.97	44292.30
620.12	43395.87
620.28	43456.73
620.43	44416.35
620.58	44177.61
620.73	43880.36
620.89	43730.57
621.04	44304.00
621.19	44554.44
621.34	43906.11
621.49	43634.61
621.65	44250.17
621.80	43997.39
621.95	44002.07
622.10	43819.51
622.25	43761.00
622.41	43461.41
622.56	43608.86
622.71	43985.69
622.86	43821.85
623.01	43461.41
623.16	43786.74
623.32	43517.58
623.47	43772.70
623.62	43419.28
623.77	43587.80
623.92	43526.94
624.07	43213.31
624.23	43178.20
624.38	43360.76
624.53	43292.89
624.68	43468.43
624.83	43793.76
624.98	43178.20
625.13	42878.61
625.29	43044.79
625.44	42864.57
625.59	43133.73
625.74	42787.33
625.89	42850.53
626.04	42747.54
626.19	42560.30
626.34	42792.01
626.49	42768.61
626.65	42665.63
626.80	42988.62
626.95	42541.58
627.10	42621.16
627.25	42618.81
627.40	42429.23
627.55	42075.81
627.70	42075.81
627.85	42625.84
628.00	42934.79
628.15	42356.67
628.30	42644.56
628.45	42557.96
628.60	42572.00
628.76	42124.96
628.91	42436.25
629.06	42157.73
629.21	42244.33
629.36	42246.67
629.51	41846.44
629.66	41818.35
629.81	42071.13
629.96	42171.77
630.11	42164.75
630.26	42120.28
630.41	41958.78
630.56	41717.71
630.71	42277.10
630.86	42251.35
631.01	42277.10
631.16	41949.42
631.31	41457.91
631.46	41759.84
631.61	41984.53
631.76	41621.75
631.91	41886.23
632.06	41734.09
632.21	42246.67
632.36	42010.28
632.51	41535.15
632.66	41626.43
632.81	41631.11
632.96	41357.27
633.10	41598.34
633.25	41212.15
633.40	41727.07
633.55	41792.61
633.70	41614.72
633.85	41549.19
634.00	41598.34
634.15	41598.34
634.30	41375.99
634.45	41392.37
634.60	41478.97
634.75	40858.73
634.90	41139.60
635.05	41282.37
635.19	41048.32
635.34	41497.70
635.49	41331.52
635.64	41258.96
635.79	40907.88
635.94	41064.70
636.09	40802.56
636.24	40790.86
636.39	40919.59
636.53	40935.97
636.68	40411.69
636.83	40907.88
636.98	40624.68
637.13	40772.13
637.28	40914.90
637.43	40851.71
637.57	40954.69
637.72	40676.17
637.87	41001.50
638.02	40631.70
638.17	40360.20
638.32	40816.60
638.46	40608.29
638.61	40528.72
638.76	40554.46
638.91	40493.61
639.06	40444.46
639.20	40610.64
639.35	40935.97
639.50	40664.47
639.65	40187.00
639.80	40449.14
639.94	40203.38
640.09	40816.60
640.24	40039.54
640.39	40144.87
640.54	39971.67
640.68	39887.41
640.83	40069.97
640.98	40273.60
641.13	39887.41
641.27	40252.53
641.42	40392.97
641.57	40198.70
641.72	40081.67
641.86	39536.33
642.01	39817.19
642.16	39615.91
642.31	39941.24
642.45	40048.91
642.60	39632.29
642.75	39969.33
642.90	40261.90
643.04	39541.01
643.19	39545.69
643.34	39739.96
643.48	39583.14
643.63	39503.56
643.78	39716.55
643.93	39763.36
644.07	39241.42
644.22	39665.06
644.37	39501.22
644.51	39594.84
644.66	39601.86
644.81	39438.03
644.95	39428.66
645.10	39339.72
645.25	39693.15
645.39	39466.11
645.54	39313.98
645.69	39164.18
645.83	39332.70
645.98	39381.85
646.13	38754.59
646.27	39131.42
646.42	38752.25
646.57	38934.81
646.71	39145.46
646.86	39723.57
647.00	38925.45
647.15	38932.47
647.30	39070.56
647.44	38527.56
647.59	38944.17
647.74	38604.80
647.88	38377.76
648.03	38845.87
648.17	39086.95
648.32	38700.76
648.47	38705.44
648.61	38403.51
648.76	38703.10
648.90	38576.71
649.05	38660.97
649.20	38810.76
649.34	38286.48
649.49	38490.11
649.63	38630.54
649.78	38534.58
649.92	38820.13
650.07	38487.77
650.21	38340.32
650.36	38506.49
650.51	38246.69
650.65	38864.60
650.80	38998.01
650.94	38827.15
651.09	38054.77
651.23	37982.21
651.38	38258.40
651.52	37570.28
651.67	37883.91
651.81	37858.17
651.96	37937.74
652.10	38139.03
652.25	38045.41
652.39	38298.19
652.54	37965.83
652.68	38265.42
652.83	38391.81
652.97	38092.22
653.12	37914.34
653.26	38047.75
653.41	37904.98
653.55	37862.85
653.70	37986.89
653.84	37729.44
653.99	37930.72
654.13	37879.23
654.27	37656.88
654.42	38162.43
654.56	38085.20
654.71	37544.53
654.85	37916.68
655.00	37844.12
655.14	37883.91
655.29	37181.75
655.43	37268.35
655.57	37116.22
655.72	37390.06
655.86	37116.22
656.01	36570.87
656.15	36919.61
656.30	37022.59
656.44	37092.81
656.58	37471.98
656.73	37329.20
656.87	36959.40
657.01	36732.37
657.16	37256.65
657.30	36795.56
657.45	36779.18
657.59	37174.73
657.73	37205.16
657.88	37048.34
658.02	37165.37
658.16	36804.92
658.31	36856.42
658.45	37130.26
658.60	36858.76
658.74	37263.67
658.88	37148.98
659.03	36444.48
659.17	36144.89
659.31	36285.33
659.46	36196.38
659.60	36650.45
659.74	36488.95
659.89	36229.15
660.03	36116.81
660.17	36825.99
660.32	36346.18
660.46	36563.85
660.60	36151.91
660.74	36168.30
660.89	35819.56
661.03	36048.93
661.17	35737.64
661.32	35866.37
661.46	35988.08
661.60	35676.79
661.74	35789.13
661.89	36126.17
662.03	35896.80
662.17	35770.41
662.31	35878.07
662.46	35793.81
662.60	35901.48
662.74	35899.14
662.88	36081.70
663.03	35283.58
663.17	35154.85
663.31	35138.46
663.45	35363.15
663.60	35447.41
663.74	35449.75
663.88	34930.16
664.02	35075.27
664.17	35365.49
664.31	34836.53
664.45	34717.17
664.59	35014.41
664.73	35302.30
664.88	35030.80
665.02	34298.21
665.16	34838.87
665.30	34653.97
665.44	34450.35
665.59	34235.02
665.73	34588.44
665.87	34878.66
666.01	33965.85
666.15	34373.11
666.29	34326.30
666.44	34630.57
666.58	33998.62
666.72	33951.81
666.86	34347.36
667.00	33930.75
667.14	34085.22
667.28	33972.88
667.43	33600.73
667.57	33785.63
667.71	33806.70
667.85	34043.09
667.99	34359.06
668.13	33495.41
668.27	34036.07
668.41	33773.93
668.56	33612.43
668.70	33654.56
668.84	33298.80
668.98	33530.51
669.12	33177.09
669.26	33347.95
669.40	33109.22
669.54	33369.02
669.68	33191.14
669.82	32767.50
669.96	32877.51
670.10	33076.45
670.25	33006.23
670.39	32772.18
670.53	32893.89
670.67	32685.58
670.81	32940.70
670.95	32596.64
671.09	32596.64
671.23	32114.49
671.37	32488.98
671.51	32538.13
671.65	32247.90
671.79	31962.36
671.93	31885.12
672.07	32210.45
672.21	31786.82
672.35	31695.53
672.49	32180.03
672.63	32147.26
672.77	31531.70
672.91	31349.14
673.05	31583.19
673.19	31828.95
673.33	31281.26
673.47	31395.95
673.61	31187.64
673.75	31379.56
673.89	30890.39
674.03	31264.88
674.17	30944.22
674.31	31367.86
674.45	31367.86
674.59	31110.40
674.73	31119.76
674.87	30787.41
675.01	30581.44
675.15	30892.73
675.29	30899.75
675.43	30204.61
675.56	30792.09
675.70	30553.35
675.84	30609.53
675.98	29603.10
676.12	30221.00
676.26	30731.23
676.40	30417.60
676.54	30270.15
676.68	29921.41
676.82	29308.19
676.96	29905.02
677.10	29909.71
677.23	29600.76
677.37	29326.91
677.51	29411.17
677.65	29139.67
677.79	28823.70
677.93	29081.16
678.07	28961.79
678.21	28535.81
678.34	28343.89
678.48	28362.61
678.62	28311.12
678.76	28364.95
678.90	28168.35
679.04	28102.81
679.18	28273.67
679.31	27587.89
679.45	27924.93
679.59	28102.81
679.73	27908.55
679.87	27840.67
680.00	27859.40
680.14	27730.67
680.28	27351.50
680.42	27405.33
680.56	27115.11
680.70	27264.90
680.83	27412.35
680.97	27182.98
681.11	27171.28
681.25	27087.02
681.39	27292.99
681.52	26906.80
681.66	26298.26
681.80	26539.33
681.94	26300.60
682.07	26382.52
682.21	26232.72
682.35	26267.83
682.49	26127.40
682.62	25996.33
682.76	25862.92
682.90	26059.52
683.04	25954.20
683.17	25310.55
683.31	25603.12
683.45	25277.79
683.59	25483.75
683.72	25460.35
683.86	25191.19
684.00	25034.37
684.13	24776.91
684.27	24957.13
684.41	24957.13
684.55	24760.53
684.68	24900.96
684.82	24702.01
684.96	24547.54
685.09	24512.43
685.23	24348.59
685.37	24292.42
685.50	24709.04
685.64	24409.45
685.78	23903.89
685.91	24238.59
686.05	23850.06
686.19	23538.77
686.32	23590.26
686.46	23428.76
686.60	23073.00
686.73	23161.94
686.87	23255.56
687.01	23201.73
687.14	22932.57
687.28	22607.23
687.42	23054.28
687.55	22836.61
687.69	22974.70
687.82	22822.56
687.96	22693.83
688.10	22635.32
688.23	22621.28
688.37	22143.81
688.50	22242.11
688.64	22298.28
688.78	21914.44
688.91	21888.69
689.05	21905.07
689.18	21949.54
689.32	21455.69
689.46	21685.06
689.59	21860.60
689.73	21951.88
689.86	21656.98
690.00	21336.32
690.13	21338.66
690.27	21280.15
690.41	21207.59
690.54	21151.42
690.68	21273.13
690.81	21032.05
690.95	21102.27
691.08	20856.51
691.22	21366.75
691.35	20563.95
691.49	20617.78
691.62	20599.05
691.76	20545.22
691.89	20760.55
692.03	20388.41
692.16	20320.53
692.30	19983.49
692.43	20416.49
692.57	19620.71
692.70	19920.30
692.84	19807.95
692.97	19639.44
693.11	19447.51
693.24	19585.60
693.38	19522.41
693.51	19587.94
693.65	19686.25
693.78	19335.17
693.92	19421.77
694.05	19110.47
694.19	19098.77
694.32	19147.92
694.45	19147.92
694.59	18925.57
694.72	18899.83
694.86	19047.28
694.99	18527.68
695.13	18628.32
695.26	18305.33
695.39	18590.88
695.53	18455.12
695.66	18581.51
695.80	18253.84
695.93	18001.06
696.07	18286.61
696.20	18527.68
696.33	18073.62
696.47	17949.57
696.60	17458.06
696.73	17792.75
696.87	17848.93
697.00	17427.63
697.14	17408.90
697.27	17308.26
697.40	17310.60
697.54	17282.52
697.67	17160.81
697.80	17219.32
697.94	17046.12
698.07	16950.16
698.21	16957.18
698.34	17062.51
698.47	16730.15
698.61	16634.19
698.74	16908.03
698.87	16456.31
699.01	16517.16
699.14	16322.90
699.27	16081.82
699.40	16184.80
699.54	16566.31
699.67	16119.27
699.80	16011.60
699.94	16002.24
700.07	15819.68
700.20	15836.06
700.34	15873.51
700.47	15688.61
700.60	15822.02
700.73	15992.88
700.87	15639.46
701.00	15438.17
701.13	15447.54
701.26	15173.69
701.40	15197.10
701.53	14848.36
701.66	15084.75
701.79	15030.92
701.93	15094.11
702.06	14892.83
702.19	14759.42
702.32	14965.39
702.46	14738.35
702.59	14665.80
702.72	15014.54
702.85	14647.07
702.99	14736.01
703.12	14487.92
703.25	14651.75
703.38	14382.59
703.51	14581.54
703.65	14169.60
703.78	13760.01
703.91	13987.04
704.04	13884.06
704.17	13951.93
704.31	13778.73
704.44	13909.80
704.57	13490.85
704.70	13493.19
704.83	13706.18
704.96	13488.51
705.10	13469.78
705.23	13497.87
>>>>>End Processed Spectral Data<<<<<
