SpectraSuite Data File
++++++++++++++++++++++++++++++++++++
Date: Fri Oct 25 10:48:32 EDT 2013
User: price-jones
Dark Spectrum Present: No
Reference Spectrum Present: No
Number of Sampled Component Spectra: 1
Spectrometers: USB2+H05261
Integration Time (usec): 100000 (USB2+H05261)
Spectra Averaged: 1 (USB2+H05261)
Boxcar Smoothing: 0 (USB2+H05261)
Correct for Electrical Dark: No (USB2+H05261)
Strobe/Lamp Enabled: No (USB2+H05261)
Correct for Detector Non-linearity: No (USB2+H05261)
Correct for Stray Light: No (USB2+H05261)
Number of Pixels in Processed Spectrum: 2048
>>>>>Begin Processed Spectral Data<<<<<
365.73	124.05
365.92	124.05
366.12	124.05
366.32	65.54
366.52	28.09
366.72	70.22
366.91	4.68
367.11	35.11
367.31	0.00
367.51	49.15
367.70	18.72
367.90	11.70
368.10	39.79
368.30	32.77
368.49	30.43
368.69	63.19
368.89	72.56
369.09	67.88
369.28	91.28
369.48	37.45
369.68	117.03
369.87	196.60
370.07	128.73
370.27	56.17
370.47	177.88
370.66	486.83
370.86	423.64
371.06	517.26
371.25	566.41
371.45	409.59
371.65	521.94
371.84	433.00
372.04	456.40
372.24	573.43
372.44	538.32
372.63	503.22
372.83	629.60
373.03	491.51
373.22	535.98
373.42	575.77
373.62	496.19
373.81	582.79
374.01	564.07
374.21	535.98
374.40	594.50
374.60	624.92
374.79	629.60
374.99	624.92
375.19	641.31
375.38	601.52
375.58	671.73
375.78	622.58
375.97	653.01
376.17	655.35
376.37	631.94
376.56	676.41
376.76	645.99
376.95	641.31
377.15	615.56
377.35	725.57
377.54	643.65
377.74	697.48
377.93	690.46
378.13	692.80
378.33	653.01
378.52	603.86
378.72	645.99
378.91	702.16
379.11	718.54
379.31	697.48
379.50	643.65
379.70	699.82
379.89	671.73
380.09	706.84
380.28	617.90
380.48	737.27
380.68	713.86
380.87	702.16
381.07	741.95
381.26	685.78
381.46	678.76
381.65	716.20
381.85	795.78
382.04	704.50
382.24	648.33
382.43	676.41
382.63	688.12
382.83	755.99
383.02	753.65
383.22	777.06
383.41	727.91
383.61	741.95
383.80	786.42
384.00	777.06
384.19	889.40
384.39	788.76
384.58	732.59
384.78	924.51
384.97	952.60
385.17	828.55
385.36	884.72
385.56	882.38
385.75	884.72
385.95	875.36
386.14	884.72
386.34	842.59
386.53	938.55
386.72	781.74
386.92	877.70
387.11	877.70
387.31	898.77
387.50	891.74
387.70	931.53
387.89	884.72
388.09	887.06
388.28	854.30
388.48	868.34
388.67	1001.75
388.86	1011.11
389.06	999.41
389.25	1032.18
389.45	1062.60
389.64	976.00
389.84	1050.90
390.03	1025.15
390.22	1001.75
390.42	966.64
390.61	994.73
390.81	1102.39
391.00	1020.47
391.19	1036.86
391.39	1163.25
391.58	1174.95
391.78	1102.39
391.97	1025.15
392.16	1027.50
392.36	1041.54
392.55	1081.33
392.75	1090.69
392.94	961.96
393.13	1032.18
393.33	1048.56
393.52	1146.86
393.71	1160.91
393.91	1153.88
394.10	1179.63
394.29	1191.33
394.49	1153.88
394.68	1270.91
394.88	1254.53
395.07	1231.12
395.26	1291.98
395.46	1217.08
395.65	1341.13
395.84	1240.48
396.04	1270.91
396.23	1210.06
396.42	1240.48
396.62	1259.21
396.81	1345.81
397.00	1277.93
397.19	1390.28
397.39	1308.36
397.58	1453.47
397.77	1376.24
397.97	1462.83
398.16	1437.09
398.35	1544.75
398.55	1511.99
398.74	1526.03
398.93	1600.93
399.12	1563.48
399.32	1495.60
399.51	1556.46
399.70	1638.38
399.90	1591.56
400.09	1668.80
400.28	1563.48
400.47	1593.90
400.67	1647.74
400.86	1659.44
401.05	1739.02
401.24	1617.31
401.44	1746.04
401.63	1872.43
401.82	1694.55
402.01	1785.83
402.21	1858.39
402.40	1713.27
402.59	1837.32
402.78	1839.66
402.97	1717.95
403.17	1846.68
403.36	1940.30
403.55	1919.24
403.74	1940.30
403.93	1877.11
404.13	1902.86
404.32	1961.37
404.51	1898.17
404.70	1961.37
404.89	1975.41
405.09	1968.39
405.28	2064.35
405.47	1984.77
405.66	2015.20
405.85	1989.46
406.05	2015.20
406.24	2047.97
406.43	2071.37
406.62	2214.15
406.81	2204.78
407.00	2115.84
407.20	1980.09
407.39	2094.78
407.58	2195.42
407.77	2331.17
407.96	2230.53
408.15	2396.71
408.34	2155.63
408.54	2326.49
408.73	2326.49
408.92	2406.07
409.11	2495.01
409.30	2363.94
409.49	2319.47
409.68	2331.17
409.87	2340.54
410.07	2487.99
410.26	2422.45
410.45	2506.71
410.64	2424.80
410.83	2516.08
411.02	2635.44
411.21	2715.02
411.40	2590.97
411.59	2642.46
411.78	2602.68
411.98	2757.15
412.17	2796.94
412.36	2621.40
412.55	2984.18
412.74	2719.70
412.93	2839.07
413.12	2719.70
413.31	3005.25
413.50	2958.44
413.69	2871.84
413.88	2944.39
414.07	2806.30
414.26	2972.48
414.45	3056.74
414.64	3103.55
414.83	3019.29
415.02	3075.46
415.22	3190.15
415.41	3229.94
415.60	3258.03
415.79	3267.39
415.98	3314.20
416.17	3321.22
416.36	3178.45
416.55	3358.67
416.74	3227.60
416.93	3346.97
417.12	3447.61
417.31	3351.65
417.50	3499.10
417.69	3639.53
417.88	3592.72
418.07	3459.31
418.26	3447.61
418.45	3574.00
418.64	3705.07
418.83	3761.24
419.02	3578.68
419.21	3606.77
419.39	3620.81
419.58	3679.32
419.77	3676.98
419.96	3740.18
420.15	3833.80
420.34	3789.33
420.53	3894.65
420.72	3875.93
420.91	3904.01
421.10	3939.12
421.29	4014.02
421.48	3896.99
421.67	4002.32
421.86	4025.72
422.05	3990.61
422.24	3742.52
422.43	3838.48
422.61	3906.35
422.80	4102.96
422.99	3981.25
423.18	4004.66
423.37	4037.42
423.56	4077.21
423.75	3934.44
423.94	4170.83
424.13	3824.44
424.32	3812.73
424.50	4049.13
424.69	4086.58
424.88	4145.09
425.07	4028.06
425.26	3915.72
425.45	3934.44
425.64	4053.81
425.83	4028.06
426.01	4152.11
426.20	4149.77
426.39	4060.83
426.58	4170.83
426.77	4011.68
426.96	4152.11
427.15	4079.55
427.33	4063.17
427.52	4273.82
427.71	4135.73
427.90	4212.96
428.09	4117.00
428.28	4264.46
428.46	4315.95
428.65	4152.11
428.84	4381.48
429.03	4367.44
429.22	4250.41
429.40	4166.15
429.59	4250.41
429.78	3840.82
429.97	4098.28
430.16	3976.57
430.34	4255.09
430.53	4234.03
430.72	4215.30
430.91	4400.21
431.10	4418.93
431.28	4624.90
431.47	4760.65
431.66	4737.24
431.85	4634.26
432.03	4774.69
432.22	4854.27
432.41	4683.41
432.60	4868.31
432.79	4720.86
432.97	4875.34
433.16	4975.98
433.35	4706.82
433.54	4786.40
433.72	4744.27
433.91	4678.73
434.10	4856.61
434.28	4947.89
434.47	4971.30
434.66	5039.17
434.85	5078.96
435.03	5132.79
435.22	5043.85
435.41	5226.42
435.59	5191.31
435.78	5118.75
435.97	5226.42
436.16	5235.78
436.34	5235.78
436.53	5245.14
436.72	5437.06
436.90	5146.84
437.09	5296.63
437.28	5210.03
437.46	5203.01
437.65	5275.57
437.84	5238.12
438.02	5310.68
438.21	5352.81
438.40	5329.40
438.58	5380.89
438.77	5668.78
438.96	5401.96
439.14	5624.31
439.33	5764.74
439.52	5809.21
439.70	5734.31
439.89	5741.33
440.08	5900.49
440.26	5907.51
440.45	5825.59
440.63	5919.21
440.82	6176.67
441.01	6038.58
441.19	6223.48
441.38	6211.78
441.57	6286.68
441.75	6260.93
441.94	6478.60
442.12	6417.75
442.31	6544.14
442.50	6466.90
442.68	6602.65
442.87	6502.01
443.05	6480.94
443.24	6736.06
443.43	6492.65
443.61	6565.20
443.80	6836.70
443.98	6377.96
444.17	6480.94
444.35	6764.15
444.54	6733.72
444.73	6604.99
444.91	6712.66
445.10	6703.29
445.28	6506.69
445.47	6366.26
445.65	6466.90
445.84	6668.19
446.02	6841.39
446.21	6700.95
446.39	6572.22
446.58	6773.51
446.77	6754.79
446.95	6724.36
447.14	6780.53
447.32	7063.74
447.51	7014.59
447.69	6703.29
447.88	6794.58
448.06	6785.21
448.25	7002.88
448.43	6953.73
448.62	6925.65
448.80	6953.73
448.99	7070.76
449.17	7054.37
449.36	7119.91
449.54	7213.53
449.73	7403.11
449.91	7358.64
450.10	7396.09
450.28	7316.51
450.46	7428.86
450.65	7323.54
450.83	7419.50
451.02	7489.71
451.20	7407.80
451.39	7426.52
451.57	7449.93
451.76	7281.41
451.94	7382.05
452.13	7571.63
452.31	7328.22
452.49	7279.07
452.68	7428.86
452.86	7456.95
453.05	7414.82
453.23	7524.82
453.42	7286.09
453.60	7489.71
453.78	7889.95
453.97	7543.55
454.15	7557.59
454.34	7611.42
454.52	7740.15
454.70	7609.08
454.89	7775.26
455.07	7873.56
455.26	7868.88
455.44	7747.17
455.62	7985.91
455.81	7782.28
455.99	7948.46
456.17	7974.21
456.36	8046.76
456.54	8009.31
456.73	8189.53
456.91	8439.97
457.09	8325.29
457.28	8475.08
457.46	8152.09
457.64	8379.12
457.83	8215.28
458.01	8142.72
458.19	8306.56
458.38	8262.09
458.56	8599.13
458.74	8276.13
458.93	8416.57
459.11	8575.72
459.29	8313.58
459.48	8617.85
459.66	8629.56
459.84	8645.94
460.03	8688.07
460.21	8634.24
460.39	8851.91
460.57	8755.94
460.76	8772.33
460.94	8823.82
461.12	8973.61
461.31	8800.41
461.49	8826.16
461.67	8725.52
461.85	8982.98
462.04	8936.17
462.22	9411.29
462.40	9100.00
462.59	9076.60
462.77	9100.00
462.95	9097.66
463.13	9107.02
463.32	9259.16
463.50	9083.62
463.68	9123.41
463.86	9317.67
464.05	9092.98
464.23	9029.79
464.41	9146.81
464.59	9104.68
464.78	9228.73
464.96	9277.88
465.14	9107.02
465.32	9502.58
465.50	9350.44
465.69	9432.36
465.87	9317.67
466.05	9296.61
466.23	9102.34
466.41	9312.99
466.60	9781.10
466.78	9509.60
466.96	9423.00
467.14	9525.98
467.32	9556.41
467.51	9582.15
467.69	9605.56
467.87	9661.73
468.05	9825.57
468.23	9757.69
468.41	9561.09
468.60	9610.24
468.78	9891.10
468.96	9617.26
469.14	9944.94
469.32	10115.80
469.50	9802.16
469.69	9851.31
469.87	9846.63
470.05	10115.80
470.23	9970.68
470.41	9884.08
470.59	10012.81
470.77	10181.33
470.95	10317.08
471.14	10427.09
471.32	10057.28
471.50	10537.09
471.68	10300.70
471.86	10579.22
472.04	10534.75
472.22	10621.35
472.40	10424.75
472.58	10469.22
472.77	10546.45
472.95	10827.32
473.13	11286.06
473.31	10761.78
473.49	10946.69
473.67	10815.62
473.85	10956.05
474.03	11323.51
474.21	11192.44
474.39	11410.11
474.57	11257.98
474.75	11164.36
474.93	11353.94
475.12	11487.35
475.30	11241.59
475.48	11452.24
475.66	11386.71
475.84	11604.38
476.02	11772.89
476.20	11693.32
476.38	11812.68
476.56	12145.04
476.74	12196.53
476.92	11831.41
477.10	12107.59
477.28	12589.74
477.46	12222.28
477.64	12608.47
477.82	12669.32
478.00	12688.04
478.18	12858.90
478.36	12905.71
478.54	12901.03
478.72	13116.36
478.90	13050.83
479.08	13282.54
479.26	13350.42
479.44	13439.36
479.62	13671.07
479.80	13678.09
479.98	13825.54
480.16	13851.29
480.34	13891.08
480.52	14214.07
480.70	14232.80
480.88	13853.63
481.06	14132.15
481.24	14235.14
481.41	14387.27
481.59	14736.01
481.77	14707.93
481.95	14736.01
482.13	14876.44
482.31	14932.62
482.49	15171.35
482.67	15318.81
482.85	15225.18
483.03	15466.26
483.21	15901.60
483.39	15697.97
483.57	15683.93
483.74	15939.05
483.92	15871.17
484.10	15712.02
484.28	16051.39
484.46	16369.71
484.64	16475.03
484.82	16421.20
485.00	16643.55
485.18	16608.44
485.35	16882.28
485.53	16348.64
485.71	16624.83
485.89	17348.05
486.07	16875.26
486.25	17043.78
486.43	17074.21
486.61	17500.19
486.78	17642.96
486.96	18052.55
487.14	17802.11
487.32	17961.27
487.50	18366.18
487.68	18331.08
487.85	18822.59
488.03	18813.23
488.21	19178.35
488.39	19208.78
488.57	19295.38
488.75	19183.03
488.92	19569.22
489.10	19749.44
489.28	20044.35
489.46	20016.26
489.64	19786.89
489.81	20336.91
489.99	20538.20
490.17	20910.35
490.35	20851.83
490.53	20720.76
490.70	21010.99
490.88	20968.86
491.06	21432.29
491.24	21249.72
491.41	21039.08
491.59	21111.63
491.77	21373.77
491.95	21462.71
492.13	21788.05
492.30	21972.95
492.48	22094.66
492.66	22033.80
492.84	22237.43
493.01	22714.90
493.19	22270.20
493.37	22911.50
493.54	22677.45
493.72	23323.44
493.90	23115.13
494.08	23494.30
494.25	23297.69
494.43	23768.14
494.61	23882.83
494.79	24156.67
494.96	23763.46
495.14	23983.47
495.32	24137.94
495.49	24503.07
495.67	24570.94
495.85	24744.14
496.02	24833.08
496.20	25067.14
496.38	25001.60
496.55	24910.32
496.73	25984.63
496.91	25193.53
497.09	25294.17
497.26	25619.50
497.44	25406.52
497.62	25776.32
497.79	25717.81
497.97	26050.16
498.14	26080.59
498.32	25860.58
498.50	26478.48
498.67	26647.00
498.85	26527.63
499.03	26719.56
499.20	26965.31
499.38	27110.43
499.56	26906.80
499.73	27077.66
499.91	27180.64
500.08	27288.31
500.26	27103.40
500.44	27473.21
500.61	27566.83
500.79	27538.74
500.97	27683.86
501.14	27950.68
501.32	27962.38
501.49	27880.46
501.67	27491.93
501.84	28156.64
502.02	28013.87
502.20	28231.54
502.37	28589.64
502.55	28577.94
502.72	28699.65
502.90	28601.35
503.07	28409.42
503.25	28912.64
503.43	28692.63
503.60	28865.83
503.78	28875.19
503.95	28931.36
504.13	29291.80
504.30	29366.70
504.48	29631.18
504.65	29230.95
504.83	30064.18
505.01	29509.47
505.18	29813.74
505.36	30213.98
505.53	29804.38
505.71	30246.74
505.88	30759.32
506.06	30036.09
506.23	30366.11
506.41	30295.89
506.58	30457.39
506.76	30403.56
506.93	30703.15
507.11	30621.23
507.28	30773.36
507.46	30632.93
507.63	30511.22
507.81	31377.22
507.98	31098.70
508.16	31187.64
508.33	31292.96
508.50	31395.95
508.68	31412.33
508.85	31688.51
509.03	31819.58
509.20	32020.87
509.38	31910.86
509.55	31573.83
509.73	31721.28
509.90	32044.27
510.08	31952.99
510.25	32041.93
510.42	32439.82
510.60	32435.14
510.77	32488.98
510.95	32657.49
511.12	32573.24
511.30	32577.92
511.47	32823.67
511.64	33345.61
511.82	32989.85
511.99	32910.27
512.17	33392.42
512.34	32748.78
512.51	33511.79
512.69	33434.55
512.86	33455.62
513.04	33357.32
513.21	33701.37
513.38	33385.40
513.56	33832.44
513.73	33469.66
513.90	33970.54
514.08	33649.88
514.25	33795.00
514.43	33942.45
514.60	33984.58
514.77	33949.47
514.95	34370.77
515.12	34345.02
515.29	34146.08
515.47	34845.90
515.64	34768.66
515.81	34600.14
515.99	34375.45
516.16	34497.16
516.33	34490.13
516.51	34513.54
516.68	34052.45
516.85	33787.97
517.03	34279.49
517.20	35009.73
517.37	34904.41
517.54	35208.68
517.72	35154.85
517.89	35220.38
518.06	34513.54
518.24	34859.94
518.41	35306.98
518.58	35402.94
518.75	35335.07
518.93	35494.22
519.10	35456.78
519.27	36130.85
519.45	36231.49
519.62	35496.56
519.79	36055.95
519.96	36133.19
520.14	36306.39
520.31	36348.52
520.48	36526.40
520.65	36732.37
520.83	36776.84
521.00	36877.48
521.17	36928.97
521.34	36854.08
521.52	37214.52
521.69	37024.93
521.86	37619.43
522.03	37050.68
522.20	37294.10
522.38	36849.39
522.55	37457.93
522.72	37244.94
522.89	37266.01
523.07	37141.96
523.24	37708.37
523.41	37818.38
523.58	37827.74
523.75	38623.52
523.92	37823.06
524.10	38246.69
524.27	37820.72
524.44	38370.74
524.61	38469.04
524.78	38298.19
524.96	38433.94
525.13	38333.29
525.30	39131.42
525.47	38792.04
525.64	38667.99
525.81	38347.34
525.98	38129.67
526.16	38330.95
526.33	38038.39
526.50	38281.80
526.67	38085.20
526.84	38380.10
527.01	38789.70
527.18	38457.34
527.36	38948.85
527.53	38925.45
527.70	39335.04
527.87	39367.81
528.04	39138.44
528.21	38962.90
528.38	39297.59
528.55	39374.83
528.72	39395.90
528.89	40175.30
529.07	40254.87
529.24	39473.13
529.41	39636.97
529.58	39639.31
529.75	39721.23
529.92	39796.13
530.09	39842.94
530.26	40254.87
530.43	39945.92
530.60	40053.59
530.77	40179.98
530.94	40177.64
531.11	40360.20
531.28	39906.13
531.46	40673.83
531.63	40502.97
531.80	40053.59
531.97	40306.37
532.14	40336.79
532.31	40172.96
532.48	40107.42
532.65	40725.32
532.82	40751.07
532.99	40814.26
533.16	39938.90
533.33	41013.21
533.50	41076.40
533.67	40954.69
533.84	40942.99
534.01	41177.04
534.18	41287.05
534.35	41242.58
534.52	41148.96
534.69	41148.96
534.86	41347.90
535.03	41148.96
535.20	41563.23
535.37	42272.42
535.54	41626.43
535.71	41790.27
535.88	41930.70
536.05	41532.81
536.22	41560.89
536.38	41579.62
536.55	41647.49
536.72	41766.86
536.89	41361.95
537.06	41539.83
537.23	42066.45
537.40	41841.76
537.57	41942.40
537.74	41888.57
537.91	42253.69
538.08	42417.53
538.25	41750.48
538.42	42344.97
538.59	42586.05
538.75	41993.89
538.92	42131.98
539.09	42305.18
539.26	42000.91
539.43	42082.83
539.60	42293.48
539.77	42291.14
539.94	42859.89
540.11	42024.32
540.28	42293.48
540.44	42408.17
540.61	42623.50
540.78	42190.50
540.95	42462.00
541.12	42204.54
541.29	42576.69
541.46	42422.21
541.62	42572.00
541.79	43030.75
541.96	42824.78
542.13	42813.08
542.30	43356.08
542.47	43232.04
542.63	42934.79
542.80	42990.96
542.97	43625.25
543.14	43625.25
543.31	43257.78
543.48	43412.26
543.64	44215.06
543.81	43819.51
543.98	43564.39
544.15	43540.99
544.32	43735.25
544.48	44446.77
544.65	43618.22
544.82	43934.20
544.99	43646.31
545.16	44055.90
545.32	43627.59
545.49	44037.18
545.66	44369.54
545.83	43903.77
546.00	44416.35
546.16	43718.87
546.33	43679.08
546.50	43772.70
546.67	44254.85
546.83	43810.15
547.00	44013.77
547.17	44013.77
547.34	43821.85
547.50	44439.75
547.67	44493.58
547.84	44051.22
548.00	44774.45
548.17	44919.56
548.34	44802.53
548.51	44755.72
548.67	45256.60
548.84	44395.28
549.01	44711.25
549.18	44720.62
549.34	44533.37
549.51	44966.37
549.68	45268.30
549.84	44858.71
550.01	44996.80
550.18	44610.61
550.34	44484.22
550.51	44767.43
550.68	45013.18
550.84	44439.75
551.01	45366.60
551.18	45387.67
551.34	45050.63
551.51	45205.11
551.68	45315.11
551.84	45102.12
552.01	44877.43
552.18	45448.52
552.34	44954.67
552.51	45312.77
552.68	45195.74
552.84	44933.60
553.01	45624.06
553.18	45354.90
553.34	45333.84
553.51	45139.57
553.67	45682.58
553.84	45750.45
554.01	45883.86
554.17	45764.49
554.34	45750.45
554.51	45572.57
554.67	45813.65
554.84	45977.48
555.00	46064.08
555.17	45469.59
555.33	45673.21
555.50	45429.80
555.67	45869.82
555.83	45673.21
556.00	45663.85
556.16	45907.27
556.33	45879.18
556.50	45940.04
556.66	46155.36
556.83	45825.35
556.99	45991.53
557.16	46085.15
557.32	46131.96
557.49	45691.94
557.65	45703.64
557.82	45942.38
557.98	45944.72
558.15	45736.41
558.32	45958.76
558.48	45921.31
558.65	45734.07
558.81	45968.12
558.98	46094.51
559.14	46319.20
559.31	46197.49
559.47	46148.34
559.64	46508.79
559.80	46202.18
559.97	46518.15
560.13	45865.14
560.30	46258.35
560.46	46274.73
560.63	46115.58
560.79	46724.11
560.96	46644.54
561.12	46632.83
561.29	46644.54
561.45	46492.40
561.61	46443.25
561.78	46567.30
561.94	46518.15
562.11	46536.87
562.27	45968.12
562.44	46169.41
562.60	46429.21
562.77	46836.46
562.93	46639.86
563.10	46775.61
563.26	46195.15
563.42	46878.59
563.59	46684.33
563.75	46630.49
563.92	46651.56
564.08	46712.41
564.24	46986.25
564.41	47409.89
564.57	46962.85
564.74	46752.20
564.90	46583.68
565.07	46857.52
565.23	46693.69
565.39	46408.14
565.56	46770.93
565.72	46539.21
565.88	46181.11
566.05	46394.10
566.21	46543.89
566.38	46602.41
566.54	46590.70
566.70	46827.10
566.87	46974.55
567.03	46731.14
567.19	46810.71
567.36	46864.55
567.52	46728.80
567.68	46962.85
567.85	46539.21
568.01	46976.89
568.17	46801.35
568.34	46564.96
568.50	46705.39
568.66	46426.87
568.83	46848.16
568.99	47056.47
569.15	46525.17
569.32	46557.94
569.48	46279.41
569.64	47161.79
569.81	47105.62
569.97	46749.86
570.13	46789.65
570.30	47124.35
570.46	46658.58
570.62	46511.13
570.78	46810.71
570.95	46677.30
571.11	46777.95
571.27	46679.64
571.43	47114.98
571.60	47150.09
571.76	46494.74
571.92	46883.27
572.09	46677.30
572.25	46836.46
572.41	46803.69
572.57	46979.23
572.74	47351.38
572.90	47047.11
573.06	47285.84
573.22	47342.02
573.38	47449.68
573.55	46712.41
573.71	47182.86
573.87	46738.16
574.03	46780.29
574.20	46527.51
574.36	47084.56
574.52	47222.65
574.68	47288.18
574.84	47079.88
575.01	46852.84
575.17	46920.72
575.33	46525.17
575.49	47023.70
575.65	47414.57
575.82	47419.25
575.98	46784.97
576.14	47358.40
576.30	47157.11
576.46	46766.24
576.62	46911.36
576.79	47419.25
576.95	46562.62
577.11	46930.08
577.27	47051.79
577.43	47283.50
577.59	47033.07
577.75	47222.65
577.92	46775.61
578.08	46272.39
578.24	46937.10
578.40	46993.28
578.56	46948.81
578.72	47327.97
578.88	47707.14
579.04	47248.39
579.21	46953.49
579.37	46843.48
579.53	47070.51
579.69	47033.07
579.85	46995.62
580.01	47704.80
580.17	47150.09
580.33	47379.46
580.49	47292.86
580.65	47304.57
580.82	47386.49
580.98	47419.25
581.14	46878.59
581.30	47299.89
581.46	47550.32
581.62	47435.64
581.78	47215.63
581.94	47613.52
582.10	47292.86
582.26	47166.48
582.42	47157.11
582.58	47334.99
582.74	47103.28
582.90	47667.35
583.06	47505.85
583.22	47459.04
583.38	47166.48
583.54	46997.96
583.70	46958.17
583.86	47402.87
584.02	46883.27
584.18	47292.86
584.34	46735.82
584.50	47550.32
584.66	47243.71
584.82	46784.97
584.98	47344.36
585.14	47220.31
585.30	47150.09
585.46	47014.34
585.62	46862.21
585.78	47143.07
585.94	47091.58
586.10	46911.36
586.26	47063.49
586.42	47213.29
586.58	47416.91
586.74	46965.19
586.90	47061.15
587.06	46911.36
587.22	47248.39
587.38	47145.41
587.54	47206.26
587.70	47199.24
587.86	46897.31
588.02	46815.40
588.18	47358.40
588.34	46625.81
588.49	46803.69
588.65	46710.07
588.81	46117.92
588.97	46621.13
589.13	46679.64
589.29	46871.57
589.45	47063.49
589.61	47430.96
589.77	47274.14
589.93	46941.78
590.08	47082.22
590.24	47367.76
590.40	47370.10
590.56	47662.67
590.72	47510.53
590.88	46745.18
591.04	47264.78
591.20	47274.14
591.35	47267.12
591.51	48034.81
591.67	47559.69
591.83	47248.39
591.99	46705.39
592.15	47372.44
592.31	47213.29
592.46	46951.15
592.62	47264.78
592.78	47510.53
592.94	47283.50
593.10	47503.51
593.26	47201.58
593.41	47632.24
593.57	47143.07
593.73	47117.32
593.89	47302.23
594.05	47068.17
594.20	47250.74
594.36	47456.70
594.52	47295.21
594.68	47267.12
594.84	47473.09
594.99	47105.62
595.15	47159.45
595.31	47391.17
595.47	47370.10
595.62	47498.83
595.78	47866.30
595.94	47878.00
596.10	47697.78
596.25	47613.52
596.41	47690.76
596.57	47538.62
596.73	47938.85
596.88	47533.94
597.04	47437.98
597.20	47643.94
597.36	47114.98
597.51	47789.06
597.67	47423.93
597.83	47468.40
597.99	47456.70
598.14	47019.02
598.30	47360.74
598.46	47290.52
598.61	47388.83
598.77	47185.20
598.93	47395.85
599.09	47152.43
599.24	47821.83
599.40	47203.92
599.56	47229.67
599.71	47182.86
599.87	47988.00
600.03	47592.45
600.18	47634.58
600.34	47281.16
600.50	46967.53
600.65	47271.80
600.81	47515.22
600.97	47192.22
601.12	47639.26
601.28	47194.56
601.44	47367.76
601.59	47276.48
601.75	47098.60
601.91	47445.00
602.06	47297.55
602.22	47529.26
602.37	47292.86
602.53	47133.71
602.69	47674.37
602.84	47313.93
603.00	47498.83
603.16	47239.03
603.31	47154.77
603.47	47365.42
603.62	46890.29
603.78	47103.28
603.94	46759.22
604.09	48090.99
604.25	47243.71
604.40	47487.13
604.56	47519.90
604.71	47405.21
604.87	47524.58
605.03	47388.83
605.18	47199.24
605.34	47210.95
605.49	46782.63
605.65	47552.66
605.80	47196.90
605.96	47295.21
606.12	47056.47
606.27	47491.81
606.43	47547.98
606.58	47257.76
606.74	47274.14
606.89	47056.47
607.05	47297.55
607.20	47187.54
607.36	47217.97
607.51	47447.34
607.67	47346.70
607.82	47105.62
607.98	47154.77
608.13	47217.97
608.29	46817.74
608.44	46745.18
608.60	46686.67
608.75	46927.74
608.91	46885.61
609.06	46866.89
609.22	47016.68
609.37	47189.88
609.53	46967.53
609.68	47367.76
609.84	46693.69
609.99	47129.03
610.15	46770.93
610.30	46419.84
610.46	46321.54
610.61	46939.44
610.76	46635.17
610.92	46806.03
611.07	46883.27
611.23	46595.38
611.38	46714.75
611.54	46225.58
611.69	46080.47
611.84	46719.43
612.00	46806.03
612.15	46522.83
612.31	46389.42
612.46	46581.34
612.62	46703.05
612.77	46625.81
612.92	46588.36
613.08	46609.43
613.23	46597.73
613.39	46270.05
613.54	46211.54
613.69	45935.35
613.85	46330.90
614.00	46176.43
614.15	46541.55
614.31	46258.35
614.46	46555.60
614.62	46436.23
614.77	46146.00
614.92	46333.24
615.08	46225.58
615.23	46057.06
615.38	46314.52
615.54	46052.38
615.69	45659.17
615.84	45698.96
616.00	45944.72
616.15	45705.98
616.30	46241.96
616.46	45415.76
616.61	45621.72
616.76	46382.40
616.92	45855.78
617.07	45925.99
617.22	45804.28
617.37	45698.96
617.53	46131.96
617.68	46054.72
617.83	46127.28
617.99	46377.72
618.14	45624.06
618.29	45687.26
618.45	45170.00
618.60	45694.28
618.75	45614.70
618.90	45375.97
619.06	45446.18
619.21	45933.01
619.36	45923.65
619.51	45689.60
619.67	45408.73
619.82	45469.59
619.97	45551.51
620.12	44924.24
620.28	45074.04
620.43	45544.48
620.58	45151.27
620.73	45570.23
620.89	45221.49
621.04	45343.20
621.19	44739.34
621.34	44891.48
621.49	45090.42
621.65	45640.45
621.80	44673.81
621.95	44563.80
622.10	45371.28
622.25	45347.88
622.41	44807.22
622.56	44758.06
622.71	45254.26
622.86	44980.42
623.01	45113.83
623.16	45146.59
623.32	45319.79
623.47	45184.04
623.62	44692.53
623.77	44966.37
623.92	44814.24
624.07	44715.93
624.23	44058.24
624.38	44332.09
624.53	44713.59
624.68	44666.78
624.83	44854.03
624.98	44439.75
625.13	44591.89
625.29	44488.90
625.44	44575.50
625.59	44416.35
625.74	43896.75
625.89	43887.39
626.04	43845.26
626.19	44142.50
626.34	44701.89
626.49	44423.37
626.65	44091.01
626.80	44484.22
626.95	44294.64
627.10	44051.22
627.25	43819.51
627.40	43697.80
627.55	43597.16
627.70	43484.81
627.85	43536.30
628.00	44088.67
628.15	44231.44
628.30	44414.01
628.45	43749.29
628.60	43756.32
628.76	43697.80
628.91	43782.06
629.06	43957.60
629.21	43075.22
629.36	43632.27
629.51	43868.66
629.66	43531.62
629.81	42983.94
629.96	43646.31
630.11	43311.61
630.26	43519.92
630.41	43463.75
630.56	43538.65
630.71	43292.89
630.86	43342.04
631.01	43058.84
631.16	43533.96
631.31	43302.25
631.46	42408.17
631.61	43189.91
631.76	43316.29
631.91	43391.19
632.06	43700.14
632.21	43325.66
632.36	43391.19
632.51	43320.98
632.66	43306.93
632.81	42834.14
632.96	43281.19
633.10	42789.67
633.25	42775.63
633.40	42876.27
633.55	43555.03
633.70	43206.29
633.85	42972.24
634.00	42562.64
634.15	42611.79
634.30	42658.60
634.45	43002.66
634.60	42497.11
634.75	42754.57
634.90	42541.58
635.05	43016.71
635.19	42157.73
635.34	42649.24
635.49	42499.45
635.64	42171.77
635.79	42492.43
635.94	42761.59
636.09	42618.81
636.24	42277.10
636.39	41743.45
636.53	42232.63
636.68	42349.65
636.83	42122.62
636.98	42281.78
637.13	41965.81
637.28	42359.02
637.43	42658.60
637.57	42305.18
637.72	42160.07
637.87	42632.86
638.02	42328.59
638.17	42000.91
638.32	41956.44
638.46	41715.37
638.61	42169.43
638.76	42047.72
638.91	41975.17
639.06	41823.03
639.20	41670.90
639.35	42075.81
639.50	42246.67
639.65	42256.03
639.80	41876.86
639.94	42298.16
640.09	41750.48
640.24	41502.38
640.39	41275.35
640.54	41846.44
640.68	41308.11
640.83	41696.64
640.98	41509.40
641.13	41759.84
641.27	41832.39
641.42	41404.08
641.57	41867.50
641.72	41235.56
641.86	40933.63
642.01	41158.32
642.16	41198.11
642.31	40847.03
642.45	41404.08
642.60	41024.91
642.75	41045.97
642.90	41200.45
643.04	41200.45
643.19	41064.70
643.34	41195.77
643.48	41574.94
643.63	41160.66
643.78	40971.08
643.93	41219.17
644.07	40568.51
644.22	40926.61
644.37	40727.66
644.51	40905.54
644.66	40856.39
644.81	41034.27
644.95	41071.72
645.10	40664.47
645.25	40938.31
645.39	40697.24
645.54	40996.82
645.69	40746.39
645.83	40524.04
645.98	40669.15
646.13	40402.33
646.27	40500.63
646.42	39962.31
646.57	40893.84
646.71	40540.42
646.86	40751.07
647.00	40339.13
647.15	39971.67
647.30	40222.11
647.44	40357.86
647.59	40493.61
647.74	40311.05
647.88	40388.28
648.03	39964.65
648.17	40039.54
648.32	39803.15
648.47	39899.11
648.61	39915.50
648.76	39955.29
648.90	40350.84
649.05	40119.12
649.20	40292.32
649.34	40402.33
649.49	40154.23
649.63	40114.44
649.78	39894.43
649.92	40121.46
650.07	40261.90
650.21	40170.61
650.36	40039.54
650.51	39676.76
650.65	40076.99
650.80	40528.72
650.94	40339.13
651.09	40517.01
651.23	39882.73
651.38	39945.92
651.52	39328.02
651.67	39739.96
651.81	39849.96
651.96	39711.87
652.10	39409.94
652.25	39608.89
652.39	39569.10
652.54	39576.12
652.68	39845.28
652.83	39325.68
652.97	39714.21
653.12	39807.83
653.26	39112.69
653.41	39854.64
653.55	39056.52
653.70	39456.75
653.84	39140.78
653.99	39255.46
654.13	39791.45
654.27	39285.89
654.42	39047.16
654.56	38941.83
654.71	39648.68
654.85	39103.33
655.00	39487.18
655.14	39105.67
655.29	38663.31
655.43	38590.75
655.57	38609.48
655.72	38330.95
655.86	38291.16
656.01	38089.88
656.15	38237.33
656.30	37965.83
656.44	38546.28
656.58	38234.99
656.73	37907.32
656.87	37972.85
657.01	37923.70
657.16	37837.10
657.30	38036.05
657.45	37986.89
657.59	37652.20
657.73	37729.44
657.88	37654.54
658.02	38120.31
658.16	38101.58
658.31	38562.67
658.45	38274.78
658.60	38286.48
658.74	38443.30
658.88	38300.53
659.03	38019.66
659.17	38029.02
659.31	37890.93
659.46	37893.27
659.60	37977.53
659.74	38134.35
659.89	38033.71
660.03	37825.40
660.17	37968.17
660.32	37757.52
660.46	37773.91
660.60	37441.55
660.74	37694.33
660.89	37699.01
661.03	37151.32
661.17	37460.27
661.32	36975.78
661.46	37099.83
661.60	37134.94
661.74	37031.96
661.89	37338.57
662.03	37486.02
662.17	36772.16
662.31	36769.82
662.46	36830.67
662.60	36882.16
662.74	36982.80
662.88	36755.77
663.03	36987.49
663.17	36928.97
663.31	36809.61
663.45	37001.53
663.60	36811.95
663.74	36205.75
663.88	36367.24
664.02	36229.15
664.17	36512.36
664.31	35812.54
664.45	36196.38
664.59	36364.90
664.73	36067.66
664.88	36149.57
665.02	36126.17
665.16	35868.71
665.30	36470.23
665.44	36072.34
665.59	36123.83
665.73	35494.22
665.87	35620.61
666.01	35824.24
666.15	35934.24
666.29	35578.48
666.44	35611.25
666.58	35702.53
666.72	35395.92
666.86	35791.47
667.00	35651.04
667.14	35211.02
667.28	35117.40
667.43	34895.05
667.57	35065.91
667.71	35185.27
667.85	35147.82
667.99	34967.60
668.13	34604.82
668.27	35021.44
668.41	35110.38
668.56	34916.11
668.70	34569.71
668.84	34520.56
668.98	34347.36
669.12	34497.16
669.26	34679.72
669.40	34396.51
669.54	34473.75
669.68	34515.88
669.82	34258.42
669.96	34359.06
670.10	34087.56
670.25	34583.76
670.39	34747.59
670.53	33869.89
670.67	34005.64
670.81	34136.71
670.95	34314.59
671.09	33771.59
671.23	34087.56
671.37	33867.55
671.51	33376.04
671.65	33493.07
671.79	33076.45
671.93	32910.27
672.07	33654.56
672.21	33034.32
672.35	33390.08
672.49	32919.63
672.63	33518.81
672.77	33160.71
672.91	33195.82
673.05	32732.39
673.19	32807.29
673.33	32711.33
673.47	32652.81
673.61	32847.08
673.75	32055.98
673.89	32580.26
674.03	32093.43
674.17	32030.23
674.31	31805.54
674.45	31878.10
674.59	32254.92
674.73	32339.18
674.87	32116.83
675.01	31901.50
675.15	32091.09
675.29	31866.39
675.43	32041.93
675.56	31718.94
675.70	31859.37
675.84	31522.34
675.98	30925.50
676.12	31180.62
676.26	31342.11
676.40	31042.53
676.54	31512.97
676.68	30988.69
676.82	30321.64
676.96	30813.15
677.10	30389.52
677.23	31077.63
677.37	30314.62
677.51	30424.62
677.65	30455.05
677.79	30080.56
677.93	30078.22
678.07	30141.42
678.21	29806.72
678.34	29656.93
678.48	29530.54
678.62	30012.69
678.76	29556.28
678.90	29256.70
679.04	29682.67
679.18	29575.01
679.31	29202.86
679.45	29233.29
679.59	28917.32
679.73	29230.95
679.87	28973.49
680.00	28900.94
680.14	28673.90
680.28	28711.35
680.42	28648.16
680.56	28503.04
680.70	28114.52
680.83	28795.61
680.97	28130.90
681.11	28219.84
681.25	27754.07
681.39	27906.21
681.52	27887.48
681.66	28379.00
681.80	27662.79
681.94	27683.86
682.07	27267.24
682.21	27426.40
682.35	27068.30
682.49	27365.54
682.62	27473.21
682.76	26845.94
682.90	26794.45
683.04	27234.47
683.17	27143.19
683.31	26478.48
683.45	26962.97
683.59	26361.45
683.72	26171.87
683.86	26092.29
684.00	26216.34
684.13	26529.97
684.27	26291.24
684.41	26202.30
684.55	25848.88
684.68	25308.21
684.82	25656.95
684.96	25769.30
685.09	25876.96
685.23	25230.98
685.37	25647.59
685.50	25333.96
685.64	25528.22
685.78	25345.66
685.91	25144.38
686.05	25060.12
686.19	24870.53
686.32	25036.71
686.46	24610.73
686.60	24280.72
686.73	24123.90
686.87	23957.72
687.01	23669.84
687.14	24006.87
687.28	23796.23
687.42	23601.96
687.55	23669.84
687.69	23749.42
687.82	23742.39
687.96	23534.09
688.10	23557.49
688.23	23433.44
688.37	23335.14
688.50	23000.44
688.64	22857.67
688.78	22806.18
688.91	22787.46
689.05	23269.61
689.18	22466.80
689.32	22216.36
689.46	22714.90
689.59	22630.64
689.73	22827.24
689.86	22466.80
690.00	22235.09
690.13	22455.10
690.27	22326.37
690.41	22525.32
690.54	21956.57
690.68	21872.31
690.81	21853.58
690.95	21458.03
691.08	21326.96
691.22	21656.98
691.35	21486.12
691.49	21666.34
691.62	21937.84
691.76	21451.01
691.89	21455.69
692.03	21385.47
692.16	21137.38
692.30	21102.27
692.43	20926.73
692.57	20709.06
692.70	20863.54
692.84	20854.17
692.97	20442.24
693.11	20706.72
693.24	20339.26
693.38	20390.75
693.51	20386.07
693.65	20156.69
693.78	20255.00
693.92	19896.89
694.05	20184.78
694.19	19805.61
694.32	19751.78
694.45	19960.09
694.59	19847.74
694.72	19494.32
694.86	19756.46
694.99	19161.97
695.13	19058.98
695.26	19030.90
695.39	18927.91
695.53	18913.87
695.66	19300.06
695.80	18787.48
695.93	18853.02
696.07	18558.11
696.20	18792.16
696.33	18745.35
696.47	18581.51
696.60	18420.02
696.73	18609.60
696.87	18436.40
697.00	18328.74
697.14	18368.52
697.27	18185.96
697.40	18490.23
697.54	17944.89
697.67	17884.03
697.80	17975.31
697.94	17846.58
698.07	17834.88
698.21	17448.69
698.34	17713.17
698.47	17579.76
698.61	17242.73
698.74	17195.92
698.87	16922.07
699.01	16957.18
699.14	17034.42
699.27	17130.38
699.40	17160.81
699.54	16659.93
699.67	16615.46
699.80	16865.90
699.94	16791.00
700.07	16629.51
700.20	16212.89
700.34	16472.69
700.47	16219.91
700.60	16505.46
700.73	16423.54
700.87	16051.39
701.00	16051.39
701.13	16112.25
701.26	15831.38
701.40	16128.63
701.53	15927.35
701.66	15782.23
701.79	15559.88
701.93	15501.37
702.06	15372.64
702.19	15262.63
702.32	15541.16
702.46	15391.36
702.59	15321.15
702.72	15293.06
702.85	15410.09
702.99	15023.90
703.12	15012.20
703.25	15108.16
703.38	14890.49
703.51	14822.61
703.65	14820.27
703.78	14813.25
703.91	14569.83
704.04	14513.66
704.17	14492.60
704.31	14380.25
704.44	13984.70
704.57	14218.75
704.70	14265.57
704.83	14281.95
704.96	14258.54
705.10	14073.64
705.23	14225.78
>>>>>End Processed Spectral Data<<<<<
