SpectraSuite Data File
++++++++++++++++++++++++++++++++++++
Date: Fri Oct 25 11:33:32 EDT 2013
User: price-jones
Dark Spectrum Present: No
Reference Spectrum Present: No
Number of Sampled Component Spectra: 1
Spectrometers: USB2+H05261
Integration Time (usec): 100000 (USB2+H05261)
Spectra Averaged: 1 (USB2+H05261)
Boxcar Smoothing: 0 (USB2+H05261)
Correct for Electrical Dark: No (USB2+H05261)
Strobe/Lamp Enabled: No (USB2+H05261)
Correct for Detector Non-linearity: No (USB2+H05261)
Correct for Stray Light: No (USB2+H05261)
Number of Pixels in Processed Spectrum: 2048
>>>>>Begin Processed Spectral Data<<<<<
365.73	320.65
365.92	320.65
366.12	320.65
366.32	220.01
366.52	187.24
366.72	215.33
366.91	156.82
367.11	266.82
367.31	180.22
367.51	159.16
367.70	170.86
367.90	191.92
368.10	187.24
368.30	147.45
368.49	149.79
368.69	224.69
368.89	152.13
369.09	114.69
369.28	196.60
369.48	156.82
369.68	220.01
369.87	203.63
370.07	196.60
370.27	250.44
370.47	327.68
370.66	496.19
370.86	505.56
371.06	524.28
371.25	582.79
371.45	500.87
371.65	552.37
371.84	475.13
372.04	505.56
372.24	552.37
372.44	657.69
372.63	617.90
372.83	528.96
373.03	648.33
373.22	585.13
373.42	594.50
373.62	615.56
373.81	634.29
374.01	692.80
374.21	653.01
374.40	617.90
374.60	734.93
374.79	641.31
374.99	716.20
375.19	669.39
375.38	667.05
375.58	678.76
375.78	643.65
375.97	615.56
376.17	695.14
376.37	709.18
376.56	688.12
376.76	716.20
376.95	634.29
377.15	755.99
377.35	681.10
377.54	746.63
377.74	613.22
377.93	718.54
378.13	695.14
378.33	727.91
378.52	695.14
378.72	706.84
378.91	772.38
379.11	681.10
379.31	727.91
379.50	645.99
379.70	690.46
379.89	690.46
380.09	641.31
380.28	678.76
380.48	695.14
380.68	767.70
380.87	718.54
381.07	753.65
381.26	758.33
381.46	763.01
381.65	758.33
381.85	741.95
382.04	758.33
382.24	774.72
382.43	730.25
382.63	748.97
382.83	788.76
383.02	844.93
383.22	816.85
383.41	753.65
383.61	821.53
383.80	856.64
384.00	725.57
384.19	842.59
384.39	758.33
384.58	791.10
384.78	915.15
384.97	856.64
385.17	901.11
385.36	891.74
385.56	828.55
385.75	828.55
385.95	971.32
386.14	950.26
386.34	802.80
386.53	901.11
386.72	858.98
386.92	877.70
387.11	889.40
387.31	903.45
387.50	936.21
387.70	919.83
387.89	823.87
388.09	908.13
388.28	894.08
388.48	896.43
388.67	861.32
388.86	980.68
389.06	950.26
389.25	959.62
389.45	959.62
389.64	945.58
389.84	1027.50
390.03	978.34
390.22	1008.77
390.42	1022.81
390.61	915.15
390.81	1001.75
391.00	971.32
391.19	1015.79
391.39	1053.24
391.58	1001.75
391.78	873.02
391.97	950.26
392.16	1039.20
392.36	1081.33
392.55	990.05
392.75	1029.84
392.94	1015.79
393.13	1062.60
393.33	973.66
393.52	1100.05
393.71	1093.03
393.91	1095.37
394.10	1043.88
394.29	1069.62
394.49	1135.16
394.68	1018.13
394.88	1116.44
395.07	1144.52
395.26	1118.78
395.46	1146.86
395.65	1123.46
395.84	1219.42
396.04	1231.12
396.23	1198.35
396.42	1151.54
396.62	1196.01
396.81	1287.29
397.00	1132.82
397.19	1320.06
397.39	1214.74
397.58	1165.59
397.77	1198.35
397.97	1266.23
398.16	1249.85
398.35	1287.29
398.55	1247.51
398.74	1301.34
398.93	1245.16
399.12	1399.64
399.32	1280.27
399.51	1270.91
399.70	1401.98
399.90	1320.06
400.09	1310.70
400.28	1460.49
400.47	1296.66
400.67	1338.79
400.86	1423.05
401.05	1420.71
401.24	1366.87
401.44	1397.30
401.63	1401.98
401.82	1413.68
402.01	1432.41
402.21	1378.58
402.40	1483.90
402.59	1533.05
402.78	1458.15
402.97	1448.79
403.17	1528.37
403.36	1528.37
403.55	1514.33
403.74	1575.18
403.93	1570.50
404.13	1565.82
404.32	1540.07
404.51	1617.31
404.70	1636.03
404.89	1633.69
405.09	1661.78
405.28	1699.23
405.47	1600.93
405.66	1736.68
405.85	1619.65
406.05	1722.63
406.24	1753.06
406.43	1769.44
406.62	1792.85
406.81	1921.58
407.00	1715.61
407.20	1722.63
407.39	1797.53
407.58	1849.02
407.77	1860.73
407.96	1774.13
408.15	1877.11
408.34	1851.36
408.54	1837.32
408.73	1942.64
408.92	1970.73
409.11	1912.22
409.30	1923.92
409.49	1942.64
409.68	2052.65
409.87	1923.92
410.07	2073.71
410.26	2127.55
410.45	2132.23
410.64	2083.08
410.83	2209.47
411.02	2078.40
411.21	2153.29
411.40	2169.68
411.59	2246.91
411.78	2167.34
411.98	2221.17
412.17	2155.63
412.36	2235.21
412.55	2270.32
412.74	2373.30
412.93	2340.54
413.12	2340.54
413.31	2448.20
413.50	2307.77
413.69	2415.43
413.88	2431.82
414.07	2448.20
414.26	2434.16
414.45	2462.24
414.64	2562.89
414.83	2518.42
415.02	2534.80
415.22	2630.76
415.41	2642.46
415.60	2754.81
415.79	2647.15
415.98	2815.66
416.17	2773.53
416.36	2719.70
416.55	2696.30
416.74	2825.03
416.93	2778.22
417.12	2803.96
417.31	2853.11
417.50	2911.63
417.69	2956.10
417.88	2904.60
418.07	2970.14
418.26	2953.76
418.45	2988.86
418.64	3115.25
418.83	3133.98
419.02	3040.36
419.21	3194.83
419.39	3047.38
419.58	3068.44
419.77	3101.21
419.96	3155.04
420.15	3131.64
420.34	3225.26
420.53	3105.89
420.72	3290.79
420.91	3148.02
421.10	3351.65
421.29	3356.33
421.48	3234.62
421.67	3260.37
421.86	3246.32
422.05	3335.26
422.24	3335.26
422.43	3332.92
422.61	3396.12
422.80	3365.69
422.99	3304.84
423.18	3346.97
423.37	3461.65
423.56	3375.05
423.75	3386.76
423.94	3330.58
424.13	3339.94
424.32	3246.32
424.50	3492.08
424.69	3536.55
424.88	3480.38
425.07	3375.05
425.26	3410.16
425.45	3382.07
425.64	3440.59
425.83	3351.65
426.01	3356.33
426.20	3494.42
426.39	3433.57
426.58	3475.70
426.77	3574.00
426.96	3489.74
427.15	3651.24
427.33	3665.28
427.52	3524.85
427.71	3700.39
427.90	3545.91
428.09	3623.15
428.28	3857.20
428.46	3751.88
428.65	3676.98
428.84	3819.75
429.03	3770.60
429.22	3705.07
429.40	3819.75
429.59	3686.34
429.78	3719.11
429.97	3569.32
430.16	3749.54
430.34	3852.52
430.53	3899.33
430.72	3875.93
430.91	3861.88
431.10	3943.80
431.28	4051.47
431.47	3964.87
431.66	3983.59
431.85	3943.80
432.03	4014.02
432.22	4255.09
432.41	4196.58
432.60	3941.46
432.79	4028.06
432.97	3955.51
433.16	4032.74
433.35	4093.60
433.54	4259.78
433.72	4124.02
433.91	4175.52
434.10	4170.83
434.28	4161.47
434.47	4259.78
434.66	4079.55
434.85	4196.58
435.03	4259.78
435.22	4306.59
435.41	4435.32
435.59	4346.37
435.78	4381.48
435.97	4372.12
436.16	4418.93
436.34	4442.34
436.53	4454.04
436.72	4631.92
436.90	4407.23
437.09	4554.68
437.28	4428.29
437.46	4500.85
437.65	4620.22
437.84	4603.83
438.02	4587.45
438.21	4538.30
438.40	4568.73
438.58	4706.82
438.77	4786.40
438.96	4744.27
439.14	4856.61
439.33	4847.25
439.52	4887.04
439.70	5107.05
439.89	4835.55
440.08	5046.20
440.26	5011.09
440.45	5167.90
440.63	5083.64
440.82	5135.14
441.01	5135.14
441.19	5200.67
441.38	5153.86
441.57	5200.67
441.75	5313.02
441.94	5390.25
442.12	5430.04
442.31	5416.00
442.50	5355.15
442.68	5561.11
442.87	5434.72
443.05	5418.34
443.24	5537.71
443.43	5554.09
443.61	5448.77
443.80	5753.04
443.98	5472.17
444.17	5296.63
444.35	5537.71
444.54	5699.20
444.73	5867.72
444.91	5724.95
445.10	5701.54
445.28	5638.35
445.47	5600.90
445.65	5746.02
445.84	5706.23
446.02	5790.49
446.21	5685.16
446.39	5816.23
446.58	5652.39
446.77	5951.98
446.95	5605.58
447.14	5755.38
447.32	5792.83
447.51	5851.34
447.69	5720.27
447.88	5701.54
448.06	5774.10
448.25	5671.12
448.43	5830.27
448.62	5715.59
448.80	5825.59
448.99	5935.60
449.17	6080.71
449.36	6008.16
449.54	5956.66
449.73	6162.63
449.91	6015.18
450.10	5966.03
450.28	6129.86
450.46	6136.88
450.65	6209.44
450.83	6174.33
451.02	6232.85
451.20	6113.48
451.39	6216.46
451.57	6148.59
451.76	6251.57
451.94	6242.21
452.13	6193.06
452.31	6377.96
452.49	6251.57
452.68	6232.85
452.86	6326.47
453.05	6497.33
453.23	6209.44
453.42	6387.32
453.60	6279.66
453.78	6347.53
453.97	6349.87
454.15	6267.95
454.34	6300.72
454.52	6504.35
454.70	6483.28
454.89	6513.71
455.07	6630.74
455.26	6586.27
455.44	6729.04
455.62	6616.69
455.81	6733.72
455.99	6693.93
456.17	6789.89
456.36	6932.67
456.54	6803.94
456.73	6853.09
456.91	7026.29
457.09	7096.50
457.28	7166.72
457.46	6967.77
457.64	7136.29
457.83	7059.06
458.01	6988.84
458.19	7026.29
458.38	7314.17
458.56	7152.68
458.74	7311.83
458.93	7169.06
459.11	7131.61
459.29	7400.77
459.48	7314.17
459.66	7272.04
459.84	7363.33
460.03	7372.69
460.21	7482.69
460.39	7360.98
460.57	7206.51
460.76	7501.42
460.94	7714.41
461.12	7522.48
461.31	7461.63
461.49	7566.95
461.67	7489.71
461.85	7763.56
462.04	7552.91
462.22	8060.80
462.40	7665.25
462.59	7815.05
462.77	7669.94
462.95	7494.40
463.13	7630.15
463.32	7819.73
463.50	7939.10
463.68	7857.18
463.86	7964.84
464.05	7817.39
464.23	7824.41
464.41	7903.99
464.59	7857.18
464.78	8025.70
464.96	8046.76
465.14	7950.80
465.32	8035.06
465.50	8245.71
465.69	7976.55
465.87	8198.90
466.05	8145.06
466.23	7950.80
466.41	8336.99
466.60	8461.04
466.78	8229.32
466.96	8215.28
467.14	8390.82
467.32	8269.11
467.51	8219.96
467.69	8367.42
467.87	8355.71
468.05	8463.38
468.23	8304.22
468.41	8395.50
468.60	8622.53
468.78	8489.12
468.96	8388.48
469.14	8566.36
469.32	8692.75
469.50	8507.85
469.69	8915.10
469.87	8753.60
470.05	8346.35
470.23	8819.14
470.41	8861.27
470.59	8938.51
470.77	8769.99
470.95	9074.26
471.14	9128.09
471.32	8753.60
471.50	9062.55
471.68	9107.02
471.86	8936.17
472.04	9263.84
472.22	9249.80
472.40	9146.81
472.58	9184.26
472.77	8964.25
472.95	9460.45
473.13	9551.73
473.31	9231.07
473.49	9645.35
473.67	9460.45
473.85	9542.36
474.03	9652.37
474.21	9692.16
474.39	9783.44
474.57	9884.08
474.75	9966.00
474.93	10132.18
475.12	9912.17
475.30	9753.01
475.48	9933.23
475.66	10296.02
475.84	10019.83
476.02	10228.14
476.20	10263.25
476.38	10331.12
476.56	10574.54
476.74	10537.09
476.92	10574.54
477.10	10511.35
477.28	10588.58
477.46	10726.68
477.64	11002.86
477.82	10995.84
478.00	11330.53
478.18	10995.84
478.36	11023.92
478.54	11133.93
478.72	11494.37
478.90	11248.61
479.08	11791.62
479.26	11833.75
479.44	11627.78
479.62	11829.07
479.80	11798.64
479.98	12023.33
480.16	12177.81
480.34	12121.63
480.52	12500.80
480.70	12283.13
480.88	12020.99
481.06	12273.77
481.24	12269.09
481.41	12666.98
481.59	12741.88
481.77	12849.54
481.95	12889.33
482.13	13097.64
482.31	12908.05
482.49	13263.82
482.67	13551.70
482.85	13432.33
483.03	13706.18
483.21	13853.63
483.39	13884.06
483.57	13888.74
483.74	14040.87
483.92	14335.78
484.10	13865.33
484.28	14590.90
484.46	14656.43
484.64	14719.63
484.82	14274.93
485.00	14768.78
485.18	14925.60
485.35	14981.77
485.53	15117.52
485.71	15103.48
485.89	15482.64
486.07	15438.17
486.25	15428.81
486.43	15679.25
486.61	15861.81
486.78	16013.95
486.96	15585.63
487.14	16161.40
487.32	15922.66
487.50	16493.76
487.68	16489.07
487.85	16533.54
488.03	16826.11
488.21	16800.37
488.39	17137.40
488.57	17015.69
488.75	17015.69
488.92	17369.12
489.10	17788.07
489.28	17390.18
489.46	17851.27
489.64	17774.03
489.81	18230.43
489.99	18349.80
490.17	17806.80
490.35	18045.53
490.53	18305.33
490.70	18881.10
490.88	18740.67
491.06	18951.32
491.24	18977.06
491.41	19143.24
491.59	19491.98
491.77	19126.86
491.95	19370.27
492.13	19625.39
492.30	19601.99
492.48	19817.32
492.66	19861.79
492.84	20081.80
493.01	20238.61
493.19	19990.52
493.37	20306.49
493.54	20596.71
493.72	20613.10
493.90	20652.89
494.08	21062.48
494.25	20959.50
494.43	20802.68
494.61	21378.45
494.79	21139.72
494.96	21238.02
495.14	21383.13
495.32	21659.32
495.49	21797.41
495.67	22113.38
495.85	22008.06
496.02	22040.82
496.20	22309.99
496.38	22700.86
496.55	22539.36
496.73	23068.32
496.91	22391.91
497.09	23033.21
497.26	23164.28
497.44	22862.35
497.62	23061.30
497.79	23421.74
497.97	22998.10
498.14	23880.49
498.32	24006.87
498.50	23730.69
498.67	24130.92
498.85	23836.02
499.03	23878.15
499.20	23941.34
499.38	24067.73
499.56	24432.85
499.73	24769.89
499.91	24563.92
500.08	24826.06
500.26	24812.02
500.44	24802.66
500.61	25046.07
500.79	24746.48
500.97	24828.40
501.14	25174.80
501.32	25245.02
501.49	25174.80
501.67	25673.34
501.84	25837.17
502.02	25177.14
502.20	25591.42
502.37	25420.56
502.55	25614.82
502.72	25731.85
502.90	25958.88
503.07	25874.62
503.25	26047.82
503.43	26075.91
503.60	26307.62
503.78	26565.08
503.95	26277.19
504.13	26457.42
504.30	26799.13
504.48	26724.24
504.65	26822.54
504.83	27323.41
505.01	27461.51
505.18	26930.20
505.36	27435.76
505.53	27054.25
505.71	27555.13
505.88	27386.61
506.06	27182.98
506.23	27655.77
506.41	27400.65
506.58	27725.99
506.76	27585.55
506.93	28388.36
507.11	28133.24
507.28	28224.52
507.46	28268.99
507.63	28142.60
507.81	28371.97
507.98	28210.48
508.16	28336.87
508.33	28561.56
508.50	28510.07
508.68	28559.22
508.85	28709.01
509.03	29312.87
509.20	28903.28
509.38	29259.04
509.55	29167.76
509.73	29420.53
509.90	29654.59
510.08	29425.22
510.25	29401.81
510.42	29902.68
510.60	29764.59
510.77	30169.51
510.95	30057.16
511.12	30031.41
511.30	30134.40
511.47	30036.09
511.64	30197.59
511.82	30431.65
511.99	30747.62
512.17	30438.67
512.34	30272.49
512.51	30726.55
512.69	31178.28
512.86	30934.86
513.04	30864.64
513.21	30913.80
513.38	31440.42
513.56	31140.83
513.73	31072.95
513.90	31161.89
514.08	30993.37
514.25	31388.92
514.43	31578.51
514.60	31737.66
514.77	31655.75
514.95	31480.21
515.12	31604.25
515.29	31842.99
515.47	32128.53
515.64	31967.04
515.81	31941.29
515.99	32158.96
516.16	32371.95
516.33	32446.85
516.51	32573.24
516.68	32496.00
516.85	32336.84
517.03	32826.01
517.20	32802.61
517.37	32926.66
517.54	32823.67
517.72	32601.32
517.89	32524.08
518.06	33469.66
518.24	32877.51
518.41	33076.45
518.58	33209.86
518.75	33696.69
518.93	33214.54
519.10	33343.27
519.27	33371.36
519.45	33462.64
519.62	33905.00
519.79	33876.91
519.96	33860.53
520.14	34314.59
520.31	34045.43
520.48	34363.75
520.65	33921.38
520.83	34300.55
521.00	34534.60
521.17	34335.66
521.34	34480.77
521.52	34508.86
521.69	34597.80
521.86	34431.62
522.03	34696.10
522.20	34988.67
522.38	35428.69
522.55	35063.57
522.72	34686.74
522.89	35292.94
523.07	35412.31
523.24	35606.57
523.41	35377.20
523.58	35419.33
523.75	35463.80
523.92	34955.90
524.10	35700.19
524.27	35426.35
524.44	35491.88
524.61	35416.99
524.78	35955.31
524.96	35957.65
525.13	36275.96
525.30	36074.68
525.47	36217.45
525.64	36077.02
525.81	36252.56
525.98	36645.77
526.16	35901.48
526.33	36318.09
526.50	36498.31
526.67	36580.23
526.84	36421.08
527.01	36322.77
527.18	36582.57
527.36	37043.66
527.53	36708.96
527.70	37174.73
527.87	37060.04
528.04	37043.66
528.21	37177.07
528.38	36671.51
528.55	37148.98
528.72	37125.58
528.89	37535.17
529.07	36889.18
529.24	37549.21
529.41	37589.00
529.58	37518.79
529.75	37343.25
529.92	37663.90
530.09	37579.64
530.26	37902.64
530.43	38061.79
530.60	37593.68
530.77	37893.27
530.94	38281.80
531.11	37827.74
531.28	37872.21
531.46	38139.03
531.63	38155.41
531.80	38153.07
531.97	38597.77
532.14	38139.03
532.31	38396.49
532.48	38543.94
532.65	38801.40
532.82	38778.00
532.99	38607.14
533.16	38197.54
533.33	39316.32
533.50	38920.77
533.67	38667.99
533.84	38478.41
534.01	39295.25
534.18	39248.44
534.35	39323.34
534.52	39065.88
534.69	39758.68
534.86	39407.60
535.03	39199.29
535.20	39346.75
535.37	39459.09
535.54	39562.08
535.71	39548.03
535.88	39627.61
536.05	39398.24
536.22	39903.79
536.38	39828.90
536.55	39550.37
536.72	39866.34
536.89	39962.31
537.06	40002.10
537.23	40374.24
537.40	39693.15
537.57	39936.56
537.74	39847.62
537.91	40631.70
538.08	40610.64
538.25	39978.69
538.42	40224.45
538.59	40250.19
538.75	40044.23
538.92	40488.93
539.09	40659.79
539.26	40589.57
539.43	40390.62
539.60	40971.08
539.77	40577.87
539.94	41265.99
540.11	40816.60
540.28	41053.00
540.44	40783.83
540.61	40570.85
540.78	41031.93
540.95	40830.65
541.12	40498.29
541.29	40825.96
541.46	40776.81
541.62	41198.11
541.79	41303.43
541.96	41010.87
542.13	40823.62
542.30	41273.01
542.47	41036.61
542.63	41214.49
542.80	41546.85
542.97	41832.39
543.14	41808.99
543.31	41867.50
543.48	41605.36
543.64	42253.69
543.81	41965.81
543.98	41825.37
544.15	42267.73
544.32	42408.17
544.48	42920.74
544.65	42155.39
544.82	42595.41
544.99	41923.68
545.16	42766.27
545.32	42588.39
545.49	42569.66
545.66	42918.40
545.83	42387.10
546.00	42937.13
546.16	42644.56
546.33	42646.90
546.50	42672.65
546.67	42792.01
546.83	42101.56
547.00	42759.25
547.17	42724.14
547.34	42728.82
547.50	43030.75
547.67	43365.45
547.84	43044.79
548.00	43154.80
548.17	43473.11
548.34	43452.05
548.51	43477.79
548.67	43297.57
548.84	43274.16
549.01	43313.95
549.18	43543.33
549.34	43552.69
549.51	43650.99
549.68	43143.09
549.84	43599.50
550.01	43669.72
550.18	43421.62
550.34	43604.18
550.51	43934.20
550.68	44016.11
550.84	43292.89
551.01	43957.60
551.18	43704.82
551.34	43482.47
551.51	44039.52
551.68	44013.77
551.84	43566.73
552.01	43611.20
552.18	44215.06
552.34	43690.78
552.51	43950.58
552.68	43746.95
552.84	44144.84
553.01	43988.03
553.18	44350.81
553.34	44116.76
553.51	44240.81
553.67	44196.34
553.84	44458.48
554.01	44545.08
554.17	44350.81
554.34	44531.03
554.51	44603.59
554.67	44720.62
554.84	44699.55
555.00	44552.10
555.17	44676.15
555.33	44907.86
555.50	44570.82
555.67	44863.39
555.83	44811.90
556.00	44582.52
556.16	44907.86
556.33	44783.81
556.50	44598.91
556.66	44734.66
556.83	44519.33
556.99	45167.66
557.16	45085.74
557.32	45165.32
557.49	45361.92
557.65	45141.91
557.82	44931.26
557.98	44701.89
558.15	45366.60
558.32	45219.15
558.48	45263.62
558.65	45113.83
558.81	45663.85
558.98	45504.70
559.14	45591.30
559.31	45216.81
559.47	45258.94
559.64	45614.70
559.80	45219.15
559.97	45670.87
560.13	45296.39
560.30	45551.51
560.46	45705.98
560.63	45638.11
560.79	45406.39
560.96	46017.27
561.12	45731.73
561.29	45642.79
561.45	45570.23
561.61	45867.48
561.78	45469.59
561.94	45642.79
562.11	45397.03
562.27	45565.55
562.44	46012.59
562.60	45982.16
562.77	46054.72
562.93	45511.72
563.10	46071.10
563.26	45797.26
563.42	46295.80
563.59	45844.07
563.75	45872.16
563.92	45759.81
564.08	45394.69
564.24	46071.10
564.41	45947.06
564.57	46153.02
564.74	45858.12
564.90	45865.14
565.07	46195.15
565.23	46073.45
565.39	46010.25
565.56	46347.29
565.72	46260.69
565.88	46391.76
566.05	46232.60
566.21	46321.54
566.38	45963.44
566.54	46211.54
566.70	46319.20
566.87	46382.40
567.03	45830.03
567.19	46808.37
567.36	46408.14
567.52	46377.72
567.68	47033.07
567.85	46513.47
568.01	46698.37
568.17	46852.84
568.34	46703.05
568.50	46415.16
568.66	46529.85
568.83	46855.18
568.99	46810.71
569.15	46461.97
569.32	46600.07
569.48	46433.89
569.64	47075.19
569.81	46667.94
569.97	46955.83
570.13	46969.87
570.30	46361.33
570.46	46560.28
570.62	46808.37
570.78	46513.47
570.95	46539.21
571.11	46944.12
571.27	46693.69
571.43	46726.46
571.60	46791.99
571.76	46756.88
571.92	46569.64
572.09	46791.99
572.25	46583.68
572.41	46782.63
572.57	46780.29
572.74	47232.01
572.90	46724.11
573.06	47281.16
573.22	46965.19
573.38	47035.41
573.55	47234.35
573.71	47304.57
573.87	47023.70
574.03	46822.42
574.20	47576.07
574.36	47262.44
574.52	46944.12
574.68	47208.61
574.84	47337.33
575.01	47547.98
575.17	47044.77
575.33	47044.77
575.49	46883.27
575.65	46761.56
575.82	47152.43
575.98	46993.28
576.14	47503.51
576.30	47110.30
576.46	47215.63
576.62	47278.82
576.79	47292.86
576.95	46557.94
577.11	47391.17
577.27	47002.64
577.43	46944.12
577.59	47100.94
577.75	47236.69
577.92	46768.58
578.08	46916.04
578.24	47210.95
578.40	47180.52
578.56	47262.44
578.72	47084.56
578.88	47306.91
579.04	47072.85
579.21	47414.57
579.37	46986.25
579.53	47496.49
579.69	47117.32
579.85	47164.14
580.01	47206.26
580.17	47037.75
580.33	47758.63
580.49	47164.14
580.65	47084.56
580.82	47185.20
580.98	47150.09
581.14	47070.51
581.30	47070.51
581.46	46969.87
581.62	47157.11
581.78	47260.10
581.94	47622.88
582.10	47107.96
582.26	47686.07
582.42	47433.30
582.58	47051.79
582.74	47826.51
582.90	47222.65
583.06	47660.33
583.22	46972.21
583.38	47175.84
583.54	47540.96
583.70	47505.85
583.86	47342.02
584.02	47583.09
584.18	47239.03
584.34	47426.28
584.50	47564.37
584.66	47468.40
584.82	47693.10
584.98	48034.81
585.14	47831.19
585.30	47683.73
585.46	47290.52
585.62	47194.56
585.78	47459.04
585.94	47194.56
586.10	47278.82
586.26	47412.23
586.42	47224.99
586.58	47714.16
586.74	47140.73
586.90	47089.24
587.06	47496.49
587.22	47505.85
587.38	47110.30
587.54	47402.87
587.70	47739.91
587.86	47796.08
588.02	47285.84
588.18	47290.52
588.34	47388.83
588.49	47498.83
588.65	47466.06
588.81	47655.65
588.97	47543.30
589.13	47730.54
589.29	47922.47
589.45	47749.27
589.61	47599.47
589.77	47791.40
589.93	47938.85
590.08	47697.78
590.24	47875.66
590.40	48226.74
590.56	48076.94
590.72	47796.08
590.88	48133.12
591.04	47927.15
591.20	47770.33
591.35	48090.99
591.51	48329.72
591.67	47917.79
591.83	48128.44
591.99	47817.14
592.15	47601.82
592.31	47924.81
592.46	47819.49
592.62	48037.16
592.78	47913.11
592.94	48287.59
593.10	48044.18
593.26	48215.04
593.41	48378.87
593.57	48594.20
593.73	47693.10
593.89	48299.30
594.05	48577.82
594.20	48397.60
594.36	48664.42
594.52	48339.08
594.68	48137.80
594.84	47934.17
594.99	48776.76
595.15	48065.24
595.31	48655.06
595.47	47971.62
595.62	48275.89
595.78	48334.40
595.94	48278.23
596.10	48186.95
596.25	48311.00
596.41	48254.82
596.57	48467.81
596.73	48320.36
596.88	48315.68
597.04	48301.64
597.20	48467.81
597.36	48336.74
597.51	48446.75
597.67	48315.68
597.83	48217.38
597.99	48416.32
598.14	48023.11
598.30	48186.95
598.46	48023.11
598.61	48013.75
598.77	47913.11
598.93	48552.07
599.09	48280.57
599.24	48350.79
599.40	48285.25
599.56	48432.71
599.71	48355.47
599.87	49020.18
600.03	48605.91
600.18	47976.30
600.34	48446.75
600.50	48390.58
600.65	47997.37
600.81	48727.61
600.97	48676.12
601.12	48472.49
601.28	48137.80
601.44	48535.69
601.59	48210.35
601.75	48467.81
601.91	48439.73
602.06	48526.33
602.22	48416.32
602.37	48371.85
602.53	48851.66
602.69	48774.42
602.84	48233.76
603.00	48329.72
603.16	48638.67
603.31	48039.50
603.47	48453.77
603.62	48594.20
603.78	48467.81
603.94	48488.88
604.09	48748.68
604.25	47964.60
604.40	48268.87
604.56	48193.97
604.71	48554.41
604.87	48254.82
605.03	48294.61
605.18	47870.98
605.34	48552.07
605.49	48149.50
605.65	48184.61
605.80	47856.93
605.96	48301.64
606.12	48205.67
606.27	48498.24
606.43	48130.78
606.58	48292.27
606.74	48596.54
606.89	48261.85
607.05	48430.36
607.20	48715.91
607.36	48636.33
607.51	48458.45
607.67	48266.53
607.82	48112.05
607.98	48161.20
608.13	48673.78
608.29	48058.22
608.44	48313.34
608.60	48100.35
608.75	48156.52
608.91	47814.80
609.06	47807.78
609.22	48526.33
609.37	48236.10
609.53	48320.36
609.68	48315.68
609.84	47807.78
609.99	48261.85
610.15	48074.60
610.30	48374.19
610.46	47711.82
610.61	48105.03
610.76	48589.52
610.92	47955.24
611.07	47646.29
611.23	47730.54
611.38	47718.84
611.54	48062.90
611.69	48055.88
611.84	48247.80
612.00	47742.25
612.15	47674.37
612.31	48238.44
612.46	47470.75
612.62	47697.78
612.77	47878.00
612.92	48210.35
613.08	47945.87
613.23	47765.65
613.39	47646.29
613.54	47145.41
613.69	47927.15
613.85	47463.72
614.00	47573.73
614.15	48046.52
614.31	47660.33
614.46	47873.32
614.62	47749.27
614.77	47786.72
614.92	47349.04
615.08	47636.92
615.23	47772.67
615.38	47833.53
615.54	47562.03
615.69	47571.39
615.84	47779.70
616.00	47723.52
616.15	47632.24
616.30	47805.44
616.46	47725.86
616.61	47533.94
616.76	47749.27
616.92	47416.91
617.07	47482.45
617.22	47185.20
617.37	47290.52
617.53	47119.66
617.68	47363.08
617.83	47262.44
617.99	47508.19
618.14	47569.05
618.29	47262.44
618.45	47189.88
618.60	47271.80
618.75	46351.97
618.90	46803.69
619.06	47051.79
619.21	47122.01
619.36	47260.10
619.51	47173.50
619.67	46642.20
619.82	46913.70
619.97	47501.17
620.12	47412.23
620.28	47093.92
620.43	47356.06
620.58	47325.63
620.73	47133.71
620.89	47129.03
621.04	47255.42
621.19	47540.96
621.34	46756.88
621.49	47004.98
621.65	46749.86
621.80	47016.68
621.95	47014.34
622.10	46824.76
622.25	46848.16
622.41	47016.68
622.56	46485.38
622.71	46712.41
622.86	47058.81
623.01	46731.14
623.16	46677.30
623.32	46621.13
623.47	46850.50
623.62	46396.44
623.77	46653.90
623.92	46632.83
624.07	46433.89
624.23	46937.10
624.38	46925.40
624.53	46679.64
624.68	46454.95
624.83	46389.42
624.98	46777.95
625.13	45818.33
625.29	46281.75
625.44	46550.91
625.59	46314.52
625.74	46569.64
625.89	46263.03
626.04	46071.10
626.19	45869.82
626.34	45766.84
626.49	45921.31
626.65	45631.08
626.80	45815.99
626.95	45918.97
627.10	45610.02
627.25	46153.02
627.40	46000.89
627.55	45825.35
627.70	46019.61
627.85	46375.37
628.00	46426.87
628.15	46330.90
628.30	45546.82
628.45	45654.49
628.60	45638.11
628.76	45834.71
628.91	45165.32
629.06	45127.87
629.21	45546.82
629.36	45256.60
629.51	45691.94
629.66	45661.51
629.81	45659.17
629.96	45495.33
630.11	45820.67
630.26	45450.86
630.41	45661.51
630.56	45539.80
630.71	45792.58
630.86	45464.91
631.01	45488.31
631.16	45235.53
631.31	45462.57
631.46	44938.29
631.61	45345.54
631.76	45539.80
631.91	45532.78
632.06	45703.64
632.21	45703.64
632.36	45415.76
632.51	44832.96
632.66	45106.80
632.81	44870.41
632.96	45436.82
633.10	45102.12
633.25	45230.85
633.40	45221.49
633.55	45137.23
633.70	45027.23
633.85	44828.28
634.00	44697.21
634.15	44814.24
634.30	44753.38
634.45	44856.37
634.60	45027.23
634.75	44790.83
634.90	45174.68
635.05	44926.58
635.19	45289.37
635.34	44341.45
635.49	44411.67
635.64	44957.01
635.79	45106.80
635.94	44842.32
636.09	45200.43
636.24	44772.11
636.39	44741.68
636.53	44741.68
636.68	44505.29
636.83	44313.36
636.98	44144.84
637.13	44294.64
637.28	44215.06
637.43	44294.64
637.57	44563.80
637.72	44282.94
637.87	44357.83
638.02	44069.95
638.17	44395.28
638.32	44179.95
638.46	43901.43
638.61	44362.51
638.76	43782.06
638.91	44186.97
639.06	43723.55
639.20	43929.51
639.35	44142.50
639.50	43756.32
639.65	43955.26
639.80	44261.87
639.94	43782.06
640.09	44072.29
640.24	44254.85
640.39	43615.88
640.54	43562.05
640.68	43906.11
640.83	43653.33
640.98	43704.82
641.13	43501.20
641.27	44161.23
641.42	44032.50
641.57	43440.34
641.72	43599.50
641.86	43892.07
642.01	43456.73
642.16	43463.75
642.31	43271.82
642.45	43510.56
642.60	43124.37
642.75	43423.96
642.90	44020.80
643.04	43531.62
643.19	43533.96
643.34	43210.97
643.48	42953.51
643.63	43250.76
643.78	43391.19
643.93	43342.04
644.07	43482.47
644.22	43281.19
644.37	43325.66
644.51	43374.81
644.66	43201.61
644.81	43391.19
644.95	43351.40
645.10	43400.55
645.25	42696.05
645.39	42843.51
645.54	42997.98
645.69	42600.09
645.83	42635.20
645.98	43143.09
646.13	42806.06
646.27	42799.04
646.42	42581.37
646.57	42773.29
646.71	43438.00
646.86	42859.89
647.00	43264.80
647.15	43026.07
647.30	42426.89
647.44	42958.19
647.59	42682.01
647.74	42478.38
647.88	43009.68
648.03	42923.08
648.17	42869.25
648.32	42590.73
648.47	43161.82
648.61	42302.84
648.76	42251.35
648.90	42431.57
649.05	42476.04
649.20	42457.32
649.34	42330.93
649.49	42394.12
649.63	42953.51
649.78	42501.79
649.92	42792.01
650.07	42822.44
650.21	42820.10
650.36	42677.33
650.51	42796.70
650.65	42277.10
650.80	42323.91
650.94	42483.06
651.09	41865.16
651.23	42209.22
651.38	42232.63
651.52	42059.43
651.67	42019.64
651.81	42265.39
651.96	42192.84
652.10	41792.61
652.25	41598.34
652.39	41970.49
652.54	41706.01
652.68	41937.72
652.83	41865.16
652.97	41909.63
653.12	41902.61
653.26	41961.12
653.41	42052.41
653.55	41785.58
653.70	42103.90
653.84	41872.18
653.99	41958.78
654.13	41926.02
654.27	42216.24
654.42	41771.54
654.56	41642.81
654.71	41907.29
654.85	41808.99
655.00	41436.84
655.14	41972.83
655.29	41682.60
655.43	41717.71
655.57	41591.32
655.72	41406.42
655.86	40940.65
656.01	41095.13
656.15	41432.16
656.30	41153.64
656.44	41120.87
656.58	41347.90
656.73	40940.65
656.87	40884.48
657.01	41151.30
657.16	41471.95
657.30	41401.74
657.45	40952.35
657.59	40985.12
657.73	40479.57
657.88	40921.93
658.02	41118.53
658.16	41268.33
658.31	41303.43
658.45	41230.88
658.60	40634.04
658.74	41102.15
658.88	40755.75
659.03	40898.52
659.17	40603.61
659.31	40486.59
659.46	40622.34
659.60	40666.81
659.74	40037.20
659.89	40472.54
660.03	40273.60
660.17	40509.99
660.32	40147.21
660.46	40144.87
660.60	40297.00
660.74	40041.88
660.89	39955.29
661.03	40046.57
661.17	39475.48
661.32	39730.59
661.46	39882.73
661.60	39864.00
661.74	39924.86
661.89	40219.77
662.03	39985.71
662.17	39688.46
662.31	39723.57
662.46	39679.10
662.60	39316.32
662.74	39250.78
662.88	39269.51
663.03	39054.18
663.17	38899.70
663.31	39227.38
663.45	39019.07
663.60	39442.71
663.74	39058.86
663.88	38988.64
664.02	39077.58
664.17	39173.55
664.31	38892.68
664.45	38586.07
664.59	38630.54
664.73	38597.77
664.88	38447.98
665.02	38473.73
665.16	38483.09
665.30	38066.47
665.44	38314.57
665.59	38293.50
665.73	38630.54
665.87	38054.77
666.01	38433.94
666.15	38162.43
666.29	38099.24
666.44	38129.67
666.58	37837.10
666.72	38113.28
666.86	37825.40
667.00	37834.76
667.14	37661.56
667.28	37869.87
667.43	37942.42
667.57	37464.96
667.71	37902.64
667.85	38089.88
667.99	38022.00
668.13	37074.09
668.27	37186.43
668.41	37038.98
668.56	36886.84
668.70	36926.63
668.84	36910.25
668.98	37015.57
669.12	36680.88
669.26	36828.33
669.40	36861.10
669.54	36608.32
669.68	36938.33
669.82	36762.79
669.96	36219.79
670.10	36016.16
670.25	36348.52
670.39	36226.81
670.53	36273.62
670.67	36212.77
670.81	36374.27
670.95	36107.44
671.09	36041.91
671.23	35803.17
671.37	35938.93
671.51	35725.94
671.65	35756.36
671.79	35618.27
671.93	35800.83
672.07	35934.24
672.21	35702.53
672.35	35295.28
672.49	35473.16
672.63	35438.05
672.77	35213.36
672.91	35321.02
673.05	35388.90
673.19	34836.53
673.33	34962.92
673.47	34466.73
673.61	35030.80
673.75	34391.83
673.89	34330.98
674.03	34553.33
674.17	34188.21
674.31	34483.11
674.45	34192.89
674.59	34565.03
674.73	33921.38
674.87	33605.41
675.01	33582.01
675.15	33387.74
675.29	33163.05
675.43	33603.07
675.56	33727.12
675.70	33563.28
675.84	33254.33
675.98	32357.91
676.12	33165.39
676.26	33387.74
676.40	32996.87
676.54	32748.78
676.68	32907.93
676.82	32617.71
676.96	32685.58
677.10	32739.41
677.23	32519.40
677.37	32779.20
677.51	32247.90
677.65	32088.74
677.79	32259.60
677.93	32006.83
678.07	32460.89
678.21	31962.36
678.34	31718.94
678.48	31557.44
678.62	31758.73
678.76	31211.04
678.90	31529.36
679.04	31126.78
679.18	31606.59
679.31	31133.81
679.45	30803.79
679.59	31391.26
679.73	30717.19
679.87	30656.34
680.00	30644.63
680.14	30675.06
680.28	30085.25
680.42	30548.67
680.56	30256.11
680.70	30333.34
680.83	29975.24
680.97	29628.84
681.11	29830.13
681.25	29699.06
681.39	29483.73
681.52	29476.71
681.66	29455.64
681.80	28968.81
681.94	28643.48
682.07	29312.87
682.21	28870.51
682.35	28987.53
682.49	28879.87
682.62	28456.23
682.76	28680.92
682.90	28519.43
683.04	28896.25
683.17	28126.22
683.31	28535.81
683.45	28245.58
683.59	27857.06
683.72	27662.79
683.86	27702.58
684.00	27971.74
684.13	27704.92
684.27	27480.23
684.41	27445.12
684.55	27442.78
684.68	27339.80
684.82	27091.70
684.96	27005.10
685.09	27016.80
685.23	27030.85
685.37	27192.34
685.50	27164.26
685.64	26859.99
685.78	26492.52
685.91	26476.14
686.05	26429.33
686.19	26150.81
686.32	25827.81
686.46	25745.89
686.60	25462.69
686.73	25614.82
686.87	25963.56
687.01	26141.44
687.14	25977.61
687.28	25687.38
687.42	25549.29
687.55	25118.63
687.69	25401.83
687.82	25078.84
687.96	25333.96
688.10	25039.05
688.23	24854.15
688.37	25053.09
688.50	25238.00
688.64	24645.84
688.78	24491.37
688.91	24411.79
689.05	24114.54
689.18	24470.30
689.32	23653.45
689.46	23974.11
689.59	23894.53
689.73	23817.29
689.86	23634.73
690.00	23651.11
690.13	23744.73
690.27	23578.56
690.41	23578.56
690.54	23049.60
690.68	23080.02
690.81	22883.42
690.95	22860.01
691.08	23061.30
691.22	22623.62
691.35	22621.28
691.49	22871.72
691.62	22745.33
691.76	22237.43
691.89	22040.82
692.03	22008.06
692.16	21820.81
692.30	21963.59
692.43	21937.84
692.57	21661.66
692.70	21741.24
692.84	21411.22
692.97	21270.79
693.11	21259.09
693.24	21205.25
693.38	20987.58
693.51	21142.06
693.65	21088.23
693.78	20886.94
693.92	20641.18
694.05	20835.45
694.19	20725.44
694.32	20475.01
694.45	20769.91
694.59	20900.98
694.72	20793.32
694.86	20372.02
694.99	20109.88
695.13	20044.35
695.26	19618.37
695.39	19697.95
695.53	19807.95
695.66	20149.67
695.80	19726.04
695.93	19817.32
696.07	19267.29
696.20	19466.24
696.33	18946.64
696.47	18986.43
696.60	18794.50
696.73	19344.53
696.87	19328.14
697.00	19026.21
697.14	18691.52
697.27	18595.56
697.40	18216.39
697.54	18373.21
697.67	18649.39
697.80	18794.50
697.94	18256.18
698.07	18185.96
698.21	18373.21
698.34	18216.39
698.47	17930.84
698.61	17685.09
698.74	17640.62
698.87	17689.77
699.01	17369.12
699.14	17673.39
699.27	17493.16
699.40	17362.09
699.54	17504.87
699.67	17298.90
699.80	17376.14
699.94	17011.01
700.07	17088.25
700.20	17055.48
700.34	16779.30
700.47	16847.18
700.60	16783.98
700.73	16830.79
700.87	16418.86
701.00	16070.12
701.13	16217.57
701.26	16320.56
701.40	16240.98
701.53	16063.10
701.66	16112.25
701.79	16189.49
701.93	15985.86
702.06	15669.89
702.19	15541.16
702.32	15496.69
702.46	15590.31
702.59	15901.60
702.72	15693.29
702.85	15506.05
702.99	15445.20
703.12	15552.86
703.25	15108.16
703.38	14984.11
703.51	15021.56
703.65	14967.73
703.78	14700.90
703.91	14562.81
704.04	14736.01
704.17	14293.65
704.31	14871.76
704.44	14525.36
704.57	14375.57
704.70	14441.11
704.83	14136.84
704.96	14122.79
705.10	14008.11
705.23	13858.31
>>>>>End Processed Spectral Data<<<<<
