SpectraSuite Data File
++++++++++++++++++++++++++++++++++++
Date: Fri Oct 25 11:33:24 EDT 2013
User: price-jones
Dark Spectrum Present: No
Reference Spectrum Present: No
Number of Sampled Component Spectra: 1
Spectrometers: USB2+H05261
Integration Time (usec): 100000 (USB2+H05261)
Spectra Averaged: 1 (USB2+H05261)
Boxcar Smoothing: 0 (USB2+H05261)
Correct for Electrical Dark: No (USB2+H05261)
Strobe/Lamp Enabled: No (USB2+H05261)
Correct for Detector Non-linearity: No (USB2+H05261)
Correct for Stray Light: No (USB2+H05261)
Number of Pixels in Processed Spectrum: 2048
>>>>>Begin Processed Spectral Data<<<<<
365.73	278.52
365.92	278.52
366.12	278.52
366.32	252.78
366.52	149.79
366.72	227.03
366.91	255.12
367.11	201.29
367.31	224.69
367.51	131.07
367.70	177.88
367.90	105.32
368.10	152.13
368.30	168.52
368.49	126.39
368.69	156.82
368.89	222.35
369.09	191.92
369.28	217.67
369.48	194.26
369.68	163.84
369.87	222.35
370.07	271.50
370.27	315.97
370.47	341.72
370.66	425.98
370.86	545.34
371.06	615.56
371.25	519.60
371.45	550.03
371.65	479.81
371.84	589.82
372.04	496.19
372.24	568.75
372.44	533.64
372.63	606.20
372.83	561.73
373.03	500.87
373.22	613.22
373.42	699.82
373.62	662.37
373.81	615.56
374.01	594.50
374.21	627.26
374.40	571.09
374.60	697.48
374.79	655.35
374.99	671.73
375.19	648.33
375.38	681.10
375.58	683.44
375.78	681.10
375.97	645.99
376.17	744.29
376.37	678.76
376.56	641.31
376.76	681.10
376.95	662.37
377.15	741.95
377.35	631.94
377.54	662.37
377.74	620.24
377.93	709.18
378.13	617.90
378.33	636.63
378.52	669.39
378.72	648.33
378.91	730.25
379.11	732.59
379.31	716.20
379.50	690.46
379.70	716.20
379.89	737.27
380.09	664.71
380.28	699.82
380.48	720.88
380.68	734.93
380.87	772.38
381.07	741.95
381.26	847.27
381.46	788.76
381.65	802.80
381.85	844.93
382.04	814.51
382.24	882.38
382.43	753.65
382.63	706.84
382.83	765.36
383.02	795.78
383.22	854.30
383.41	753.65
383.61	763.01
383.80	774.72
384.00	842.59
384.19	781.74
384.39	901.11
384.58	894.08
384.78	828.55
384.97	861.32
385.17	957.28
385.36	737.27
385.56	887.06
385.75	873.02
385.95	830.89
386.14	837.91
386.34	849.61
386.53	936.21
386.72	788.76
386.92	943.24
387.11	924.51
387.31	931.53
387.50	901.11
387.70	835.57
387.89	891.74
388.09	936.21
388.28	908.13
388.48	870.68
388.67	915.15
388.86	880.04
389.06	947.92
389.25	940.90
389.45	950.26
389.64	1011.11
389.84	943.24
390.03	985.37
390.22	908.13
390.42	976.00
390.61	978.34
390.81	1013.45
391.00	954.94
391.19	987.71
391.39	1043.88
391.58	1144.52
391.78	1006.43
391.97	994.73
392.16	1046.22
392.36	1064.94
392.55	1116.44
392.75	1060.26
392.94	1095.37
393.13	1027.50
393.33	1067.28
393.52	1116.44
393.71	1114.10
393.91	1043.88
394.10	1039.20
394.29	1043.88
394.49	1193.67
394.68	1027.50
394.88	1137.50
395.07	1221.76
395.26	1130.48
395.46	1116.44
395.65	1198.35
395.84	1111.75
396.04	1256.87
396.23	1203.04
396.42	1210.06
396.62	1233.46
396.81	1219.42
397.00	1280.27
397.19	1181.97
397.39	1191.33
397.58	1233.46
397.77	1280.27
397.97	1280.27
398.16	1256.87
398.35	1226.44
398.55	1287.29
398.74	1256.87
398.93	1357.51
399.12	1282.61
399.32	1329.42
399.51	1277.93
399.70	1401.98
399.90	1252.19
400.09	1364.53
400.28	1399.64
400.47	1364.53
400.67	1432.41
400.86	1493.26
401.05	1383.26
401.24	1439.43
401.44	1446.45
401.63	1488.58
401.82	1465.18
402.01	1399.64
402.21	1432.41
402.40	1483.90
402.59	1547.09
402.78	1472.20
402.97	1549.43
403.17	1533.05
403.36	1528.37
403.55	1624.33
403.74	1631.35
403.93	1558.80
404.13	1624.33
404.32	1509.65
404.51	1610.29
404.70	1629.01
404.89	1666.46
405.09	1696.89
405.28	1701.57
405.47	1645.40
405.66	1713.27
405.85	1612.63
406.05	1654.76
406.24	1600.93
406.43	1783.49
406.62	1778.81
406.81	1888.81
407.00	1741.36
407.20	1696.89
407.39	1750.72
407.58	1853.70
407.77	1776.47
407.96	1853.70
408.15	1893.49
408.34	1912.22
408.54	1914.56
408.73	1963.71
408.92	1961.37
409.11	1926.26
409.30	1975.41
409.49	1966.05
409.68	2031.58
409.87	2012.86
410.07	2047.97
410.26	2090.10
410.45	2024.56
410.64	1994.14
410.83	2113.50
411.02	2062.01
411.21	2179.04
411.40	2167.34
411.59	2153.29
411.78	2165.00
411.98	2214.15
412.17	2310.11
412.36	2366.28
412.55	2300.75
412.74	2363.94
412.93	2359.26
413.12	2188.40
413.31	2340.54
413.50	2382.67
413.69	2457.56
413.88	2534.80
414.07	2530.12
414.26	2513.74
414.45	2473.95
414.64	2525.44
414.83	2424.80
415.02	2541.82
415.22	2710.34
415.41	2626.08
415.60	2663.53
415.79	2693.96
415.98	2647.15
416.17	2764.17
416.36	2693.96
416.55	2782.90
416.74	2789.92
416.93	2874.18
417.12	2815.66
417.31	2923.33
417.50	2902.26
417.69	3035.67
417.88	2925.67
418.07	2834.39
418.26	2942.05
418.45	2892.90
418.64	3124.62
418.83	3026.31
419.02	3007.59
419.21	3190.15
419.39	3075.46
419.58	3098.87
419.77	3171.43
419.96	3138.66
420.15	3084.83
420.34	3309.52
420.53	3272.07
420.72	3096.53
420.91	3346.97
421.10	3279.09
421.29	3290.79
421.48	3297.81
421.67	3328.24
421.86	3297.81
422.05	3386.76
422.24	3187.81
422.43	3379.73
422.61	3447.61
422.80	3522.51
422.99	3435.91
423.18	3393.78
423.37	3368.03
423.56	3403.14
423.75	3330.58
423.94	3197.17
424.13	3248.66
424.32	3239.30
424.50	3370.37
424.69	3506.12
424.88	3536.55
425.07	3372.71
425.26	3309.52
425.45	3342.28
425.64	3496.76
425.83	3471.01
426.01	3569.32
426.20	3604.42
426.39	3496.76
426.58	3473.36
426.77	3620.81
426.96	3686.34
427.15	3606.77
427.33	3536.55
427.52	3595.06
427.71	3590.38
427.90	3487.40
428.09	3653.58
428.28	3786.99
428.46	3709.75
428.65	3843.16
428.84	3913.38
429.03	3817.41
429.22	3672.30
429.40	3817.41
429.59	3765.92
429.78	3618.47
429.97	3733.15
430.16	3712.09
430.34	3887.63
430.53	3899.33
430.72	3768.26
430.91	3824.44
431.10	3782.31
431.28	3871.25
431.47	3976.57
431.66	4091.26
431.85	4016.36
432.03	4107.64
432.22	4142.75
432.41	3971.89
432.60	4210.62
432.79	4088.92
432.97	4135.73
433.16	4168.49
433.35	4126.36
433.54	4276.16
433.72	4149.77
433.91	4182.54
434.10	4219.99
434.28	4182.54
434.47	4287.86
434.66	4276.16
434.85	4337.01
435.03	4365.10
435.22	4339.35
435.41	4454.04
435.59	4388.50
435.78	4463.40
435.97	4411.91
436.16	4299.56
436.34	4547.66
436.53	4557.02
436.72	4524.26
436.90	4360.42
437.09	4615.54
437.28	4517.23
437.46	4393.19
437.65	4634.26
437.84	4641.28
438.02	4643.62
438.21	4617.88
438.40	4636.60
438.58	4727.88
438.77	4732.56
438.96	4688.09
439.14	4908.10
439.33	4863.63
439.52	4877.68
439.70	4912.78
439.89	5076.62
440.08	5104.71
440.26	5142.16
440.45	5128.11
440.63	5032.15
440.82	5245.14
441.01	5125.77
441.19	5186.63
441.38	5224.08
441.57	5224.08
441.75	5387.91
441.94	5446.43
442.12	5530.69
442.31	5376.21
442.50	5591.54
442.68	5453.45
442.87	5406.64
443.05	5516.64
443.24	5509.62
443.43	5528.35
443.61	5596.22
443.80	5853.68
443.98	5401.96
444.17	5486.22
444.35	5533.03
444.54	5743.67
444.73	5582.18
444.91	5577.50
445.10	5652.39
445.28	5481.53
445.47	5582.18
445.65	5518.98
445.84	5792.83
446.02	5708.57
446.21	5605.58
446.39	5664.10
446.58	5657.07
446.77	5783.46
446.95	5561.11
447.14	5818.57
447.32	5816.23
447.51	5818.57
447.69	5767.08
447.88	5701.54
448.06	5788.14
448.25	5827.93
448.43	5804.53
448.62	5837.30
448.80	5722.61
448.99	5870.06
449.17	5884.11
449.36	5916.87
449.54	5870.06
449.73	5996.45
449.91	6061.99
450.10	6176.67
450.28	6143.91
450.46	6232.85
450.65	6073.69
450.83	6139.23
451.02	6127.52
451.20	6120.50
451.39	6071.35
451.57	5963.68
451.76	6073.69
451.94	6384.98
452.13	6389.66
452.31	6284.34
452.49	6305.40
452.68	6410.73
452.86	6244.55
453.05	6494.99
453.23	6455.20
453.42	6326.47
453.60	6363.92
453.78	6698.61
453.97	6387.32
454.15	6497.33
454.34	6375.62
454.52	6551.16
454.70	6619.04
454.89	6459.88
455.07	6626.06
455.26	6630.74
455.44	6881.18
455.62	6691.59
455.81	6766.49
455.99	6836.70
456.17	6752.45
456.36	6612.01
456.54	6768.83
456.73	6981.82
456.91	6972.46
457.09	7199.49
457.28	7028.63
457.46	6869.47
457.64	7000.54
457.83	7042.67
458.01	7066.08
458.19	7145.66
458.38	7180.76
458.56	7199.49
458.74	6951.39
458.93	7293.11
459.11	7211.19
459.29	7241.62
459.48	7386.73
459.66	7260.34
459.84	7442.90
460.03	7604.40
460.21	7349.28
460.39	7431.20
460.57	7482.69
460.76	7644.19
460.94	7365.67
461.12	7389.07
461.31	7648.87
461.49	7562.27
461.67	7382.05
461.85	7707.38
462.04	7552.91
462.22	8056.12
462.40	7648.87
462.59	7681.64
462.77	7644.19
462.95	7784.62
463.13	7784.62
463.32	7831.43
463.50	7878.24
463.68	7971.86
463.86	7960.16
464.05	7878.24
464.23	7941.44
464.41	8009.31
464.59	7700.36
464.78	8194.22
464.96	8095.91
465.14	7808.03
465.32	8140.38
465.50	8154.43
465.69	8318.26
465.87	8248.05
466.05	8138.04
466.23	8177.83
466.41	8201.24
466.60	8332.31
466.78	8149.75
466.96	8156.77
467.14	8241.03
467.32	8376.78
467.51	8418.91
467.69	8304.22
467.87	8367.42
468.05	8327.63
468.23	8278.47
468.41	8521.89
468.60	8472.74
468.78	8683.39
468.96	8505.51
469.14	8524.23
469.32	8819.14
469.50	8454.02
469.69	8819.14
469.87	8784.03
470.05	8819.14
470.23	8695.09
470.41	8741.90
470.59	8816.80
470.77	8891.70
470.95	8971.27
471.14	9027.45
471.32	8751.26
471.50	9067.24
471.68	9053.19
471.86	9371.50
472.04	9142.13
472.22	9488.53
472.40	9174.90
472.58	9160.86
472.77	9350.44
472.95	9413.63
473.13	9610.24
473.31	9378.53
473.49	9687.48
473.67	9472.15
473.85	9451.08
474.03	9638.33
474.21	9582.15
474.39	10097.07
474.57	9830.25
474.75	9764.72
474.93	9881.74
475.12	9982.38
475.30	10300.70
475.48	10012.81
475.66	10146.22
475.84	10136.86
476.02	10387.30
476.20	10291.34
476.38	10480.92
476.56	10724.33
476.74	10829.66
476.92	10555.82
477.10	10328.78
477.28	10792.21
477.46	10597.95
477.64	10846.04
477.82	11084.78
478.00	11222.87
478.18	11185.42
478.36	11435.86
478.54	11557.57
478.72	11522.46
478.90	11536.50
479.08	11564.59
479.26	11775.24
479.44	11658.21
479.62	11824.39
479.80	11957.80
479.98	12023.33
480.16	12341.64
480.34	12140.36
480.52	12079.50
480.70	12313.56
480.88	12128.66
481.06	12348.67
481.24	12456.33
481.41	12603.78
481.59	12699.75
481.77	12812.09
481.95	12620.17
482.13	12968.91
482.31	12999.34
482.49	13301.26
482.67	13441.70
482.85	13535.32
483.03	13603.19
483.21	13806.82
483.39	13872.36
483.57	13774.05
483.74	13949.59
483.92	14068.96
484.10	13951.93
484.28	14288.97
484.46	14572.18
484.64	14593.24
484.82	14569.83
485.00	14764.10
485.18	14904.53
485.35	15208.80
485.53	15035.60
485.71	15180.71
485.89	15461.58
486.07	15398.38
486.25	15522.43
486.43	15447.54
486.61	15651.16
486.78	16074.80
486.96	16030.33
487.14	16044.37
487.32	16540.57
487.50	16215.23
487.68	16315.87
487.85	16465.67
488.03	16779.30
488.21	17106.98
488.39	17043.78
488.57	17029.74
488.75	17532.95
488.92	17462.74
489.10	17556.36
489.28	17855.95
489.46	17738.92
489.64	17839.56
489.81	18326.39
489.99	18256.18
490.17	18150.85
490.35	18366.18
490.53	18532.36
490.70	18644.71
490.88	18527.68
491.06	18916.21
491.24	19220.48
491.41	19073.03
491.59	19335.17
491.77	19323.46
491.95	19632.41
492.13	19613.69
492.30	19704.97
492.48	19484.96
492.66	19796.25
492.84	19840.72
493.01	20278.40
493.19	19983.49
493.37	20264.36
493.54	20421.17
493.72	20898.64
493.90	20678.63
494.08	20917.37
494.25	20947.79
494.43	20973.54
494.61	21198.23
494.79	21549.31
494.96	21462.71
495.14	21558.67
495.32	21783.37
495.49	21628.89
495.67	21912.10
495.85	22108.70
496.02	22277.22
496.20	22349.78
496.38	22724.26
496.55	22548.72
496.73	23264.92
496.91	22677.45
497.09	23140.88
497.26	23386.63
497.44	23199.39
497.62	23438.12
497.79	23569.19
497.97	23236.84
498.14	23730.69
498.32	23325.78
498.50	23796.23
498.67	23728.35
498.85	23981.13
499.03	23889.85
499.20	24159.01
499.38	24114.54
499.56	24339.23
499.73	24140.29
499.91	24903.30
500.08	24802.66
500.26	24563.92
500.44	24844.79
500.61	24709.04
500.79	24854.15
500.97	25099.90
501.14	25619.50
501.32	25565.67
501.49	25081.18
501.67	25240.34
501.84	25528.22
502.02	25813.77
502.20	25631.21
502.37	25961.22
502.55	25689.72
502.72	25965.90
502.90	26209.32
503.07	25759.94
503.25	26281.88
503.43	26012.71
503.60	26586.15
503.78	26412.95
503.95	26352.09
504.13	26527.63
504.30	27211.07
504.48	26721.90
504.65	26874.03
504.83	27278.94
505.01	27548.11
505.18	27253.20
505.36	27527.04
505.53	27468.53
505.71	27524.70
505.88	27744.71
506.06	27094.04
506.23	27477.89
506.41	27686.20
506.58	27957.70
506.76	27941.32
506.93	28086.43
507.11	28151.96
507.28	28240.90
507.46	28252.61
507.63	28505.38
507.81	28697.31
507.98	28526.45
508.16	28786.25
508.33	28603.69
508.50	28840.08
508.68	29223.93
508.85	29048.39
509.03	29542.24
509.20	28940.72
509.38	29528.20
509.55	29326.91
509.73	29312.87
509.90	29748.21
510.08	29661.61
510.25	29666.29
510.42	29708.42
510.60	29708.42
510.77	30050.14
510.95	30197.59
511.12	30071.20
511.30	30326.32
511.47	30492.50
511.64	30157.80
511.82	30426.96
511.99	30089.93
512.17	30888.05
512.34	30745.28
512.51	30918.48
512.69	30799.11
512.86	30597.82
513.04	31185.30
513.21	30927.84
513.38	31105.72
513.56	31248.49
513.73	30932.52
513.90	31328.07
514.08	31257.85
514.25	31543.40
514.43	31358.50
514.60	31646.38
514.77	31475.52
514.95	31941.29
515.12	31969.38
515.29	31646.38
515.47	31997.46
515.64	32540.47
515.81	32077.04
515.99	32435.14
516.16	32271.31
516.33	32655.15
516.51	32500.68
516.68	32357.91
516.85	32879.85
517.03	32521.74
517.20	32734.73
517.37	32996.87
517.54	32929.00
517.72	33237.95
517.89	32842.40
518.06	33053.05
518.24	33137.30
518.41	33153.69
518.58	32907.93
518.75	32823.67
518.93	33434.55
519.10	33294.12
519.27	33750.52
519.45	33720.10
519.62	33729.46
519.79	33582.01
519.96	33970.54
520.14	33441.57
520.31	33743.50
520.48	34366.09
520.65	34017.35
520.83	34462.05
521.00	34869.30
521.17	34520.56
521.34	34663.33
521.52	34504.18
521.69	34476.09
521.86	34925.47
522.03	34686.74
522.20	34916.11
522.38	35344.43
522.55	35119.74
522.72	34806.11
522.89	35419.33
523.07	35372.52
523.24	35377.20
523.41	35281.24
523.58	35435.71
523.75	35824.24
523.92	35393.58
524.10	35747.00
524.27	35889.77
524.44	35866.37
524.61	35901.48
524.78	36172.98
524.96	36261.92
525.13	36472.57
525.30	36320.43
525.47	36250.22
525.64	36158.94
525.81	36598.96
525.98	36381.29
526.16	36772.16
526.33	36479.59
526.50	36989.83
526.67	36355.54
526.84	36797.90
527.01	37062.38
527.18	37074.09
527.36	37256.65
527.53	37006.21
527.70	37787.95
527.87	37113.87
528.04	37261.33
528.21	37457.93
528.38	36919.61
528.55	37352.61
528.72	37654.54
528.89	37479.00
529.07	37280.05
529.24	37305.80
529.41	37951.79
529.58	37748.16
529.75	37069.40
529.92	37329.20
530.09	37897.95
530.26	37621.77
530.43	37848.80
530.60	37879.23
530.77	37858.17
530.94	38005.62
531.11	37996.26
531.28	38185.84
531.46	38279.46
531.63	38232.65
531.80	38148.39
531.97	38340.32
532.14	38677.35
532.31	38375.42
532.48	38735.87
532.65	39019.07
532.82	38476.07
532.99	38429.26
533.16	38803.74
533.33	39040.14
533.50	39054.18
533.67	38965.24
533.84	38759.27
534.01	38967.58
534.18	38969.92
534.35	39529.31
534.52	39356.11
534.69	39643.99
534.86	39234.40
535.03	39440.37
535.20	39693.15
535.37	39859.32
535.54	39777.40
535.71	39522.29
535.88	39367.81
536.05	39833.58
536.22	40009.12
536.38	39690.80
536.55	39541.01
536.72	39681.44
536.89	39707.19
537.06	40093.38
537.23	40390.62
537.40	39882.73
537.57	39833.58
537.74	39765.70
537.91	40222.11
538.08	40126.14
538.25	40297.00
538.42	40446.80
538.59	40687.87
538.75	40315.73
538.92	40914.90
539.09	40275.94
539.26	40493.61
539.43	40151.89
539.60	40842.35
539.77	40802.56
539.94	40882.14
540.11	40786.18
540.28	41322.16
540.44	41045.97
540.61	40573.19
540.78	40825.96
540.95	40722.98
541.12	40898.52
541.29	41350.24
541.46	40989.80
541.62	41251.94
541.79	41518.76
541.96	40952.35
542.13	40907.88
542.30	41408.76
542.47	41486.00
542.63	41186.41
542.80	41460.25
542.97	42050.06
543.14	42197.52
543.31	41698.98
543.48	42265.39
543.64	42480.72
543.81	42368.38
543.98	42199.86
544.15	42005.59
544.32	42305.18
544.48	42588.39
544.65	42075.81
544.82	42752.23
544.99	42342.63
545.16	42775.63
545.32	42600.09
545.49	42925.42
545.66	42960.53
545.83	42679.67
546.00	43049.47
546.16	42740.52
546.33	42216.24
546.50	42850.53
546.67	43023.73
546.83	42504.13
547.00	42670.31
547.17	42623.50
547.34	42754.57
547.50	43391.19
547.67	43723.55
547.84	43192.25
548.00	43536.30
548.17	43423.96
548.34	43255.44
548.51	43332.68
548.67	43337.36
548.84	43566.73
549.01	43325.66
549.18	43686.10
549.34	43517.58
549.51	43505.88
549.68	43629.93
549.84	43515.24
550.01	43669.72
550.18	43540.99
550.34	43695.46
550.51	44041.86
550.68	43903.77
550.84	43430.98
551.01	44067.61
551.18	43966.96
551.34	43295.23
551.51	43730.57
551.68	44053.56
551.84	43838.23
552.01	44126.12
552.18	44423.37
552.34	44236.12
552.51	44346.13
552.68	43564.39
552.84	44341.45
553.01	44425.71
553.18	44130.80
553.34	44521.67
553.51	44360.17
553.67	44261.87
553.84	44762.75
554.01	44708.91
554.17	44907.86
554.34	44865.73
554.51	44369.54
554.67	44783.81
554.84	44856.37
555.00	44329.75
555.17	44409.32
555.33	44718.28
555.50	44879.77
555.67	44949.99
555.83	45228.51
556.00	44959.35
556.16	45509.38
556.33	45127.87
556.50	45172.34
556.66	45340.86
556.83	44802.53
556.99	45043.61
557.16	45357.24
557.32	45240.21
557.49	45827.69
557.65	44673.81
557.82	44781.47
557.98	45043.61
558.15	45153.62
558.32	45219.15
558.48	44975.73
558.65	45186.38
558.81	45408.73
558.98	45415.76
559.14	45591.30
559.31	45303.41
559.47	45422.78
559.64	45675.55
559.80	45474.27
559.97	46131.96
560.13	45202.77
560.30	45474.27
560.46	45343.20
560.63	45640.45
560.79	46019.61
560.96	45890.88
561.12	46213.88
561.29	45921.31
561.45	46232.60
561.61	45661.51
561.78	45603.00
561.94	45701.30
562.11	45544.48
562.27	46012.59
562.44	45785.56
562.60	45771.52
562.77	45804.28
562.93	45298.73
563.10	46197.49
563.26	46101.53
563.42	46564.96
563.59	45982.16
563.75	45649.81
563.92	46300.48
564.08	45792.58
564.24	46532.19
564.41	46497.08
564.57	46429.21
564.74	46031.32
564.90	46295.80
565.07	45893.22
565.23	46340.27
565.39	46401.12
565.56	46223.24
565.72	46052.38
565.88	46134.30
566.05	46429.21
566.21	46394.10
566.38	46389.42
566.54	46326.22
566.70	46408.14
566.87	46340.27
567.03	46267.71
567.19	46904.34
567.36	46305.16
567.52	46452.61
567.68	46869.23
567.85	46916.04
568.01	46775.61
568.17	46614.11
568.34	47021.36
568.50	46630.49
568.66	46948.81
568.83	46574.32
568.99	46635.17
569.15	46925.40
569.32	46639.86
569.48	46705.39
569.64	46899.65
569.81	46574.32
569.97	46824.76
570.13	46787.31
570.30	45998.55
570.46	46216.22
570.62	46794.33
570.78	46714.75
570.95	46899.65
571.11	47093.92
571.27	46703.05
571.43	46649.22
571.60	46820.08
571.76	46838.80
571.92	46557.94
572.09	46604.75
572.25	46707.73
572.41	46609.43
572.57	47004.98
572.74	47166.48
572.90	46742.84
573.06	47187.54
573.22	47028.38
573.38	47023.70
573.55	47114.98
573.71	47260.10
573.87	47515.22
574.03	46955.83
574.20	47206.26
574.36	47356.06
574.52	47253.08
574.68	47079.88
574.84	47395.85
575.01	47428.62
575.17	47168.82
575.33	47187.54
575.49	47175.84
575.65	47126.69
575.82	47206.26
575.98	46791.99
576.14	47393.51
576.30	47503.51
576.46	47503.51
576.62	47229.67
576.79	47213.29
576.95	46909.02
577.11	47147.75
577.27	47316.27
577.43	47082.22
577.59	47196.90
577.75	47276.48
577.92	46932.42
578.08	47217.97
578.24	47255.42
578.40	47220.31
578.56	47161.79
578.72	47316.27
578.88	47510.53
579.04	47302.23
579.21	47402.87
579.37	47068.17
579.53	47533.94
579.69	47093.92
579.85	47274.14
580.01	47316.27
580.17	47021.36
580.33	47110.30
580.49	47210.95
580.65	47400.53
580.82	46972.21
580.98	47007.32
581.14	47269.46
581.30	47269.46
581.46	47487.13
581.62	47562.03
581.78	47044.77
581.94	47477.77
582.10	47229.67
582.26	47599.47
582.42	47503.51
582.58	47545.64
582.74	47243.71
582.90	47323.29
583.06	47730.54
583.22	47536.28
583.38	47690.76
583.54	47590.11
583.70	47526.92
583.86	47782.04
584.02	47491.81
584.18	47674.37
584.34	47480.11
584.50	47943.53
584.66	47454.36
584.82	47484.79
584.98	47810.12
585.14	47779.70
585.30	47262.44
585.46	47489.47
585.62	47550.32
585.78	47643.94
585.94	47428.62
586.10	47852.25
586.26	47430.96
586.42	47515.22
586.58	47746.93
586.74	47459.04
586.90	47449.68
587.06	47566.71
587.22	48161.20
587.38	47505.85
587.54	47770.33
587.70	47920.13
587.86	47503.51
588.02	47845.23
588.18	47657.99
588.34	47629.90
588.49	47491.81
588.65	47679.05
588.81	47636.92
588.97	47592.45
589.13	47782.04
589.29	47929.49
589.45	47973.96
589.61	47934.17
589.77	47784.38
589.93	47817.14
590.08	47936.51
590.24	47707.14
590.40	48479.52
590.56	47845.23
590.72	48020.77
590.88	47840.55
591.04	47899.06
591.20	48311.00
591.35	48140.14
591.51	48479.52
591.67	48165.88
591.83	48116.73
591.99	47760.97
592.15	47922.47
592.31	48044.18
592.46	48016.09
592.62	48013.75
592.78	48149.50
592.94	47908.43
593.10	48069.92
593.26	48605.91
593.41	48175.25
593.57	48287.59
593.73	48013.75
593.89	48648.03
594.05	48392.92
594.20	48079.28
594.36	48390.58
594.52	48449.09
594.68	48219.72
594.84	48016.09
594.99	48807.19
595.15	48215.04
595.31	48259.51
595.47	48123.75
595.62	48278.23
595.78	48266.53
595.94	48411.64
596.10	48037.16
596.25	48226.74
596.41	48549.73
596.57	48149.50
596.73	48748.68
596.88	48168.22
597.04	48435.05
597.20	48554.41
597.36	48055.88
597.51	48348.45
597.67	48046.52
597.83	48444.41
597.99	48289.93
598.14	48126.10
598.30	48559.09
598.46	48594.20
598.61	48722.93
598.77	48107.37
598.93	48421.00
599.09	48641.01
599.24	48458.45
599.40	48568.46
599.56	48247.80
599.71	48807.19
599.87	48947.62
600.03	48671.44
600.18	48219.72
600.34	48437.39
600.50	48275.89
600.65	48545.05
600.81	48514.62
600.97	48685.48
601.12	48563.78
601.28	48313.34
601.44	48240.78
601.59	48861.02
601.75	48383.55
601.91	48758.04
602.06	48224.40
602.22	48736.98
602.37	48514.62
602.53	48605.91
602.69	48491.22
602.84	48275.89
603.00	48472.49
603.16	48409.30
603.31	48722.93
603.47	48589.52
603.62	48533.35
603.78	48374.19
603.94	48409.30
604.09	48657.40
604.25	48226.74
604.40	48481.86
604.56	48673.78
604.71	48615.27
604.87	48229.08
605.03	48261.85
605.18	48341.42
605.34	48388.24
605.49	48168.22
605.65	48254.82
605.80	48275.89
605.96	47985.66
606.12	48339.08
606.27	48596.54
606.43	48486.54
606.58	48687.82
606.74	48650.38
606.89	48301.64
607.05	48868.05
607.20	48722.93
607.36	48325.04
607.51	48566.12
607.67	48362.49
607.82	48121.41
607.98	48102.69
608.13	48329.72
608.29	47978.64
608.44	48608.25
608.60	48067.58
608.75	48142.48
608.91	48088.65
609.06	48254.82
609.22	48818.89
609.37	48144.82
609.53	48170.57
609.68	48610.59
609.84	48065.24
609.99	48488.88
610.15	48385.89
610.30	48474.84
610.46	48069.92
610.61	48299.30
610.76	48360.15
610.92	47646.29
611.07	48200.99
611.23	48212.70
611.38	47945.87
611.54	48179.93
611.69	48133.12
611.84	47789.06
612.00	47629.90
612.15	47629.90
612.31	48226.74
612.46	47938.85
612.62	47835.87
612.77	47739.91
612.92	47849.91
613.08	47817.14
613.23	47721.18
613.39	47779.70
613.54	47494.15
613.69	47896.72
613.85	47445.00
614.00	47763.31
614.15	48392.92
614.31	47870.98
614.46	47529.26
614.62	47508.19
614.77	47655.65
614.92	47728.20
615.08	47690.76
615.23	47751.61
615.38	48067.58
615.54	48030.13
615.69	47760.97
615.84	47964.60
616.00	47763.31
616.15	47480.11
616.30	47760.97
616.46	47889.70
616.61	47302.23
616.76	48154.18
616.92	47512.88
617.07	47442.66
617.22	47489.47
617.37	47098.60
617.53	47349.04
617.68	47351.38
617.83	47171.16
617.99	47824.17
618.14	47578.41
618.29	47470.75
618.45	47103.28
618.60	47239.03
618.75	47288.18
618.90	47253.08
619.06	47250.74
619.21	47164.14
619.36	47318.61
619.51	47227.33
619.67	47224.99
619.82	47334.99
619.97	47562.03
620.12	47559.69
620.28	47316.27
620.43	47538.62
620.58	47217.97
620.73	47168.82
620.89	47580.75
621.04	47679.05
621.19	47173.50
621.34	46850.50
621.49	47070.51
621.65	46768.58
621.80	47194.56
621.95	46951.15
622.10	47299.89
622.25	46953.49
622.41	46740.50
622.56	47070.51
622.71	46717.09
622.86	46958.17
623.01	47374.78
623.16	46693.69
623.32	46560.28
623.47	47091.58
623.62	46733.48
623.77	47040.09
623.92	46546.23
624.07	46412.82
624.23	46969.87
624.38	47033.07
624.53	46747.52
624.68	46597.73
624.83	46073.45
624.98	46237.28
625.13	45982.16
625.29	46681.98
625.44	46525.17
625.59	46246.65
625.74	46380.06
625.89	46363.67
626.04	46586.02
626.19	46436.23
626.34	46508.79
626.49	45925.99
626.65	45862.80
626.80	46176.43
626.95	45874.50
627.10	46108.55
627.25	46108.55
627.40	46284.09
627.55	46241.96
627.70	45982.16
627.85	46309.84
628.00	46354.31
628.15	46078.13
628.30	45567.89
628.45	45907.27
628.60	45488.31
628.76	45713.00
628.91	45996.21
629.06	45584.27
629.21	45670.87
629.36	45652.15
629.51	45691.94
629.66	46045.36
629.81	46003.23
629.96	45722.37
630.11	45251.92
630.26	45345.54
630.41	45933.01
630.56	45617.04
630.71	45785.56
630.86	45347.88
631.01	45301.07
631.16	45092.76
631.31	45682.58
631.46	45422.78
631.61	45710.66
631.76	45640.45
631.91	45481.29
632.06	45612.36
632.21	45855.78
632.36	45420.44
632.51	45092.76
632.66	45792.58
632.81	45064.67
632.96	45619.38
633.10	45542.14
633.25	45368.94
633.40	45392.35
633.55	45619.38
633.70	45102.12
633.85	45137.23
634.00	44669.12
634.15	45048.29
634.30	45352.56
634.45	44882.11
634.60	45036.59
634.75	45062.33
634.90	45258.94
635.05	44879.77
635.19	44957.01
635.34	45043.61
635.49	45071.70
635.64	45078.72
635.79	45027.23
635.94	44907.86
636.09	45013.18
636.24	44779.13
636.39	44708.91
636.53	44830.62
636.68	44737.00
636.83	44739.34
636.98	44488.90
637.13	44329.75
637.28	44547.42
637.43	44439.75
637.57	44858.71
637.72	44048.88
637.87	44568.48
638.02	44100.37
638.17	44767.43
638.32	44121.44
638.46	44041.86
638.61	44041.86
638.76	44100.37
638.91	44236.12
639.06	44030.16
639.20	43927.17
639.35	43835.89
639.50	43908.45
639.65	44189.31
639.80	44130.80
639.94	44060.58
640.09	44528.69
640.24	44573.16
640.39	43906.11
640.54	43346.72
640.68	43810.15
640.83	44355.49
640.98	43840.57
641.13	43676.74
641.27	44072.29
641.42	43885.04
641.57	43875.68
641.72	43910.79
641.86	43468.43
642.01	43264.80
642.16	43625.25
642.31	43246.08
642.45	43929.51
642.60	43475.45
642.75	43690.78
642.90	43421.62
643.04	43454.39
643.19	43529.28
643.34	43625.25
643.48	43496.52
643.63	43707.16
643.78	43768.02
643.93	43728.23
644.07	43154.80
644.22	43084.58
644.37	43358.42
644.51	43578.43
644.66	43269.48
644.81	43267.14
644.95	43739.93
645.10	42958.19
645.25	42899.68
645.39	43093.94
645.54	42937.13
645.69	42693.71
645.83	43232.04
645.98	42972.24
646.13	43089.26
646.27	42958.19
646.42	42621.16
646.57	42562.64
646.71	43217.99
646.86	42796.70
647.00	42976.92
647.15	43311.61
647.30	43021.39
647.44	42918.40
647.59	42682.01
647.74	42653.92
647.88	42904.36
648.03	43281.19
648.17	42986.28
648.32	42841.17
648.47	43363.11
648.61	42679.67
648.76	42707.76
648.90	42541.58
649.05	42614.13
649.20	42756.91
649.34	42450.30
649.49	42684.35
649.63	42937.13
649.78	42611.79
649.92	42396.46
650.07	43335.02
650.21	42515.83
650.36	42770.95
650.51	42429.23
650.65	42590.73
650.80	42513.49
650.94	42092.19
651.09	42321.57
651.23	42270.08
651.38	42316.89
651.52	42036.02
651.67	42153.05
651.81	41963.46
651.96	42080.49
652.10	41926.02
652.25	41790.27
652.39	42185.82
652.54	42234.97
652.68	41862.82
652.83	41961.12
652.97	42291.14
653.12	41684.94
653.26	41738.77
653.41	41755.16
653.55	41785.58
653.70	42010.28
653.84	42146.03
653.99	42232.63
654.13	42066.45
654.27	41567.91
654.42	42040.70
654.56	41998.57
654.71	42122.62
654.85	41916.65
655.00	41675.58
655.14	41790.27
655.29	41708.35
655.43	41808.99
655.57	41308.11
655.72	41202.79
655.86	41661.54
656.01	41104.49
656.15	41357.27
656.30	41268.33
656.44	41439.18
656.58	41361.95
656.73	41490.68
656.87	40978.10
657.01	40521.69
657.16	41242.58
657.30	41436.84
657.45	40935.97
657.59	41146.62
657.73	40950.01
657.88	40662.13
658.02	41038.95
658.16	41518.76
658.31	41116.19
658.45	41525.78
658.60	40952.35
658.74	40781.49
658.88	40870.43
659.03	40905.54
659.17	40198.70
659.31	40863.41
659.46	40531.06
659.60	40596.59
659.74	40315.73
659.89	40612.98
660.03	40381.26
660.17	40622.34
660.32	39859.32
660.46	40282.96
660.60	39938.90
660.74	39875.71
660.89	39999.76
661.03	40151.89
661.17	39700.17
661.32	39643.99
661.46	40208.06
661.60	39566.76
661.74	39880.39
661.89	39969.33
662.03	40463.18
662.17	39365.47
662.31	39442.71
662.46	39768.04
662.60	39569.10
662.74	39398.24
662.88	39569.10
663.03	38951.20
663.17	39199.29
663.31	38815.44
663.45	39103.33
663.60	39529.31
663.74	39332.70
663.88	39150.14
664.02	38876.30
664.17	39613.57
664.31	38682.03
664.45	38906.73
664.59	38974.60
664.73	39098.65
664.88	39005.03
665.02	38550.96
665.16	39068.22
665.30	38658.63
665.44	38714.80
665.59	38368.40
665.73	38017.32
665.87	38127.33
666.01	38721.82
666.15	38445.64
666.29	38366.06
666.44	38431.60
666.58	38253.72
666.72	37790.29
666.86	38092.22
667.00	37904.98
667.14	37703.69
667.28	37827.74
667.43	37715.39
667.57	38195.20
667.71	37790.29
667.85	37350.27
667.99	38059.45
668.13	37235.58
668.27	37317.50
668.41	37593.68
668.56	36842.37
668.70	36973.44
668.84	36802.58
668.98	37060.04
669.12	37219.20
669.26	36886.84
669.40	36896.20
669.54	37076.43
669.68	37165.37
669.82	36182.34
669.96	36514.70
670.10	36168.30
670.25	36198.73
670.39	36491.29
670.53	36397.67
670.67	36556.83
670.81	36334.48
670.95	36477.25
671.09	36048.93
671.23	36070.00
671.37	36224.47
671.51	36055.95
671.65	36102.76
671.79	36088.72
671.93	36091.06
672.07	36266.60
672.21	35622.95
672.35	35627.63
672.49	35548.06
672.63	35508.27
672.77	34948.88
672.91	35606.57
673.05	34913.77
673.19	34871.64
673.33	35204.00
673.47	35042.50
673.61	34923.13
673.75	34918.45
673.89	34560.35
674.03	34167.14
674.17	34490.13
674.31	34188.21
674.45	33916.70
674.59	34225.65
674.73	34150.76
674.87	34125.01
675.01	33715.42
675.15	33413.49
675.29	33689.67
675.43	33708.40
675.56	33757.55
675.70	33490.73
675.84	33544.56
675.98	32472.59
676.12	33453.28
676.26	33577.33
676.40	32861.12
676.54	33027.30
676.68	32992.19
676.82	32144.92
676.96	33137.30
677.10	33102.20
677.23	32575.58
677.37	32673.88
677.51	32180.03
677.65	32439.82
677.79	32435.14
677.93	32299.39
678.07	32198.75
678.21	31866.39
678.34	32018.53
678.48	31665.11
678.62	31351.48
678.76	31501.27
678.90	31510.63
679.04	31580.85
679.18	31763.41
679.31	31220.41
679.45	31234.45
679.59	31274.24
679.73	30684.42
679.87	30726.55
680.00	30742.94
680.14	30848.26
680.28	30698.47
680.42	30618.89
680.56	30443.35
680.70	30394.20
680.83	29635.86
680.97	29755.23
681.11	29914.39
681.25	29738.85
681.39	29493.09
681.52	29331.59
681.66	29083.50
681.80	29237.97
681.94	28760.50
682.07	29177.12
682.21	28973.49
682.35	29280.10
682.49	28655.18
682.62	28519.43
682.76	28905.62
682.90	28959.45
683.04	28519.43
683.17	28526.45
683.31	27934.29
683.45	28432.83
683.59	27955.36
683.72	28002.17
683.86	27758.75
684.00	27548.11
684.13	27721.30
684.27	27351.50
684.41	27477.89
684.55	27744.71
684.68	27309.37
684.82	27487.25
684.96	27351.50
685.09	27323.41
685.23	27122.13
685.37	27763.43
685.50	27608.96
685.64	27243.84
685.78	26628.27
685.91	26611.89
686.05	26162.51
686.19	25867.60
686.32	26115.70
686.46	25900.37
686.60	25879.30
686.73	25745.89
686.87	25888.67
687.01	25940.16
687.14	25841.85
687.28	25666.31
687.42	25773.98
687.55	25563.33
687.69	25165.44
687.82	24971.18
687.96	25001.60
688.10	25104.59
688.23	25362.04
688.37	25261.40
688.50	25179.48
688.64	24837.76
688.78	25305.87
688.91	24692.65
689.05	24339.23
689.18	24226.89
689.32	23754.10
689.46	24100.50
689.59	23800.91
689.73	24386.04
689.86	24140.29
690.00	23962.40
690.13	24039.64
690.27	23550.47
690.41	23672.18
690.54	23248.54
690.68	23461.53
690.81	23515.36
690.95	23463.87
691.08	22895.12
691.22	22815.54
691.35	22625.96
691.49	22991.08
691.62	22691.49
691.76	22171.89
691.89	22272.54
692.03	21755.28
692.16	22143.81
692.30	22125.08
692.43	21790.39
692.57	21553.99
692.70	21895.71
692.84	21806.77
692.97	21289.51
693.11	21596.12
693.24	21186.53
693.38	21097.59
693.51	21235.68
693.65	20908.01
693.78	20996.95
693.92	20840.13
694.05	21102.27
694.19	20917.37
694.32	20800.34
694.45	21106.95
694.59	20643.52
694.72	20720.76
694.86	20425.86
694.99	20231.59
695.13	20194.14
695.26	20002.22
695.39	19901.58
695.53	19611.35
695.66	20081.80
695.80	19730.72
695.93	19651.14
696.07	19499.00
696.20	19307.08
696.33	19140.90
696.47	19206.44
696.60	19321.12
696.73	19054.30
696.87	18965.36
697.00	19080.05
697.14	18829.61
697.27	18759.39
697.40	18740.67
697.54	18677.48
697.67	18408.31
697.80	18384.91
697.94	18384.91
698.07	18555.77
698.21	17980.00
698.34	18305.33
698.47	17900.42
698.61	17446.35
698.74	17851.27
698.87	17647.64
699.01	17535.29
699.14	17720.20
699.27	17659.34
699.40	17486.14
699.54	17341.03
699.67	17156.13
699.80	17319.96
699.94	16968.88
700.07	17142.08
700.20	16877.60
700.34	16783.98
700.47	16996.97
700.60	16870.58
700.73	16809.73
700.87	16634.19
701.00	16425.88
701.13	16336.94
701.26	16451.63
701.40	16243.32
701.53	16255.02
701.66	16133.31
701.79	15826.70
701.93	15875.85
702.06	15655.84
702.19	15632.44
702.32	15960.11
702.46	15807.98
702.59	15676.91
702.72	15789.25
702.85	15477.96
702.99	15597.33
703.12	15145.61
703.25	15393.70
703.38	15129.22
703.51	15051.99
703.65	14780.48
703.78	14511.32
703.91	14649.41
704.04	14665.80
704.17	14553.45
704.31	14609.62
704.44	14459.83
704.57	14441.11
704.70	14239.82
704.83	14284.29
704.96	14225.78
705.10	14087.68
705.23	14256.20
>>>>>End Processed Spectral Data<<<<<
