SpectraSuite Data File
++++++++++++++++++++++++++++++++++++
Date: Fri Oct 25 11:33:28 EDT 2013
User: price-jones
Dark Spectrum Present: No
Reference Spectrum Present: No
Number of Sampled Component Spectra: 1
Spectrometers: USB2+H05261
Integration Time (usec): 100000 (USB2+H05261)
Spectra Averaged: 1 (USB2+H05261)
Boxcar Smoothing: 0 (USB2+H05261)
Correct for Electrical Dark: No (USB2+H05261)
Strobe/Lamp Enabled: No (USB2+H05261)
Correct for Detector Non-linearity: No (USB2+H05261)
Correct for Stray Light: No (USB2+H05261)
Number of Pixels in Processed Spectrum: 2048
>>>>>Begin Processed Spectral Data<<<<<
365.73	273.84
365.92	273.84
366.12	273.84
366.32	147.45
366.52	166.18
366.72	234.05
366.91	182.56
367.11	138.09
367.31	98.30
367.51	184.90
367.70	201.29
367.90	215.33
368.10	173.20
368.30	177.88
368.49	149.79
368.69	194.26
368.89	205.97
369.09	168.52
369.28	238.73
369.48	177.88
369.68	266.82
369.87	220.01
370.07	304.27
370.27	334.70
370.47	285.55
370.66	524.28
370.86	493.85
371.06	505.56
371.25	578.11
371.45	521.94
371.65	596.84
371.84	564.07
372.04	477.47
372.24	580.45
372.44	578.11
372.63	521.94
372.83	594.50
373.03	566.41
373.22	620.24
373.42	697.48
373.62	624.92
373.81	615.56
374.01	587.47
374.21	669.39
374.40	704.50
374.60	692.80
374.79	634.29
374.99	631.94
375.19	697.48
375.38	702.16
375.58	660.03
375.78	763.01
375.97	608.54
376.17	690.46
376.37	720.88
376.56	697.48
376.76	631.94
376.95	653.01
377.15	667.05
377.35	638.97
377.54	814.51
377.74	606.20
377.93	770.04
378.13	664.71
378.33	713.86
378.52	662.37
378.72	739.61
378.91	645.99
379.11	578.11
379.31	690.46
379.50	702.16
379.70	821.53
379.89	713.86
380.09	730.25
380.28	704.50
380.48	741.95
380.68	746.63
380.87	748.97
381.07	751.31
381.26	814.51
381.46	744.29
381.65	791.10
381.85	763.01
382.04	781.74
382.24	765.36
382.43	816.85
382.63	812.17
382.83	777.06
383.02	697.48
383.22	814.51
383.41	805.14
383.61	751.31
383.80	830.89
384.00	753.65
384.19	807.48
384.39	847.27
384.58	873.02
384.78	936.21
384.97	847.27
385.17	840.25
385.36	828.55
385.56	828.55
385.75	866.00
385.95	882.38
386.14	849.61
386.34	861.32
386.53	814.51
386.72	903.45
386.92	851.96
387.11	814.51
387.31	917.49
387.50	809.83
387.70	844.93
387.89	919.83
388.09	898.77
388.28	891.74
388.48	884.72
388.67	931.53
388.86	997.07
389.06	887.06
389.25	952.60
389.45	990.05
389.64	994.73
389.84	1008.77
390.03	966.64
390.22	945.58
390.42	992.39
390.61	887.06
390.81	844.93
391.00	1008.77
391.19	1018.13
391.39	929.19
391.58	1027.50
391.78	971.32
391.97	1015.79
392.16	1064.94
392.36	1093.03
392.55	1144.52
392.75	957.28
392.94	1020.47
393.13	1142.18
393.33	1076.65
393.52	1118.78
393.71	1064.94
393.91	1165.59
394.10	1071.97
394.29	1116.44
394.49	1149.20
394.68	1123.46
394.88	1090.69
395.07	1231.12
395.26	1198.35
395.46	1247.51
395.65	1160.91
395.84	1167.93
396.04	1270.91
396.23	1146.86
396.42	1221.76
396.62	1167.93
396.81	1205.38
397.00	1207.72
397.19	1254.53
397.39	1280.27
397.58	1291.98
397.77	1226.44
397.97	1277.93
398.16	1247.51
398.35	1345.81
398.55	1366.87
398.74	1301.34
398.93	1345.81
399.12	1359.85
399.32	1306.02
399.51	1329.42
399.70	1376.24
399.90	1343.47
400.09	1327.08
400.28	1350.49
400.47	1373.89
400.67	1310.70
400.86	1387.94
401.05	1458.15
401.24	1474.54
401.44	1479.22
401.63	1394.96
401.82	1472.20
402.01	1378.58
402.21	1483.90
402.40	1490.92
402.59	1603.27
402.78	1540.07
402.97	1558.80
403.17	1507.30
403.36	1568.16
403.55	1535.39
403.74	1542.41
403.93	1626.67
404.13	1624.33
404.32	1664.12
404.51	1755.40
404.70	1685.19
404.89	1603.27
405.09	1746.04
405.28	1692.21
405.47	1689.87
405.66	1629.01
405.85	1687.53
406.05	1739.02
406.24	1771.79
406.43	1778.81
406.62	1809.23
406.81	1802.21
407.00	1732.00
407.20	1701.57
407.39	1788.17
407.58	1820.94
407.77	1888.81
407.96	1959.03
408.15	1973.07
408.34	1888.81
408.54	1870.09
408.73	1870.09
408.92	1888.81
409.11	2005.84
409.30	2040.95
409.49	1884.13
409.68	2019.88
409.87	1923.92
410.07	2040.95
410.26	2050.31
410.45	2090.10
410.64	2017.54
410.83	2094.78
411.02	2118.18
411.21	2155.63
411.40	2118.18
411.59	2246.91
411.78	2237.55
411.98	2277.34
412.17	2237.55
412.36	2282.02
412.55	2181.38
412.74	2214.15
412.93	2260.96
413.12	2272.66
413.31	2532.46
413.50	2450.54
413.69	2338.20
413.88	2441.18
414.07	2478.63
414.26	2457.56
414.45	2527.78
414.64	2548.84
414.83	2708.00
415.02	2502.03
415.22	2682.25
415.41	2600.34
415.60	2679.91
415.79	2677.57
415.98	2698.64
416.17	2789.92
416.36	2740.77
416.55	2778.22
416.74	2932.69
416.93	2773.53
417.12	2848.43
417.31	2892.90
417.50	2937.37
417.69	2909.29
417.88	2960.78
418.07	2885.88
418.26	2853.11
418.45	3021.63
418.64	3105.89
418.83	2965.46
419.02	3007.59
419.21	3075.46
419.39	3131.64
419.58	3169.09
419.77	3105.89
419.96	3178.45
420.15	3199.51
420.34	3227.60
420.53	3103.55
420.72	3112.91
420.91	3335.26
421.10	3215.90
421.29	3384.41
421.48	3295.47
421.67	3272.07
421.86	3248.66
422.05	3239.30
422.24	3323.56
422.43	3318.88
422.61	3349.31
422.80	3337.60
422.99	3379.73
423.18	3527.19
423.37	3478.04
423.56	3456.97
423.75	3365.69
423.94	3445.27
424.13	3243.98
424.32	3180.79
424.50	3428.88
424.69	3583.36
424.88	3555.27
425.07	3372.71
425.26	3379.73
425.45	3318.88
425.64	3365.69
425.83	3361.01
426.01	3389.10
426.20	3431.23
426.39	3501.44
426.58	3405.48
426.77	3449.95
426.96	3550.59
427.15	3555.27
427.33	3545.91
427.52	3517.83
427.71	3665.28
427.90	3695.71
428.09	3669.96
428.28	3620.81
428.46	3660.60
428.65	3618.47
428.84	3798.69
429.03	3812.73
429.22	3604.42
429.40	3784.65
429.59	3957.85
429.78	3658.26
429.97	3714.43
430.16	3871.25
430.34	3885.29
430.53	3857.20
430.72	3866.56
430.91	3861.88
431.10	3852.52
431.28	3969.55
431.47	3948.48
431.66	4109.98
431.85	3941.46
432.03	3995.29
432.22	4079.55
432.41	4149.77
432.60	4124.02
432.79	4053.81
432.97	4149.77
433.16	4131.05
433.35	4152.11
433.54	4208.28
433.72	4278.50
433.91	4208.28
434.10	4241.05
434.28	4098.28
434.47	4095.94
434.66	4334.67
434.85	4315.95
435.03	4325.31
435.22	4299.56
435.41	4395.53
435.59	4493.83
435.78	4479.79
435.97	4465.74
436.16	4444.68
436.34	4463.40
436.53	4381.48
436.72	4526.60
436.90	4482.13
437.09	4383.82
437.28	4358.08
437.46	4430.63
437.65	4638.94
437.84	4596.81
438.02	4589.79
438.21	4760.65
438.40	4479.79
438.58	4580.43
438.77	4898.74
438.96	4889.38
439.14	4746.61
439.33	4905.76
439.52	4957.25
439.70	4887.04
439.89	4994.70
440.08	5071.94
440.26	5172.58
440.45	4875.34
440.63	5036.83
440.82	5224.08
441.01	5123.43
441.19	5235.78
441.38	5109.39
441.57	5392.59
441.75	5343.44
441.94	5364.51
442.12	5383.23
442.31	5446.43
442.50	5373.87
442.68	5371.53
442.87	5472.17
443.05	5490.90
443.24	5561.11
443.43	5589.20
443.61	5535.37
443.80	5699.20
443.98	5575.16
444.17	5385.57
444.35	5621.97
444.54	5741.33
444.73	5605.58
444.91	5741.33
445.10	5746.02
445.28	5708.57
445.47	5537.71
445.65	5565.79
445.84	5727.29
446.02	5753.04
446.21	5781.12
446.39	5607.92
446.58	5881.77
446.77	5736.65
446.95	5547.07
447.14	5804.53
447.32	5811.55
447.51	5839.64
447.69	5785.80
447.88	5856.02
448.06	5753.04
448.25	5675.80
448.43	5717.93
448.62	5877.09
448.80	5818.57
448.99	5743.67
449.17	5949.64
449.36	5900.49
449.54	5966.03
449.73	5977.73
449.91	6022.20
450.10	6113.48
450.28	6300.72
450.46	5942.62
450.65	6054.97
450.83	5959.00
451.02	6059.65
451.20	6359.24
451.39	6164.97
451.57	6169.65
451.76	6097.10
451.94	6375.62
452.13	6373.28
452.31	6399.02
452.49	6242.21
452.68	6260.93
452.86	6431.79
453.05	6303.06
453.23	6448.18
453.42	6235.19
453.60	6352.21
453.78	6558.18
453.97	6324.13
454.15	6377.96
454.34	6324.13
454.52	6590.95
454.70	6534.78
454.89	6740.74
455.07	6729.04
455.26	6703.29
455.44	6773.51
455.62	6644.78
455.81	6595.63
455.99	6740.74
456.17	6916.28
456.36	6899.90
456.54	6890.54
456.73	6930.33
456.91	7059.06
457.09	7108.21
457.28	7080.12
457.46	6881.18
457.64	7075.44
457.83	6963.09
458.01	7042.67
458.19	7126.93
458.38	7232.26
458.56	7213.53
458.74	7180.76
458.93	7194.81
459.11	7063.74
459.29	7370.35
459.48	7370.35
459.66	7286.09
459.84	7351.62
460.03	7344.60
460.21	7332.90
460.39	7496.74
460.57	7468.65
460.76	7620.78
460.94	7517.80
461.12	7456.95
461.31	7480.35
461.49	7637.17
461.67	7606.74
461.85	7557.59
462.04	7494.40
462.22	8056.12
462.40	8028.04
462.59	7683.98
462.77	7889.95
462.95	7915.69
463.13	7950.80
463.32	7679.30
463.50	7786.96
463.68	7953.14
463.86	7939.10
464.05	7786.96
464.23	8070.17
464.41	8025.70
464.59	7985.91
464.78	8028.04
464.96	8098.25
465.14	7880.58
465.32	7978.89
465.50	8058.46
465.69	8252.73
465.87	8140.38
466.05	8070.17
466.23	8189.53
466.41	8177.83
466.60	8372.10
466.78	8065.49
466.96	8301.88
467.14	8454.02
467.32	8243.37
467.51	8297.20
467.69	8290.18
467.87	8344.01
468.05	8439.97
468.23	8149.75
468.41	8273.79
468.60	8517.21
468.78	8571.04
468.96	8367.42
469.14	8641.26
469.32	8767.65
469.50	8465.72
469.69	8613.17
469.87	8652.96
470.05	8877.65
470.23	8744.24
470.41	8898.72
470.59	8905.74
470.77	8898.72
470.95	9013.40
471.14	9062.55
471.32	8638.92
471.50	9048.51
471.68	8847.22
471.86	9156.18
472.04	9336.40
472.22	9423.00
472.40	9111.71
472.58	9198.31
472.77	9460.45
472.95	9460.45
473.13	9631.30
473.31	9523.64
473.49	9518.96
473.67	9355.12
473.85	9500.23
474.03	9652.37
474.21	9554.07
474.39	9795.14
474.57	9736.63
474.75	9860.68
474.93	10029.20
475.12	10010.47
475.30	10181.33
475.48	9954.30
475.66	10265.59
475.84	9919.19
476.02	10314.74
476.20	10258.57
476.38	10326.44
476.56	10642.42
476.74	10548.79
476.92	10457.51
477.10	10408.36
477.28	10782.85
477.46	10590.92
477.64	10747.74
477.82	10984.13
478.00	11162.01
478.18	11225.21
478.36	11220.53
478.54	11360.96
478.72	11412.45
478.90	11585.65
479.08	11513.10
479.26	11698.00
479.44	11885.24
479.62	11721.40
479.80	11761.19
479.98	12138.02
480.16	12276.11
480.34	12030.35
480.52	12423.56
480.70	12264.41
480.88	12035.03
481.06	12545.27
481.24	12585.06
481.41	12652.94
481.59	12674.00
481.77	12856.56
481.95	12994.65
482.13	13085.94
482.31	12973.59
482.49	13008.70
482.67	13240.41
482.85	13376.16
483.03	13523.62
483.21	13998.74
483.39	13734.26
483.57	13778.73
483.74	13867.67
483.92	13933.21
484.10	13923.85
484.28	14417.70
484.46	14534.73
484.64	14462.17
484.82	14602.60
485.00	14757.08
485.18	14771.12
485.35	15000.49
485.53	15091.77
485.71	15161.99
485.89	15522.43
486.07	15358.60
486.25	15473.28
486.43	15449.88
486.61	15637.12
486.78	15747.12
486.96	15754.15
487.14	16287.79
487.32	16259.70
487.50	16533.54
487.68	16535.88
487.85	16781.64
488.03	16802.71
488.21	17032.08
488.39	17057.82
488.57	17406.56
488.75	17060.16
488.92	17163.15
489.10	17664.02
489.28	17745.94
489.46	17671.04
489.64	17926.16
489.81	17982.34
489.99	18017.44
490.17	18408.31
490.35	18747.69
490.53	18698.54
490.70	18375.55
490.88	18497.25
491.06	18724.29
491.24	19049.62
491.41	18953.66
491.59	19297.72
491.77	19154.94
491.95	19742.42
492.13	19665.18
492.30	19562.20
492.48	19730.72
492.66	19936.68
492.84	20212.87
493.01	20325.21
493.19	20365.00
493.37	20388.41
493.54	20519.48
493.72	20547.56
493.90	20734.81
494.08	21003.97
494.25	21170.15
494.43	20872.90
494.61	21106.95
494.79	21411.22
494.96	21305.90
495.14	21476.76
495.32	21692.08
495.49	21916.78
495.67	21820.81
495.85	21905.07
496.02	22438.72
496.20	22061.89
496.38	22223.39
496.55	22494.89
496.73	22986.40
496.91	22918.53
497.09	22710.22
497.26	22597.87
497.44	22925.55
497.62	22888.10
497.79	23634.73
497.97	23470.89
498.14	23428.76
498.32	23927.30
498.50	23761.12
498.67	23513.02
498.85	23737.71
499.03	24252.63
499.20	24669.25
499.38	24329.87
499.56	24442.21
499.73	24409.45
499.91	24779.25
500.08	24931.39
500.26	24830.74
500.44	24774.57
500.61	24954.79
500.79	24720.74
500.97	24992.24
501.14	25603.12
501.32	25600.78
501.49	25254.38
501.67	24905.64
501.84	25883.98
502.02	25685.04
502.20	25757.60
502.37	25972.92
502.55	25755.26
502.72	25788.02
502.90	25986.97
503.07	26082.93
503.25	26078.25
503.43	26029.10
503.60	26541.68
503.78	26710.19
503.95	26424.65
504.13	26628.27
504.30	26529.97
504.48	26429.33
504.65	27037.87
504.83	27002.76
505.01	27194.68
505.18	27161.92
505.36	27346.82
505.53	27337.46
505.71	27557.47
505.88	27623.00
506.06	27185.32
506.23	27756.41
506.41	27845.35
506.58	27782.16
506.76	27892.16
506.93	28060.68
507.11	28046.64
507.28	28156.64
507.46	27887.48
507.63	28009.19
507.81	28472.62
507.98	28245.58
508.16	28411.76
508.33	28561.56
508.50	29095.20
508.68	29043.71
508.85	28769.86
509.03	28720.71
509.20	29142.01
509.38	29305.85
509.55	29472.03
509.73	29221.59
509.90	29191.16
510.08	29214.57
510.25	29823.11
510.42	29401.81
510.60	29680.33
510.77	29895.66
510.95	30237.38
511.12	29989.28
511.30	30300.58
511.47	30331.00
511.64	30043.12
511.82	30246.74
511.99	30654.00
512.17	30518.25
512.34	30338.02
512.51	30815.49
512.69	31227.43
512.86	30864.64
513.04	31124.44
513.21	30881.03
513.38	31201.68
513.56	31309.35
513.73	31143.17
513.90	31292.96
514.08	31454.46
514.25	31564.46
514.43	31597.23
514.60	31400.63
514.77	31491.91
514.95	31952.99
515.12	31627.66
515.29	31798.52
515.47	31906.18
515.64	31950.65
515.81	31901.50
515.99	32030.23
516.16	32411.74
516.33	32395.35
516.51	32704.31
516.68	32320.46
516.85	32517.06
517.03	32793.25
517.20	33198.16
517.37	32669.20
517.54	32870.48
517.72	33050.70
517.89	32957.08
518.06	33139.65
518.24	33287.10
518.41	33207.52
518.58	33308.16
518.75	33134.96
518.93	33343.27
519.10	33237.95
519.27	33900.32
519.45	33413.49
519.62	33874.57
519.79	34230.33
519.96	33792.65
520.14	33907.34
520.31	33905.00
520.48	33989.26
520.65	33930.75
520.83	34733.55
521.00	34955.90
521.17	34272.46
521.34	34766.32
521.52	34775.68
521.69	34838.87
521.86	34948.88
522.03	34845.90
522.20	34881.00
522.38	35377.20
522.55	35288.26
522.72	34916.11
522.89	35049.52
523.07	35325.71
523.24	35358.47
523.41	35622.95
523.58	35641.68
523.75	35789.13
523.92	35246.13
524.10	35793.81
524.27	35777.43
524.44	35463.80
524.61	35758.70
524.78	36268.94
524.96	36023.19
525.13	35831.26
525.30	36187.02
525.47	36362.56
525.64	35833.60
525.81	36456.18
525.98	36821.31
526.16	36528.74
526.33	36439.80
526.50	36861.10
526.67	36299.37
526.84	36840.03
527.01	36521.72
527.18	37092.81
527.36	37139.62
527.53	36758.11
527.70	36950.04
527.87	37469.64
528.04	37038.98
528.21	37081.11
528.38	37273.03
528.55	37436.87
528.72	37436.87
528.89	37556.24
529.07	37151.32
529.24	37305.80
529.41	37380.70
529.58	37488.36
529.75	37509.43
529.92	37610.07
530.09	37811.35
530.26	37902.64
530.43	37830.08
530.60	37572.62
530.77	38005.62
530.94	37738.80
531.11	38321.59
531.28	38249.03
531.46	38169.46
531.63	38169.46
531.80	38239.67
531.97	38354.36
532.14	38574.37
532.31	38253.72
532.48	38789.70
532.65	38939.49
532.82	38239.67
532.99	38775.66
533.16	38698.42
533.33	39213.34
533.50	38890.34
533.67	38607.14
533.84	38822.47
534.01	39306.96
534.18	39026.09
534.35	39428.66
534.52	39768.04
534.69	39571.44
534.86	39817.19
535.03	39438.03
535.20	39665.06
535.37	39679.10
535.54	39669.74
535.71	39557.39
535.88	39615.91
536.05	39658.04
536.22	40112.10
536.38	39384.19
536.55	39533.99
536.72	40119.12
536.89	39786.77
537.06	39796.13
537.23	40404.67
537.40	39988.05
537.57	40114.44
537.74	40098.06
537.91	40196.36
538.08	40271.26
538.25	39964.65
538.42	40311.05
538.59	40364.88
538.75	39791.45
538.92	40641.06
539.09	40472.54
539.26	40938.31
539.43	40868.09
539.60	40851.71
539.77	40620.00
539.94	41148.96
540.11	40900.86
540.28	40863.41
540.44	40835.33
540.61	41010.87
540.78	40657.45
540.95	40928.95
541.12	40935.97
541.29	40657.45
541.46	41350.24
541.62	41209.81
541.79	41345.56
541.96	40914.90
542.13	41134.92
542.30	40959.38
542.47	41504.72
542.63	41553.87
542.80	41394.71
542.97	41717.71
543.14	42024.32
543.31	41750.48
543.48	42220.92
543.64	42717.12
543.81	42651.58
543.98	42359.02
544.15	42288.80
544.32	42443.27
544.48	42417.53
544.65	42007.94
544.82	42396.46
544.99	42080.49
545.16	42597.75
545.32	42576.69
545.49	42923.08
545.66	42820.10
545.83	42361.36
546.00	43079.90
546.16	42368.38
546.33	42454.98
546.50	42506.47
546.67	43012.02
546.83	42354.33
547.00	42309.86
547.17	42630.52
547.34	42932.45
547.50	43316.29
547.67	43430.98
547.84	42995.64
548.00	43274.16
548.17	43550.35
548.34	43412.26
548.51	43468.43
548.67	43243.74
548.84	43522.26
549.01	43634.61
549.18	43531.62
549.34	43632.27
549.51	43690.78
549.68	43695.46
549.84	43269.48
550.01	43803.13
550.18	43428.64
550.34	43498.86
550.51	43854.62
550.68	43917.81
550.84	43690.78
551.01	43709.50
551.18	44055.90
551.34	43686.10
551.51	44109.74
551.68	44081.65
551.84	43735.25
552.01	43782.06
552.18	44296.98
552.34	43906.11
552.51	44245.49
552.68	43856.96
552.84	44083.99
553.01	44126.12
553.18	44484.22
553.34	44346.13
553.51	44449.11
553.67	44219.74
553.84	44421.03
554.01	44655.08
554.17	44648.06
554.34	44737.00
554.51	44847.00
554.67	44720.62
554.84	45230.85
555.00	44835.30
555.17	44753.38
555.33	45048.29
555.50	44516.99
555.67	44847.00
555.83	44966.37
556.00	44875.09
556.16	45446.18
556.33	44804.88
556.50	45083.40
556.66	44886.79
556.83	44683.17
556.99	45492.99
557.16	44912.54
557.32	45303.41
557.49	45287.03
557.65	44999.14
557.82	45357.24
557.98	45261.28
558.15	45134.89
558.32	45319.79
558.48	45104.46
558.65	45074.04
558.81	45329.16
558.98	45296.39
559.14	45677.90
559.31	45345.54
559.47	45240.21
559.64	45553.85
559.80	45579.59
559.97	45900.25
560.13	45453.20
560.30	45560.87
560.46	45858.12
560.63	45998.55
560.79	46064.08
560.96	45942.38
561.12	45991.53
561.29	45766.84
561.45	45558.53
561.61	45610.02
561.78	45794.92
561.94	45883.86
562.11	45848.75
562.27	45614.70
562.44	45776.20
562.60	45439.16
562.77	46227.92
562.93	45830.03
563.10	46153.02
563.26	45970.46
563.42	46080.47
563.59	45771.52
563.75	46054.72
563.92	46218.56
564.08	45982.16
564.24	46169.41
564.41	46071.10
564.57	46071.10
564.74	46043.02
564.90	46164.73
565.07	46164.73
565.23	46396.44
565.39	46054.72
565.56	46330.90
565.72	46211.54
565.88	45930.67
566.05	46033.66
566.21	46157.70
566.38	46333.24
566.54	46623.47
566.70	46639.86
566.87	46302.82
567.03	46302.82
567.19	46604.75
567.36	46005.57
567.52	46616.45
567.68	46932.42
567.85	46579.00
568.01	46679.64
568.17	46930.08
568.34	46454.95
568.50	46794.33
568.66	46593.04
568.83	46653.90
568.99	46745.18
569.15	46782.63
569.32	46522.83
569.48	46445.59
569.64	47070.51
569.81	46665.60
569.97	47194.56
570.13	46822.42
570.30	46433.89
570.46	47168.82
570.62	47096.26
570.78	46574.32
570.95	46993.28
571.11	46775.61
571.27	46976.89
571.43	46658.58
571.60	46894.97
571.76	46363.67
571.92	47110.30
572.09	46913.70
572.25	47000.30
572.41	46731.14
572.57	47140.73
572.74	47175.84
572.90	46918.38
573.06	47119.66
573.22	47164.14
573.38	47051.79
573.55	47114.98
573.71	47665.01
573.87	47119.66
574.03	47283.50
574.20	47047.11
574.36	47608.84
574.52	47044.77
574.68	47199.24
574.84	47257.76
575.01	47159.45
575.17	47028.38
575.33	46883.27
575.49	46925.40
575.65	47246.05
575.82	46920.72
575.98	46953.49
576.14	47042.43
576.30	47370.10
576.46	47538.62
576.62	47344.36
576.79	47187.54
576.95	46871.57
577.11	46859.87
577.27	47246.05
577.43	47154.77
577.59	47185.20
577.75	46897.31
577.92	46899.65
578.08	47285.84
578.24	46871.57
578.40	47096.26
578.56	47430.96
578.72	47171.16
578.88	47426.28
579.04	47337.33
579.21	47075.19
579.37	47037.75
579.53	47133.71
579.69	47332.65
579.85	47126.69
580.01	47248.39
580.17	46880.93
580.33	47681.39
580.49	47452.02
580.65	47330.31
580.82	47016.68
580.98	47215.63
581.14	47129.03
581.30	47405.21
581.46	47552.66
581.62	47040.09
581.78	47014.34
581.94	47267.12
582.10	47449.68
582.26	47751.61
582.42	47531.60
582.58	47311.59
582.74	47323.29
582.90	47430.96
583.06	47948.21
583.22	47178.18
583.38	47409.89
583.54	47536.28
583.70	47543.30
583.86	47847.57
584.02	47358.40
584.18	47445.00
584.34	47466.06
584.50	47627.56
584.66	47714.16
584.82	47636.92
584.98	47482.45
585.14	47498.83
585.30	47409.89
585.46	47384.15
585.62	47377.12
585.78	47796.08
585.94	47423.93
586.10	47281.16
586.26	47393.51
586.42	47346.70
586.58	47557.35
586.74	47878.00
586.90	47309.25
587.06	47346.70
587.22	47690.76
587.38	47657.99
587.54	47384.15
587.70	47622.88
587.86	47463.72
588.02	47597.13
588.18	47400.53
588.34	47676.71
588.49	47887.36
588.65	47627.56
588.81	47330.31
588.97	47824.17
589.13	47456.70
589.29	47934.17
589.45	47681.39
589.61	47821.83
589.77	47751.61
589.93	47674.37
590.08	48444.41
590.24	47714.16
590.40	48229.08
590.56	48182.27
590.72	48011.41
590.88	47847.57
591.04	47870.98
591.20	47737.57
591.35	47896.72
591.51	48332.06
591.67	47943.53
591.83	48495.90
591.99	47803.10
592.15	47990.34
592.31	47695.44
592.46	48060.56
592.62	48217.38
592.78	48170.57
592.94	48392.92
593.10	48088.65
593.26	48151.84
593.41	47789.06
593.57	47997.37
593.73	48130.78
593.89	48633.99
594.05	48184.61
594.20	48353.13
594.36	48971.03
594.52	48076.94
594.68	48013.75
594.84	48011.41
594.99	47992.68
595.15	48229.08
595.31	48402.28
595.47	48184.61
595.62	48542.71
595.78	48149.50
595.94	48294.61
596.10	47931.83
596.25	48456.11
596.41	48175.25
596.57	47959.92
596.73	48552.07
596.88	47985.66
597.04	48355.47
597.20	48114.39
597.36	48341.42
597.51	48074.60
597.67	48240.78
597.83	47985.66
597.99	48619.95
598.14	48191.63
598.30	48521.65
598.46	48212.70
598.61	48388.24
598.77	48428.02
598.93	48282.91
599.09	48320.36
599.24	48322.70
599.40	48313.34
599.56	48535.69
599.71	48598.88
599.87	48727.61
600.03	48783.79
600.18	48514.62
600.34	48299.30
600.50	48542.71
600.65	48825.92
600.81	48519.31
600.97	48858.68
601.12	48774.42
601.28	48521.65
601.44	48587.18
601.59	48261.85
601.75	48435.05
601.91	48442.07
602.06	48406.96
602.22	48683.14
602.37	48399.94
602.53	48236.10
602.69	48481.86
602.84	48303.98
603.00	48662.08
603.16	48041.84
603.31	48516.96
603.47	48573.14
603.62	48076.94
603.78	48844.64
603.94	48570.80
604.09	48601.22
604.25	48505.26
604.40	48428.02
604.56	47966.94
604.71	48729.95
604.87	48278.23
605.03	48121.41
605.18	48282.91
605.34	48772.08
605.49	48112.05
605.65	48163.54
605.80	48650.38
605.96	48226.74
606.12	48250.14
606.27	48655.06
606.43	48126.10
606.58	48196.31
606.74	48046.52
606.89	48229.08
607.05	48837.62
607.20	48392.92
607.36	48222.06
607.51	48006.73
607.67	48095.67
607.82	47931.83
607.98	48231.42
608.13	47924.81
608.29	48311.00
608.44	48116.73
608.60	47950.56
608.75	48163.54
608.91	48320.36
609.06	47866.30
609.22	48336.74
609.37	48362.49
609.53	48137.80
609.68	47985.66
609.84	48165.88
609.99	48261.85
610.15	48591.86
610.30	48409.30
610.46	48088.65
610.61	48247.80
610.76	48343.77
610.92	48133.12
611.07	48140.14
611.23	48121.41
611.38	48179.93
611.54	48165.88
611.69	48334.40
611.84	48451.43
612.00	47798.42
612.15	47648.63
612.31	48250.14
612.46	47669.69
612.62	47882.68
612.77	47957.58
612.92	48135.46
613.08	47959.92
613.23	47924.81
613.39	47903.74
613.54	47735.23
613.69	48098.01
613.85	47690.76
614.00	47746.93
614.15	47845.23
614.31	47765.65
614.46	48353.13
614.62	48025.45
614.77	47503.51
614.92	47959.92
615.08	47793.74
615.23	47693.10
615.38	47604.16
615.54	47363.08
615.69	47489.47
615.84	47777.36
616.00	47805.44
616.15	47835.87
616.30	47709.48
616.46	47040.09
616.61	47786.72
616.76	47407.55
616.92	47737.57
617.07	47484.79
617.22	47360.74
617.37	47131.37
617.53	47634.58
617.68	47185.20
617.83	47213.29
617.99	47632.24
618.14	47501.17
618.29	47416.91
618.45	47159.45
618.60	47166.48
618.75	46979.23
618.90	47555.00
619.06	46808.37
619.21	47100.94
619.36	47503.51
619.51	46806.03
619.67	46806.03
619.82	47000.30
619.97	47459.04
620.12	47140.73
620.28	46939.44
620.43	47463.72
620.58	47093.92
620.73	47058.81
620.89	47648.63
621.04	47072.85
621.19	47339.68
621.34	47063.49
621.49	46630.49
621.65	46883.27
621.80	47229.67
621.95	46909.02
622.10	46960.51
622.25	47196.90
622.41	46696.03
622.56	46930.08
622.71	47278.82
622.86	47047.11
623.01	47040.09
623.16	46483.04
623.32	46777.95
623.47	46855.18
623.62	46188.13
623.77	46401.12
623.92	46789.65
624.07	47122.01
624.23	46948.81
624.38	47042.43
624.53	46274.73
624.68	46892.63
624.83	46590.70
624.98	46525.17
625.13	45888.54
625.29	46157.70
625.44	46419.84
625.59	46410.48
625.74	46333.24
625.89	46164.73
626.04	46370.69
626.19	46258.35
626.34	46146.00
626.49	45972.80
626.65	45986.85
626.80	45848.75
626.95	45991.53
627.10	45783.22
627.25	46234.94
627.40	46232.60
627.55	46031.32
627.70	46415.16
627.85	46206.86
628.00	46340.27
628.15	46417.50
628.30	45418.10
628.45	45523.42
628.60	45680.24
628.76	45914.29
628.91	46103.87
629.06	45425.12
629.21	45368.94
629.36	45663.85
629.51	45965.78
629.66	45954.08
629.81	45563.21
629.96	46078.13
630.11	45535.12
630.26	45743.43
630.41	45638.11
630.56	45354.90
630.71	45425.12
630.86	45296.39
631.01	45308.09
631.16	45254.26
631.31	45640.45
631.46	45621.72
631.61	45900.25
631.76	45518.74
631.91	45462.57
632.06	45935.35
632.21	45598.32
632.36	45326.81
632.51	45308.09
632.66	45338.52
632.81	45322.13
632.96	45600.66
633.10	44835.30
633.25	45696.62
633.40	45106.80
633.55	45525.76
633.70	45104.46
633.85	44671.46
634.00	44811.90
634.15	44882.11
634.30	44832.96
634.45	44346.13
634.60	45193.40
634.75	45317.45
634.90	44760.40
635.05	45413.41
635.19	45097.44
635.34	45249.58
635.49	44430.39
635.64	44952.33
635.79	45022.54
635.94	44737.00
636.09	44837.64
636.24	45167.66
636.39	44540.39
636.53	45034.25
636.68	44495.92
636.83	44601.25
636.98	44411.67
637.13	44252.51
637.28	44453.79
637.43	44163.57
637.57	44147.18
637.72	43929.51
637.87	44048.88
638.02	44423.37
638.17	44643.38
638.32	44091.01
638.46	44233.78
638.61	44163.57
638.76	43826.53
638.91	44023.14
639.06	44048.88
639.20	43496.52
639.35	43866.32
639.50	44062.93
639.65	44395.28
639.80	44250.17
639.94	43817.17
640.09	44182.29
640.24	44336.77
640.39	43796.10
640.54	43611.20
640.68	43695.46
640.83	44116.76
640.98	43543.33
641.13	43269.48
641.27	44381.24
641.42	43981.01
641.57	43758.66
641.72	43793.76
641.86	43440.34
642.01	43728.23
642.16	43758.66
642.31	43473.11
642.45	43646.31
642.60	43295.23
642.75	43470.77
642.90	43559.71
643.04	43491.83
643.19	43182.88
643.34	43107.99
643.48	43138.41
643.63	43494.18
643.78	43491.83
643.93	43772.70
644.07	43592.48
644.22	43182.88
644.37	43217.99
644.51	43564.39
644.66	43409.92
644.81	43318.64
644.95	43569.07
645.10	43283.53
645.25	42972.24
645.39	42995.64
645.54	43337.36
645.69	42906.70
645.83	43129.05
645.98	42951.17
646.13	42682.01
646.27	42782.65
646.42	42583.71
646.57	42789.67
646.71	43068.20
646.86	43227.35
647.00	42983.94
647.15	43356.08
647.30	42747.54
647.44	42878.61
647.59	42864.57
647.74	42635.20
647.88	42670.31
648.03	43220.33
648.17	42787.33
648.32	42955.85
648.47	42953.51
648.61	42220.92
648.76	42700.73
648.90	42511.15
649.05	42726.48
649.20	42394.12
649.34	42787.33
649.49	42756.91
649.63	42188.16
649.78	42880.95
649.92	42719.46
650.07	42635.20
650.21	42906.70
650.36	42927.77
650.51	42471.36
650.65	42911.38
650.80	42579.03
650.94	42611.79
651.09	42340.29
651.23	41610.04
651.38	42237.31
651.52	42178.79
651.67	42377.74
651.81	42064.11
651.96	42110.92
652.10	41736.43
652.25	41596.00
652.39	41893.25
652.54	42225.60
652.68	41570.25
652.83	42050.06
652.97	42043.04
653.12	41748.14
653.26	42003.25
653.41	41961.12
653.55	41682.60
653.70	42216.24
653.84	41989.21
653.99	41930.70
654.13	42043.04
654.27	41930.70
654.42	41832.39
654.56	41673.24
654.71	41600.68
654.85	41743.45
655.00	41783.24
655.14	41471.95
655.29	42148.37
655.43	41816.01
655.57	41453.23
655.72	41289.39
655.86	41413.44
656.01	40701.92
656.15	40978.10
656.30	41406.42
656.44	41474.29
656.58	41565.57
656.73	41319.82
656.87	40985.12
657.01	40783.83
657.16	41291.73
657.30	41488.34
657.45	40737.02
657.59	41062.36
657.73	40545.10
657.88	40809.58
658.02	41148.96
658.16	41254.28
658.31	40999.16
658.45	40921.93
658.60	40493.61
658.74	40863.41
658.88	41113.85
659.03	40477.22
659.17	40840.01
659.31	40493.61
659.46	40177.64
659.60	40835.33
659.74	40470.20
659.89	40009.12
660.03	40491.27
660.17	40477.22
660.32	39880.39
660.46	40095.72
660.60	39604.20
660.74	40088.70
660.89	40278.28
661.03	39470.79
661.17	39810.17
661.32	40023.16
661.46	40128.48
661.60	39896.77
661.74	39854.64
661.89	40236.15
662.03	39969.33
662.17	39849.96
662.31	39526.97
662.46	39379.51
662.60	39325.68
662.74	39409.94
662.88	39213.34
663.03	39154.82
663.17	39409.94
663.31	39089.29
663.45	38864.60
663.60	39260.15
663.74	39239.08
663.88	39152.48
664.02	38579.05
664.17	38993.32
664.31	38717.14
664.45	38541.60
664.59	38759.27
664.73	38761.61
664.88	38604.80
665.02	38555.64
665.16	38506.49
665.30	38602.46
665.44	38831.83
665.59	38117.96
665.73	38309.89
665.87	37748.16
666.01	38595.43
666.15	38017.32
666.29	37909.66
666.44	38337.98
666.58	38328.61
666.72	37921.36
666.86	37586.66
667.00	37949.45
667.14	37537.51
667.28	37769.22
667.43	37558.58
667.57	38113.28
667.71	37816.04
667.85	37811.35
667.99	37565.60
668.13	37001.53
668.27	37151.32
668.41	37216.86
668.56	36954.72
668.70	37088.13
668.84	36765.14
668.98	36442.14
669.12	36905.57
669.26	37116.22
669.40	36884.50
669.54	37277.71
669.68	37282.39
669.82	36540.44
669.96	36210.43
670.10	36229.15
670.25	36669.17
670.39	36430.44
670.53	36514.70
670.67	36392.99
670.81	36385.97
670.95	35997.44
671.09	36180.00
671.23	35732.96
671.37	36034.89
671.51	35742.32
671.65	35782.11
671.79	36062.97
671.93	36077.02
672.07	36025.53
672.21	35742.32
672.35	35330.39
672.49	35463.80
672.63	35625.29
672.77	35538.69
672.91	35503.59
673.05	35206.34
673.19	35093.99
673.33	34969.94
673.47	34646.95
673.61	34623.54
673.75	34668.02
673.89	34520.56
674.03	34349.70
674.17	34300.55
674.31	33989.26
674.45	34286.51
674.59	34349.70
674.73	34174.16
674.87	33579.67
675.01	33574.98
675.15	33696.69
675.29	33523.49
675.43	33633.50
675.56	33841.81
675.70	33724.78
675.84	33654.56
675.98	32444.51
676.12	33090.49
676.26	33453.28
676.40	33067.09
676.54	32943.04
676.68	33212.20
676.82	32683.24
676.96	32811.97
677.10	32926.66
677.23	32369.61
677.37	32409.40
677.51	32297.05
677.65	32474.93
677.79	32336.84
677.93	32308.76
678.07	32137.90
678.21	31929.59
678.34	32039.59
678.48	31910.86
678.62	31302.32
678.76	31597.23
678.90	31433.39
679.04	31278.92
679.18	31260.20
679.31	30955.93
679.45	30906.77
679.59	30745.28
679.73	31108.06
679.87	31019.12
680.00	31112.74
680.14	30806.13
680.28	30618.89
680.42	30230.36
680.56	30345.05
680.70	30162.48
680.83	30354.41
680.97	29823.11
681.11	29898.00
681.25	29640.54
681.39	29727.14
681.52	29448.62
681.66	29387.77
681.80	28898.59
681.94	28985.19
682.07	29034.35
682.21	28783.91
682.35	28917.32
682.49	28734.76
682.62	28936.04
682.76	28573.26
682.90	28793.27
683.04	28465.60
683.17	28404.74
683.31	28070.04
683.45	28233.88
683.59	27969.40
683.72	27711.94
683.86	27847.69
684.00	27655.77
684.13	27896.85
684.27	27246.18
684.41	27693.22
684.55	27594.92
684.68	27363.20
684.82	27175.96
684.96	26696.15
685.09	27248.52
685.23	27197.02
685.37	27304.69
685.50	27171.28
685.64	26829.56
685.78	26843.60
685.91	26670.40
686.05	25837.17
686.19	25710.78
686.32	26230.38
686.46	25804.41
686.60	25792.70
686.73	25937.82
686.87	25661.63
687.01	25961.22
687.14	25628.87
687.28	25193.53
687.42	25708.44
687.55	25053.09
687.69	25310.55
687.82	25179.48
687.96	25006.28
688.10	24931.39
688.23	25008.62
688.37	25273.10
688.50	25226.29
688.64	24919.68
688.78	24561.58
688.91	24362.64
689.05	24294.76
689.18	24041.98
689.32	23871.12
689.46	23960.06
689.59	23648.77
689.73	24273.70
689.86	24348.59
690.00	23733.03
690.13	23838.36
690.27	23550.47
690.41	23388.97
690.54	23330.46
690.68	23260.24
690.81	23119.81
690.95	23089.38
691.08	23288.33
691.22	22895.12
691.35	22604.89
691.49	22944.27
691.62	22979.38
691.76	22574.47
691.89	22347.44
692.03	21986.99
692.16	21947.20
692.30	22043.17
692.43	21771.66
692.57	21617.19
692.70	21551.65
692.84	21635.91
692.97	21214.62
693.11	21261.43
693.24	21263.77
693.38	21144.40
693.51	20924.39
693.65	20992.26
693.78	20837.79
693.92	21025.03
694.05	20795.66
694.19	20563.95
694.32	20882.26
694.45	20744.17
694.59	20828.43
694.72	20709.06
694.86	20334.57
694.99	20203.50
695.13	20037.33
695.26	20175.42
695.39	19674.54
695.53	19920.30
695.66	19716.67
695.80	19639.44
695.93	19850.08
696.07	19566.88
696.20	19157.28
696.33	19063.66
696.47	19297.72
696.60	18960.68
696.73	19014.51
696.87	19159.63
697.00	19077.71
697.14	18920.89
697.27	18764.07
697.40	18635.35
697.54	18616.62
697.67	18466.83
697.80	18633.00
697.94	18424.70
698.07	18387.25
698.21	18171.92
698.34	18319.37
698.47	17736.58
698.61	17614.87
698.74	17799.77
698.87	17858.29
699.01	17640.62
699.14	17694.45
699.27	17628.92
699.40	17511.89
699.54	17287.20
699.67	17088.25
699.80	17446.35
699.94	17198.26
700.07	17177.19
700.20	16999.31
700.34	16908.03
700.47	17018.04
700.60	16973.56
700.73	16695.04
700.87	16276.09
701.00	16332.26
701.13	16425.88
701.26	16468.01
701.40	16404.81
701.53	16240.98
701.66	15990.54
701.79	16042.03
701.93	15775.21
702.06	15274.34
702.19	15604.35
702.32	15749.46
702.46	15723.72
702.59	15627.76
702.72	15749.46
702.85	15449.88
702.99	15403.07
703.12	15080.07
703.25	15227.53
703.38	15028.58
703.51	15014.54
703.65	14848.36
703.78	14839.00
703.91	14609.62
704.04	14721.97
704.17	14448.13
704.31	14628.35
704.44	14380.25
704.57	14445.79
704.70	14272.59
704.83	14237.48
704.96	14160.24
705.10	14052.58
705.23	14129.81
>>>>>End Processed Spectral Data<<<<<
