SpectraSuite Data File
++++++++++++++++++++++++++++++++++++
Date: Fri Oct 25 11:34:30 EDT 2013
User: price-jones
Dark Spectrum Present: No
Reference Spectrum Present: No
Number of Sampled Component Spectra: 1
Spectrometers: USB2+H05261
Integration Time (usec): 100000 (USB2+H05261)
Spectra Averaged: 1 (USB2+H05261)
Boxcar Smoothing: 0 (USB2+H05261)
Correct for Electrical Dark: No (USB2+H05261)
Strobe/Lamp Enabled: No (USB2+H05261)
Correct for Detector Non-linearity: No (USB2+H05261)
Correct for Stray Light: No (USB2+H05261)
Number of Pixels in Processed Spectrum: 2048
>>>>>Begin Processed Spectral Data<<<<<
365.73	353.42
365.92	353.42
366.12	353.42
366.32	166.18
366.52	154.48
366.72	234.05
366.91	114.69
367.11	128.73
367.31	110.01
367.51	135.75
367.70	154.48
367.90	182.56
368.10	187.24
368.30	175.54
368.49	177.88
368.69	285.55
368.89	191.92
369.09	184.90
369.28	262.14
369.48	234.05
369.68	234.05
369.87	297.25
370.07	290.23
370.27	212.99
370.47	348.74
370.66	470.45
370.86	484.49
371.06	521.94
371.25	587.47
371.45	512.58
371.65	535.98
371.84	533.64
372.04	552.37
372.24	594.50
372.44	517.26
372.63	533.64
372.83	545.34
373.03	573.43
373.22	538.32
373.42	545.34
373.62	594.50
373.81	650.67
374.01	645.99
374.21	688.12
374.40	617.90
374.60	653.01
374.79	585.13
374.99	664.71
375.19	702.16
375.38	725.57
375.58	685.78
375.78	692.80
375.97	657.69
376.17	685.78
376.37	653.01
376.56	676.41
376.76	727.91
376.95	613.22
377.15	653.01
377.35	788.76
377.54	648.33
377.74	643.65
377.93	648.33
378.13	648.33
378.33	697.48
378.52	751.31
378.72	713.86
378.91	688.12
379.11	697.48
379.31	711.52
379.50	697.48
379.70	683.44
379.89	809.83
380.09	706.84
380.28	739.61
380.48	734.93
380.68	704.50
380.87	664.71
381.07	765.36
381.26	793.44
381.46	716.20
381.65	753.65
381.85	716.20
382.04	772.38
382.24	779.40
382.43	650.67
382.63	788.76
382.83	765.36
383.02	784.08
383.22	828.55
383.41	770.04
383.61	777.06
383.80	809.83
384.00	844.93
384.19	774.72
384.39	774.72
384.58	739.61
384.78	746.63
384.97	748.97
385.17	833.23
385.36	784.08
385.56	898.77
385.75	858.98
385.95	795.78
386.14	861.32
386.34	816.85
386.53	816.85
386.72	821.53
386.92	854.30
387.11	851.96
387.31	940.90
387.50	842.59
387.70	842.59
387.89	844.93
388.09	851.96
388.28	875.36
388.48	842.59
388.67	940.90
388.86	882.38
389.06	924.51
389.25	866.00
389.45	957.28
389.64	947.92
389.84	936.21
390.03	990.05
390.22	903.45
390.42	922.17
390.61	1046.22
390.81	940.90
391.00	959.62
391.19	1027.50
391.39	926.85
391.58	903.45
391.78	964.30
391.97	954.94
392.16	1062.60
392.36	1027.50
392.55	1027.50
392.75	997.07
392.94	968.98
393.13	1111.75
393.33	1022.81
393.52	1102.39
393.71	1029.84
393.91	1048.56
394.10	961.96
394.29	1020.47
394.49	1069.62
394.68	1071.97
394.88	1107.07
395.07	1132.82
395.26	1132.82
395.46	1114.10
395.65	1100.05
395.84	1097.71
396.04	1228.78
396.23	1184.31
396.42	1086.01
396.62	1163.25
396.81	1200.69
397.00	1057.92
397.19	1268.57
397.39	1151.54
397.58	1217.08
397.77	1240.48
397.97	1306.02
398.16	1249.85
398.35	1261.55
398.55	1188.99
398.74	1224.10
398.93	1308.36
399.12	1306.02
399.32	1217.08
399.51	1280.27
399.70	1282.61
399.90	1287.29
400.09	1266.23
400.28	1380.92
400.47	1299.00
400.67	1423.05
400.86	1289.64
401.05	1320.06
401.24	1406.66
401.44	1299.00
401.63	1357.51
401.82	1437.09
402.01	1380.92
402.21	1348.15
402.40	1441.77
402.59	1434.75
402.78	1401.98
402.97	1526.03
403.17	1497.94
403.36	1504.96
403.55	1467.52
403.74	1654.76
403.93	1549.43
404.13	1572.84
404.32	1598.59
404.51	1535.39
404.70	1582.20
404.89	1603.27
405.09	1717.95
405.28	1577.52
405.47	1626.67
405.66	1631.35
405.85	1577.52
406.05	1708.59
406.24	1666.46
406.43	1654.76
406.62	1722.63
406.81	1757.74
407.00	1668.80
407.20	1736.68
407.39	1764.76
407.58	1741.36
407.77	1792.85
407.96	1689.87
408.15	1722.63
408.34	1739.02
408.54	1816.26
408.73	1849.02
408.92	1872.43
409.11	1783.49
409.30	1785.83
409.49	1809.23
409.68	1802.21
409.87	1973.07
410.07	1886.47
410.26	1952.01
410.45	1942.64
410.64	2003.50
410.83	2052.65
411.02	2015.20
411.21	2125.21
411.40	2038.61
411.59	2160.31
411.78	1987.11
411.98	2155.63
412.17	2181.38
412.36	2136.91
412.55	2141.59
412.74	2298.41
412.93	2214.15
413.12	2272.66
413.31	2338.20
413.50	2267.98
413.69	2251.60
413.88	2296.07
414.07	2319.47
414.26	2410.75
414.45	2396.71
414.64	2434.16
414.83	2562.89
415.02	2525.44
415.22	2583.95
415.41	2532.46
415.60	2469.27
415.79	2518.42
415.98	2710.34
416.17	2609.70
416.36	2607.36
416.55	2605.02
416.74	2675.23
416.93	2752.47
417.12	2635.44
417.31	2717.36
417.50	2726.72
417.69	2862.48
417.88	2895.24
418.07	2822.69
418.26	2773.53
418.45	2904.60
418.64	2918.65
418.83	2892.90
419.02	2986.52
419.21	3038.02
419.39	3030.99
419.58	2939.71
419.77	2946.73
419.96	2904.60
420.15	3169.09
420.34	2963.12
420.53	3056.74
420.72	2974.82
420.91	3115.25
421.10	3148.02
421.29	3150.36
421.48	2974.82
421.67	3194.83
421.86	3199.51
422.05	3187.81
422.24	3197.17
422.43	3248.66
422.61	3239.30
422.80	3272.07
422.99	3286.11
423.18	3201.85
423.37	3269.73
423.56	3094.19
423.75	3297.81
423.94	3222.92
424.13	3038.02
424.32	3145.68
424.50	3222.92
424.69	3426.54
424.88	3417.18
425.07	3180.79
425.26	3426.54
425.45	3279.09
425.64	3300.16
425.83	3302.50
426.01	3421.86
426.20	3248.66
426.39	3304.84
426.58	3382.07
426.77	3363.35
426.96	3426.54
427.15	3506.12
427.33	3508.46
427.52	3382.07
427.71	3452.29
427.90	3426.54
428.09	3463.99
428.28	3508.46
428.46	3541.23
428.65	3492.08
428.84	3513.14
429.03	3707.41
429.22	3574.00
429.40	3590.38
429.59	3698.05
429.78	3461.65
429.97	3445.27
430.16	3538.89
430.34	3719.11
430.53	3707.41
430.72	3688.68
430.91	3714.43
431.10	3625.49
431.28	3833.80
431.47	3925.08
431.66	3796.35
431.85	3714.43
432.03	3873.59
432.22	3819.75
432.41	3941.46
432.60	3941.46
432.79	3999.98
432.97	3817.41
433.16	3983.59
433.35	3915.72
433.54	4229.35
433.72	3922.74
433.91	4081.89
434.10	4175.52
434.28	3955.51
434.47	4105.30
434.66	4056.15
434.85	4168.49
435.03	4191.90
435.22	4086.58
435.41	4337.01
435.59	4152.11
435.78	4285.52
435.97	4217.65
436.16	4250.41
436.34	4217.65
436.53	4255.09
436.72	4421.27
436.90	4379.14
437.09	4299.56
437.28	4255.09
437.46	4203.60
437.65	4320.63
437.84	4337.01
438.02	4519.57
438.21	4484.47
438.40	4304.25
438.58	4533.62
438.77	4552.34
438.96	4568.73
439.14	4528.94
439.33	4657.67
439.52	4690.43
439.70	4671.71
439.89	4875.34
440.08	5008.75
440.26	4767.67
440.45	4734.90
440.63	4908.10
440.82	5013.43
441.01	4741.93
441.19	5050.88
441.38	5064.92
441.57	5116.41
441.75	5011.09
441.94	5224.08
442.12	5179.61
442.31	5308.34
442.50	5160.88
442.68	5224.08
442.87	5170.24
443.05	5282.59
443.24	5446.43
443.43	5315.36
443.61	5331.74
443.80	5348.12
443.98	5210.03
444.17	5263.86
444.35	5390.25
444.54	5462.81
444.73	5404.30
444.91	5411.32
445.10	5425.36
445.28	5427.70
445.47	5343.44
445.65	5418.34
445.84	5334.08
446.02	5437.06
446.21	5336.42
446.39	5287.27
446.58	5664.10
446.77	5572.82
446.95	5329.40
447.14	5577.50
447.32	5481.53
447.51	5511.96
447.69	5418.34
447.88	5446.43
448.06	5603.24
448.25	5439.40
448.43	5631.33
448.62	5481.53
448.80	5434.72
448.99	5547.07
449.17	5734.31
449.36	5469.83
449.54	5675.80
449.73	5727.29
449.91	5804.53
450.10	5706.23
450.28	5928.58
450.46	5877.09
450.65	5795.17
450.83	5816.23
451.02	5867.72
451.20	6066.67
451.39	5886.45
451.57	6071.35
451.76	5865.38
451.94	5837.30
452.13	6118.16
452.31	6015.18
452.49	6001.13
452.68	6029.22
452.86	6001.13
453.05	6083.05
453.23	6164.97
453.42	6076.03
453.60	6059.65
453.78	6324.13
453.97	6153.27
454.15	6183.70
454.34	6080.71
454.52	6333.49
454.70	6328.81
454.89	6258.59
455.07	6363.92
455.26	6225.82
455.44	6476.26
455.62	6438.81
455.81	6452.86
455.99	6242.21
456.17	6520.73
456.36	6679.89
456.54	6532.44
456.73	6665.85
456.91	6817.98
457.09	6569.88
457.28	6848.41
457.46	6579.25
457.64	6782.87
457.83	6787.55
458.01	6693.93
458.19	6745.42
458.38	6771.17
458.56	6864.79
458.74	6794.58
458.93	6958.41
459.11	6913.94
459.29	7054.37
459.48	7005.22
459.66	6963.09
459.84	7208.85
460.03	7192.47
460.21	7307.15
460.39	7201.83
460.57	6993.52
460.76	7248.64
460.94	7075.44
461.12	7304.81
461.31	7145.66
461.49	7337.58
461.67	7094.16
461.85	7391.41
462.04	7103.53
462.22	7644.19
462.40	7538.87
462.59	7426.52
462.77	7307.15
462.95	7620.78
463.13	7496.74
463.32	7337.58
463.50	7613.76
463.68	7686.32
463.86	7747.17
464.05	7499.08
464.23	7693.34
464.41	7616.10
464.59	7468.65
464.78	7873.56
464.96	7470.99
465.14	7712.07
465.32	7882.92
465.50	7674.62
465.69	7793.98
465.87	7613.76
466.05	7796.32
466.23	7676.96
466.41	7880.58
466.60	7997.61
466.78	7662.91
466.96	7873.56
467.14	7920.37
467.32	7735.47
467.51	8056.12
467.69	7829.09
467.87	7901.65
468.05	8011.65
468.23	7960.16
468.41	8112.30
468.60	8154.43
468.78	7953.14
468.96	8025.70
469.14	8135.70
469.32	8283.16
469.50	8088.89
469.69	8250.39
469.87	8329.97
470.05	8505.51
470.23	8383.80
470.41	8449.33
470.59	8428.27
470.77	8454.02
470.95	8601.47
471.14	8568.70
471.32	8437.63
471.50	8606.15
471.68	8587.43
471.86	8744.24
472.04	8704.45
472.22	8765.31
472.40	9004.04
472.58	8753.60
472.77	8802.75
472.95	8975.95
473.13	9179.58
473.31	8940.85
473.49	9048.51
473.67	8999.36
473.85	9121.07
474.03	9224.05
474.21	9277.88
474.39	9502.58
474.57	9233.41
474.75	9497.89
474.93	9418.32
475.12	9565.77
475.30	9565.77
475.48	9446.40
475.66	9643.01
475.84	9348.10
476.02	9886.42
476.20	9781.10
476.38	9788.12
476.56	10204.74
476.74	10090.05
476.92	9881.74
477.10	9996.43
477.28	10211.76
477.46	10174.31
477.64	10382.62
477.82	10583.90
478.00	10609.65
478.18	10623.69
478.36	10843.70
478.54	10874.13
478.72	11000.52
478.90	11077.76
479.08	11297.77
479.26	11162.01
479.44	11047.33
479.62	11166.70
479.80	11356.28
479.98	11239.25
480.16	11838.43
480.34	11548.20
480.52	11932.05
480.70	11925.03
480.88	11634.80
481.06	11946.09
481.24	11908.65
481.41	12135.68
481.59	12248.02
481.77	12498.46
481.95	12339.30
482.13	12554.63
482.31	12538.25
482.49	12711.45
482.67	12594.42
482.85	13006.36
483.03	12954.87
483.21	13172.54
483.39	13392.55
483.57	13050.83
483.74	13212.32
483.92	13357.44
484.10	13437.02
484.28	13652.34
484.46	13762.35
484.64	14347.48
484.82	13795.12
485.00	14099.39
485.18	14384.93
485.35	14267.91
485.53	14279.61
485.71	14497.28
485.89	14696.22
486.07	14757.08
486.25	14871.76
486.43	14904.53
486.61	14977.09
486.78	15157.31
486.96	15293.06
487.14	15197.10
487.32	15272.00
487.50	15646.48
487.68	15667.55
487.85	15957.77
488.03	15859.47
488.21	16297.15
488.39	16079.48
488.57	16353.32
488.75	16592.06
488.92	16575.67
489.10	16840.15
489.28	16617.80
489.46	17095.27
489.64	16760.58
489.81	17334.01
489.99	17451.03
490.17	17200.60
490.35	17797.43
490.53	17778.71
490.70	18038.51
490.88	17961.27
491.06	18300.65
491.24	18174.26
491.41	18040.85
491.59	18286.61
491.77	18642.37
491.95	18537.04
492.13	18932.59
492.30	18565.13
492.48	18738.33
492.66	18930.25
492.84	18986.43
493.01	19201.76
493.19	19173.67
493.37	19047.28
493.54	19405.38
493.72	19885.19
493.90	19728.38
494.08	19857.10
494.25	19768.16
494.43	19943.70
494.61	20119.24
494.79	20154.35
494.96	20163.72
495.14	20645.87
495.32	20917.37
495.49	20704.38
495.67	20985.24
495.85	21076.52
496.02	21270.79
496.20	21371.43
496.38	21729.53
496.55	21371.43
496.73	21958.91
496.91	21633.57
497.09	22031.46
497.26	21986.99
497.44	21876.99
497.62	22054.87
497.79	22398.93
497.97	22394.25
498.14	22338.07
498.32	22693.83
498.50	22663.41
498.67	23417.06
498.85	22647.02
499.03	22995.76
499.20	23084.70
499.38	23285.99
499.56	23211.09
499.73	23365.57
499.91	23381.95
500.08	23377.27
500.26	23623.03
500.44	23421.74
500.61	23899.21
500.79	23585.58
500.97	24091.13
501.14	24056.03
501.32	23836.02
501.49	23864.10
501.67	23885.17
501.84	24339.23
502.02	24219.86
502.20	24266.67
502.37	24648.18
502.55	24547.54
502.72	24746.48
502.90	24968.84
503.07	24837.76
503.25	24762.87
503.43	24875.21
503.60	25053.09
503.78	25109.27
503.95	25085.86
504.13	25371.41
504.30	25490.77
504.48	25294.17
504.65	25268.42
504.83	25937.82
505.01	25799.73
505.18	25781.00
505.36	26274.85
505.53	25820.79
505.71	25982.29
505.88	26143.78
506.06	26190.59
506.23	26352.09
506.41	26169.53
506.58	26565.08
506.76	26579.12
506.93	27122.13
507.11	26408.26
507.28	27124.47
507.46	26911.48
507.63	27133.83
507.81	26899.78
507.98	26972.33
508.16	27339.80
508.33	27285.97
508.50	27410.01
508.68	27431.08
508.85	27639.39
509.03	27866.42
509.20	27667.47
509.38	28109.83
509.55	28030.26
509.73	28173.03
509.90	27934.29
510.08	27765.78
510.25	28301.76
510.42	27857.06
510.60	27718.96
510.77	28231.54
510.95	28924.34
511.12	28435.17
511.30	28568.58
511.47	28360.27
511.64	28931.36
511.82	28907.96
511.99	28917.32
512.17	29137.33
512.34	28889.23
512.51	29380.74
512.69	29652.25
512.86	29488.41
513.04	29785.66
513.21	29579.69
513.38	29743.53
513.56	29764.59
513.73	29806.72
513.90	29888.64
514.08	29858.21
514.25	29816.08
514.43	30108.65
514.60	29902.68
514.77	30443.35
514.95	30122.69
515.12	30543.99
515.29	30146.10
515.47	30588.46
515.64	30366.11
515.81	30604.84
515.99	30771.02
516.16	31058.91
516.33	30941.88
516.51	31021.46
516.68	30864.64
516.85	31367.86
517.03	31091.68
517.20	31098.70
517.37	31393.61
517.54	31185.30
517.72	31723.62
517.89	31489.57
518.06	31777.45
518.24	31646.38
518.41	31314.03
518.58	31349.14
518.75	31379.56
518.93	31917.89
519.10	31814.90
519.27	32151.94
519.45	32074.70
519.62	31971.72
519.79	32182.37
519.96	32030.23
520.14	32247.90
520.31	32203.43
520.48	32460.89
520.65	32762.82
520.83	33305.82
521.00	32889.21
521.17	32938.36
521.34	32746.44
521.52	32907.93
521.69	32989.85
521.86	32994.53
522.03	33261.35
522.20	33582.01
522.38	33333.91
522.55	33357.32
522.72	33244.97
522.89	33479.02
523.07	33795.00
523.24	33319.87
523.41	34113.31
523.58	33509.45
523.75	34143.74
523.92	33951.81
524.10	34148.42
524.27	34003.30
524.44	33991.60
524.61	34054.79
524.78	34188.21
524.96	34314.59
525.13	34326.30
525.30	34852.92
525.47	34576.73
525.64	34658.65
525.81	34562.69
525.98	34822.49
526.16	34628.23
526.33	34841.21
526.50	35297.62
526.67	34831.85
526.84	34892.71
527.01	34794.40
527.18	35077.61
527.36	34930.16
527.53	35194.64
527.70	35353.79
527.87	35519.97
528.04	35325.71
528.21	35161.87
528.38	35414.65
528.55	35395.92
528.72	35447.41
528.89	35234.42
529.07	35615.93
529.24	35278.89
529.41	35704.87
529.58	35700.19
529.75	36065.31
529.92	36098.08
530.09	36268.94
530.26	36201.07
530.43	36383.63
530.60	36086.38
530.77	36215.11
530.94	35992.76
531.11	35686.15
531.28	36297.03
531.46	36105.10
531.63	36467.89
531.80	36549.81
531.97	36760.45
532.14	36542.78
532.31	36814.29
532.48	36769.82
532.65	36807.26
532.82	36697.26
532.99	36973.44
533.16	37137.28
533.33	37064.72
533.50	37053.02
533.67	36734.71
533.84	36730.03
534.01	37048.34
534.18	37411.12
534.35	37385.38
534.52	37357.29
534.69	37858.17
534.86	37436.87
535.03	37141.96
535.20	37495.38
535.37	37703.69
535.54	37851.14
535.71	37780.93
535.88	37794.97
536.05	37907.32
536.22	37694.33
536.38	37902.64
536.55	38061.79
536.72	37923.70
536.89	37986.89
537.06	38045.41
537.23	38284.14
537.40	38169.46
537.57	38227.97
537.74	38286.48
537.91	38440.96
538.08	38368.40
538.25	37773.91
538.42	38384.79
538.59	39117.37
538.75	38436.28
538.92	38785.02
539.09	39360.79
539.26	38380.10
539.43	38532.24
539.60	38370.74
539.77	38677.35
539.94	38962.90
540.11	39089.29
540.28	38902.04
540.44	38693.74
540.61	38712.46
540.78	38850.55
540.95	38967.58
541.12	39168.87
541.29	39075.24
541.46	39711.87
541.62	39185.25
541.79	39346.75
541.96	38862.26
542.13	39426.32
542.30	38974.60
542.47	39613.57
542.63	39592.50
542.80	39700.17
542.97	40224.45
543.14	40112.10
543.31	39814.85
543.48	39634.63
543.64	40502.97
543.81	40161.25
543.98	40133.17
544.15	39995.07
544.32	40362.54
544.48	40514.67
544.65	40418.71
544.82	40325.09
544.99	40259.55
545.16	40575.53
545.32	40514.67
545.49	40865.75
545.66	40795.54
545.83	40840.01
546.00	40671.49
546.16	41031.93
546.33	40605.95
546.50	40638.72
546.67	40931.29
546.83	40151.89
547.00	40739.36
547.17	40865.75
547.34	40711.28
547.50	41085.76
547.67	41265.99
547.84	41193.43
548.00	41432.16
548.17	41242.58
548.34	41275.35
548.51	41387.69
548.67	41738.77
548.84	41780.90
549.01	41368.97
549.18	41425.14
549.34	41343.22
549.51	41521.10
549.68	41794.95
549.84	41897.93
550.01	41689.62
550.18	41317.48
550.34	41560.89
550.51	41626.43
550.68	41752.82
550.84	41006.19
551.01	41860.48
551.18	42012.62
551.34	41670.90
551.51	42038.36
551.68	41907.29
551.84	42033.68
552.01	41790.27
552.18	41874.52
552.34	41940.06
552.51	42106.24
552.68	42265.39
552.84	41991.55
553.01	42384.76
553.18	42204.54
553.34	42473.70
553.51	42143.69
553.67	42146.03
553.84	42756.91
554.01	42251.35
554.17	42609.45
554.34	42658.60
554.51	42401.14
554.67	42471.36
554.84	42815.42
555.00	42969.90
555.17	42628.18
555.33	42752.23
555.50	42745.20
555.67	42635.20
555.83	43320.98
556.00	42995.64
556.16	43339.70
556.33	42670.31
556.50	43175.86
556.66	43033.09
556.83	42904.36
556.99	42976.92
557.16	43515.24
557.32	42852.87
557.49	43222.67
557.65	42864.57
557.82	43290.55
557.98	42513.49
558.15	43267.14
558.32	43395.87
558.48	42986.28
558.65	42892.66
558.81	43409.92
558.98	43178.20
559.14	42834.14
559.31	43407.58
559.47	43503.54
559.64	43723.55
559.80	43445.02
559.97	43386.51
560.13	43264.80
560.30	43559.71
560.46	43873.34
560.63	43430.98
560.79	44006.75
560.96	43828.87
561.12	43557.37
561.29	43615.88
561.45	43796.10
561.61	43702.48
561.78	43903.77
561.94	43672.06
562.11	43555.03
562.27	43646.31
562.44	43711.84
562.60	44083.99
562.77	44334.43
562.93	43803.13
563.10	44083.99
563.26	43583.12
563.42	44194.00
563.59	43775.04
563.75	43693.12
563.92	44081.65
564.08	44025.48
564.24	44346.13
564.41	44037.18
564.57	44467.84
564.74	43810.15
564.90	43983.35
565.07	44121.44
565.23	43608.86
565.39	44275.91
565.56	44208.04
565.72	44081.65
565.88	44048.88
566.05	44137.82
566.21	43964.62
566.38	44385.92
566.54	44449.11
566.70	43992.71
566.87	44350.81
567.03	44304.00
567.19	44435.07
567.36	44643.38
567.52	44626.99
567.68	44514.65
567.85	44505.29
568.01	44580.18
568.17	44442.09
568.34	44378.90
568.50	44547.42
568.66	44479.54
568.83	44243.15
568.99	44123.78
569.15	44795.51
569.32	44580.18
569.48	44556.78
569.64	44877.43
569.81	44692.53
569.97	44601.25
570.13	44903.18
570.30	44533.37
570.46	45029.57
570.62	44868.07
570.78	45118.51
570.95	44655.08
571.11	44823.60
571.27	44802.53
571.43	44882.11
571.60	44463.16
571.76	44406.98
571.92	44299.32
572.09	44540.39
572.25	44641.04
572.41	44737.00
572.57	44589.55
572.74	44989.78
572.90	44542.74
573.06	45041.27
573.22	45172.34
573.38	44849.35
573.55	45214.47
573.71	45375.97
573.87	44931.26
574.03	45289.37
574.20	45017.86
574.36	45184.04
574.52	44643.38
574.68	44907.86
574.84	44999.14
575.01	45074.04
575.17	44938.29
575.33	44966.37
575.49	45214.47
575.65	45116.17
575.82	45102.12
575.98	45125.53
576.14	45757.47
576.30	45762.15
576.46	44999.14
576.62	44580.18
576.79	44783.81
576.95	45090.42
577.11	44636.36
577.27	45188.72
577.43	44968.71
577.59	44865.73
577.75	44912.54
577.92	44786.15
578.08	44945.31
578.24	45151.27
578.40	45698.96
578.56	45118.51
578.72	45549.17
578.88	45443.84
579.04	45289.37
579.21	44912.54
579.37	45380.65
579.53	45216.81
579.69	45483.63
579.85	45397.03
580.01	45123.19
580.17	45476.61
580.33	45095.10
580.49	45198.09
580.65	45368.94
580.82	45256.60
580.98	44959.35
581.14	44870.41
581.30	45570.23
581.46	45043.61
581.62	44678.49
581.78	45233.19
581.94	45869.82
582.10	44713.59
582.26	45408.73
582.42	45111.49
582.58	45460.23
582.74	45404.05
582.90	45481.29
583.06	45375.97
583.22	45120.85
583.38	45244.90
583.54	45415.76
583.70	45104.46
583.86	45617.04
584.02	45689.60
584.18	45729.39
584.34	45492.99
584.50	45111.49
584.66	45230.85
584.82	45497.67
584.98	45656.83
585.14	45930.67
585.30	45244.90
585.46	45310.43
585.62	45551.51
585.78	45551.51
585.94	44877.43
586.10	45160.64
586.26	45038.93
586.42	45160.64
586.58	45591.30
586.74	45392.35
586.90	45448.52
587.06	45757.47
587.22	45483.63
587.38	45284.68
587.54	46153.02
587.70	45869.82
587.86	45617.04
588.02	45448.52
588.18	45560.87
588.34	44982.76
588.49	45439.16
588.65	45230.85
588.81	45628.74
588.97	45612.36
589.13	45570.23
589.29	45207.45
589.45	45514.06
589.61	46000.89
589.77	46089.83
589.93	45603.00
590.08	45727.05
590.24	45808.96
590.40	45202.77
590.56	46316.86
590.72	45621.72
590.88	46071.10
591.04	45647.47
591.20	45872.16
591.35	45848.75
591.51	46248.99
591.67	45844.07
591.83	46218.56
591.99	46167.07
592.15	45778.54
592.31	45734.07
592.46	45879.18
592.62	45806.62
592.78	46300.48
592.94	45876.84
593.10	46169.41
593.26	46089.83
593.41	46497.08
593.57	46050.04
593.73	45982.16
593.89	46265.37
594.05	46153.02
594.20	45928.33
594.36	46567.30
594.52	46696.03
594.68	46195.15
594.84	45811.31
594.99	46176.43
595.15	46085.15
595.31	46349.63
595.47	45785.56
595.62	46202.18
595.78	45991.53
595.94	46281.75
596.10	46087.49
596.25	45989.19
596.41	46195.15
596.57	45944.72
596.73	46469.00
596.88	45860.46
597.04	46059.40
597.20	46279.41
597.36	46101.53
597.51	46775.61
597.67	46059.40
597.83	46146.00
597.99	46251.33
598.14	46216.22
598.30	46342.61
598.46	46124.94
598.61	46389.42
598.77	46028.98
598.93	45956.42
599.09	46178.77
599.24	46658.58
599.40	46387.08
599.56	46054.72
599.71	46361.33
599.87	46447.93
600.03	46705.39
600.18	46539.21
600.34	46373.03
600.50	46241.96
600.65	46248.99
600.81	46375.37
600.97	46251.33
601.12	46263.03
601.28	46190.47
601.44	46216.22
601.59	45645.13
601.75	46110.89
601.91	46667.94
602.06	45937.69
602.22	46787.31
602.37	46354.31
602.53	46227.92
602.69	46454.95
602.84	46237.28
603.00	46014.93
603.16	46227.92
603.31	46485.38
603.47	46763.90
603.62	46108.55
603.78	46293.46
603.94	46206.86
604.09	46499.42
604.25	46019.61
604.40	46092.17
604.56	46429.21
604.71	47040.09
604.87	46366.01
605.03	45996.21
605.18	46220.90
605.34	46726.46
605.49	46014.93
605.65	46487.72
605.80	46143.66
605.96	46019.61
606.12	46288.77
606.27	46635.17
606.43	45961.10
606.58	46787.31
606.74	46391.76
606.89	46071.10
607.05	46335.59
607.20	46433.89
607.36	46141.32
607.51	46066.42
607.67	46064.08
607.82	46267.71
607.98	45942.38
608.13	46017.27
608.29	45928.33
608.44	46513.47
608.60	46075.79
608.75	46473.68
608.91	45591.30
609.06	45537.46
609.22	45815.99
609.37	45853.44
609.53	46075.79
609.68	46206.86
609.84	45806.62
609.99	45993.87
610.15	45780.88
610.30	45851.09
610.46	45617.04
610.61	46054.72
610.76	46248.99
610.92	45975.14
611.07	45500.01
611.23	45874.50
611.38	46096.85
611.54	45834.71
611.69	46284.09
611.84	45804.28
612.00	45631.08
612.15	45591.30
612.31	45970.46
612.46	45394.69
612.62	45968.12
612.77	45579.59
612.92	46244.30
613.08	45815.99
613.23	45642.79
613.39	45432.14
613.54	45333.84
613.69	45759.81
613.85	45464.91
614.00	45593.64
614.15	45558.53
614.31	45614.70
614.46	45141.91
614.62	45359.58
614.77	45361.92
614.92	45476.61
615.08	45551.51
615.23	45918.97
615.38	45404.05
615.54	45392.35
615.69	45804.28
615.84	45406.39
616.00	45390.01
616.15	45420.44
616.30	45778.54
616.46	45467.25
616.61	45338.52
616.76	45710.66
616.92	45308.09
617.07	45542.14
617.22	45338.52
617.37	44828.28
617.53	45705.98
617.68	45078.72
617.83	45408.73
617.99	45481.29
618.14	45401.71
618.29	45130.21
618.45	45074.04
618.60	45268.30
618.75	44554.44
618.90	45263.62
619.06	44498.26
619.21	45422.78
619.36	45364.26
619.51	44961.69
619.67	44605.93
619.82	45078.72
619.97	44968.71
620.12	45024.89
620.28	45411.07
620.43	45333.84
620.58	44760.40
620.73	45081.06
620.89	45422.78
621.04	45375.97
621.19	44793.17
621.34	44673.81
621.49	44470.18
621.65	44732.32
621.80	44830.62
621.95	44861.05
622.10	44919.56
622.25	44692.53
622.41	44828.28
622.56	44641.04
622.71	44570.82
622.86	44767.43
623.01	44891.48
623.16	44472.52
623.32	44566.14
623.47	44435.07
623.62	44282.94
623.77	44435.07
623.92	44893.82
624.07	44250.17
624.23	44484.22
624.38	44472.52
624.53	44212.72
624.68	43983.35
624.83	44233.78
624.98	44282.94
625.13	44273.57
625.29	44318.04
625.44	44364.85
625.59	43983.35
625.74	44133.14
625.89	43704.82
626.04	43910.79
626.19	44238.47
626.34	43838.23
626.49	43868.66
626.65	43856.96
626.80	44177.61
626.95	43700.14
627.10	43627.59
627.25	44093.35
627.40	44041.86
627.55	43732.91
627.70	43784.40
627.85	44100.37
628.00	43871.00
628.15	43756.32
628.30	43189.91
628.45	43426.30
628.60	43370.13
628.76	43629.93
628.91	43576.09
629.06	43208.63
629.21	43199.27
629.36	43288.21
629.51	43428.64
629.66	44172.93
629.81	43737.59
629.96	43655.67
630.11	43398.21
630.26	43571.41
630.41	43379.49
630.56	43440.34
630.71	43281.19
630.86	43643.97
631.01	43178.20
631.16	42803.72
631.31	43531.62
631.46	43323.32
631.61	43442.68
631.76	43316.29
631.91	43311.61
632.06	43894.41
632.21	43435.66
632.36	43136.07
632.51	43012.02
632.66	43468.43
632.81	42787.33
632.96	43002.66
633.10	42782.65
633.25	42806.06
633.40	43124.37
633.55	43264.80
633.70	42848.19
633.85	42775.63
634.00	42429.23
634.15	42644.56
634.30	42740.52
634.45	42595.41
634.60	42717.12
634.75	42927.77
634.90	42913.72
635.05	42775.63
635.19	42698.39
635.34	42256.03
635.49	42511.15
635.64	42777.97
635.79	42859.89
635.94	42614.13
636.09	42820.10
636.24	42597.75
636.39	42295.82
636.53	42265.39
636.68	41914.31
636.83	42305.18
636.98	41741.11
637.13	42319.23
637.28	41935.38
637.43	41750.48
637.57	42672.65
637.72	42131.98
637.87	42223.26
638.02	42340.29
638.17	41926.02
638.32	42300.50
638.46	41865.16
638.61	41844.10
638.76	41808.99
638.91	41783.24
639.06	41930.70
639.20	41659.20
639.35	42033.68
639.50	41310.46
639.65	41823.03
639.80	42234.97
639.94	42447.96
640.09	41757.50
640.24	41956.44
640.39	41439.18
640.54	41614.72
640.68	41787.92
640.83	42192.84
640.98	41535.15
641.13	41345.56
641.27	41755.16
641.42	41265.99
641.57	41186.41
641.72	41947.08
641.86	41404.08
642.01	41296.41
642.16	41631.11
642.31	41277.69
642.45	41757.50
642.60	41188.75
642.75	41212.15
642.90	41586.64
643.04	41158.32
643.19	41134.92
643.34	41488.34
643.48	40950.01
643.63	40982.78
643.78	40861.07
643.93	41191.09
644.07	41380.67
644.22	41261.30
644.37	41034.27
644.51	41165.34
644.66	41539.83
644.81	41048.32
644.95	41352.58
645.10	41174.70
645.25	41008.53
645.39	41085.76
645.54	40830.65
645.69	40627.02
645.83	40222.11
645.98	40732.34
646.13	40449.14
646.27	40919.59
646.42	40467.86
646.57	41186.41
646.71	41139.60
646.86	40893.84
647.00	40802.56
647.15	41017.89
647.30	41024.91
647.44	41008.53
647.59	40690.21
647.74	40722.98
647.88	40854.05
648.03	41212.15
648.17	40594.25
648.32	40758.09
648.47	40795.54
648.61	40435.10
648.76	40187.00
648.90	40629.36
649.05	40336.79
649.20	40655.11
649.34	40753.41
649.49	40732.34
649.63	40261.90
649.78	40580.21
649.92	40407.01
650.07	40882.14
650.21	40945.33
650.36	40332.11
650.51	40011.46
650.65	40266.58
650.80	40240.83
650.94	40177.64
651.09	40002.10
651.23	39679.10
651.38	40245.51
651.52	40191.68
651.67	39861.66
651.81	39861.66
651.96	40194.02
652.10	39533.99
652.25	39707.19
652.39	39725.91
652.54	39856.98
652.68	39936.56
652.83	39531.65
652.97	40133.17
653.12	39833.58
653.26	39775.06
653.41	39723.57
653.55	39924.86
653.70	39779.74
653.84	40069.97
653.99	39791.45
654.13	39995.07
654.27	39253.12
654.42	39337.38
654.56	39335.04
654.71	39601.86
654.85	39793.79
655.00	39746.98
655.14	39775.06
655.29	39569.10
655.43	39445.05
655.57	39285.89
655.72	39115.03
655.86	39229.72
656.01	39194.61
656.15	39077.58
656.30	39423.98
656.44	38836.51
656.58	39618.25
656.73	39269.51
656.87	38632.88
657.01	38752.25
657.16	39119.71
657.30	38883.32
657.45	38967.58
657.59	38583.73
657.73	38522.88
657.88	38852.89
658.02	39126.74
658.16	39103.33
658.31	38801.40
658.45	38792.04
658.60	39019.07
658.74	38712.46
658.88	38789.70
659.03	38838.85
659.17	38178.82
659.31	37942.42
659.46	38679.69
659.60	38206.90
659.74	38518.20
659.89	38352.02
660.03	37914.34
660.17	38504.15
660.32	38066.47
660.46	37958.81
660.60	37628.79
660.74	37975.19
660.89	38415.21
661.03	37783.27
661.17	37982.21
661.32	38033.71
661.46	37970.51
661.60	37422.83
661.74	37621.77
661.89	37521.13
662.03	37750.50
662.17	37535.17
662.31	37610.07
662.46	37947.11
662.60	37118.56
662.74	37003.87
662.88	37088.13
663.03	37308.14
663.17	37010.89
663.31	37177.07
663.45	37511.77
663.60	37467.30
663.74	36856.42
663.88	37001.53
664.02	37116.22
664.17	37294.10
664.31	36865.78
664.45	36449.16
664.59	36727.69
664.73	36828.33
664.88	36617.68
665.02	36397.67
665.16	36613.00
665.30	36322.77
665.44	36842.37
665.59	36409.37
665.73	36301.71
665.87	35468.48
666.01	36421.08
666.15	36077.02
666.29	36156.60
666.44	36451.50
666.58	35756.36
666.72	35660.40
666.86	35864.03
667.00	36039.57
667.14	36027.87
667.28	35393.58
667.43	35763.39
667.57	35849.99
667.71	35728.28
667.85	35805.52
667.99	35440.39
668.13	35672.10
668.27	35035.48
668.41	35321.02
668.56	34904.41
668.70	34995.69
668.84	34871.64
668.98	35019.10
669.12	34668.02
669.26	34906.75
669.40	34845.90
669.54	34623.54
669.68	34733.55
669.82	34368.43
669.96	34230.33
670.10	34665.67
670.25	34398.85
670.39	34419.92
670.53	34497.16
670.67	34288.85
670.81	34553.33
670.95	34672.70
671.09	34157.78
671.23	34204.59
671.37	33993.94
671.51	33577.33
671.65	33687.33
671.79	33699.03
671.93	34010.32
672.07	34078.20
672.21	33656.90
672.35	33514.13
672.49	33631.16
672.63	33736.48
672.77	33556.26
672.91	33350.29
673.05	33450.94
673.19	33106.88
673.33	33008.58
673.47	33127.94
673.61	32694.94
673.75	32931.34
673.89	32849.42
674.03	32257.26
674.17	32070.02
674.31	32383.65
674.45	32500.68
674.59	32360.25
674.73	32442.17
674.87	32226.84
675.01	31873.42
675.15	32142.58
675.29	31793.84
675.43	31882.78
675.56	32329.82
675.70	31751.71
675.84	31302.32
675.98	30338.02
676.12	31531.70
676.26	31613.62
676.40	31248.49
676.54	31152.53
676.68	30593.14
676.82	30527.61
676.96	31386.58
677.10	31309.35
677.23	30967.63
677.37	31150.19
677.51	30586.12
677.65	30553.35
677.79	30525.27
677.93	30553.35
678.07	29855.87
678.21	30328.66
678.34	29701.40
678.48	29839.49
678.62	29661.61
678.76	29315.21
678.90	29455.64
679.04	29628.84
679.18	29680.33
679.31	29546.92
679.45	29249.67
679.59	29017.96
679.73	28996.90
679.87	29268.40
680.00	29069.45
680.14	28938.38
680.28	28975.83
680.42	28669.22
680.56	28472.62
680.70	28444.53
680.83	28147.28
680.97	28180.05
681.11	28362.61
681.25	28374.31
681.39	27880.46
681.52	27688.54
681.66	27770.46
681.80	27520.02
681.94	27599.60
682.07	27414.69
682.21	27534.06
682.35	27412.35
682.49	27515.34
682.62	27068.30
682.76	27187.66
682.90	27290.65
683.04	27215.75
683.17	26836.58
683.31	26785.09
683.45	26424.65
683.59	26335.71
683.72	26242.09
683.86	26195.28
684.00	26162.51
684.13	26190.59
684.27	26047.82
684.41	26089.95
684.55	25724.83
684.68	25752.91
684.82	25596.10
684.96	25596.10
685.09	25671.00
685.23	25593.76
685.37	25888.67
685.50	25844.20
685.64	25350.34
685.78	25263.74
685.91	25074.16
686.05	24496.05
686.19	24645.84
686.32	24779.25
686.46	24130.92
686.60	24362.64
686.73	24460.94
686.87	24479.66
687.01	24437.53
687.14	24245.61
687.28	24575.62
687.42	23850.06
687.55	23875.80
687.69	23917.93
687.82	23510.68
687.96	23489.62
688.10	23562.17
688.23	23559.83
688.37	23763.46
688.50	23819.63
688.64	23311.74
688.78	23037.89
688.91	23421.74
689.05	23384.29
689.18	22876.40
689.32	22391.91
689.46	22565.10
689.59	22558.08
689.73	22700.86
689.86	22824.90
690.00	22260.84
690.13	22424.67
690.27	22527.66
690.41	22476.16
690.54	21759.96
690.68	22038.48
690.81	21661.66
690.95	21647.61
691.08	21544.63
691.22	21490.80
691.35	21305.90
691.49	21692.08
691.62	21553.99
691.76	21263.77
691.89	20938.43
692.03	20889.28
692.16	20725.44
692.30	20898.64
692.43	20851.83
692.57	20482.03
692.70	20526.50
692.84	20247.97
692.97	20051.37
693.11	19920.30
693.24	20252.66
693.38	19957.75
693.51	20128.61
693.65	19859.45
693.78	19557.52
693.92	19875.83
694.05	19510.71
694.19	19887.53
694.32	19693.27
694.45	19676.88
694.59	19623.05
694.72	19489.64
694.86	19040.26
694.99	19407.72
695.13	18864.72
695.26	18827.27
695.39	18679.82
695.53	18869.40
695.66	18604.92
695.80	18888.12
695.93	18602.58
696.07	18532.36
696.20	18185.96
696.33	17811.48
696.47	18045.53
696.60	17792.75
696.73	17867.65
696.87	18302.99
697.00	17937.87
697.14	17638.28
697.27	17582.10
697.40	17612.53
697.54	17472.10
697.67	17579.76
697.80	17261.45
697.94	17343.37
698.07	17207.62
698.21	17184.21
698.34	17282.52
698.47	17018.04
698.61	16542.91
698.74	16765.26
698.87	16570.99
699.01	16306.51
699.14	16386.09
699.27	16489.07
699.40	16519.50
699.54	16175.44
699.67	16341.62
699.80	16456.31
699.94	16140.33
700.07	16236.30
700.20	16231.62
700.34	15768.19
700.47	15859.47
700.60	16276.09
700.73	15894.58
700.87	15812.66
701.00	15555.20
701.13	15374.98
701.26	15236.89
701.40	15681.59
701.53	14956.02
701.66	15204.12
701.79	15044.96
701.93	15070.71
702.06	14824.95
702.19	14675.16
702.32	14862.40
702.46	14738.35
702.59	14867.08
702.72	14960.70
702.85	14569.83
702.99	14670.48
703.12	14391.95
703.25	14361.53
703.38	14494.94
703.51	14061.94
703.65	14003.43
703.78	14043.21
703.91	13755.33
704.04	14029.17
704.17	13621.92
704.31	13607.87
704.44	13659.37
704.57	13657.03
704.70	13511.91
704.83	13549.36
704.96	13420.63
705.10	13305.95
705.23	13207.64
>>>>>End Processed Spectral Data<<<<<
