SpectraSuite Data File
++++++++++++++++++++++++++++++++++++
Date: Fri Oct 25 11:34:14 EDT 2013
User: price-jones
Dark Spectrum Present: No
Reference Spectrum Present: No
Number of Sampled Component Spectra: 1
Spectrometers: USB2+H05261
Integration Time (usec): 100000 (USB2+H05261)
Spectra Averaged: 1 (USB2+H05261)
Boxcar Smoothing: 0 (USB2+H05261)
Correct for Electrical Dark: No (USB2+H05261)
Strobe/Lamp Enabled: No (USB2+H05261)
Correct for Detector Non-linearity: No (USB2+H05261)
Correct for Stray Light: No (USB2+H05261)
Number of Pixels in Processed Spectrum: 2048
>>>>>Begin Processed Spectral Data<<<<<
365.73	358.10
365.92	358.10
366.12	358.10
366.32	222.35
366.52	182.56
366.72	187.24
366.91	131.07
367.11	205.97
367.31	180.22
367.51	175.54
367.70	224.69
367.90	210.65
368.10	86.60
368.30	147.45
368.49	182.56
368.69	175.54
368.89	182.56
369.09	194.26
369.28	220.01
369.48	250.44
369.68	250.44
369.87	276.18
370.07	231.71
370.27	269.16
370.47	339.38
370.66	543.00
370.86	421.30
371.06	587.47
371.25	561.73
371.45	596.84
371.65	580.45
371.84	592.16
372.04	540.66
372.24	564.07
372.44	622.58
372.63	587.47
372.83	613.22
373.03	688.12
373.22	629.60
373.42	601.52
373.62	585.13
373.81	596.84
374.01	676.41
374.21	704.50
374.40	713.86
374.60	674.07
374.79	655.35
374.99	617.90
375.19	669.39
375.38	627.26
375.58	744.29
375.78	678.76
375.97	683.44
376.17	655.35
376.37	613.22
376.56	734.93
376.76	620.24
376.95	655.35
377.15	737.27
377.35	671.73
377.54	643.65
377.74	641.31
377.93	702.16
378.13	809.83
378.33	641.31
378.52	685.78
378.72	734.93
378.91	737.27
379.11	699.82
379.31	643.65
379.50	765.36
379.70	683.44
379.89	816.85
380.09	636.63
380.28	763.01
380.48	718.54
380.68	800.46
380.87	723.23
381.07	779.40
381.26	692.80
381.46	798.12
381.65	772.38
381.85	725.57
382.04	812.17
382.24	798.12
382.43	720.88
382.63	688.12
382.83	772.38
383.02	781.74
383.22	880.04
383.41	809.83
383.61	741.95
383.80	828.55
384.00	830.89
384.19	833.23
384.39	866.00
384.58	875.36
384.78	809.83
384.97	856.64
385.17	847.27
385.36	863.66
385.56	828.55
385.75	887.06
385.95	812.17
386.14	919.83
386.34	847.27
386.53	910.47
386.72	889.40
386.92	924.51
387.11	880.04
387.31	947.92
387.50	873.02
387.70	950.26
387.89	882.38
388.09	901.11
388.28	959.62
388.48	863.66
388.67	854.30
388.86	868.34
389.06	807.48
389.25	929.19
389.45	894.08
389.64	957.28
389.84	978.34
390.03	997.07
390.22	929.19
390.42	1025.15
390.61	959.62
390.81	971.32
391.00	1004.09
391.19	931.53
391.39	959.62
391.58	1004.09
391.78	1029.84
391.97	999.41
392.16	1001.75
392.36	1013.45
392.55	1090.69
392.75	1039.20
392.94	940.90
393.13	992.39
393.33	1050.90
393.52	1100.05
393.71	1093.03
393.91	1104.73
394.10	992.39
394.29	1071.97
394.49	1018.13
394.68	1027.50
394.88	1144.52
395.07	1029.84
395.26	1142.18
395.46	1153.88
395.65	1273.25
395.84	1132.82
396.04	1188.99
396.23	1139.84
396.42	1181.97
396.62	1193.67
396.81	1186.65
397.00	1228.78
397.19	1151.54
397.39	1160.91
397.58	1301.34
397.77	1249.85
397.97	1338.79
398.16	1177.29
398.35	1247.51
398.55	1233.46
398.74	1277.93
398.93	1247.51
399.12	1310.70
399.32	1261.55
399.51	1313.04
399.70	1348.15
399.90	1289.64
400.09	1334.11
400.28	1359.85
400.47	1310.70
400.67	1437.09
400.86	1479.22
401.05	1383.26
401.24	1301.34
401.44	1345.81
401.63	1418.36
401.82	1420.71
402.01	1348.15
402.21	1387.94
402.40	1511.99
402.59	1383.26
402.78	1490.92
402.97	1483.90
403.17	1509.65
403.36	1476.88
403.55	1493.26
403.74	1563.48
403.93	1507.30
404.13	1563.48
404.32	1558.80
404.51	1626.67
404.70	1554.12
404.89	1570.50
405.09	1668.80
405.28	1666.46
405.47	1659.44
405.66	1650.08
405.85	1692.21
406.05	1579.86
406.24	1708.59
406.43	1767.10
406.62	1682.85
406.81	1825.62
407.00	1764.76
407.20	1708.59
407.39	1806.89
407.58	1748.38
407.77	1863.07
407.96	1891.15
408.15	1923.92
408.34	1694.55
408.54	1886.47
408.73	1895.83
408.92	1863.07
409.11	1937.96
409.30	1820.94
409.49	1942.64
409.68	2001.16
409.87	1940.30
410.07	2113.50
410.26	1973.07
410.45	1984.77
410.64	2052.65
410.83	2052.65
411.02	2040.95
411.21	2148.61
411.40	2047.97
411.59	2293.72
411.78	2148.61
411.98	2195.42
412.17	2223.51
412.36	2218.83
412.55	2188.40
412.74	2303.09
412.93	2319.47
413.12	2396.71
413.31	2328.83
413.50	2368.62
413.69	2356.92
413.88	2399.05
414.07	2375.64
414.26	2509.05
414.45	2438.84
414.64	2490.33
414.83	2562.89
415.02	2525.44
415.22	2612.04
415.41	2654.17
415.60	2520.76
415.79	2712.68
415.98	2628.42
416.17	2672.89
416.36	2698.64
416.55	2647.15
416.74	2789.92
416.93	2605.02
417.12	2761.83
417.31	2820.35
417.50	2715.02
417.69	2829.71
417.88	2733.75
418.07	2839.07
418.26	2986.52
418.45	2909.29
418.64	2981.84
418.83	2906.95
419.02	2883.54
419.21	3052.06
419.39	2977.16
419.58	3152.70
419.77	3023.97
419.96	3012.27
420.15	2979.50
420.34	3241.64
420.53	3159.72
420.72	3119.93
420.91	3236.96
421.10	3155.04
421.29	3178.45
421.48	3122.27
421.67	3117.59
421.86	3314.20
422.05	3346.97
422.24	3129.30
422.43	3185.47
422.61	3255.69
422.80	3459.31
422.99	3304.84
423.18	3368.03
423.37	3449.95
423.56	3349.31
423.75	3349.31
423.94	3286.11
424.13	3150.36
424.32	3316.54
424.50	3358.67
424.69	3321.22
424.88	3463.99
425.07	3370.37
425.26	3229.94
425.45	3475.70
425.64	3323.56
425.83	3253.34
426.01	3403.14
426.20	3590.38
426.39	3283.77
426.58	3332.92
426.77	3438.25
426.96	3445.27
427.15	3337.60
427.33	3536.55
427.52	3571.66
427.71	3466.33
427.90	3454.63
428.09	3545.91
428.28	3552.93
428.46	3595.06
428.65	3616.13
428.84	3698.05
429.03	3742.52
429.22	3496.76
429.40	3791.67
429.59	3676.98
429.78	3410.16
429.97	3461.65
430.16	3726.13
430.34	3623.15
430.53	3805.71
430.72	3824.44
430.91	3735.50
431.10	3669.96
431.28	3744.86
431.47	3920.40
431.66	3932.10
431.85	3805.71
432.03	3967.21
432.22	3904.01
432.41	3896.99
432.60	3955.51
432.79	4018.70
432.97	4025.72
433.16	4051.47
433.35	4063.17
433.54	4060.83
433.72	4009.34
433.91	4053.81
434.10	4023.38
434.28	4222.33
434.47	4149.77
434.66	4252.75
434.85	4140.41
435.03	4273.82
435.22	4273.82
435.41	4477.44
435.59	4266.80
435.78	4463.40
435.97	4243.39
436.16	4210.62
436.34	4257.43
436.53	4236.37
436.72	4416.59
436.90	4332.33
437.09	4486.81
437.28	4360.42
437.46	4283.18
437.65	4407.23
437.84	4351.06
438.02	4528.94
438.21	4454.04
438.40	4559.36
438.58	4704.48
438.77	4599.15
438.96	4636.60
439.14	4599.15
439.33	4667.03
439.52	4741.93
439.70	4851.93
439.89	4823.84
440.08	5055.56
440.26	4971.30
440.45	4877.68
440.63	4919.81
440.82	4966.62
441.01	4812.14
441.19	5160.88
441.38	5221.74
441.57	5095.35
441.75	5214.71
441.94	5350.46
442.12	5310.68
442.31	5383.23
442.50	5188.97
442.68	5128.11
442.87	5308.34
443.05	5483.88
443.24	5315.36
443.43	5467.49
443.61	5408.98
443.80	5458.13
443.98	5231.10
444.17	5245.14
444.35	5427.70
444.54	5565.79
444.73	5556.43
444.91	5593.88
445.10	5308.34
445.28	5453.45
445.47	5563.45
445.65	5390.25
445.84	5614.95
446.02	5614.95
446.21	5432.38
446.39	5432.38
446.58	5467.49
446.77	5743.67
446.95	5448.77
447.14	5554.09
447.32	5680.48
447.51	5533.03
447.69	5605.58
447.88	5638.35
448.06	5652.39
448.25	5523.66
448.43	5610.26
448.62	5753.04
448.80	5481.53
448.99	5591.54
449.17	5776.44
449.36	5570.48
449.54	5820.91
449.73	5830.27
449.91	6019.86
450.10	5884.11
450.28	5841.98
450.46	5968.37
450.65	5975.39
450.83	6038.58
451.02	5853.68
451.20	6239.87
451.39	5994.11
451.57	6129.86
451.76	5989.43
451.94	5902.83
452.13	6274.98
452.31	6150.93
452.49	6141.57
452.68	6211.78
452.86	6085.39
453.05	6221.14
453.23	6183.70
453.42	6228.17
453.60	6232.85
453.78	6408.39
453.97	6225.82
454.15	6127.52
454.34	6305.40
454.52	6324.13
454.70	6326.47
454.89	6300.72
455.07	6499.67
455.26	6588.61
455.44	6497.33
455.62	6707.98
455.81	6523.07
455.99	6576.91
456.17	6555.84
456.36	6665.85
456.54	6693.93
456.73	6764.15
456.91	7000.54
457.09	6717.34
457.28	6853.09
457.46	6663.51
457.64	6862.45
457.83	6855.43
458.01	6839.05
458.19	6988.84
458.38	7049.69
458.56	6827.34
458.74	6909.26
458.93	6953.73
459.11	6916.28
459.29	6984.16
459.48	7087.14
459.66	7096.50
459.84	7077.78
460.03	7066.08
460.21	7117.57
460.39	7199.49
460.57	7318.86
460.76	7351.62
460.94	7288.43
461.12	7337.58
461.31	7456.95
461.49	7066.08
461.67	7424.18
461.85	7269.70
462.04	7318.86
462.22	7709.72
462.40	7698.02
462.59	7463.97
462.77	7548.23
462.95	7707.38
463.13	7637.17
463.32	7531.84
463.50	7688.66
463.68	7793.98
463.86	7655.89
464.05	7798.66
464.23	7801.01
464.41	7712.07
464.59	7449.93
464.78	7957.82
464.96	7875.90
465.14	7934.42
465.32	7831.43
465.50	7859.52
465.69	7864.20
465.87	7922.71
466.05	7889.95
466.23	7873.56
466.41	8044.42
466.60	8191.88
466.78	8051.44
466.96	8056.12
467.14	7922.71
467.32	8262.09
467.51	8259.75
467.69	8011.65
467.87	7990.59
468.05	8280.82
468.23	8140.38
468.41	8035.06
468.60	8088.89
468.78	8353.37
468.96	8182.51
469.14	8409.54
469.32	8369.76
469.50	8367.42
469.69	8617.85
469.87	8444.65
470.05	8521.89
470.23	8582.74
470.41	8421.25
470.59	8559.34
470.77	8505.51
470.95	8613.17
471.14	8620.19
471.32	8547.64
471.50	8877.65
471.68	8769.99
471.86	8917.44
472.04	8835.52
472.22	9146.81
472.40	8894.04
472.58	9081.28
472.77	9128.09
472.95	9034.47
473.13	9408.95
473.31	9202.99
473.49	9256.82
473.67	9305.97
473.85	9378.53
474.03	9366.82
474.21	9444.06
474.39	9603.22
474.57	9357.46
474.75	9387.89
474.93	9537.68
475.12	9645.35
475.30	9900.47
475.48	9757.69
475.66	9745.99
475.84	9600.88
476.02	9834.93
476.20	10155.58
476.38	10303.04
476.56	10370.91
476.74	10057.28
476.92	10036.22
477.10	10331.12
477.28	10422.41
477.46	10399.00
477.64	10473.90
477.82	10761.78
478.00	10855.40
478.18	10869.45
478.36	10965.41
478.54	11084.78
478.72	10934.98
478.90	11344.58
479.08	11239.25
479.26	11473.31
479.44	11316.49
479.62	11468.62
479.80	11335.21
479.98	11693.32
480.16	12229.30
480.34	11702.68
480.52	11922.69
480.70	11985.88
480.88	11800.98
481.06	11978.86
481.24	12116.95
481.41	12170.79
481.59	12589.74
481.77	12327.60
481.95	12442.29
482.13	12643.57
482.31	12437.61
482.49	12978.27
482.67	12807.41
482.85	13121.04
483.03	13170.19
483.21	13165.51
483.39	13420.63
483.57	13483.83
483.74	13448.72
483.92	13839.59
484.10	13523.62
484.28	13937.89
484.46	13998.74
484.64	14305.35
484.82	14136.84
485.00	13912.14
485.18	14406.00
485.35	14810.91
485.53	14724.31
485.71	14544.09
485.89	14883.47
486.07	14516.00
486.25	14946.66
486.43	14939.64
486.61	15019.22
486.78	15180.71
486.96	15477.96
487.14	15726.06
487.32	15669.89
487.50	15707.34
487.68	16002.24
487.85	16128.63
488.03	16358.00
488.21	16603.76
488.39	16334.60
488.57	16671.64
488.75	16931.44
488.92	16835.47
489.10	17114.00
489.28	17249.75
489.46	17069.53
489.64	17319.96
489.81	17909.78
489.99	17582.10
490.17	17633.60
490.35	18097.02
490.53	17900.42
490.70	18113.41
490.88	18127.45
491.06	18235.11
491.24	18244.48
491.41	18078.30
491.59	18651.73
491.77	18586.19
491.95	18946.64
492.13	18881.10
492.30	19108.13
492.48	19164.31
492.66	19014.51
492.84	19126.86
493.01	19765.82
493.19	19328.14
493.37	19765.82
493.54	19613.69
493.72	20114.56
493.90	20163.72
494.08	19974.13
494.25	20322.87
494.43	20247.97
494.61	20446.92
494.79	20592.03
494.96	20601.40
495.14	20800.34
495.32	21369.09
495.49	20936.09
495.67	21193.55
495.85	21486.12
496.02	21500.16
496.20	21591.44
496.38	21544.63
496.55	21638.25
496.73	22492.55
496.91	21818.47
497.09	22237.43
497.26	22431.69
497.44	22239.77
497.62	22522.98
497.79	22459.78
497.97	22438.72
498.14	22890.44
498.32	22838.95
498.50	23080.02
498.67	23065.98
498.85	23220.45
499.03	23077.68
499.20	23447.49
499.38	23548.13
499.56	23821.97
499.73	23552.81
499.91	23714.31
500.08	23985.81
500.26	23953.04
500.44	23770.48
500.61	24135.60
500.79	24280.72
500.97	24456.26
501.14	24783.93
501.32	24474.98
501.49	24423.49
501.67	24526.47
501.84	24797.98
502.02	24556.90
502.20	25027.35
502.37	25003.94
502.55	25113.95
502.72	24900.96
502.90	25336.30
503.07	25132.67
503.25	25266.08
503.43	25259.06
503.60	25645.25
503.78	25582.06
503.95	25427.58
504.13	25832.49
504.30	26103.99
504.48	26122.72
504.65	26202.30
504.83	25970.58
505.01	26448.05
505.18	26085.27
505.36	26958.29
505.53	26441.03
505.71	26654.02
505.88	26874.03
506.06	26541.68
506.23	26845.94
506.41	26614.23
506.58	27197.02
506.76	27054.25
506.93	27257.88
507.11	27070.64
507.28	27215.75
507.46	27414.69
507.63	27550.45
507.81	27653.43
507.98	27433.42
508.16	27690.88
508.33	28107.49
508.50	27948.34
508.68	28002.17
508.85	27931.95
509.03	28285.37
509.20	28126.22
509.38	28414.10
509.55	28540.49
509.73	28393.04
509.90	28491.34
510.08	28631.77
510.25	28840.08
510.42	28980.51
510.60	29160.73
510.77	28882.21
510.95	29472.03
511.12	29013.28
511.30	29142.01
511.47	29453.30
511.64	29263.72
511.82	29188.82
511.99	29759.91
512.17	29511.81
512.34	29027.32
512.51	29802.04
512.69	29858.21
512.86	30031.41
513.04	29874.60
513.21	30197.59
513.38	30256.11
513.56	30305.26
513.73	30242.06
513.90	30221.00
514.08	30518.25
514.25	30726.55
514.43	30513.56
514.60	30614.21
514.77	30562.72
514.95	30946.56
515.12	30717.19
515.29	30658.68
515.47	30508.88
515.64	31344.45
515.81	30965.29
515.99	31386.58
516.16	31768.09
516.33	31578.51
516.51	31288.28
516.68	31667.45
516.85	31356.16
517.03	31721.28
517.20	31686.17
517.37	32046.62
517.54	31948.31
517.72	32006.83
517.89	31992.78
518.06	32177.68
518.24	32189.39
518.41	31831.29
518.58	32198.75
518.75	31765.75
518.93	32261.94
519.10	32081.72
519.27	32149.60
519.45	32694.94
519.62	32849.42
519.79	32842.40
519.96	32622.39
520.14	33146.67
520.31	32622.39
520.48	32706.65
520.65	33273.06
520.83	33333.91
521.00	33350.29
521.17	33614.77
521.34	33319.87
521.52	33584.35
521.69	33532.86
521.86	33841.81
522.03	33851.17
522.20	34019.69
522.38	34312.25
522.55	34356.72
522.72	33734.14
522.89	33979.90
523.07	34520.56
523.24	34115.65
523.41	34305.23
523.58	34160.12
523.75	34565.03
523.92	34415.24
524.10	34822.49
524.27	34433.96
524.44	34794.40
524.61	34944.20
524.78	35005.05
524.96	35145.48
525.13	34888.03
525.30	35189.95
525.47	34969.94
525.64	34983.99
525.81	35199.32
525.98	35377.20
526.16	35311.66
526.33	34742.91
526.50	35519.97
526.67	35047.18
526.84	35615.93
527.01	35360.81
527.18	35793.81
527.36	35786.79
527.53	35665.08
527.70	36334.48
527.87	35878.07
528.04	36039.57
528.21	35894.46
528.38	35922.54
528.55	36210.43
528.72	36032.55
528.89	35920.20
529.07	36510.02
529.24	35934.24
529.41	36212.77
529.58	36383.63
529.75	36493.63
529.92	36540.44
530.09	36521.72
530.26	36996.85
530.43	36636.41
530.60	36407.03
530.77	36563.85
530.94	36774.50
531.11	36500.65
531.28	36861.10
531.46	37144.30
531.63	37085.79
531.80	36825.99
531.97	37364.31
532.14	37497.72
532.31	37132.60
532.48	37434.53
532.65	37317.50
532.82	37287.07
532.99	37376.01
533.16	37226.22
533.33	37481.34
533.50	37940.08
533.67	37701.35
533.84	37317.50
534.01	37748.16
534.18	37816.04
534.35	38071.15
534.52	38450.32
534.69	38490.11
534.86	38272.44
535.03	38132.01
535.20	38295.85
535.37	38242.01
535.54	38543.94
535.71	38300.53
535.88	38763.95
536.05	38642.24
536.22	38298.19
536.38	38745.23
536.55	38628.20
536.72	38412.87
536.89	38483.09
537.06	38670.33
537.23	39051.84
537.40	38555.64
537.57	38359.04
537.74	38801.40
537.91	39299.94
538.08	38646.93
538.25	38824.81
538.42	38946.51
538.59	39384.19
538.75	38871.62
538.92	39791.45
539.09	39545.69
539.26	39648.68
539.43	38775.66
539.60	39482.50
539.77	39611.23
539.94	39311.64
540.11	39573.78
540.28	39447.39
540.44	39571.44
540.61	39714.21
540.78	39559.73
540.95	39735.27
541.12	39395.90
541.29	39620.59
541.46	39878.05
541.62	39765.70
541.79	40039.54
541.96	39643.99
542.13	39885.07
542.30	39990.39
542.47	39810.17
542.63	40289.98
542.80	40407.01
542.97	40730.00
543.14	40261.90
543.31	40921.93
543.48	40793.20
543.64	41139.60
543.81	40840.01
543.98	40914.90
544.15	40772.13
544.32	40790.86
544.48	40954.69
544.65	40823.62
544.82	41464.93
544.99	41200.45
545.16	40910.22
545.32	40964.06
545.49	41539.83
545.66	41577.28
545.83	41359.61
546.00	41287.05
546.16	41284.71
546.33	41340.88
546.50	41422.80
546.67	41336.20
546.83	41020.23
547.00	41406.42
547.17	41448.55
547.34	41532.81
547.50	41614.72
547.67	42059.43
547.84	42014.96
548.00	41560.89
548.17	42078.15
548.34	41975.17
548.51	41916.65
548.67	41696.64
548.84	42319.23
549.01	41710.69
549.18	41998.57
549.34	42167.09
549.51	42340.29
549.68	42560.30
549.84	42085.17
550.01	42195.18
550.18	42267.73
550.34	42384.76
550.51	42302.84
550.68	42550.94
550.84	42288.80
551.01	42293.48
551.18	42454.98
551.34	42686.69
551.51	42941.81
551.68	42541.58
551.84	42862.23
552.01	42415.19
552.18	42859.89
552.34	42452.64
552.51	42628.18
552.68	42370.72
552.84	42827.12
553.01	43246.08
553.18	42873.93
553.34	42738.18
553.51	42478.38
553.67	43381.83
553.84	43304.59
554.01	43297.57
554.17	43145.44
554.34	43512.90
554.51	43042.45
554.67	43683.76
554.84	43021.39
555.00	43332.68
555.17	42920.74
555.33	43463.75
555.50	43540.99
555.67	42979.26
555.83	43494.18
556.00	43339.70
556.16	44137.82
556.33	43587.80
556.50	43435.66
556.66	43878.02
556.83	43875.68
556.99	43655.67
557.16	43800.79
557.32	44144.84
557.49	43775.04
557.65	43803.13
557.82	43426.30
557.98	43880.36
558.15	43985.69
558.32	44390.60
558.48	44105.06
558.65	44076.97
558.81	44027.82
558.98	43798.44
559.14	43964.62
559.31	44091.01
559.47	44292.30
559.64	44332.09
559.80	44175.27
559.97	44325.07
560.13	43917.81
560.30	44142.50
560.46	44341.45
560.63	44404.64
560.79	44334.43
560.96	44729.98
561.12	43988.03
561.29	44622.31
561.45	44547.42
561.61	44512.31
561.78	44706.57
561.94	44634.02
562.11	44135.48
562.27	44376.56
562.44	44222.08
562.60	44589.55
562.77	44538.05
562.93	44271.23
563.10	44921.90
563.26	44664.44
563.42	44980.42
563.59	44591.89
563.75	44659.76
563.92	44556.78
564.08	44481.88
564.24	44999.14
564.41	44552.10
564.57	45123.19
564.74	44992.12
564.90	44676.15
565.07	44643.38
565.23	44966.37
565.39	44961.69
565.56	44802.53
565.72	44704.23
565.88	44790.83
566.05	44844.66
566.21	44292.30
566.38	44828.28
566.54	45076.38
566.70	45095.10
566.87	44966.37
567.03	44535.71
567.19	45237.87
567.36	45172.34
567.52	45141.91
567.68	45469.59
567.85	44896.16
568.01	45598.32
568.17	45139.57
568.34	45329.16
568.50	45371.28
568.66	44844.66
568.83	45584.27
568.99	45436.82
569.15	45542.14
569.32	45375.97
569.48	45167.66
569.64	45485.97
569.81	45315.11
569.97	45151.27
570.13	45619.38
570.30	45141.91
570.46	45544.48
570.62	45469.59
570.78	45125.53
570.95	45219.15
571.11	45918.97
571.27	45214.47
571.43	45244.90
571.60	45638.11
571.76	45057.65
571.92	45319.79
572.09	45415.76
572.25	45301.07
572.41	45612.36
572.57	45378.31
572.74	45507.04
572.90	45284.68
573.06	45846.41
573.22	45492.99
573.38	45720.02
573.55	45670.87
573.71	46101.53
573.87	45614.70
574.03	45694.28
574.20	45902.59
574.36	45624.06
574.52	46073.45
574.68	45722.37
574.84	45933.01
575.01	45806.62
575.17	45748.11
575.33	45280.00
575.49	45539.80
575.65	45972.80
575.82	45586.61
575.98	45771.52
576.14	46340.27
576.30	46038.34
576.46	45525.76
576.62	45975.14
576.79	45663.85
576.95	45352.56
577.11	45773.86
577.27	45834.71
577.43	45808.96
577.59	45703.64
577.75	45216.81
577.92	45537.46
578.08	45876.84
578.24	46113.23
578.40	45818.33
578.56	45717.68
578.72	45844.07
578.88	46003.23
579.04	45956.42
579.21	45851.09
579.37	46148.34
579.53	45502.35
579.69	45958.76
579.85	45560.87
580.01	46230.26
580.17	45897.91
580.33	45991.53
580.49	46003.23
580.65	46260.69
580.82	45865.14
580.98	45619.38
581.14	45666.19
581.30	46000.89
581.46	45703.64
581.62	45736.41
581.78	45750.45
581.94	46576.66
582.10	46106.21
582.26	46178.77
582.42	45954.08
582.58	45991.53
582.74	46211.54
582.90	45888.54
583.06	46323.88
583.22	46319.20
583.38	46298.14
583.54	45965.78
583.70	46047.70
583.86	46120.26
584.02	46024.29
584.18	46244.30
584.34	46092.17
584.50	46377.72
584.66	46216.22
584.82	46021.95
584.98	46099.19
585.14	45970.46
585.30	45764.49
585.46	46431.55
585.62	46014.93
585.78	46799.01
585.94	45736.41
586.10	46258.35
586.26	46059.40
586.42	45963.44
586.58	45940.04
586.74	46190.47
586.90	45954.08
587.06	46146.00
587.22	46190.47
587.38	45893.22
587.54	46202.18
587.70	46272.39
587.86	46279.41
588.02	46319.20
588.18	45820.67
588.34	46328.56
588.49	46447.93
588.65	46340.27
588.81	46230.26
588.97	46248.99
589.13	46024.29
589.29	46061.74
589.45	46433.89
589.61	46307.50
589.77	46480.70
589.93	46384.74
590.08	46784.97
590.24	46607.09
590.40	46660.92
590.56	47044.77
590.72	46770.93
590.88	46614.11
591.04	46370.69
591.20	47054.13
591.35	46827.10
591.51	46831.78
591.67	46635.17
591.83	46625.81
591.99	46707.73
592.15	46525.17
592.31	46461.97
592.46	46539.21
592.62	46579.00
592.78	46623.47
592.94	47028.38
593.10	46937.10
593.26	46735.82
593.41	46703.05
593.57	47159.45
593.73	47014.34
593.89	47250.74
594.05	46986.25
594.20	47089.24
594.36	46831.78
594.52	46595.38
594.68	46763.90
594.84	46527.51
594.99	47093.92
595.15	46672.62
595.31	46967.53
595.47	46920.72
595.62	46614.11
595.78	46829.44
595.94	47243.71
596.10	46567.30
596.25	47014.34
596.41	47054.13
596.57	46749.86
596.73	46803.69
596.88	47023.70
597.04	46962.85
597.20	46571.98
597.36	47152.43
597.51	47016.68
597.67	46738.16
597.83	46925.40
597.99	46976.89
598.14	46909.02
598.30	46941.78
598.46	46529.85
598.61	47374.78
598.77	46609.43
598.93	47182.86
599.09	46983.91
599.24	47512.88
599.40	47210.95
599.56	47070.51
599.71	47552.66
599.87	47196.90
600.03	47168.82
600.18	46689.01
600.34	46899.65
600.50	47042.43
600.65	47103.28
600.81	47133.71
600.97	47065.83
601.12	47206.26
601.28	47192.22
601.44	47049.45
601.59	47056.47
601.75	46866.89
601.91	46857.52
602.06	47028.38
602.22	47421.59
602.37	46752.20
602.53	46993.28
602.69	47180.52
602.84	46691.35
603.00	47070.51
603.16	47220.31
603.31	46995.62
603.47	47295.21
603.62	47063.49
603.78	47136.05
603.94	47297.55
604.09	47004.98
604.25	46625.81
604.40	46639.86
604.56	47201.58
604.71	47412.23
604.87	47042.43
605.03	46822.42
605.18	46782.63
605.34	46981.57
605.49	46754.54
605.65	46761.56
605.80	47136.05
605.96	46810.71
606.12	46899.65
606.27	47040.09
606.43	46988.60
606.58	47208.61
606.74	46993.28
606.89	46754.54
607.05	46887.95
607.20	47016.68
607.36	46588.36
607.51	47042.43
607.67	46380.06
607.82	46569.64
607.98	46843.48
608.13	47147.75
608.29	46721.77
608.44	46703.05
608.60	47159.45
608.75	46564.96
608.91	46616.45
609.06	46593.04
609.22	46625.81
609.37	46742.84
609.53	46801.35
609.68	46967.53
609.84	46710.07
609.99	46766.24
610.15	46494.74
610.30	46796.67
610.46	46660.92
610.61	46663.26
610.76	46707.73
610.92	46714.75
611.07	46478.36
611.23	46520.49
611.38	46738.16
611.54	46312.18
611.69	46611.77
611.84	46747.52
612.00	46492.40
612.15	46539.21
612.31	46564.96
612.46	46143.66
612.62	46316.86
612.77	46461.97
612.92	46663.26
613.08	46557.94
613.23	46525.17
613.39	46209.20
613.54	46527.51
613.69	46483.04
613.85	46417.50
614.00	45996.21
614.15	46829.44
614.31	46305.16
614.46	46490.06
614.62	46300.48
614.77	46632.83
614.92	46438.57
615.08	46227.92
615.23	46525.17
615.38	46703.05
615.54	46522.83
615.69	46518.15
615.84	46068.76
616.00	46445.59
616.15	46204.52
616.30	46616.45
616.46	46021.95
616.61	46003.23
616.76	46358.99
616.92	46089.83
617.07	46300.48
617.22	46028.98
617.37	45839.39
617.53	45928.33
617.68	46047.70
617.83	46045.36
617.99	46721.77
618.14	45867.48
618.29	45418.10
618.45	45624.06
618.60	45776.20
618.75	45514.06
618.90	45851.09
619.06	45930.67
619.21	45982.16
619.36	45677.90
619.51	45581.93
619.67	45598.32
619.82	45708.32
619.97	46195.15
620.12	45731.73
620.28	45462.57
620.43	46047.70
620.58	45673.21
620.73	45771.52
620.89	45645.13
621.04	45818.33
621.19	45713.00
621.34	45787.90
621.49	45425.12
621.65	45490.65
621.80	45888.54
621.95	45645.13
622.10	45724.71
622.25	45607.68
622.41	45432.14
622.56	45483.63
622.71	45474.27
622.86	45514.06
623.01	45373.63
623.16	45272.98
623.32	45368.94
623.47	45521.08
623.62	45464.91
623.77	45467.25
623.92	45125.53
624.07	45446.18
624.23	45329.16
624.38	45474.27
624.53	45069.36
624.68	45350.22
624.83	45076.38
624.98	45085.74
625.13	44832.96
625.29	45240.21
625.44	44732.32
625.59	45352.56
625.74	45024.89
625.89	44268.89
626.04	44643.38
626.19	44676.15
626.34	44500.61
626.49	44547.42
626.65	44844.66
626.80	44811.90
626.95	44629.34
627.10	44364.85
627.25	44690.19
627.40	44542.74
627.55	44692.53
627.70	44341.45
627.85	44905.52
628.00	44877.43
628.15	44315.70
628.30	43999.73
628.45	44060.58
628.60	44390.60
628.76	44154.21
628.91	44692.53
629.06	44362.51
629.21	43997.39
629.36	44039.52
629.51	44254.85
629.66	44591.89
629.81	44083.99
629.96	44268.89
630.11	44421.03
630.26	44109.74
630.41	43973.98
630.56	43768.02
630.71	44287.62
630.86	44332.09
631.01	43650.99
631.16	44231.44
631.31	44299.32
631.46	44294.64
631.61	44432.73
631.76	43709.50
631.91	44088.67
632.06	44023.14
632.21	44411.67
632.36	44233.78
632.51	43566.73
632.66	43828.87
632.81	44114.42
632.96	43550.35
633.10	43826.53
633.25	43519.92
633.40	43887.39
633.55	43906.11
633.70	44013.77
633.85	43304.59
634.00	43318.64
634.15	43461.41
634.30	43489.49
634.45	43290.55
634.60	43711.84
634.75	44018.46
634.90	43707.16
635.05	43742.27
635.19	43173.52
635.34	43632.27
635.49	43445.02
635.64	43391.19
635.79	43945.90
635.94	43791.42
636.09	43688.44
636.24	43203.95
636.39	43068.20
636.53	43119.69
636.68	43182.88
636.83	43217.99
636.98	42660.94
637.13	42817.76
637.28	42784.99
637.43	42651.58
637.57	43166.50
637.72	42721.80
637.87	42880.95
638.02	43131.39
638.17	42972.24
638.32	42602.43
638.46	42703.07
638.61	42557.96
638.76	42607.11
638.91	43159.48
639.06	42497.11
639.20	42534.56
639.35	42534.56
639.50	42583.71
639.65	43040.11
639.80	42941.81
639.94	42366.04
640.09	42939.47
640.24	42667.97
640.39	42227.95
640.54	42103.90
640.68	42726.48
640.83	43143.09
640.98	42782.65
641.13	41970.49
641.27	42726.48
641.42	42555.62
641.57	42220.92
641.72	42223.26
641.86	42139.00
642.01	42033.68
642.16	42300.50
642.31	41907.29
642.45	42258.37
642.60	41855.80
642.75	41858.14
642.90	41933.04
643.04	42068.79
643.19	41947.08
643.34	41425.14
643.48	41851.12
643.63	41993.89
643.78	42267.73
643.93	41876.86
644.07	41848.78
644.22	42082.83
644.37	42148.37
644.51	42401.14
644.66	41907.29
644.81	41853.46
644.95	42007.94
645.10	41968.15
645.25	41277.69
645.39	41713.03
645.54	41771.54
645.69	41523.44
645.83	41352.58
645.98	41680.26
646.13	41635.79
646.27	41275.35
646.42	41343.22
646.57	41633.45
646.71	41240.24
646.86	41706.01
647.00	41834.74
647.15	41291.73
647.30	41329.18
647.44	41546.85
647.59	41331.52
647.74	41312.80
647.88	41471.95
648.03	41464.93
648.17	41813.67
648.32	41734.09
648.47	41741.11
648.61	40797.88
648.76	41015.55
648.90	41305.77
649.05	41333.86
649.20	40832.99
649.34	41228.54
649.49	41109.17
649.63	40964.06
649.78	41244.92
649.92	41249.60
650.07	41521.10
650.21	41476.63
650.36	41188.75
650.51	41193.43
650.65	41394.71
650.80	41418.12
650.94	40978.10
651.09	41120.87
651.23	40601.27
651.38	40514.67
651.52	39938.90
651.67	40294.66
651.81	40825.96
651.96	40814.26
652.10	40360.20
652.25	40208.06
652.39	40540.42
652.54	40378.92
652.68	39770.38
652.83	40701.92
652.97	40659.79
653.12	40720.64
653.26	40025.50
653.41	40533.40
653.55	40526.38
653.70	40648.08
653.84	40924.27
653.99	40346.15
654.13	40458.50
654.27	40184.66
654.42	40385.94
654.56	39974.01
654.71	40219.77
654.85	40201.04
655.00	40266.58
655.14	40458.50
655.29	40713.62
655.43	40556.80
655.57	40229.13
655.72	40151.89
655.86	39651.02
656.01	40128.48
656.15	39695.49
656.30	40088.70
656.44	39866.34
656.58	39931.88
656.73	39723.57
656.87	39683.78
657.01	39573.78
657.16	39395.90
657.30	39758.68
657.45	39571.44
657.59	39557.39
657.73	39208.65
657.88	39758.68
658.02	39646.33
658.16	39658.04
658.31	39798.47
658.45	39894.43
658.60	39147.80
658.74	39414.62
658.88	39651.02
659.03	39440.37
659.17	39285.89
659.31	39372.49
659.46	38923.11
659.60	39660.38
659.74	38948.85
659.89	38948.85
660.03	38447.98
660.17	38888.00
660.32	39108.01
660.46	38707.78
660.60	38401.17
660.74	38724.16
660.89	38717.14
661.03	38314.57
661.17	38810.76
661.32	38642.24
661.46	38763.95
661.60	38483.09
661.74	38419.89
661.89	38417.55
662.03	38316.91
662.17	37998.60
662.31	38632.88
662.46	38199.88
662.60	38059.45
662.74	38003.28
662.88	37956.47
663.03	37628.79
663.17	37591.34
663.31	37675.60
663.45	37977.53
663.60	38153.07
663.74	37621.77
663.88	37900.29
664.02	37420.48
664.17	38185.84
664.31	37479.00
664.45	37415.80
664.59	37345.59
664.73	37277.71
664.88	37177.07
665.02	37284.73
665.16	37654.54
665.30	37591.34
665.44	37242.60
665.59	37050.68
665.73	37078.77
665.87	36327.45
666.01	36971.10
666.15	37226.22
666.29	36844.71
666.44	37357.29
666.58	36446.82
666.72	36477.25
666.86	36112.13
667.00	36802.58
667.14	36315.75
667.28	36570.87
667.43	36477.25
667.57	36357.88
667.71	36107.44
667.85	36472.57
667.99	36257.24
668.13	36350.86
668.27	35819.56
668.41	36091.06
668.56	35538.69
668.70	35821.90
668.84	35463.80
668.98	35510.61
669.12	35805.52
669.26	35641.68
669.40	35597.21
669.54	35550.40
669.68	35791.47
669.82	35438.05
669.96	35056.54
670.10	34611.84
670.25	35129.10
670.39	34925.47
670.53	35475.50
670.67	35196.98
670.81	35253.15
670.95	34775.68
671.09	34546.31
671.23	34319.28
671.37	34988.67
671.51	34520.56
671.65	34707.80
671.79	34419.92
671.93	34541.63
672.07	34052.45
672.21	34480.77
672.35	34171.82
672.49	34080.54
672.63	34043.09
672.77	33897.98
672.91	34017.35
673.05	34019.69
673.19	33701.37
673.33	33605.41
673.47	33352.63
673.61	33771.59
673.75	33401.79
673.89	33205.18
674.03	33432.21
674.17	33319.87
674.31	32580.26
674.45	33221.56
674.59	33130.28
674.73	32936.02
674.87	32708.99
675.01	32676.22
675.15	32545.15
675.29	32388.33
675.43	32201.09
675.56	32268.97
675.70	32856.44
675.84	32442.17
675.98	31117.42
676.12	31903.84
676.26	32334.50
676.40	31981.08
676.54	31807.88
676.68	31707.24
676.82	31129.12
676.96	31599.57
677.10	31604.25
677.23	31321.05
677.37	31805.54
677.51	31236.79
677.65	31367.86
677.79	31028.48
677.93	31087.00
678.07	30754.64
678.21	30455.05
678.34	30551.01
678.48	30237.38
678.62	30759.32
678.76	30183.55
678.90	29972.90
679.04	30359.09
679.18	30548.67
679.31	30143.76
679.45	29759.91
679.59	29963.54
679.73	29902.68
679.87	29481.39
680.00	29656.93
680.14	29495.43
680.28	29209.89
680.42	29296.49
680.56	29179.46
680.70	29095.20
680.83	28858.81
680.97	29062.43
681.11	28851.78
681.25	28570.92
681.39	28641.14
681.52	27936.63
681.66	28449.21
681.80	28093.45
681.94	28065.36
682.07	27861.74
682.21	27461.51
682.35	28105.15
682.49	27833.65
682.62	27601.94
682.76	27702.58
682.90	27442.78
683.04	27903.87
683.17	27433.42
683.31	27026.17
683.45	27374.91
683.59	26759.34
683.72	26485.50
683.86	26850.63
684.00	26768.71
684.13	26829.56
684.27	26368.48
684.41	26143.78
684.55	26574.44
684.68	26214.00
684.82	25745.89
684.96	26160.17
685.09	25750.57
685.23	26368.48
685.37	26534.65
685.50	25968.24
685.64	25895.69
685.78	25652.27
685.91	25530.56
686.05	25076.50
686.19	25163.10
686.32	25369.07
686.46	24779.25
686.60	25025.01
686.73	25106.93
686.87	24760.53
687.01	24809.68
687.14	24929.05
687.28	24627.12
687.42	24634.14
687.55	24486.68
687.69	24477.32
687.82	24046.66
687.96	24147.31
688.10	24271.36
688.23	23915.59
688.37	24156.67
688.50	24114.54
688.64	24198.80
688.78	23590.26
688.91	23356.21
689.05	23520.04
689.18	23276.63
689.32	23021.51
689.46	22726.60
689.59	23147.90
689.73	23285.99
689.86	23094.07
690.00	22869.37
690.13	23028.53
690.27	22541.70
690.41	22822.56
690.54	22429.35
690.68	22380.20
690.81	22129.77
690.95	21909.75
691.08	21893.37
691.22	22038.48
691.35	21825.50
691.49	21926.14
691.62	21806.77
691.76	21556.33
691.89	21535.27
692.03	21291.85
692.16	21163.12
692.30	21226.32
692.43	21296.53
692.57	21106.95
692.70	20744.17
692.84	20893.96
692.97	20783.96
693.11	20573.31
693.24	19995.20
693.38	20528.84
693.51	20240.95
693.65	20287.76
693.78	20212.87
693.92	20210.53
694.05	20086.48
694.19	19941.36
694.32	20170.74
694.45	20084.14
694.59	20067.75
694.72	20259.68
694.86	19606.67
694.99	19199.41
695.13	19496.66
695.26	18946.64
695.39	18813.23
695.53	19349.21
695.66	19131.54
695.80	19105.79
695.93	19077.71
696.07	18525.34
696.20	18368.52
696.33	18218.73
696.47	18401.29
696.60	18258.52
696.73	18532.36
696.87	18710.24
697.00	18405.97
697.14	17975.31
697.27	18054.89
697.40	17923.82
697.54	17767.01
697.67	18087.66
697.80	17837.22
697.94	17710.83
698.07	17308.26
698.21	17544.66
698.34	17708.49
698.47	17378.48
698.61	16821.43
698.74	16957.18
698.87	17092.93
699.01	16823.77
699.14	16893.99
699.27	16919.73
699.40	16844.84
699.54	16669.30
699.67	16648.23
699.80	16456.31
699.94	16606.10
700.07	16519.50
700.20	16226.93
700.34	16170.76
700.47	16252.68
700.60	16566.31
700.73	16095.86
700.87	16060.76
701.00	15948.41
701.13	15894.58
701.26	15587.97
701.40	15651.16
701.53	15461.58
701.66	15492.01
701.79	15616.05
701.93	15508.39
702.06	14977.09
702.19	15180.71
702.32	15084.75
702.46	15351.57
702.59	15068.37
702.72	14946.66
702.85	14824.95
702.99	14815.59
703.12	14626.01
703.25	14679.84
703.38	14574.52
703.51	14586.22
703.65	14389.61
703.78	14452.81
703.91	14293.65
704.04	13914.48
704.17	13975.34
704.31	14118.11
704.44	14005.77
704.57	14125.13
704.70	13687.45
704.83	13664.05
704.96	13516.59
705.10	13523.62
705.23	13415.95
>>>>>End Processed Spectral Data<<<<<
