SpectraSuite Data File
++++++++++++++++++++++++++++++++++++
Date: Fri Oct 25 10:44:01 EDT 2013
User: price-jones
Dark Spectrum Present: No
Reference Spectrum Present: No
Number of Sampled Component Spectra: 1
Spectrometers: USB2+H05261
Integration Time (usec): 100000 (USB2+H05261)
Spectra Averaged: 1 (USB2+H05261)
Boxcar Smoothing: 0 (USB2+H05261)
Correct for Electrical Dark: No (USB2+H05261)
Strobe/Lamp Enabled: No (USB2+H05261)
Correct for Detector Non-linearity: No (USB2+H05261)
Correct for Stray Light: No (USB2+H05261)
Number of Pixels in Processed Spectrum: 2048
>>>>>Begin Processed Spectral Data<<<<<
365.73	161.50
365.92	161.50
366.12	161.50
366.32	65.54
366.52	32.77
366.72	16.38
366.91	11.70
367.11	60.85
367.31	107.66
367.51	46.81
367.70	0.00
367.90	35.11
368.10	0.00
368.30	30.43
368.49	0.00
368.69	7.02
368.89	65.54
369.09	49.15
369.28	100.64
369.48	51.49
369.68	133.41
369.87	133.41
370.07	142.77
370.27	147.45
370.47	114.69
370.66	442.36
370.86	397.89
371.06	498.53
371.25	423.64
371.45	437.68
371.65	477.47
371.84	376.83
372.04	437.68
372.24	437.68
372.44	491.51
372.63	526.62
372.83	512.58
373.03	526.62
373.22	507.90
373.42	486.83
373.62	573.43
373.81	521.94
374.01	538.32
374.21	578.11
374.40	596.84
374.60	535.98
374.79	531.30
374.99	561.73
375.19	557.05
375.38	564.07
375.58	433.00
375.78	564.07
375.97	573.43
376.17	629.60
376.37	603.86
376.56	638.97
376.76	589.82
376.95	571.09
377.15	655.35
377.35	636.63
377.54	678.76
377.74	662.37
377.93	671.73
378.13	685.78
378.33	695.14
378.52	685.78
378.72	669.39
378.91	645.99
379.11	592.16
379.31	671.73
379.50	650.67
379.70	753.65
379.89	650.67
380.09	725.57
380.28	678.76
380.48	681.10
380.68	636.63
380.87	755.99
381.07	692.80
381.26	748.97
381.46	706.84
381.65	688.12
381.85	725.57
382.04	695.14
382.24	681.10
382.43	692.80
382.63	737.27
382.83	753.65
383.02	739.61
383.22	727.91
383.41	763.01
383.61	802.80
383.80	788.76
384.00	770.04
384.19	795.78
384.39	819.19
384.58	807.48
384.78	802.80
384.97	854.30
385.17	828.55
385.36	777.06
385.56	744.29
385.75	870.68
385.95	828.55
386.14	905.79
386.34	891.74
386.53	922.17
386.72	924.51
386.92	880.04
387.11	788.76
387.31	854.30
387.50	847.27
387.70	936.21
387.89	844.93
388.09	917.49
388.28	915.15
388.48	924.51
388.67	954.94
388.86	943.24
389.06	980.68
389.25	1015.79
389.45	983.02
389.64	950.26
389.84	1006.43
390.03	1008.77
390.22	1027.50
390.42	1015.79
390.61	961.96
390.81	1093.03
391.00	1104.73
391.19	1071.97
391.39	1078.99
391.58	1142.18
391.78	1032.18
391.97	1046.22
392.16	1062.60
392.36	1123.46
392.55	1074.31
392.75	1053.24
392.94	1008.77
393.13	968.98
393.33	1055.58
393.52	1130.48
393.71	1174.95
393.91	1142.18
394.10	1205.38
394.29	1160.91
394.49	1177.29
394.68	1170.27
394.88	1210.06
395.07	1336.45
395.26	1212.40
395.46	1273.25
395.65	1322.40
395.84	1146.86
396.04	1247.51
396.23	1186.65
396.42	1181.97
396.62	1196.01
396.81	1160.91
397.00	1313.04
397.19	1224.10
397.39	1355.17
397.58	1345.81
397.77	1394.96
397.97	1465.18
398.16	1404.32
398.35	1448.79
398.55	1465.18
398.74	1647.74
398.93	1607.95
399.12	1565.82
399.32	1570.50
399.51	1640.72
399.70	1600.93
399.90	1715.61
400.09	1717.95
400.28	1732.00
400.47	1671.14
400.67	1612.63
400.86	1694.55
401.05	1757.74
401.24	1785.83
401.44	1788.17
401.63	1715.61
401.82	1799.87
402.01	1823.28
402.21	1823.28
402.40	1736.68
402.59	1811.57
402.78	1736.68
402.97	1844.34
403.17	1891.15
403.36	1888.81
403.55	1863.07
403.74	1973.07
403.93	1937.96
404.13	1851.36
404.32	1863.07
404.51	1921.58
404.70	2005.84
404.89	1926.26
405.09	2017.54
405.28	1996.48
405.47	2071.37
405.66	1991.80
405.85	1966.05
406.05	2139.25
406.24	2022.22
406.43	2017.54
406.62	2153.29
406.81	2186.06
407.00	2045.63
407.20	2167.34
407.39	2239.89
407.58	2190.74
407.77	2263.30
407.96	2134.57
408.15	2258.62
408.34	2179.04
408.54	2462.24
408.73	2347.56
408.92	2370.96
409.11	2450.54
409.30	2450.54
409.49	2312.45
409.68	2293.72
409.87	2429.48
410.07	2450.54
410.26	2401.39
410.45	2476.29
410.64	2539.48
410.83	2506.71
411.02	2726.72
411.21	2635.44
411.40	2682.25
411.59	2637.78
411.78	2675.23
411.98	2768.85
412.17	2853.11
412.36	2729.06
412.55	2719.70
412.74	2822.69
412.93	2808.64
413.12	2691.62
413.31	2839.07
413.50	2881.20
413.69	2818.00
413.88	3061.42
414.07	3007.59
414.26	3056.74
414.45	3016.95
414.64	3035.67
414.83	3187.81
415.02	3105.89
415.22	3199.51
415.41	3295.47
415.60	3358.67
415.79	3138.66
415.98	3365.69
416.17	3368.03
416.36	3243.98
416.55	3449.95
416.74	3328.24
416.93	3372.71
417.12	3461.65
417.31	3447.61
417.50	3506.12
417.69	3508.46
417.88	3571.66
418.07	3566.98
418.26	3538.89
418.45	3456.97
418.64	3592.72
418.83	3702.73
419.02	3625.49
419.21	3723.79
419.39	3641.87
419.58	3658.26
419.77	3705.07
419.96	3744.86
420.15	3843.16
420.34	3932.10
420.53	3913.38
420.72	3999.98
420.91	3955.51
421.10	3932.10
421.29	4032.74
421.48	3922.74
421.67	3810.39
421.86	3803.37
422.05	3836.14
422.24	3840.82
422.43	3918.06
422.61	3915.72
422.80	4032.74
422.99	3974.23
423.18	4014.02
423.37	4191.90
423.56	3957.85
423.75	3997.64
423.94	3995.29
424.13	3749.54
424.32	3932.10
424.50	4173.18
424.69	4234.03
424.88	4142.75
425.07	3974.23
425.26	4011.68
425.45	4032.74
425.64	4063.17
425.83	3999.98
426.01	4100.62
426.20	4095.94
426.39	4198.92
426.58	3999.98
426.77	4117.00
426.96	4039.76
427.15	4014.02
427.33	4053.81
427.52	4154.45
427.71	4219.99
427.90	4161.47
428.09	4180.20
428.28	4227.01
428.46	4339.35
428.65	4229.35
428.84	4414.25
429.03	4355.74
429.22	4067.85
429.40	4182.54
429.59	4229.35
429.78	4067.85
429.97	4021.04
430.16	4210.62
430.34	4264.46
430.53	4241.05
430.72	4236.37
430.91	4346.37
431.10	4290.20
431.28	4664.69
431.47	4805.12
431.66	4781.71
431.85	4620.22
432.03	4676.39
432.22	4807.46
432.41	4772.35
432.60	4882.36
432.79	4667.03
432.97	4774.69
433.16	4772.35
433.35	4613.20
433.54	4727.88
433.72	4844.91
433.91	4807.46
434.10	4865.97
434.28	4908.10
434.47	4983.00
434.66	5132.79
434.85	5181.95
435.03	5149.18
435.22	5004.07
435.41	5334.08
435.59	5186.63
435.78	5167.90
435.97	5317.70
436.16	5275.57
436.34	5345.78
436.53	5242.80
436.72	5425.36
436.90	5142.16
437.09	5341.10
437.28	5448.77
437.46	5394.93
437.65	5331.74
437.84	5165.56
438.02	5188.97
438.21	5294.29
438.40	5317.70
438.58	5474.51
438.77	5554.09
438.96	5753.04
439.14	5863.04
439.33	5788.14
439.52	5731.97
439.70	5734.31
439.89	5870.06
440.08	5804.53
440.26	5884.11
440.45	5895.81
440.63	5980.07
440.82	6104.12
441.01	5968.37
441.19	6050.28
441.38	6277.32
441.57	6239.87
441.75	6406.05
441.94	6431.79
442.12	6417.75
442.31	6604.99
442.50	6413.07
442.68	6602.65
442.87	6384.98
443.05	6483.28
443.24	6707.98
443.43	6607.33
443.61	6574.56
443.80	6855.43
443.98	6595.63
444.17	6459.88
444.35	6747.76
444.54	6789.89
444.73	6792.23
444.91	6712.66
445.10	6775.85
445.28	6516.05
445.47	6471.58
445.65	6759.47
445.84	6604.99
446.02	6707.98
446.21	6623.72
446.39	6661.16
446.58	6855.43
446.77	6832.02
446.95	6789.89
447.14	6909.26
447.32	6916.28
447.51	6913.94
447.69	6729.04
447.88	7021.61
448.06	7019.27
448.25	6930.33
448.43	7047.35
448.62	6944.37
448.80	6789.89
448.99	7117.57
449.17	7124.59
449.36	7019.27
449.54	7112.89
449.73	7178.42
449.91	7241.62
450.10	7372.69
450.28	7426.52
450.46	7503.76
450.65	7522.48
450.83	7595.04
451.02	7328.22
451.20	7417.16
451.39	7456.95
451.57	7342.26
451.76	7412.48
451.94	7442.90
452.13	7382.05
452.31	7543.55
452.49	7232.26
452.68	7496.74
452.86	7386.73
453.05	7492.05
453.23	7609.08
453.42	7641.85
453.60	7585.68
453.78	7716.75
453.97	7440.56
454.15	7630.15
454.34	7517.80
454.52	7854.84
454.70	7793.98
454.89	7929.74
455.07	7999.95
455.26	8011.65
455.44	7819.73
455.62	8077.19
455.81	7770.58
455.99	7992.93
456.17	8058.46
456.36	7955.48
456.54	8095.91
456.73	8297.20
456.91	8182.51
457.09	8430.61
457.28	8549.98
457.46	8248.05
457.64	8510.19
457.83	8243.37
458.01	8322.94
458.19	8519.55
458.38	8339.33
458.56	8528.91
458.74	8559.34
458.93	8430.61
459.11	8498.49
459.29	8533.59
459.48	8547.64
459.66	8578.06
459.84	8493.80
460.03	8662.32
460.21	8678.71
460.39	8610.83
460.57	8667.00
460.76	8847.22
460.94	8945.53
461.12	8758.28
461.31	8805.10
461.49	8861.27
461.67	8781.69
461.85	9210.01
462.04	8931.48
462.22	9722.59
462.40	9083.62
462.59	9207.67
462.77	9057.87
462.95	9404.27
463.13	9195.96
463.32	9078.94
463.50	9329.38
463.68	9390.23
463.86	9231.07
464.05	9062.55
464.23	9163.20
464.41	9376.19
464.59	9114.05
464.78	9497.89
464.96	9572.79
465.14	9193.62
465.32	9427.68
465.50	9432.36
465.69	9474.49
465.87	9392.57
466.05	9451.08
466.23	9427.68
466.41	9308.31
466.60	9650.03
466.78	9404.27
466.96	9434.70
467.14	9645.35
467.32	9628.96
467.51	9748.33
467.69	9380.87
467.87	9724.93
468.05	9865.36
468.23	9738.97
468.41	9717.90
468.60	9757.69
468.78	9654.71
468.96	9804.50
469.14	10019.83
469.32	9989.41
469.50	9790.46
469.69	9860.68
469.87	9891.10
470.05	9877.06
470.23	10384.96
470.41	9907.49
470.59	9912.17
470.77	10017.49
470.95	10459.85
471.14	10452.83
471.32	10171.97
471.50	10635.39
471.68	10794.55
471.86	10466.88
472.04	10534.75
472.22	10988.82
472.40	10469.22
472.58	10747.74
472.77	10539.43
472.95	10979.45
473.13	11026.26
473.31	11042.65
473.49	10911.58
473.67	10855.40
473.85	11033.29
474.03	11337.56
474.21	11091.80
474.39	11192.44
474.57	11580.97
474.75	11569.27
474.93	11351.60
475.12	11485.01
475.30	11613.74
475.48	11424.15
475.66	11604.38
475.84	11651.19
476.02	11765.87
476.20	11885.24
476.38	11838.43
476.56	12222.28
476.74	12114.61
476.92	11800.98
477.10	12053.76
477.28	12442.29
477.46	12676.34
477.64	12631.87
477.82	12835.50
478.00	12957.21
478.18	12868.27
478.36	12954.87
478.54	12982.95
478.72	13247.43
478.90	13130.41
479.08	13219.35
479.26	13507.23
479.44	13408.93
479.62	13362.12
479.80	13448.72
479.98	13785.76
480.16	14272.59
480.34	13954.27
480.52	13902.78
480.70	14064.28
480.88	13989.38
481.06	14150.88
481.24	14450.47
481.41	14553.45
481.59	14869.42
481.77	14537.07
481.95	14780.48
482.13	15019.22
482.31	14972.41
482.49	15101.14
482.67	15302.42
482.85	15332.85
483.03	15576.27
483.21	15721.38
483.39	15618.39
483.57	15992.88
483.74	15854.79
483.92	15901.60
484.10	15770.53
484.28	16093.52
484.46	16727.81
484.64	16762.92
484.82	16395.45
485.00	16566.31
485.18	16779.30
485.35	16980.59
485.53	16615.46
485.71	16671.64
485.89	16847.18
486.07	16919.73
486.25	17083.57
486.43	17273.15
486.61	17376.14
486.78	17521.25
486.96	17593.81
487.14	18253.84
487.32	18267.88
487.50	18434.06
487.68	18438.74
487.85	19033.24
488.03	18625.98
488.21	18986.43
488.39	18611.94
488.57	19168.99
488.75	19073.03
488.92	19527.09
489.10	19985.83
489.28	19859.45
489.46	20088.82
489.64	20067.75
489.81	20556.93
489.99	20311.17
490.17	20893.96
490.35	20872.90
490.53	20587.35
490.70	20723.10
490.88	21050.78
491.06	21193.55
491.24	21280.15
491.41	21165.46
491.59	21200.57
491.77	21291.85
491.95	21703.79
492.13	21664.00
492.30	22214.02
492.48	22115.72
492.66	22160.19
492.84	22675.11
493.01	22499.57
493.19	22487.87
493.37	22618.94
493.54	22815.54
493.72	23091.73
493.90	23241.52
494.08	23393.65
494.25	23632.39
494.43	23718.99
494.61	23777.50
494.79	24261.99
494.96	23988.15
495.14	23779.84
495.32	24243.27
495.49	24418.81
495.67	24521.79
495.85	24702.01
496.02	24683.29
496.20	24781.59
496.38	25076.50
496.55	25165.44
496.73	25303.53
496.91	25769.30
497.09	25460.35
497.26	25806.75
497.44	25661.63
497.62	25483.75
497.79	26195.28
497.97	25729.51
498.14	25759.94
498.32	26178.89
498.50	26232.72
498.67	26616.57
498.85	26525.29
499.03	26490.18
499.20	26951.27
499.38	26850.63
499.56	26878.71
499.73	26960.63
499.91	27054.25
500.08	27475.55
500.26	27140.85
500.44	27061.27
500.61	27424.06
500.79	27323.41
500.97	27407.67
501.14	27557.47
501.32	28037.28
501.49	27875.78
501.67	28142.60
501.84	28425.81
502.02	28142.60
502.20	28386.02
502.37	28252.61
502.55	28479.64
502.72	28404.74
502.90	28336.87
503.07	28521.77
503.25	28985.19
503.43	28608.37
503.60	29043.71
503.78	28919.66
503.95	28781.57
504.13	29053.07
504.30	28938.38
504.48	29326.91
504.65	29439.26
504.83	29603.10
505.01	30195.25
505.18	29422.87
505.36	30387.18
505.53	30073.54
505.71	30504.20
505.88	30431.65
506.06	29874.60
506.23	30167.16
506.41	30558.03
506.58	30801.45
506.76	30581.44
506.93	30698.47
507.11	30946.56
507.28	30672.72
507.46	30733.57
507.63	30820.17
507.81	31087.00
507.98	30792.09
508.16	31147.85
508.33	31302.32
508.50	31512.97
508.68	31768.09
508.85	32086.40
509.03	31672.13
509.20	31524.68
509.38	31857.03
509.55	31866.39
509.73	31828.95
509.90	31934.27
510.08	32016.19
510.25	31885.12
510.42	32180.03
510.60	32336.84
510.77	32512.38
510.95	32882.19
511.12	32891.55
511.30	32957.08
511.47	32629.41
511.64	33366.68
511.82	33118.58
511.99	32879.85
512.17	33474.34
512.34	33067.09
512.51	33528.17
512.69	33291.78
512.86	33240.29
513.04	33902.66
513.21	33474.34
513.38	33378.38
513.56	33312.84
513.73	33425.19
513.90	33373.70
514.08	33610.09
514.25	34204.59
514.43	33837.12
514.60	33984.58
514.77	34227.99
514.95	34558.01
515.12	34293.53
515.29	33989.26
515.47	34520.56
515.64	34721.85
515.81	34459.71
515.99	34391.83
516.16	34237.36
516.33	34204.59
516.51	34256.08
516.68	33771.59
516.85	33890.96
517.03	34132.03
517.20	34618.86
517.37	35136.12
517.54	34803.77
517.72	34981.65
517.89	34553.33
518.06	34700.78
518.24	34913.77
518.41	35187.61
518.58	35016.75
518.75	35187.61
518.93	35737.64
519.10	35374.86
519.27	35447.41
519.45	36151.91
519.62	35749.34
519.79	36058.29
519.96	36079.36
520.14	36140.21
520.31	35541.03
520.48	36229.15
520.65	36472.57
520.83	36744.07
521.00	36432.78
521.17	37102.17
521.34	36493.63
521.52	36793.22
521.69	36725.35
521.86	37106.85
522.03	37053.02
522.20	36804.92
522.38	36797.90
522.55	37029.62
522.72	36760.45
522.89	37146.64
523.07	37258.99
523.24	37003.87
523.41	37284.73
523.58	37614.75
523.75	37907.32
523.92	37867.53
524.10	37928.38
524.27	38335.63
524.44	37986.89
524.61	37979.87
524.78	38632.88
524.96	38160.09
525.13	38110.94
525.30	38597.77
525.47	38778.00
525.64	38429.26
525.81	38445.64
525.98	38490.11
526.16	37614.75
526.33	37677.94
526.50	38272.44
526.67	37961.15
526.84	38024.34
527.01	38265.42
527.18	38092.22
527.36	38988.64
527.53	39089.29
527.70	39044.82
527.87	38855.23
528.04	38820.13
528.21	39112.69
528.38	39456.75
528.55	39508.24
528.72	39349.09
528.89	39709.53
529.07	39604.20
529.24	39353.77
529.41	39777.40
529.58	39271.85
529.75	39819.53
529.92	40084.01
530.09	39695.49
530.26	40105.08
530.43	39606.55
530.60	39653.36
530.77	39941.24
530.94	40074.65
531.11	39634.63
531.28	40285.30
531.46	40500.63
531.63	40605.95
531.80	39941.24
531.97	40385.94
532.14	39964.65
532.31	39744.64
532.48	40161.25
532.65	40357.86
532.82	40346.15
532.99	40659.79
533.16	40098.06
533.33	40568.51
533.50	40463.18
533.67	40872.78
533.84	40690.21
534.01	41010.87
534.18	40641.06
534.35	40861.07
534.52	40823.62
534.69	41043.63
534.86	41251.94
535.03	40942.99
535.20	41701.32
535.37	41588.98
535.54	41326.84
535.71	41553.87
535.88	41687.28
536.05	41163.00
536.22	41394.71
536.38	41394.71
536.55	41092.79
536.72	41366.63
536.89	41460.25
537.06	41441.53
537.23	41881.55
537.40	41270.67
537.57	41890.91
537.74	41764.52
537.91	42288.80
538.08	41928.36
538.25	41720.05
538.42	41837.08
538.59	42054.75
538.75	41949.42
538.92	41862.82
539.09	42164.75
539.26	42258.37
539.43	42260.71
539.60	42272.42
539.77	42415.19
539.94	41874.52
540.11	41984.53
540.28	42249.01
540.44	42335.61
540.61	41804.31
540.78	42141.35
540.95	41975.17
541.12	42234.97
541.29	42134.32
541.46	42658.60
541.62	42630.52
541.79	42679.67
541.96	42284.12
542.13	42141.35
542.30	42483.06
542.47	42792.01
542.63	42937.13
542.80	42705.41
542.97	43423.96
543.14	43402.89
543.31	43192.25
543.48	43515.24
543.64	43718.87
543.81	44034.84
543.98	43964.62
544.15	43433.32
544.32	43524.60
544.48	43765.68
544.65	43290.55
544.82	43648.65
544.99	43215.65
545.16	43449.70
545.32	43473.11
545.49	43976.33
545.66	43812.49
545.83	44079.31
546.00	44191.65
546.16	43711.84
546.33	44219.74
546.50	43863.98
546.67	43973.98
546.83	43578.43
547.00	44046.54
547.17	43838.23
547.34	43587.80
547.50	43428.64
547.67	44512.31
547.84	43508.22
548.00	44793.17
548.17	44683.17
548.34	43952.92
548.51	44718.28
548.67	44538.05
548.84	44435.07
549.01	44275.91
549.18	44264.21
549.34	44402.30
549.51	44858.71
549.68	44643.38
549.84	44701.89
550.01	44481.88
550.18	44704.23
550.34	44318.04
550.51	44414.01
550.68	44643.38
550.84	44486.56
551.01	44390.60
551.18	44823.60
551.34	44659.76
551.51	44879.77
551.68	45130.21
551.84	44964.03
552.01	44531.03
552.18	44837.64
552.34	44765.09
552.51	44973.39
552.68	45338.52
552.84	45223.83
553.01	45638.11
553.18	45052.97
553.34	44648.06
553.51	44839.98
553.67	45258.94
553.84	45563.21
554.01	45205.11
554.17	45228.51
554.34	45397.03
554.51	45408.73
554.67	45710.66
554.84	45441.50
555.00	44776.79
555.17	45153.62
555.33	45392.35
555.50	45282.34
555.67	45544.48
555.83	45104.46
556.00	45216.81
556.16	45724.71
556.33	45867.48
556.50	45076.38
556.66	45853.44
556.83	45202.77
556.99	45614.70
557.16	46005.57
557.32	45998.55
557.49	45855.78
557.65	45673.21
557.82	45675.55
557.98	45684.92
558.15	45591.30
558.32	45537.46
558.48	45720.02
558.65	45151.27
558.81	45610.02
558.98	45797.26
559.14	45436.82
559.31	45146.59
559.47	45904.93
559.64	46057.06
559.80	45958.76
559.97	45778.54
560.13	45411.07
560.30	45603.00
560.46	46391.76
560.63	46361.33
560.79	46134.30
560.96	46117.92
561.12	45820.67
561.29	46057.06
561.45	46347.29
561.61	45874.50
561.78	46124.94
561.94	45858.12
562.11	46000.89
562.27	45605.34
562.44	46131.96
562.60	46209.20
562.77	46471.34
562.93	45968.12
563.10	46115.58
563.26	45759.81
563.42	46085.15
563.59	46085.15
563.75	46153.02
563.92	46384.74
564.08	46518.15
564.24	46344.95
564.41	46412.82
564.57	46223.24
564.74	45806.62
564.90	46202.18
565.07	45984.51
565.23	46230.26
565.39	45963.44
565.56	46309.84
565.72	46014.93
565.88	46176.43
566.05	45933.01
566.21	46363.67
566.38	46216.22
566.54	46239.62
566.70	46773.27
566.87	46815.40
567.03	46223.24
567.19	46958.17
567.36	46141.32
567.52	46536.87
567.68	46794.33
567.85	46127.28
568.01	46616.45
568.17	46443.25
568.34	46330.90
568.50	46204.52
568.66	46096.85
568.83	46693.69
568.99	46099.19
569.15	46361.33
569.32	46150.68
569.48	46761.56
569.64	46459.63
569.81	46433.89
569.97	46288.77
570.13	46590.70
570.30	46366.01
570.46	45691.94
570.62	46014.93
570.78	46279.41
570.95	46328.56
571.11	46775.61
571.27	46248.99
571.43	46160.05
571.60	46616.45
571.76	46630.49
571.92	46742.84
572.09	46403.46
572.25	46466.66
572.41	46571.98
572.57	46850.50
572.74	47093.92
572.90	46394.10
573.06	46930.08
573.22	46459.63
573.38	46906.68
573.55	46635.17
573.71	46571.98
573.87	46714.75
574.03	46752.20
574.20	46333.24
574.36	46319.20
574.52	46461.97
574.68	46740.50
574.84	46700.71
575.01	46522.83
575.17	46358.99
575.33	46436.23
575.49	46211.54
575.65	46677.30
575.82	46611.77
575.98	46735.82
576.14	46696.03
576.30	46763.90
576.46	46380.06
576.62	46614.11
576.79	46464.32
576.95	46373.03
577.11	46527.51
577.27	46923.06
577.43	46916.04
577.59	46677.30
577.75	46520.49
577.92	45872.16
578.08	46728.80
578.24	46450.27
578.40	46672.62
578.56	46492.40
578.72	46791.99
578.88	46817.74
579.04	46920.72
579.21	46520.49
579.37	46466.66
579.53	47248.39
579.69	46398.78
579.85	46546.23
580.01	46983.91
580.17	46628.15
580.33	46408.14
580.49	46862.21
580.65	46763.90
580.82	47004.98
580.98	46602.41
581.14	46951.15
581.30	46726.46
581.46	47157.11
581.62	46719.43
581.78	46827.10
581.94	47370.10
582.10	46611.77
582.26	47234.35
582.42	46550.91
582.58	47164.14
582.74	47203.92
582.90	46859.87
583.06	47023.70
583.22	46497.08
583.38	46831.78
583.54	46974.55
583.70	47065.83
583.86	47049.45
584.02	46490.06
584.18	46925.40
584.34	46534.53
584.50	46756.88
584.66	46536.87
584.82	46880.93
584.98	47199.24
585.14	47243.71
585.30	46635.17
585.46	46637.51
585.62	46740.50
585.78	46642.20
585.94	46225.58
586.10	46316.86
586.26	46405.80
586.42	46665.60
586.58	46955.83
586.74	46813.05
586.90	46801.35
587.06	46593.04
587.22	46965.19
587.38	46754.54
587.54	47002.64
587.70	46461.97
587.86	46799.01
588.02	47131.37
588.18	46845.82
588.34	46593.04
588.49	46110.89
588.65	45806.62
588.81	46302.82
588.97	46040.68
589.13	46171.75
589.29	46288.77
589.45	46843.48
589.61	46593.04
589.77	47035.41
589.93	46366.01
590.08	46937.10
590.24	46731.14
590.40	47004.98
590.56	47061.15
590.72	46555.60
590.88	46520.49
591.04	46581.34
591.20	47255.42
591.35	47061.15
591.51	46974.55
591.67	46911.36
591.83	46740.50
591.99	46780.29
592.15	46630.49
592.31	46939.44
592.46	46799.01
592.62	46609.43
592.78	47065.83
592.94	46831.78
593.10	46759.22
593.26	46899.65
593.41	46864.55
593.57	46794.33
593.73	46876.25
593.89	46546.23
594.05	47051.79
594.20	46733.48
594.36	47201.58
594.52	46550.91
594.68	47234.35
594.84	46782.63
594.99	46997.96
595.15	46571.98
595.31	46583.68
595.47	47229.67
595.62	47194.56
595.78	46993.28
595.94	47229.67
596.10	46670.28
596.25	47004.98
596.41	47187.54
596.57	46642.20
596.73	46990.94
596.88	46618.79
597.04	46894.97
597.20	46916.04
597.36	46752.20
597.51	47533.94
597.67	46873.91
597.83	47339.68
597.99	46986.25
598.14	47098.60
598.30	46965.19
598.46	46909.02
598.61	46550.91
598.77	46604.75
598.93	46885.61
599.09	47019.02
599.24	47512.88
599.40	46990.94
599.56	47114.98
599.71	46974.55
599.87	47012.00
600.03	46686.67
600.18	46799.01
600.34	46972.21
600.50	46731.14
600.65	46822.42
600.81	47564.37
600.97	47276.48
601.12	46841.14
601.28	46904.34
601.44	46925.40
601.59	46822.42
601.75	46644.54
601.91	46920.72
602.06	46775.61
602.22	46686.67
602.37	46780.29
602.53	46925.40
602.69	47033.07
602.84	46810.71
603.00	46887.95
603.16	46862.21
603.31	46878.59
603.47	47079.88
603.62	46836.46
603.78	47065.83
603.94	47047.11
604.09	47136.05
604.25	47210.95
604.40	46815.40
604.56	46607.09
604.71	47119.66
604.87	46632.83
605.03	46593.04
605.18	46323.88
605.34	46728.80
605.49	46298.14
605.65	47384.15
605.80	46473.68
605.96	47253.08
606.12	47114.98
606.27	46827.10
606.43	46541.55
606.58	46850.50
606.74	46799.01
606.89	46412.82
607.05	46571.98
607.20	46579.00
607.36	46663.26
607.51	46859.87
607.67	46366.01
607.82	46707.73
607.98	46590.70
608.13	46621.13
608.29	46583.68
608.44	46239.62
608.60	46089.83
608.75	46689.01
608.91	46644.54
609.06	46354.31
609.22	47000.30
609.37	46188.13
609.53	46497.08
609.68	46237.28
609.84	46117.92
609.99	46464.32
610.15	46141.32
610.30	45963.44
610.46	46033.66
610.61	46466.66
610.76	46136.64
610.92	46143.66
611.07	45776.20
611.23	45947.06
611.38	46298.14
611.54	46003.23
611.69	46066.42
611.84	45659.17
612.00	45900.25
612.15	45755.13
612.31	46277.07
612.46	46211.54
612.62	46101.53
612.77	46057.06
612.92	46131.96
613.08	45820.67
613.23	46089.83
613.39	45867.48
613.54	45411.07
613.69	45895.56
613.85	45785.56
614.00	45827.69
614.15	46363.67
614.31	46050.04
614.46	46054.72
614.62	46209.20
614.77	45954.08
614.92	45682.58
615.08	45963.44
615.23	45336.18
615.38	45413.41
615.54	45429.80
615.69	45521.08
615.84	45139.57
616.00	45397.03
616.15	45280.00
616.30	45041.27
616.46	45380.65
616.61	45170.00
616.76	45258.94
616.92	44910.20
617.07	44942.97
617.22	45345.54
617.37	45177.02
617.53	45113.83
617.68	45261.28
617.83	45195.74
617.99	45282.34
618.14	44725.30
618.29	45401.71
618.45	44882.11
618.60	45242.56
618.75	44947.65
618.90	44500.61
619.06	44699.55
619.21	45067.02
619.36	45301.07
619.51	45111.49
619.67	44648.06
619.82	44898.50
619.97	45343.20
620.12	44999.14
620.28	44130.80
620.43	44676.15
620.58	44891.48
620.73	44765.09
620.89	44889.13
621.04	44587.21
621.19	44760.40
621.34	44975.73
621.49	44226.76
621.65	44697.21
621.80	44966.37
621.95	44568.48
622.10	44549.76
622.25	44229.10
622.41	44299.32
622.56	44048.88
622.71	44500.61
622.86	44486.56
623.01	44399.96
623.16	44636.36
623.32	44488.90
623.47	44229.10
623.62	43978.67
623.77	44121.44
623.92	44086.33
624.07	44088.67
624.23	44121.44
624.38	44158.89
624.53	43875.68
624.68	43938.88
624.83	43819.51
624.98	44002.07
625.13	43770.36
625.29	43648.65
625.44	43725.89
625.59	43274.16
625.74	43126.71
625.89	43150.12
626.04	43536.30
626.19	43693.12
626.34	43559.71
626.49	44046.54
626.65	43929.51
626.80	43746.95
626.95	43494.18
627.10	43365.45
627.25	43253.10
627.40	42988.62
627.55	42997.98
627.70	42962.87
627.85	42845.85
628.00	43051.81
628.15	43047.13
628.30	42824.78
628.45	43290.55
628.60	43323.32
628.76	43126.71
628.91	43241.40
629.06	42939.47
629.21	42658.60
629.36	42944.15
629.51	43037.77
629.66	42925.42
629.81	43075.22
629.96	42775.63
630.11	43154.80
630.26	43271.82
630.41	42576.69
630.56	42600.09
630.71	42913.72
630.86	42506.47
631.01	42686.69
631.16	42925.42
631.31	42733.50
631.46	42143.69
631.61	42408.17
631.76	42595.41
631.91	42153.05
632.06	42747.54
632.21	42562.64
632.36	42363.70
632.51	42387.10
632.66	42232.63
632.81	41876.86
632.96	42005.59
633.10	42265.39
633.25	42293.48
633.40	42871.59
633.55	42684.35
633.70	42045.38
633.85	42150.71
634.00	42003.25
634.15	42316.89
634.30	42113.26
634.45	42108.58
634.60	42010.28
634.75	41762.18
634.90	41799.63
635.05	42412.85
635.19	41816.01
635.34	42232.63
635.49	41635.79
635.64	42071.13
635.79	41921.34
635.94	41918.99
636.09	41680.26
636.24	41577.28
636.39	41443.87
636.53	41787.92
636.68	41890.91
636.83	41785.58
636.98	41865.16
637.13	41270.67
637.28	41303.43
637.43	41818.35
637.57	41441.53
637.72	41668.56
637.87	41614.72
638.02	41759.84
638.17	42014.96
638.32	41235.56
638.46	41488.34
638.61	41771.54
638.76	41074.06
638.91	41750.48
639.06	41251.94
639.20	41710.69
639.35	41626.43
639.50	41020.23
639.65	41808.99
639.80	41312.80
639.94	41401.74
640.09	40886.82
640.24	40615.32
640.39	40547.44
640.54	40734.68
640.68	40811.92
640.83	40942.99
640.98	40697.24
641.13	40814.26
641.27	40924.27
641.42	40486.59
641.57	40966.40
641.72	40561.48
641.86	40102.74
642.01	40311.05
642.16	40627.02
642.31	40664.47
642.45	40612.98
642.60	40428.07
642.75	41137.26
642.90	40861.07
643.04	40832.99
643.19	40718.30
643.34	40760.43
643.48	40727.66
643.63	40116.78
643.78	40383.60
643.93	40247.85
644.07	40460.84
644.22	40243.17
644.37	39700.17
644.51	40404.67
644.66	40727.66
644.81	40009.12
644.95	40194.02
645.10	40149.55
645.25	40154.23
645.39	40100.40
645.54	40154.23
645.69	39934.22
645.83	39948.26
645.98	40079.33
646.13	40299.34
646.27	40172.96
646.42	40205.72
646.57	39662.72
646.71	39533.99
646.86	39526.97
647.00	40004.44
647.15	39566.76
647.30	39936.56
647.44	39325.68
647.59	39658.04
647.74	39653.36
647.88	39772.72
648.03	39789.11
648.17	39526.97
648.32	39491.86
648.47	39658.04
648.61	39332.70
648.76	39646.33
648.90	39550.37
649.05	40034.86
649.20	39309.30
649.34	39393.56
649.49	39447.39
649.63	39309.30
649.78	39309.30
649.92	39208.65
650.07	39592.50
650.21	39531.65
650.36	39576.12
650.51	39009.71
650.65	39468.45
650.80	39672.08
650.94	39304.62
651.09	39494.20
651.23	39030.77
651.38	39037.80
651.52	39189.93
651.67	38993.32
651.81	38621.18
651.96	38920.77
652.10	38834.17
652.25	38319.25
652.39	38909.07
652.54	39035.45
652.68	39332.70
652.83	38724.16
652.97	38965.24
653.12	38667.99
653.26	38630.54
653.41	38998.01
653.55	38415.21
653.70	38300.53
653.84	38457.34
653.99	38635.22
654.13	38602.46
654.27	38389.47
654.42	37919.02
654.56	38485.43
654.71	38256.06
654.85	38492.45
655.00	37912.00
655.14	38707.78
655.29	38342.66
655.43	38181.16
655.57	37937.74
655.72	37415.80
655.86	37549.21
656.01	37738.80
656.15	37326.86
656.30	37631.13
656.44	37392.40
656.58	37729.44
656.73	37820.72
656.87	37633.47
657.01	37467.30
657.16	38227.97
657.30	37551.56
657.45	37251.97
657.59	37310.48
657.73	38082.86
657.88	37954.13
658.02	37780.93
658.16	38007.96
658.31	37883.91
658.45	37968.17
658.60	37869.87
658.74	37593.68
658.88	37340.91
659.03	37237.92
659.17	37567.94
659.31	36945.36
659.46	37134.94
659.60	37397.08
659.74	37383.04
659.89	37060.04
660.03	37188.77
660.17	37195.79
660.32	37352.61
660.46	36905.57
660.60	36861.10
660.74	36973.44
660.89	36788.54
661.03	36542.78
661.17	36924.29
661.32	36484.27
661.46	36704.28
661.60	36542.78
661.74	36484.27
661.89	36517.04
662.03	36212.77
662.17	36519.38
662.31	36460.87
662.46	36526.40
662.60	36229.15
662.74	36346.18
662.88	36079.36
663.03	36407.03
663.17	36453.84
663.31	35922.54
663.45	35819.56
663.60	36165.96
663.74	35910.84
663.88	35873.39
664.02	35784.45
664.17	35854.67
664.31	35718.92
664.45	35679.13
664.59	35098.67
664.73	35704.87
664.88	35597.21
665.02	35571.46
665.16	35484.86
665.30	35335.07
665.44	35477.84
665.59	35566.78
665.73	34991.01
665.87	35143.14
666.01	35239.11
666.15	34953.56
666.29	35199.32
666.44	35136.12
666.58	34731.21
666.72	34801.43
666.86	34866.96
667.00	35002.71
667.14	34527.58
667.28	34593.12
667.43	34380.13
667.57	34913.77
667.71	34546.31
667.85	34759.30
667.99	34478.43
668.13	34284.17
668.27	34689.08
668.41	34300.55
668.56	34265.44
668.70	34298.21
668.84	34169.48
668.98	33851.17
669.12	33586.69
669.26	33748.18
669.40	33633.50
669.54	33633.50
669.68	33783.29
669.82	33469.66
669.96	33556.26
670.10	33083.47
670.25	33614.77
670.39	33247.31
670.53	33247.31
670.67	33064.75
670.81	33752.87
670.95	33310.50
671.09	33266.03
671.23	32708.99
671.37	32877.51
671.51	32952.40
671.65	32788.56
671.79	32491.32
671.93	32835.38
672.07	32538.13
672.21	32741.75
672.35	32636.43
672.49	32648.13
672.63	32788.56
672.77	32814.31
672.91	32744.09
673.05	32376.63
673.19	32236.20
673.33	31833.63
673.47	31917.89
673.61	31931.93
673.75	31978.74
673.89	31667.45
674.03	31772.77
674.17	31810.22
674.31	31480.21
674.45	31515.31
674.59	31470.84
674.73	31775.11
674.87	31573.83
675.01	31328.07
675.15	31138.49
675.29	30831.88
675.43	31119.76
675.56	31094.02
675.70	30955.93
675.84	30939.54
675.98	29818.42
676.12	30778.04
676.26	31000.40
676.40	30438.67
676.54	30939.54
676.68	30551.01
676.82	30183.55
676.96	30401.22
677.10	30270.15
677.23	30108.65
677.37	29921.41
677.51	29813.74
677.65	30052.48
677.79	29371.38
677.93	29429.90
678.07	29347.98
678.21	28940.72
678.34	29024.98
678.48	28713.69
678.62	29013.28
678.76	29008.60
678.90	28505.38
679.04	28872.85
679.18	28374.31
679.31	28556.88
679.45	28477.30
679.59	28680.92
679.73	28601.35
679.87	27819.61
680.00	28285.37
680.14	28116.86
680.28	27922.59
680.42	27854.72
680.56	28013.87
680.70	28088.77
680.83	27536.40
680.97	27662.79
681.11	27800.88
681.25	27133.83
681.39	27452.14
681.52	27630.02
681.66	27349.16
681.80	27496.61
681.94	27131.49
682.07	26972.33
682.21	26845.94
682.35	26836.58
682.49	26897.44
682.62	26639.98
682.76	26455.08
682.90	26260.81
683.04	26551.04
683.17	26277.19
683.31	26316.98
683.45	26094.63
683.59	25886.32
683.72	26103.99
683.86	25696.74
684.00	26136.76
684.13	25848.88
684.27	25469.71
684.41	25467.37
684.55	25170.12
684.68	25338.64
684.82	25118.63
684.96	25223.95
685.09	25558.65
685.23	24975.86
685.37	24966.49
685.50	25085.86
685.64	24519.45
685.78	24823.72
685.91	24416.47
686.05	24491.37
686.19	24198.80
686.32	23948.36
686.46	23742.39
686.60	23613.66
686.73	23243.86
686.87	23454.51
687.01	23276.63
687.14	23150.24
687.28	23335.14
687.42	23353.87
687.55	23255.56
687.69	23536.43
687.82	23412.38
687.96	22902.14
688.10	23068.32
688.23	22714.90
688.37	22794.48
688.50	22698.52
688.64	22448.08
688.78	22731.28
688.91	22391.91
689.05	22789.80
689.18	22115.72
689.32	22085.30
689.46	22274.88
689.59	22576.81
689.73	22335.73
689.86	22043.17
690.00	22012.74
690.13	22111.04
690.27	21813.79
690.41	21947.20
690.54	21535.27
690.68	20933.75
690.81	21593.78
690.95	21514.20
691.08	21387.82
691.22	21333.98
691.35	21270.79
691.49	21329.30
691.62	21172.49
691.76	20975.88
691.89	21275.47
692.03	20882.26
692.16	20669.27
692.30	20273.72
692.43	20367.34
692.57	20144.99
692.70	20467.98
692.84	20128.61
692.97	20245.63
693.11	20334.57
693.24	19807.95
693.38	20051.37
693.51	19903.92
693.65	20056.05
693.78	20030.30
693.92	19770.51
694.05	19613.69
694.19	19552.84
694.32	19419.42
694.45	19419.42
694.59	19215.80
694.72	19370.27
694.86	18918.55
694.99	18766.42
695.13	19014.51
695.26	18897.49
695.39	18775.78
695.53	18951.32
695.66	18958.34
695.80	18806.20
695.93	18499.59
696.07	18441.08
696.20	18530.02
696.33	18272.56
696.47	18462.15
696.60	18082.98
696.73	18192.98
696.87	18408.31
697.00	18143.83
697.14	17844.24
697.27	17839.56
697.40	17708.49
697.54	17472.10
697.67	17472.10
697.80	17369.12
697.94	17228.68
698.07	17273.15
698.21	17137.40
698.34	17282.52
698.47	17231.02
698.61	17245.07
698.74	17043.78
698.87	16702.06
699.01	16552.27
699.14	16397.79
699.27	16531.20
699.40	16175.44
699.54	16578.01
699.67	16276.09
699.80	16470.35
699.94	16418.86
700.07	16016.29
700.20	15768.19
700.34	16086.50
700.47	16137.99
700.60	16154.38
700.73	16065.44
700.87	15768.19
701.00	15658.18
701.13	15712.02
701.26	15400.72
701.40	15655.84
701.53	15248.59
701.66	15250.93
701.79	15159.65
701.93	15108.16
702.06	15082.41
702.19	14932.62
702.32	15037.94
702.46	14977.09
702.59	14925.60
702.72	14916.23
702.85	14972.41
702.99	14698.56
703.12	14621.33
703.25	14539.41
703.38	14415.36
703.51	14572.18
703.65	14497.28
703.78	14506.64
703.91	14193.01
704.04	14148.54
704.17	13987.04
704.31	14239.82
704.44	13968.32
704.57	14090.02
704.70	13965.98
704.83	13659.37
704.96	13834.91
705.10	13804.48
705.23	13654.69
>>>>>End Processed Spectral Data<<<<<
