SpectraSuite Data File
++++++++++++++++++++++++++++++++++++
Date: Fri Oct 25 11:34:04 EDT 2013
User: price-jones
Dark Spectrum Present: No
Reference Spectrum Present: No
Number of Sampled Component Spectra: 1
Spectrometers: USB2+H05261
Integration Time (usec): 100000 (USB2+H05261)
Spectra Averaged: 1 (USB2+H05261)
Boxcar Smoothing: 0 (USB2+H05261)
Correct for Electrical Dark: No (USB2+H05261)
Strobe/Lamp Enabled: No (USB2+H05261)
Correct for Detector Non-linearity: No (USB2+H05261)
Correct for Stray Light: No (USB2+H05261)
Number of Pixels in Processed Spectrum: 2048
>>>>>Begin Processed Spectral Data<<<<<
365.73	280.86
365.92	280.86
366.12	280.86
366.32	203.63
366.52	220.01
366.72	184.90
366.91	161.50
367.11	182.56
367.31	220.01
367.51	168.52
367.70	154.48
367.90	227.03
368.10	222.35
368.30	152.13
368.49	119.37
368.69	154.48
368.89	257.46
369.09	138.09
369.28	231.71
369.48	245.76
369.68	217.67
369.87	220.01
370.07	252.78
370.27	367.46
370.47	325.33
370.66	535.98
370.86	573.43
371.06	449.38
371.25	545.34
371.45	458.74
371.65	561.73
371.84	451.72
372.04	526.62
372.24	603.86
372.44	564.07
372.63	615.56
372.83	550.03
373.03	538.32
373.22	561.73
373.42	557.05
373.62	653.01
373.81	638.97
374.01	648.33
374.21	650.67
374.40	592.16
374.60	664.71
374.79	645.99
374.99	571.09
375.19	599.18
375.38	685.78
375.58	627.26
375.78	688.12
375.97	615.56
376.17	678.76
376.37	690.46
376.56	571.09
376.76	704.50
376.95	634.29
377.15	688.12
377.35	641.31
377.54	741.95
377.74	660.03
377.93	702.16
378.13	692.80
378.33	685.78
378.52	699.82
378.72	753.65
378.91	737.27
379.11	669.39
379.31	786.42
379.50	725.57
379.70	763.01
379.89	727.91
380.09	798.12
380.28	821.53
380.48	802.80
380.68	685.78
380.87	667.05
381.07	751.31
381.26	744.29
381.46	751.31
381.65	753.65
381.85	781.74
382.04	774.72
382.24	779.40
382.43	807.48
382.63	814.51
382.83	809.83
383.02	826.21
383.22	767.70
383.41	692.80
383.61	791.10
383.80	791.10
384.00	767.70
384.19	751.31
384.39	863.66
384.58	835.57
384.78	819.19
384.97	849.61
385.17	791.10
385.36	812.17
385.56	812.17
385.75	779.40
385.95	823.87
386.14	877.70
386.34	870.68
386.53	910.47
386.72	791.10
386.92	891.74
387.11	795.78
387.31	882.38
387.50	936.21
387.70	828.55
387.89	875.36
388.09	873.02
388.28	908.13
388.48	929.19
388.67	924.51
388.86	870.68
389.06	891.74
389.25	931.53
389.45	926.85
389.64	891.74
389.84	1034.52
390.03	915.15
390.22	1008.77
390.42	964.30
390.61	933.87
390.81	1053.24
391.00	980.68
391.19	1015.79
391.39	966.64
391.58	978.34
391.78	983.02
391.97	1048.56
392.16	1076.65
392.36	1076.65
392.55	1011.11
392.75	940.90
392.94	929.19
393.13	1064.94
393.33	990.05
393.52	1135.16
393.71	1062.60
393.91	1078.99
394.10	1034.52
394.29	1111.75
394.49	1123.46
394.68	1151.54
394.88	1109.41
395.07	1210.06
395.26	1107.07
395.46	1095.37
395.65	1226.44
395.84	1188.99
396.04	1231.12
396.23	1132.82
396.42	1128.14
396.62	1191.33
396.81	1181.97
397.00	1261.55
397.19	1219.42
397.39	1111.75
397.58	1235.80
397.77	1210.06
397.97	1210.06
398.16	1207.72
398.35	1259.21
398.55	1313.04
398.74	1280.27
398.93	1277.93
399.12	1233.46
399.32	1261.55
399.51	1259.21
399.70	1331.76
399.90	1254.53
400.09	1350.49
400.28	1341.13
400.47	1310.70
400.67	1366.87
400.86	1343.47
401.05	1345.81
401.24	1390.28
401.44	1411.34
401.63	1500.28
401.82	1420.71
402.01	1509.65
402.21	1486.24
402.40	1551.78
402.59	1469.86
402.78	1310.70
402.97	1439.43
403.17	1516.67
403.36	1624.33
403.55	1495.60
403.74	1565.82
403.93	1556.46
404.13	1638.38
404.32	1614.97
404.51	1516.67
404.70	1633.69
404.89	1535.39
405.09	1680.50
405.28	1563.48
405.47	1654.76
405.66	1661.78
405.85	1636.03
406.05	1746.04
406.24	1755.40
406.43	1701.57
406.62	1753.06
406.81	1769.44
407.00	1825.62
407.20	1816.26
407.39	1710.93
407.58	1802.21
407.77	1813.92
407.96	1748.38
408.15	1795.19
408.34	1832.64
408.54	1844.34
408.73	1881.79
408.92	1921.58
409.11	1893.49
409.30	1994.14
409.49	2010.52
409.68	1952.01
409.87	2033.93
410.07	2078.40
410.26	2047.97
410.45	2050.31
410.64	1961.37
410.83	2047.97
411.02	2087.76
411.21	2113.50
411.40	2125.21
411.59	2136.91
411.78	2125.21
411.98	2129.89
412.17	2211.81
412.36	2263.30
412.55	2331.17
412.74	2289.04
412.93	2267.98
413.12	2291.38
413.31	2401.39
413.50	2338.20
413.69	2387.35
413.88	2401.39
414.07	2408.41
414.26	2485.65
414.45	2464.58
414.64	2476.29
414.83	2654.17
415.02	2569.91
415.22	2689.28
415.41	2677.57
415.60	2686.94
415.79	2640.12
415.98	2708.00
416.17	2768.85
416.36	2651.83
416.55	2663.53
416.74	2757.15
416.93	2773.53
417.12	2775.88
417.31	2747.79
417.50	2703.32
417.69	2974.82
417.88	2925.67
418.07	3007.59
418.26	2960.78
418.45	2942.05
418.64	3056.74
418.83	3052.06
419.02	3038.02
419.21	3045.04
419.39	3126.96
419.58	2899.92
419.77	3061.42
419.96	3082.49
420.15	3098.87
420.34	3021.63
420.53	3201.85
420.72	3208.87
420.91	3131.64
421.10	3215.90
421.29	3227.60
421.48	3110.57
421.67	3236.96
421.86	3218.24
422.05	3122.27
422.24	3150.36
422.43	3295.47
422.61	3290.79
422.80	3321.22
422.99	3295.47
423.18	3293.13
423.37	3314.20
423.56	3342.28
423.75	3314.20
423.94	3243.98
424.13	3155.04
424.32	3211.22
424.50	3283.77
424.69	3391.44
424.88	3440.59
425.07	3407.82
425.26	3323.56
425.45	3447.61
425.64	3447.61
425.83	3316.54
426.01	3382.07
426.20	3421.86
426.39	3445.27
426.58	3389.10
426.77	3353.99
426.96	3487.40
427.15	3433.57
427.33	3585.70
427.52	3466.33
427.71	3524.85
427.90	3494.42
428.09	3599.74
428.28	3679.32
428.46	3627.83
428.65	3627.83
428.84	3716.77
429.03	3695.71
429.22	3681.66
429.40	3674.64
429.59	3889.97
429.78	3618.47
429.97	3597.40
430.16	3674.64
430.34	3805.71
430.53	3840.82
430.72	3838.48
430.91	3882.95
431.10	3737.84
431.28	3829.12
431.47	3927.42
431.66	3957.85
431.85	3901.67
432.03	3990.61
432.22	3967.21
432.41	3955.51
432.60	3983.59
432.79	3992.95
432.97	3946.14
433.16	4168.49
433.35	4077.21
433.54	4098.28
433.72	4301.90
433.91	4166.15
434.10	4049.13
434.28	4168.49
434.47	4205.94
434.66	4184.88
434.85	4257.43
435.03	4219.99
435.22	4292.54
435.41	4381.48
435.59	4416.59
435.78	4245.73
435.97	4229.35
436.16	4231.69
436.34	4170.83
436.53	4376.80
436.72	4397.87
436.90	4348.72
437.09	4461.06
437.28	4369.78
437.46	4432.97
437.65	4470.42
437.84	4423.61
438.02	4503.19
438.21	4465.74
438.40	4489.15
438.58	4795.76
438.77	4564.04
438.96	4681.07
439.14	4849.59
439.33	4753.63
439.52	4910.44
439.70	4716.18
439.89	4884.70
440.08	5050.88
440.26	5100.03
440.45	4936.19
440.63	4961.94
440.82	5088.32
441.01	5048.54
441.19	5142.16
441.38	5132.79
441.57	5151.52
441.75	5186.63
441.94	5263.86
442.12	5188.97
442.31	5291.95
442.50	5376.21
442.68	5303.65
442.87	5308.34
443.05	5423.02
443.24	5509.62
443.43	5425.36
443.61	5455.79
443.80	5675.80
443.98	5280.25
444.17	5074.28
444.35	5479.19
444.54	5542.39
444.73	5373.87
444.91	5514.30
445.10	5495.58
445.28	5460.47
445.47	5418.34
445.65	5542.39
445.84	5579.84
446.02	5577.50
446.21	5715.59
446.39	5650.05
446.58	5675.80
446.77	5579.84
446.95	5451.11
447.14	5572.82
447.32	5523.66
447.51	5675.80
447.69	5575.16
447.88	5523.66
448.06	5856.02
448.25	5689.84
448.43	5699.20
448.62	5694.52
448.80	5830.27
448.99	5666.44
449.17	5818.57
449.36	5701.54
449.54	5598.56
449.73	5788.14
449.91	6125.18
450.10	6005.81
450.28	5914.53
450.46	5928.58
450.65	5970.71
450.83	5951.98
451.02	5926.24
451.20	6094.76
451.39	6038.58
451.57	5898.15
451.76	6026.88
451.94	6090.07
452.13	6352.21
452.31	6207.10
452.49	6012.84
452.68	6005.81
452.86	6148.59
453.05	6326.47
453.23	6218.80
453.42	6113.48
453.60	6303.06
453.78	6389.66
453.97	6333.49
454.15	6284.34
454.34	6204.76
454.52	6356.90
454.70	6380.30
454.89	6483.28
455.07	6445.84
455.26	6576.91
455.44	6579.25
455.62	6394.34
455.81	6630.74
455.99	6693.93
456.17	6670.53
456.36	6754.79
456.54	6504.35
456.73	6738.40
456.91	6745.42
457.09	6916.28
457.28	6984.16
457.46	6820.32
457.64	6892.88
457.83	7002.88
458.01	6916.28
458.19	7201.83
458.38	7178.42
458.56	7115.23
458.74	7030.97
458.93	7012.24
459.11	6881.18
459.29	7056.72
459.48	7321.20
459.66	7136.29
459.84	7295.45
460.03	7316.51
460.21	7243.96
460.39	7241.62
460.57	7250.98
460.76	7288.43
460.94	7503.76
461.12	7152.68
461.31	7286.09
461.49	7318.86
461.67	7349.28
461.85	7428.86
462.04	7501.42
462.22	7941.44
462.40	7646.53
462.59	7632.49
462.77	7618.44
462.95	7805.69
463.13	7578.65
463.32	7639.51
463.50	7602.06
463.68	7882.92
463.86	7899.31
464.05	7955.48
464.23	7812.71
464.41	7719.09
464.59	7730.79
464.78	7960.16
464.96	7793.98
465.14	7719.09
465.32	8051.44
465.50	7878.24
465.69	7995.27
465.87	7983.57
466.05	7845.48
466.23	7929.74
466.41	8133.36
466.60	8063.15
466.78	8028.04
466.96	8028.04
467.14	8037.40
467.32	8290.18
467.51	8306.56
467.69	8049.10
467.87	8149.75
468.05	8301.88
468.23	8159.11
468.41	8217.62
468.60	8184.85
468.78	8402.52
468.96	8273.79
469.14	8533.59
469.32	8566.36
469.50	8262.09
469.69	8482.10
469.87	8664.66
470.05	8631.90
470.23	8573.38
470.41	8564.02
470.59	8643.60
470.77	8568.70
470.95	8716.16
471.14	9025.11
471.32	8636.58
471.50	8856.59
471.68	8760.63
471.86	8985.32
472.04	8945.53
472.22	9057.87
472.40	9041.49
472.58	8938.51
472.77	9013.40
472.95	9437.04
473.13	9584.49
473.31	9217.03
473.49	9394.91
473.67	9193.62
473.85	9275.54
474.03	9476.83
474.21	9666.41
474.39	9610.24
474.57	9643.01
474.75	9614.92
474.93	9919.19
475.12	9757.69
475.30	9860.68
475.48	9703.86
475.66	9954.30
475.84	9909.83
476.02	10162.61
476.20	10031.54
476.38	10286.65
476.56	10597.95
476.74	10298.36
476.92	10277.29
477.10	10136.86
477.28	10443.47
477.46	10403.68
477.64	10668.16
477.82	10649.44
478.00	10885.83
478.18	10874.13
478.36	10733.70
478.54	11059.03
478.72	10993.50
478.90	11133.93
479.08	11143.29
479.26	11283.72
479.44	11428.84
479.62	11396.07
479.80	11723.74
479.98	11660.55
480.16	11976.52
480.34	11981.20
480.52	11995.25
480.70	12079.50
480.88	11817.36
481.06	12086.53
481.24	12065.46
481.41	12503.14
481.59	12697.41
481.77	12327.60
481.95	12819.11
482.13	12573.36
482.31	12781.67
482.49	12908.05
482.67	13202.96
482.85	13004.02
483.03	13081.25
483.21	13233.39
483.39	13645.32
483.57	13383.18
483.74	13535.32
483.92	13607.87
484.10	13785.76
484.28	13935.55
484.46	14097.05
484.64	14417.70
484.82	14171.94
485.00	14595.58
485.18	14497.28
485.35	14972.41
485.53	14801.55
485.71	14867.08
485.89	15070.71
486.07	15075.39
486.25	15208.80
486.43	15185.40
486.61	15372.64
486.78	15576.27
486.96	15452.22
487.14	15805.64
487.32	15712.02
487.50	16208.21
487.68	16154.38
487.85	16285.45
488.03	16430.56
488.21	16746.53
488.39	16699.72
488.57	16755.90
488.75	16931.44
488.92	16830.79
489.10	17362.09
489.28	17095.27
489.46	17694.45
489.64	17350.39
489.81	17495.50
489.99	17776.37
490.17	17752.96
490.35	17804.46
490.53	18141.49
490.70	18291.29
490.88	18225.75
491.06	18705.56
491.24	18518.32
491.41	18759.39
491.59	18640.03
491.77	19014.51
491.95	19105.79
492.13	19047.28
492.30	19220.48
492.48	19257.93
492.66	19616.03
492.84	19398.36
493.01	19702.63
493.19	19728.38
493.37	20081.80
493.54	19922.64
493.72	20107.54
493.90	20065.41
494.08	20428.20
494.25	20751.19
494.43	20360.32
494.61	20629.48
494.79	20856.51
494.96	20786.30
495.14	21039.08
495.32	21593.78
495.49	21287.17
495.67	21589.10
495.85	21827.84
496.02	21649.96
496.20	21596.12
496.38	21851.24
496.55	21727.19
496.73	22492.55
496.91	22181.26
497.09	22665.75
497.26	22504.25
497.44	22375.52
497.62	22672.77
497.79	22946.61
497.97	22616.60
498.14	23087.04
498.32	23211.09
498.50	23220.45
498.67	23667.50
498.85	23283.65
499.03	23613.66
499.20	23351.52
499.38	23517.70
499.56	23981.13
499.73	24065.39
499.91	23992.83
500.08	24395.40
500.26	23728.35
500.44	23903.89
500.61	24311.14
500.79	24353.27
500.97	24577.97
501.14	24261.99
501.32	24812.02
501.49	24793.29
501.67	24907.98
501.84	24900.96
502.02	25245.02
502.20	25549.29
502.37	25149.06
502.55	24964.15
502.72	25453.33
502.90	25542.27
503.07	25460.35
503.25	25488.43
503.43	25443.96
503.60	25666.31
503.78	26080.59
503.95	26071.23
504.13	25776.32
504.30	26129.74
504.48	26157.83
504.65	26094.63
504.83	26497.20
505.01	26441.03
505.18	26309.96
505.36	26661.04
505.53	26593.17
505.71	26565.08
505.88	26682.11
506.06	26775.73
506.23	26941.91
506.41	26731.26
506.58	27061.27
506.76	27398.31
506.93	27419.38
507.11	27115.11
507.28	27442.78
507.46	27522.36
507.63	27665.13
507.81	27957.70
507.98	27765.78
508.16	28161.33
508.33	27730.67
508.50	27810.25
508.68	28327.50
508.85	28166.01
509.03	28189.41
509.20	28542.83
509.38	28694.97
509.55	28758.16
509.73	28830.72
509.90	28783.91
510.08	28826.04
510.25	28800.29
510.42	29233.29
510.60	29436.92
510.77	28940.72
510.95	29455.64
511.12	29532.88
511.30	29244.99
511.47	29455.64
511.64	29429.90
511.82	29502.45
511.99	29584.37
512.17	29757.57
512.34	29670.97
512.51	29989.28
512.69	29944.81
512.86	30157.80
513.04	30211.64
513.21	30272.49
513.38	30382.49
513.56	30595.48
513.73	30382.49
513.90	30712.51
514.08	30436.33
514.25	30740.60
514.43	30513.56
514.60	31388.92
514.77	30951.24
514.95	31143.17
515.12	30682.08
515.29	31042.53
515.47	31477.86
515.64	31131.47
515.81	30878.69
515.99	31288.28
516.16	32053.64
516.33	31194.66
516.51	31824.26
516.68	31665.11
516.85	31999.80
517.03	31964.70
517.20	32353.23
517.37	32121.51
517.54	32236.20
517.72	32055.98
517.89	32229.18
518.06	32329.82
518.24	32210.45
518.41	32453.87
518.58	32720.69
518.75	32147.26
518.93	32732.39
519.10	32893.89
519.27	32943.04
519.45	32697.28
519.62	33010.92
519.79	33078.79
519.96	32821.33
520.14	33095.18
520.31	32926.66
520.48	33266.03
520.65	33333.91
520.83	33673.29
521.00	34022.03
521.17	33677.97
521.34	33556.26
521.52	33886.28
521.69	34040.75
521.86	33919.04
522.03	33991.60
522.20	34010.32
522.38	34323.96
522.55	34352.04
522.72	34274.80
522.89	33993.94
523.07	34808.45
523.24	34342.68
523.41	34586.10
523.58	34354.38
523.75	34756.96
523.92	34279.49
524.10	34892.71
524.27	34848.24
524.44	34983.99
524.61	35063.57
524.78	35049.52
524.96	35225.06
525.13	35255.49
525.30	35026.12
525.47	35475.50
525.64	34773.34
525.81	35285.92
525.98	35739.98
526.16	35489.54
526.33	35627.63
526.50	35644.02
526.67	35847.64
526.84	35763.39
527.01	35564.44
527.18	36481.93
527.36	36027.87
527.53	36257.24
527.70	36577.89
527.87	36474.91
528.04	35845.30
528.21	36470.23
528.38	36547.47
528.55	36744.07
528.72	36329.80
528.89	36442.14
529.07	36282.98
529.24	36662.15
529.41	36608.32
529.58	36947.70
529.75	36275.96
529.92	36992.17
530.09	37029.62
530.26	36924.29
530.43	36811.95
530.60	37017.91
530.77	36849.39
530.94	37268.35
531.11	36737.05
531.28	37181.75
531.46	37156.00
531.63	36919.61
531.80	37251.97
531.97	37413.46
532.14	37216.86
532.31	37350.27
532.48	37649.86
532.65	37895.61
532.82	37675.60
532.99	38124.99
533.16	37837.10
533.33	37579.64
533.50	37673.26
533.67	38330.95
533.84	37778.59
534.01	38043.07
534.18	37949.45
534.35	38770.97
534.52	38520.54
534.69	38167.12
534.86	38359.04
535.03	38106.26
535.20	38536.92
535.37	38927.79
535.54	38597.77
535.71	38597.77
535.88	39012.05
536.05	38749.91
536.22	38780.34
536.38	38792.04
536.55	38543.94
536.72	38602.46
536.89	39037.80
537.06	38667.99
537.23	38639.90
537.40	38733.53
537.57	39063.54
537.74	38878.64
537.91	39435.69
538.08	39519.95
538.25	38845.87
538.42	39220.36
538.59	39707.19
538.75	39519.95
538.92	39981.03
539.09	39805.49
539.26	39414.62
539.43	39796.13
539.60	39725.91
539.77	39627.61
539.94	39936.56
540.11	39997.41
540.28	39515.26
540.44	39264.83
540.61	39959.97
540.78	39686.12
540.95	39871.03
541.12	39936.56
541.29	39548.03
541.46	39896.77
541.62	40360.20
541.79	40495.95
541.96	39777.40
542.13	39950.60
542.30	40175.30
542.47	40156.57
542.63	40259.55
542.80	40650.42
542.97	40872.78
543.14	40987.46
543.31	40914.90
543.48	41141.94
543.64	41706.01
543.81	41481.31
543.98	41301.09
544.15	41312.80
544.32	41191.09
544.48	41717.71
544.65	41083.42
544.82	41249.60
544.99	41504.72
545.16	41436.84
545.32	41354.93
545.49	41319.82
545.66	42012.62
545.83	41710.69
546.00	41743.45
546.16	41900.27
546.33	41624.09
546.50	41343.22
546.67	42106.24
546.83	41354.93
547.00	41698.98
547.17	41860.48
547.34	41731.75
547.50	42101.56
547.67	42424.55
547.84	42181.13
548.00	42251.35
548.17	42646.90
548.34	42241.99
548.51	42291.14
548.67	42321.57
548.84	42300.50
549.01	41869.84
549.18	42637.54
549.34	42801.38
549.51	42803.72
549.68	42426.89
549.84	42267.73
550.01	42787.33
550.18	42850.53
550.34	42651.58
550.51	42759.25
550.68	43026.07
550.84	42572.00
551.01	42801.38
551.18	42380.08
551.34	42895.00
551.51	43374.81
551.68	42972.24
551.84	42831.80
552.01	42981.60
552.18	42754.57
552.34	42616.47
552.51	43339.70
552.68	42799.04
552.84	43201.61
553.01	43257.78
553.18	43229.69
553.34	43283.53
553.51	42948.83
553.67	43021.39
553.84	43405.23
554.01	43180.54
554.17	43562.05
554.34	43655.67
554.51	43447.36
554.67	44088.67
554.84	43693.12
555.00	43716.53
555.17	43667.37
555.33	43945.90
555.50	43674.40
555.67	43707.16
555.83	43873.34
556.00	43873.34
556.16	43906.11
556.33	43915.47
556.50	44158.89
556.66	44072.29
556.83	43910.79
556.99	44088.67
557.16	44184.63
557.32	44582.52
557.49	44245.49
557.65	43971.64
557.82	43929.51
557.98	44357.83
558.15	44163.57
558.32	44421.03
558.48	44547.42
558.65	44369.54
558.81	44215.06
558.98	44465.50
559.14	44069.95
559.31	44114.42
559.47	43936.54
559.64	44861.05
559.80	44498.26
559.97	44818.92
560.13	44348.47
560.30	44392.94
560.46	44910.20
560.63	44741.68
560.79	44877.43
560.96	44678.49
561.12	44844.66
561.29	45202.77
561.45	45071.70
561.61	45083.40
561.78	44842.32
561.94	44807.22
562.11	44896.16
562.27	44739.34
562.44	45055.31
562.60	44711.25
562.77	45118.51
562.93	44797.85
563.10	45247.24
563.26	45024.89
563.42	44828.28
563.59	44615.29
563.75	44711.25
563.92	44636.36
564.08	44938.29
564.24	45092.76
564.41	45219.15
564.57	44959.35
564.74	45059.99
564.90	44945.31
565.07	45003.82
565.23	44954.67
565.39	45591.30
565.56	45535.12
565.72	45233.19
565.88	45233.19
566.05	45193.40
566.21	44769.77
566.38	44802.53
566.54	45595.98
566.70	45811.31
566.87	45469.59
567.03	45382.99
567.19	45804.28
567.36	45331.50
567.52	45518.74
567.68	45708.32
567.85	45560.87
568.01	45684.92
568.17	45572.57
568.34	45446.18
568.50	46080.47
568.66	45331.50
568.83	45478.95
568.99	45408.73
569.15	45371.28
569.32	45652.15
569.48	45392.35
569.64	45478.95
569.81	45612.36
569.97	45750.45
570.13	45654.49
570.30	45626.40
570.46	45830.03
570.62	45876.84
570.78	45691.94
570.95	45708.32
571.11	45862.80
571.27	45696.62
571.43	46033.66
571.60	45191.06
571.76	45872.16
571.92	45621.72
572.09	45869.82
572.25	46050.04
572.41	45474.27
572.57	45991.53
572.74	45947.06
572.90	45855.78
573.06	45998.55
573.22	45687.26
573.38	46277.07
573.55	46239.62
573.71	46424.53
573.87	46337.93
574.03	46120.26
574.20	45853.44
574.36	45911.95
574.52	46230.26
574.68	46134.30
574.84	46160.05
575.01	46354.31
575.17	46033.66
575.33	46190.47
575.49	46052.38
575.65	46504.10
575.82	46557.94
575.98	45844.07
576.14	46721.77
576.30	46438.57
576.46	46539.21
576.62	45961.10
576.79	46141.32
576.95	46110.89
577.11	46333.24
577.27	45876.84
577.43	46007.91
577.59	46377.72
577.75	45928.33
577.92	45858.12
578.08	45996.21
578.24	46267.71
578.40	46335.59
578.56	46012.59
578.72	46436.23
578.88	46291.12
579.04	46171.75
579.21	46164.73
579.37	46028.98
579.53	46204.52
579.69	46171.75
579.85	46279.41
580.01	45986.85
580.17	46213.88
580.33	46429.21
580.49	45958.76
580.65	46520.49
580.82	46300.48
580.98	46387.08
581.14	46190.47
581.30	46272.39
581.46	46204.52
581.62	46258.35
581.78	46693.69
581.94	46410.48
582.10	46363.67
582.26	46138.98
582.42	46288.77
582.58	46527.51
582.74	46672.62
582.90	46440.91
583.06	46834.12
583.22	46309.84
583.38	46581.34
583.54	45979.82
583.70	46630.49
583.86	46452.61
584.02	46124.94
584.18	46576.66
584.34	46796.67
584.50	46731.14
584.66	46522.83
584.82	46471.34
584.98	46380.06
585.14	46806.03
585.30	46244.30
585.46	46337.93
585.62	46117.92
585.78	46590.70
585.94	46225.58
586.10	46260.69
586.26	46174.09
586.42	46267.71
586.58	46600.07
586.74	46248.99
586.90	46127.28
587.06	46106.21
587.22	46560.28
587.38	46536.87
587.54	46637.51
587.70	47070.51
587.86	46588.36
588.02	46618.79
588.18	47145.41
588.34	46525.17
588.49	46426.87
588.65	46426.87
588.81	46553.26
588.97	47075.19
589.13	46721.77
589.29	46225.58
589.45	46784.97
589.61	46857.52
589.77	46775.61
589.93	46473.68
590.08	46651.56
590.24	47262.44
590.40	47274.14
590.56	46747.52
590.72	47334.99
590.88	46866.89
591.04	46419.84
591.20	46885.61
591.35	46827.10
591.51	47611.18
591.67	47040.09
591.83	47372.44
591.99	47157.11
592.15	46740.50
592.31	46941.78
592.46	46586.02
592.62	46862.21
592.78	47210.95
592.94	47271.80
593.10	46930.08
593.26	47330.31
593.41	47606.50
593.57	46749.86
593.73	47145.41
593.89	47639.26
594.05	47700.12
594.20	47061.15
594.36	47466.06
594.52	47224.99
594.68	47189.88
594.84	47107.96
594.99	47477.77
595.15	47489.47
595.31	47325.63
595.47	47196.90
595.62	47304.57
595.78	47065.83
595.94	47569.05
596.10	47000.30
596.25	47000.30
596.41	47543.30
596.57	46944.12
596.73	47107.96
596.88	47409.89
597.04	47349.04
597.20	47192.22
597.36	46911.36
597.51	46862.21
597.67	46639.86
597.83	47098.60
597.99	46904.34
598.14	47023.70
598.30	46958.17
598.46	47103.28
598.61	47819.49
598.77	47498.83
598.93	47648.63
599.09	47351.38
599.24	47810.12
599.40	47152.43
599.56	47545.64
599.71	47559.69
599.87	47803.10
600.03	47695.44
600.18	47531.60
600.34	47749.27
600.50	47241.37
600.65	47405.21
600.81	47707.14
600.97	47562.03
601.12	47531.60
601.28	47313.93
601.44	47643.94
601.59	47746.93
601.75	47604.16
601.91	47632.24
602.06	47313.93
602.22	47501.17
602.37	47421.59
602.53	47372.44
602.69	47461.38
602.84	47185.20
603.00	47365.42
603.16	47697.78
603.31	47351.38
603.47	47332.65
603.62	47393.51
603.78	47517.56
603.94	47283.50
604.09	47178.18
604.25	47114.98
604.40	47316.27
604.56	47452.02
604.71	47430.96
604.87	47585.43
605.03	47159.45
605.18	47407.55
605.34	47283.50
605.49	46864.55
605.65	47700.12
605.80	47318.61
605.96	46759.22
606.12	47061.15
606.27	47587.77
606.43	47196.90
606.58	47742.25
606.74	47618.20
606.89	47199.24
607.05	47627.56
607.20	47501.17
607.36	47220.31
607.51	47136.05
607.67	47522.24
607.82	47107.96
607.98	47393.51
608.13	47428.62
608.29	47201.58
608.44	47330.31
608.60	47182.86
608.75	47112.64
608.91	47054.13
609.06	47196.90
609.22	47182.86
609.37	46560.28
609.53	47262.44
609.68	46904.34
609.84	47065.83
609.99	47248.39
610.15	47129.03
610.30	47501.17
610.46	46660.92
610.61	46930.08
610.76	47196.90
610.92	47110.30
611.07	46944.12
611.23	46789.65
611.38	46768.58
611.54	46981.57
611.69	46981.57
611.84	46974.55
612.00	46923.06
612.15	47023.70
612.31	46820.08
612.46	46443.25
612.62	46553.26
612.77	46670.28
612.92	46780.29
613.08	46625.81
613.23	46906.68
613.39	47070.51
613.54	46883.27
613.69	47019.02
613.85	46841.14
614.00	46632.83
614.15	47344.36
614.31	46522.83
614.46	46789.65
614.62	46574.32
614.77	46607.09
614.92	46738.16
615.08	46354.31
615.23	46993.28
615.38	46873.91
615.54	46726.46
615.69	46487.72
615.84	46808.37
616.00	46752.20
616.15	46775.61
616.30	46810.71
616.46	46351.97
616.61	46604.75
616.76	46398.78
616.92	46623.47
617.07	46422.19
617.22	46314.52
617.37	46286.43
617.53	46445.59
617.68	46330.90
617.83	46218.56
617.99	46581.34
618.14	46452.61
618.29	46581.34
618.45	46197.49
618.60	46218.56
618.75	45530.44
618.90	46096.85
619.06	45930.67
619.21	46244.30
619.36	46110.89
619.51	46134.30
619.67	46007.91
619.82	45991.53
619.97	46286.43
620.12	45918.97
620.28	45977.48
620.43	45991.53
620.58	45982.16
620.73	46192.81
620.89	45949.40
621.04	45823.01
621.19	46178.77
621.34	46043.02
621.49	45918.97
621.65	45970.46
621.80	46377.72
621.95	45827.69
622.10	45921.31
622.25	45689.60
622.41	45455.54
622.56	46026.63
622.71	45769.18
622.86	45900.25
623.01	45787.90
623.16	45766.84
623.32	45848.75
623.47	45462.57
623.62	45755.13
623.77	45860.46
623.92	46101.53
624.07	45631.08
624.23	45752.79
624.38	45378.31
624.53	45345.54
624.68	45682.58
624.83	45118.51
624.98	45209.79
625.13	45471.93
625.29	44814.24
625.44	45441.50
625.59	45287.03
625.74	45373.63
625.89	44898.50
626.04	45186.38
626.19	44835.30
626.34	44790.83
626.49	45034.25
626.65	44872.75
626.80	45357.24
626.95	44847.00
627.10	44687.85
627.25	44971.05
627.40	44856.37
627.55	45111.49
627.70	45015.52
627.85	45027.23
628.00	45237.87
628.15	44875.09
628.30	44369.54
628.45	44538.05
628.60	44261.87
628.76	44893.82
628.91	44608.27
629.06	44732.32
629.21	44507.63
629.36	44641.04
629.51	44790.83
629.66	44385.92
629.81	44720.62
629.96	44624.65
630.11	44704.23
630.26	43978.67
630.41	44882.11
630.56	43952.92
630.71	44327.41
630.86	44091.01
631.01	44226.76
631.16	44828.28
631.31	44044.20
631.46	44404.64
631.61	44631.68
631.76	44538.05
631.91	44364.85
632.06	44491.24
632.21	44680.83
632.36	44683.17
632.51	44013.77
632.66	44701.89
632.81	44388.26
632.96	44547.42
633.10	43770.36
633.25	44048.88
633.40	44163.57
633.55	44552.10
633.70	44027.82
633.85	43997.39
634.00	43442.68
634.15	44126.12
634.30	43842.92
634.45	44088.67
634.60	44151.87
634.75	43887.39
634.90	44107.40
635.05	44032.50
635.19	43716.53
635.34	44041.86
635.49	43636.95
635.64	44039.52
635.79	43810.15
635.94	43817.17
636.09	44320.38
636.24	43625.25
636.39	43735.25
636.53	43983.35
636.68	43115.01
636.83	43110.33
636.98	43580.78
637.13	42672.65
637.28	43381.83
637.43	43236.72
637.57	43098.62
637.72	42953.51
637.87	43002.66
638.02	43229.69
638.17	43379.49
638.32	42925.42
638.46	43283.53
638.61	43152.46
638.76	43089.26
638.91	42712.44
639.06	42756.91
639.20	42976.92
639.35	42763.93
639.50	42792.01
639.65	42869.25
639.80	43379.49
639.94	42930.11
640.09	43461.41
640.24	43229.69
640.39	42637.54
640.54	42471.36
640.68	42988.62
640.83	43234.38
640.98	42574.34
641.13	42323.91
641.27	43100.97
641.42	42820.10
641.57	42712.44
641.72	42780.31
641.86	42710.10
642.01	42752.23
642.16	42639.88
642.31	42031.34
642.45	42838.83
642.60	42293.48
642.75	42518.17
642.90	42773.29
643.04	42440.93
643.19	42204.54
643.34	42513.49
643.48	41745.80
643.63	42597.75
643.78	42277.10
643.93	42691.37
644.07	42852.87
644.22	42337.95
644.37	42026.66
644.51	42525.19
644.66	41984.53
644.81	42412.85
644.95	42646.90
645.10	41958.78
645.25	41825.37
645.39	42139.00
645.54	41965.81
645.69	41544.51
645.83	41680.26
645.98	41542.17
646.13	41804.31
646.27	41504.72
646.42	41717.71
646.57	41869.84
646.71	42410.51
646.86	41972.83
647.00	41942.40
647.15	41855.80
647.30	41656.85
647.44	41818.35
647.59	41593.66
647.74	41500.04
647.88	41937.72
648.03	41816.01
648.17	42014.96
648.32	41893.25
648.47	41626.43
648.61	41443.87
648.76	41523.44
648.90	41366.63
649.05	40961.72
649.20	41673.24
649.34	41474.29
649.49	41298.75
649.63	41289.39
649.78	41411.10
649.92	41881.55
650.07	41897.93
650.21	41748.14
650.36	41596.00
650.51	41284.71
650.65	41736.43
650.80	41153.64
650.94	41455.57
651.09	41235.56
651.23	41085.76
651.38	40659.79
651.52	40842.35
651.67	41155.98
651.81	41170.02
651.96	40928.95
652.10	40505.31
652.25	41427.48
652.39	40926.61
652.54	40851.71
652.68	40755.75
652.83	41188.75
652.97	41095.13
653.12	40608.29
653.26	40690.21
653.41	40769.79
653.55	40493.61
653.70	41022.57
653.84	40811.92
653.99	41202.79
654.13	40940.65
654.27	40451.48
654.42	40814.26
654.56	40636.38
654.71	40994.48
654.85	40978.10
655.00	40542.76
655.14	40652.76
655.29	40842.35
655.43	40917.25
655.57	40374.24
655.72	40196.36
655.86	40350.84
656.01	40144.87
656.15	40004.44
656.30	40320.41
656.44	40257.21
656.58	40919.59
656.73	40297.00
656.87	40086.36
657.01	39725.91
657.16	40311.05
657.30	40261.90
657.45	40067.63
657.59	39821.87
657.73	40020.82
657.88	40135.51
658.02	40194.02
658.16	40187.00
658.31	39611.23
658.45	39782.09
658.60	39515.26
658.74	39681.44
658.88	39669.74
659.03	39866.34
659.17	39732.93
659.31	39482.50
659.46	39519.95
659.60	39908.47
659.74	39660.38
659.89	38944.17
660.03	39068.22
660.17	39487.18
660.32	39234.40
660.46	39578.46
660.60	39108.01
660.74	39014.39
660.89	39086.95
661.03	38581.39
661.17	38969.92
661.32	38885.66
661.46	39182.91
661.60	38761.61
661.74	38808.42
661.89	38401.17
662.03	38309.89
662.17	38550.96
662.31	38946.51
662.46	38499.47
662.60	38663.31
662.74	38216.27
662.88	38293.50
663.03	37984.55
663.17	38183.50
663.31	38368.40
663.45	38305.21
663.60	38799.06
663.74	38469.04
663.88	38073.49
664.02	37816.04
664.17	37982.21
664.31	37839.44
664.45	38054.77
664.59	37846.46
664.73	37294.10
664.88	37954.13
665.02	37366.65
665.16	37677.94
665.30	37928.38
665.44	37818.38
665.59	37303.46
665.73	37273.03
665.87	36877.48
666.01	37308.14
666.15	37312.82
666.29	36589.59
666.44	37397.08
666.58	37195.79
666.72	36720.66
666.86	36851.73
667.00	36765.14
667.14	37104.51
667.28	36507.68
667.43	36453.84
667.57	36957.06
667.71	36882.16
667.85	37139.62
667.99	36652.79
668.13	36261.92
668.27	36608.32
668.41	36715.98
668.56	35861.69
668.70	35974.03
668.84	35952.97
668.98	35592.53
669.12	36058.29
669.26	35857.01
669.40	35835.94
669.54	36226.81
669.68	35887.43
669.82	35812.54
669.96	35629.98
670.10	35381.88
670.25	35150.17
670.39	35222.72
670.53	35988.08
670.67	35512.95
670.81	35592.53
670.95	35091.65
671.09	35182.93
671.23	34991.01
671.37	35196.98
671.51	34763.98
671.65	34663.33
671.79	35026.12
671.93	35147.82
672.07	35131.44
672.21	34785.04
672.35	34433.96
672.49	34403.53
672.63	34513.54
672.77	34419.92
672.91	34623.54
673.05	34237.36
673.19	33935.43
673.33	33762.23
673.47	33530.51
673.61	34108.63
673.75	33560.94
673.89	33963.51
674.03	33479.02
674.17	33296.46
674.31	33153.69
674.45	33347.95
674.59	33200.50
674.73	33123.26
674.87	32786.22
675.01	32746.44
675.15	32402.38
675.29	32893.89
675.43	32521.74
675.56	33212.20
675.70	32898.57
675.84	32648.13
675.98	31665.11
676.12	32423.44
676.26	32673.88
676.40	32402.38
676.54	31978.74
676.68	31770.43
676.82	31552.76
676.96	32268.97
677.10	32121.51
677.23	31550.42
677.37	31459.14
677.51	31384.24
677.65	31620.64
677.79	31452.12
677.93	30967.63
678.07	31257.85
678.21	31077.63
678.34	30775.70
678.48	30621.23
678.62	30859.96
678.76	30738.26
678.90	30668.04
679.04	30689.10
679.18	31009.76
679.31	29991.62
679.45	30581.44
679.59	30221.00
679.73	30139.08
679.87	30202.27
680.00	29802.04
680.14	29839.49
680.28	29694.38
680.42	29535.22
680.56	29635.86
680.70	29205.20
680.83	29216.91
680.97	29081.16
681.11	29418.19
681.25	28786.25
681.39	28814.34
681.52	28467.94
681.66	28631.77
681.80	28236.22
681.94	28257.29
682.07	27929.61
682.21	28020.89
682.35	27861.74
682.49	28386.02
682.62	27845.35
682.76	28311.12
682.90	28086.43
683.04	27246.18
683.17	27805.56
683.31	27456.82
683.45	27281.28
683.59	27480.23
683.72	26995.74
683.86	27260.22
684.00	27283.62
684.13	27012.12
684.27	26548.70
684.41	26824.88
684.55	26792.11
684.68	26518.27
684.82	26686.79
684.96	26183.57
685.09	26691.47
685.23	26258.47
685.37	26494.86
685.50	26162.51
685.64	26253.79
685.78	25635.89
685.91	25605.46
686.05	25355.02
686.19	25233.32
686.32	25645.25
686.46	25027.35
686.60	25165.44
686.73	25481.41
686.87	24954.79
687.01	25017.99
687.14	25109.27
687.28	25029.69
687.42	24561.58
687.55	24500.73
687.69	24608.39
687.82	24130.92
687.96	24559.24
688.10	24271.36
688.23	24453.92
688.37	24269.01
688.50	24137.94
688.64	24154.33
688.78	24250.29
688.91	23847.72
689.05	23786.86
689.18	23276.63
689.32	23129.17
689.46	23545.79
689.59	23475.57
689.73	23627.71
689.86	23491.96
690.00	23281.31
690.13	22927.89
690.27	22745.33
690.41	23028.53
690.54	22850.65
690.68	22473.82
690.81	22480.85
690.95	22291.26
691.08	22412.97
691.22	22281.90
691.35	22064.23
691.49	22513.61
691.62	22225.73
691.76	21488.46
691.89	21518.89
692.03	21308.24
692.16	21399.52
692.30	21687.40
692.43	21216.96
692.57	21312.92
692.70	21043.76
692.84	21242.70
692.97	21041.42
693.11	20758.21
693.24	20685.65
693.38	20662.25
693.51	20575.65
693.65	20655.23
693.78	20217.55
693.92	20456.28
694.05	20348.62
694.19	20128.61
694.32	20201.16
694.45	20444.58
694.59	20070.09
694.72	19969.45
694.86	19908.60
694.99	19726.04
695.13	19477.94
695.26	19541.13
695.39	19187.71
695.53	19342.19
695.66	19101.11
695.80	19257.93
695.93	19091.75
696.07	18677.48
696.20	18532.36
696.33	18541.72
696.47	18352.14
696.60	18579.17
696.73	18824.93
696.87	18665.77
697.00	18831.95
697.14	18246.82
697.27	18256.18
697.40	18155.54
697.54	18260.86
697.67	18047.87
697.80	18174.26
697.94	17837.22
698.07	17895.74
698.21	17539.97
698.34	17577.42
698.47	17341.03
698.61	17160.81
698.74	17118.68
698.87	17413.59
699.01	17191.23
699.14	17202.94
699.27	17076.55
699.40	17078.89
699.54	16783.98
699.67	16985.27
699.80	16744.19
699.94	16898.67
700.07	16826.11
700.20	16524.18
700.34	16226.93
700.47	16290.13
700.60	16402.47
700.73	16348.64
700.87	16184.80
701.00	15906.28
701.13	15929.69
701.26	15889.90
701.40	15606.69
701.53	15756.49
701.66	15618.39
701.79	15414.77
701.93	14963.04
702.06	15279.02
702.19	15311.78
702.32	15480.30
702.46	15232.21
702.59	15178.37
702.72	15190.08
702.85	15161.99
702.99	15033.26
703.12	14857.72
703.25	14595.58
703.38	14637.71
703.51	14640.05
703.65	14424.72
703.78	14246.84
703.91	14382.59
704.04	14352.16
704.17	14288.97
704.31	14221.10
704.44	14195.35
704.57	13916.83
704.70	13954.27
704.83	14078.32
704.96	13743.63
705.10	13757.67
705.23	13563.40
>>>>>End Processed Spectral Data<<<<<
