SpectraSuite Data File
++++++++++++++++++++++++++++++++++++
Date: Fri Oct 25 11:33:32 EDT 2013
User: price-jones
Dark Spectrum Present: No
Reference Spectrum Present: No
Number of Sampled Component Spectra: 1
Spectrometers: USB2+H05261
Integration Time (usec): 100000 (USB2+H05261)
Spectra Averaged: 1 (USB2+H05261)
Boxcar Smoothing: 0 (USB2+H05261)
Correct for Electrical Dark: No (USB2+H05261)
Strobe/Lamp Enabled: No (USB2+H05261)
Correct for Detector Non-linearity: No (USB2+H05261)
Correct for Stray Light: No (USB2+H05261)
Number of Pixels in Processed Spectrum: 2048
>>>>>Begin Processed Spectral Data<<<<<
365.73	250.44
365.92	250.44
366.12	250.44
366.32	262.14
366.52	175.54
366.72	271.50
366.91	203.63
367.11	133.41
367.31	205.97
367.51	163.84
367.70	198.95
367.90	131.07
368.10	133.41
368.30	147.45
368.49	170.86
368.69	227.03
368.89	161.50
369.09	187.24
369.28	248.10
369.48	250.44
369.68	264.48
369.87	196.60
370.07	241.08
370.27	278.52
370.47	313.63
370.66	416.62
370.86	465.77
371.06	561.73
371.25	545.34
371.45	519.60
371.65	566.41
371.84	594.50
372.04	587.47
372.24	524.28
372.44	524.28
372.63	557.05
372.83	610.88
373.03	617.90
373.22	535.98
373.42	573.43
373.62	552.37
373.81	592.16
374.01	603.86
374.21	655.35
374.40	533.64
374.60	636.63
374.79	627.26
374.99	669.39
375.19	608.54
375.38	685.78
375.58	653.01
375.78	692.80
375.97	676.41
376.17	638.97
376.37	622.58
376.56	692.80
376.76	674.07
376.95	671.73
377.15	685.78
377.35	713.86
377.54	784.08
377.74	784.08
377.93	709.18
378.13	709.18
378.33	706.84
378.52	727.91
378.72	760.67
378.91	741.95
379.11	653.01
379.31	685.78
379.50	713.86
379.70	734.93
379.89	706.84
380.09	690.46
380.28	589.82
380.48	695.14
380.68	741.95
380.87	751.31
381.07	842.59
381.26	781.74
381.46	821.53
381.65	791.10
381.85	716.20
382.04	772.38
382.24	767.70
382.43	739.61
382.63	779.40
382.83	711.52
383.02	777.06
383.22	706.84
383.41	802.80
383.61	823.87
383.80	844.93
384.00	814.51
384.19	814.51
384.39	791.10
384.58	833.23
384.78	819.19
384.97	896.43
385.17	748.97
385.36	856.64
385.56	868.34
385.75	837.91
385.95	830.89
386.14	844.93
386.34	791.10
386.53	910.47
386.72	835.57
386.92	858.98
387.11	919.83
387.31	847.27
387.50	763.01
387.70	891.74
387.89	922.17
388.09	978.34
388.28	870.68
388.48	863.66
388.67	959.62
388.86	894.08
389.06	1027.50
389.25	959.62
389.45	858.98
389.64	1025.15
389.84	985.37
390.03	990.05
390.22	966.64
390.42	870.68
390.61	947.92
390.81	943.24
391.00	1076.65
391.19	1043.88
391.39	1013.45
391.58	994.73
391.78	947.92
391.97	971.32
392.16	1064.94
392.36	1060.26
392.55	1083.67
392.75	1156.22
392.94	1043.88
393.13	1069.62
393.33	1029.84
393.52	1057.92
393.71	1078.99
393.91	1032.18
394.10	1015.79
394.29	1032.18
394.49	1104.73
394.68	1088.35
394.88	1121.12
395.07	1160.91
395.26	1137.50
395.46	1174.95
395.65	1118.78
395.84	1228.78
396.04	1315.38
396.23	1151.54
396.42	1172.61
396.62	1184.31
396.81	1177.29
397.00	1296.66
397.19	1219.42
397.39	1179.63
397.58	1275.59
397.77	1196.01
397.97	1228.78
398.16	1252.19
398.35	1245.16
398.55	1210.06
398.74	1273.25
398.93	1352.83
399.12	1249.85
399.32	1268.57
399.51	1369.21
399.70	1348.15
399.90	1284.95
400.09	1394.96
400.28	1390.28
400.47	1343.47
400.67	1446.45
400.86	1348.15
401.05	1301.34
401.24	1486.24
401.44	1387.94
401.63	1425.39
401.82	1345.81
402.01	1430.07
402.21	1430.07
402.40	1451.13
402.59	1460.49
402.78	1467.52
402.97	1547.09
403.17	1509.65
403.36	1596.25
403.55	1462.83
403.74	1614.97
403.93	1565.82
404.13	1593.90
404.32	1589.22
404.51	1600.93
404.70	1657.10
404.89	1624.33
405.09	1661.78
405.28	1668.80
405.47	1696.89
405.66	1776.47
405.85	1640.72
406.05	1720.29
406.24	1638.38
406.43	1746.04
406.62	1769.44
406.81	1853.70
407.00	1797.53
407.20	1724.97
407.39	1631.35
407.58	1844.34
407.77	1842.00
407.96	1877.11
408.15	1933.28
408.34	1912.22
408.54	1827.96
408.73	1839.66
408.92	1930.94
409.11	1912.22
409.30	2047.97
409.49	2012.86
409.68	2008.18
409.87	2057.33
410.07	2113.50
410.26	2008.18
410.45	1881.79
410.64	2045.63
410.83	2174.36
411.02	2078.40
411.21	2174.36
411.40	2202.44
411.59	2239.89
411.78	2125.21
411.98	2181.38
412.17	2300.75
412.36	2284.36
412.55	2223.51
412.74	2242.23
412.93	2342.88
413.12	2331.17
413.31	2338.20
413.50	2312.45
413.69	2377.98
413.88	2457.56
414.07	2396.71
414.26	2518.42
414.45	2525.44
414.64	2544.16
414.83	2567.57
415.02	2548.84
415.22	2691.62
415.41	2619.06
415.60	2668.21
415.79	2679.91
415.98	2679.91
416.17	2700.98
416.36	2740.77
416.55	2787.58
416.74	2785.24
416.93	2675.23
417.12	2827.37
417.31	2850.77
417.50	2818.00
417.69	2876.52
417.88	2958.44
418.07	2911.63
418.26	2855.45
418.45	3042.70
418.64	3176.11
418.83	3038.02
419.02	3105.89
419.21	3068.44
419.39	3129.30
419.58	3155.04
419.77	3002.91
419.96	3234.62
420.15	3150.36
420.34	3141.00
420.53	3129.30
420.72	3176.11
420.91	3199.51
421.10	3246.32
421.29	3213.56
421.48	3206.53
421.67	3213.56
421.86	3272.07
422.05	3234.62
422.24	3199.51
422.43	3358.67
422.61	3342.28
422.80	3417.18
422.99	3456.97
423.18	3295.47
423.37	3361.01
423.56	3398.46
423.75	3358.67
423.94	3344.63
424.13	3152.70
424.32	3400.80
424.50	3592.72
424.69	3339.94
424.88	3515.48
425.07	3400.80
425.26	3557.61
425.45	3393.78
425.64	3325.90
425.83	3456.97
426.01	3463.99
426.20	3459.31
426.39	3508.46
426.58	3386.76
426.77	3487.40
426.96	3534.21
427.15	3557.61
427.33	3489.74
427.52	3604.42
427.71	3599.74
427.90	3501.44
428.09	3693.37
428.28	3665.28
428.46	3529.53
428.65	3644.21
428.84	3672.30
429.03	3819.75
429.22	3798.69
429.40	3705.07
429.59	3660.60
429.78	3805.71
429.97	3707.41
430.16	3749.54
430.34	3740.18
430.53	3833.80
430.72	3934.44
430.91	3852.52
431.10	3887.63
431.28	3918.06
431.47	4035.08
431.66	3953.16
431.85	3868.91
432.03	3889.97
432.22	4053.81
432.41	4053.81
432.60	4035.08
432.79	4208.28
432.97	4058.49
433.16	4208.28
433.35	4018.70
433.54	4255.09
433.72	4203.60
433.91	4098.28
434.10	4049.13
434.28	4072.53
434.47	4180.20
434.66	4276.16
434.85	4409.57
435.03	4353.40
435.22	4325.31
435.41	4280.84
435.59	4402.55
435.78	4599.15
435.97	4379.14
436.16	4376.80
436.34	4365.10
436.53	4360.42
436.72	4463.40
436.90	4447.02
437.09	4440.00
437.28	4362.76
437.46	4636.60
437.65	4606.17
437.84	4571.07
438.02	4617.88
438.21	4671.71
438.40	4624.90
438.58	4636.60
438.77	4690.43
438.96	4755.97
439.14	4985.34
439.33	4908.10
439.52	4842.57
439.70	5055.56
439.89	5069.60
440.08	4966.62
440.26	4936.19
440.45	5046.20
440.63	5055.56
440.82	5275.57
441.01	5060.24
441.19	5050.88
441.38	5296.63
441.57	5188.97
441.75	5226.42
441.94	5369.19
442.12	5226.42
442.31	5322.38
442.50	5425.36
442.68	5458.13
442.87	5387.91
443.05	5483.88
443.24	5589.20
443.43	5582.18
443.61	5530.69
443.80	5610.26
443.98	5425.36
444.17	5355.15
444.35	5568.13
444.54	5724.95
444.73	5462.81
444.91	5528.35
445.10	5734.31
445.28	5678.14
445.47	5575.16
445.65	5764.74
445.84	5713.25
446.02	5554.09
446.21	5661.76
446.39	5633.67
446.58	5795.17
446.77	5762.40
446.95	5479.19
447.14	5797.51
447.32	5785.80
447.51	5715.59
447.69	5589.20
447.88	5678.14
448.06	5753.04
448.25	5804.53
448.43	5722.61
448.62	5916.87
448.80	5713.25
448.99	5951.98
449.17	5813.89
449.36	5792.83
449.54	6108.80
449.73	5893.47
449.91	6141.57
450.10	5959.00
450.28	6080.71
450.46	6010.50
450.65	6040.92
450.83	6024.54
451.02	6200.08
451.20	6193.06
451.39	5991.77
451.57	6230.51
451.76	6132.20
451.94	6094.76
452.13	6246.89
452.31	6279.66
452.49	6186.04
452.68	6246.89
452.86	6080.71
453.05	6466.90
453.23	6370.94
453.42	6321.79
453.60	6256.25
453.78	6574.56
453.97	6399.02
454.15	6333.49
454.34	6296.04
454.52	6457.54
454.70	6532.44
454.89	6574.56
455.07	6555.84
455.26	6691.59
455.44	6719.68
455.62	6801.60
455.81	6635.42
455.99	6675.21
456.17	6712.66
456.36	6492.65
456.54	6778.19
456.73	6677.55
456.91	6956.07
457.09	6869.47
457.28	7056.72
457.46	6979.48
457.64	6956.07
457.83	7213.53
458.01	6951.39
458.19	7389.07
458.38	7082.46
458.56	7185.44
458.74	7197.15
458.93	7220.55
459.11	7377.37
459.29	7133.95
459.48	7239.28
459.66	7346.94
459.84	7389.07
460.03	7489.71
460.21	7426.52
460.39	7363.33
460.57	7452.27
460.76	7499.08
460.94	7492.05
461.12	7417.16
461.31	7538.87
461.49	7543.55
461.67	7321.20
461.85	7534.18
462.04	7688.66
462.22	8079.53
462.40	7672.28
462.59	7777.60
462.77	7754.19
462.95	7803.35
463.13	7747.17
463.32	7733.13
463.50	7878.24
463.68	7946.12
463.86	7943.78
464.05	8060.80
464.23	7756.54
464.41	7777.60
464.59	7796.32
464.78	8189.53
464.96	8098.25
465.14	7850.16
465.32	8016.33
465.50	8138.04
465.69	8182.51
465.87	8201.24
466.05	8142.72
466.23	8065.49
466.41	8257.41
466.60	8482.10
466.78	8004.63
466.96	8044.42
467.14	8294.86
467.32	8119.32
467.51	8505.51
467.69	8208.26
467.87	8322.94
468.05	8198.90
468.23	8416.57
468.41	8273.79
468.60	8360.39
468.78	8468.06
468.96	8393.16
469.14	8610.83
469.32	8713.81
469.50	8507.85
469.69	8580.40
469.87	8533.59
470.05	8617.85
470.23	8854.25
470.41	8896.38
470.59	8737.22
470.77	8994.68
470.95	8961.91
471.14	8872.97
471.32	8767.65
471.50	9050.85
471.68	9125.75
471.86	9212.35
472.04	9092.98
472.22	9411.29
472.40	8982.98
472.58	9114.05
472.77	9329.38
472.95	9406.61
473.13	9692.16
473.31	9540.02
473.49	9518.96
473.67	9298.95
473.85	9418.32
474.03	9706.20
474.21	9577.47
474.39	9912.17
474.57	9813.87
474.75	9968.34
474.93	9935.57
475.12	9984.73
475.30	10148.56
475.48	10015.15
475.66	9865.36
475.84	9905.15
476.02	10223.46
476.20	10258.57
476.38	10331.12
476.56	10726.68
476.74	10771.15
476.92	10569.86
477.10	10480.92
477.28	10530.07
477.46	10942.00
477.64	10827.32
477.82	10778.17
478.00	11197.12
478.18	10803.91
478.36	11124.57
478.54	11236.91
478.72	11260.32
478.90	11538.84
479.08	11688.64
479.26	11616.08
479.44	11620.76
479.62	11880.56
479.80	11683.95
479.98	11864.18
480.16	12374.41
480.34	12301.86
480.52	11920.35
480.70	12343.99
480.88	12060.78
481.06	12505.48
481.24	12252.70
481.41	12521.87
481.59	12784.01
481.77	12725.49
481.95	12870.61
482.13	13055.51
482.31	13006.36
482.49	13181.90
482.67	13317.65
482.85	13626.60
483.03	13614.90
483.21	13673.41
483.39	13593.83
483.57	13598.51
483.74	13820.86
483.92	14012.79
484.10	13928.53
484.28	14263.22
484.46	14244.50
484.64	14635.37
484.82	14352.16
485.00	14523.02
485.18	14941.98
485.35	15365.62
485.53	15126.88
485.71	15124.54
485.89	15365.62
486.07	15295.40
486.25	15634.78
486.43	15599.67
486.61	15721.38
486.78	15807.98
486.96	15824.36
487.14	16116.93
487.32	16130.97
487.50	16046.71
487.68	16404.81
487.85	16662.27
488.03	16765.26
488.21	16875.26
488.39	16957.18
488.57	17348.05
488.75	17394.86
488.92	17511.89
489.10	17521.25
489.28	17394.86
489.46	17699.13
489.64	17645.30
489.81	18029.15
489.99	18232.77
490.17	18328.74
490.35	18307.67
490.53	18462.15
490.70	18738.33
490.88	18504.28
491.06	19021.53
491.24	19225.16
491.41	19180.69
491.59	19396.02
491.77	19356.23
491.95	19381.98
492.13	19337.51
492.30	19667.52
492.48	19487.30
492.66	19702.63
492.84	19850.08
493.01	19955.41
493.19	20273.72
493.37	20121.59
493.54	20294.79
493.72	20484.37
493.90	21025.03
494.08	20666.93
494.25	20809.70
494.43	21018.01
494.61	21083.55
494.79	21350.37
494.96	21308.24
495.14	21385.47
495.32	21600.80
495.49	21380.79
495.67	21553.99
495.85	22153.17
496.02	22211.68
496.20	22324.03
496.38	22314.67
496.55	22384.88
496.73	22717.24
496.91	22682.13
497.09	22920.87
497.26	23007.47
497.44	22689.15
497.62	23197.05
497.79	23300.03
497.97	23232.16
498.14	23344.50
498.32	23463.87
498.50	23632.39
498.67	23992.83
498.85	23714.31
499.03	23824.31
499.20	24065.39
499.38	24184.76
499.56	23962.40
499.73	24482.00
499.91	24655.20
500.08	24971.18
500.26	24592.01
500.44	24933.73
500.61	24704.35
500.79	24896.28
500.97	24772.23
501.14	25312.89
501.32	25560.99
501.49	25443.96
501.67	25621.84
501.84	25771.64
502.02	25441.62
502.20	25617.16
502.37	25502.48
502.55	25532.90
502.72	25876.96
502.90	25984.63
503.07	25598.44
503.25	26122.72
503.43	26015.05
503.60	26745.30
503.78	26504.23
503.95	26604.87
504.13	26710.19
504.30	26773.39
504.48	26485.50
504.65	27098.72
504.83	26920.84
505.01	27023.83
505.18	27253.20
505.36	27583.21
505.53	27117.45
505.71	27489.59
505.88	27775.14
506.06	27400.65
506.23	27646.41
506.41	27372.57
506.58	27725.99
506.76	28133.24
506.93	27754.07
507.11	27857.06
507.28	27927.27
507.46	28367.29
507.63	28503.04
507.81	28201.11
507.98	27997.49
508.16	28290.06
508.33	28587.30
508.50	28694.97
508.68	28437.51
508.85	29123.29
509.03	28896.25
509.20	29160.73
509.38	29294.14
509.55	29076.48
509.73	29317.55
509.90	29483.73
510.08	29406.49
510.25	29420.53
510.42	29551.60
510.60	29776.30
510.77	29919.07
510.95	30047.80
511.12	29977.58
511.30	29907.37
511.47	30017.37
511.64	30118.01
511.82	30054.82
511.99	30487.82
512.17	30373.13
512.34	30249.08
512.51	30866.98
512.69	30714.85
512.86	31019.12
513.04	31276.58
513.21	30981.67
513.38	30890.39
513.56	31051.89
513.73	31117.42
513.90	31253.17
514.08	30944.22
514.25	31447.44
514.43	31367.86
514.60	31611.28
514.77	31316.37
514.95	31604.25
515.12	31686.17
515.29	31569.15
515.47	32313.44
515.64	31941.29
515.81	32109.81
515.99	31995.12
516.16	32292.37
516.33	32063.00
516.51	32353.23
516.68	32327.48
516.85	32556.85
517.03	32624.73
517.20	32458.55
517.37	32449.19
517.54	32818.99
517.72	33036.66
517.89	32865.80
518.06	32940.70
518.24	32694.94
518.41	33099.86
518.58	33069.43
518.75	33095.18
518.93	33476.68
519.10	33055.39
519.27	33116.24
519.45	33647.54
519.62	33748.18
519.79	33722.44
519.96	33624.14
520.14	33926.07
520.31	33507.11
520.48	33965.85
520.65	34504.18
520.83	34333.32
521.00	34459.71
521.17	34581.42
521.34	34316.93
521.52	34321.62
521.69	34742.91
521.86	34581.42
522.03	34588.44
522.20	34838.87
522.38	35016.75
522.55	35360.81
522.72	34693.76
522.89	34911.43
523.07	35550.40
523.24	35028.46
523.41	35075.27
523.58	35391.24
523.75	35639.34
523.92	35335.07
524.10	35833.60
524.27	35438.05
524.44	35660.40
524.61	35817.22
524.78	35349.11
524.96	36105.10
525.13	35873.39
525.30	36325.11
525.47	36114.47
525.64	36163.62
525.81	35927.22
525.98	36531.08
526.16	35927.22
526.33	35962.33
526.50	36549.81
526.67	35922.54
526.84	36687.90
527.01	36062.97
527.18	36912.59
527.36	36849.39
527.53	36903.23
527.70	37177.07
527.87	37043.66
528.04	37109.19
528.21	36914.93
528.38	37139.62
528.55	37579.64
528.72	37298.78
528.89	37378.36
529.07	37071.75
529.24	36856.42
529.41	37493.04
529.58	37638.15
529.75	37109.19
529.92	37780.93
530.09	37652.20
530.26	37818.38
530.43	37617.09
530.60	37479.00
530.77	37647.52
530.94	38108.60
531.11	37558.58
531.28	37511.77
531.46	38536.92
531.63	37694.33
531.80	38153.07
531.97	38660.97
532.14	38438.62
532.31	38139.03
532.48	38534.58
532.65	38787.36
532.82	38359.04
532.99	38707.78
533.16	38653.95
533.33	38595.43
533.50	38703.10
533.67	38426.92
533.84	38618.84
534.01	38958.22
534.18	39054.18
534.35	39000.35
534.52	39409.94
534.69	39356.11
534.86	39241.42
535.03	39304.62
535.20	39548.03
535.37	39594.84
535.54	39566.76
535.71	39828.90
535.88	39756.34
536.05	39517.60
536.22	39915.50
536.38	39835.92
536.55	39962.31
536.72	39576.12
536.89	39899.11
537.06	39892.09
537.23	39470.79
537.40	39541.01
537.57	39342.06
537.74	40140.19
537.91	40144.87
538.08	40322.75
538.25	40112.10
538.42	40304.02
538.59	39803.15
538.75	40264.24
538.92	40575.53
539.09	40320.41
539.26	40456.16
539.43	40678.51
539.60	40840.01
539.77	40664.47
539.94	41083.42
540.11	40631.70
540.28	40758.09
540.44	40832.99
540.61	41010.87
540.78	40519.35
540.95	41067.04
541.12	40596.59
541.29	40870.43
541.46	41179.39
541.62	41294.07
541.79	40926.61
541.96	41111.51
542.13	41088.10
542.30	40989.80
542.47	41163.00
542.63	41474.29
542.80	41500.04
542.97	41600.68
543.14	41926.02
543.31	41404.08
543.48	41879.21
543.64	41858.14
543.81	42131.98
543.98	41972.83
544.15	42108.58
544.32	41911.97
544.48	42328.59
544.65	42155.39
544.82	41881.55
544.99	41949.42
545.16	42431.57
545.32	42256.03
545.49	42728.82
545.66	42513.49
545.83	42679.67
546.00	42607.11
546.16	42494.77
546.33	42511.15
546.50	42494.77
546.67	42719.46
546.83	42216.24
547.00	42689.03
547.17	42625.84
547.34	42483.06
547.50	42880.95
547.67	43330.34
547.84	43063.52
548.00	43152.46
548.17	43157.14
548.34	42831.80
548.51	43072.88
548.67	43086.92
548.84	42813.08
549.01	42911.38
549.18	42784.99
549.34	43702.48
549.51	43789.08
549.68	43997.39
549.84	43430.98
550.01	43810.15
550.18	42981.60
550.34	43381.83
550.51	44009.09
550.68	43793.76
550.84	43129.05
551.01	43342.04
551.18	43915.47
551.34	43555.03
551.51	43849.94
551.68	44102.71
551.84	43681.42
552.01	43842.92
552.18	43861.64
552.34	43590.14
552.51	44301.66
552.68	43833.55
552.84	44189.31
553.01	44280.60
553.18	44151.87
553.34	44404.64
553.51	43978.67
553.67	44107.40
553.84	44818.92
554.01	44292.30
554.17	44156.55
554.34	44542.74
554.51	44556.78
554.67	45017.86
554.84	44608.27
555.00	44748.70
555.17	44617.63
555.33	44751.04
555.50	44341.45
555.67	44580.18
555.83	45036.59
556.00	44540.39
556.16	45216.81
556.33	44713.59
556.50	44460.82
556.66	44776.79
556.83	44521.67
556.99	44889.13
557.16	45235.53
557.32	44634.02
557.49	45446.18
557.65	44381.24
557.82	45078.72
557.98	45186.38
558.15	45104.46
558.32	45455.54
558.48	44835.30
558.65	45242.56
558.81	44987.44
558.98	45303.41
559.14	45617.04
559.31	44928.92
559.47	45415.76
559.64	45418.10
559.80	45212.13
559.97	45546.82
560.13	45301.07
560.30	45544.48
560.46	45916.63
560.63	45600.66
560.79	45427.46
560.96	45813.65
561.12	45780.88
561.29	45488.31
561.45	45591.30
561.61	45308.09
561.78	45638.11
561.94	45909.61
562.11	45794.92
562.27	45659.17
562.44	45773.86
562.60	45944.72
562.77	45815.99
562.93	45656.83
563.10	45881.52
563.26	45794.92
563.42	45961.10
563.59	45963.44
563.75	45907.27
563.92	45691.94
564.08	46270.05
564.24	46529.85
564.41	45804.28
564.57	46239.62
564.74	46071.10
564.90	46089.83
565.07	45858.12
565.23	46300.48
565.39	45942.38
565.56	46103.87
565.72	46211.54
565.88	46335.59
566.05	45977.48
566.21	46047.70
566.38	46120.26
566.54	46398.78
566.70	46445.59
566.87	46319.20
567.03	46153.02
567.19	46124.94
567.36	46607.09
567.52	46305.16
567.68	46665.60
567.85	46244.30
568.01	46721.77
568.17	46050.04
568.34	46763.90
568.50	46752.20
568.66	46337.93
568.83	46515.81
568.99	46597.73
569.15	46408.14
569.32	46263.03
569.48	46234.94
569.64	46838.80
569.81	46586.02
569.97	46665.60
570.13	46925.40
570.30	46410.48
570.46	46099.19
570.62	46618.79
570.78	47026.04
570.95	46433.89
571.11	47054.13
571.27	46337.93
571.43	46220.90
571.60	46770.93
571.76	46782.63
571.92	46679.64
572.09	46532.19
572.25	46799.01
572.41	46461.97
572.57	46581.34
572.74	47051.79
572.90	46637.51
573.06	47012.00
573.22	46562.62
573.38	47061.15
573.55	47117.32
573.71	46986.25
573.87	46834.12
574.03	46934.76
574.20	47416.91
574.36	47028.38
574.52	47208.61
574.68	46759.22
574.84	47269.46
575.01	46777.95
575.17	47098.60
575.33	46986.25
575.49	46866.89
575.65	47056.47
575.82	47126.69
575.98	46930.08
576.14	47323.29
576.30	47463.72
576.46	47154.77
576.62	46813.05
576.79	46593.04
576.95	46457.29
577.11	46974.55
577.27	47112.64
577.43	46672.62
577.59	47054.13
577.75	46726.46
577.92	46824.76
578.08	47199.24
578.24	47213.29
578.40	47372.44
578.56	47297.55
578.72	46972.21
578.88	47246.05
579.04	47089.24
579.21	46726.46
579.37	47473.09
579.53	47239.03
579.69	46742.84
579.85	47004.98
580.01	47313.93
580.17	47526.92
580.33	47313.93
580.49	47112.64
580.65	47742.25
580.82	47072.85
580.98	46827.10
581.14	46916.04
581.30	47014.34
581.46	46962.85
581.62	46864.55
581.78	47515.22
581.94	47110.30
582.10	47339.68
582.26	47416.91
582.42	47079.88
582.58	47161.79
582.74	47929.49
582.90	47297.55
583.06	46972.21
583.22	47358.40
583.38	47129.03
583.54	47805.44
583.70	47316.27
583.86	47437.98
584.02	47627.56
584.18	47487.13
584.34	47320.95
584.50	47400.53
584.66	47402.87
584.82	47461.38
584.98	47772.67
585.14	47381.80
585.30	47140.73
585.46	47213.29
585.62	47063.49
585.78	47400.53
585.94	47391.17
586.10	47524.58
586.26	46960.51
586.42	47669.69
586.58	47767.99
586.74	47777.36
586.90	47456.70
587.06	47421.59
587.22	47508.19
587.38	47285.84
587.54	47767.99
587.70	47571.39
587.86	47372.44
588.02	47716.50
588.18	47435.64
588.34	47349.04
588.49	47161.79
588.65	47283.50
588.81	47033.07
588.97	47416.91
589.13	47770.33
589.29	47487.13
589.45	47529.26
589.61	47636.92
589.77	48123.75
589.93	47421.59
590.08	47835.87
590.24	47892.04
590.40	47934.17
590.56	47955.24
590.72	47952.90
590.88	47894.38
591.04	47515.22
591.20	47751.61
591.35	47758.63
591.51	48186.95
591.67	47842.89
591.83	48240.78
591.99	48156.52
592.15	47709.48
592.31	47875.66
592.46	47929.49
592.62	47662.67
592.78	47800.76
592.94	48395.26
593.10	47945.87
593.26	48240.78
593.41	48193.97
593.57	48055.88
593.73	47700.12
593.89	47828.85
594.05	47964.60
594.20	47878.00
594.36	48645.69
594.52	48432.71
594.68	48062.90
594.84	47973.96
594.99	48626.97
595.15	48184.61
595.31	48652.72
595.47	47826.51
595.62	48067.58
595.78	48133.12
595.94	48161.20
596.10	48112.05
596.25	48364.83
596.41	48507.60
596.57	48112.05
596.73	48570.80
596.88	48217.38
597.04	48474.84
597.20	48231.42
597.36	48308.66
597.51	48217.38
597.67	47728.20
597.83	48025.45
597.99	48020.77
598.14	48250.14
598.30	48266.53
598.46	48041.84
598.61	48814.21
598.77	48189.29
598.93	48369.51
599.09	48280.57
599.24	48582.50
599.40	48322.70
599.56	48311.00
599.71	48746.34
599.87	48390.58
600.03	48673.78
600.18	48577.82
600.34	48076.94
600.50	48329.72
600.65	48088.65
600.81	48472.49
600.97	48477.18
601.12	48701.87
601.28	48083.97
601.44	48505.26
601.59	48346.11
601.75	48250.14
601.91	48327.38
602.06	48484.20
602.22	48261.85
602.37	48491.22
602.53	48322.70
602.69	48680.80
602.84	48226.74
603.00	48189.29
603.16	48435.05
603.31	48470.15
603.47	48465.47
603.62	48502.92
603.78	48252.48
603.94	48470.15
604.09	48353.13
604.25	48327.38
604.40	48306.32
604.56	48643.35
604.71	48561.44
604.87	47786.72
605.03	48383.55
605.18	48388.24
605.34	48626.97
605.49	47894.38
605.65	48589.52
605.80	47873.32
605.96	48034.81
606.12	48343.77
606.27	48465.47
606.43	48076.94
606.58	48425.68
606.74	48472.49
606.89	48257.17
607.05	48374.19
607.20	48273.55
607.36	47880.34
607.51	48196.31
607.67	48039.50
607.82	47948.21
607.98	48165.88
608.13	48140.14
608.29	48102.69
608.44	48177.59
608.60	47997.37
608.75	48175.25
608.91	48243.12
609.06	47800.76
609.22	48250.14
609.37	47807.78
609.53	48200.99
609.68	48100.35
609.84	48011.41
609.99	48376.53
610.15	47861.61
610.30	48222.06
610.46	47971.62
610.61	47756.29
610.76	48011.41
610.92	47327.97
611.07	47473.09
611.23	47786.72
611.38	48025.45
611.54	47959.92
611.69	47973.96
611.84	47735.23
612.00	48184.61
612.15	47782.04
612.31	48044.18
612.46	47538.62
612.62	47901.40
612.77	47540.96
612.92	48098.01
613.08	47730.54
613.23	47721.18
613.39	47805.44
613.54	47313.93
613.69	47878.00
613.85	47723.52
614.00	47875.66
614.15	47580.75
614.31	47697.78
614.46	47477.77
614.62	47264.78
614.77	47409.89
614.92	47526.92
615.08	47257.76
615.23	47512.88
615.38	47742.25
615.54	47573.73
615.69	47503.51
615.84	47859.27
616.00	47690.76
616.15	47159.45
616.30	47297.55
616.46	47276.48
616.61	47463.72
616.76	47941.19
616.92	47199.24
617.07	47688.42
617.22	47320.95
617.37	47229.67
617.53	47489.47
617.68	46944.12
617.83	46880.93
617.99	47803.10
618.14	47096.26
618.29	46616.45
618.45	46946.47
618.60	46902.00
618.75	46815.40
618.90	46904.34
619.06	47356.06
619.21	47140.73
619.36	47262.44
619.51	47117.32
619.67	46726.46
619.82	47447.34
619.97	47281.16
620.12	47316.27
620.28	46768.58
620.43	47068.17
620.58	47459.04
620.73	47100.94
620.89	47290.52
621.04	46988.60
621.19	46637.51
621.34	46754.54
621.49	46770.93
621.65	46939.44
621.80	46981.57
621.95	46787.31
622.10	47096.26
622.25	46756.88
622.41	46567.30
622.56	46813.05
622.71	46976.89
622.86	46780.29
623.01	46667.94
623.16	47089.24
623.32	46380.06
623.47	46759.22
623.62	46920.72
623.77	46735.82
623.92	46705.39
624.07	46852.84
624.23	46344.95
624.38	46937.10
624.53	46314.52
624.68	46057.06
624.83	46534.53
624.98	46543.89
625.13	46382.40
625.29	46007.91
625.44	46541.55
625.59	46667.94
625.74	46071.10
625.89	46038.34
626.04	46068.76
626.19	46204.52
626.34	45958.76
626.49	45738.75
626.65	46110.89
626.80	46239.62
626.95	46101.53
627.10	45504.70
627.25	45888.54
627.40	46171.75
627.55	45991.53
627.70	45820.67
627.85	45982.16
628.00	46227.92
628.15	45642.79
628.30	45418.10
628.45	45415.76
628.60	45200.43
628.76	45427.46
628.91	45598.32
629.06	45022.54
629.21	45467.25
629.36	45336.18
629.51	45078.72
629.66	45776.20
629.81	45876.84
629.96	45280.00
630.11	45663.85
630.26	45509.38
630.41	45886.20
630.56	45099.78
630.71	45553.85
630.86	45280.00
631.01	44898.50
631.16	45558.53
631.31	45322.13
631.46	45059.99
631.61	45652.15
631.76	45312.77
631.91	45556.19
632.06	45296.39
632.21	45352.56
632.36	45607.68
632.51	45081.06
632.66	45663.85
632.81	44844.66
632.96	45432.14
633.10	45254.26
633.25	45092.76
633.40	45020.20
633.55	45638.11
633.70	45422.78
633.85	44985.10
634.00	44823.60
634.15	44498.26
634.30	44797.85
634.45	44519.33
634.60	44800.19
634.75	45216.81
634.90	44992.12
635.05	45144.25
635.19	44788.49
635.34	44933.60
635.49	44437.41
635.64	44729.98
635.79	44772.11
635.94	44655.08
636.09	45010.84
636.24	44612.95
636.39	44753.38
636.53	44999.14
636.68	44425.71
636.83	44374.22
636.98	44453.79
637.13	44161.23
637.28	44250.17
637.43	44357.83
637.57	44374.22
637.72	44093.35
637.87	44009.09
638.02	44032.50
638.17	44348.47
638.32	43831.21
638.46	43798.44
638.61	44215.06
638.76	44182.29
638.91	43852.28
639.06	43871.00
639.20	43959.94
639.35	43786.74
639.50	43807.81
639.65	44224.42
639.80	43845.26
639.94	44243.15
640.09	44165.91
640.24	43978.67
640.39	43220.33
640.54	43931.86
640.68	43634.61
640.83	43899.09
640.98	43845.26
641.13	43475.45
641.27	43910.79
641.42	43863.98
641.57	43819.51
641.72	43730.57
641.86	43629.93
642.01	43154.80
642.16	43480.13
642.31	43086.92
642.45	43627.59
642.60	43358.42
642.75	43208.63
642.90	43814.83
643.04	43438.00
643.19	43063.52
643.34	43452.05
643.48	42724.14
643.63	42588.39
643.78	43398.21
643.93	43620.56
644.07	43328.00
644.22	43117.35
644.37	43267.14
644.51	43005.00
644.66	43175.86
644.81	42995.64
644.95	43126.71
645.10	43117.35
645.25	42553.28
645.39	43189.91
645.54	42766.27
645.69	42389.44
645.83	42845.85
645.98	42983.94
646.13	42625.84
646.27	42567.32
646.42	42433.91
646.57	42525.19
646.71	42794.36
646.86	42873.93
647.00	42356.67
647.15	42965.21
647.30	42902.02
647.44	42955.85
647.59	42351.99
647.74	42499.45
647.88	42946.49
648.03	42775.63
648.17	43274.16
648.32	42939.47
648.47	42789.67
648.61	42117.94
648.76	42134.32
648.90	42333.27
649.05	42433.91
649.20	42852.87
649.34	42337.95
649.49	42789.67
649.63	42124.96
649.78	42525.19
649.92	42080.49
650.07	43012.02
650.21	42366.04
650.36	43023.73
650.51	42770.95
650.65	42405.83
650.80	42326.25
650.94	42714.78
651.09	42340.29
651.23	41378.33
651.38	41680.26
651.52	41563.23
651.67	42064.11
651.81	42066.45
651.96	41766.86
652.10	41900.27
652.25	42595.41
652.39	41979.85
652.54	42057.09
652.68	41467.27
652.83	41724.73
652.97	41832.39
653.12	41331.52
653.26	42080.49
653.41	41689.62
653.55	41654.51
653.70	41797.29
653.84	42024.32
653.99	41563.23
654.13	42117.94
654.27	41478.97
654.42	41368.97
654.56	41769.20
654.71	41675.58
654.85	41493.02
655.00	41610.04
655.14	41432.16
655.29	42057.09
655.43	42029.00
655.57	41258.96
655.72	41254.28
655.86	41240.24
656.01	41179.39
656.15	40882.14
656.30	41612.38
656.44	41455.57
656.58	41375.99
656.73	41247.26
656.87	40928.95
657.01	40875.12
657.16	41118.53
657.30	41048.32
657.45	40882.14
657.59	40603.61
657.73	40456.16
657.88	41242.58
658.02	40814.26
658.16	40612.98
658.31	40800.22
658.45	41111.51
658.60	40636.38
658.74	40641.06
658.88	40912.56
659.03	40650.42
659.17	40294.66
659.31	40297.00
659.46	40009.12
659.60	40676.17
659.74	40158.91
659.89	40044.23
660.03	40013.80
660.17	40109.76
660.32	40250.19
660.46	40004.44
660.60	40250.19
660.74	40266.58
660.89	40233.81
661.03	39805.49
661.17	39423.98
661.32	39522.29
661.46	40102.74
661.60	39480.16
661.74	39473.13
661.89	39653.36
662.03	39934.22
662.17	39613.57
662.31	39056.52
662.46	39487.18
662.60	39384.19
662.74	38925.45
662.88	39000.35
663.03	39002.69
663.17	39079.92
663.31	38974.60
663.45	39166.52
663.60	39173.55
663.74	38703.10
663.88	39000.35
664.02	38820.13
664.17	39381.85
664.31	38986.30
664.45	38581.39
664.59	38873.96
664.73	38546.28
664.88	38712.46
665.02	38270.10
665.16	38230.31
665.30	38469.04
665.44	38497.13
665.59	38237.33
665.73	38391.81
665.87	37635.81
666.01	38220.95
666.15	38082.86
666.29	37872.21
666.44	37907.32
666.58	37968.17
666.72	37837.10
666.86	37780.93
667.00	37481.34
667.14	37673.26
667.28	37376.01
667.43	37820.72
667.57	38026.68
667.71	37441.55
667.85	37661.56
667.99	37603.05
668.13	37350.27
668.27	36896.20
668.41	37392.40
668.56	36739.39
668.70	36877.48
668.84	36720.66
668.98	36271.28
669.12	37048.34
669.26	36797.90
669.40	36605.98
669.54	36875.14
669.68	36744.07
669.82	36435.12
669.96	36102.76
670.10	36421.08
670.25	36297.03
670.39	36051.27
670.53	36318.09
670.67	36205.75
670.81	36233.83
670.95	36322.77
671.09	36030.21
671.23	35674.45
671.37	35835.94
671.51	35505.93
671.65	35480.18
671.79	35541.03
671.93	35761.05
672.07	35578.48
672.21	35562.10
672.35	34991.01
672.49	35152.51
672.63	35459.12
672.77	35103.35
672.91	35288.26
673.05	35047.18
673.19	34803.77
673.33	34747.59
673.47	34766.32
673.61	34752.27
673.75	34525.24
673.89	34616.52
674.03	34361.40
674.17	34422.26
674.31	34307.57
674.45	34050.11
674.59	34094.58
674.73	34005.64
674.87	33783.29
675.01	33612.43
675.15	33188.80
675.29	33167.73
675.43	33738.82
675.56	33851.17
675.70	33165.39
675.84	33486.04
675.98	32552.17
676.12	33546.90
676.26	33303.48
676.40	33160.71
676.54	32477.27
676.68	32851.76
676.82	32142.58
676.96	32458.55
677.10	32828.35
677.23	32320.46
677.37	32346.20
677.51	32378.97
677.65	32135.56
677.79	32023.21
677.93	32079.38
678.07	32084.06
678.21	31812.56
678.34	31672.13
678.48	31510.63
678.62	31435.74
678.76	31552.76
678.90	31374.88
679.04	31215.72
679.18	31246.15
679.31	30724.21
679.45	31171.25
679.59	30829.54
679.73	30771.02
679.87	30885.71
680.00	30511.22
680.14	30752.30
680.28	30504.20
680.42	30567.40
680.56	30237.38
680.70	30221.00
680.83	29778.64
680.97	30183.55
681.11	30015.03
681.25	29521.18
681.39	29294.14
681.52	29591.39
681.66	29174.78
681.80	28793.27
681.94	29057.75
682.07	29001.58
682.21	28994.56
682.35	28694.97
682.49	28484.32
682.62	28379.00
682.76	29081.16
682.90	28648.16
683.04	28442.19
683.17	28381.34
683.31	28348.57
683.45	28526.45
683.59	27917.91
683.72	27550.45
683.86	27960.04
684.00	27782.16
684.13	28121.54
684.27	27578.53
684.41	27395.97
684.55	27641.73
684.68	27061.27
684.82	26869.35
684.96	27246.18
685.09	27370.22
685.23	27075.32
685.37	27112.77
685.50	27386.61
685.64	26623.59
685.78	26803.82
685.91	26380.18
686.05	26120.38
686.19	26038.46
686.32	26115.70
686.46	25493.12
686.60	25715.47
686.73	25902.71
686.87	26038.46
687.01	25809.09
687.14	25565.67
687.28	25369.07
687.42	25549.29
687.55	25605.46
687.69	25181.82
687.82	24814.36
687.96	24830.74
688.10	24713.72
688.23	24898.62
688.37	24940.75
688.50	24938.41
688.64	24697.33
688.78	24711.38
688.91	24205.82
689.05	24292.42
689.18	24180.07
689.32	23903.89
689.46	23468.55
689.59	24095.82
689.73	23847.72
689.86	24287.74
690.00	23648.77
690.13	23623.03
690.27	23520.04
690.41	23159.60
690.54	23342.16
690.68	23096.41
690.81	23082.36
690.95	23175.98
691.08	22719.58
691.22	22551.06
691.35	22586.17
691.49	22855.33
691.62	22855.33
691.76	22155.51
691.89	21965.93
692.03	22120.40
692.16	21790.39
692.30	21898.05
692.43	22216.36
692.57	21968.27
692.70	21514.20
692.84	21570.38
692.97	21116.31
693.11	21472.07
693.24	20957.16
693.38	21153.76
693.51	21099.93
693.65	20870.56
693.78	20826.09
693.92	20505.43
694.05	20744.17
694.19	20737.15
694.32	20638.84
694.45	20884.60
694.59	20802.68
694.72	20496.07
694.86	20428.20
694.99	20376.70
695.13	19810.29
695.26	19941.36
695.39	19812.63
695.53	19819.66
695.66	19449.85
695.80	19510.71
695.93	19407.72
696.07	19431.13
696.20	19110.47
696.33	19058.98
696.47	19201.76
696.60	18829.61
696.73	19274.31
696.87	18970.04
697.00	19178.35
697.14	18925.57
697.27	18647.05
697.40	18630.66
697.54	18904.51
697.67	18401.29
697.80	18466.83
697.94	18239.79
698.07	18382.57
698.21	18026.81
698.34	17937.87
698.47	18022.12
698.61	17640.62
698.74	17584.44
698.87	17469.76
699.01	17439.33
699.14	17432.31
699.27	17319.96
699.40	17261.45
699.54	16973.56
699.67	17130.38
699.80	17102.29
699.94	17139.74
700.07	17228.68
700.20	16959.52
700.34	16589.72
700.47	16954.84
700.60	17083.57
700.73	16699.72
700.87	16765.26
701.00	16446.94
701.13	16264.38
701.26	16238.64
701.40	16112.25
701.53	15850.11
701.66	15845.43
701.79	15896.92
701.93	15744.78
702.06	15421.79
702.19	15712.02
702.32	15620.74
702.46	15658.18
702.59	15946.07
702.72	15520.09
702.85	15456.90
702.99	15356.25
703.12	15213.48
703.25	15255.61
703.38	14963.04
703.51	15007.52
703.65	15091.77
703.78	14824.95
703.91	14539.41
704.04	14679.84
704.17	14398.98
704.31	14602.60
704.44	14558.13
704.57	14487.92
704.70	14476.21
704.83	14120.45
704.96	14211.73
705.10	14083.00
705.23	14001.08
>>>>>End Processed Spectral Data<<<<<
