SpectraSuite Data File
++++++++++++++++++++++++++++++++++++
Date: Fri Oct 25 11:34:32 EDT 2013
User: price-jones
Dark Spectrum Present: No
Reference Spectrum Present: No
Number of Sampled Component Spectra: 1
Spectrometers: USB2+H05261
Integration Time (usec): 100000 (USB2+H05261)
Spectra Averaged: 1 (USB2+H05261)
Boxcar Smoothing: 0 (USB2+H05261)
Correct for Electrical Dark: No (USB2+H05261)
Strobe/Lamp Enabled: No (USB2+H05261)
Correct for Detector Non-linearity: No (USB2+H05261)
Correct for Stray Light: No (USB2+H05261)
Number of Pixels in Processed Spectrum: 2048
>>>>>Begin Processed Spectral Data<<<<<
365.73	259.80
365.92	259.80
366.12	259.80
366.32	191.92
366.52	175.54
366.72	212.99
366.91	182.56
367.11	210.65
367.31	159.16
367.51	173.20
367.70	163.84
367.90	184.90
368.10	191.92
368.30	205.97
368.49	227.03
368.69	184.90
368.89	203.63
369.09	208.31
369.28	182.56
369.48	273.84
369.68	238.73
369.87	189.58
370.07	285.55
370.27	262.14
370.47	325.33
370.66	505.56
370.86	521.94
371.06	517.26
371.25	517.26
371.45	629.60
371.65	512.58
371.84	517.26
372.04	491.51
372.24	573.43
372.44	566.41
372.63	568.75
372.83	648.33
373.03	634.29
373.22	606.20
373.42	667.05
373.62	580.45
373.81	589.82
374.01	620.24
374.21	709.18
374.40	685.78
374.60	634.29
374.79	650.67
374.99	566.41
375.19	550.03
375.38	634.29
375.58	671.73
375.78	636.63
375.97	568.75
376.17	674.07
376.37	690.46
376.56	645.99
376.76	655.35
376.95	702.16
377.15	594.50
377.35	681.10
377.54	748.97
377.74	547.69
377.93	706.84
378.13	685.78
378.33	758.33
378.52	685.78
378.72	734.93
378.91	706.84
379.11	755.99
379.31	688.12
379.50	634.29
379.70	655.35
379.89	688.12
380.09	711.52
380.28	695.14
380.48	678.76
380.68	716.20
380.87	709.18
381.07	802.80
381.26	758.33
381.46	725.57
381.65	671.73
381.85	723.23
382.04	748.97
382.24	823.87
382.43	784.08
382.63	763.01
382.83	741.95
383.02	849.61
383.22	851.96
383.41	786.42
383.61	784.08
383.80	791.10
384.00	791.10
384.19	828.55
384.39	784.08
384.58	819.19
384.78	891.74
384.97	763.01
385.17	826.21
385.36	814.51
385.56	774.72
385.75	784.08
385.95	835.57
386.14	791.10
386.34	720.88
386.53	770.04
386.72	849.61
386.92	903.45
387.11	837.91
387.31	873.02
387.50	943.24
387.70	781.74
387.89	821.53
388.09	807.48
388.28	912.81
388.48	856.64
388.67	847.27
388.86	854.30
389.06	978.34
389.25	880.04
389.45	884.72
389.64	858.98
389.84	959.62
390.03	994.73
390.22	978.34
390.42	1015.79
390.61	999.41
390.81	910.47
391.00	985.37
391.19	952.60
391.39	1093.03
391.58	957.28
391.78	950.26
391.97	997.07
392.16	964.30
392.36	1006.43
392.55	980.68
392.75	1008.77
392.94	1083.67
393.13	1015.79
393.33	1046.22
393.52	1029.84
393.71	1034.52
393.91	1050.90
394.10	1074.31
394.29	1071.97
394.49	1114.10
394.68	1114.10
394.88	1128.14
395.07	1137.50
395.26	1128.14
395.46	1097.71
395.65	1137.50
395.84	1156.22
396.04	1249.85
396.23	1205.38
396.42	1174.95
396.62	1177.29
396.81	1200.69
397.00	1174.95
397.19	1130.48
397.39	1130.48
397.58	1235.80
397.77	1207.72
397.97	1245.16
398.16	1198.35
398.35	1310.70
398.55	1172.61
398.74	1268.57
398.93	1331.76
399.12	1221.76
399.32	1259.21
399.51	1284.95
399.70	1299.00
399.90	1247.51
400.09	1313.04
400.28	1348.15
400.47	1249.85
400.67	1338.79
400.86	1355.17
401.05	1261.55
401.24	1306.02
401.44	1430.07
401.63	1458.15
401.82	1425.39
402.01	1380.92
402.21	1469.86
402.40	1511.99
402.59	1327.08
402.78	1413.68
402.97	1406.66
403.17	1411.34
403.36	1418.36
403.55	1547.09
403.74	1521.35
403.93	1495.60
404.13	1497.94
404.32	1458.15
404.51	1556.46
404.70	1638.38
404.89	1502.62
405.09	1657.10
405.28	1565.82
405.47	1647.74
405.66	1621.99
405.85	1591.56
406.05	1671.14
406.24	1781.15
406.43	1657.10
406.62	1694.55
406.81	1757.74
407.00	1774.13
407.20	1713.27
407.39	1736.68
407.58	1727.32
407.77	1743.70
407.96	1865.41
408.15	1846.68
408.34	1816.26
408.54	1797.53
408.73	1865.41
408.92	1849.02
409.11	1832.64
409.30	1891.15
409.49	1844.34
409.68	1933.28
409.87	1853.70
410.07	1872.43
410.26	1905.20
410.45	2099.46
410.64	2050.31
410.83	1991.80
411.02	2017.54
411.21	2097.12
411.40	2146.27
411.59	2080.74
411.78	2160.31
411.98	2073.71
412.17	2129.89
412.36	2246.91
412.55	2106.48
412.74	2289.04
412.93	2366.28
413.12	2211.81
413.31	2342.88
413.50	2359.26
413.69	2356.92
413.88	2459.90
414.07	2363.94
414.26	2511.39
414.45	2452.88
414.64	2537.14
414.83	2438.84
415.02	2459.90
415.22	2516.08
415.41	2558.21
415.60	2504.37
415.79	2595.65
415.98	2579.27
416.17	2518.42
416.36	2679.91
416.55	2635.44
416.74	2658.85
416.93	2708.00
417.12	2747.79
417.31	2827.37
417.50	2736.09
417.69	2832.05
417.88	2789.92
418.07	2846.09
418.26	2913.97
418.45	2818.00
418.64	2906.95
418.83	2923.33
419.02	2923.33
419.21	2944.39
419.39	3012.27
419.58	2946.73
419.77	2963.12
419.96	3063.76
420.15	3014.61
420.34	2988.86
420.53	3084.83
420.72	3014.61
420.91	3178.45
421.10	3119.93
421.29	3239.30
421.48	3038.02
421.67	3136.32
421.86	3190.15
422.05	3225.26
422.24	3087.17
422.43	3199.51
422.61	3159.72
422.80	3229.94
422.99	3276.75
423.18	3316.54
423.37	3302.50
423.56	3178.45
423.75	3117.59
423.94	3232.28
424.13	3007.59
424.32	3199.51
424.50	3274.41
424.69	3419.52
424.88	3304.84
425.07	3122.27
425.26	3251.00
425.45	3152.70
425.64	3232.28
425.83	3279.09
426.01	3283.77
426.20	3265.05
426.39	3337.60
426.58	3473.36
426.77	3262.71
426.96	3393.78
427.15	3330.58
427.33	3485.06
427.52	3466.33
427.71	3562.30
427.90	3417.18
428.09	3456.97
428.28	3688.68
428.46	3468.67
428.65	3466.33
428.84	3548.25
429.03	3655.92
429.22	3522.51
429.40	3620.81
429.59	3655.92
429.78	3482.72
429.97	3452.29
430.16	3676.98
430.34	3754.22
430.53	3782.31
430.72	3747.20
430.91	3772.94
431.10	3552.93
431.28	3749.54
431.47	3695.71
431.66	3899.33
431.85	3779.97
432.03	3990.61
432.22	3976.57
432.41	3826.78
432.60	3920.40
432.79	4117.00
432.97	3899.33
433.16	3990.61
433.35	3960.19
433.54	4056.15
433.72	4032.74
433.91	3971.89
434.10	4014.02
434.28	3899.33
434.47	4173.18
434.66	4091.26
434.85	4152.11
435.03	4222.33
435.22	3988.27
435.41	4161.47
435.59	4266.80
435.78	4290.20
435.97	4390.84
436.16	4194.24
436.34	4163.81
436.53	4304.25
436.72	4301.90
436.90	4243.39
437.09	4369.78
437.28	4257.43
437.46	4229.35
437.65	4327.65
437.84	4454.04
438.02	4531.28
438.21	4411.91
438.40	4299.56
438.58	4664.69
438.77	4524.26
438.96	4535.96
439.14	4674.05
439.33	4774.69
439.52	4762.99
439.70	4861.29
439.89	4793.42
440.08	4723.20
440.26	4678.73
440.45	4798.10
440.63	4891.72
440.82	5004.07
441.01	4961.94
441.19	5100.03
441.38	4905.76
441.57	4957.25
441.75	5111.73
441.94	5191.31
442.12	5135.14
442.31	5081.30
442.50	5203.01
442.68	5104.71
442.87	5163.22
443.05	5226.42
443.24	5284.93
443.43	5200.67
443.61	5247.48
443.80	5416.00
443.98	5093.01
444.17	4985.34
444.35	5439.40
444.54	5423.02
444.73	5359.83
444.91	5261.52
445.10	5399.62
445.28	5305.99
445.47	5371.53
445.65	5437.06
445.84	5399.62
446.02	5507.28
446.21	5523.66
446.39	5383.23
446.58	5650.05
446.77	5320.04
446.95	5423.02
447.14	5504.94
447.32	5497.92
447.51	5439.40
447.69	5383.23
447.88	5413.66
448.06	5568.13
448.25	5612.60
448.43	5533.03
448.62	5533.03
448.80	5472.17
448.99	5540.05
449.17	5535.37
449.36	5708.57
449.54	5746.02
449.73	5696.86
449.91	5797.51
450.10	5844.32
450.28	6003.47
450.46	5764.74
450.65	5884.11
450.83	5888.79
451.02	5902.83
451.20	5923.90
451.39	5846.66
451.57	5954.32
451.76	5893.47
451.94	6125.18
452.13	5959.00
452.31	6033.90
452.49	5830.27
452.68	6092.41
452.86	6036.24
453.05	6174.33
453.23	6160.29
453.42	5968.37
453.60	5994.11
453.78	6052.63
453.97	6113.48
454.15	6017.52
454.34	6141.57
454.52	6216.46
454.70	6274.98
454.89	6384.98
455.07	6382.64
455.26	6445.84
455.44	6471.58
455.62	6221.14
455.81	6504.35
455.99	6497.33
456.17	6572.22
456.36	6441.15
456.54	6621.38
456.73	6621.38
456.91	6705.63
457.09	6703.29
457.28	6775.85
457.46	6764.15
457.64	6771.17
457.83	6913.94
458.01	6644.78
458.19	6782.87
458.38	6810.96
458.56	6932.67
458.74	6717.34
458.93	6850.75
459.11	6796.92
459.29	6869.47
459.48	7000.54
459.66	6988.84
459.84	7124.59
460.03	7122.25
460.21	7040.33
460.39	7047.35
460.57	7101.19
460.76	7150.34
460.94	7108.21
461.12	7098.84
461.31	7131.61
461.49	7143.32
461.67	7082.46
461.85	7410.14
462.04	7243.96
462.22	7658.23
462.40	7487.37
462.59	7365.67
462.77	7489.71
462.95	7449.93
463.13	7344.60
463.32	7421.84
463.50	7510.78
463.68	7651.21
463.86	7515.46
464.05	7442.90
464.23	7599.72
464.41	7756.54
464.59	7550.57
464.78	7740.15
464.96	7613.76
465.14	7557.59
465.32	7681.64
465.50	7878.24
465.69	7735.47
465.87	7688.66
466.05	7646.53
466.23	7651.21
466.41	7829.09
466.60	7925.05
466.78	7700.36
466.96	7779.94
467.14	7859.52
467.32	7981.23
467.51	7810.37
467.69	7995.27
467.87	7953.14
468.05	8060.80
468.23	7896.97
468.41	7899.31
468.60	8056.12
468.78	8285.50
468.96	8262.09
469.14	8051.44
469.32	8351.03
469.50	8161.45
469.69	8294.86
469.87	8290.18
470.05	8241.03
470.23	8409.54
470.41	8603.81
470.59	8575.72
470.77	8566.36
470.95	8538.27
471.14	8545.30
471.32	8402.52
471.50	8503.17
471.68	8870.63
471.86	8833.18
472.04	8566.36
472.22	8858.93
472.40	8954.89
472.58	8842.54
472.77	8702.11
472.95	8992.34
473.13	9423.00
473.31	8894.04
473.49	9018.08
473.67	9076.60
473.85	9097.66
474.03	9518.96
474.21	9214.69
474.39	9296.61
474.57	9207.67
474.75	9509.60
474.93	9514.28
475.12	9378.53
475.30	9572.79
475.48	9465.13
475.66	9607.90
475.84	9572.79
476.02	9682.80
476.20	9563.43
476.38	9944.94
476.56	10216.44
476.74	9998.77
476.92	10038.56
477.10	9954.30
477.28	10178.99
477.46	10195.37
477.64	10249.21
477.82	10581.56
478.00	10684.55
478.18	10738.38
478.36	10665.82
478.54	11000.52
478.72	10925.62
478.90	10911.58
479.08	11094.14
479.26	10965.41
479.44	11052.01
479.62	11166.70
479.80	11218.19
479.98	11295.43
480.16	11831.41
480.34	11386.71
480.52	11648.85
480.70	11819.71
480.88	11461.60
481.06	11665.23
481.24	11786.94
481.41	11925.03
481.59	12039.72
481.77	12453.99
481.95	12198.87
482.13	12468.03
482.31	12540.59
482.49	12659.96
482.67	12683.36
482.85	12929.12
483.03	13048.49
483.21	13078.91
483.39	13254.45
483.57	13116.36
483.74	13249.77
483.92	13455.74
484.10	13284.88
484.28	13729.58
484.46	14026.83
484.64	14026.83
484.82	13811.50
485.00	13881.72
485.18	14286.63
485.35	14040.87
485.53	14506.64
485.71	14281.95
485.89	14768.78
486.07	14696.22
486.25	14604.94
486.43	14892.83
486.61	14906.87
486.78	15084.75
486.96	15089.43
487.14	15269.66
487.32	15281.36
487.50	15246.25
487.68	15459.24
487.85	15903.94
488.03	15859.47
488.21	16187.14
488.39	15997.56
488.57	16273.74
488.75	16470.35
488.92	16512.48
489.10	16683.34
489.28	16671.64
489.46	16999.31
489.64	16903.35
489.81	17132.72
489.99	17247.41
490.17	17387.84
490.35	17514.23
490.53	17703.81
490.70	17811.48
490.88	17652.32
491.06	17614.87
491.24	17837.22
491.41	17944.89
491.59	18361.50
491.77	18127.45
491.95	18562.79
492.13	18478.53
492.30	18696.20
492.48	18803.86
492.66	18707.90
492.84	19014.51
493.01	19304.74
493.19	19094.09
493.37	19573.90
493.54	19267.29
493.72	20013.92
493.90	19625.39
494.08	19616.03
494.25	19964.77
494.43	19950.73
494.61	20194.14
494.79	20280.74
494.96	20484.37
495.14	20552.24
495.32	20475.01
495.49	20549.90
495.67	20669.27
495.85	20713.74
496.02	20933.75
496.20	21338.66
496.38	21029.71
496.55	21326.96
496.73	21965.93
496.91	21628.89
497.09	21806.77
497.26	21853.58
497.44	21701.45
497.62	22129.77
497.79	22291.26
497.97	22483.19
498.14	22354.46
498.32	22579.15
498.50	22211.68
498.67	22796.82
498.85	22689.15
499.03	22852.99
499.20	22822.56
499.38	23175.98
499.56	22883.42
499.73	23026.19
499.91	23335.14
500.08	23604.30
500.26	23513.02
500.44	23728.35
500.61	23843.04
500.79	23791.55
500.97	23831.33
501.14	23985.81
501.32	24105.18
501.49	24154.33
501.67	24395.40
501.84	24194.12
502.02	24226.89
502.20	24383.70
502.37	24283.06
502.55	24261.99
502.72	24477.32
502.90	24774.57
503.07	24566.26
503.25	24903.30
503.43	25081.18
503.60	24996.92
503.78	25326.94
503.95	25184.16
504.13	25036.71
504.30	25432.26
504.48	25376.09
504.65	25324.60
504.83	25928.45
505.01	25713.13
505.18	25865.26
505.36	25912.07
505.53	25692.06
505.71	26164.85
505.88	26096.97
506.06	26356.77
506.23	26197.62
506.41	26249.11
506.58	26618.91
506.76	26398.90
506.93	26506.57
507.11	26326.35
507.28	26593.17
507.46	26906.80
507.63	26855.31
507.81	27124.47
507.98	27110.43
508.16	27229.79
508.33	27386.61
508.50	27164.26
508.68	27377.25
508.85	27843.01
509.03	27367.88
509.20	27552.79
509.38	27665.13
509.55	28133.24
509.73	27405.33
509.90	27915.57
510.08	28144.94
510.25	27903.87
510.42	28140.26
510.60	28430.49
510.77	28540.49
510.95	28767.52
511.12	28676.24
511.30	28484.32
511.47	28538.15
511.64	28788.59
511.82	28678.58
511.99	28699.65
512.17	29118.60
512.34	28828.38
512.51	29195.84
512.69	29514.16
512.86	29748.21
513.04	29376.06
513.21	29369.04
513.38	29703.74
513.56	29556.28
513.73	29153.71
513.90	29462.66
514.08	29359.68
514.25	29773.95
514.43	30113.33
514.60	30106.31
514.77	30391.86
514.95	30113.33
515.12	30087.59
515.29	30412.92
515.47	30443.35
515.64	30448.03
515.81	30190.57
515.99	30260.79
516.16	31194.66
516.33	30934.86
516.51	30845.92
516.68	30604.84
516.85	30958.27
517.03	30991.03
517.20	31335.09
517.37	30881.03
517.54	31470.84
517.72	31227.43
517.89	31491.91
518.06	31290.62
518.24	31735.32
518.41	31290.62
518.58	31431.05
518.75	31295.30
518.93	32018.53
519.10	31662.77
519.27	31875.76
519.45	31899.16
519.62	32446.85
519.79	32355.57
519.96	31896.82
520.14	32158.96
520.31	32177.68
520.48	32685.58
520.65	32250.24
520.83	33177.09
521.00	32854.10
521.17	32723.03
521.34	32603.66
521.52	32821.33
521.69	33134.96
521.86	33280.08
522.03	33198.16
522.20	33312.84
522.38	33392.42
522.55	33092.83
522.72	32830.69
522.89	33008.58
523.07	33479.02
523.24	33443.91
523.41	33479.02
523.58	33724.78
523.75	33563.28
523.92	33949.47
524.10	33785.63
524.27	34106.29
524.44	33783.29
524.61	34174.16
524.78	33844.15
524.96	34345.02
525.13	34345.02
525.30	34085.22
525.47	34323.96
525.64	34251.40
525.81	34623.54
525.98	34323.96
526.16	34499.50
526.33	34110.97
526.50	35056.54
526.67	34600.14
526.84	34562.69
527.01	34560.35
527.18	34576.73
527.36	34813.13
527.53	35318.68
527.70	35246.13
527.87	35426.35
528.04	35211.02
528.21	35512.95
528.38	35016.75
528.55	35283.58
528.72	35711.89
528.89	35512.95
529.07	35550.40
529.24	35461.46
529.41	35952.97
529.58	35910.84
529.75	35908.50
529.92	35714.23
530.09	35639.34
530.26	36158.94
530.43	36116.81
530.60	35824.24
530.77	35859.35
530.94	36151.91
531.11	35817.22
531.28	36182.34
531.46	36105.10
531.63	36577.89
531.80	36568.53
531.97	36554.49
532.14	36451.50
532.31	36718.32
532.48	36620.02
532.65	36769.82
532.82	36577.89
532.99	36804.92
533.16	36748.75
533.33	36711.30
533.50	37017.91
533.67	37024.93
533.84	36814.29
534.01	37230.90
534.18	37277.71
534.35	37347.93
534.52	37167.71
534.69	37645.18
534.86	37614.75
535.03	37287.07
535.20	37514.11
535.37	37593.68
535.54	38094.56
535.71	37764.54
535.88	38129.67
536.05	37598.37
536.22	37642.84
536.38	37287.07
536.55	37570.28
536.72	37935.40
536.89	38110.94
537.06	37734.12
537.23	38480.75
537.40	37909.66
537.57	37759.86
537.74	38078.18
537.91	38352.02
538.08	38455.00
538.25	37759.86
538.42	38347.34
538.59	38323.93
538.75	38703.10
538.92	38218.61
539.09	38553.30
539.26	38457.34
539.43	38471.39
539.60	38609.48
539.77	38906.73
539.94	38742.89
540.11	39089.29
540.28	38728.84
540.44	38703.10
540.61	38995.67
540.78	38820.13
540.95	38855.23
541.12	38829.49
541.29	38993.32
541.46	38866.94
541.62	39250.78
541.79	39077.58
541.96	38815.44
542.13	39388.88
542.30	38871.62
542.47	39016.73
542.63	39229.72
542.80	39723.57
542.97	39587.82
543.14	40069.97
543.31	39611.23
543.48	40177.64
543.64	39555.05
543.81	40023.16
543.98	40034.86
544.15	40226.79
544.32	40058.27
544.48	40355.52
544.65	40383.60
544.82	40135.51
544.99	40280.62
545.16	39901.45
545.32	40212.74
545.49	40863.41
545.66	40985.12
545.83	40643.40
546.00	40437.44
546.16	40715.96
546.33	40587.23
546.50	40409.35
546.67	40844.69
546.83	40210.40
547.00	40423.39
547.17	40540.42
547.34	40793.20
547.50	40767.45
547.67	40580.21
547.84	41095.13
548.00	41249.60
548.17	41310.46
548.34	40591.91
548.51	41343.22
548.67	41368.97
548.84	40994.48
549.01	41223.86
549.18	41146.62
549.34	41628.77
549.51	41528.13
549.68	41698.98
549.84	41462.59
550.01	41766.86
550.18	41141.94
550.34	41504.72
550.51	41467.27
550.68	41916.65
550.84	41375.99
551.01	41886.23
551.18	41237.90
551.34	41528.13
551.51	41841.76
551.68	41691.96
551.84	41654.51
552.01	41804.31
552.18	41996.23
552.34	41902.61
552.51	42047.72
552.68	41968.15
552.84	41937.72
553.01	42323.91
553.18	41766.86
553.34	42333.27
553.51	41970.49
553.67	42141.35
553.84	42195.18
554.01	41773.88
554.17	42029.00
554.34	42761.59
554.51	42391.78
554.67	42466.68
554.84	42454.98
555.00	42340.29
555.17	42478.38
555.33	42679.67
555.50	42518.17
555.67	42199.86
555.83	42824.78
556.00	42557.96
556.16	43100.97
556.33	42808.40
556.50	42749.88
556.66	42768.61
556.83	42602.43
556.99	42902.02
557.16	43164.16
557.32	43206.29
557.49	42937.13
557.65	42960.53
557.82	42787.33
557.98	43194.59
558.15	42810.74
558.32	42916.06
558.48	42955.85
558.65	42981.60
558.81	43267.14
558.98	43107.99
559.14	43021.39
559.31	43028.41
559.47	42848.19
559.64	43028.41
559.80	43693.12
559.97	43606.52
560.13	43325.66
560.30	43227.35
560.46	43826.53
560.63	43814.83
560.79	42890.32
560.96	43749.29
561.12	43555.03
561.29	43548.01
561.45	43613.54
561.61	43863.98
561.78	43232.04
561.94	43667.37
562.11	43555.03
562.27	43655.67
562.44	43702.48
562.60	44254.85
562.77	44229.10
562.93	43482.47
563.10	44048.88
563.26	43697.80
563.42	44280.60
563.59	43906.11
563.75	43768.02
563.92	43746.95
564.08	44051.22
564.24	44060.58
564.41	44151.87
564.57	43845.26
564.74	43856.96
564.90	43753.97
565.07	43976.33
565.23	44105.06
565.39	44065.27
565.56	44397.62
565.72	43847.60
565.88	44184.63
566.05	43505.88
566.21	44236.12
566.38	44395.28
566.54	43768.02
566.70	44313.36
566.87	44186.97
567.03	44154.21
567.19	44484.22
567.36	44116.76
567.52	44341.45
567.68	44804.88
567.85	44437.41
568.01	44383.58
568.17	44322.72
568.34	44390.60
568.50	43999.73
568.66	44137.82
568.83	44299.32
568.99	44631.68
569.15	44395.28
569.32	44137.82
569.48	44215.06
569.64	44825.94
569.81	44229.10
569.97	44587.21
570.13	44355.49
570.30	44191.65
570.46	44818.92
570.62	44746.36
570.78	44500.61
570.95	44500.61
571.11	45052.97
571.27	44315.70
571.43	44807.22
571.60	44629.34
571.76	44481.88
571.92	44638.70
572.09	44804.88
572.25	44549.76
572.41	44425.71
572.57	44821.26
572.74	45052.97
572.90	44655.08
573.06	44837.64
573.22	45095.10
573.38	44762.75
573.55	45027.23
573.71	45127.87
573.87	44570.82
574.03	44531.03
574.20	44744.02
574.36	44437.41
574.52	44947.65
574.68	44619.97
574.84	44629.34
575.01	45216.81
575.17	45134.89
575.33	45052.97
575.49	44926.58
575.65	44839.98
575.82	45137.23
575.98	44519.33
576.14	45045.95
576.30	45324.47
576.46	44938.29
576.62	44804.88
576.79	44664.44
576.95	44697.21
577.11	44477.20
577.27	45055.31
577.43	44924.24
577.59	45401.71
577.75	44612.95
577.92	45102.12
578.08	44779.13
578.24	44603.59
578.40	45432.14
578.56	45340.86
578.72	44903.18
578.88	45167.66
579.04	44907.86
579.21	44612.95
579.37	44985.10
579.53	45226.17
579.69	44994.46
579.85	44594.23
580.01	44800.19
580.17	45067.02
580.33	45268.30
580.49	45233.19
580.65	45380.65
580.82	45116.17
580.98	45127.87
581.14	44793.17
581.30	45038.93
581.46	45137.23
581.62	45055.31
581.78	44577.84
581.94	44964.03
582.10	44912.54
582.26	45453.20
582.42	45366.60
582.58	45317.45
582.74	45186.38
582.90	45418.10
583.06	45469.59
583.22	45036.59
583.38	45485.97
583.54	45088.08
583.70	45319.79
583.86	45228.51
584.02	44905.52
584.18	45418.10
584.34	45792.58
584.50	45481.29
584.66	45315.11
584.82	45368.94
584.98	45261.28
585.14	45305.75
585.30	45603.00
585.46	45617.04
585.62	45713.00
585.78	45326.81
585.94	45148.93
586.10	45298.73
586.26	45024.89
586.42	45097.44
586.58	45432.14
586.74	44924.24
586.90	45172.34
587.06	45127.87
587.22	45560.87
587.38	45347.88
587.54	45153.62
587.70	45373.63
587.86	45483.63
588.02	45354.90
588.18	45263.62
588.34	45209.79
588.49	45291.71
588.65	45507.04
588.81	45422.78
588.97	45483.63
589.13	45404.05
589.29	45193.40
589.45	45560.87
589.61	45567.89
589.77	45535.12
589.93	45514.06
590.08	45373.63
590.24	45567.89
590.40	45808.96
590.56	45940.04
590.72	45801.94
590.88	45687.26
591.04	45504.70
591.20	46080.47
591.35	45860.46
591.51	46010.25
591.67	45741.09
591.83	45993.87
591.99	46061.74
592.15	46010.25
592.31	45682.58
592.46	45734.07
592.62	45813.65
592.78	45886.20
592.94	46075.79
593.10	45897.91
593.26	46366.01
593.41	45918.97
593.57	45778.54
593.73	45785.56
593.89	45984.51
594.05	46218.56
594.20	46085.15
594.36	46405.80
594.52	46307.50
594.68	45736.41
594.84	45883.86
594.99	46202.18
595.15	45759.81
595.31	45949.40
595.47	45647.47
595.62	46040.68
595.78	45769.18
595.94	45888.54
596.10	46099.19
596.25	46064.08
596.41	46075.79
596.57	45820.67
596.73	46653.90
596.88	45804.28
597.04	46113.23
597.20	46241.96
597.36	45701.30
597.51	45865.14
597.67	46143.66
597.83	45982.16
597.99	45902.59
598.14	45603.00
598.30	46309.84
598.46	45778.54
598.61	46260.69
598.77	45909.61
598.93	46073.45
599.09	46059.40
599.24	46258.35
599.40	46085.15
599.56	46064.08
599.71	46415.16
599.87	46684.33
600.03	46665.60
600.18	46305.16
600.34	46143.66
600.50	45923.65
600.65	45982.16
600.81	46347.29
600.97	46305.16
601.12	46178.77
601.28	46307.50
601.44	46506.44
601.59	46227.92
601.75	45837.05
601.91	46520.49
602.06	46075.79
602.22	46696.03
602.37	45968.12
602.53	46220.90
602.69	46342.61
602.84	46110.89
603.00	46162.39
603.16	46010.25
603.31	46300.48
603.47	46286.43
603.62	46342.61
603.78	46426.87
603.94	46106.21
604.09	46129.62
604.25	45801.94
604.40	46253.67
604.56	46391.76
604.71	46073.45
604.87	46047.70
605.03	45907.27
605.18	46148.34
605.34	46319.20
605.49	45689.60
605.65	46307.50
605.80	45806.62
605.96	45921.31
606.12	46007.91
606.27	45837.05
606.43	45977.48
606.58	46333.24
606.74	45787.90
606.89	46050.04
607.05	46115.58
607.20	46043.02
607.36	45977.48
607.51	45727.05
607.67	45846.41
607.82	46185.79
607.98	45764.49
608.13	45799.60
608.29	46073.45
608.44	45993.87
608.60	45911.95
608.75	46047.70
608.91	45916.63
609.06	46108.55
609.22	46071.10
609.37	45544.48
609.53	45881.52
609.68	45668.53
609.84	45780.88
609.99	46064.08
610.15	46178.77
610.30	45841.73
610.46	45783.22
610.61	45764.49
610.76	45935.35
610.92	45382.99
611.07	45638.11
611.23	45528.10
611.38	45694.28
611.54	45668.53
611.69	45982.16
611.84	45764.49
612.00	45485.97
612.15	45572.57
612.31	45600.66
612.46	44858.71
612.62	45626.40
612.77	45558.53
612.92	45935.35
613.08	45354.90
613.23	45497.67
613.39	45354.90
613.54	45670.87
613.69	45734.07
613.85	45787.90
614.00	45394.69
614.15	45530.44
614.31	45347.88
614.46	45591.30
614.62	45219.15
614.77	45020.20
614.92	45478.95
615.08	45448.52
615.23	45956.42
615.38	45525.76
615.54	45106.80
615.69	45193.40
615.84	45537.46
616.00	45399.37
616.15	45155.96
616.30	45523.42
616.46	45291.71
616.61	45663.85
616.76	45635.77
616.92	44751.04
617.07	45249.58
617.22	45448.52
617.37	44786.15
617.53	45549.17
617.68	45041.27
617.83	44854.03
617.99	45387.67
618.14	45291.71
618.29	45216.81
618.45	45174.68
618.60	44893.82
618.75	44264.21
618.90	44839.98
619.06	44516.99
619.21	45151.27
619.36	45249.58
619.51	44868.07
619.67	44486.56
619.82	45001.48
619.97	44835.30
620.12	45034.25
620.28	44889.13
620.43	44744.02
620.58	44634.02
620.73	44851.69
620.89	45485.97
621.04	44610.61
621.19	44697.21
621.34	44863.39
621.49	44701.89
621.65	44201.02
621.80	44978.07
621.95	44825.94
622.10	45088.08
622.25	44402.30
622.41	44715.93
622.56	44514.65
622.71	44563.80
622.86	44800.19
623.01	44535.71
623.16	44474.86
623.32	44868.07
623.47	44509.97
623.62	44371.88
623.77	44479.54
623.92	44425.71
624.07	44381.24
624.23	44657.42
624.38	44388.26
624.53	44479.54
624.68	44233.78
624.83	43950.58
624.98	44186.97
625.13	43840.57
625.29	44105.06
625.44	44205.70
625.59	44332.09
625.74	44404.64
625.89	43749.29
626.04	43604.18
626.19	43826.53
626.34	44041.86
626.49	43557.37
626.65	43356.08
626.80	44065.27
626.95	43840.57
627.10	43468.43
627.25	43697.80
627.40	44238.47
627.55	43510.56
627.70	43398.21
627.85	44156.55
628.00	43814.83
628.15	43360.76
628.30	42923.08
628.45	43138.41
628.60	43311.61
628.76	43117.35
628.91	43592.48
629.06	43517.58
629.21	43445.02
629.36	43529.28
629.51	43143.09
629.66	44067.61
629.81	43435.66
629.96	43533.96
630.11	43395.87
630.26	43100.97
630.41	43611.20
630.56	42932.45
630.71	43494.18
630.86	43491.83
631.01	42525.19
631.16	43407.58
631.31	43000.32
631.46	42883.30
631.61	43150.12
631.76	43035.43
631.91	43016.71
632.06	43704.82
632.21	43480.13
632.36	43557.37
632.51	42738.18
632.66	42651.58
632.81	42822.44
632.96	43194.59
633.10	42712.44
633.25	42586.05
633.40	43005.00
633.55	42705.41
633.70	42749.88
633.85	42602.43
634.00	42719.46
634.15	42745.20
634.30	42543.92
634.45	42490.09
634.60	42501.79
634.75	42714.78
634.90	42557.96
635.05	42873.93
635.19	42616.47
635.34	42696.05
635.49	42700.73
635.64	42171.77
635.79	42363.70
635.94	42218.58
636.09	42548.60
636.24	42508.81
636.39	42433.91
636.53	42211.56
636.68	41876.86
636.83	42106.24
636.98	41841.76
637.13	42213.90
637.28	42300.50
637.43	42265.39
637.57	42366.04
637.72	41680.26
637.87	41808.99
638.02	41904.95
638.17	41855.80
638.32	41830.05
638.46	42108.58
638.61	41762.18
638.76	42195.18
638.91	41975.17
639.06	41823.03
639.20	41518.76
639.35	41806.65
639.50	41771.54
639.65	41755.16
639.80	41825.37
639.94	41638.13
640.09	41715.37
640.24	41879.21
640.39	41359.61
640.54	41261.30
640.68	41729.41
640.83	41624.09
640.98	41617.07
641.13	40891.50
641.27	41881.55
641.42	41427.48
641.57	41378.33
641.72	41317.48
641.86	41310.46
642.01	40739.36
642.16	41249.60
642.31	40648.08
642.45	41235.56
642.60	41212.15
642.75	41074.06
642.90	41476.63
643.04	41191.09
643.19	40985.12
643.34	40945.33
643.48	40797.88
643.63	40828.30
643.78	41413.44
643.93	41385.35
644.07	40865.75
644.22	41312.80
644.37	40704.26
644.51	41251.94
644.66	40914.90
644.81	41022.57
644.95	40914.90
645.10	40605.95
645.25	40912.56
645.39	40933.63
645.54	40622.34
645.69	40353.18
645.83	40589.57
645.98	40552.12
646.13	40711.28
646.27	40549.78
646.42	40353.18
646.57	40603.61
646.71	40973.42
646.86	40751.07
647.00	40952.35
647.15	41134.92
647.30	40535.74
647.44	40467.86
647.59	40350.84
647.74	40154.23
647.88	40823.62
648.03	40797.88
648.17	40800.22
648.32	40378.92
648.47	40837.67
648.61	40034.86
648.76	40044.23
648.90	40451.48
649.05	40428.07
649.20	40046.57
649.34	39782.09
649.49	40371.90
649.63	40292.32
649.78	40154.23
649.92	40151.89
650.07	40582.55
650.21	40409.35
650.36	40179.98
650.51	40105.08
650.65	40126.14
650.80	40250.19
650.94	40605.95
651.09	39988.05
651.23	39770.38
651.38	39679.10
651.52	39662.72
651.67	40018.48
651.81	39803.15
651.96	39723.57
652.10	39316.32
652.25	39688.46
652.39	39587.82
652.54	40135.51
652.68	39611.23
652.83	39456.75
652.97	39812.51
653.12	39599.52
653.26	39723.57
653.41	39662.72
653.55	39374.83
653.70	39639.31
653.84	39880.39
653.99	39992.73
654.13	39508.24
654.27	39552.71
654.42	39407.60
654.56	39475.48
654.71	39374.83
654.85	39302.28
655.00	39756.34
655.14	38909.07
655.29	39672.08
655.43	39264.83
655.57	39061.20
655.72	38766.29
655.86	39182.91
656.01	39065.88
656.15	38052.43
656.30	38983.96
656.44	39391.22
656.58	39089.29
656.73	38820.13
656.87	38639.90
657.01	38897.36
657.16	39133.76
657.30	39082.27
657.45	38581.39
657.59	38543.94
657.73	38572.03
657.88	38384.79
658.02	38883.32
658.16	39203.97
658.31	38738.21
658.45	38927.79
658.60	38686.71
658.74	38387.13
658.88	38909.07
659.03	38396.49
659.17	38621.18
659.31	38129.67
659.46	38153.07
659.60	38628.20
659.74	38309.89
659.89	38096.90
660.03	37804.33
660.17	38199.88
660.32	38089.88
660.46	38412.87
660.60	37635.81
660.74	37869.87
660.89	38033.71
661.03	37790.29
661.17	37691.99
661.32	37586.66
661.46	37860.51
661.60	37317.50
661.74	37275.37
661.89	37235.58
662.03	37422.83
662.17	37556.24
662.31	37394.74
662.46	37624.11
662.60	36896.20
662.74	36914.93
662.88	37336.23
663.03	36631.72
663.17	36739.39
663.31	36685.56
663.45	37184.09
663.60	37284.73
663.74	36940.68
663.88	36966.42
664.02	37392.40
664.17	37390.06
664.31	36870.46
664.45	36603.64
664.59	36561.51
664.73	36297.03
664.88	36648.11
665.02	36423.42
665.16	36687.90
665.30	36428.10
665.44	36350.86
665.59	36313.41
665.73	36100.42
665.87	35475.50
666.01	36215.11
666.15	35990.42
666.29	36226.81
666.44	36168.30
666.58	36016.16
666.72	35756.36
666.86	36098.08
667.00	35342.09
667.14	35494.22
667.28	35271.87
667.43	35765.73
667.57	36067.66
667.71	35318.68
667.85	35447.41
667.99	35601.89
668.13	35683.81
668.27	35108.04
668.41	35372.52
668.56	34909.09
668.70	34850.58
668.84	34838.87
668.98	34679.72
669.12	35016.75
669.26	34600.14
669.40	34930.16
669.54	35019.10
669.68	34824.83
669.82	34258.42
669.96	34155.44
670.10	34209.27
670.25	34195.23
670.39	34391.83
670.53	34471.41
670.67	34295.87
670.81	34284.17
670.95	34239.70
671.09	33930.75
671.23	34071.18
671.37	33841.81
671.51	33551.58
671.65	33881.60
671.79	33603.07
671.93	33769.25
672.07	33771.59
672.21	33631.16
672.35	33106.88
672.49	33593.71
672.63	33460.30
672.77	33149.01
672.91	33090.49
673.05	33273.06
673.19	33097.52
673.33	32807.29
673.47	32842.40
673.61	32929.00
673.75	32533.45
673.89	32404.72
674.03	32748.78
674.17	32273.65
674.31	32292.37
674.45	32301.73
674.59	31992.78
674.73	32093.43
674.87	31943.63
675.01	31931.93
675.15	31707.24
675.29	31541.06
675.43	31772.77
675.56	31725.96
675.70	31557.44
675.84	31861.71
675.98	30597.82
676.12	31255.51
676.26	31850.01
676.40	31325.73
676.54	30841.24
676.68	31267.22
676.82	30572.08
676.96	30883.37
677.10	31248.49
677.23	30965.29
677.37	30747.62
677.51	30518.25
677.65	30438.67
677.79	30005.67
677.93	30363.77
678.07	30047.80
678.21	29972.90
678.34	29809.06
678.48	29460.32
678.62	29703.74
678.76	29544.58
678.90	29516.50
679.04	29720.12
679.18	29710.76
679.31	29273.08
679.45	29017.96
679.59	28589.64
679.73	29160.73
679.87	28971.15
680.00	28755.82
680.14	29244.99
680.28	28591.98
680.42	28982.85
680.56	28669.22
680.70	28577.94
680.83	28182.39
680.97	27950.68
681.11	28259.63
681.25	28016.21
681.39	27789.18
681.52	27835.99
681.66	27431.08
681.80	27564.49
681.94	26984.04
682.07	27365.54
682.21	27300.01
682.35	27283.62
682.49	27070.64
682.62	26906.80
682.76	27384.27
682.90	27257.88
683.04	26782.75
683.17	26710.19
683.31	26237.41
683.45	26588.49
683.59	26225.70
683.72	26352.09
683.86	26092.29
684.00	26230.38
684.13	26225.70
684.27	25834.83
684.41	26078.25
684.55	25919.09
684.68	25862.92
684.82	25195.87
684.96	25479.07
685.09	25404.17
685.23	25701.42
685.37	25530.56
685.50	25422.90
685.64	25542.27
685.78	24882.24
685.91	25015.65
686.05	24861.17
686.19	24411.79
686.32	24610.73
686.46	24151.99
686.60	24257.31
686.73	24189.44
686.87	24203.48
687.01	24734.78
687.14	24320.51
687.28	23847.72
687.42	23992.83
687.55	23714.31
687.69	23711.97
687.82	23810.27
687.96	23538.77
688.10	23388.97
688.23	23477.91
688.37	23515.36
688.50	23679.20
688.64	23494.30
688.78	22958.31
688.91	22998.10
689.05	23178.33
689.18	22782.77
689.32	22719.58
689.46	22562.76
689.59	22588.51
689.73	22466.80
689.86	22651.70
690.00	22314.67
690.13	22508.93
690.27	22146.15
690.41	22258.49
690.54	21774.00
690.68	22017.42
690.81	21619.53
690.95	21612.51
691.08	21570.38
691.22	21174.83
691.35	21263.77
691.49	21603.14
691.62	21345.69
691.76	21078.86
691.89	20884.60
692.03	20882.26
692.16	20498.41
692.30	20786.30
692.43	20772.25
692.57	20563.95
692.70	20442.24
692.84	20453.94
692.97	20114.56
693.11	20292.44
693.24	20149.67
693.38	20107.54
693.51	19894.55
693.65	19999.88
693.78	19627.73
693.92	19454.53
694.05	19686.25
694.19	19559.86
694.32	19309.42
694.45	19487.30
694.59	19606.67
694.72	19604.33
694.86	19220.48
694.99	18834.29
695.13	19054.30
695.26	18579.17
695.39	18691.52
695.53	18588.53
695.66	18906.85
695.80	18497.25
695.93	18333.42
696.07	18200.01
696.20	18092.34
696.33	17937.87
696.47	18188.30
696.60	18188.30
696.73	18143.83
696.87	17902.76
697.00	17841.90
697.14	17610.19
697.27	17797.43
697.40	17401.88
697.54	17818.50
697.67	17731.90
697.80	17720.20
697.94	17530.61
698.07	17233.36
698.21	17135.06
698.34	17280.18
698.47	16844.84
698.61	16755.90
698.74	16601.42
698.87	16575.67
699.01	16608.44
699.14	16444.60
699.27	16460.99
699.40	16711.42
699.54	16262.04
699.67	16210.55
699.80	16498.44
699.94	16053.73
700.07	16187.14
700.20	15978.84
700.34	15922.66
700.47	15784.57
700.60	15676.91
700.73	15791.59
700.87	15346.89
701.00	15307.10
701.13	15573.92
701.26	15311.78
701.40	15211.14
701.53	15073.05
701.66	14902.19
701.79	15150.29
701.93	14827.29
702.06	14717.29
702.19	14572.18
702.32	14848.36
702.46	14555.79
702.59	14717.29
702.72	14721.97
702.85	14626.01
702.99	14565.15
703.12	14441.11
703.25	14356.85
703.38	14125.13
703.51	14012.79
703.65	14155.56
703.78	13851.29
703.91	13668.73
704.04	13874.70
704.17	13612.56
704.31	13626.60
704.44	13650.00
704.57	13532.98
704.70	13645.32
704.83	13474.46
704.96	13275.52
705.10	13153.81
705.23	13118.70
>>>>>End Processed Spectral Data<<<<<
