SpectraSuite Data File
++++++++++++++++++++++++++++++++++++
Date: Fri Oct 25 10:48:02 EDT 2013
User: price-jones
Dark Spectrum Present: No
Reference Spectrum Present: No
Number of Sampled Component Spectra: 1
Spectrometers: USB2+H05261
Integration Time (usec): 100000 (USB2+H05261)
Spectra Averaged: 1 (USB2+H05261)
Boxcar Smoothing: 0 (USB2+H05261)
Correct for Electrical Dark: No (USB2+H05261)
Strobe/Lamp Enabled: No (USB2+H05261)
Correct for Detector Non-linearity: No (USB2+H05261)
Correct for Stray Light: No (USB2+H05261)
Number of Pixels in Processed Spectrum: 2048
>>>>>Begin Processed Spectral Data<<<<<
365.73	175.54
365.92	175.54
366.12	175.54
366.32	91.28
366.52	32.77
366.72	58.51
366.91	35.11
367.11	39.79
367.31	0.00
367.51	58.51
367.70	58.51
367.90	35.11
368.10	56.17
368.30	63.19
368.49	35.11
368.69	105.32
368.89	65.54
369.09	98.30
369.28	0.00
369.48	135.75
369.68	119.37
369.87	121.71
370.07	95.96
370.27	138.09
370.47	210.65
370.66	367.46
370.86	435.34
371.06	468.11
371.25	507.90
371.45	458.74
371.65	402.57
371.84	489.17
372.04	430.66
372.24	440.02
372.44	430.66
372.63	571.09
372.83	440.02
373.03	491.51
373.22	472.79
373.42	566.41
373.62	507.90
373.81	533.64
374.01	486.83
374.21	615.56
374.40	521.94
374.60	475.13
374.79	535.98
374.99	463.43
375.19	606.20
375.38	629.60
375.58	566.41
375.78	627.26
375.97	603.86
376.17	578.11
376.37	587.47
376.56	561.73
376.76	512.58
376.95	561.73
377.15	592.16
377.35	617.90
377.54	685.78
377.74	648.33
377.93	545.34
378.13	554.71
378.33	596.84
378.52	599.18
378.72	615.56
378.91	664.71
379.11	638.97
379.31	711.52
379.50	720.88
379.70	645.99
379.89	643.65
380.09	554.71
380.28	552.37
380.48	566.41
380.68	592.16
380.87	578.11
381.07	681.10
381.26	669.39
381.46	650.67
381.65	596.84
381.85	732.59
382.04	650.67
382.24	636.63
382.43	760.67
382.63	681.10
382.83	786.42
383.02	767.70
383.22	887.06
383.41	725.57
383.61	772.38
383.80	786.42
384.00	770.04
384.19	692.80
384.39	725.57
384.58	655.35
384.78	711.52
384.97	713.86
385.17	746.63
385.36	835.57
385.56	737.27
385.75	763.01
385.95	720.88
386.14	741.95
386.34	786.42
386.53	788.76
386.72	741.95
386.92	830.89
387.11	826.21
387.31	854.30
387.50	833.23
387.70	805.14
387.89	861.32
388.09	795.78
388.28	800.46
388.48	760.67
388.67	821.53
388.86	816.85
389.06	931.53
389.25	858.98
389.45	954.94
389.64	858.98
389.84	875.36
390.03	898.77
390.22	889.40
390.42	858.98
390.61	997.07
390.81	905.79
391.00	858.98
391.19	926.85
391.39	919.83
391.58	966.64
391.78	910.47
391.97	915.15
392.16	924.51
392.36	1053.24
392.55	940.90
392.75	891.74
392.94	908.13
393.13	990.05
393.33	894.08
393.52	947.92
393.71	1020.47
393.91	1069.62
394.10	1078.99
394.29	1018.13
394.49	990.05
394.68	1027.50
394.88	1114.10
395.07	1217.08
395.26	1100.05
395.46	1083.67
395.65	1137.50
395.84	1167.93
396.04	1184.31
396.23	1186.65
396.42	973.66
396.62	1158.57
396.81	1093.03
397.00	1188.99
397.19	1203.04
397.39	1095.37
397.58	1114.10
397.77	1179.63
397.97	1196.01
398.16	1266.23
398.35	1277.93
398.55	1172.61
398.74	1277.93
398.93	1366.87
399.12	1273.25
399.32	1366.87
399.51	1287.29
399.70	1373.89
399.90	1291.98
400.09	1371.55
400.28	1373.89
400.47	1418.36
400.67	1404.32
400.86	1509.65
401.05	1427.73
401.24	1502.62
401.44	1479.22
401.63	1362.19
401.82	1603.27
402.01	1481.56
402.21	1455.81
402.40	1533.05
402.59	1448.79
402.78	1570.50
402.97	1523.69
403.17	1591.56
403.36	1486.24
403.55	1589.22
403.74	1722.63
403.93	1661.78
404.13	1682.85
404.32	1544.75
404.51	1617.31
404.70	1668.80
404.89	1732.00
405.09	1710.93
405.28	1682.85
405.47	1746.04
405.66	1621.99
405.85	1678.16
406.05	1713.27
406.24	1755.40
406.43	1687.53
406.62	1795.19
406.81	1863.07
407.00	1818.60
407.20	1820.94
407.39	1774.13
407.58	1893.49
407.77	1877.11
407.96	1895.83
408.15	1954.35
408.34	1928.60
408.54	1973.07
408.73	1984.77
408.92	1799.87
409.11	1968.39
409.30	2078.40
409.49	2106.48
409.68	1954.35
409.87	1966.05
410.07	2043.29
410.26	1970.73
410.45	2026.90
410.64	2085.42
410.83	2113.50
411.02	2253.94
411.21	2214.15
411.40	2153.29
411.59	2338.20
411.78	2225.85
411.98	2239.89
412.17	2239.89
412.36	2338.20
412.55	2366.28
412.74	2373.30
412.93	2333.51
413.12	2361.60
413.31	2576.93
413.50	2518.42
413.69	2373.30
413.88	2600.34
414.07	2436.50
414.26	2665.87
414.45	2602.68
414.64	2576.93
414.83	2663.53
415.02	2565.23
415.22	2691.62
415.41	2764.17
415.60	2665.87
415.79	2766.51
415.98	2780.56
416.17	2935.03
416.36	2759.49
416.55	2953.76
416.74	2855.45
416.93	2867.16
417.12	2918.65
417.31	2916.31
417.50	2970.14
417.69	3035.67
417.88	2953.76
418.07	2899.92
418.26	2995.89
418.45	3082.49
418.64	3145.68
418.83	3241.64
419.02	3159.72
419.21	3236.96
419.39	3222.92
419.58	3103.55
419.77	3176.11
419.96	3213.56
420.15	3346.97
420.34	3227.60
420.53	3218.24
420.72	3316.54
420.91	3208.87
421.10	3239.30
421.29	3204.19
421.48	3379.73
421.67	3302.50
421.86	3426.54
422.05	3342.28
422.24	3419.52
422.43	3318.88
422.61	3499.10
422.80	3368.03
422.99	3473.36
423.18	3428.88
423.37	3463.99
423.56	3463.99
423.75	3515.48
423.94	3459.31
424.13	3201.85
424.32	3330.58
424.50	3578.68
424.69	3482.72
424.88	3616.13
425.07	3520.17
425.26	3396.12
425.45	3552.93
425.64	3534.21
425.83	3393.78
426.01	3501.44
426.20	3555.27
426.39	3536.55
426.58	3459.31
426.77	3410.16
426.96	3536.55
427.15	3449.95
427.33	3620.81
427.52	3623.15
427.71	3644.21
427.90	3520.17
428.09	3665.28
428.28	3566.98
428.46	3632.51
428.65	3742.52
428.84	3906.35
429.03	3845.50
429.22	3719.11
429.40	3775.28
429.59	3728.47
429.78	3620.81
429.97	3543.57
430.16	3815.07
430.34	3756.56
430.53	3829.12
430.72	3845.50
430.91	3992.95
431.10	3920.40
431.28	4011.68
431.47	4114.66
431.66	4058.49
431.85	4053.81
432.03	3992.95
432.22	4154.45
432.41	4138.07
432.60	3999.98
432.79	4121.68
432.97	4245.73
433.16	4109.98
433.35	4180.20
433.54	4056.15
433.72	4114.66
433.91	4102.96
434.10	4306.59
434.28	4262.12
434.47	4276.16
434.66	4334.67
434.85	4407.23
435.03	4381.48
435.22	4327.65
435.41	4542.98
435.59	4432.97
435.78	4521.92
435.97	4409.57
436.16	4538.30
436.34	4393.19
436.53	4526.60
436.72	4732.56
436.90	4620.22
437.09	4678.73
437.28	4622.56
437.46	4599.15
437.65	4706.82
437.84	4566.39
438.02	4617.88
438.21	4603.83
438.40	4685.75
438.58	4690.43
438.77	4821.50
438.96	4734.90
439.14	4821.50
439.33	4835.55
439.52	5048.54
439.70	4929.17
439.89	5046.20
440.08	5013.43
440.26	5085.98
440.45	5219.39
440.63	5200.67
440.82	5378.55
441.01	5200.67
441.19	5240.46
441.38	5397.28
441.57	5446.43
441.75	5476.85
441.94	5561.11
442.12	5628.99
442.31	5596.22
442.50	5636.01
442.68	5469.83
442.87	5664.10
443.05	5516.64
443.24	5678.14
443.43	5717.93
443.61	5673.46
443.80	5872.40
443.98	5664.10
444.17	5507.28
444.35	5603.24
444.54	5834.96
444.73	5715.59
444.91	5636.01
445.10	5671.12
445.28	5685.16
445.47	5734.31
445.65	5708.57
445.84	5687.50
446.02	5954.32
446.21	5870.06
446.39	5792.83
446.58	5881.77
446.77	5867.72
446.95	5792.83
447.14	5975.39
447.32	5956.66
447.51	6008.16
447.69	5914.53
447.88	6003.47
448.06	5898.15
448.25	5949.64
448.43	5968.37
448.62	6040.92
448.80	5940.28
448.99	5942.62
449.17	6193.06
449.36	5961.34
449.54	6134.54
449.73	6216.46
449.91	6342.85
450.10	6328.81
450.28	6284.34
450.46	6150.93
450.65	6256.25
450.83	6232.85
451.02	6380.30
451.20	6284.34
451.39	6375.62
451.57	6317.11
451.76	6300.72
451.94	6228.17
452.13	6441.15
452.31	6321.79
452.49	6249.23
452.68	6619.04
452.86	6464.56
453.05	6485.62
453.23	6410.73
453.42	6509.03
453.60	6394.34
453.78	6434.13
453.97	6445.84
454.15	6504.35
454.34	6525.41
454.52	6469.24
454.70	6597.97
454.89	6640.10
455.07	6808.62
455.26	6881.18
455.44	6729.04
455.62	6745.42
455.81	6860.11
455.99	6904.58
456.17	6988.84
456.36	6904.58
456.54	6953.73
456.73	7012.24
456.91	7372.69
457.09	7082.46
457.28	7281.41
457.46	7171.40
457.64	7300.13
457.83	7211.19
458.01	7094.16
458.19	7382.05
458.38	7426.52
458.56	7522.48
458.74	7375.03
458.93	7082.46
459.11	7377.37
459.29	7330.56
459.48	7311.83
459.66	7379.71
459.84	7529.50
460.03	7702.70
460.21	7463.97
460.39	7588.02
460.57	7620.78
460.76	7473.33
460.94	7562.27
461.12	7648.87
461.31	7698.02
461.49	7609.08
461.67	7510.78
461.85	7765.90
462.04	7719.09
462.22	8189.53
462.40	7833.77
462.59	7803.35
462.77	7960.16
462.95	7906.33
463.13	7957.82
463.32	7873.56
463.50	8002.29
463.68	7983.57
463.86	7927.39
464.05	7836.11
464.23	7920.37
464.41	8219.96
464.59	7971.86
464.78	8245.71
464.96	8131.02
465.14	8109.96
465.32	8332.31
465.50	8168.47
465.69	8198.90
465.87	8124.00
466.05	8147.40
466.23	8018.68
466.41	8175.49
466.60	8397.84
466.78	8168.47
466.96	8187.19
467.14	8414.23
467.32	8465.72
467.51	8624.87
467.69	8236.35
467.87	8348.69
468.05	8662.32
468.23	8470.40
468.41	8512.53
468.60	8465.72
468.78	8664.66
468.96	8580.40
469.14	8463.38
469.32	8748.92
469.50	8606.15
469.69	8571.04
469.87	8645.94
470.05	8816.80
470.23	8762.97
470.41	8795.73
470.59	8875.31
470.77	8884.67
470.95	8973.61
471.14	8997.02
471.32	8908.08
471.50	9153.84
471.68	9062.55
471.86	9469.81
472.04	9315.33
472.22	9469.81
472.40	9231.07
472.58	9170.22
472.77	9245.12
472.95	9610.24
473.13	9645.35
473.31	9364.48
473.49	9572.79
473.67	9554.07
473.85	9645.35
474.03	9781.10
474.21	9792.80
474.39	9837.27
474.57	9996.43
474.75	9912.17
474.93	10043.24
475.12	9806.84
475.30	9947.28
475.48	10040.90
475.66	10033.88
475.84	10132.18
476.02	10148.56
476.20	10204.74
476.38	10270.27
476.56	10775.83
476.74	10726.68
476.92	10399.00
477.10	10684.55
477.28	10834.34
477.46	10726.68
477.64	10920.94
477.82	10974.77
478.00	11248.61
478.18	11056.69
478.36	11215.85
478.54	11384.37
478.72	11328.19
478.90	11606.72
479.08	11595.01
479.26	11934.39
479.44	11796.30
479.62	11587.99
479.80	11985.88
479.98	12152.06
480.16	12442.29
480.34	12072.48
480.52	12215.26
480.70	12322.92
480.88	12170.79
481.06	12322.92
481.24	12571.02
481.41	12702.09
481.59	13025.08
481.77	12992.31
481.95	12926.78
482.13	13174.88
482.31	13198.28
482.49	13338.71
482.67	13483.83
482.85	13308.29
483.03	13724.90
483.21	13792.78
483.39	13757.67
483.57	13841.93
483.74	14019.81
483.92	14118.11
484.10	14001.08
484.28	14352.16
484.46	14286.63
484.64	14682.18
484.82	14462.17
485.00	14712.61
485.18	14778.14
485.35	14941.98
485.53	15016.88
485.71	15208.80
485.89	15131.56
486.07	15365.62
486.25	14949.00
486.43	15290.72
486.61	15438.17
486.78	15461.58
486.96	15899.26
487.14	16203.53
487.32	16276.09
487.50	16194.17
487.68	16414.18
487.85	16386.09
488.03	16786.32
488.21	16996.97
488.39	16966.54
488.57	17057.82
488.75	17149.11
488.92	17507.21
489.10	17610.19
489.28	17727.22
489.46	17956.59
489.64	17685.09
489.81	17956.59
489.99	18370.86
490.17	18434.06
490.35	18441.08
490.53	18279.58
490.70	18319.37
490.88	18611.94
491.06	18696.20
491.24	19007.49
491.41	19016.85
491.59	19028.56
491.77	19168.99
491.95	19452.19
492.13	19253.25
492.30	19309.42
492.48	20039.67
492.66	19646.46
492.84	19702.63
493.01	19957.75
493.19	20168.40
493.37	20056.05
493.54	20386.07
493.72	20219.89
493.90	20451.60
494.08	20772.25
494.25	21003.97
494.43	21128.02
494.61	20959.50
494.79	21341.00
494.96	21200.57
495.14	21605.49
495.32	21502.50
495.49	21523.57
495.67	21467.39
495.85	21891.03
496.02	21638.25
496.20	22104.02
496.38	22162.53
496.55	22228.07
496.73	22614.26
496.91	22115.72
497.09	22616.60
497.26	22883.42
497.44	22750.01
497.62	22782.77
497.79	22967.68
497.97	22991.08
498.14	23206.41
498.32	23424.08
498.50	23501.32
498.67	23632.39
498.85	23412.38
499.03	24077.09
499.20	23931.98
499.38	23990.49
499.56	23964.75
499.73	24322.85
499.91	24336.89
500.08	24643.50
500.26	24297.10
500.44	24826.06
500.61	24486.68
500.79	24130.92
500.97	24840.11
501.14	25289.49
501.32	24989.90
501.49	24823.72
501.67	24868.19
501.84	25097.56
502.02	25376.09
502.20	25329.28
502.37	25439.28
502.55	25401.83
502.72	25502.48
502.90	25741.21
503.07	25589.08
503.25	26120.38
503.43	25993.99
503.60	26092.29
503.78	26171.87
503.95	25827.81
504.13	26171.87
504.30	26356.77
504.48	26190.59
504.65	26733.60
504.83	26728.92
505.01	27168.94
505.18	26647.00
505.36	26895.10
505.53	26902.12
505.71	27311.71
505.88	27115.11
506.06	26724.24
506.23	27131.49
506.41	27283.62
506.58	27171.28
506.76	27601.94
506.93	27449.80
507.11	27487.25
507.28	27679.18
507.46	27590.24
507.63	27814.93
507.81	27917.91
507.98	27723.65
508.16	27971.74
508.33	28254.95
508.50	28306.44
508.68	28032.60
508.85	28566.24
509.03	28156.64
509.20	29064.77
509.38	28538.15
509.55	28552.20
509.73	28891.57
509.90	29050.73
510.08	28783.91
510.25	29287.12
510.42	28884.55
510.60	29219.25
510.77	29422.87
510.95	29575.01
511.12	29266.06
511.30	29504.79
511.47	30120.35
511.64	29813.74
511.82	29860.55
511.99	29486.07
512.17	29928.43
512.34	29855.87
512.51	30071.20
512.69	30417.60
512.86	30305.26
513.04	29977.58
513.21	30501.86
513.38	30300.58
513.56	30099.29
513.73	30513.56
513.90	30522.93
514.08	30541.65
514.25	30850.60
514.43	30967.63
514.60	30480.80
514.77	30735.92
514.95	31061.25
515.12	30883.37
515.29	31225.09
515.47	31182.96
515.64	31608.93
515.81	31222.75
515.99	31126.78
516.16	31419.35
516.33	31337.43
516.51	31365.52
516.68	31590.21
516.85	31578.51
517.03	31573.83
517.20	31772.77
517.37	31765.75
517.54	31915.54
517.72	32107.47
517.89	31503.61
518.06	32250.24
518.24	31978.74
518.41	32229.18
518.58	32297.05
518.75	32290.03
518.93	32809.63
519.10	32512.38
519.27	32444.51
519.45	32210.45
519.62	32952.40
519.79	32711.33
519.96	33064.75
520.14	33067.09
520.31	32788.56
520.48	33081.13
520.65	33113.90
520.83	33387.74
521.00	33558.60
521.17	33820.74
521.34	33684.99
521.52	33830.10
521.69	33862.87
521.86	34061.82
522.03	33876.91
522.20	33710.74
522.38	33986.92
522.55	33755.21
522.72	33912.02
522.89	33933.09
523.07	34150.76
523.24	34019.69
523.41	34216.29
523.58	34169.48
523.75	34782.70
523.92	35014.41
524.10	34202.25
524.27	34895.05
524.44	34773.34
524.61	34991.01
524.78	34747.59
524.96	35278.89
525.13	34808.45
525.30	35201.66
525.47	35391.24
525.64	35051.86
525.81	35098.67
525.98	35285.92
526.16	35129.10
526.33	35246.13
526.50	35625.29
526.67	34911.43
526.84	35496.56
527.01	35093.99
527.18	35311.66
527.36	36093.40
527.53	35529.33
527.70	35798.49
527.87	36006.80
528.04	36062.97
528.21	36133.19
528.38	36142.55
528.55	36524.06
528.72	36505.34
528.89	36830.67
529.07	36292.35
529.24	35775.09
529.41	36044.25
529.58	36334.48
529.75	35990.42
529.92	36467.89
530.09	36184.68
530.26	36730.03
530.43	36395.33
530.60	36594.28
530.77	36470.23
530.94	36891.52
531.11	37008.55
531.28	36690.24
531.46	37060.04
531.63	37303.46
531.80	37123.24
531.97	37111.53
532.14	37401.76
532.31	37230.90
532.48	37509.43
532.65	37624.11
532.82	37352.61
532.99	37401.76
533.16	37219.20
533.33	37579.64
533.50	37893.27
533.67	37453.25
533.84	37769.22
534.01	37628.79
534.18	37448.57
534.35	38040.73
534.52	37703.69
534.69	37574.96
534.86	37895.61
535.03	38061.79
535.20	38033.71
535.37	38356.70
535.54	38309.89
535.71	38204.56
535.88	38064.13
536.05	37998.60
536.22	37813.70
536.38	38270.10
536.55	38321.59
536.72	38679.69
536.89	38293.50
537.06	38363.72
537.23	38785.02
537.40	38597.77
537.57	38293.50
537.74	38604.80
537.91	39063.54
538.08	38782.68
538.25	38567.35
538.42	38604.80
538.59	39103.33
538.75	38391.81
538.92	38834.17
539.09	39105.67
539.26	39239.08
539.43	39269.51
539.60	38803.74
539.77	39356.11
539.94	39653.36
540.11	39276.53
540.28	39510.58
540.44	38913.75
540.61	39255.46
540.78	39405.26
540.95	39791.45
541.12	39440.37
541.29	39262.49
541.46	39487.18
541.62	39225.04
541.79	39824.22
541.96	39285.89
542.13	39412.28
542.30	39487.18
542.47	39856.98
542.63	39681.44
542.80	40137.85
542.97	40023.16
543.14	40343.81
543.31	40179.98
543.48	40498.29
543.64	41031.93
543.81	40362.54
543.98	40397.65
544.15	40517.01
544.32	40659.79
544.48	41043.63
544.65	40580.21
544.82	40779.15
544.99	40306.37
545.16	40683.19
545.32	40664.47
545.49	40856.39
545.66	41130.23
545.83	40624.68
546.00	41490.68
546.16	40753.41
546.33	40767.45
546.50	40409.35
546.67	40914.90
546.83	40631.70
547.00	41062.36
547.17	41191.09
547.34	40832.99
547.50	40767.45
547.67	40931.29
547.84	41326.84
548.00	41432.16
548.17	41237.90
548.34	41254.28
548.51	41528.13
548.67	41668.56
548.84	41212.15
549.01	41635.79
549.18	41277.69
549.34	41219.17
549.51	41448.55
549.68	41801.97
549.84	41675.58
550.01	42005.59
550.18	41443.87
550.34	41507.06
550.51	41394.71
550.68	41408.76
550.84	41511.74
551.01	42050.06
551.18	41916.65
551.34	42131.98
551.51	41834.74
551.68	42012.62
551.84	42504.13
552.01	42007.94
552.18	41701.32
552.34	41977.51
552.51	42031.34
552.68	41619.41
552.84	42071.13
553.01	42389.44
553.18	42101.56
553.34	42014.96
553.51	41853.46
553.67	42387.10
553.84	42698.39
554.01	42593.07
554.17	42878.61
554.34	42667.97
554.51	42361.36
554.67	42541.58
554.84	42796.70
555.00	42038.36
555.17	42396.46
555.33	42508.81
555.50	42274.76
555.67	42595.41
555.83	42639.88
556.00	42834.14
556.16	43674.40
556.33	42925.42
556.50	42700.73
556.66	43157.14
556.83	43037.77
556.99	42820.10
557.16	43395.87
557.32	43042.45
557.49	43044.79
557.65	43196.93
557.82	42403.49
557.98	42672.65
558.15	43133.73
558.32	42866.91
558.48	42904.36
558.65	43049.47
558.81	42941.81
558.98	43068.20
559.14	43119.69
559.31	43351.40
559.47	42934.79
559.64	43643.97
559.80	44215.06
559.97	43505.88
560.13	42930.11
560.30	43117.35
560.46	43370.13
560.63	43150.12
560.79	43489.49
560.96	43793.76
561.12	43454.39
561.29	43552.69
561.45	43058.84
561.61	43246.08
561.78	43599.50
561.94	43449.70
562.11	43625.25
562.27	43746.95
562.44	43292.89
562.60	43540.99
562.77	43871.00
562.93	43821.85
563.10	43887.39
563.26	43620.56
563.42	43999.73
563.59	43253.10
563.75	43519.92
563.92	43641.63
564.08	44065.27
564.24	43868.66
564.41	43920.15
564.57	43856.96
564.74	43503.54
564.90	43992.71
565.07	43849.94
565.23	43856.96
565.39	43854.62
565.56	44025.48
565.72	43775.04
565.88	44156.55
566.05	43613.54
566.21	43988.03
566.38	43880.36
566.54	43826.53
566.70	43810.15
566.87	43983.35
567.03	44055.90
567.19	44123.78
567.36	44432.73
567.52	43943.56
567.68	44378.90
567.85	44446.77
568.01	44271.23
568.17	43906.11
568.34	44121.44
568.50	44236.12
568.66	43894.41
568.83	44025.48
568.99	44055.90
569.15	43941.22
569.32	44027.82
569.48	44128.46
569.64	44619.97
569.81	44140.16
569.97	44123.78
570.13	43934.20
570.30	44079.31
570.46	44039.52
570.62	44046.54
570.78	43913.13
570.95	44013.77
571.11	44355.49
571.27	44292.30
571.43	43887.39
571.60	44327.41
571.76	43819.51
571.92	43988.03
572.09	44449.11
572.25	44217.40
572.41	44189.31
572.57	44299.32
572.74	44552.10
572.90	44428.05
573.06	44456.14
573.22	44561.46
573.38	44540.39
573.55	44069.95
573.71	44336.77
573.87	44079.31
574.03	44140.16
574.20	44147.18
574.36	43915.47
574.52	44353.15
574.68	44126.12
574.84	44259.53
575.01	44495.92
575.17	43725.89
575.33	44083.99
575.49	43868.66
575.65	44744.02
575.82	44521.67
575.98	44325.07
576.14	44477.20
576.30	44521.67
576.46	43936.54
576.62	44252.51
576.79	44339.11
576.95	44058.24
577.11	43971.64
577.27	44528.69
577.43	44641.04
577.59	44371.88
577.75	44229.10
577.92	44245.49
578.08	44205.70
578.24	43910.79
578.40	44414.01
578.56	44100.37
578.72	44322.72
578.88	44477.20
579.04	44739.34
579.21	44570.82
579.37	44231.44
579.53	44313.36
579.69	44060.58
579.85	44692.53
580.01	44634.02
580.17	44484.22
580.33	44552.10
580.49	44814.24
580.65	44406.98
580.82	44776.79
580.98	44151.87
581.14	43868.66
581.30	44706.57
581.46	44292.30
581.62	44678.49
581.78	44638.70
581.94	45350.22
582.10	44783.81
582.26	44844.66
582.42	44505.29
582.58	44378.90
582.74	44439.75
582.90	44629.34
583.06	44559.12
583.22	44596.57
583.38	44912.54
583.54	44605.93
583.70	44355.49
583.86	44619.97
584.02	44273.57
584.18	44664.44
584.34	44701.89
584.50	44704.23
584.66	44399.96
584.82	44341.45
584.98	44797.85
585.14	44634.02
585.30	44776.79
585.46	44615.29
585.62	44568.48
585.78	44619.97
585.94	44294.64
586.10	44069.95
586.26	44399.96
586.42	44744.02
586.58	44659.76
586.74	44673.81
586.90	44289.96
587.06	44168.25
587.22	44477.20
587.38	44603.59
587.54	44889.13
587.70	44947.65
587.86	44973.39
588.02	45043.61
588.18	44561.46
588.34	44634.02
588.49	44336.77
588.65	44409.32
588.81	44725.30
588.97	44198.68
589.13	44470.18
589.29	44683.17
589.45	44872.75
589.61	45020.20
589.77	45022.54
589.93	44999.14
590.08	44610.61
590.24	44884.45
590.40	45212.13
590.56	44900.84
590.72	44964.03
590.88	45034.25
591.04	44814.24
591.20	45034.25
591.35	44982.76
591.51	45556.19
591.67	45078.72
591.83	45329.16
591.99	44474.86
592.15	44505.29
592.31	44903.18
592.46	44467.84
592.62	44554.44
592.78	45050.63
592.94	45083.40
593.10	44243.15
593.26	44987.44
593.41	44968.71
593.57	44706.57
593.73	44697.21
593.89	45141.91
594.05	44854.03
594.20	44734.66
594.36	45008.50
594.52	44839.98
594.68	44814.24
594.84	45207.45
594.99	45380.65
595.15	44928.92
595.31	45102.12
595.47	45193.40
595.62	44636.36
595.78	45078.72
595.94	45394.69
596.10	45148.93
596.25	45095.10
596.41	45160.64
596.57	45013.18
596.73	44987.44
596.88	44800.19
597.04	45059.99
597.20	45181.70
597.36	45167.66
597.51	45642.79
597.67	45092.76
597.83	45483.63
597.99	45179.36
598.14	44837.64
598.30	44987.44
598.46	44882.11
598.61	44788.49
598.77	44957.01
598.93	44842.32
599.09	44554.44
599.24	45848.75
599.40	45134.89
599.56	45170.00
599.71	44954.67
599.87	45223.83
600.03	44744.02
600.18	44882.11
600.34	44985.10
600.50	44718.28
600.65	44982.76
600.81	45521.08
600.97	45771.52
601.12	45750.45
601.28	45244.90
601.44	45162.98
601.59	45041.27
601.75	45052.97
601.91	44807.22
602.06	44942.97
602.22	45296.39
602.37	45013.18
602.53	45230.85
602.69	45294.05
602.84	44947.65
603.00	45177.02
603.16	45184.04
603.31	44875.09
603.47	45186.38
603.62	45184.04
603.78	45207.45
603.94	44917.22
604.09	44673.81
604.25	44973.39
604.40	45111.49
604.56	45141.91
604.71	44657.42
604.87	44786.15
605.03	44762.75
605.18	45179.36
605.34	45092.76
605.49	44570.82
605.65	44790.83
605.80	44765.09
605.96	45172.34
606.12	45076.38
606.27	45179.36
606.43	44861.05
606.58	45027.23
606.74	44619.97
606.89	44875.09
607.05	44884.45
607.20	44907.86
607.36	45411.07
607.51	44889.13
607.67	45312.77
607.82	44907.86
607.98	44769.77
608.13	44879.77
608.29	44432.73
608.44	44392.94
608.60	44641.04
608.75	44308.68
608.91	44641.04
609.06	44762.75
609.22	44912.54
609.37	44418.69
609.53	44729.98
609.68	44533.37
609.84	44399.96
609.99	44783.81
610.15	44264.21
610.30	44781.47
610.46	44198.68
610.61	44783.81
610.76	44570.82
610.92	44329.75
611.07	44488.90
611.23	44128.46
611.38	44027.82
611.54	44191.65
611.69	44044.20
611.84	44261.87
612.00	44514.65
612.15	44217.40
612.31	44692.53
612.46	44519.33
612.62	44582.52
612.77	44526.35
612.92	44755.72
613.08	44395.28
613.23	44224.42
613.39	43756.32
613.54	44081.65
613.69	43981.01
613.85	44502.95
614.00	44315.70
614.15	44109.74
614.31	44406.98
614.46	44673.81
614.62	44196.34
614.77	44046.54
614.92	43847.60
615.08	44158.89
615.23	43601.84
615.38	44175.27
615.54	43922.49
615.69	43964.62
615.84	43658.01
616.00	43941.22
616.15	43601.84
616.30	44313.36
616.46	43700.14
616.61	43716.53
616.76	43503.54
616.92	43407.58
617.07	43587.80
617.22	44002.07
617.37	43515.24
617.53	43721.21
617.68	44301.66
617.83	44020.80
617.99	44191.65
618.14	43878.02
618.29	43150.12
618.45	42923.08
618.60	43405.23
618.75	43587.80
618.90	43491.83
619.06	43739.93
619.21	43721.21
619.36	44069.95
619.51	43693.12
619.67	42948.83
619.82	43423.96
619.97	43344.38
620.12	43119.69
620.28	42857.55
620.43	43311.61
620.58	43585.46
620.73	43079.90
620.89	42920.74
621.04	43351.40
621.19	43365.45
621.34	42902.02
621.49	42628.18
621.65	42796.70
621.80	43079.90
621.95	42955.85
622.10	43056.50
622.25	42714.78
622.41	42937.13
622.56	42703.07
622.71	42866.91
622.86	42969.90
623.01	42990.96
623.16	43093.94
623.32	42841.17
623.47	42899.68
623.62	43133.73
623.77	42492.43
623.92	42817.76
624.07	42314.55
624.23	42646.90
624.38	42761.59
624.53	42316.89
624.68	42548.60
624.83	42707.76
624.98	42836.48
625.13	42660.94
625.29	42714.78
625.44	42492.43
625.59	42323.91
625.74	42209.22
625.89	41935.38
626.04	42162.41
626.19	42267.73
626.34	42234.97
626.49	42532.22
626.65	41715.37
626.80	42281.78
626.95	42234.97
627.10	42171.77
627.25	41642.81
627.40	41949.42
627.55	41736.43
627.70	41401.74
627.85	41811.33
628.00	42131.98
628.15	42181.13
628.30	41890.91
628.45	42066.45
628.60	41794.95
628.76	42059.43
628.91	42293.48
629.06	41893.25
629.21	41947.08
629.36	41612.38
629.51	41813.67
629.66	41455.57
629.81	41263.64
629.96	41827.71
630.11	41794.95
630.26	41392.37
630.41	41680.26
630.56	41532.81
630.71	41790.27
630.86	41469.61
631.01	41153.64
631.16	41661.54
631.31	41399.40
631.46	40680.85
631.61	41329.18
631.76	41476.63
631.91	41340.88
632.06	41338.54
632.21	41481.31
632.36	41296.41
632.51	41776.22
632.66	41235.56
632.81	41013.21
632.96	41242.58
633.10	40844.69
633.25	40928.95
633.40	41043.63
633.55	41392.37
633.70	41148.96
633.85	40903.20
634.00	41146.62
634.15	40840.01
634.30	40987.46
634.45	40713.62
634.60	41090.44
634.75	40755.75
634.90	40769.79
635.05	40781.49
635.19	40818.94
635.34	40758.09
635.49	40725.32
635.64	40629.36
635.79	40425.73
635.94	40121.46
636.09	40807.24
636.24	40334.45
636.39	40704.26
636.53	40397.65
636.68	40189.34
636.83	40385.94
636.98	40512.33
637.13	40378.92
637.28	40343.81
637.43	41060.02
637.57	40952.35
637.72	40493.61
637.87	40238.49
638.02	40484.25
638.17	40217.43
638.32	40343.81
638.46	40004.44
638.61	39782.09
638.76	39758.68
638.91	40172.96
639.06	39896.77
639.20	40374.24
639.35	40266.58
639.50	40236.15
639.65	40172.96
639.80	40025.50
639.94	39915.50
640.09	39749.32
640.24	40076.99
640.39	40161.25
640.54	39328.02
640.68	39337.38
640.83	39576.12
640.98	39590.16
641.13	39660.38
641.27	39725.91
641.42	39704.85
641.57	39739.96
641.72	39833.58
641.86	39721.23
642.01	39115.03
642.16	39440.37
642.31	38965.24
642.45	39445.05
642.60	39384.19
642.75	39178.23
642.90	39290.57
643.04	38829.49
643.19	38951.20
643.34	39124.40
643.48	39349.09
643.63	39585.48
643.78	39236.74
643.93	39136.10
644.07	39236.74
644.22	39276.53
644.37	39161.84
644.51	38941.83
644.66	39136.10
644.81	39241.42
644.95	39339.72
645.10	39168.87
645.25	39328.02
645.39	39210.99
645.54	39541.01
645.69	38927.79
645.83	38876.30
645.98	38705.44
646.13	39009.71
646.27	39026.09
646.42	38787.36
646.57	38602.46
646.71	38485.43
646.86	38925.45
647.00	38773.31
647.15	38721.82
647.30	38857.57
647.44	38417.55
647.59	38871.62
647.74	38696.08
647.88	38579.05
648.03	38628.20
648.17	38408.19
648.32	38352.02
648.47	38274.78
648.61	38749.91
648.76	38686.71
648.90	38883.32
649.05	38380.10
649.20	38501.81
649.34	38497.13
649.49	38330.95
649.63	38494.79
649.78	38525.22
649.92	38408.19
650.07	38506.49
650.21	38106.26
650.36	38515.86
650.51	37991.58
650.65	38625.86
650.80	38279.46
650.94	38377.76
651.09	38567.35
651.23	38312.23
651.38	37684.97
651.52	38089.88
651.67	38005.62
651.81	37844.12
651.96	37567.94
652.10	37820.72
652.25	37446.23
652.39	37645.18
652.54	38106.26
652.68	38031.36
652.83	37916.68
652.97	38103.92
653.12	37965.83
653.26	37654.54
653.41	37790.29
653.55	37312.82
653.70	37411.12
653.84	37579.64
653.99	37542.19
654.13	37656.88
654.27	37743.48
654.42	37523.47
654.56	37453.25
654.71	37645.18
654.85	37549.21
655.00	37034.30
655.14	37179.41
655.29	37289.42
655.43	37680.28
655.57	36921.95
655.72	37198.13
655.86	37361.97
656.01	36793.22
656.15	37209.84
656.30	37017.91
656.44	37205.16
656.58	36896.20
656.73	36947.70
656.87	36510.02
657.01	36467.89
657.16	36701.94
657.30	36720.66
657.45	36648.11
657.59	36350.86
657.73	36474.91
657.88	36947.70
658.02	36706.62
658.16	36723.01
658.31	36741.73
658.45	37181.75
658.60	36715.98
658.74	36594.28
658.88	36739.39
659.03	36589.59
659.17	36315.75
659.31	36369.58
659.46	36409.37
659.60	36495.97
659.74	36495.97
659.89	35948.29
660.03	35828.92
660.17	36507.68
660.32	35988.08
660.46	36662.15
660.60	36257.24
660.74	36084.04
660.89	36432.78
661.03	35461.46
661.17	35707.21
661.32	35299.96
661.46	35672.10
661.60	35314.00
661.74	35814.88
661.89	35866.37
662.03	35426.35
662.17	35445.07
662.31	35592.53
662.46	35473.16
662.60	35494.22
662.74	35367.84
662.88	35365.49
663.03	35550.40
663.17	35346.77
663.31	35201.66
663.45	35592.53
663.60	35091.65
663.74	34735.89
663.88	34780.36
664.02	35101.01
664.17	35091.65
664.31	34644.61
664.45	34405.88
664.59	35035.48
664.73	34675.04
664.88	35005.05
665.02	34316.93
665.16	34684.40
665.30	34532.26
665.44	34656.31
665.59	34401.19
665.73	34113.31
665.87	34333.32
666.01	34087.56
666.15	34010.32
666.29	34408.22
666.44	34246.72
666.58	34066.50
666.72	34139.05
666.86	34274.80
667.00	34225.65
667.14	33703.71
667.28	34244.38
667.43	33350.29
667.57	34101.61
667.71	33862.87
667.85	33638.18
667.99	33600.73
668.13	33153.69
668.27	33853.51
668.41	33701.37
668.56	33345.61
668.70	33177.09
668.84	33198.16
668.98	33256.67
669.12	33457.96
669.26	33275.40
669.40	32964.10
669.54	32732.39
669.68	32959.42
669.82	32622.39
669.96	32924.32
670.10	32325.14
670.25	32765.16
670.39	32891.55
670.53	32751.12
670.67	32802.61
670.81	32325.14
670.95	32676.22
671.09	32680.90
671.23	32570.90
671.37	32610.68
671.51	32397.70
671.65	32163.64
671.79	31927.25
671.93	31894.48
672.07	32275.99
672.21	31943.63
672.35	32011.51
672.49	31873.42
672.63	31842.99
672.77	31559.78
672.91	31482.55
673.05	31295.30
673.19	31456.80
673.33	31538.72
673.47	31594.89
673.61	31131.47
673.75	30972.31
673.89	30991.03
674.03	30745.28
674.17	30998.06
674.31	30782.73
674.45	30764.00
674.59	31075.29
674.73	30913.80
674.87	30817.83
675.01	30881.03
675.15	30630.59
675.29	31021.46
675.43	30735.92
675.56	30508.88
675.70	30239.72
675.84	30122.69
675.98	29706.08
676.12	30195.25
676.26	29895.66
676.40	29909.71
676.54	29483.73
676.68	29387.77
676.82	29266.06
676.96	29214.57
677.10	29551.60
677.23	29745.87
677.37	29277.76
677.51	29010.94
677.65	29277.76
677.79	29149.03
677.93	29034.35
678.07	29249.67
678.21	28727.74
678.34	28905.62
678.48	28542.83
678.62	28814.34
678.76	28336.87
678.90	28276.01
679.04	28379.00
679.18	28184.73
679.31	28198.77
679.45	27866.42
679.59	27782.16
679.73	27826.63
679.87	28177.71
680.00	27615.98
680.14	27627.68
680.28	27627.68
680.42	27639.39
680.56	27190.00
680.70	27225.11
680.83	27138.51
680.97	26834.24
681.11	26920.84
681.25	26754.66
681.39	27030.85
681.52	26991.06
681.66	27150.21
681.80	26649.34
681.94	26588.49
682.07	26267.83
682.21	25933.14
682.35	26370.82
682.49	26471.46
682.62	26101.65
682.76	25919.09
682.90	26057.18
683.04	25813.77
683.17	26106.34
683.31	25612.48
683.45	25593.76
683.59	25553.97
683.72	25373.75
683.86	25631.21
684.00	25322.26
684.13	25446.30
684.27	25535.24
684.41	25003.94
684.55	25036.71
684.68	25085.86
684.82	24566.26
684.96	24409.45
685.09	24535.84
685.23	24673.93
685.37	24662.22
685.50	24694.99
685.64	24521.79
685.78	24240.93
685.91	24280.72
686.05	24294.76
686.19	23985.81
686.32	24018.58
686.46	23559.83
686.60	23583.24
686.73	23683.88
686.87	23484.94
687.01	23276.63
687.14	23168.96
687.28	23094.07
687.42	22841.29
687.55	22801.50
687.69	22876.40
687.82	22986.40
687.96	22958.31
688.10	22506.59
688.23	22747.67
688.37	22370.84
688.50	22663.41
688.64	21879.33
688.78	22239.77
688.91	21994.01
689.05	22267.86
689.18	22064.23
689.32	21610.17
689.46	22003.38
689.59	22155.51
689.73	21724.85
689.86	21830.18
690.00	21900.39
690.13	21696.77
690.27	21446.33
690.41	21254.40
690.54	21343.35
690.68	20926.73
690.81	20755.87
690.95	20776.94
691.08	21139.72
691.22	20798.00
691.35	21050.78
691.49	20737.15
691.62	20973.54
691.76	20872.90
691.89	20849.49
692.03	20362.66
692.16	20802.68
692.30	20374.36
692.43	20360.32
692.57	20322.87
692.70	20128.61
692.84	20039.67
692.97	19709.65
693.11	19903.92
693.24	19433.47
693.38	19520.07
693.51	19550.49
693.65	19590.28
693.78	19676.88
693.92	19887.53
694.05	19222.82
694.19	18956.00
694.32	19295.38
694.45	19016.85
694.59	19143.24
694.72	18661.09
694.86	18766.42
694.99	18881.10
695.13	19026.21
695.26	18717.26
695.39	18319.37
695.53	18487.89
695.66	18408.31
695.80	18354.48
695.93	18200.01
696.07	17956.59
696.20	18104.04
696.33	18401.29
696.47	17820.84
696.60	17947.23
696.73	17806.80
696.87	17631.26
697.00	17565.72
697.14	17596.15
697.27	17692.11
697.40	17661.68
697.54	17350.39
697.67	17137.40
697.80	17493.16
697.94	17081.23
698.07	16816.75
698.21	16833.13
698.34	17039.10
698.47	16786.32
698.61	16720.79
698.74	16451.63
698.87	16805.05
699.01	16187.14
699.14	16173.10
699.27	16175.44
699.40	16456.31
699.54	15983.52
699.67	15786.91
699.80	15772.87
699.94	15917.98
700.07	16130.97
700.20	15871.17
700.34	15651.16
700.47	15784.57
700.60	15829.04
700.73	15932.03
700.87	15824.36
701.00	15492.01
701.13	15461.58
701.26	15548.18
701.40	15171.35
701.53	15171.35
701.66	15337.53
701.79	15014.54
701.93	14970.07
702.06	14810.91
702.19	14677.50
702.32	14738.35
702.46	14850.70
702.59	14911.55
702.72	14581.54
702.85	14799.21
702.99	14640.05
703.12	14712.61
703.25	14300.67
703.38	14326.42
703.51	14504.30
703.65	14394.29
703.78	14150.88
703.91	14155.56
704.04	14214.07
704.17	14010.45
704.31	14249.18
704.44	13846.61
704.57	13568.09
704.70	13626.60
704.83	13715.54
704.96	13916.83
705.10	13825.54
705.23	13799.80
>>>>>End Processed Spectral Data<<<<<
