SpectraSuite Data File
++++++++++++++++++++++++++++++++++++
Date: Fri Oct 25 11:34:03 EDT 2013
User: price-jones
Dark Spectrum Present: No
Reference Spectrum Present: No
Number of Sampled Component Spectra: 1
Spectrometers: USB2+H05261
Integration Time (usec): 100000 (USB2+H05261)
Spectra Averaged: 1 (USB2+H05261)
Boxcar Smoothing: 0 (USB2+H05261)
Correct for Electrical Dark: No (USB2+H05261)
Strobe/Lamp Enabled: No (USB2+H05261)
Correct for Detector Non-linearity: No (USB2+H05261)
Correct for Stray Light: No (USB2+H05261)
Number of Pixels in Processed Spectrum: 2048
>>>>>Begin Processed Spectral Data<<<<<
365.73	325.33
365.92	325.33
366.12	325.33
366.32	224.69
366.52	189.58
366.72	227.03
366.91	145.11
367.11	201.29
367.31	147.45
367.51	152.13
367.70	161.50
367.90	142.77
368.10	182.56
368.30	182.56
368.49	191.92
368.69	236.39
368.89	182.56
369.09	201.29
369.28	163.84
369.48	217.67
369.68	222.35
369.87	236.39
370.07	208.31
370.27	266.82
370.47	367.46
370.66	482.15
370.86	496.19
371.06	482.15
371.25	528.96
371.45	594.50
371.65	531.30
371.84	526.62
372.04	566.41
372.24	557.05
372.44	617.90
372.63	550.03
372.83	627.26
373.03	545.34
373.22	545.34
373.42	664.71
373.62	655.35
373.81	603.86
374.01	650.67
374.21	662.37
374.40	688.12
374.60	603.86
374.79	641.31
374.99	603.86
375.19	650.67
375.38	606.20
375.58	624.92
375.78	688.12
375.97	669.39
376.17	755.99
376.37	681.10
376.56	671.73
376.76	657.69
376.95	709.18
377.15	634.29
377.35	669.39
377.54	699.82
377.74	643.65
377.93	636.63
378.13	681.10
378.33	739.61
378.52	713.86
378.72	697.48
378.91	734.93
379.11	697.48
379.31	751.31
379.50	636.63
379.70	720.88
379.89	653.01
380.09	758.33
380.28	730.25
380.48	690.46
380.68	695.14
380.87	676.41
381.07	732.59
381.26	816.85
381.46	800.46
381.65	655.35
381.85	718.54
382.04	779.40
382.24	737.27
382.43	760.67
382.63	746.63
382.83	805.14
383.02	774.72
383.22	826.21
383.41	795.78
383.61	851.96
383.80	837.91
384.00	800.46
384.19	767.70
384.39	882.38
384.58	873.02
384.78	777.06
384.97	819.19
385.17	830.89
385.36	772.38
385.56	844.93
385.75	781.74
385.95	777.06
386.14	868.34
386.34	875.36
386.53	821.53
386.72	837.91
386.92	943.24
387.11	842.59
387.31	908.13
387.50	856.64
387.70	826.21
387.89	821.53
388.09	877.70
388.28	858.98
388.48	936.21
388.67	985.37
388.86	1008.77
389.06	887.06
389.25	929.19
389.45	919.83
389.64	1008.77
389.84	968.98
390.03	889.40
390.22	983.02
390.42	971.32
390.61	947.92
390.81	947.92
391.00	952.60
391.19	940.90
391.39	954.94
391.58	961.96
391.78	959.62
391.97	1015.79
392.16	999.41
392.36	1018.13
392.55	1062.60
392.75	1114.10
392.94	983.02
393.13	1043.88
393.33	1025.15
393.52	1001.75
393.71	1142.18
393.91	1071.97
394.10	954.94
394.29	1123.46
394.49	1097.71
394.68	1132.82
394.88	1116.44
395.07	1156.22
395.26	1139.84
395.46	1186.65
395.65	1125.80
395.84	1205.38
396.04	1160.91
396.23	1095.37
396.42	1132.82
396.62	1203.04
396.81	1146.86
397.00	1139.84
397.19	1207.72
397.39	1095.37
397.58	1142.18
397.77	1284.95
397.97	1284.95
398.16	1254.53
398.35	1275.59
398.55	1263.89
398.74	1270.91
398.93	1364.53
399.12	1341.13
399.32	1228.78
399.51	1296.66
399.70	1453.47
399.90	1324.74
400.09	1352.83
400.28	1313.04
400.47	1320.06
400.67	1516.67
400.86	1359.85
401.05	1416.02
401.24	1432.41
401.44	1343.47
401.63	1425.39
401.82	1500.28
402.01	1385.60
402.21	1458.15
402.40	1462.83
402.59	1479.22
402.78	1486.24
402.97	1441.77
403.17	1423.05
403.36	1451.13
403.55	1533.05
403.74	1584.54
403.93	1575.18
404.13	1488.58
404.32	1502.62
404.51	1708.59
404.70	1563.48
404.89	1535.39
405.09	1577.52
405.28	1659.44
405.47	1675.82
405.66	1673.48
405.85	1717.95
406.05	1638.38
406.24	1708.59
406.43	1657.10
406.62	1797.53
406.81	1753.06
407.00	1673.48
407.20	1746.04
407.39	1783.49
407.58	1792.85
407.77	1783.49
407.96	1823.28
408.15	1888.81
408.34	1790.51
408.54	1820.94
408.73	1783.49
408.92	1944.99
409.11	1853.70
409.30	1977.75
409.49	2019.88
409.68	1820.94
409.87	1977.75
410.07	1970.73
410.26	1980.09
410.45	1987.11
410.64	2054.99
410.83	2054.99
411.02	2099.46
411.21	2129.89
411.40	2099.46
411.59	2242.23
411.78	2153.29
411.98	2127.55
412.17	2265.64
412.36	2225.85
412.55	2150.95
412.74	2413.09
412.93	2396.71
413.12	2186.06
413.31	2331.17
413.50	2270.32
413.69	2342.88
413.88	2464.58
414.07	2373.30
414.26	2450.54
414.45	2434.16
414.64	2597.99
414.83	2539.48
415.02	2633.10
415.22	2487.99
415.41	2663.53
415.60	2644.81
415.79	2553.52
415.98	2768.85
416.17	2693.96
416.36	2523.10
416.55	2724.38
416.74	2796.94
416.93	2593.31
417.12	2677.57
417.31	2775.88
417.50	2841.41
417.69	3030.99
417.88	2916.31
418.07	2874.18
418.26	2846.09
418.45	2965.46
418.64	2918.65
418.83	2995.89
419.02	2986.52
419.21	3119.93
419.39	2995.89
419.58	3068.44
419.77	3005.25
419.96	3110.57
420.15	3133.98
420.34	3073.12
420.53	3286.11
420.72	3243.98
420.91	3204.19
421.10	3243.98
421.29	3232.28
421.48	3190.15
421.67	3267.39
421.86	3201.85
422.05	3220.58
422.24	3178.45
422.43	3236.96
422.61	3400.80
422.80	3283.77
422.99	3260.37
423.18	3138.66
423.37	3431.23
423.56	3356.33
423.75	3208.87
423.94	3211.22
424.13	3077.80
424.32	3363.35
424.50	3386.76
424.69	3487.40
424.88	3370.37
425.07	3403.14
425.26	3344.63
425.45	3384.41
425.64	3171.43
425.83	3365.69
426.01	3403.14
426.20	3389.10
426.39	3496.76
426.58	3328.24
426.77	3515.48
426.96	3379.73
427.15	3557.61
427.33	3529.53
427.52	3438.25
427.71	3475.70
427.90	3583.36
428.09	3597.40
428.28	3569.32
428.46	3576.34
428.65	3695.71
428.84	3777.62
429.03	3789.33
429.22	3496.76
429.40	3620.81
429.59	3754.22
429.78	3524.85
429.97	3669.96
430.16	3798.69
430.34	3810.39
430.53	3850.18
430.72	3826.78
430.91	3901.67
431.10	3880.61
431.28	3815.07
431.47	3838.48
431.66	3969.55
431.85	3824.44
432.03	3810.39
432.22	4009.34
432.41	3964.87
432.60	4107.64
432.79	4119.34
432.97	3915.72
433.16	3978.91
433.35	3936.78
433.54	4044.45
433.72	4081.89
433.91	4032.74
434.10	4159.13
434.28	4091.26
434.47	4131.05
434.66	4152.11
434.85	4255.09
435.03	4109.98
435.22	4273.82
435.41	4177.86
435.59	4346.37
435.78	4360.42
435.97	4362.76
436.16	4353.40
436.34	4327.65
436.53	4397.87
436.72	4629.58
436.90	4437.66
437.09	4526.60
437.28	4255.09
437.46	4414.25
437.65	4355.74
437.84	4491.49
438.02	4470.42
438.21	4727.88
438.40	4470.42
438.58	4770.01
438.77	4662.35
438.96	4692.77
439.14	4837.89
439.33	4833.21
439.52	4805.12
439.70	4802.78
439.89	4938.53
440.08	5095.35
440.26	4891.72
440.45	5008.75
440.63	5097.69
440.82	5085.98
441.01	4983.00
441.19	5097.69
441.38	5334.08
441.57	5041.51
441.75	5254.50
441.94	5338.76
442.12	5322.38
442.31	5392.59
442.50	5266.21
442.68	5261.52
442.87	5254.50
443.05	5217.05
443.24	5490.90
443.43	5446.43
443.61	5462.81
443.80	5509.62
443.98	5502.60
444.17	5184.29
444.35	5563.45
444.54	5659.42
444.73	5535.37
444.91	5441.75
445.10	5556.43
445.28	5488.56
445.47	5565.79
445.65	5516.64
445.84	5474.51
446.02	5734.31
446.21	5614.95
446.39	5600.90
446.58	5394.93
446.77	5631.33
446.95	5458.13
447.14	5689.84
447.32	5699.20
447.51	5549.41
447.69	5820.91
447.88	5654.73
448.06	5753.04
448.25	5717.93
448.43	5806.87
448.62	5636.01
448.80	5720.27
448.99	5769.42
449.17	5645.37
449.36	5645.37
449.54	5980.07
449.73	6010.50
449.91	6001.13
450.10	5891.13
450.28	5949.64
450.46	5961.34
450.65	6036.24
450.83	6076.03
451.02	6092.41
451.20	6040.92
451.39	6134.54
451.57	6183.70
451.76	5977.73
451.94	6010.50
452.13	6251.57
452.31	6188.38
452.49	6129.86
452.68	6111.14
452.86	6345.19
453.05	6258.59
453.23	6211.78
453.42	6300.72
453.60	6127.52
453.78	6333.49
453.97	6153.27
454.15	6204.76
454.34	6242.21
454.52	6363.92
454.70	6476.26
454.89	6387.32
455.07	6455.20
455.26	6448.18
455.44	6530.09
455.62	6509.03
455.81	6537.12
455.99	6534.78
456.17	6668.19
456.36	6649.46
456.54	6813.30
456.73	6825.00
456.91	6953.73
457.09	6913.94
457.28	6890.54
457.46	6881.18
457.64	6979.48
457.83	6810.96
458.01	6874.15
458.19	7138.63
458.38	7007.56
458.56	7007.56
458.74	6988.84
458.93	7136.29
459.11	7220.55
459.29	7056.72
459.48	7094.16
459.66	7243.96
459.84	7164.38
460.03	7274.38
460.21	7110.55
460.39	7272.04
460.57	7288.43
460.76	7262.68
460.94	7222.89
461.12	7286.09
461.31	7358.64
461.49	7393.75
461.67	7290.77
461.85	7302.47
462.04	7300.13
462.22	7887.61
462.40	7723.77
462.59	7487.37
462.77	7552.91
462.95	7709.72
463.13	7557.59
463.32	7693.34
463.50	7826.75
463.68	7730.79
463.86	8028.04
464.05	7728.45
464.23	7803.35
464.41	7749.51
464.59	7810.37
464.78	8011.65
464.96	7871.22
465.14	7695.68
465.32	7901.65
465.50	7929.74
465.69	8013.99
465.87	7995.27
466.05	8011.65
466.23	8025.70
466.41	7899.31
466.60	8060.80
466.78	8102.93
466.96	7997.61
467.14	7925.05
467.32	7925.05
467.51	8351.03
467.69	8124.00
467.87	8039.74
468.05	8276.13
468.23	8147.40
468.41	8166.13
468.60	8428.27
468.78	8416.57
468.96	8407.20
469.14	8573.38
469.32	8428.27
469.50	8444.65
469.69	8505.51
469.87	8500.83
470.05	8437.63
470.23	8594.45
470.41	8589.77
470.59	8650.62
470.77	8596.79
470.95	8723.18
471.14	8854.25
471.32	8634.24
471.50	8798.07
471.68	8908.08
471.86	8828.50
472.04	9074.26
472.22	9231.07
472.40	9032.13
472.58	9210.01
472.77	9083.62
472.95	9109.36
473.13	9565.77
473.31	9188.94
473.49	9172.56
473.67	9109.36
473.85	9195.96
474.03	9760.03
474.21	9525.98
474.39	9645.35
474.57	9556.41
474.75	9638.33
474.93	9881.74
475.12	9727.27
475.30	9839.61
475.48	10024.51
475.66	10047.92
475.84	9916.85
476.02	9982.38
476.20	10104.09
476.38	10225.80
476.56	10265.59
476.74	10494.96
476.92	10253.89
477.10	10167.29
477.28	10534.75
477.46	10452.83
477.64	10377.94
477.82	10677.52
478.00	10857.75
478.18	10775.83
478.36	10906.90
478.54	10993.50
478.72	11075.42
478.90	11147.97
479.08	11243.93
479.26	11541.18
479.44	11585.65
479.62	11314.15
479.80	11618.42
479.98	11695.66
480.16	11887.58
480.34	11882.90
480.52	12025.67
480.70	12107.59
480.88	11962.48
481.06	12381.43
481.24	12285.47
481.41	12430.59
481.59	12376.75
481.77	12451.65
481.95	12549.95
482.13	12699.75
482.31	12664.64
482.49	13165.51
482.67	12861.24
482.85	13212.32
483.03	13500.21
483.21	13518.93
483.39	13284.88
483.57	13390.20
483.74	13825.54
483.92	13713.20
484.10	13760.01
484.28	13816.18
484.46	14380.25
484.64	14504.30
484.82	13947.25
485.00	14347.48
485.18	14530.05
485.35	14993.47
485.53	14864.74
485.71	14911.55
485.89	15206.46
486.07	14998.15
486.25	15115.18
486.43	15253.27
486.61	15391.36
486.78	15499.03
486.96	15559.88
487.14	15843.09
487.32	15709.68
487.50	15932.03
487.68	16182.46
487.85	16159.06
488.03	16411.84
488.21	16636.53
488.39	16622.48
488.57	17013.35
488.75	16849.52
488.92	17212.30
489.10	17284.86
489.28	17160.81
489.46	17422.95
489.64	17488.48
489.81	17804.46
489.99	17905.10
490.17	17872.33
490.35	17977.65
490.53	18026.81
490.70	18136.81
490.88	18031.49
491.06	18441.08
491.24	18427.04
491.41	18857.70
491.59	18916.21
491.77	18703.22
491.95	19028.56
492.13	19147.92
492.30	18995.79
492.48	19311.76
492.66	19594.96
492.84	19236.86
493.01	19707.31
493.19	19777.53
493.37	19932.00
493.54	20046.69
493.72	20259.68
493.90	20297.13
494.08	20407.13
494.25	20519.48
494.43	20819.07
494.61	20610.76
494.79	21013.33
494.96	20868.22
495.14	20889.28
495.32	21266.11
495.49	21736.56
495.67	21249.72
495.85	21809.11
496.02	21671.02
496.20	21919.12
496.38	21937.84
496.55	21809.11
496.73	22567.45
496.91	22258.49
497.09	22272.54
497.26	22515.95
497.44	22429.35
497.62	22963.00
497.79	23101.09
497.97	22923.21
498.14	23140.88
498.32	23414.72
498.50	23363.23
498.67	23623.03
498.85	23901.55
499.03	23384.29
499.20	23473.23
499.38	23978.79
499.56	23847.72
499.73	23913.25
499.91	24222.20
500.08	24091.13
500.26	24039.64
500.44	24273.70
500.61	24315.83
500.79	24294.76
500.97	24379.02
501.14	24933.73
501.32	24882.24
501.49	24596.69
501.67	24790.95
501.84	25083.52
502.02	25113.95
502.20	25013.31
502.37	25219.27
502.55	25195.87
502.72	25362.04
502.90	25743.55
503.07	25303.53
503.25	25834.83
503.43	25722.49
503.60	26054.84
503.78	25689.72
503.95	25781.00
504.13	25687.38
504.30	26553.38
504.48	26003.35
504.65	26417.63
504.83	26429.33
505.01	26490.18
505.18	26487.84
505.36	26829.56
505.53	26419.97
505.71	26876.37
505.88	27168.94
506.06	27028.51
506.23	27363.20
506.41	26913.82
506.58	27314.05
506.76	27307.03
506.93	27452.14
507.11	27323.41
507.28	27632.36
507.46	28011.53
507.63	27613.64
507.81	27969.40
507.98	27899.19
508.16	28086.43
508.33	28039.62
508.50	28140.26
508.68	28407.08
508.85	28486.66
509.03	27974.08
509.20	28442.19
509.38	28755.82
509.55	29060.09
509.73	28437.51
509.90	28835.40
510.08	28936.04
510.25	28591.98
510.42	29022.64
510.60	28931.36
510.77	29453.30
510.95	29415.85
511.12	29050.73
511.30	29200.52
511.47	29446.28
511.64	29411.17
511.82	29811.40
511.99	29888.64
512.17	29930.77
512.34	29795.02
512.51	29914.39
512.69	30288.87
512.86	30333.34
513.04	30314.62
513.21	30216.32
513.38	30319.30
513.56	30728.89
513.73	30691.44
513.90	30852.94
514.08	30689.10
514.25	30665.70
514.43	30810.81
514.60	30911.46
514.77	30768.68
514.95	31096.36
515.12	31049.55
515.29	31431.05
515.47	31482.55
515.64	31555.10
515.81	31353.82
515.99	31426.37
516.16	31835.97
516.33	31880.44
516.51	31983.42
516.68	31758.73
516.85	31716.60
517.03	31777.45
517.20	31903.84
517.37	32016.19
517.54	31964.70
517.72	32488.98
517.89	32598.98
518.06	32163.64
518.24	32341.52
518.41	32308.76
518.58	32341.52
518.75	32528.77
518.93	32765.16
519.10	32613.02
519.27	32912.61
519.45	32762.82
519.62	32811.97
519.79	33179.43
519.96	33137.30
520.14	33001.55
520.31	33170.07
520.48	33329.23
520.65	33455.62
520.83	34066.50
521.00	33776.27
521.17	33333.91
521.34	33970.54
521.52	33968.19
521.69	34066.50
521.86	34120.33
522.03	34183.52
522.20	34412.90
522.38	34745.25
522.55	34281.83
522.72	34319.28
522.89	34033.73
523.07	34686.74
523.24	34670.36
523.41	34632.91
523.58	34244.38
523.75	34768.66
523.92	34841.21
524.10	34944.20
524.27	34766.32
524.44	34916.11
524.61	34951.22
524.78	35414.65
524.96	35096.33
525.13	35033.14
525.30	35360.81
525.47	35526.99
525.64	35754.02
525.81	35700.19
525.98	35885.09
526.16	35295.28
526.33	35611.25
526.50	35938.93
526.67	35599.55
526.84	35978.72
527.01	35866.37
527.18	36456.18
527.36	36325.11
527.53	36074.68
527.70	36261.92
527.87	36697.26
528.04	36259.58
528.21	36320.43
528.38	36676.19
528.55	36598.96
528.72	36488.95
528.89	36589.59
529.07	36540.44
529.24	36435.12
529.41	36470.23
529.58	36830.67
529.75	36758.11
529.92	37053.02
530.09	36601.30
530.26	37151.32
530.43	37123.24
530.60	36959.40
530.77	37368.99
530.94	37249.63
531.11	37017.91
531.28	37240.26
531.46	37457.93
531.63	37446.23
531.80	37574.96
531.97	37303.46
532.14	37799.65
532.31	37708.37
532.48	37680.28
532.65	38220.95
532.82	37539.85
532.99	37764.54
533.16	38129.67
533.33	38178.82
533.50	38483.09
533.67	37801.99
533.84	37968.17
534.01	38550.96
534.18	38239.67
534.35	38483.09
534.52	38602.46
534.69	38637.56
534.86	38279.46
535.03	38127.33
535.20	38951.20
535.37	38866.94
535.54	38422.23
535.71	38733.53
535.88	39009.71
536.05	38614.16
536.22	39269.51
536.38	38689.06
536.55	39096.31
536.72	38843.53
536.89	38712.46
537.06	39063.54
537.23	39213.34
537.40	39000.35
537.57	38834.17
537.74	39093.97
537.91	39606.55
538.08	39026.09
538.25	39028.43
538.42	39388.88
538.59	39594.84
538.75	39131.42
538.92	39887.41
539.09	40037.20
539.26	39732.93
539.43	39826.56
539.60	39648.68
539.77	39749.32
539.94	39845.28
540.11	40079.33
540.28	40250.19
540.44	39995.07
540.61	39761.02
540.78	39735.27
540.95	40046.57
541.12	39920.18
541.29	40172.96
541.46	40355.52
541.62	40100.40
541.79	40343.81
541.96	40046.57
542.13	39831.24
542.30	40390.62
542.47	40622.34
542.63	40512.33
542.80	40900.86
542.97	40870.43
543.14	41060.02
543.31	41041.29
543.48	40912.56
543.64	41647.49
543.81	41315.14
543.98	41422.80
544.15	41090.44
544.32	41256.62
544.48	41556.21
544.65	41448.55
544.82	41439.18
544.99	41626.43
545.16	41347.90
545.32	41273.01
545.49	41804.31
545.66	41804.31
545.83	41729.41
546.00	41867.50
546.16	41876.86
546.33	41617.07
546.50	41518.76
546.67	42375.40
546.83	41371.31
547.00	41462.59
547.17	42129.64
547.34	41408.76
547.50	41748.14
547.67	42239.65
547.84	42197.52
548.00	42251.35
548.17	42883.30
548.34	42436.25
548.51	42862.23
548.67	42483.06
548.84	42384.76
549.01	41998.57
549.18	42258.37
549.34	42721.80
549.51	42635.20
549.68	42625.84
549.84	42293.48
550.01	43077.56
550.18	42614.13
550.34	42820.10
550.51	43203.95
550.68	42773.29
550.84	42777.97
551.01	42721.80
551.18	43093.94
551.34	42927.77
551.51	42958.19
551.68	42850.53
551.84	42995.64
552.01	43040.11
552.18	43159.48
552.34	43023.73
552.51	43072.88
552.68	42719.46
552.84	43044.79
553.01	43372.47
553.18	43220.33
553.34	43548.01
553.51	43084.58
553.67	43592.48
553.84	43868.66
554.01	43445.02
554.17	43571.41
554.34	43931.86
554.51	43786.74
554.67	43997.39
554.84	43861.64
555.00	43625.25
555.17	43662.69
555.33	43845.26
555.50	43831.21
555.67	43990.37
555.83	43498.86
556.00	44133.14
556.16	44287.62
556.33	43981.01
556.50	43950.58
556.66	44088.67
556.83	43903.77
556.99	43791.42
557.16	44465.50
557.32	44540.39
557.49	44533.37
557.65	43789.08
557.82	44360.17
557.98	44261.87
558.15	44254.85
558.32	44397.62
558.48	44390.60
558.65	44507.63
558.81	44739.34
558.98	44271.23
559.14	44156.55
559.31	44058.24
559.47	44406.98
559.64	44465.50
559.80	44533.37
559.97	44854.03
560.13	44371.88
560.30	44664.44
560.46	44699.55
560.63	44760.40
560.79	44666.78
560.96	45013.18
561.12	44720.62
561.29	44484.22
561.45	44423.37
561.61	44851.69
561.78	44669.12
561.94	44978.07
562.11	45076.38
562.27	45081.06
562.44	44767.43
562.60	45162.98
562.77	44900.84
562.93	44921.90
563.10	45408.73
563.26	45029.57
563.42	45111.49
563.59	44692.53
563.75	44818.92
563.92	45071.70
564.08	45308.09
564.24	45216.81
564.41	44985.10
564.57	45432.14
564.74	45460.23
564.90	45291.71
565.07	45174.68
565.23	45214.47
565.39	45607.68
565.56	45432.14
565.72	45436.82
565.88	45191.06
566.05	45537.46
566.21	45563.21
566.38	45462.57
566.54	45357.24
566.70	45801.94
566.87	45675.55
567.03	45532.78
567.19	45757.47
567.36	45392.35
567.52	45579.59
567.68	46033.66
567.85	45539.80
568.01	45853.44
568.17	45560.87
568.34	45930.67
568.50	45368.94
568.66	44900.84
568.83	45514.06
568.99	45752.79
569.15	45532.78
569.32	45820.67
569.48	45312.77
569.64	45734.07
569.81	45970.46
569.97	46047.70
570.13	45951.74
570.30	45631.08
570.46	45820.67
570.62	46106.21
570.78	46078.13
570.95	45626.40
571.11	45844.07
571.27	45867.48
571.43	46038.34
571.60	45743.43
571.76	45745.77
571.92	45925.99
572.09	46024.29
572.25	45591.30
572.41	45446.18
572.57	45968.12
572.74	46394.10
572.90	45722.37
573.06	46075.79
573.22	45811.31
573.38	45918.97
573.55	46110.89
573.71	46178.77
573.87	46478.36
574.03	46295.80
574.20	46206.86
574.36	46422.19
574.52	46157.70
574.68	46057.06
574.84	46157.70
575.01	46457.29
575.17	46302.82
575.33	46244.30
575.49	46017.27
575.65	46220.90
575.82	46873.91
575.98	46050.04
576.14	46272.39
576.30	46506.44
576.46	46342.61
576.62	46115.58
576.79	46244.30
576.95	45769.18
577.11	45741.09
577.27	46033.66
577.43	46309.84
577.59	46176.43
577.75	46230.26
577.92	45989.19
578.08	46017.27
578.24	46614.11
578.40	46480.70
578.56	46256.01
578.72	46263.03
578.88	46431.55
579.04	46153.02
579.21	46454.95
579.37	46176.43
579.53	46113.23
579.69	46040.68
579.85	45811.31
580.01	46459.63
580.17	46370.69
580.33	46347.29
580.49	46204.52
580.65	46445.59
580.82	46054.72
580.98	46354.31
581.14	46085.15
581.30	46581.34
581.46	46284.09
581.62	46384.74
581.78	46347.29
581.94	46651.56
582.10	46113.23
582.26	46452.61
582.42	46658.58
582.58	46038.34
582.74	46429.21
582.90	46398.78
583.06	46508.79
583.22	46337.93
583.38	45846.41
583.54	46684.33
583.70	46728.80
583.86	46794.33
584.02	46401.12
584.18	46686.67
584.34	46630.49
584.50	46635.17
584.66	46644.54
584.82	46576.66
584.98	47030.72
585.14	46887.95
585.30	46415.16
585.46	46358.99
585.62	46497.08
585.78	46401.12
585.94	46256.01
586.10	46408.14
586.26	46291.12
586.42	46469.00
586.58	46532.19
586.74	46017.27
586.90	46230.26
587.06	46417.50
587.22	46944.12
587.38	46351.97
587.54	47140.73
587.70	46880.93
587.86	46588.36
588.02	46864.55
588.18	46607.09
588.34	46211.54
588.49	46752.20
588.65	46284.09
588.81	47026.04
588.97	46822.42
589.13	46752.20
589.29	46630.49
589.45	46951.15
589.61	46791.99
589.77	46445.59
589.93	46691.35
590.08	46885.61
590.24	46974.55
590.40	47449.68
590.56	47313.93
590.72	47379.46
590.88	46738.16
591.04	47098.60
591.20	47159.45
591.35	46986.25
591.51	47409.89
591.67	47136.05
591.83	47232.01
591.99	46892.63
592.15	47267.12
592.31	46981.57
592.46	47154.77
592.62	46920.72
592.78	47288.18
592.94	47164.14
593.10	47381.80
593.26	47526.92
593.41	47388.83
593.57	47412.23
593.73	47295.21
593.89	47672.03
594.05	47234.35
594.20	47440.32
594.36	47702.46
594.52	47342.02
594.68	47234.35
594.84	46740.50
594.99	47283.50
595.15	47227.33
595.31	46986.25
595.47	46972.21
595.62	47456.70
595.78	47072.85
595.94	47316.27
596.10	47477.77
596.25	47344.36
596.41	47358.40
596.57	47047.11
596.73	47442.66
596.88	47260.10
597.04	47393.51
597.20	47327.97
597.36	47360.74
597.51	47456.70
597.67	47164.14
597.83	47311.59
597.99	47494.15
598.14	47196.90
598.30	47555.00
598.46	47421.59
598.61	47704.80
598.77	47437.98
598.93	47627.56
599.09	47313.93
599.24	47782.04
599.40	47854.59
599.56	47426.28
599.71	47870.98
599.87	47676.71
600.03	47681.39
600.18	47695.44
600.34	47693.10
600.50	47260.10
600.65	47789.06
600.81	47545.64
600.97	47547.98
601.12	47503.51
601.28	47206.26
601.44	47480.11
601.59	47393.51
601.75	47281.16
601.91	47585.43
602.06	47578.41
602.22	47695.44
602.37	47512.88
602.53	47583.09
602.69	47646.29
602.84	47636.92
603.00	47580.75
603.16	47419.25
603.31	47505.85
603.47	47494.15
603.62	47749.27
603.78	47683.73
603.94	47290.52
604.09	47426.28
604.25	47367.76
604.40	47178.18
604.56	47433.30
604.71	48011.41
604.87	47213.29
605.03	47058.81
605.18	47585.43
605.34	47313.93
605.49	47566.71
605.65	47339.68
605.80	46925.40
605.96	47487.13
606.12	47175.84
606.27	47515.22
606.43	47042.43
606.58	47150.09
606.74	47629.90
606.89	47452.02
607.05	47213.29
607.20	47281.16
607.36	47318.61
607.51	47590.11
607.67	46789.65
607.82	47061.15
607.98	47110.30
608.13	47395.85
608.29	47086.90
608.44	47360.74
608.60	46932.42
608.75	47133.71
608.91	46927.74
609.06	47189.88
609.22	47599.47
609.37	46948.81
609.53	47430.96
609.68	47243.71
609.84	46955.83
609.99	47327.97
610.15	47402.87
610.30	47463.72
610.46	46717.09
610.61	47412.23
610.76	47138.39
610.92	46784.97
611.07	46962.85
611.23	47217.97
611.38	47054.13
611.54	47360.74
611.69	46902.00
611.84	47484.79
612.00	46997.96
612.15	46574.32
612.31	46979.23
612.46	46932.42
612.62	46911.36
612.77	47021.36
612.92	47569.05
613.08	46873.91
613.23	47232.01
613.39	47051.79
613.54	46480.70
613.69	47327.97
613.85	46754.54
614.00	46967.53
614.15	47157.11
614.31	46483.04
614.46	46614.11
614.62	46216.22
614.77	46616.45
614.92	47009.66
615.08	46445.59
615.23	46993.28
615.38	46930.08
615.54	46883.27
615.69	46955.83
615.84	46684.33
616.00	46499.42
616.15	46855.18
616.30	46483.04
616.46	46724.11
616.61	46756.88
616.76	47012.00
616.92	46447.93
617.07	46721.77
617.22	46471.34
617.37	46284.09
617.53	46670.28
617.68	46424.53
617.83	46691.35
617.99	46380.06
618.14	46471.34
618.29	46326.22
618.45	46277.07
618.60	46185.79
618.75	45956.42
618.90	46155.36
619.06	46415.16
619.21	46188.13
619.36	46272.39
619.51	46160.05
619.67	46101.53
619.82	46251.33
619.97	46618.79
620.12	45935.35
620.28	45773.86
620.43	46768.58
620.58	46024.29
620.73	46190.47
620.89	46143.66
621.04	46260.69
621.19	46265.37
621.34	46181.11
621.49	46010.25
621.65	46155.36
621.80	46220.90
621.95	46291.12
622.10	46443.25
622.25	45710.66
622.41	45825.35
622.56	45785.56
622.71	45614.70
622.86	46239.62
623.01	46232.60
623.16	45827.69
623.32	45324.47
623.47	45823.01
623.62	45584.27
623.77	45450.86
623.92	45673.21
624.07	45766.84
624.23	45886.20
624.38	45848.75
624.53	45734.07
624.68	45492.99
624.83	45406.39
624.98	44971.05
625.13	45280.00
625.29	45329.16
625.44	45504.70
625.59	45705.98
625.74	45478.95
625.89	45305.75
626.04	45237.87
626.19	45823.01
626.34	45078.72
626.49	45003.82
626.65	45237.87
626.80	44980.42
626.95	45048.29
627.10	44512.31
627.25	44837.64
627.40	44999.14
627.55	45050.63
627.70	45485.97
627.85	45212.13
628.00	45251.92
628.15	45095.10
628.30	44839.98
628.45	44643.38
628.60	44643.38
628.76	44854.03
628.91	45015.52
629.06	44409.32
629.21	44804.88
629.36	44641.04
629.51	44772.11
629.66	45088.08
629.81	44428.05
629.96	44694.87
630.11	44559.12
630.26	44655.08
630.41	44467.84
630.56	44900.84
630.71	44538.05
630.86	44582.52
631.01	44580.18
631.16	44486.56
631.31	44320.38
631.46	44093.35
631.61	44739.34
631.76	44381.24
631.91	44226.76
632.06	44423.37
632.21	44399.96
632.36	44790.83
632.51	44046.54
632.66	44849.35
632.81	44144.84
632.96	44357.83
633.10	43995.05
633.25	43983.35
633.40	44678.49
633.55	44650.40
633.70	44236.12
633.85	44011.43
634.00	43796.10
634.15	44231.44
634.30	43866.32
634.45	44048.88
634.60	44495.92
634.75	44074.63
634.90	44112.08
635.05	44233.78
635.19	44156.55
635.34	44053.56
635.49	43749.29
635.64	43613.54
635.79	44119.10
635.94	43800.79
636.09	44215.06
636.24	43718.87
636.39	43899.09
636.53	43796.10
636.68	43344.38
636.83	43805.47
636.98	43924.83
637.13	43384.17
637.28	43522.26
637.43	43335.02
637.57	43763.34
637.72	43133.73
637.87	43234.38
638.02	43526.94
638.17	43433.32
638.32	43388.85
638.46	42806.06
638.61	42871.59
638.76	43115.01
638.91	43260.12
639.06	43152.46
639.20	42712.44
639.35	42600.09
639.50	42906.70
639.65	43072.88
639.80	43157.14
639.94	43365.45
640.09	43290.55
640.24	42717.12
640.39	43033.09
640.54	42464.34
640.68	42986.28
640.83	43377.15
640.98	42431.57
641.13	42375.40
641.27	43229.69
641.42	43220.33
641.57	42719.46
641.72	42766.27
641.86	42698.39
642.01	42454.98
642.16	42405.83
642.31	42366.04
642.45	42473.70
642.60	42382.42
642.75	42618.81
642.90	42815.42
643.04	42630.52
643.19	42564.98
643.34	42398.80
643.48	42157.73
643.63	42323.91
643.78	42660.94
643.93	42873.93
644.07	42263.05
644.22	42312.20
644.37	42349.65
644.51	42707.76
644.66	42522.85
644.81	42258.37
644.95	42532.22
645.10	42241.99
645.25	41935.38
645.39	41818.35
645.54	42043.04
645.69	42012.62
645.83	41783.24
645.98	41839.42
646.13	41872.18
646.27	41621.75
646.42	41305.77
646.57	42146.03
646.71	41694.30
646.86	41942.40
647.00	41855.80
647.15	42139.00
647.30	42127.30
647.44	42019.64
647.59	42061.77
647.74	41673.24
647.88	42000.91
648.03	41823.03
648.17	42014.96
648.32	41806.65
648.47	41787.92
648.61	41724.73
648.76	41474.29
648.90	41434.50
649.05	41455.57
649.20	41518.76
649.34	41507.06
649.49	41596.00
649.63	41670.90
649.78	41380.67
649.92	41155.98
650.07	41483.66
650.21	41537.49
650.36	41855.80
650.51	41324.50
650.65	41806.65
650.80	41181.73
650.94	41027.25
651.09	41359.61
651.23	40891.50
651.38	41223.86
651.52	40746.39
651.67	41015.55
651.81	40842.35
651.96	40905.54
652.10	40676.17
652.25	40779.15
652.39	41144.28
652.54	41123.21
652.68	40935.97
652.83	40889.16
652.97	41085.76
653.12	41228.54
653.26	40175.30
653.41	40680.85
653.55	40975.76
653.70	40914.90
653.84	40886.82
653.99	40875.12
654.13	40690.21
654.27	40697.24
654.42	41254.28
654.56	40671.49
654.71	40671.49
654.85	40877.46
655.00	40655.11
655.14	40641.06
655.29	41137.26
655.43	41055.34
655.57	40456.16
655.72	40018.48
655.86	40266.58
656.01	40378.92
656.15	40116.78
656.30	40395.31
656.44	40498.29
656.58	40442.12
656.73	40453.82
656.87	40084.01
657.01	39878.05
657.16	40009.12
657.30	40350.84
657.45	40306.37
657.59	39871.03
657.73	39835.92
657.88	39999.76
658.02	40484.25
658.16	40044.23
658.31	40084.01
658.45	39782.09
658.60	39962.31
658.74	40297.00
658.88	40086.36
659.03	39915.50
659.17	39431.01
659.31	39281.21
659.46	39440.37
659.60	39725.91
659.74	39770.38
659.89	38941.83
660.03	38995.67
660.17	39721.23
660.32	39370.15
660.46	39281.21
660.60	39189.93
660.74	39683.78
660.89	39473.13
661.03	38820.13
661.17	38813.10
661.32	38770.97
661.46	38976.94
661.60	39016.73
661.74	38871.62
661.89	39047.16
662.03	38986.30
662.17	38773.31
662.31	38813.10
662.46	38583.73
662.60	38803.74
662.74	38778.00
662.88	38560.33
663.03	38064.13
663.17	38272.44
663.31	37963.49
663.45	38022.00
663.60	38494.79
663.74	38749.91
663.88	38396.49
664.02	38340.32
664.17	38092.22
664.31	38092.22
664.45	37827.74
664.59	37869.87
664.73	37820.72
664.88	37483.68
665.02	37607.73
665.16	37738.80
665.30	37294.10
665.44	37209.84
665.59	37113.87
665.73	37514.11
665.87	37371.33
666.01	37041.32
666.15	37706.03
666.29	37172.39
666.44	37558.58
666.58	37055.36
666.72	37046.00
666.86	36950.04
667.00	36779.18
667.14	36753.43
667.28	36982.80
667.43	36830.67
667.57	37291.76
667.71	36666.83
667.85	36369.58
667.99	36938.33
668.13	36467.89
668.27	36699.60
668.41	36346.18
668.56	35978.72
668.70	35615.93
668.84	36126.17
668.98	35819.56
669.12	36271.28
669.26	36100.42
669.40	35924.88
669.54	35873.39
669.68	36046.59
669.82	35765.73
669.96	35377.20
670.10	35407.62
670.25	35562.10
670.39	35370.18
670.53	35562.10
670.67	35150.17
670.81	35625.29
670.95	35379.54
671.09	35569.12
671.23	34864.62
671.37	35393.58
671.51	35082.29
671.65	34993.35
671.79	34778.02
671.93	35105.70
672.07	35206.34
672.21	35189.95
672.35	34291.19
672.49	34773.34
672.63	34766.32
672.77	34569.71
672.91	34677.38
673.05	34480.77
673.19	34380.13
673.33	34246.72
673.47	34033.73
673.61	34019.69
673.75	33624.14
673.89	33928.41
674.03	33455.62
674.17	33652.22
674.31	33193.48
674.45	33785.63
674.59	33493.07
674.73	33287.10
674.87	33170.07
675.01	32954.74
675.15	32678.56
675.29	32936.02
675.43	32741.75
675.56	32940.70
675.70	32833.04
675.84	32364.93
675.98	32182.37
676.12	32645.79
676.26	32701.96
676.40	32503.02
676.54	31782.13
676.68	32182.37
676.82	31484.89
676.96	31913.20
677.10	31906.18
677.23	32067.68
677.37	31885.12
677.51	31599.57
677.65	31634.68
677.79	31660.43
677.93	31447.44
678.07	31110.40
678.21	31166.57
678.34	30813.15
678.48	30464.41
678.62	30654.00
678.76	30515.90
678.90	30597.82
679.04	30522.93
679.18	30478.46
679.31	30274.83
679.45	30277.17
679.59	30073.54
679.73	30281.85
679.87	30052.48
680.00	29890.98
680.14	29380.74
680.28	29905.02
680.42	29743.53
680.56	29785.66
680.70	29146.69
680.83	29603.10
680.97	29273.08
681.11	29127.97
681.25	29228.61
681.39	28954.77
681.52	28641.14
681.66	28582.62
681.80	28383.68
681.94	28130.90
682.07	28409.42
682.21	27821.95
682.35	28102.81
682.49	27990.47
682.62	28194.09
682.76	28236.22
682.90	28027.92
683.04	27632.36
683.17	27494.27
683.31	27754.07
683.45	27461.51
683.59	27269.58
683.72	27208.73
683.86	27180.64
684.00	27044.89
684.13	26897.44
684.27	26817.86
684.41	26764.03
684.55	26696.15
684.68	26553.38
684.82	26548.70
684.96	26642.32
685.09	26403.58
685.23	26235.06
685.37	26869.35
685.50	26396.56
685.64	26403.58
685.78	25867.60
685.91	25872.28
686.05	25708.44
686.19	25055.43
686.32	25219.27
686.46	25137.35
686.60	25010.96
686.73	25434.60
686.87	24886.92
687.01	25268.42
687.14	25324.60
687.28	24978.20
687.42	24863.51
687.55	24781.59
687.69	24524.13
687.82	24201.14
687.96	24381.36
688.10	24861.17
688.23	24306.46
688.37	24395.40
688.50	24554.56
688.64	24119.22
688.78	24053.69
688.91	23929.64
689.05	23882.83
689.18	23599.62
689.32	23267.27
689.46	23180.67
689.59	23391.31
689.73	23206.41
689.86	23358.55
690.00	23147.90
690.13	22988.74
690.27	23147.90
690.41	23068.32
690.54	22579.15
690.68	22539.36
690.81	22319.35
690.95	22307.65
691.08	22328.71
691.22	22291.26
691.35	22211.68
691.49	22380.20
691.62	22085.30
691.76	21799.75
691.89	21853.58
692.03	21252.06
692.16	21333.98
692.30	21628.89
692.43	21530.59
692.57	21345.69
692.70	21165.46
692.84	21097.59
692.97	20837.79
693.11	20830.77
693.24	20573.31
693.38	20458.62
693.51	20343.94
693.65	20280.74
693.78	20680.97
693.92	20580.33
694.05	20285.42
694.19	20184.78
694.32	20507.77
694.45	20180.10
694.59	20589.69
694.72	20233.93
694.86	19683.91
694.99	19641.78
695.13	19517.73
695.26	19190.05
695.39	19288.35
695.53	19372.61
695.66	19094.09
695.80	19215.80
695.93	19206.44
696.07	18860.04
696.20	18757.05
696.33	18593.22
696.47	18581.51
696.60	18693.86
696.73	18452.78
696.87	18672.79
697.00	18658.75
697.14	18597.90
697.27	18265.54
697.40	18059.57
697.54	18230.43
697.67	17930.84
697.80	18017.44
697.94	17963.61
698.07	17598.49
698.21	17827.86
698.34	17547.00
698.47	17605.51
698.61	17291.88
698.74	17369.12
698.87	17362.09
699.01	17128.04
699.14	17128.04
699.27	17029.74
699.40	16908.03
699.54	16994.63
699.67	16737.17
699.80	16585.04
699.94	16727.81
700.07	16636.53
700.20	16423.54
700.34	16393.11
700.47	16376.73
700.60	16683.34
700.73	16201.19
700.87	16196.51
701.00	15948.41
701.13	16023.31
701.26	16037.35
701.40	15978.84
701.53	15674.57
701.66	15594.99
701.79	15449.88
701.93	15407.75
702.06	15330.51
702.19	15681.59
702.32	15272.00
702.46	15517.75
702.59	15456.90
702.72	15396.04
702.85	15232.21
702.99	14768.78
703.12	14998.15
703.25	14855.38
703.38	14672.82
703.51	14761.76
703.65	14717.29
703.78	14497.28
703.91	14331.10
704.04	14331.10
704.17	13991.72
704.31	14338.12
704.44	14101.73
704.57	14064.28
704.70	14097.05
704.83	13825.54
704.96	13727.24
705.10	13497.87
705.23	13444.04
>>>>>End Processed Spectral Data<<<<<
