SpectraSuite Data File
++++++++++++++++++++++++++++++++++++
Date: Fri Oct 25 11:33:41 EDT 2013
User: price-jones
Dark Spectrum Present: No
Reference Spectrum Present: No
Number of Sampled Component Spectra: 1
Spectrometers: USB2+H05261
Integration Time (usec): 100000 (USB2+H05261)
Spectra Averaged: 1 (USB2+H05261)
Boxcar Smoothing: 0 (USB2+H05261)
Correct for Electrical Dark: No (USB2+H05261)
Strobe/Lamp Enabled: No (USB2+H05261)
Correct for Detector Non-linearity: No (USB2+H05261)
Correct for Stray Light: No (USB2+H05261)
Number of Pixels in Processed Spectrum: 2048
>>>>>Begin Processed Spectral Data<<<<<
365.73	220.01
365.92	220.01
366.12	220.01
366.32	236.39
366.52	161.50
366.72	196.60
366.91	224.69
367.11	212.99
367.31	161.50
367.51	173.20
367.70	121.71
367.90	210.65
368.10	142.77
368.30	208.31
368.49	135.75
368.69	212.99
368.89	217.67
369.09	163.84
369.28	180.22
369.48	170.86
369.68	187.24
369.87	198.95
370.07	234.05
370.27	262.14
370.47	318.31
370.66	564.07
370.86	463.43
371.06	599.18
371.25	540.66
371.45	550.03
371.65	540.66
371.84	571.09
372.04	475.13
372.24	526.62
372.44	575.77
372.63	608.54
372.83	606.20
373.03	631.94
373.22	550.03
373.42	582.79
373.62	734.93
373.81	603.86
374.01	578.11
374.21	566.41
374.40	643.65
374.60	671.73
374.79	688.12
374.99	681.10
375.19	685.78
375.38	648.33
375.58	704.50
375.78	636.63
375.97	681.10
376.17	678.76
376.37	681.10
376.56	699.82
376.76	695.14
376.95	653.01
377.15	718.54
377.35	669.39
377.54	734.93
377.74	746.63
377.93	664.71
378.13	727.91
378.33	727.91
378.52	713.86
378.72	711.52
378.91	791.10
379.11	641.31
379.31	692.80
379.50	730.25
379.70	732.59
379.89	695.14
380.09	720.88
380.28	667.05
380.48	718.54
380.68	664.71
380.87	791.10
381.07	772.38
381.26	847.27
381.46	793.44
381.65	842.59
381.85	711.52
382.04	774.72
382.24	725.57
382.43	781.74
382.63	805.14
382.83	734.93
383.02	814.51
383.22	781.74
383.41	821.53
383.61	772.38
383.80	877.70
384.00	788.76
384.19	828.55
384.39	854.30
384.58	891.74
384.78	861.32
384.97	917.49
385.17	903.45
385.36	774.72
385.56	858.98
385.75	847.27
385.95	819.19
386.14	854.30
386.34	847.27
386.53	856.64
386.72	858.98
386.92	931.53
387.11	903.45
387.31	880.04
387.50	868.34
387.70	919.83
387.89	866.00
388.09	940.90
388.28	978.34
388.48	894.08
388.67	816.85
388.86	926.85
389.06	950.26
389.25	947.92
389.45	1013.45
389.64	903.45
389.84	1029.84
390.03	1018.13
390.22	985.37
390.42	947.92
390.61	987.71
390.81	1020.47
391.00	968.98
391.19	1013.45
391.39	1004.09
391.58	973.66
391.78	971.32
391.97	978.34
392.16	1008.77
392.36	950.26
392.55	1071.97
392.75	1018.13
392.94	1046.22
393.13	1022.81
393.33	1076.65
393.52	961.96
393.71	1088.35
393.91	1081.33
394.10	1060.26
394.29	1128.14
394.49	1057.92
394.68	1160.91
394.88	1118.78
395.07	1170.27
395.26	1104.73
395.46	1064.94
395.65	1174.95
395.84	1247.51
396.04	1174.95
396.23	1310.70
396.42	1256.87
396.62	1156.22
396.81	1207.72
397.00	1179.63
397.19	1273.25
397.39	1289.64
397.58	1394.96
397.77	1301.34
397.97	1263.89
398.16	1203.04
398.35	1294.32
398.55	1296.66
398.74	1348.15
398.93	1394.96
399.12	1373.89
399.32	1315.38
399.51	1385.60
399.70	1455.81
399.90	1357.51
400.09	1411.34
400.28	1401.98
400.47	1397.30
400.67	1420.71
400.86	1409.00
401.05	1409.00
401.24	1359.85
401.44	1432.41
401.63	1535.39
401.82	1575.18
402.01	1404.32
402.21	1423.05
402.40	1537.73
402.59	1455.81
402.78	1570.50
402.97	1638.38
403.17	1554.12
403.36	1504.96
403.55	1572.84
403.74	1652.42
403.93	1542.41
404.13	1682.85
404.32	1593.90
404.51	1549.43
404.70	1636.03
404.89	1722.63
405.09	1682.85
405.28	1696.89
405.47	1673.48
405.66	1727.32
405.85	1727.32
406.05	1636.03
406.24	1825.62
406.43	1771.79
406.62	1820.94
406.81	1706.25
407.00	1795.19
407.20	1732.00
407.39	1842.00
407.58	1926.26
407.77	1907.54
407.96	1858.39
408.15	1912.22
408.34	1937.96
408.54	1937.96
408.73	1930.94
408.92	1956.69
409.11	1933.28
409.30	1954.35
409.49	1973.07
409.68	1991.80
409.87	2024.56
410.07	2071.37
410.26	2050.31
410.45	2038.61
410.64	2059.67
410.83	2015.20
411.02	2092.44
411.21	2223.51
411.40	2069.03
411.59	2200.10
411.78	2169.68
411.98	2181.38
412.17	2186.06
412.36	2356.92
412.55	2249.25
412.74	2375.64
412.93	2389.69
413.12	2347.56
413.31	2504.37
413.50	2434.16
413.69	2422.45
413.88	2483.31
414.07	2579.27
414.26	2504.37
414.45	2502.03
414.64	2513.74
414.83	2562.89
415.02	2555.86
415.22	2668.21
415.41	2658.85
415.60	2593.31
415.79	2612.04
415.98	2808.64
416.17	2780.56
416.36	2726.72
416.55	2722.04
416.74	2787.58
416.93	2724.38
417.12	2871.84
417.31	2836.73
417.50	2810.98
417.69	2916.31
417.88	2918.65
418.07	2862.48
418.26	2974.82
418.45	3115.25
418.64	3091.85
418.83	3030.99
419.02	3070.78
419.21	3112.91
419.39	3091.85
419.58	3061.42
419.77	3124.62
419.96	3112.91
420.15	3152.70
420.34	3164.40
420.53	3222.92
420.72	3061.42
420.91	3332.92
421.10	3262.71
421.29	3236.96
421.48	3286.11
421.67	3199.51
421.86	3307.18
422.05	3288.45
422.24	3323.56
422.43	3391.44
422.61	3440.59
422.80	3414.84
422.99	3382.07
423.18	3524.85
423.37	3440.59
423.56	3452.29
423.75	3342.28
423.94	3281.43
424.13	3110.57
424.32	3297.81
424.50	3440.59
424.69	3494.42
424.88	3463.99
425.07	3431.23
425.26	3419.52
425.45	3456.97
425.64	3520.17
425.83	3339.94
426.01	3620.81
426.20	3564.64
426.39	3372.71
426.58	3494.42
426.77	3508.46
426.96	3625.49
427.15	3515.48
427.33	3595.06
427.52	3747.20
427.71	3646.55
427.90	3599.74
428.09	3637.19
428.28	3634.85
428.46	3609.11
428.65	3779.97
428.84	3714.43
429.03	3791.67
429.22	3786.99
429.40	3735.50
429.59	3922.74
429.78	3667.62
429.97	3756.56
430.16	3866.56
430.34	3871.25
430.53	3815.07
430.72	3913.38
430.91	3904.01
431.10	3850.18
431.28	3953.16
431.47	3880.61
431.66	4095.94
431.85	3913.38
432.03	3887.63
432.22	4227.01
432.41	4086.58
432.60	4105.30
432.79	4081.89
432.97	4084.23
433.16	4145.09
433.35	4184.88
433.54	4231.69
433.72	4297.22
433.91	4290.20
434.10	4187.22
434.28	4285.52
434.47	4264.46
434.66	4325.31
434.85	4341.69
435.03	4346.37
435.22	4262.12
435.41	4557.02
435.59	4259.78
435.78	4472.76
435.97	4416.59
436.16	4440.00
436.34	4411.91
436.53	4430.63
436.72	4685.75
436.90	4470.42
437.09	4695.11
437.28	4367.44
437.46	4519.57
437.65	4592.13
437.84	4805.12
438.02	4662.35
438.21	4629.58
438.40	4496.17
438.58	4660.01
438.77	4819.16
438.96	4802.78
439.14	5006.41
439.33	4947.89
439.52	4882.36
439.70	4919.81
439.89	4912.78
440.08	5074.28
440.26	5004.07
440.45	5048.54
440.63	5247.48
440.82	5242.80
441.01	5114.07
441.19	5238.12
441.38	5284.93
441.57	5275.57
441.75	5203.01
441.94	5394.93
442.12	5481.53
442.31	5516.64
442.50	5568.13
442.68	5584.52
442.87	5446.43
443.05	5458.13
443.24	5652.39
443.43	5549.41
443.61	5526.00
443.80	5799.85
443.98	5500.26
444.17	5434.72
444.35	5558.77
444.54	5598.56
444.73	5706.23
444.91	5556.43
445.10	5664.10
445.28	5591.54
445.47	5481.53
445.65	5668.78
445.84	5767.08
446.02	5816.23
446.21	5692.18
446.39	5760.06
446.58	5771.76
446.77	5769.42
446.95	5753.04
447.14	5813.89
447.32	5797.51
447.51	5727.29
447.69	5666.44
447.88	5736.65
448.06	5860.70
448.25	5696.86
448.43	5788.14
448.62	5823.25
448.80	5818.57
448.99	5813.89
449.17	5818.57
449.36	5940.28
449.54	5961.34
449.73	6169.65
449.91	6155.61
450.10	6040.92
450.28	6267.95
450.46	6246.89
450.65	6230.51
450.83	6207.10
451.02	6113.48
451.20	6223.48
451.39	6078.37
451.57	6253.91
451.76	6202.42
451.94	6176.67
452.13	6478.60
452.31	6387.32
452.49	6066.67
452.68	6310.08
452.86	6377.96
453.05	6410.73
453.23	6429.45
453.42	6324.13
453.60	6321.79
453.78	6532.44
453.97	6429.45
454.15	6525.41
454.34	6469.24
454.52	6602.65
454.70	6677.55
454.89	6480.94
455.07	6712.66
455.26	6630.74
455.44	6717.34
455.62	6586.27
455.81	6944.37
455.99	6794.58
456.17	6700.95
456.36	6675.21
456.54	6890.54
456.73	6853.09
456.91	6974.80
457.09	7187.79
457.28	7194.81
457.46	7063.74
457.64	7007.56
457.83	7091.82
458.01	6991.18
458.19	7232.26
458.38	7054.37
458.56	7166.72
458.74	7035.65
458.93	7112.89
459.11	7246.30
459.29	7246.30
459.48	7290.77
459.66	7300.13
459.84	7300.13
460.03	7485.03
460.21	7379.71
460.39	7311.83
460.57	7456.95
460.76	7485.03
460.94	7721.43
461.12	7709.72
461.31	7501.42
461.49	7552.91
461.67	7545.89
461.85	7489.71
462.04	7658.23
462.22	8238.69
462.40	7880.58
462.59	7784.62
462.77	7747.17
462.95	7779.94
463.13	7962.50
463.32	7805.69
463.50	7861.86
463.68	7941.44
463.86	7932.08
464.05	7932.08
464.23	7976.55
464.41	8035.06
464.59	7941.44
464.78	8177.83
464.96	8018.68
465.14	7976.55
465.32	8133.36
465.50	8051.44
465.69	8126.34
465.87	8201.24
466.05	8194.22
466.23	8163.79
466.41	8119.32
466.60	8159.11
466.78	8306.56
466.96	8224.64
467.14	8292.52
467.32	8203.58
467.51	8297.20
467.69	8154.43
467.87	8280.82
468.05	8442.31
468.23	8315.92
468.41	8484.44
468.60	8404.86
468.78	8484.44
468.96	8477.42
469.14	8568.70
469.32	8603.81
469.50	8575.72
469.69	8561.68
469.87	8889.35
470.05	8662.32
470.23	8903.40
470.41	8755.94
470.59	8924.46
470.77	8702.11
470.95	8856.59
471.14	8929.14
471.32	8842.54
471.50	9001.70
471.68	8978.30
471.86	9259.16
472.04	9195.96
472.22	9256.82
472.40	9050.85
472.58	9144.47
472.77	9177.24
472.95	9551.73
473.13	9708.54
473.31	9334.06
473.49	9598.54
473.67	9465.13
473.85	9549.39
474.03	9790.46
474.21	9837.27
474.39	9722.59
474.57	9909.83
474.75	9942.60
474.93	10068.98
475.12	9944.94
475.30	10129.84
475.48	9966.00
475.66	10169.63
475.84	10253.89
476.02	10429.43
476.20	10157.92
476.38	10574.54
476.56	10698.59
476.74	10661.14
476.92	10750.08
477.10	10628.37
477.28	10862.43
477.46	10757.10
477.64	10946.69
477.82	10892.85
478.00	11246.27
478.18	11042.65
478.36	10967.75
478.54	11646.51
478.72	11466.28
478.90	11445.22
479.08	11683.95
479.26	11791.62
479.44	11730.76
479.62	11735.45
479.80	11962.48
479.98	12152.06
480.16	12170.79
480.34	12152.06
480.52	12514.84
480.70	12142.70
480.88	12463.35
481.06	12458.67
481.24	12507.82
481.41	12706.77
481.59	13090.62
481.77	12840.18
481.95	12748.90
482.13	13099.98
482.31	13069.55
482.49	13385.52
482.67	13554.04
482.85	13523.62
483.03	13357.44
483.21	13722.56
483.39	13823.20
483.57	13839.59
483.74	13785.76
483.92	14260.88
484.10	13954.27
484.28	14080.66
484.46	14757.08
484.64	14628.35
484.82	14511.32
485.00	14736.01
485.18	14846.02
485.35	15054.33
485.53	14923.26
485.71	15007.52
485.89	15281.36
486.07	15475.62
486.25	15325.83
486.43	15531.80
486.61	15665.21
486.78	15831.38
486.96	15861.81
487.14	16210.55
487.32	16320.56
487.50	16568.65
487.68	16765.26
487.85	16648.23
488.03	16758.24
488.21	17296.56
488.39	17008.67
488.57	17032.08
488.75	17369.12
488.92	17415.93
489.10	17528.27
489.28	17633.60
489.46	17888.71
489.64	17708.49
489.81	18005.74
489.99	18183.62
490.17	18345.12
490.35	18429.38
490.53	18665.77
490.70	18686.84
490.88	18778.12
491.06	18775.78
491.24	18902.17
491.41	18986.43
491.59	19391.34
491.77	19159.63
491.95	19161.97
492.13	19777.53
492.30	19840.72
492.48	19730.72
492.66	19908.60
492.84	19894.55
493.01	20231.59
493.19	20137.97
493.37	20255.00
493.54	20475.01
493.72	20744.17
493.90	20435.22
494.08	20692.68
494.25	21090.57
494.43	20992.26
494.61	21081.21
494.79	21027.37
494.96	21294.19
495.14	21392.50
495.32	21872.31
495.49	21572.72
495.67	21642.93
495.85	22106.36
496.02	22288.92
496.20	22448.08
496.38	22487.87
496.55	22604.89
496.73	22951.29
496.91	22764.05
497.09	22869.37
497.26	23030.87
497.44	23051.94
497.62	23379.61
497.79	23421.74
497.97	23330.46
498.14	23882.83
498.32	23325.78
498.50	23910.91
498.67	24112.20
498.85	24002.19
499.03	24362.64
499.20	24109.86
499.38	24034.96
499.56	24308.80
499.73	24629.46
499.91	24812.02
500.08	24751.17
500.26	24549.88
500.44	24774.57
500.61	24870.53
500.79	25069.48
500.97	25247.36
501.14	25474.39
501.32	25331.62
501.49	25656.95
501.67	25390.13
501.84	25661.63
502.02	25652.27
502.20	25942.50
502.37	25635.89
502.55	25755.26
502.72	25851.22
502.90	26345.07
503.07	25984.63
503.25	26412.95
503.43	26127.40
503.60	26740.62
503.78	26560.40
503.95	26813.18
504.13	27061.27
504.30	26761.69
504.48	26698.49
504.65	26801.47
504.83	27080.00
505.01	27468.53
505.18	27393.63
505.36	27248.52
505.53	27077.66
505.71	27370.22
505.88	27864.08
506.06	27199.37
506.23	27447.46
506.41	27428.74
506.58	27882.80
506.76	28016.21
506.93	28011.53
507.11	28283.03
507.28	28318.14
507.46	28081.75
507.63	28463.25
507.81	28648.16
507.98	28020.89
508.16	28278.35
508.33	28594.32
508.50	29062.43
508.68	28666.88
508.85	28933.70
509.03	29015.62
509.20	28992.22
509.38	29312.87
509.55	29628.84
509.73	29457.98
509.90	29495.43
510.08	29699.06
510.25	29273.08
510.42	29731.83
510.60	29956.52
510.77	30122.69
510.95	30361.43
511.12	29914.39
511.30	29954.18
511.47	30455.05
511.64	30146.10
511.82	30504.20
511.99	30349.73
512.17	30623.57
512.34	30979.33
512.51	30712.51
512.69	30911.46
512.86	30806.13
513.04	30785.07
513.21	31122.10
513.38	31379.56
513.56	31679.15
513.73	31124.44
513.90	31335.09
514.08	31049.55
514.25	31400.63
514.43	31885.12
514.60	31700.22
514.77	31480.21
514.95	31782.13
515.12	31578.51
515.29	31807.88
515.47	31786.82
515.64	32491.32
515.81	31962.36
515.99	32414.08
516.16	32755.80
516.33	32538.13
516.51	32800.27
516.68	32481.95
516.85	32294.71
517.03	32561.53
517.20	32657.49
517.37	33207.52
517.54	32954.74
517.72	33350.29
517.89	33392.42
518.06	33305.82
518.24	33020.28
518.41	33237.95
518.58	33277.74
518.75	33687.33
518.93	33415.83
519.10	33394.76
519.27	33582.01
519.45	33596.05
519.62	34078.20
519.79	33582.01
519.96	34050.11
520.14	34136.71
520.31	34036.07
520.48	34450.35
520.65	34164.80
520.83	34316.93
521.00	34448.00
521.17	34607.16
521.34	34497.16
521.52	34380.13
521.69	34731.21
521.86	34705.46
522.03	35065.91
522.20	35526.99
522.38	35239.11
522.55	34834.19
522.72	35222.72
522.89	35061.22
523.07	35683.81
523.24	35129.10
523.41	35601.89
523.58	34897.39
523.75	35847.64
523.92	35599.55
524.10	36175.32
524.27	35737.64
524.44	35871.05
524.61	35990.42
524.78	35964.67
524.96	36428.10
525.13	36140.21
525.30	36477.25
525.47	36154.26
525.64	36332.14
525.81	36638.75
525.98	36254.90
526.16	36713.64
526.33	36556.83
526.50	37076.43
526.67	36863.44
526.84	36952.38
527.01	36863.44
527.18	36765.14
527.36	37471.98
527.53	36783.86
527.70	37303.46
527.87	37567.94
528.04	37134.94
528.21	37455.59
528.38	37146.64
528.55	37111.53
528.72	36893.86
528.89	37090.47
529.07	37212.18
529.24	37373.67
529.41	37289.42
529.58	37593.68
529.75	37727.10
529.92	37797.31
530.09	37942.42
530.26	37785.61
530.43	37914.34
530.60	37654.54
530.77	37626.45
530.94	38476.07
531.11	38213.93
531.28	38162.43
531.46	38443.30
531.63	38129.67
531.80	38129.67
531.97	38405.85
532.14	38656.29
532.31	38146.05
532.48	38829.49
532.65	38754.59
532.82	38838.85
532.99	38550.96
533.16	38642.24
533.33	39042.48
533.50	39227.38
533.67	38855.23
533.84	38810.76
534.01	38794.38
534.18	39194.61
534.35	39494.20
534.52	39541.01
534.69	39335.04
534.86	39316.32
535.03	39356.11
535.20	39346.75
535.37	39482.50
535.54	39459.09
535.71	39725.91
535.88	39798.47
536.05	39702.51
536.22	39683.78
536.38	40037.20
536.55	40074.65
536.72	40069.97
536.89	39791.45
537.06	40055.93
537.23	40254.87
537.40	39714.21
537.57	40268.92
537.74	39768.04
537.91	40505.31
538.08	40470.20
538.25	40041.88
538.42	40119.12
538.59	40952.35
538.75	40369.56
538.92	40900.86
539.09	40849.37
539.26	40552.12
539.43	40804.90
539.60	40699.58
539.77	40825.96
539.94	40975.76
540.11	41053.00
540.28	41333.86
540.44	41181.73
540.61	40903.20
540.78	40765.11
540.95	40971.08
541.12	41146.62
541.29	40755.75
541.46	41223.86
541.62	40830.65
541.79	41017.89
541.96	40711.28
542.13	41305.77
542.30	41221.52
542.47	41317.48
542.63	41656.85
542.80	41588.98
542.97	42017.30
543.14	42293.48
543.31	41619.41
543.48	41521.10
543.64	42202.20
543.81	41914.31
543.98	42452.64
544.15	42171.77
544.32	42639.88
544.48	42724.14
544.65	42143.69
544.82	42590.73
544.99	42216.24
545.16	42401.14
545.32	42188.16
545.49	42787.33
545.66	42899.68
545.83	42852.87
546.00	42960.53
546.16	42740.52
546.33	42623.50
546.50	42494.77
546.67	42824.78
546.83	42251.35
547.00	42735.84
547.17	42761.59
547.34	43061.18
547.50	43077.56
547.67	43487.15
547.84	43075.22
548.00	43564.39
548.17	43622.90
548.34	43599.50
548.51	44051.22
548.67	43304.59
548.84	43456.73
549.01	43559.71
549.18	43367.79
549.34	43416.94
549.51	43672.06
549.68	43650.99
549.84	43838.23
550.01	43791.42
550.18	43311.61
550.34	43796.10
550.51	43866.32
550.68	44137.82
550.84	43370.13
551.01	43955.26
551.18	43871.00
551.34	43711.84
551.51	43786.74
551.68	43803.13
551.84	44259.53
552.01	43938.88
552.18	43746.95
552.34	43679.08
552.51	44306.34
552.68	44093.35
552.84	44191.65
553.01	44790.83
553.18	44425.71
553.34	44280.60
553.51	44549.76
553.67	44779.13
553.84	44357.83
554.01	44549.76
554.17	44655.08
554.34	44746.36
554.51	44299.32
554.67	44961.69
554.84	44818.92
555.00	44933.60
555.17	44575.50
555.33	44971.05
555.50	44982.76
555.67	45048.29
555.83	44655.08
556.00	45050.63
556.16	45518.74
556.33	45069.36
556.50	44816.58
556.66	45174.68
556.83	45109.14
556.99	45745.77
557.16	45415.76
557.32	45319.79
557.49	45184.04
557.65	45221.49
557.82	44942.97
557.98	45200.43
558.15	45001.48
558.32	45375.97
558.48	45237.87
558.65	45469.59
558.81	45343.20
558.98	45144.25
559.14	45565.55
559.31	45186.38
559.47	45460.23
559.64	45780.88
559.80	45331.50
559.97	45717.68
560.13	45436.82
560.30	45230.85
560.46	45897.91
560.63	45715.34
560.79	45640.45
560.96	45942.38
561.12	45909.61
561.29	45701.30
561.45	45715.34
561.61	46153.02
561.78	45450.86
561.94	45757.47
562.11	45888.54
562.27	45598.32
562.44	46003.23
562.60	45572.57
562.77	46153.02
562.93	45537.46
563.10	46436.23
563.26	45851.09
563.42	46380.06
563.59	46220.90
563.75	45968.12
563.92	45956.42
564.08	46253.67
564.24	46408.14
564.41	46344.95
564.57	46389.42
564.74	46195.15
564.90	46047.70
565.07	45722.37
565.23	46157.70
565.39	45947.06
565.56	46263.03
565.72	46672.62
565.88	46494.74
566.05	46586.02
566.21	46239.62
566.38	46579.00
566.54	46066.42
566.70	46728.80
566.87	46171.75
567.03	46043.02
567.19	46871.57
567.36	46373.03
567.52	46373.03
567.68	46689.01
567.85	46733.48
568.01	47255.42
568.17	46391.76
568.34	46883.27
568.50	46611.77
568.66	46131.96
568.83	46546.23
568.99	46417.50
569.15	46178.77
569.32	46581.34
569.48	46518.15
569.64	47014.34
569.81	46616.45
569.97	46410.48
570.13	46988.60
570.30	46590.70
570.46	46541.55
570.62	47037.75
570.78	46422.19
570.95	46426.87
571.11	47182.86
571.27	46892.63
571.43	46672.62
571.60	47016.68
571.76	46859.87
571.92	46621.13
572.09	46679.64
572.25	46431.55
572.41	46820.08
572.57	47323.29
572.74	47484.79
572.90	46958.17
573.06	47330.31
573.22	47276.48
573.38	47285.84
573.55	47388.83
573.71	47454.36
573.87	46958.17
574.03	47009.66
574.20	47217.97
574.36	46808.37
574.52	47004.98
574.68	47047.11
574.84	47360.74
575.01	47229.67
575.17	47342.02
575.33	47229.67
575.49	46997.96
575.65	47339.68
575.82	47501.17
575.98	46850.50
576.14	46923.06
576.30	47545.64
576.46	47210.95
576.62	47278.82
576.79	47370.10
576.95	46899.65
577.11	47136.05
577.27	46899.65
577.43	47281.16
577.59	47377.12
577.75	47014.34
577.92	47494.15
578.08	47089.24
578.24	47124.35
578.40	47742.25
578.56	47522.24
578.72	47573.73
578.88	47377.12
579.04	47278.82
579.21	47056.47
579.37	47274.14
579.53	47304.57
579.69	47159.45
579.85	46766.24
580.01	47311.59
580.17	47377.12
580.33	47665.01
580.49	47264.78
580.65	47189.88
580.82	47349.04
580.98	47145.41
581.14	47168.82
581.30	47189.88
581.46	47061.15
581.62	47470.75
581.78	47660.33
581.94	47477.77
582.10	47311.59
582.26	47695.44
582.42	47613.52
582.58	47543.30
582.74	47901.40
582.90	47592.45
583.06	47442.66
583.22	47175.84
583.38	47297.55
583.54	47372.44
583.70	47409.89
583.86	47320.95
584.02	47751.61
584.18	47667.35
584.34	47615.86
584.50	47716.50
584.66	47660.33
584.82	47835.87
584.98	47789.06
585.14	47676.71
585.30	47297.55
585.46	47381.80
585.62	47576.07
585.78	47618.20
585.94	47360.74
586.10	47639.26
586.26	47250.74
586.42	47601.82
586.58	47688.42
586.74	47452.02
586.90	47241.37
587.06	47791.40
587.22	47524.58
587.38	47365.42
587.54	47739.91
587.70	47847.57
587.86	47386.49
588.02	47753.95
588.18	47632.24
588.34	47318.61
588.49	47611.18
588.65	47342.02
588.81	47821.83
588.97	47730.54
589.13	47636.92
589.29	47784.38
589.45	47480.11
589.61	47793.74
589.77	47910.77
589.93	47772.67
590.08	47264.78
590.24	47800.76
590.40	48016.09
590.56	47992.68
590.72	48034.81
590.88	47800.76
591.04	47756.29
591.20	48074.60
591.35	48109.71
591.51	48191.63
591.67	48095.67
591.83	48039.50
591.99	48205.67
592.15	47922.47
592.31	48081.63
592.46	47980.98
592.62	48123.75
592.78	48034.81
592.94	48137.80
593.10	48456.11
593.26	48367.17
593.41	48275.89
593.57	48116.73
593.73	48102.69
593.89	48673.78
594.05	48229.08
594.20	48334.40
594.36	48315.68
594.52	48343.77
594.68	48289.93
594.84	48193.97
594.99	48554.41
595.15	48313.34
595.31	48273.55
595.47	48346.11
595.62	48254.82
595.78	48196.31
595.94	48224.40
596.10	48219.72
596.25	48360.15
596.41	48357.81
596.57	48233.76
596.73	48727.61
596.88	48442.07
597.04	48479.52
597.20	48212.70
597.36	48259.51
597.51	48320.36
597.67	48102.69
597.83	48341.42
597.99	48289.93
598.14	48217.38
598.30	48175.25
598.46	48409.30
598.61	48453.77
598.77	48245.46
598.93	48851.66
599.09	48325.04
599.24	48554.41
599.40	48636.33
599.56	48119.07
599.71	48629.31
599.87	49090.40
600.03	48900.81
600.18	48692.50
600.34	48465.47
600.50	48577.82
600.65	48446.75
600.81	48854.00
600.97	48250.14
601.12	48456.11
601.28	48119.07
601.44	48252.48
601.59	48175.25
601.75	48617.61
601.91	48626.97
602.06	48559.09
602.22	48519.31
602.37	48343.77
602.53	48498.24
602.69	48224.40
602.84	48383.55
603.00	48083.97
603.16	48294.61
603.31	48839.96
603.47	48425.68
603.62	48172.91
603.78	48690.16
603.94	48311.00
604.09	48643.35
604.25	48336.74
604.40	48158.86
604.56	48374.19
604.71	48505.26
604.87	48264.19
605.03	48140.14
605.18	48318.02
605.34	48423.34
605.49	48507.60
605.65	48540.37
605.80	48507.60
605.96	48303.98
606.12	48451.43
606.27	48362.49
606.43	48378.87
606.58	48528.67
606.74	48463.13
606.89	48053.54
607.05	48552.07
607.20	48406.96
607.36	48168.22
607.51	48268.87
607.67	48168.22
607.82	47973.96
607.98	48011.41
608.13	48404.62
608.29	48074.60
608.44	48360.15
608.60	47873.32
608.75	47917.79
608.91	48210.35
609.06	47859.27
609.22	48346.11
609.37	48210.35
609.53	48329.72
609.68	48261.85
609.84	48411.64
609.99	48296.95
610.15	47880.34
610.30	48430.36
610.46	47941.19
610.61	47917.79
610.76	48189.29
610.92	47730.54
611.07	47934.17
611.23	47894.38
611.38	48142.48
611.54	48252.48
611.69	48208.01
611.84	48484.20
612.00	48397.60
612.15	47716.50
612.31	48184.61
612.46	47379.46
612.62	47597.13
612.77	47870.98
612.92	48200.99
613.08	47793.74
613.23	47749.27
613.39	47735.23
613.54	47299.89
613.69	48048.86
613.85	47758.63
614.00	47756.29
614.15	47943.53
614.31	47515.22
614.46	47601.82
614.62	47566.71
614.77	47800.76
614.92	47955.24
615.08	47634.58
615.23	47927.15
615.38	47693.10
615.54	48172.91
615.69	47716.50
615.84	47833.53
616.00	48011.41
616.15	47945.87
616.30	47978.64
616.46	47870.98
616.61	47569.05
616.76	48130.78
616.92	47505.85
617.07	47639.26
617.22	47068.17
617.37	47299.89
617.53	47459.04
617.68	47730.54
617.83	47199.24
617.99	47716.50
618.14	47906.08
618.29	47061.15
618.45	47196.90
618.60	47002.64
618.75	46703.05
618.90	46972.21
619.06	47316.27
619.21	47241.37
619.36	47384.15
619.51	47122.01
619.67	47248.39
619.82	47206.26
619.97	47122.01
620.12	47292.86
620.28	47007.32
620.43	47695.44
620.58	47103.28
620.73	47367.76
620.89	47253.08
621.04	47236.69
621.19	46878.59
621.34	46728.80
621.49	47304.57
621.65	47180.52
621.80	47161.79
621.95	46740.50
622.10	46831.78
622.25	46693.69
622.41	46656.24
622.56	46986.25
622.71	46990.94
622.86	46548.57
623.01	47105.62
623.16	46916.04
623.32	46831.78
623.47	46630.49
623.62	46787.31
623.77	46810.71
623.92	47068.17
624.07	46813.05
624.23	46724.11
624.38	46714.75
624.53	46387.08
624.68	46714.75
624.83	46358.99
624.98	46658.58
625.13	46054.72
625.29	46192.81
625.44	46384.74
625.59	46220.90
625.74	46356.65
625.89	46190.47
626.04	46251.33
626.19	46045.36
626.34	46368.35
626.49	46433.89
626.65	45996.21
626.80	45968.12
626.95	46127.28
627.10	45888.54
627.25	46267.71
627.40	45944.72
627.55	46000.89
627.70	46335.59
627.85	45874.50
628.00	46241.96
628.15	46347.29
628.30	45537.46
628.45	45825.35
628.60	45352.56
628.76	45682.58
628.91	45764.49
629.06	45492.99
629.21	45474.27
629.36	45551.51
629.51	45921.31
629.66	45989.19
629.81	45748.11
629.96	45504.70
630.11	45532.78
630.26	45610.02
630.41	45455.54
630.56	45514.06
630.71	45345.54
630.86	45705.98
631.01	44945.31
631.16	45095.10
631.31	45483.63
631.46	45801.94
631.61	45525.76
631.76	45298.73
631.91	45329.16
632.06	45998.55
632.21	45588.95
632.36	45722.37
632.51	45251.92
632.66	44996.80
632.81	45099.78
632.96	44957.01
633.10	45055.31
633.25	45581.93
633.40	45478.95
633.55	45617.04
633.70	44945.31
633.85	45027.23
634.00	44580.18
634.15	44776.79
634.30	45525.76
634.45	44940.63
634.60	44903.18
634.75	44687.85
634.90	45125.53
635.05	45006.16
635.19	45022.54
635.34	44952.33
635.49	44446.77
635.64	45029.57
635.79	45404.05
635.94	44678.49
636.09	44645.72
636.24	44650.40
636.39	45092.76
636.53	44495.92
636.68	44526.35
636.83	44308.68
636.98	44350.81
637.13	43948.24
637.28	44130.80
637.43	44425.71
637.57	44247.83
637.72	44252.51
637.87	44259.53
638.02	44666.78
638.17	44563.80
638.32	44013.77
638.46	44158.89
638.61	44116.76
638.76	44105.06
638.91	44172.93
639.06	43667.37
639.20	43800.79
639.35	44280.60
639.50	43861.64
639.65	43887.39
639.80	44449.11
639.94	43880.36
640.09	44491.24
640.24	44109.74
640.39	43922.49
640.54	43217.99
640.68	43973.98
640.83	44112.08
640.98	43906.11
641.13	43763.34
641.27	43927.17
641.42	43847.60
641.57	43683.76
641.72	44079.31
641.86	43758.66
642.01	43260.12
642.16	43454.39
642.31	43423.96
642.45	43629.93
642.60	43346.72
642.75	43264.80
642.90	43569.07
643.04	43629.93
643.19	43536.30
643.34	43536.30
643.48	42974.58
643.63	42918.40
643.78	43419.28
643.93	43772.70
644.07	43489.49
644.22	43346.72
644.37	43363.11
644.51	43505.88
644.66	43152.46
644.81	43512.90
644.95	43316.29
645.10	43122.03
645.25	43349.06
645.39	42808.40
645.54	42763.93
645.69	43117.35
645.83	42983.94
645.98	42948.83
646.13	42487.74
646.27	42955.85
646.42	42515.83
646.57	42747.54
646.71	42759.25
646.86	42857.55
647.00	43042.45
647.15	42714.78
647.30	42775.63
647.44	43517.58
647.59	42665.63
647.74	42792.01
647.88	42487.74
648.03	42918.40
648.17	42864.57
648.32	43002.66
648.47	43056.50
648.61	42815.42
648.76	42590.73
648.90	42660.94
649.05	42752.23
649.20	42071.13
649.34	42520.51
649.49	42691.37
649.63	42724.14
649.78	42808.40
649.92	43019.05
650.07	43072.88
650.21	42532.22
650.36	42698.39
650.51	42759.25
650.65	42522.85
650.80	42045.38
650.94	42745.20
651.09	42045.38
651.23	41867.50
651.38	41986.87
651.52	41832.39
651.67	42223.26
651.81	41448.55
651.96	41883.89
652.10	41581.96
652.25	41832.39
652.39	41956.44
652.54	42092.19
652.68	41956.44
652.83	41851.12
652.97	42120.28
653.12	42349.65
653.26	41804.31
653.41	42131.98
653.55	41911.97
653.70	42005.59
653.84	41998.57
653.99	41729.41
654.13	41633.45
654.27	41710.69
654.42	41647.49
654.56	41911.97
654.71	41626.43
654.85	41563.23
655.00	41654.51
655.14	41612.38
655.29	42071.13
655.43	42146.03
655.57	41715.37
655.72	41338.54
655.86	41216.83
656.01	41603.02
656.15	40973.42
656.30	40753.41
656.44	41317.48
656.58	41268.33
656.73	41790.27
656.87	40713.62
657.01	40718.30
657.16	40917.25
657.30	41394.71
657.45	41268.33
657.59	40643.40
657.73	40425.73
657.88	40886.82
658.02	41038.95
658.16	40917.25
658.31	41172.36
658.45	40851.71
658.60	41130.23
658.74	40882.14
658.88	40938.31
659.03	40521.69
659.17	40636.38
659.31	40612.98
659.46	40282.96
659.60	40676.17
659.74	40378.92
659.89	40226.79
660.03	40006.78
660.17	40278.28
660.32	40638.72
660.46	40179.98
660.60	39744.64
660.74	40084.01
660.89	40414.03
661.03	39711.87
661.17	39552.71
661.32	39915.50
661.46	40205.72
661.60	39679.10
661.74	39892.09
661.89	39725.91
662.03	39775.06
662.17	39978.69
662.31	39524.63
662.46	39789.11
662.60	39126.74
662.74	39653.36
662.88	39222.70
663.03	39236.74
663.17	39433.35
663.31	38375.42
663.45	39290.57
663.60	39463.77
663.74	39089.29
663.88	39232.06
664.02	38792.04
664.17	39269.51
664.31	38857.57
664.45	38679.69
664.59	38845.87
664.73	38546.28
664.88	38735.87
665.02	38918.43
665.16	38455.00
665.30	38632.88
665.44	38197.54
665.59	37867.53
665.73	38075.84
665.87	37675.60
666.01	37991.58
666.15	38106.26
666.29	38141.37
666.44	38181.16
666.58	37787.95
666.72	37741.14
666.86	38263.08
667.00	38082.86
667.14	37720.07
667.28	37666.24
667.43	37333.89
667.57	37701.35
667.71	38237.33
667.85	37872.21
667.99	37619.43
668.13	37565.60
668.27	37102.17
668.41	36987.49
668.56	36950.04
668.70	36837.69
668.84	36636.41
668.98	36844.71
669.12	36854.08
669.26	36652.79
669.40	36786.20
669.54	36828.33
669.68	36807.26
669.82	36470.23
669.96	36161.28
670.10	36385.97
670.25	36519.38
670.39	36617.68
670.53	36910.25
670.67	36196.38
670.81	36322.77
670.95	36271.28
671.09	35498.91
671.23	35784.45
671.37	36268.94
671.51	35442.73
671.65	35976.37
671.79	35524.65
671.93	35920.20
672.07	35449.75
672.21	35454.44
672.35	35171.23
672.49	35363.15
672.63	35227.40
672.77	35082.29
672.91	35545.72
673.05	35269.53
673.19	34993.35
673.33	35342.09
673.47	34873.98
673.61	34609.50
673.75	34829.51
673.89	34653.97
674.03	34197.57
674.17	33638.18
674.31	34101.61
674.45	33905.00
674.59	34384.81
674.73	34213.95
674.87	33537.54
675.01	34022.03
675.15	33652.22
675.29	33720.10
675.43	33654.56
675.56	33593.71
675.70	33696.69
675.84	33507.11
675.98	32442.17
676.12	33329.23
676.26	33179.43
676.40	32931.34
676.54	33104.54
676.68	32926.66
676.82	32257.26
676.96	32910.27
677.10	32917.29
677.23	32837.72
677.37	32577.92
677.51	32542.81
677.65	32329.82
677.79	32217.47
677.93	32079.38
678.07	31978.74
678.21	31924.91
678.34	31522.34
678.48	31662.77
678.62	31491.91
678.76	31386.58
678.90	31356.16
679.04	31803.20
679.18	31480.21
679.31	31342.11
679.45	30902.09
679.59	30714.85
679.73	30803.79
679.87	30356.75
680.00	30829.54
680.14	30918.48
680.28	30492.50
680.42	30256.11
680.56	30122.69
680.70	30300.58
680.83	30115.67
680.97	29780.98
681.11	29958.86
681.25	29820.77
681.39	29259.04
681.52	29551.60
681.66	29120.95
681.80	28898.59
681.94	28811.99
682.07	28896.25
682.21	28793.27
682.35	28638.80
682.49	28875.19
682.62	28755.82
682.76	28748.80
682.90	28669.22
683.04	28739.44
683.17	28416.44
683.31	28222.18
683.45	28641.14
683.59	27775.14
683.72	27683.86
683.86	27623.00
684.00	27749.39
684.13	27683.86
684.27	27410.01
684.41	27508.32
684.55	27349.16
684.68	27126.81
684.82	26813.18
684.96	27300.01
685.09	27075.32
685.23	27271.92
685.37	27197.02
685.50	27274.26
685.64	27023.83
685.78	26574.44
685.91	26590.83
686.05	25993.99
686.19	25886.32
686.32	26155.49
686.46	26024.42
686.60	25556.31
686.73	25888.67
686.87	25867.60
687.01	25638.23
687.14	25816.11
687.28	25343.32
687.42	25528.22
687.55	25151.40
687.69	25170.12
687.82	25116.29
687.96	25170.12
688.10	25130.33
688.23	24732.44
688.37	25249.70
688.50	25092.88
688.64	24587.33
688.78	24779.25
688.91	24699.67
689.05	24662.22
689.18	24308.80
689.32	23843.04
689.46	23679.20
689.59	23704.95
689.73	24229.23
689.86	23697.92
690.00	23967.09
690.13	23906.23
690.27	23482.59
690.41	23608.98
690.54	23307.05
690.68	23168.96
690.81	23225.14
690.95	23056.62
691.08	23040.23
691.22	22890.44
691.35	22726.60
691.49	23000.44
691.62	22733.62
691.76	22382.54
691.89	21804.43
692.03	21902.73
692.16	22270.20
692.30	21884.01
692.43	21998.70
692.57	21525.91
692.70	21600.80
692.84	21874.65
692.97	21235.68
693.11	21411.22
693.24	21357.39
693.38	21362.07
693.51	21015.67
693.65	21296.53
693.78	21142.06
693.92	20765.23
694.05	20482.03
694.19	20798.00
694.32	20566.29
694.45	20807.36
694.59	20741.83
694.72	20393.09
694.86	20341.60
694.99	20187.12
695.13	19985.83
695.26	19903.92
695.39	19770.51
695.53	19826.68
695.66	19941.36
695.80	19594.96
695.93	19697.95
696.07	19749.44
696.20	18920.89
696.33	19295.38
696.47	19236.86
696.60	19021.53
696.73	19449.85
696.87	19435.81
697.00	19117.50
697.14	18831.95
697.27	18705.56
697.40	18637.69
697.54	18838.97
697.67	18616.62
697.80	18590.88
697.94	18338.10
698.07	18176.60
698.21	18263.20
698.34	18567.47
698.47	17881.69
698.61	17853.61
698.74	17500.19
698.87	17820.84
699.01	17322.30
699.14	17640.62
699.27	17612.53
699.40	17371.46
699.54	17352.73
699.67	17216.98
699.80	17446.35
699.94	17186.55
700.07	16673.98
700.20	16704.40
700.34	17156.13
700.47	16901.01
700.60	16769.94
700.73	16582.70
700.87	16460.99
701.00	16163.74
701.13	16531.20
701.26	16060.76
701.40	16346.30
701.53	15805.64
701.66	15957.77
701.79	15946.07
701.93	15779.89
702.06	15786.91
702.19	15527.11
702.32	15922.66
702.46	15733.08
702.59	15733.08
702.72	15630.10
702.85	15606.69
702.99	15283.70
703.12	15323.49
703.25	15026.24
703.38	15133.90
703.51	15023.90
703.65	15044.96
703.78	14689.20
703.91	14874.10
704.04	14457.49
704.17	14387.27
704.31	14532.39
704.44	14747.72
704.57	14656.43
704.70	14366.21
704.83	14396.64
704.96	14204.71
705.10	14054.92
705.23	13909.80
>>>>>End Processed Spectral Data<<<<<
