SpectraSuite Data File
++++++++++++++++++++++++++++++++++++
Date: Fri Oct 25 10:48:28 EDT 2013
User: price-jones
Dark Spectrum Present: No
Reference Spectrum Present: No
Number of Sampled Component Spectra: 1
Spectrometers: USB2+H05261
Integration Time (usec): 100000 (USB2+H05261)
Spectra Averaged: 1 (USB2+H05261)
Boxcar Smoothing: 0 (USB2+H05261)
Correct for Electrical Dark: No (USB2+H05261)
Strobe/Lamp Enabled: No (USB2+H05261)
Correct for Detector Non-linearity: No (USB2+H05261)
Correct for Stray Light: No (USB2+H05261)
Number of Pixels in Processed Spectrum: 2048
>>>>>Begin Processed Spectral Data<<<<<
365.73	88.94
365.92	88.94
366.12	88.94
366.32	105.32
366.52	23.41
366.72	30.43
366.91	0.00
367.11	39.79
367.31	2.34
367.51	46.81
367.70	11.70
367.90	30.43
368.10	44.47
368.30	37.45
368.49	95.96
368.69	56.17
368.89	39.79
369.09	70.22
369.28	79.58
369.48	67.88
369.68	121.71
369.87	105.32
370.07	74.90
370.27	163.84
370.47	220.01
370.66	318.31
370.86	437.68
371.06	407.25
371.25	507.90
371.45	491.51
371.65	470.45
371.84	486.83
372.04	472.79
372.24	519.60
372.44	489.17
372.63	458.74
372.83	566.41
373.03	573.43
373.22	514.92
373.42	531.30
373.62	564.07
373.81	561.73
374.01	575.77
374.21	585.13
374.40	627.26
374.60	587.47
374.79	645.99
374.99	540.66
375.19	613.22
375.38	589.82
375.58	606.20
375.78	582.79
375.97	678.76
376.17	671.73
376.37	624.92
376.56	638.97
376.76	585.13
376.95	627.26
377.15	655.35
377.35	751.31
377.54	634.29
377.74	711.52
377.93	690.46
378.13	662.37
378.33	695.14
378.52	634.29
378.72	690.46
378.91	683.44
379.11	699.82
379.31	753.65
379.50	608.54
379.70	676.41
379.89	664.71
380.09	650.67
380.28	784.08
380.48	786.42
380.68	674.07
380.87	636.63
381.07	727.91
381.26	692.80
381.46	786.42
381.65	727.91
381.85	751.31
382.04	755.99
382.24	748.97
382.43	741.95
382.63	734.93
382.83	711.52
383.02	788.76
383.22	767.70
383.41	763.01
383.61	837.91
383.80	798.12
384.00	816.85
384.19	866.00
384.39	800.46
384.58	826.21
384.78	875.36
384.97	858.98
385.17	884.72
385.36	812.17
385.56	793.44
385.75	861.32
385.95	896.43
386.14	924.51
386.34	802.80
386.53	847.27
386.72	798.12
386.92	814.51
387.11	901.11
387.31	936.21
387.50	840.25
387.70	926.85
387.89	891.74
388.09	870.68
388.28	877.70
388.48	938.55
388.67	943.24
388.86	990.05
389.06	931.53
389.25	1006.43
389.45	1060.26
389.64	1036.86
389.84	1064.94
390.03	929.19
390.22	915.15
390.42	1013.45
390.61	1015.79
390.81	999.41
391.00	1071.97
391.19	1041.54
391.39	1069.62
391.58	1053.24
391.78	1034.52
391.97	1100.05
392.16	1151.54
392.36	1067.28
392.55	1020.47
392.75	976.00
392.94	1046.22
393.13	1069.62
393.33	1081.33
393.52	1053.24
393.71	1109.41
393.91	1130.48
394.10	1196.01
394.29	1139.84
394.49	1198.35
394.68	1256.87
394.88	1210.06
395.07	1207.72
395.26	1142.18
395.46	1212.40
395.65	1303.68
395.84	1287.29
396.04	1291.98
396.23	1188.99
396.42	1121.12
396.62	1210.06
396.81	1174.95
397.00	1240.48
397.19	1324.74
397.39	1371.55
397.58	1310.70
397.77	1308.36
397.97	1441.77
398.16	1474.54
398.35	1472.20
398.55	1348.15
398.74	1542.41
398.93	1565.82
399.12	1511.99
399.32	1472.20
399.51	1537.73
399.70	1565.82
399.90	1474.54
400.09	1570.50
400.28	1713.27
400.47	1584.54
400.67	1668.80
400.86	1572.84
401.05	1680.50
401.24	1696.89
401.44	1795.19
401.63	1746.04
401.82	1739.02
402.01	1671.14
402.21	1741.36
402.40	1729.66
402.59	1762.42
402.78	1802.21
402.97	1727.32
403.17	1743.70
403.36	1722.63
403.55	1916.90
403.74	1959.03
403.93	1856.04
404.13	1879.45
404.32	1898.17
404.51	1895.83
404.70	1996.48
404.89	2019.88
405.09	1956.69
405.28	2012.86
405.47	1940.30
405.66	1942.64
405.85	1989.46
406.05	2008.18
406.24	2038.61
406.43	2073.71
406.62	2031.58
406.81	2017.54
407.00	2083.08
407.20	2054.99
407.39	2155.63
407.58	2071.37
407.77	2221.17
407.96	2267.98
408.15	2214.15
408.34	2136.91
408.54	2193.08
408.73	2270.32
408.92	2291.38
409.11	2291.38
409.30	2270.32
409.49	2307.77
409.68	2317.13
409.87	2317.13
410.07	2270.32
410.26	2551.18
410.45	2324.15
410.64	2345.22
410.83	2548.84
411.02	2473.95
411.21	2621.40
411.40	2546.50
411.59	2628.42
411.78	2670.55
411.98	2581.61
412.17	2808.64
412.36	2698.64
412.55	2623.74
412.74	2792.26
412.93	2778.22
413.12	2726.72
413.31	2871.84
413.50	2712.68
413.69	2822.69
413.88	2928.01
414.07	2775.88
414.26	2803.96
414.45	3033.33
414.64	2920.99
414.83	2974.82
415.02	2986.52
415.22	2991.20
415.41	3103.55
415.60	3211.22
415.79	3265.05
415.98	3192.49
416.17	3173.77
416.36	3304.84
416.55	3213.56
416.74	3222.92
416.93	3316.54
417.12	3323.56
417.31	3382.07
417.50	3332.92
417.69	3438.25
417.88	3344.63
418.07	3438.25
418.26	3445.27
418.45	3522.51
418.64	3590.38
418.83	3463.99
419.02	3454.63
419.21	3515.48
419.39	3463.99
419.58	3424.20
419.77	3541.23
419.96	3754.22
420.15	3789.33
420.34	3662.94
420.53	3576.34
420.72	3772.94
420.91	3702.73
421.10	3777.62
421.29	3882.95
421.48	3794.01
421.67	3836.14
421.86	3726.13
422.05	3815.07
422.24	3740.18
422.43	3822.09
422.61	3728.47
422.80	3904.01
422.99	3791.67
423.18	3899.33
423.37	4060.83
423.56	3866.56
423.75	3997.64
423.94	3824.44
424.13	3646.55
424.32	3632.51
424.50	4086.58
424.69	3988.27
424.88	4025.72
425.07	3992.95
425.26	3810.39
425.45	3794.01
425.64	3943.80
425.83	3880.61
426.01	4018.70
426.20	4011.68
426.39	4023.38
426.58	4049.13
426.77	3971.89
426.96	3985.93
427.15	3997.64
427.33	4145.09
427.52	4002.32
427.71	4093.60
427.90	4159.13
428.09	4147.43
428.28	4131.05
428.46	4152.11
428.65	4180.20
428.84	4231.69
429.03	4243.39
429.22	4187.22
429.40	4196.58
429.59	4037.42
429.78	4063.17
429.97	4002.32
430.16	4044.45
430.34	4145.09
430.53	4231.69
430.72	4344.03
430.91	4400.21
431.10	4341.69
431.28	4486.81
431.47	4603.83
431.66	4699.80
431.85	4484.47
432.03	4711.50
432.22	4760.65
432.41	4688.09
432.60	4739.58
432.79	4709.16
432.97	4571.07
433.16	4774.69
433.35	4718.52
433.54	4634.26
433.72	4627.24
433.91	4589.79
434.10	4697.46
434.28	4765.33
434.47	4788.74
434.66	4868.31
434.85	4847.25
435.03	4980.66
435.22	4952.57
435.41	5210.03
435.59	4994.70
435.78	5029.81
435.97	5149.18
436.16	5362.17
436.34	5100.03
436.53	5069.60
436.72	5181.95
436.90	4938.53
437.09	5195.99
437.28	5109.39
437.46	5170.24
437.65	5163.22
437.84	5282.59
438.02	5057.90
438.21	5116.41
438.40	5137.48
438.58	5399.62
438.77	5448.77
438.96	5345.78
439.14	5645.37
439.33	5572.82
439.52	5703.89
439.70	5521.32
439.89	5624.31
440.08	5636.01
440.26	5621.97
440.45	5633.67
440.63	5792.83
440.82	5893.47
441.01	5996.45
441.19	5872.40
441.38	6054.97
441.57	6071.35
441.75	6111.14
441.94	6291.36
442.12	6160.29
442.31	6235.19
442.50	6223.48
442.68	6167.31
442.87	6354.55
443.05	6239.87
443.24	6368.60
443.43	6326.47
443.61	6487.96
443.80	6705.63
443.98	6384.98
444.17	6310.08
444.35	6445.84
444.54	6572.22
444.73	6394.34
444.91	6511.37
445.10	6436.47
445.28	6502.01
445.47	6303.06
445.65	6392.00
445.84	6574.56
446.02	6478.60
446.21	6640.10
446.39	6408.39
446.58	6609.67
446.77	6572.22
446.95	6583.93
447.14	6771.17
447.32	6647.12
447.51	6750.10
447.69	6689.25
447.88	6832.02
448.06	6766.49
448.25	6661.16
448.43	6647.12
448.62	6733.72
448.80	6612.01
448.99	6806.28
449.17	6780.53
449.36	6862.45
449.54	6855.43
449.73	6956.07
449.91	7005.22
450.10	7005.22
450.28	7206.51
450.46	7155.02
450.65	7124.59
450.83	7297.79
451.02	7178.42
451.20	7253.32
451.39	7112.89
451.57	7213.53
451.76	7080.12
451.94	7225.23
452.13	7297.79
452.31	7272.04
452.49	6986.50
452.68	7229.91
452.86	7201.83
453.05	7363.33
453.23	7281.41
453.42	7180.76
453.60	7452.27
453.78	7618.44
453.97	7311.83
454.15	7417.16
454.34	7335.24
454.52	7646.53
454.70	7372.69
454.89	7489.71
455.07	7576.31
455.26	7730.79
455.44	7634.83
455.62	7803.35
455.81	7716.75
455.99	7611.42
456.17	7866.54
456.36	7700.36
456.54	7932.08
456.73	7840.79
456.91	8187.19
457.09	7889.95
457.28	8313.58
457.46	7999.95
457.64	8086.55
457.83	8023.36
458.01	7960.16
458.19	8170.81
458.38	8093.57
458.56	8140.38
458.74	8203.58
458.93	8325.29
459.11	8168.47
459.29	8234.00
459.48	8229.32
459.66	8341.67
459.84	8423.59
460.03	8423.59
460.21	8540.61
460.39	8423.59
460.57	8374.44
460.76	8484.44
460.94	8531.25
461.12	8695.09
461.31	8493.80
461.49	8603.81
461.67	8573.38
461.85	8786.37
462.04	8683.39
462.22	9259.16
462.40	8847.22
462.59	8982.98
462.77	8788.71
462.95	8884.67
463.13	8809.78
463.32	8727.86
463.50	8931.48
463.68	9001.70
463.86	8959.57
464.05	8858.93
464.23	8943.19
464.41	9261.50
464.59	8758.28
464.78	9071.92
464.96	9032.13
465.14	8870.63
465.32	9111.71
465.50	9226.39
465.69	9280.22
465.87	9275.54
466.05	8950.21
466.23	9121.07
466.41	9329.38
466.60	9432.36
466.78	9312.99
466.96	9177.24
467.14	9210.01
467.32	9523.64
467.51	9621.94
467.69	9149.15
467.87	9397.25
468.05	9488.53
468.23	9256.82
468.41	9507.26
468.60	9301.29
468.78	9547.05
468.96	9530.66
469.14	9612.58
469.32	9907.49
469.50	9593.86
469.69	9781.10
469.87	9703.86
470.05	9689.82
470.23	9811.53
470.41	9966.00
470.59	9715.56
470.77	9832.59
470.95	10008.13
471.14	10122.82
471.32	9980.04
471.50	10174.31
471.68	10326.44
471.86	10251.55
472.04	10448.15
472.22	10654.12
472.40	10265.59
472.58	10422.41
472.77	10375.59
472.95	10696.25
473.13	10860.09
473.31	10541.77
473.49	10583.90
473.67	10436.45
473.85	10562.84
474.03	10871.79
474.21	10890.51
474.39	11061.37
474.57	10846.04
474.75	11262.66
474.93	11136.27
475.12	11080.10
475.30	11297.77
475.48	11229.89
475.66	11335.21
475.84	11405.43
476.02	11414.79
476.20	11658.21
476.38	11620.76
476.56	11819.71
476.74	11698.00
476.92	11698.00
477.10	11721.40
477.28	11946.09
477.46	11808.00
477.64	12229.30
477.82	12367.39
478.00	12692.73
478.18	12409.52
478.36	12381.43
478.54	12620.17
478.72	12872.95
478.90	12950.18
479.08	13261.48
479.26	13097.64
479.44	13394.89
479.62	13118.70
479.80	13383.18
479.98	13511.91
480.16	13621.92
480.34	13701.50
480.52	13776.39
480.70	13701.50
480.88	13696.82
481.06	13879.38
481.24	13844.27
481.41	14178.97
481.59	14469.19
481.77	14600.26
481.95	14427.06
482.13	14511.32
482.31	14572.18
482.49	14773.46
482.67	14569.83
482.85	14967.73
483.03	15112.84
483.21	15454.56
483.39	15152.63
483.57	15379.66
483.74	15309.44
483.92	15571.58
484.10	15646.48
484.28	16030.33
484.46	16102.89
484.64	16421.20
484.82	15990.54
485.00	16137.99
485.18	16496.10
485.35	16386.09
485.53	16259.70
485.71	16395.45
485.89	16666.95
486.07	16741.85
486.25	16587.38
486.43	16919.73
486.61	16961.86
486.78	17385.50
486.96	17280.18
487.14	18054.89
487.32	17743.60
487.50	17788.07
487.68	18232.77
487.85	18391.93
488.03	18630.66
488.21	18665.77
488.39	18607.26
488.57	18745.35
488.75	18689.18
488.92	19070.68
489.10	19297.72
489.28	19073.03
489.46	19681.56
489.64	19683.91
489.81	20032.65
489.99	20116.90
490.17	19953.07
490.35	20538.20
490.53	20027.96
490.70	20622.46
490.88	20400.11
491.06	21081.21
491.24	20624.80
491.41	20769.91
491.59	20917.37
491.77	20828.43
491.95	20999.29
492.13	21383.13
492.30	21448.67
492.48	21834.86
492.66	21914.44
492.84	21701.45
493.01	22277.22
493.19	22209.34
493.37	22333.39
493.54	22628.30
493.72	22565.10
493.90	22415.31
494.08	22810.86
494.25	23087.04
494.43	23461.53
494.61	23550.47
494.79	23339.82
494.96	23396.00
495.14	23639.41
495.32	23730.69
495.49	23674.52
495.67	23861.76
495.85	24065.39
496.02	24332.21
496.20	24322.85
496.38	24568.60
496.55	24491.37
496.73	25181.82
496.91	24704.35
497.09	25116.29
497.26	25092.88
497.44	24994.58
497.62	25511.84
497.79	25418.22
497.97	25233.32
498.14	25343.32
498.32	25680.36
498.50	25682.70
498.67	25771.64
498.85	25869.94
499.03	26089.95
499.20	26583.80
499.38	26473.80
499.56	26462.10
499.73	26340.39
499.91	26480.82
500.08	27070.64
500.26	26457.42
500.44	26707.85
500.61	26881.05
500.79	26906.80
500.97	26923.18
501.14	27398.31
501.32	27117.45
501.49	27229.79
501.67	27213.41
501.84	27346.82
502.02	27405.33
502.20	27946.00
502.37	27941.32
502.55	27742.37
502.72	28051.32
502.90	28016.21
503.07	28048.98
503.25	28451.55
503.43	28023.23
503.60	28180.05
503.78	28264.31
503.95	28318.14
504.13	28435.17
504.30	28978.17
504.48	28643.48
504.65	29053.07
504.83	29071.79
505.01	29298.83
505.18	29116.26
505.36	29881.62
505.53	29359.68
505.71	30108.65
505.88	30260.79
506.06	29406.49
506.23	29736.51
506.41	29567.99
506.58	29989.28
506.76	30230.36
506.93	30244.40
507.11	29944.81
507.28	30263.13
507.46	29968.22
507.63	30307.60
507.81	30686.76
507.98	30087.59
508.16	30436.33
508.33	30581.44
508.50	30630.59
508.68	31108.06
508.85	31218.07
509.03	30967.63
509.20	31225.09
509.38	31082.31
509.55	31477.86
509.73	31758.73
509.90	31447.44
510.08	31807.88
510.25	31534.04
510.42	31952.99
510.60	31709.58
510.77	32144.92
510.95	32381.31
511.12	32236.20
511.30	31990.44
511.47	32713.67
511.64	32306.41
511.82	32786.22
511.99	32311.10
512.17	32624.73
512.34	32055.98
512.51	32877.51
512.69	32907.93
512.86	32966.45
513.04	33120.92
513.21	32903.25
513.38	32500.68
513.56	32954.74
513.73	32980.49
513.90	33446.26
514.08	33354.97
514.25	33333.91
514.43	33376.04
514.60	33212.20
514.77	33008.58
514.95	33670.95
515.12	33766.91
515.29	33926.07
515.47	34251.40
515.64	33895.64
515.81	34176.50
515.99	33621.80
516.16	33647.54
516.33	33851.17
516.51	33979.90
516.68	33673.29
516.85	33488.38
517.03	34019.69
517.20	33919.04
517.37	34450.35
517.54	34209.27
517.72	34309.91
517.89	34256.08
518.06	34330.98
518.24	34668.02
518.41	33963.51
518.58	34576.73
518.75	34558.01
518.93	35409.96
519.10	35005.05
519.27	34930.16
519.45	35360.81
519.62	35274.21
519.79	35489.54
519.96	35545.72
520.14	35941.27
520.31	35587.85
520.48	35735.30
520.65	35920.20
520.83	36077.02
521.00	36086.38
521.17	35903.82
521.34	36282.98
521.52	36470.23
521.69	36065.31
521.86	35838.28
522.03	36182.34
522.20	36624.70
522.38	36423.42
522.55	36542.78
522.72	36676.19
522.89	36746.41
523.07	36570.87
523.24	36414.05
523.41	37125.58
523.58	36797.90
523.75	37471.98
523.92	37469.64
524.10	37621.77
524.27	37448.57
524.44	37200.47
524.61	37734.12
524.78	37865.19
524.96	37471.98
525.13	37518.79
525.30	38319.25
525.47	37797.31
525.64	38096.90
525.81	37993.92
525.98	37659.22
526.16	37404.10
526.33	37350.27
526.50	37703.69
526.67	37113.87
526.84	37642.84
527.01	37846.46
527.18	37691.99
527.36	38394.15
527.53	38775.66
527.70	38721.82
527.87	38562.67
528.04	38735.87
528.21	38810.76
528.38	38768.63
528.55	38590.75
528.72	38911.41
528.89	38986.30
529.07	39274.19
529.24	38773.31
529.41	39028.43
529.58	38796.72
529.75	39321.00
529.92	39159.50
530.09	39143.12
530.26	39288.23
530.43	39386.54
530.60	39187.59
530.77	39438.03
530.94	39615.91
531.11	39367.81
531.28	40100.40
531.46	39945.92
531.63	39908.47
531.80	39924.86
531.97	39629.95
532.14	39749.32
532.31	39672.08
532.48	39566.76
532.65	40212.74
532.82	39562.08
532.99	40210.40
533.16	40149.55
533.33	39821.87
533.50	40531.06
533.67	40163.59
533.84	40325.09
534.01	40112.10
534.18	40360.20
534.35	40069.97
534.52	40636.38
534.69	40652.76
534.86	40837.67
535.03	40304.02
535.20	40809.58
535.37	41095.13
535.54	41649.83
535.71	40568.51
535.88	41088.10
536.05	40671.49
536.22	41109.17
536.38	40837.67
536.55	41179.39
536.72	41289.39
536.89	40938.31
537.06	40952.35
537.23	41181.73
537.40	41373.65
537.57	41216.83
537.74	41261.30
537.91	42202.20
538.08	41326.84
538.25	41003.85
538.42	41312.80
538.59	42036.02
538.75	41109.17
538.92	41710.69
539.09	41521.10
539.26	41937.72
539.43	41436.84
539.60	41581.96
539.77	41698.98
539.94	41551.53
540.11	41844.10
540.28	41633.45
540.44	41640.47
540.61	41556.21
540.78	41792.61
540.95	42057.09
541.12	41734.09
541.29	42129.64
541.46	42007.94
541.62	42120.28
541.79	42602.43
541.96	42117.94
542.13	42256.03
542.30	42485.40
542.47	42904.36
542.63	42043.04
542.80	42789.67
542.97	43091.60
543.14	43253.10
543.31	42649.24
543.48	42876.27
543.64	43676.74
543.81	43192.25
543.98	42733.50
544.15	42628.18
544.32	43405.23
544.48	43229.69
544.65	43199.27
544.82	43107.99
544.99	42483.06
545.16	43234.38
545.32	43185.22
545.49	43262.46
545.66	43634.61
545.83	43634.61
546.00	43952.92
546.16	43885.04
546.33	43653.33
546.50	43222.67
546.67	43718.87
546.83	43194.59
547.00	43402.89
547.17	43693.12
547.34	43407.58
547.50	43772.70
547.67	43789.08
547.84	43753.97
548.00	44163.57
548.17	44156.55
548.34	43711.84
548.51	44257.19
548.67	44105.06
548.84	44158.89
549.01	44535.71
549.18	44161.23
549.34	44168.25
549.51	44341.45
549.68	44313.36
549.84	44275.91
550.01	44191.65
550.18	44037.18
550.34	44142.50
550.51	44294.64
550.68	44060.58
550.84	44018.46
551.01	44545.08
551.18	44378.90
551.34	44292.30
551.51	44772.11
551.68	44580.18
551.84	44687.85
552.01	44371.88
552.18	44547.42
552.34	44226.76
552.51	44744.02
552.68	44802.53
552.84	45001.48
553.01	45099.78
553.18	44800.19
553.34	44495.92
553.51	44914.88
553.67	45268.30
553.84	45193.40
554.01	45205.11
554.17	44957.01
554.34	45205.11
554.51	45315.11
554.67	44741.68
554.84	44945.31
555.00	44617.63
555.17	44945.31
555.33	45305.75
555.50	44811.90
555.67	45441.50
555.83	45366.60
556.00	45146.59
556.16	45626.40
556.33	45474.27
556.50	45373.63
556.66	45443.84
556.83	45006.16
556.99	45455.54
557.16	45511.72
557.32	45382.99
557.49	45272.98
557.65	45179.36
557.82	45584.27
557.98	45944.72
558.15	45570.23
558.32	45806.62
558.48	45588.95
558.65	45673.21
558.81	45619.38
558.98	45698.96
559.14	45338.52
559.31	45347.88
559.47	45504.70
559.64	45935.35
559.80	46017.27
559.97	45900.25
560.13	45874.50
560.30	45574.91
560.46	45893.22
560.63	45677.90
560.79	45944.72
560.96	45982.16
561.12	45427.46
561.29	45937.69
561.45	45872.16
561.61	45940.04
561.78	45591.30
561.94	45886.20
562.11	45783.22
562.27	45759.81
562.44	45963.44
562.60	46307.50
562.77	46335.59
562.93	45722.37
563.10	46075.79
563.26	46066.42
563.42	46190.47
563.59	46087.49
563.75	46075.79
563.92	46122.60
564.08	46576.66
564.24	46405.80
564.41	46059.40
564.57	46440.91
564.74	46089.83
564.90	46298.14
565.07	46164.73
565.23	45823.01
565.39	46256.01
565.56	46153.02
565.72	45867.48
565.88	46106.21
566.05	45925.99
566.21	45996.21
566.38	46183.45
566.54	45872.16
566.70	46564.96
566.87	46232.60
567.03	46370.69
567.19	46625.81
567.36	46106.21
567.52	45916.63
567.68	46499.42
567.85	45956.42
568.01	46164.73
568.17	46438.57
568.34	46316.86
568.50	46096.85
568.66	46333.24
568.83	46197.49
568.99	46349.63
569.15	46141.32
569.32	46553.26
569.48	46202.18
569.64	46375.37
569.81	46553.26
569.97	46192.81
570.13	46602.41
570.30	46021.95
570.46	46340.27
570.62	46192.81
570.78	46433.89
570.95	46225.58
571.11	46752.20
571.27	46630.49
571.43	46389.42
571.60	46293.46
571.76	46248.99
571.92	46412.82
572.09	46321.54
572.25	46202.18
572.41	46356.65
572.57	46450.27
572.74	46880.93
572.90	46843.48
573.06	46784.97
573.22	46740.50
573.38	46845.82
573.55	46452.61
573.71	46782.63
573.87	46862.21
574.03	46548.57
574.20	46429.21
574.36	46335.59
574.52	46387.08
574.68	46398.78
574.84	46560.28
575.01	46534.53
575.17	46691.35
575.33	46560.28
575.49	46045.36
575.65	46630.49
575.82	46937.10
575.98	46450.27
576.14	46794.33
576.30	46637.51
576.46	46672.62
576.62	46635.17
576.79	46623.47
576.95	46298.14
577.11	46342.61
577.27	46890.29
577.43	46625.81
577.59	46653.90
577.75	46511.13
577.92	46160.05
578.08	46185.79
578.24	45965.78
578.40	46527.51
578.56	46258.35
578.72	46473.68
578.88	46670.28
579.04	46630.49
579.21	46745.18
579.37	46305.16
579.53	46607.09
579.69	46674.96
579.85	46911.36
580.01	46178.77
580.17	46742.84
580.33	46902.00
580.49	46768.58
580.65	46698.37
580.82	46796.67
580.98	46777.95
581.14	46483.04
581.30	46564.96
581.46	46590.70
581.62	46815.40
581.78	47112.64
581.94	46958.17
582.10	46953.49
582.26	46934.76
582.42	47084.56
582.58	46761.56
582.74	46405.80
582.90	46733.48
583.06	47016.68
583.22	46614.11
583.38	46916.04
583.54	46981.57
583.70	46600.07
583.86	46492.40
584.02	46211.54
584.18	47014.34
584.34	46843.48
584.50	46651.56
584.66	46632.83
584.82	46871.57
584.98	46789.65
585.14	46855.18
585.30	46555.60
585.46	47056.47
585.62	46897.31
585.78	46323.88
585.94	46333.24
586.10	46579.00
586.26	46251.33
586.42	46515.81
586.58	47119.66
586.74	46803.69
586.90	46770.93
587.06	46794.33
587.22	47145.41
587.38	46272.39
587.54	47110.30
587.70	46562.62
587.86	46719.43
588.02	46424.53
588.18	46525.17
588.34	46724.11
588.49	46307.50
588.65	46281.75
588.81	46101.53
588.97	46160.05
589.13	46419.84
589.29	46246.65
589.45	46094.51
589.61	46497.08
589.77	47068.17
589.93	46740.50
590.08	47000.30
590.24	47049.45
590.40	46698.37
590.56	46972.21
590.72	46887.95
590.88	46529.85
591.04	46515.81
591.20	47234.35
591.35	46997.96
591.51	47194.56
591.67	46866.89
591.83	46426.87
591.99	46843.48
592.15	46586.02
592.31	46820.08
592.46	46962.85
592.62	47105.62
592.78	46909.02
592.94	46829.44
593.10	46920.72
593.26	47327.97
593.41	46799.01
593.57	46745.18
593.73	46944.12
593.89	46689.01
594.05	47040.09
594.20	46525.17
594.36	47089.24
594.52	47107.96
594.68	46988.60
594.84	46562.62
594.99	47267.12
595.15	47412.23
595.31	47040.09
595.47	46897.31
595.62	46892.63
595.78	47124.35
595.94	47173.50
596.10	47512.88
596.25	47175.84
596.41	47185.20
596.57	47334.99
596.73	47239.03
596.88	46817.74
597.04	47271.80
597.20	47096.26
597.36	47093.92
597.51	47054.13
597.67	46684.33
597.83	46801.35
597.99	46862.21
598.14	47278.82
598.30	47419.25
598.46	47122.01
598.61	47182.86
598.77	46890.29
598.93	46492.40
599.09	46911.36
599.24	46864.55
599.40	47316.27
599.56	47040.09
599.71	47316.27
599.87	47213.29
600.03	46941.78
600.18	47180.52
600.34	46904.34
600.50	46997.96
600.65	47208.61
600.81	47192.22
600.97	47215.63
601.12	47557.35
601.28	47138.39
601.44	46976.89
601.59	46745.18
601.75	46712.41
601.91	46794.33
602.06	46799.01
602.22	46899.65
602.37	46880.93
602.53	47194.56
602.69	46976.89
602.84	47365.42
603.00	46986.25
603.16	46808.37
603.31	46988.60
603.47	46997.96
603.62	47051.79
603.78	47187.54
603.94	46611.77
604.09	47278.82
604.25	47370.10
604.40	46948.81
604.56	46967.53
604.71	47009.66
604.87	46974.55
605.03	46997.96
605.18	46506.44
605.34	46782.63
605.49	46375.37
605.65	47105.62
605.80	46782.63
605.96	46974.55
606.12	47082.22
606.27	46850.50
606.43	46698.37
606.58	47007.32
606.74	46314.52
606.89	46827.10
607.05	46670.28
607.20	46761.56
607.36	46454.95
607.51	47063.49
607.67	46644.54
607.82	46712.41
607.98	46754.54
608.13	46471.34
608.29	46216.22
608.44	46239.62
608.60	46426.87
608.75	46513.47
608.91	46017.27
609.06	46494.74
609.22	46887.95
609.37	46864.55
609.53	46511.13
609.68	46244.30
609.84	45975.14
609.99	46429.21
610.15	46274.73
610.30	46258.35
610.46	46017.27
610.61	46415.16
610.76	46431.55
610.92	46380.06
611.07	46740.50
611.23	46398.78
611.38	46394.10
611.54	46057.06
611.69	46204.52
611.84	46150.68
612.00	46251.33
612.15	45904.93
612.31	46021.95
612.46	46038.34
612.62	46160.05
612.77	46307.50
612.92	46590.70
613.08	46146.00
613.23	46031.32
613.39	45872.16
613.54	45893.22
613.69	45984.51
613.85	45879.18
614.00	46000.89
614.15	45989.19
614.31	46279.41
614.46	45886.20
614.62	46300.48
614.77	45738.75
614.92	45607.68
615.08	46124.94
615.23	45516.40
615.38	45834.71
615.54	45422.78
615.69	45471.93
615.84	45359.58
616.00	45298.73
616.15	45436.82
616.30	45815.99
616.46	45172.34
616.61	45600.66
616.76	45216.81
616.92	45455.54
617.07	45354.90
617.22	45167.66
617.37	45591.30
617.53	45794.92
617.68	45317.45
617.83	45109.14
617.99	45703.64
618.14	45247.24
618.29	45258.94
618.45	44889.13
618.60	45551.51
618.75	45153.62
618.90	45287.03
619.06	45350.22
619.21	45734.07
619.36	45331.50
619.51	45340.86
619.67	45029.57
619.82	44715.93
619.97	45167.66
620.12	45001.48
620.28	44697.21
620.43	44715.93
620.58	45125.53
620.73	44678.49
620.89	44809.56
621.04	44715.93
621.19	45069.36
621.34	44748.70
621.49	44266.55
621.65	44507.63
621.80	44596.57
621.95	44559.12
622.10	44596.57
622.25	44545.08
622.41	44669.12
622.56	44385.92
622.71	44556.78
622.86	44371.88
623.01	44996.80
623.16	44477.20
623.32	44409.32
623.47	44488.90
623.62	44685.51
623.77	44472.52
623.92	44861.05
624.07	44172.93
624.23	44399.96
624.38	44212.72
624.53	43959.94
624.68	44488.90
624.83	44395.28
624.98	44222.08
625.13	44219.74
625.29	44250.17
625.44	44353.15
625.59	44006.75
625.74	43873.34
625.89	43707.16
626.04	43508.22
626.19	43800.79
626.34	43817.17
626.49	43779.72
626.65	44018.46
626.80	44093.35
626.95	43381.83
627.10	43409.92
627.25	43409.92
627.40	43405.23
627.55	43440.34
627.70	43089.26
627.85	43576.09
628.00	43494.18
628.15	43721.21
628.30	43732.91
628.45	43728.23
628.60	42866.91
628.76	43468.43
628.91	43536.30
629.06	43077.56
629.21	43187.56
629.36	43278.85
629.51	43030.75
629.66	43540.99
629.81	43072.88
629.96	43222.67
630.11	42829.46
630.26	43217.99
630.41	43164.16
630.56	42766.27
630.71	42895.00
630.86	42939.47
631.01	42848.19
631.16	42911.38
631.31	42934.79
631.46	42284.12
631.61	42728.82
631.76	43136.07
631.91	42937.13
632.06	43007.34
632.21	42913.72
632.36	42960.53
632.51	42653.92
632.66	42918.40
632.81	42415.19
632.96	42581.37
633.10	42469.02
633.25	42375.40
633.40	42806.06
633.55	42363.70
633.70	42609.45
633.85	42719.46
634.00	42183.48
634.15	42492.43
634.30	42518.17
634.45	42820.10
634.60	42225.60
634.75	42583.71
634.90	42382.42
635.05	42085.17
635.19	42153.05
635.34	42504.13
635.49	42375.40
635.64	42155.39
635.79	41579.62
635.94	41879.21
636.09	41993.89
636.24	42279.44
636.39	41947.08
636.53	41703.67
636.68	41851.12
636.83	42146.03
636.98	41783.24
637.13	41673.24
637.28	41757.50
637.43	42061.77
637.57	42438.59
637.72	41820.69
637.87	41865.16
638.02	41577.28
638.17	41993.89
638.32	41710.69
638.46	41588.98
638.61	41710.69
638.76	41148.96
638.91	41640.47
639.06	41752.82
639.20	41771.54
639.35	42050.06
639.50	41626.43
639.65	41701.32
639.80	41593.66
639.94	41670.90
640.09	41387.69
640.24	41104.49
640.39	41198.11
640.54	41361.95
640.68	40612.98
640.83	41214.49
640.98	41493.02
641.13	40727.66
641.27	41404.08
641.42	40954.69
641.57	41214.49
641.72	41174.70
641.86	40954.69
642.01	40844.69
642.16	40816.60
642.31	40683.19
642.45	41041.29
642.60	40774.47
642.75	41116.19
642.90	40971.08
643.04	41071.72
643.19	40706.60
643.34	40863.41
643.48	40856.39
643.63	40947.67
643.78	40891.50
643.93	40711.28
644.07	40844.69
644.22	40392.97
644.37	40430.41
644.51	40627.02
644.66	40594.25
644.81	40371.90
644.95	40945.33
645.10	40477.22
645.25	40655.11
645.39	40542.76
645.54	40818.94
645.69	40378.92
645.83	40318.07
645.98	40374.24
646.13	40460.84
646.27	39875.71
646.42	40430.41
646.57	40444.46
646.71	40151.89
646.86	40079.33
647.00	39842.94
647.15	40491.27
647.30	40708.94
647.44	40135.51
647.59	39847.62
647.74	39702.51
647.88	39948.26
648.03	39737.62
648.17	39648.68
648.32	39779.74
648.47	39746.98
648.61	39660.38
648.76	40102.74
648.90	39798.47
649.05	39456.75
649.20	40030.18
649.34	39538.67
649.49	39892.09
649.63	39892.09
649.78	39777.40
649.92	39428.66
650.07	39833.58
650.21	39068.22
650.36	39482.50
650.51	39725.91
650.65	39636.97
650.80	39966.99
650.94	39952.94
651.09	40126.14
651.23	39501.22
651.38	39344.41
651.52	39466.11
651.67	39257.81
651.81	39103.33
651.96	39210.99
652.10	38958.22
652.25	39274.19
652.39	38913.75
652.54	39683.78
652.68	39412.28
652.83	39040.14
652.97	39402.92
653.12	39056.52
653.26	38993.32
653.41	39105.67
653.55	39105.67
653.70	38972.26
653.84	38960.56
653.99	38953.54
654.13	38885.66
654.27	39009.71
654.42	39089.29
654.56	38866.94
654.71	39178.23
654.85	38679.69
655.00	38873.96
655.14	38522.88
655.29	38373.08
655.43	38822.47
655.57	38101.58
655.72	38316.91
655.86	37610.07
656.01	37914.34
656.15	37996.26
656.30	38396.49
656.44	37701.35
656.58	38057.11
656.73	37841.78
656.87	38478.41
657.01	37818.38
657.16	37794.97
657.30	37919.02
657.45	37488.36
657.59	37762.20
657.73	38274.78
657.88	38045.41
658.02	38038.39
658.16	38092.22
658.31	38019.66
658.45	37951.79
658.60	38220.95
658.74	38522.88
658.88	38087.54
659.03	37731.78
659.17	37776.25
659.31	37476.66
659.46	37523.47
659.60	38106.26
659.74	37376.01
659.89	36996.85
660.03	37221.54
660.17	37586.66
660.32	37612.41
660.46	37631.13
660.60	37755.18
660.74	37422.83
660.89	37380.70
661.03	36877.48
661.17	36954.72
661.32	36746.41
661.46	37017.91
661.60	36428.10
661.74	37261.33
661.89	37144.30
662.03	37038.98
662.17	36467.89
662.31	36638.75
662.46	36744.07
662.60	36685.56
662.74	36725.35
662.88	36587.25
663.03	36631.72
663.17	36332.14
663.31	36247.88
663.45	36175.32
663.60	36458.52
663.74	36364.90
663.88	36102.76
664.02	35938.93
664.17	36187.02
664.31	35847.64
664.45	36079.36
664.59	35899.14
664.73	36044.25
664.88	36048.93
665.02	35372.52
665.16	35990.42
665.30	36086.38
665.44	35775.09
665.59	35496.56
665.73	35426.35
665.87	35049.52
666.01	35405.28
666.15	35290.60
666.29	35519.97
666.44	35283.58
666.58	35150.17
666.72	35133.78
666.86	35475.50
667.00	35367.84
667.14	34944.20
667.28	35042.50
667.43	34799.08
667.57	35082.29
667.71	34911.43
667.85	34733.55
667.99	34677.38
668.13	34567.37
668.27	34649.29
668.41	34925.47
668.56	34319.28
668.70	34607.16
668.84	34644.61
668.98	34174.16
669.12	34281.83
669.26	34396.51
669.40	34026.71
669.54	34075.86
669.68	34024.37
669.82	34164.80
669.96	33696.69
670.10	33642.86
670.25	33907.34
670.39	33839.47
670.53	33518.81
670.67	33420.51
670.81	33659.24
670.95	33820.74
671.09	33942.45
671.23	33804.36
671.37	33413.49
671.51	33687.33
671.65	33294.12
671.79	33338.59
671.93	32954.74
672.07	33209.86
672.21	33113.90
672.35	32947.72
672.49	32980.49
672.63	33408.81
672.77	32582.60
672.91	32704.31
673.05	32584.94
673.19	32458.55
673.33	32467.91
673.47	32598.98
673.61	31850.01
673.75	32144.92
673.89	32226.84
674.03	31833.63
674.17	31688.51
674.31	31974.06
674.45	32121.51
674.59	32086.40
674.73	32217.47
674.87	31798.52
675.01	31887.46
675.15	31845.33
675.29	31311.69
675.43	31442.76
675.56	31449.78
675.70	31517.65
675.84	31307.01
675.98	30410.58
676.12	31049.55
676.26	30749.96
676.40	30768.68
676.54	31044.87
676.68	30536.97
676.82	30403.56
676.96	30298.23
677.10	30321.64
677.23	30265.47
677.37	30040.78
677.51	30335.68
677.65	30206.95
677.79	30017.37
677.93	29795.02
678.07	29778.64
678.21	29315.21
678.34	29984.60
678.48	29308.19
678.62	29481.39
678.76	29149.03
678.90	29483.73
679.04	29116.26
679.18	29333.93
679.31	29408.83
679.45	28980.51
679.59	28573.26
679.73	28781.57
679.87	28898.59
680.00	28662.20
680.14	28666.88
680.28	28266.65
680.42	28341.55
680.56	28231.54
680.70	28650.50
680.83	28189.41
680.97	27873.44
681.11	27861.74
681.25	27805.56
681.39	27700.24
681.52	27992.81
681.66	27742.37
681.80	27639.39
681.94	27524.70
682.07	27449.80
682.21	27278.94
682.35	27173.62
682.49	27456.82
682.62	27035.53
682.76	26958.29
682.90	26845.94
683.04	27014.46
683.17	26534.65
683.31	26698.49
683.45	26295.92
683.59	26190.59
683.72	26326.35
683.86	25818.45
684.00	25947.18
684.13	26150.81
684.27	26150.81
684.41	26148.46
684.55	25607.80
684.68	25610.14
684.82	25755.26
684.96	25343.32
685.09	25378.43
685.23	25146.72
685.37	25226.29
685.50	24849.47
685.64	25130.33
685.78	24999.26
685.91	24947.77
686.05	24922.02
686.19	24833.08
686.32	24627.12
686.46	24107.52
686.60	24037.30
686.73	24201.14
686.87	23803.25
687.01	23969.43
687.14	23817.29
687.28	23250.88
687.42	23613.66
687.55	23473.23
687.69	23087.04
687.82	23508.34
687.96	23520.04
688.10	23173.64
688.23	23070.66
688.37	23229.82
688.50	22993.42
688.64	22906.82
688.78	22892.78
688.91	22363.82
689.05	22869.37
689.18	22672.77
689.32	22607.23
689.46	22513.61
689.59	22717.24
689.73	22272.54
689.86	22232.75
690.00	22469.14
690.13	22141.47
690.27	22153.17
690.41	22129.77
690.54	21958.91
690.68	21774.00
690.81	21359.73
690.95	21504.84
691.08	21530.59
691.22	21359.73
691.35	21692.08
691.49	21439.31
691.62	21401.86
691.76	21383.13
691.89	21376.11
692.03	21397.18
692.16	21069.50
692.30	21067.16
692.43	21198.23
692.57	20638.84
692.70	20718.42
692.84	20884.60
692.97	20531.18
693.11	20320.53
693.24	20276.06
693.38	20091.16
693.51	19962.43
693.65	20212.87
693.78	20245.63
693.92	20144.99
694.05	19704.97
694.19	19700.29
694.32	19756.46
694.45	19962.43
694.59	19782.21
694.72	19513.05
694.86	19374.95
694.99	19108.13
695.13	19070.68
695.26	18960.68
695.39	19105.79
695.53	19136.22
695.66	19080.05
695.80	18946.64
695.93	18845.99
696.07	18387.25
696.20	18899.83
696.33	18630.66
696.47	18373.21
696.60	18387.25
696.73	18452.78
696.87	18441.08
697.00	18368.52
697.14	18066.60
697.27	17935.53
697.40	18040.85
697.54	17853.61
697.67	17898.08
697.80	18104.04
697.94	17577.42
698.07	17458.06
698.21	17603.17
698.34	17593.81
698.47	17329.33
698.61	17385.50
698.74	17322.30
698.87	16954.84
699.01	17181.87
699.14	16847.18
699.27	16840.15
699.40	16451.63
699.54	16482.05
699.67	16489.07
699.80	16566.31
699.94	16512.48
700.07	16578.01
700.20	16374.39
700.34	16208.21
700.47	16107.57
700.60	16238.64
700.73	16381.41
700.87	16196.51
701.00	15772.87
701.13	16044.37
701.26	15927.35
701.40	15742.44
701.53	15653.50
701.66	15798.62
701.79	15346.89
701.93	15690.95
702.06	15332.85
702.19	15337.53
702.32	15227.53
702.46	15286.04
702.59	15035.60
702.72	15110.50
702.85	15295.40
702.99	15246.25
703.12	15030.92
703.25	14888.15
703.38	14640.05
703.51	14780.48
703.65	14721.97
703.78	14813.25
703.91	14609.62
704.04	14473.87
704.17	14546.43
704.31	14572.18
704.44	13991.72
704.57	13912.14
704.70	13956.61
704.83	13951.93
704.96	14202.37
705.10	14298.33
705.23	14036.19
>>>>>End Processed Spectral Data<<<<<
