SpectraSuite Data File
++++++++++++++++++++++++++++++++++++
Date: Fri Oct 25 10:44:19 EDT 2013
User: price-jones
Dark Spectrum Present: No
Reference Spectrum Present: No
Number of Sampled Component Spectra: 1
Spectrometers: USB2+H05261
Integration Time (usec): 100000 (USB2+H05261)
Spectra Averaged: 1 (USB2+H05261)
Boxcar Smoothing: 0 (USB2+H05261)
Correct for Electrical Dark: No (USB2+H05261)
Strobe/Lamp Enabled: No (USB2+H05261)
Correct for Detector Non-linearity: No (USB2+H05261)
Correct for Stray Light: No (USB2+H05261)
Number of Pixels in Processed Spectrum: 2048
>>>>>Begin Processed Spectral Data<<<<<
365.73	105.32
365.92	105.32
366.12	105.32
366.32	67.88
366.52	23.41
366.72	28.09
366.91	0.00
367.11	42.13
367.31	0.00
367.51	46.81
367.70	0.00
367.90	44.47
368.10	51.49
368.30	4.68
368.49	11.70
368.69	74.90
368.89	39.79
369.09	4.68
369.28	63.19
369.48	107.66
369.68	74.90
369.87	107.66
370.07	51.49
370.27	86.60
370.47	159.16
370.66	322.99
370.86	489.17
371.06	451.72
371.25	540.66
371.45	468.11
371.65	533.64
371.84	491.51
372.04	521.94
372.24	500.87
372.44	423.64
372.63	526.62
372.83	463.43
373.03	517.26
373.22	552.37
373.42	599.18
373.62	557.05
373.81	575.77
374.01	589.82
374.21	540.66
374.40	540.66
374.60	622.58
374.79	615.56
374.99	606.20
375.19	573.43
375.38	641.31
375.58	589.82
375.78	641.31
375.97	547.69
376.17	674.07
376.37	601.52
376.56	587.47
376.76	538.32
376.95	624.92
377.15	678.76
377.35	648.33
377.54	702.16
377.74	613.22
377.93	636.63
378.13	676.41
378.33	685.78
378.52	575.77
378.72	706.84
378.91	695.14
379.11	589.82
379.31	704.50
379.50	636.63
379.70	788.76
379.89	779.40
380.09	702.16
380.28	706.84
380.48	746.63
380.68	725.57
380.87	748.97
381.07	711.52
381.26	770.04
381.46	699.82
381.65	720.88
381.85	653.01
382.04	692.80
382.24	746.63
382.43	732.59
382.63	746.63
382.83	711.52
383.02	826.21
383.22	765.36
383.41	739.61
383.61	767.70
383.80	823.87
384.00	760.67
384.19	924.51
384.39	748.97
384.58	788.76
384.78	828.55
384.97	896.43
385.17	809.83
385.36	779.40
385.56	837.91
385.75	830.89
385.95	856.64
386.14	807.48
386.34	915.15
386.53	887.06
386.72	891.74
386.92	910.47
387.11	870.68
387.31	854.30
387.50	821.53
387.70	873.02
387.89	891.74
388.09	901.11
388.28	821.53
388.48	856.64
388.67	964.30
388.86	929.19
389.06	931.53
389.25	891.74
389.45	973.66
389.64	1004.09
389.84	976.00
390.03	1004.09
390.22	1020.47
390.42	1067.28
390.61	978.34
390.81	1050.90
391.00	1123.46
391.19	1109.41
391.39	1048.56
391.58	1034.52
391.78	1057.92
391.97	1062.60
392.16	1039.20
392.36	1118.78
392.55	1062.60
392.75	1001.75
392.94	1015.79
393.13	1004.09
393.33	992.39
393.52	1064.94
393.71	1039.20
393.91	1109.41
394.10	1135.16
394.29	1088.35
394.49	1095.37
394.68	1128.14
394.88	1287.29
395.07	1259.21
395.26	1231.12
395.46	1256.87
395.65	1261.55
395.84	1235.80
396.04	1341.13
396.23	1242.82
396.42	1191.33
396.62	1156.22
396.81	1364.53
397.00	1373.89
397.19	1425.39
397.39	1350.49
397.58	1519.01
397.77	1448.79
397.97	1502.62
398.16	1563.48
398.35	1366.87
398.55	1561.14
398.74	1511.99
398.93	1530.71
399.12	1612.63
399.32	1582.20
399.51	1544.75
399.70	1668.80
399.90	1631.35
400.09	1549.43
400.28	1551.78
400.47	1680.50
400.67	1724.97
400.86	1748.38
401.05	1797.53
401.24	1783.49
401.44	1682.85
401.63	1600.93
401.82	1757.74
402.01	1748.38
402.21	1853.70
402.40	1842.00
402.59	1788.17
402.78	1762.42
402.97	1881.79
403.17	1888.81
403.36	1898.17
403.55	1813.92
403.74	2003.50
403.93	1877.11
404.13	1872.43
404.32	1977.75
404.51	1905.20
404.70	1900.52
404.89	2010.52
405.09	2031.58
405.28	2083.08
405.47	2085.42
405.66	2043.29
405.85	1926.26
406.05	2017.54
406.24	2015.20
406.43	2022.22
406.62	2221.17
406.81	2225.85
407.00	2118.18
407.20	2188.40
407.39	2113.50
407.58	2162.66
407.77	2237.55
407.96	2256.28
408.15	2326.49
408.34	2211.81
408.54	2375.64
408.73	2326.49
408.92	2354.58
409.11	2427.14
409.30	2331.17
409.49	2223.51
409.68	2328.83
409.87	2296.07
410.07	2340.54
410.26	2485.65
410.45	2480.97
410.64	2513.74
410.83	2504.37
411.02	2553.52
411.21	2661.19
411.40	2586.29
411.59	2509.05
411.78	2675.23
411.98	2661.19
412.17	2703.32
412.36	2675.23
412.55	2740.77
412.74	2839.07
412.93	2806.30
413.12	2799.28
413.31	2993.55
413.50	2890.56
413.69	2939.71
413.88	2988.86
414.07	2965.46
414.26	2995.89
414.45	3028.65
414.64	3019.29
414.83	3038.02
415.02	3236.96
415.22	3281.43
415.41	3337.60
415.60	3222.92
415.79	3295.47
415.98	3400.80
416.17	3358.67
416.36	3382.07
416.55	3283.77
416.74	3391.44
416.93	3190.15
417.12	3363.35
417.31	3510.80
417.50	3449.95
417.69	3559.95
417.88	3520.17
418.07	3552.93
418.26	3501.44
418.45	3639.53
418.64	3585.70
418.83	3709.75
419.02	3641.87
419.21	3698.05
419.39	3557.61
419.58	3578.68
419.77	3616.13
419.96	3712.09
420.15	3782.31
420.34	3751.88
420.53	3775.28
420.72	3889.97
420.91	3761.24
421.10	3808.05
421.29	4044.45
421.48	3927.42
421.67	3906.35
421.86	4025.72
422.05	3894.65
422.24	3833.80
422.43	3812.73
422.61	3976.57
422.80	3915.72
422.99	4107.64
423.18	3885.29
423.37	4044.45
423.56	4009.34
423.75	4086.58
423.94	4093.60
424.13	3796.35
424.32	3815.07
424.50	3997.64
424.69	4074.87
424.88	4112.32
425.07	3941.46
425.26	4063.17
425.45	4067.85
425.64	4077.21
425.83	4163.81
426.01	4147.43
426.20	4004.66
426.39	4147.43
426.58	3988.27
426.77	3969.55
426.96	3985.93
427.15	4025.72
427.33	4056.15
427.52	4140.41
427.71	4156.79
427.90	4292.54
428.09	4224.67
428.28	4145.09
428.46	4236.37
428.65	4161.47
428.84	4341.69
429.03	4435.32
429.22	4170.83
429.40	4327.65
429.59	4212.96
429.78	4016.36
429.97	3999.98
430.16	4084.23
430.34	4308.93
430.53	4229.35
430.72	4379.14
430.91	4341.69
431.10	4606.17
431.28	4594.47
431.47	4798.10
431.66	4751.29
431.85	4585.11
432.03	4627.24
432.22	4751.29
432.41	4655.33
432.60	4732.56
432.79	4711.50
432.97	4931.51
433.16	4877.68
433.35	4755.97
433.54	4774.69
433.72	4765.33
433.91	4795.76
434.10	4905.76
434.28	4919.81
434.47	4910.44
434.66	5011.09
434.85	4929.17
435.03	5041.51
435.22	5029.81
435.41	5135.14
435.59	5284.93
435.78	5240.46
435.97	5179.61
436.16	5207.69
436.34	5362.17
436.53	5341.10
436.72	5397.28
436.90	5156.20
437.09	5280.25
437.28	5329.40
437.46	5322.38
437.65	5418.34
437.84	5284.93
438.02	5334.08
438.21	5364.51
438.40	5195.99
438.58	5652.39
438.77	5511.96
438.96	5792.83
439.14	5699.20
439.33	5788.14
439.52	5870.06
439.70	5743.67
439.89	5921.56
440.08	5839.64
440.26	5813.89
440.45	5909.85
440.63	5767.08
440.82	6101.78
441.01	6019.86
441.19	6216.46
441.38	6279.66
441.57	6310.08
441.75	6326.47
441.94	6387.32
442.12	6511.37
442.31	6516.05
442.50	6452.86
442.68	6452.86
442.87	6586.27
443.05	6551.16
443.24	6560.52
443.43	6384.98
443.61	6581.59
443.80	6885.86
443.98	6626.06
444.17	6361.58
444.35	6614.35
444.54	6745.42
444.73	6642.44
444.91	6583.93
445.10	6738.40
445.28	6703.29
445.47	6417.75
445.65	6539.46
445.84	6731.38
446.02	6799.26
446.21	6588.61
446.39	6710.32
446.58	6731.38
446.77	6670.53
446.95	6644.78
447.14	6754.79
447.32	6862.45
447.51	6773.51
447.69	6862.45
447.88	7012.24
448.06	7012.24
448.25	6855.43
448.43	6911.60
448.62	6890.54
448.80	6867.13
448.99	6977.14
449.17	7021.61
449.36	7066.08
449.54	7258.00
449.73	7197.15
449.91	7290.77
450.10	7375.03
450.28	7363.33
450.46	7363.33
450.65	7384.39
450.83	7414.82
451.02	7307.15
451.20	7438.22
451.39	7583.34
451.57	7290.77
451.76	7389.07
451.94	7180.76
452.13	7595.04
452.31	7463.97
452.49	7309.49
452.68	7576.31
452.86	7330.56
453.05	7370.35
453.23	7459.29
453.42	7412.48
453.60	7410.14
453.78	7648.87
453.97	7496.74
454.15	7588.02
454.34	7550.57
454.52	7630.15
454.70	7772.92
454.89	7829.09
455.07	7754.19
455.26	7602.06
455.44	7822.07
455.62	7812.71
455.81	7822.07
455.99	7758.88
456.17	8093.57
456.36	7990.59
456.54	8028.04
456.73	8231.66
456.91	8341.67
457.09	8358.05
457.28	8580.40
457.46	8102.93
457.64	8339.33
457.83	8219.96
458.01	8278.47
458.19	8496.14
458.38	8353.37
458.56	8568.70
458.74	8477.42
458.93	8388.48
459.11	8290.18
459.29	8409.54
459.48	8662.32
459.66	8568.70
459.84	8571.04
460.03	8681.05
460.21	8606.15
460.39	8659.98
460.57	8706.79
460.76	8894.04
460.94	8767.65
461.12	8849.57
461.31	8779.35
461.49	8816.80
461.67	8901.06
461.85	9118.73
462.04	8966.59
462.22	9153.84
462.40	9188.94
462.59	9006.38
462.77	8882.33
462.95	9174.90
463.13	9331.72
463.32	9053.19
463.50	9387.89
463.68	9158.52
463.86	9413.63
464.05	9149.15
464.23	9029.79
464.41	9158.52
464.59	9097.66
464.78	9474.49
464.96	9371.50
465.14	9343.42
465.32	9296.61
465.50	9404.27
465.69	9504.92
465.87	9481.51
466.05	9359.80
466.23	9465.13
466.41	9430.02
466.60	9603.22
466.78	9226.39
466.96	9486.19
467.14	9518.96
467.32	9647.69
467.51	9738.97
467.69	9420.66
467.87	9666.41
468.05	9858.34
468.23	9605.56
468.41	9544.70
468.60	9680.46
468.78	9844.29
468.96	9699.18
469.14	9977.70
469.32	10026.86
469.50	9764.72
469.69	9942.60
469.87	10031.54
470.05	10040.90
470.23	10183.67
470.41	10001.11
470.59	10298.36
470.77	10019.83
470.95	10314.74
471.14	10431.77
471.32	10101.75
471.50	10487.94
471.68	10654.12
471.86	10775.83
472.04	10616.67
472.22	10846.04
472.40	10487.94
472.58	10740.72
472.77	10635.39
472.95	10684.55
473.13	11246.27
473.31	10705.61
473.49	10810.93
473.67	10817.96
473.85	11009.88
474.03	11290.74
474.21	11407.77
474.39	11339.90
474.57	11084.78
474.75	11243.93
474.93	11480.33
475.12	11449.90
475.30	11611.40
475.48	11726.08
475.66	11410.11
475.84	11536.50
476.02	11705.02
476.20	11396.07
476.38	11985.88
476.56	12105.25
476.74	11880.56
476.92	11983.54
477.10	12278.45
477.28	12446.97
477.46	12519.53
477.64	12411.86
477.82	12496.12
478.00	12755.92
478.18	12968.91
478.36	12910.40
478.54	13102.32
478.72	12751.24
478.90	13006.36
479.08	13387.86
479.26	13392.55
479.44	13483.83
479.62	13357.44
479.80	13659.37
479.98	13542.34
480.16	13919.17
480.34	14015.13
480.52	14012.79
480.70	13813.84
480.88	14061.94
481.06	13937.89
481.24	14466.85
481.41	14579.20
481.59	14696.22
481.77	14438.76
481.95	14778.14
482.13	14792.19
482.31	14925.60
482.49	15161.99
482.67	15215.82
482.85	15150.29
483.03	15573.92
483.21	15506.05
483.39	15749.46
483.57	16063.10
483.74	15978.84
483.92	15932.03
484.10	15871.17
484.28	16262.04
484.46	16353.32
484.64	16575.67
484.82	16348.64
485.00	16348.64
485.18	16812.07
485.35	16596.74
485.53	16407.16
485.71	16423.54
485.89	16760.58
486.07	16872.92
486.25	17209.96
486.43	17319.96
486.61	17516.57
486.78	17411.25
486.96	17715.51
487.14	18185.96
487.32	18024.47
487.50	18279.58
487.68	18593.22
487.85	18857.70
488.03	18838.97
488.21	19264.95
488.39	19023.87
488.57	18878.76
488.75	19129.20
488.92	19580.92
489.10	19882.85
489.28	19763.48
489.46	19995.20
489.64	19943.70
489.81	20409.47
489.99	20577.99
490.17	20989.92
490.35	21106.95
490.53	20716.08
490.70	21018.01
490.88	20971.20
491.06	21502.50
491.24	21249.72
491.41	21090.57
491.59	21465.05
491.77	21348.03
491.95	21589.10
492.13	21792.73
492.30	22043.17
492.48	22162.53
492.66	22148.49
492.84	22450.42
493.01	22345.09
493.19	22291.26
493.37	22499.57
493.54	22553.40
493.72	23122.15
493.90	23166.62
494.08	23304.71
494.25	23506.00
494.43	23623.03
494.61	23744.73
494.79	24091.13
494.96	23756.44
495.14	24053.69
495.32	24217.52
495.49	24250.29
495.67	24144.97
495.85	25057.78
496.02	24538.18
496.20	25177.14
496.38	24603.71
496.55	24973.52
496.73	25600.78
496.91	25076.50
497.09	25558.65
497.26	25582.06
497.44	25708.44
497.62	25591.42
497.79	25762.28
497.97	25474.39
498.14	26071.23
498.32	26237.41
498.50	25991.65
498.67	26616.57
498.85	26611.89
499.03	26218.68
499.20	26696.15
499.38	26864.67
499.56	27115.11
499.73	26951.27
499.91	27154.90
500.08	27274.26
500.26	27133.83
500.44	27246.18
500.61	27257.88
500.79	27288.31
500.97	27573.85
501.14	27751.73
501.32	27655.77
501.49	27234.47
501.67	27924.93
501.84	28018.55
502.02	27861.74
502.20	28367.29
502.37	28779.23
502.55	28006.85
502.72	28369.63
502.90	28917.32
503.07	28369.63
503.25	28503.04
503.43	28617.73
503.60	28577.94
503.78	28641.14
503.95	29120.95
504.13	29256.70
504.30	29270.74
504.48	29017.96
504.65	29352.66
504.83	29469.69
505.01	29766.93
505.18	29640.54
505.36	30185.89
505.53	30293.55
505.71	30361.43
505.88	30515.90
506.06	30366.11
506.23	30286.53
506.41	29872.26
506.58	30270.15
506.76	30508.88
506.93	30738.26
507.11	30319.30
507.28	30630.59
507.46	30679.74
507.63	30595.48
507.81	30625.91
507.98	30771.02
508.16	30682.08
508.33	31475.52
508.50	31393.61
508.68	31449.78
508.85	31667.45
509.03	31997.46
509.20	31903.84
509.38	31945.97
509.55	31641.70
509.73	31697.88
509.90	31737.66
510.08	32037.25
510.25	31906.18
510.42	32048.96
510.60	32315.78
510.77	32203.43
510.95	32774.52
511.12	32765.16
511.30	32753.46
511.47	33298.80
511.64	33095.18
511.82	33095.18
511.99	32898.57
512.17	33223.90
512.34	32826.01
512.51	32933.68
512.69	33338.59
512.86	33415.83
513.04	33268.37
513.21	33518.81
513.38	33429.87
513.56	33390.08
513.73	33385.40
513.90	34017.35
514.08	33137.30
514.25	33872.23
514.43	34160.12
514.60	34136.71
514.77	33888.62
514.95	34213.95
515.12	33989.26
515.29	34572.05
515.47	34792.06
515.64	34448.00
515.81	34506.52
515.99	34169.48
516.16	34160.12
516.33	34270.12
516.51	34354.38
516.68	33956.49
516.85	33799.68
517.03	34115.65
517.20	34349.70
517.37	35098.67
517.54	35122.08
517.72	34895.05
517.89	34286.51
518.06	34536.94
518.24	34668.02
518.41	35002.71
518.58	35236.77
518.75	35365.49
518.93	35292.94
519.10	35290.60
519.27	35585.50
519.45	35866.37
519.62	35941.27
519.79	35744.66
519.96	36051.27
520.14	36292.35
520.31	35894.46
520.48	35917.86
520.65	36135.53
520.83	36636.41
521.00	36833.01
521.17	36739.39
521.34	36779.18
521.52	36655.13
521.69	36919.61
521.86	36598.96
522.03	36814.29
522.20	37083.45
522.38	37148.98
522.55	36840.03
522.72	37043.66
522.89	36767.48
523.07	37308.14
523.24	36954.72
523.41	37532.83
523.58	37556.24
523.75	38106.26
523.92	37722.41
524.10	37839.44
524.27	37902.64
524.44	37415.80
524.61	37897.95
524.78	37919.02
524.96	38190.52
525.13	38464.36
525.30	38572.03
525.47	38553.30
525.64	38363.72
525.81	38541.60
525.98	38242.01
526.16	37921.36
526.33	38387.13
526.50	38209.25
526.67	37523.47
526.84	38059.45
527.01	38218.61
527.18	38389.47
527.36	38763.95
527.53	38359.04
527.70	39264.83
527.87	39084.61
528.04	38787.36
528.21	38796.72
528.38	39122.05
528.55	39435.69
528.72	39545.69
528.89	39833.58
529.07	38911.41
529.24	39590.16
529.41	39398.24
529.58	39529.31
529.75	39569.10
529.92	40297.00
530.09	39629.95
530.26	39768.04
530.43	40140.19
530.60	39442.71
530.77	39491.86
530.94	40009.12
531.11	39985.71
531.28	39608.89
531.46	40126.14
531.63	40769.79
531.80	39882.73
531.97	39810.17
532.14	39985.71
532.31	40240.83
532.48	39941.24
532.65	40608.29
532.82	40252.53
532.99	40622.34
533.16	40343.81
533.33	40797.88
533.50	40907.88
533.67	40659.79
533.84	40980.44
534.01	40495.95
534.18	40942.99
534.35	40879.80
534.52	40765.11
534.69	41221.52
534.86	41132.57
535.03	41263.64
535.20	41783.24
535.37	41490.68
535.54	41591.32
535.71	41427.48
535.88	41198.11
536.05	41614.72
536.22	41628.77
536.38	41137.26
536.55	41240.24
536.72	41422.80
536.89	41467.27
537.06	41811.33
537.23	41682.60
537.40	41956.44
537.57	42021.98
537.74	41521.10
537.91	41729.41
538.08	41535.15
538.25	41748.14
538.42	41979.85
538.59	42370.72
538.75	41879.21
538.92	41841.76
539.09	42167.09
539.26	42073.47
539.43	41827.71
539.60	41799.63
539.77	42073.47
539.94	42176.45
540.11	41652.17
540.28	41956.44
540.44	42213.90
540.61	42040.70
540.78	41944.74
540.95	42646.90
541.12	42115.60
541.29	41806.65
541.46	42419.87
541.62	42429.23
541.79	42635.20
541.96	42284.12
542.13	42485.40
542.30	42902.02
542.47	42593.07
542.63	42787.33
542.80	42852.87
542.97	43220.33
543.14	43150.12
543.31	43260.12
543.48	43292.89
543.64	43913.13
543.81	43756.32
543.98	43735.25
544.15	43196.93
544.32	43484.81
544.48	43959.94
544.65	43625.25
544.82	43416.94
544.99	43386.51
545.16	44004.41
545.32	43531.62
545.49	44444.43
545.66	44161.23
545.83	43936.54
546.00	43725.89
546.16	43746.95
546.33	43892.07
546.50	43496.52
546.67	44002.07
546.83	43793.76
547.00	43828.87
547.17	43821.85
547.34	44062.93
547.50	43863.98
547.67	44287.62
547.84	44327.41
548.00	44437.41
548.17	44320.38
548.34	44175.27
548.51	44114.42
548.67	44252.51
548.84	44507.63
549.01	44062.93
549.18	44353.15
549.34	44641.04
549.51	44414.01
549.68	44519.33
549.84	44804.88
550.01	44945.31
550.18	44729.98
550.34	44755.72
550.51	44507.63
550.68	44304.00
550.84	44294.64
551.01	44910.20
551.18	44568.48
551.34	44823.60
551.51	44935.95
551.68	45233.19
551.84	45078.72
552.01	44832.96
552.18	44793.17
552.34	44439.75
552.51	44973.39
552.68	45013.18
552.84	44814.24
553.01	45600.66
553.18	45022.54
553.34	44776.79
553.51	44900.84
553.67	44980.42
553.84	45113.83
554.01	45287.03
554.17	45579.59
554.34	45453.20
554.51	45354.90
554.67	45485.97
554.84	45347.88
555.00	45696.62
555.17	45167.66
555.33	45558.53
555.50	45345.54
555.67	45078.72
555.83	45619.38
556.00	45539.80
556.16	45869.82
556.33	45380.65
556.50	45338.52
556.66	45605.34
556.83	45619.38
556.99	45792.58
557.16	45659.17
557.32	45464.91
557.49	45830.03
557.65	45705.98
557.82	45818.33
557.98	45577.25
558.15	45729.39
558.32	45902.59
558.48	45532.78
558.65	45904.93
558.81	45366.60
558.98	45626.40
559.14	45567.89
559.31	45642.79
559.47	45954.08
559.64	45748.11
559.80	46000.89
559.97	45720.02
560.13	45544.48
560.30	45752.79
560.46	45918.97
560.63	46000.89
560.79	46087.49
560.96	46176.43
561.12	45916.63
561.29	45949.40
561.45	46068.76
561.61	46260.69
561.78	45944.72
561.94	46068.76
562.11	46429.21
562.27	45841.73
562.44	46422.19
562.60	46471.34
562.77	46244.30
562.93	45720.02
563.10	46450.27
563.26	45530.44
563.42	46040.68
563.59	46078.13
563.75	45942.38
563.92	46419.84
564.08	46258.35
564.24	46513.47
564.41	46167.07
564.57	46366.01
564.74	46047.70
564.90	46564.96
565.07	46305.16
565.23	46616.45
565.39	46305.16
565.56	46099.19
565.72	46019.61
565.88	45872.16
566.05	46274.73
566.21	46068.76
566.38	45993.87
566.54	46450.27
566.70	46466.66
566.87	46721.77
567.03	46288.77
567.19	46855.18
567.36	46597.73
567.52	46426.87
567.68	46635.17
567.85	46583.68
568.01	46454.95
568.17	46057.06
568.34	46546.23
568.50	46492.40
568.66	46241.96
568.83	46529.85
568.99	46169.41
569.15	46401.12
569.32	46583.68
569.48	46244.30
569.64	46564.96
569.81	46820.08
569.97	46579.00
570.13	46424.53
570.30	46190.47
570.46	46043.02
570.62	46160.05
570.78	46122.60
570.95	46000.89
571.11	46436.23
571.27	46043.02
571.43	46333.24
571.60	46543.89
571.76	46408.14
571.92	46555.60
572.09	46569.64
572.25	46417.50
572.41	46443.25
572.57	46314.52
572.74	46829.44
572.90	46499.42
573.06	46581.34
573.22	46637.51
573.38	46607.09
573.55	46405.80
573.71	46639.86
573.87	46724.11
574.03	46667.94
574.20	46913.70
574.36	46398.78
574.52	46368.35
574.68	46412.82
574.84	46347.29
575.01	46473.68
575.17	46618.79
575.33	46178.77
575.49	46487.72
575.65	46241.96
575.82	46665.60
575.98	46735.82
576.14	47044.77
576.30	47056.47
576.46	46628.15
576.62	46773.27
576.79	46777.95
576.95	46216.22
577.11	46834.12
577.27	46791.99
577.43	46679.64
577.59	46848.16
577.75	46548.57
577.92	46045.36
578.08	46485.38
578.24	46412.82
578.40	46401.12
578.56	46628.15
578.72	46377.72
578.88	46855.18
579.04	46621.13
579.21	46787.31
579.37	46946.47
579.53	46396.44
579.69	46394.10
579.85	46490.06
580.01	46513.47
580.17	46305.16
580.33	46955.83
580.49	46913.70
580.65	46536.87
580.82	46625.81
580.98	46550.91
581.14	46703.05
581.30	46913.70
581.46	47154.77
581.62	47150.09
581.78	46969.87
581.94	47000.30
582.10	47070.51
582.26	46899.65
582.42	46618.79
582.58	46485.38
582.74	46508.79
582.90	47178.18
583.06	47072.85
583.22	46948.81
583.38	47665.01
583.54	46766.24
583.70	46890.29
583.86	46590.70
584.02	46309.84
584.18	46876.25
584.34	46511.13
584.50	46960.51
584.66	46911.36
584.82	46555.60
584.98	46850.50
585.14	46948.81
585.30	46700.71
585.46	46621.13
585.62	46918.38
585.78	46733.48
585.94	46557.94
586.10	46506.44
586.26	46520.49
586.42	47098.60
586.58	46871.57
586.74	46698.37
586.90	46660.92
587.06	46536.87
587.22	46878.59
587.38	46541.55
587.54	46902.00
587.70	46784.97
587.86	46871.57
588.02	46813.05
588.18	46848.16
588.34	46686.67
588.49	46052.38
588.65	45897.91
588.81	46136.64
588.97	46403.46
589.13	45780.88
589.29	46265.37
589.45	46911.36
589.61	46602.41
589.77	46787.31
589.93	46557.94
590.08	46768.58
590.24	46815.40
590.40	46969.87
590.56	46960.51
590.72	46981.57
590.88	46822.42
591.04	46801.35
591.20	47309.25
591.35	46967.53
591.51	47122.01
591.67	46831.78
591.83	46820.08
591.99	47047.11
592.15	46684.33
592.31	47012.00
592.46	46604.75
592.62	47096.26
592.78	47154.77
592.94	46939.44
593.10	46822.42
593.26	47318.61
593.41	46614.11
593.57	46822.42
593.73	46698.37
593.89	46588.36
594.05	47154.77
594.20	47016.68
594.36	46969.87
594.52	46714.75
594.68	46586.02
594.84	46387.08
594.99	47093.92
595.15	47002.64
595.31	46887.95
595.47	46866.89
595.62	46759.22
595.78	46571.98
595.94	47084.56
596.10	47140.73
596.25	47192.22
596.41	47356.06
596.57	47042.43
596.73	46827.10
596.88	46834.12
597.04	46831.78
597.20	47100.94
597.36	46796.67
597.51	47222.65
597.67	47075.19
597.83	46993.28
597.99	47084.56
598.14	47150.09
598.30	46937.10
598.46	47086.90
598.61	46784.97
598.77	46574.32
598.93	46834.12
599.09	47145.41
599.24	47690.76
599.40	47040.09
599.56	47075.19
599.71	47068.17
599.87	46801.35
600.03	46693.69
600.18	46876.25
600.34	46728.80
600.50	46866.89
600.65	46632.83
600.81	46527.51
600.97	47161.79
601.12	46834.12
601.28	46887.95
601.44	46644.54
601.59	46941.78
601.75	46761.56
601.91	46986.25
602.06	47072.85
602.22	47124.35
602.37	46738.16
602.53	47131.37
602.69	46869.23
602.84	46911.36
603.00	46775.61
603.16	47023.70
603.31	46284.09
603.47	47180.52
603.62	46918.38
603.78	46616.45
603.94	47058.81
604.09	47164.14
604.25	46827.10
604.40	47178.18
604.56	46906.68
604.71	47248.39
604.87	46344.95
605.03	46803.69
605.18	46541.55
605.34	46623.47
605.49	46239.62
605.65	46438.57
605.80	46932.42
605.96	46576.66
606.12	47147.75
606.27	47126.69
606.43	46724.11
606.58	46923.06
606.74	47089.24
606.89	46492.40
607.05	47110.30
607.20	46892.63
607.36	46501.76
607.51	46717.09
607.67	46803.69
607.82	46604.75
607.98	46555.60
608.13	46445.59
608.29	46284.09
608.44	46080.47
608.60	46234.94
608.75	46501.76
608.91	46494.74
609.06	46108.55
609.22	46604.75
609.37	46312.18
609.53	46330.90
609.68	46396.44
609.84	46256.01
609.99	46356.65
610.15	45954.08
610.30	46241.96
610.46	45940.04
610.61	45698.96
610.76	46103.87
610.92	46553.26
611.07	46211.54
611.23	46466.66
611.38	46415.16
611.54	45900.25
611.69	46110.89
611.84	46225.58
612.00	45794.92
612.15	45848.75
612.31	46337.93
612.46	45799.60
612.62	46096.85
612.77	45991.53
612.92	46106.21
613.08	45640.45
613.23	46110.89
613.39	46160.05
613.54	45766.84
613.69	45696.62
613.85	45631.08
614.00	45911.95
614.15	45886.20
614.31	45993.87
614.46	46010.25
614.62	45818.33
614.77	45893.22
614.92	45668.53
615.08	45565.55
615.23	45481.29
615.38	45455.54
615.54	45207.45
615.69	45535.12
615.84	45289.37
616.00	45200.43
616.15	45392.35
616.30	45305.75
616.46	45118.51
616.61	45581.93
616.76	45490.65
616.92	45141.91
617.07	45031.91
617.22	44659.76
617.37	45027.23
617.53	45397.03
617.68	45240.21
617.83	45593.64
617.99	45324.47
618.14	45317.45
618.29	45034.25
618.45	44879.77
618.60	44692.53
618.75	44872.75
618.90	44931.26
619.06	45184.04
619.21	45184.04
619.36	45521.08
619.51	45167.66
619.67	45151.27
619.82	45219.15
619.97	45055.31
620.12	45010.84
620.28	44329.75
620.43	44533.37
620.58	45001.48
620.73	44788.49
620.89	44868.07
621.04	45055.31
621.19	44605.93
621.34	44809.56
621.49	44987.44
621.65	44563.80
621.80	44498.26
621.95	44563.80
622.10	44346.13
622.25	44194.00
622.41	44154.21
622.56	44203.36
622.71	44294.64
622.86	44847.00
623.01	44011.43
623.16	44149.53
623.32	44655.08
623.47	44315.70
623.62	44245.49
623.77	43791.42
623.92	44292.30
624.07	44392.94
624.23	43805.47
624.38	43920.15
624.53	44266.55
624.68	44006.75
624.83	43824.19
624.98	44076.97
625.13	43997.39
625.29	43585.46
625.44	43583.12
625.59	43344.38
625.74	43744.61
625.89	43407.58
626.04	43629.93
626.19	43505.88
626.34	44044.20
626.49	44135.48
626.65	43632.27
626.80	43625.25
626.95	43854.62
627.10	43412.26
627.25	43262.46
627.40	43559.71
627.55	43150.12
627.70	43117.35
627.85	42658.60
628.00	42988.62
628.15	42883.30
628.30	42831.80
628.45	43164.16
628.60	42799.04
628.76	43288.21
628.91	43203.95
629.06	43232.04
629.21	42632.86
629.36	43414.60
629.51	43150.12
629.66	42777.97
629.81	42728.82
629.96	42822.44
630.11	42897.34
630.26	42815.42
630.41	43077.56
630.56	42904.36
630.71	43079.90
630.86	43019.05
631.01	42487.74
631.16	43297.57
631.31	42415.19
631.46	42766.27
631.61	42679.67
631.76	42431.57
631.91	42382.42
632.06	42857.55
632.21	42630.52
632.36	42855.21
632.51	42389.44
632.66	42251.35
632.81	41696.64
632.96	42148.37
633.10	42401.14
633.25	42380.08
633.40	42426.89
633.55	42277.10
633.70	42319.23
633.85	41886.23
634.00	41989.21
634.15	42136.66
634.30	42394.12
634.45	42220.92
634.60	42389.44
634.75	42040.70
634.90	42106.24
635.05	41947.08
635.19	41984.53
635.34	42115.60
635.49	42082.83
635.64	41713.03
635.79	41663.88
635.94	41731.75
636.09	41816.01
636.24	41830.05
636.39	41963.46
636.53	41565.57
636.68	41378.33
636.83	41851.12
636.98	41446.21
637.13	41504.72
637.28	41659.20
637.43	41968.15
637.57	42312.20
637.72	41558.55
637.87	41827.71
638.02	41488.34
638.17	41565.57
638.32	41394.71
638.46	41092.79
638.61	41471.95
638.76	41443.87
638.91	41495.36
639.06	41427.48
639.20	41137.26
639.35	41418.12
639.50	41502.38
639.65	41783.24
639.80	41258.96
639.94	41223.86
640.09	41200.45
640.24	40840.01
640.39	40638.72
640.54	41038.95
640.68	40779.15
640.83	41123.21
640.98	40893.84
641.13	40643.40
641.27	41186.41
641.42	40957.03
641.57	41329.18
641.72	40903.20
641.86	40491.27
642.01	40790.86
642.16	40425.73
642.31	40315.73
642.45	40767.45
642.60	40292.32
642.75	40594.25
642.90	40655.11
643.04	40289.98
643.19	40196.36
643.34	40357.86
643.48	40156.57
643.63	40299.34
643.78	40217.43
643.93	40385.94
644.07	40177.64
644.22	40397.65
644.37	39889.75
644.51	40458.50
644.66	40289.98
644.81	40069.97
644.95	40549.78
645.10	40432.75
645.25	40341.47
645.39	40547.44
645.54	40325.09
645.69	40032.52
645.83	39885.07
645.98	40449.14
646.13	40219.77
646.27	39950.60
646.42	39955.29
646.57	39590.16
646.71	39501.22
646.86	39903.79
647.00	39688.46
647.15	39943.58
647.30	40100.40
647.44	39686.12
647.59	39697.83
647.74	39225.04
647.88	39704.85
648.03	40147.21
648.17	39695.49
648.32	40081.67
648.47	39700.17
648.61	39431.01
648.76	39761.02
648.90	39573.78
649.05	39353.77
649.20	39070.56
649.34	39421.64
649.49	39093.97
649.63	39234.40
649.78	39639.31
649.92	39524.63
650.07	39548.03
650.21	39288.23
650.36	39342.06
650.51	39395.90
650.65	39445.05
650.80	39880.39
650.94	39232.06
651.09	39484.84
651.23	39423.98
651.38	39051.84
651.52	38653.95
651.67	39248.44
651.81	38593.09
651.96	38312.23
652.10	38565.01
652.25	38621.18
652.39	38836.51
652.54	38651.61
652.68	38766.29
652.83	38536.92
652.97	38749.91
653.12	38770.97
653.26	38876.30
653.41	38693.74
653.55	38188.18
653.70	38609.48
653.84	38464.36
653.99	38433.94
654.13	38565.01
654.27	38761.61
654.42	38532.24
654.56	38279.46
654.71	38340.32
654.85	38630.54
655.00	38583.73
655.14	38272.44
655.29	38141.37
655.43	38117.96
655.57	37514.11
655.72	37963.49
655.86	37516.45
656.01	37649.86
656.15	37509.43
656.30	37551.56
656.44	37745.82
656.58	37888.59
656.73	37263.67
656.87	37841.78
657.01	38124.99
657.16	38057.11
657.30	37680.28
657.45	37855.82
657.59	37930.72
657.73	37371.33
657.88	38635.22
658.02	38307.55
658.16	38469.04
658.31	38087.54
658.45	37862.85
658.60	37649.86
658.74	37535.17
658.88	37471.98
659.03	37546.87
659.17	37256.65
659.31	37141.96
659.46	36598.96
659.60	37603.05
659.74	37385.38
659.89	37605.39
660.03	37266.01
660.17	36629.38
660.32	37343.25
660.46	37081.11
660.60	36727.69
660.74	36931.31
660.89	36875.14
661.03	37153.66
661.17	36692.58
661.32	36435.12
661.46	36620.02
661.60	36795.56
661.74	36694.92
661.89	36233.83
662.03	36615.34
662.17	36084.04
662.31	36542.78
662.46	36439.80
662.60	36615.34
662.74	36154.26
662.88	36353.20
663.03	35915.52
663.17	36463.21
663.31	36081.70
663.45	36126.17
663.60	36282.98
663.74	36126.17
663.88	36070.00
664.02	35793.81
664.17	35819.56
664.31	35597.21
664.45	36034.89
664.59	35969.35
664.73	35400.60
664.88	36081.70
665.02	35543.38
665.16	35702.53
665.30	35400.60
665.44	35138.46
665.59	35358.47
665.73	35164.21
665.87	35407.62
666.01	34836.53
666.15	35536.35
666.29	35138.46
666.44	35002.71
666.58	34976.97
666.72	34906.75
666.86	34981.65
667.00	35587.85
667.14	34656.31
667.28	34457.37
667.43	34639.93
667.57	34813.13
667.71	34258.42
667.85	34740.57
667.99	34272.46
668.13	34761.64
668.27	34550.99
668.41	34448.00
668.56	34171.82
668.70	34380.13
668.84	34452.69
668.98	33961.17
669.12	33670.95
669.26	33900.32
669.40	33689.67
669.54	33799.68
669.68	33783.29
669.82	33675.63
669.96	33397.10
670.10	33048.36
670.25	33490.73
670.39	33064.75
670.53	32961.76
670.67	33127.94
670.81	33717.76
670.95	33439.23
671.09	33336.25
671.23	33123.26
671.37	33326.89
671.51	33036.66
671.65	32678.56
671.79	32680.90
671.93	32608.34
672.07	32863.46
672.21	32950.06
672.35	32823.67
672.49	32699.62
672.63	32554.51
672.77	33060.07
672.91	32233.86
673.05	32421.10
673.19	32173.00
673.33	32011.51
673.47	31999.80
673.61	32046.62
673.75	32130.87
673.89	31983.42
674.03	31482.55
674.17	31775.11
674.31	31653.40
674.45	31810.22
674.59	32095.77
674.73	31943.63
674.87	31590.21
675.01	31519.99
675.15	31346.79
675.29	31414.67
675.43	31339.77
675.56	30984.01
675.70	31063.59
675.84	30960.61
675.98	30115.67
676.12	30782.73
676.26	31054.23
676.40	30291.21
676.54	30768.68
676.68	30565.06
676.82	29949.50
676.96	30562.72
677.10	30078.22
677.23	30359.09
677.37	30281.85
677.51	29898.00
677.65	29780.98
677.79	29467.34
677.93	29851.19
678.07	29434.58
678.21	29359.68
678.34	29366.70
678.48	29268.40
678.62	28964.13
678.76	28730.08
678.90	28739.44
679.04	28826.04
679.18	28737.10
679.31	28521.77
679.45	28233.88
679.59	28304.10
679.73	28212.82
679.87	28297.08
680.00	28100.47
680.14	28294.74
680.28	28355.59
680.42	28168.35
680.56	28107.49
680.70	27988.13
680.83	28184.73
680.97	27821.95
681.11	27744.71
681.25	27742.37
681.39	27318.73
681.52	27428.74
681.66	27613.64
681.80	27122.13
681.94	27159.58
682.07	27061.27
682.21	26911.48
682.35	26515.93
682.49	26925.52
682.62	26948.93
682.76	26412.95
682.90	26532.31
683.04	26419.97
683.17	25951.86
683.31	26206.98
683.45	25951.86
683.59	25820.79
683.72	25619.50
683.86	25675.68
684.00	25860.58
684.13	25954.20
684.27	25841.85
684.41	25371.41
684.55	25560.99
684.68	25640.57
684.82	25373.75
684.96	25263.74
685.09	25685.04
685.23	25212.25
685.37	24905.64
685.50	25170.12
685.64	24601.37
685.78	24692.65
685.91	24673.93
686.05	24383.70
686.19	24411.79
686.32	24023.26
686.46	23931.98
686.60	23939.00
686.73	23590.26
686.87	23360.89
687.01	23311.74
687.14	23515.36
687.28	23108.11
687.42	23398.34
687.55	23105.77
687.69	23374.93
687.82	23253.22
687.96	23564.51
688.10	22885.76
688.23	23075.34
688.37	22501.91
688.50	22712.56
688.64	22824.90
688.78	22888.10
688.91	22586.17
689.05	22621.28
689.18	22492.55
689.32	22150.83
689.46	22412.97
689.59	22588.51
689.73	22272.54
689.86	22092.32
690.00	22038.48
690.13	22422.33
690.27	21621.87
690.41	21851.24
690.54	21542.29
690.68	21411.22
690.81	21497.82
690.95	21626.55
691.08	21738.90
691.22	21514.20
691.35	21352.71
691.49	21404.20
691.62	21275.47
691.76	20898.64
691.89	21142.06
692.03	21029.71
692.16	20753.53
692.30	20585.01
692.43	20758.21
692.57	20334.57
692.70	20573.31
692.84	20350.96
692.97	20325.21
693.11	20025.62
693.24	20121.59
693.38	19941.36
693.51	19805.61
693.65	20128.61
693.78	19985.83
693.92	19822.00
694.05	19784.55
694.19	19840.72
694.32	19028.56
694.45	19187.71
694.59	19372.61
694.72	19058.98
694.86	19255.59
694.99	19054.30
695.13	18780.46
695.26	18944.30
695.39	19094.09
695.53	18850.67
695.66	18862.38
695.80	18841.31
695.93	18649.39
696.07	18277.24
696.20	18356.82
696.33	18600.24
696.47	18420.02
696.60	18141.49
696.73	18019.78
696.87	18017.44
697.00	17818.50
697.14	17825.52
697.27	17788.07
697.40	17682.75
697.54	17778.71
697.67	17476.78
697.80	17511.89
697.94	17289.54
698.07	17174.85
698.21	17149.11
698.34	17106.98
698.47	17301.24
698.61	16807.39
698.74	16833.13
698.87	16629.51
699.01	16662.27
699.14	16283.11
699.27	16512.48
699.40	16435.24
699.54	16297.15
699.67	16250.34
699.80	16269.06
699.94	16446.94
700.07	16470.35
700.20	16292.47
700.34	16049.05
700.47	16283.11
700.60	16166.08
700.73	16114.59
700.87	15763.51
701.00	15985.86
701.13	15637.12
701.26	15800.96
701.40	15548.18
701.53	15517.75
701.66	15194.76
701.79	15110.50
701.93	15115.18
702.06	15239.23
702.19	15056.67
702.32	15173.69
702.46	15044.96
702.59	15098.80
702.72	15030.92
702.85	14878.79
702.99	14958.36
703.12	14860.06
703.25	14623.67
703.38	14602.60
703.51	14396.64
703.65	14595.58
703.78	14630.69
703.91	14469.19
704.04	14169.60
704.17	14527.71
704.31	14083.00
704.44	14122.79
704.57	14148.54
704.70	13977.68
704.83	14005.77
704.96	13738.94
705.10	13762.35
705.23	14073.64
>>>>>End Processed Spectral Data<<<<<
