SpectraSuite Data File
++++++++++++++++++++++++++++++++++++
Date: Fri Oct 25 11:34:44 EDT 2013
User: price-jones
Dark Spectrum Present: No
Reference Spectrum Present: No
Number of Sampled Component Spectra: 1
Spectrometers: USB2+H05261
Integration Time (usec): 100000 (USB2+H05261)
Spectra Averaged: 1 (USB2+H05261)
Boxcar Smoothing: 0 (USB2+H05261)
Correct for Electrical Dark: No (USB2+H05261)
Strobe/Lamp Enabled: No (USB2+H05261)
Correct for Detector Non-linearity: No (USB2+H05261)
Correct for Stray Light: No (USB2+H05261)
Number of Pixels in Processed Spectrum: 2048
>>>>>Begin Processed Spectral Data<<<<<
365.73	327.68
365.92	327.68
366.12	327.68
366.32	175.54
366.52	149.79
366.72	184.90
366.91	264.48
367.11	201.29
367.31	201.29
367.51	168.52
367.70	184.90
367.90	201.29
368.10	121.71
368.30	248.10
368.49	215.33
368.69	198.95
368.89	194.26
369.09	215.33
369.28	201.29
369.48	222.35
369.68	236.39
369.87	210.65
370.07	262.14
370.27	255.12
370.47	318.31
370.66	479.81
370.86	428.32
371.06	517.26
371.25	540.66
371.45	531.30
371.65	566.41
371.84	564.07
372.04	550.03
372.24	624.92
372.44	500.87
372.63	568.75
372.83	601.52
373.03	561.73
373.22	538.32
373.42	564.07
373.62	545.34
373.81	578.11
374.01	613.22
374.21	667.05
374.40	606.20
374.60	631.94
374.79	631.94
374.99	662.37
375.19	645.99
375.38	571.09
375.58	676.41
375.78	664.71
375.97	685.78
376.17	732.59
376.37	624.92
376.56	631.94
376.76	561.73
376.95	660.03
377.15	674.07
377.35	662.37
377.54	669.39
377.74	669.39
377.93	690.46
378.13	653.01
378.33	638.97
378.52	660.03
378.72	732.59
378.91	655.35
379.11	636.63
379.31	711.52
379.50	720.88
379.70	746.63
379.89	746.63
380.09	638.97
380.28	697.48
380.48	676.41
380.68	730.25
380.87	697.48
381.07	781.74
381.26	753.65
381.46	727.91
381.65	763.01
381.85	753.65
382.04	814.51
382.24	791.10
382.43	758.33
382.63	739.61
382.83	741.95
383.02	842.59
383.22	854.30
383.41	718.54
383.61	835.57
383.80	798.12
384.00	809.83
384.19	758.33
384.39	828.55
384.58	880.04
384.78	821.53
384.97	833.23
385.17	812.17
385.36	772.38
385.56	847.27
385.75	802.80
385.95	772.38
386.14	802.80
386.34	947.92
386.53	905.79
386.72	835.57
386.92	858.98
387.11	828.55
387.31	889.40
387.50	858.98
387.70	922.17
387.89	896.43
388.09	898.77
388.28	837.91
388.48	915.15
388.67	940.90
388.86	842.59
389.06	856.64
389.25	889.40
389.45	922.17
389.64	898.77
389.84	1006.43
390.03	917.49
390.22	985.37
390.42	936.21
390.61	936.21
390.81	1027.50
391.00	873.02
391.19	997.07
391.39	987.71
391.58	898.77
391.78	919.83
391.97	954.94
392.16	971.32
392.36	1018.13
392.55	1057.92
392.75	931.53
392.94	1069.62
393.13	1027.50
393.33	1055.58
393.52	1029.84
393.71	1081.33
393.91	1088.35
394.10	1048.56
394.29	976.00
394.49	992.39
394.68	1013.45
394.88	1160.91
395.07	1207.72
395.26	1142.18
395.46	1144.52
395.65	1050.90
395.84	1109.41
396.04	1153.88
396.23	1123.46
396.42	1170.27
396.62	1123.46
396.81	1123.46
397.00	1191.33
397.19	1191.33
397.39	1198.35
397.58	1181.97
397.77	1135.16
397.97	1156.22
398.16	1128.14
398.35	1226.44
398.55	1277.93
398.74	1291.98
398.93	1273.25
399.12	1231.12
399.32	1301.34
399.51	1156.22
399.70	1338.79
399.90	1256.87
400.09	1242.82
400.28	1287.29
400.47	1345.81
400.67	1355.17
400.86	1315.38
401.05	1331.76
401.24	1334.11
401.44	1397.30
401.63	1488.58
401.82	1434.75
402.01	1350.49
402.21	1437.09
402.40	1441.77
402.59	1469.86
402.78	1434.75
402.97	1469.86
403.17	1493.26
403.36	1521.35
403.55	1465.18
403.74	1497.94
403.93	1453.47
404.13	1460.49
404.32	1568.16
404.51	1519.01
404.70	1516.67
404.89	1533.05
405.09	1556.46
405.28	1600.93
405.47	1675.82
405.66	1586.88
405.85	1598.59
406.05	1631.35
406.24	1706.25
406.43	1624.33
406.62	1708.59
406.81	1708.59
407.00	1699.23
407.20	1687.53
407.39	1710.93
407.58	1818.60
407.77	1760.08
407.96	1750.72
408.15	1809.23
408.34	1785.83
408.54	1825.62
408.73	1872.43
408.92	1891.15
409.11	1874.77
409.30	1987.11
409.49	1942.64
409.68	1900.52
409.87	1956.69
410.07	1940.30
410.26	1930.94
410.45	2015.20
410.64	2022.22
410.83	2090.10
411.02	2019.88
411.21	2036.27
411.40	2017.54
411.59	2134.57
411.78	2214.15
411.98	2101.80
412.17	2019.88
412.36	2172.02
412.55	2188.40
412.74	2263.30
412.93	2221.17
413.12	2167.34
413.31	2406.07
413.50	2298.41
413.69	2244.57
413.88	2459.90
414.07	2429.48
414.26	2387.35
414.45	2380.32
414.64	2389.69
414.83	2429.48
415.02	2497.35
415.22	2434.16
415.41	2668.21
415.60	2537.14
415.79	2532.46
415.98	2691.62
416.17	2614.38
416.36	2597.99
416.55	2569.91
416.74	2686.94
416.93	2693.96
417.12	2693.96
417.31	2719.70
417.50	2808.64
417.69	2766.51
417.88	2738.43
418.07	2801.62
418.26	2892.90
418.45	2750.13
418.64	2920.99
418.83	2867.16
419.02	2951.42
419.21	2904.60
419.39	2932.69
419.58	2970.14
419.77	2846.09
419.96	3070.78
420.15	2977.16
420.34	2974.82
420.53	3070.78
420.72	3173.77
420.91	2981.84
421.10	3131.64
421.29	3173.77
421.48	3112.91
421.67	3145.68
421.86	3052.06
422.05	3232.28
422.24	3091.85
422.43	3178.45
422.61	3115.25
422.80	3215.90
422.99	3148.02
423.18	3314.20
423.37	3286.11
423.56	3222.92
423.75	3199.51
423.94	3155.04
424.13	3124.62
424.32	3164.40
424.50	3337.60
424.69	3276.75
424.88	3356.33
425.07	3105.89
425.26	3290.79
425.45	3220.58
425.64	3222.92
425.83	3377.39
426.01	3269.73
426.20	3241.64
426.39	3311.86
426.58	3239.30
426.77	3279.09
426.96	3342.28
427.15	3389.10
427.33	3473.36
427.52	3475.70
427.71	3368.03
427.90	3431.23
428.09	3419.52
428.28	3574.00
428.46	3431.23
428.65	3499.10
428.84	3496.76
429.03	3604.42
429.22	3536.55
429.40	3552.93
429.59	3555.27
429.78	3375.05
429.97	3534.21
430.16	3545.91
430.34	3730.81
430.53	3707.41
430.72	3676.98
430.91	3618.47
431.10	3735.50
431.28	3709.75
431.47	3761.24
431.66	3786.99
431.85	3716.77
432.03	3932.10
432.22	3824.44
432.41	3786.99
432.60	3829.12
432.79	3833.80
432.97	3894.65
433.16	3840.82
433.35	3901.67
433.54	3840.82
433.72	3988.27
433.91	4058.49
434.10	4018.70
434.28	4067.85
434.47	4093.60
434.66	4070.19
434.85	3992.95
435.03	4168.49
435.22	4044.45
435.41	4177.86
435.59	4131.05
435.78	4236.37
435.97	4299.56
436.16	4224.67
436.34	4236.37
436.53	4264.46
436.72	4273.82
436.90	4060.83
437.09	4315.95
437.28	4170.83
437.46	4304.25
437.65	4416.59
437.84	4332.33
438.02	4227.01
438.21	4400.21
438.40	4430.63
438.58	4568.73
438.77	4524.26
438.96	4559.36
439.14	4622.56
439.33	4627.24
439.52	4608.51
439.70	4657.67
439.89	4844.91
440.08	4636.60
440.26	4723.20
440.45	4784.06
440.63	4676.39
440.82	4961.94
441.01	4779.37
441.19	4784.06
441.38	4877.68
441.57	5074.28
441.75	5046.20
441.94	5186.63
442.12	5146.84
442.31	5130.45
442.50	5289.61
442.68	5259.18
442.87	5247.48
443.05	5315.36
443.24	5324.72
443.43	5205.35
443.61	5348.12
443.80	5432.38
443.98	5235.78
444.17	5158.54
444.35	5277.91
444.54	5446.43
444.73	5430.04
444.91	5378.55
445.10	5294.29
445.28	5408.98
445.47	5357.49
445.65	5451.11
445.84	5497.92
446.02	5416.00
446.21	5406.64
446.39	5324.72
446.58	5460.47
446.77	5444.09
446.95	5383.23
447.14	5490.90
447.32	5420.68
447.51	5432.38
447.69	5357.49
447.88	5558.77
448.06	5523.66
448.25	5348.12
448.43	5657.07
448.62	5509.62
448.80	5483.88
448.99	5521.32
449.17	5596.22
449.36	5488.56
449.54	5802.19
449.73	5643.03
449.91	5774.10
450.10	5729.63
450.28	5738.99
450.46	5757.72
450.65	5849.00
450.83	5809.21
451.02	5863.04
451.20	5888.79
451.39	5942.62
451.57	5783.46
451.76	5760.06
451.94	5760.06
452.13	5837.30
452.31	5844.32
452.49	5806.87
452.68	5884.11
452.86	5942.62
453.05	6045.60
453.23	6052.63
453.42	5998.79
453.60	5837.30
453.78	6115.82
453.97	6022.20
454.15	6069.01
454.34	6033.90
454.52	6282.00
454.70	6183.70
454.89	6368.60
455.07	6319.45
455.26	6345.19
455.44	6338.17
455.62	6427.11
455.81	6326.47
455.99	6382.64
456.17	6333.49
456.36	6410.73
456.54	6537.12
456.73	6614.35
456.91	6621.38
457.09	6600.31
457.28	6684.57
457.46	6719.68
457.64	6672.87
457.83	6752.45
458.01	6752.45
458.19	6892.88
458.38	6642.44
458.56	6878.83
458.74	6822.66
458.93	6747.76
459.11	6841.39
459.29	6920.96
459.48	7014.59
459.66	6953.73
459.84	6942.03
460.03	7117.57
460.21	6951.39
460.39	6946.71
460.57	6972.46
460.76	6981.82
460.94	7138.63
461.12	6963.09
461.31	7131.61
461.49	7206.51
461.67	7066.08
461.85	7297.79
462.04	7183.10
462.22	7339.92
462.40	7309.49
462.59	7447.58
462.77	7197.15
462.95	7344.60
463.13	7190.13
463.32	7276.73
463.50	7503.76
463.68	7431.20
463.86	7632.49
464.05	7351.62
464.23	7445.24
464.41	7531.84
464.59	7414.82
464.78	7592.70
464.96	7569.29
465.14	7658.23
465.32	7632.49
465.50	7625.47
465.69	7740.15
465.87	7676.96
466.05	7749.51
466.23	7782.28
466.41	7789.30
466.60	8009.31
466.78	7571.63
466.96	7756.54
467.14	7660.57
467.32	7990.59
467.51	7845.48
467.69	7894.63
467.87	7985.91
468.05	7932.08
468.23	7854.84
468.41	7801.01
468.60	7988.25
468.78	8023.36
468.96	7997.61
469.14	8074.85
469.32	8297.20
469.50	7985.91
469.69	8128.68
469.87	8149.75
470.05	8210.60
470.23	8290.18
470.41	8432.95
470.59	8430.61
470.77	8226.98
470.95	8285.50
471.14	8475.08
471.32	8093.57
471.50	8545.30
471.68	8547.64
471.86	8510.19
472.04	8652.96
472.22	8910.42
472.40	8788.71
472.58	8674.03
472.77	8669.34
472.95	8882.33
473.13	9095.32
473.31	8795.73
473.49	8716.16
473.67	8793.39
473.85	9046.17
474.03	9116.39
474.21	9369.16
474.39	9238.09
474.57	9324.69
474.75	9502.58
474.93	9472.15
475.12	9458.10
475.30	9465.13
475.48	9352.78
475.66	9413.63
475.84	9600.88
476.02	9628.96
476.20	9736.63
476.38	9799.82
476.56	10174.31
476.74	10106.43
476.92	9841.95
477.10	9926.21
477.28	10146.22
477.46	10193.03
477.64	10246.87
477.82	10455.17
478.00	10548.79
478.18	10487.94
478.36	10663.48
478.54	10471.56
478.72	10750.08
478.90	10970.09
479.08	11040.31
479.26	11162.01
479.44	11140.95
479.62	11215.85
479.80	11321.17
479.98	11204.14
480.16	11477.99
480.34	11410.11
480.52	11679.27
480.70	11562.25
480.88	11564.59
481.06	11920.35
481.24	11632.46
481.41	11824.39
481.59	12145.04
481.77	12161.42
481.95	12301.86
482.13	12098.23
482.31	12273.77
482.49	12498.46
482.67	12416.54
482.85	12662.30
483.03	12786.35
483.21	13034.44
483.39	13081.25
483.57	13336.37
483.74	13027.42
483.92	13123.38
484.10	13109.34
484.28	13209.98
484.46	13654.69
484.64	13954.27
484.82	13731.92
485.00	13692.13
485.18	14043.21
485.35	14214.07
485.53	14300.67
485.71	14064.28
485.89	14661.12
486.07	14581.54
486.25	14537.07
486.43	14689.20
486.61	14733.67
486.78	14892.83
486.96	15145.61
487.14	15279.02
487.32	15000.49
487.50	15152.63
487.68	15520.09
487.85	15679.25
488.03	15889.90
488.21	15882.88
488.39	16208.21
488.57	16318.22
488.75	16212.89
488.92	16596.74
489.10	16524.18
489.28	16727.81
489.46	16798.02
489.64	17114.00
489.81	17259.11
489.99	17319.96
490.17	17263.79
490.35	17483.80
490.53	17472.10
490.70	17855.95
490.88	17607.85
491.06	17645.30
491.24	17584.44
491.41	18024.47
491.59	18125.11
491.77	18082.98
491.95	18251.50
492.13	18469.17
492.30	18373.21
492.48	18677.48
492.66	18724.29
492.84	18874.08
493.01	18890.46
493.19	19096.43
493.37	19243.88
493.54	19110.47
493.72	19545.81
493.90	19452.19
494.08	19473.26
494.25	19709.65
494.43	19445.17
494.61	20009.24
494.79	19964.77
494.96	20163.72
495.14	20514.80
495.32	20341.60
495.49	20187.12
495.67	20563.95
495.85	20842.47
496.02	20856.51
496.20	20973.54
496.38	20957.16
496.55	21104.61
496.73	21837.20
496.91	21378.45
497.09	21561.02
497.26	21446.33
497.44	21703.79
497.62	21589.10
497.79	22209.34
497.97	21881.67
498.14	22469.14
498.32	22071.25
498.50	22597.87
498.67	22333.39
498.85	22731.28
499.03	22745.33
499.20	22937.25
499.38	22892.78
499.56	22881.08
499.73	22782.77
499.91	23063.64
500.08	23183.01
500.26	23096.41
500.44	23201.73
500.61	23550.47
500.79	23119.81
500.97	23889.85
501.14	23730.69
501.32	23828.99
501.49	23924.96
501.67	23770.48
501.84	24250.29
502.02	23997.51
502.20	24180.07
502.37	24397.74
502.55	24395.40
502.72	24467.96
502.90	24526.47
503.07	24486.68
503.25	24664.57
503.43	24350.93
503.60	24861.17
503.78	24858.83
503.95	24996.92
504.13	24645.84
504.30	25340.98
504.48	25067.14
504.65	25149.06
504.83	25465.03
505.01	25640.57
505.18	25443.96
505.36	25727.17
505.53	25507.16
505.71	25696.74
505.88	26038.46
506.06	25895.69
506.23	26150.81
506.41	25954.20
506.58	26455.08
506.76	26302.94
506.93	26642.32
507.11	26380.18
507.28	26394.22
507.46	26529.97
507.63	26565.08
507.81	26586.15
507.98	26778.07
508.16	26948.93
508.33	27084.68
508.50	26768.71
508.68	26834.24
508.85	27400.65
509.03	27159.58
509.20	27225.11
509.38	27662.79
509.55	27630.02
509.73	27777.48
509.90	27960.04
510.08	27665.13
510.25	27805.56
510.42	27997.49
510.60	28268.99
510.77	28245.58
510.95	28400.06
511.12	28166.01
511.30	28299.42
511.47	28343.89
511.64	28311.12
511.82	28671.56
511.99	28547.51
512.17	28788.59
512.34	28664.54
512.51	29003.92
512.69	29081.16
512.86	29071.79
513.04	29387.77
513.21	28907.96
513.38	29331.59
513.56	30036.09
513.73	29193.50
513.90	29518.84
514.08	29275.42
514.25	29743.53
514.43	29656.93
514.60	29589.05
514.77	29905.02
514.95	29909.71
515.12	29577.35
515.29	30096.95
515.47	30298.23
515.64	30494.84
515.81	30029.07
515.99	29883.96
516.16	30756.98
516.33	30242.06
516.51	30738.26
516.68	30511.22
516.85	30527.61
517.03	30586.12
517.20	30464.41
517.37	30551.01
517.54	31187.64
517.72	30998.06
517.89	31257.85
518.06	30986.35
518.24	31314.03
518.41	31051.89
518.58	31269.56
518.75	31412.33
518.93	31611.28
519.10	31552.76
519.27	31564.46
519.45	31426.37
519.62	32147.26
519.79	32018.53
519.96	31695.53
520.14	32238.54
520.31	31519.99
520.48	32025.55
520.65	32350.88
520.83	32563.87
521.00	32638.77
521.17	32355.57
521.34	32694.94
521.52	32795.59
521.69	32657.49
521.86	32524.08
522.03	32903.25
522.20	32877.51
522.38	33050.70
522.55	33043.68
522.72	33167.73
522.89	33149.01
523.07	33247.31
523.24	33539.88
523.41	33310.50
523.58	32472.59
523.75	33563.28
523.92	33347.95
524.10	33633.50
524.27	33663.93
524.44	33710.74
524.61	33734.14
524.78	33675.63
524.96	33993.94
525.13	34340.34
525.30	34632.91
525.47	34431.62
525.64	33809.04
525.81	34127.35
525.98	34148.42
526.16	34181.18
526.33	34508.86
526.50	34267.78
526.67	34103.95
526.84	34595.46
527.01	34164.80
527.18	34649.29
527.36	35267.19
527.53	34593.12
527.70	35283.58
527.87	35126.76
528.04	34712.49
528.21	35180.59
528.38	35243.79
528.55	35264.85
528.72	34944.20
528.89	35491.88
529.07	35072.93
529.24	35185.27
529.41	35225.06
529.58	35161.87
529.75	35559.76
529.92	35129.10
530.09	35232.08
530.26	35435.71
530.43	36013.82
530.60	35463.80
530.77	35311.66
530.94	36030.21
531.11	35526.99
531.28	35793.81
531.46	35662.74
531.63	35672.10
531.80	36348.52
531.97	36240.86
532.14	36158.94
532.31	35917.86
532.48	36491.29
532.65	36720.66
532.82	36348.52
532.99	36474.91
533.16	36236.17
533.33	36580.23
533.50	36765.14
533.67	36648.11
533.84	36524.06
534.01	36442.14
534.18	36940.68
534.35	36741.73
534.52	37235.58
534.69	37347.93
534.86	37132.60
535.03	37036.64
535.20	37221.54
535.37	37242.60
535.54	37141.96
535.71	37130.26
535.88	37441.55
536.05	37418.14
536.22	37628.79
536.38	37420.48
536.55	37390.06
536.72	37387.72
536.89	37352.61
537.06	37841.78
537.23	37659.22
537.40	37345.59
537.57	37574.96
537.74	37645.18
537.91	38183.50
538.08	37422.83
538.25	37490.70
538.42	37897.95
538.59	38169.46
538.75	37832.42
538.92	38279.46
539.09	38169.46
539.26	37827.74
539.43	38457.34
539.60	38277.12
539.77	38094.56
539.94	38543.94
540.11	38167.12
540.28	38485.43
540.44	38345.00
540.61	38464.36
540.78	38738.21
540.95	38841.19
541.12	38768.63
541.29	38401.17
541.46	38401.17
541.62	38679.69
541.79	39058.86
541.96	38204.56
542.13	38742.89
542.30	38761.61
542.47	39269.51
542.63	39157.16
542.80	39161.84
542.97	39482.50
543.14	39524.63
543.31	39201.63
543.48	39367.81
543.64	39651.02
543.81	39810.17
543.98	39693.15
544.15	39676.76
544.32	39758.68
544.48	39800.81
544.65	39796.13
544.82	39854.64
544.99	39356.11
545.16	39754.00
545.32	40273.60
545.49	40198.70
545.66	40048.91
545.83	40603.61
546.00	40598.93
546.16	40151.89
546.33	40329.77
546.50	39931.88
546.67	40502.97
546.83	39910.82
547.00	40285.30
547.17	40266.58
547.34	40226.79
547.50	40575.53
547.67	40634.04
547.84	40236.15
548.00	40627.02
548.17	40989.80
548.34	40774.47
548.51	40964.06
548.67	40992.14
548.84	41490.68
549.01	40636.38
549.18	40767.45
549.34	41116.19
549.51	41184.07
549.68	40788.52
549.84	41008.53
550.01	41202.79
550.18	41146.62
550.34	41017.89
550.51	41467.27
550.68	41172.36
550.84	41284.71
551.01	41312.80
551.18	41408.76
551.34	41137.26
551.51	41296.41
551.68	41565.57
551.84	41095.13
552.01	41134.92
552.18	41614.72
552.34	41429.82
552.51	41354.93
552.68	41411.10
552.84	41624.09
553.01	41750.48
553.18	41366.63
553.34	41741.11
553.51	41790.27
553.67	41694.30
553.84	42064.11
554.01	41556.21
554.17	42057.09
554.34	42241.99
554.51	42139.00
554.67	42146.03
554.84	41855.80
555.00	42068.79
555.17	41991.55
555.33	41633.45
555.50	42082.83
555.67	42483.06
555.83	42146.03
556.00	42511.15
556.16	42698.39
556.33	42445.62
556.50	42258.37
556.66	42614.13
556.83	42464.34
556.99	43040.11
557.16	42560.30
557.32	42775.63
557.49	42981.60
557.65	42548.60
557.82	42632.86
557.98	42454.98
558.15	42733.50
558.32	42717.12
558.48	42487.74
558.65	42799.04
558.81	42672.65
558.98	42789.67
559.14	42916.06
559.31	42419.87
559.47	42642.22
559.64	42953.51
559.80	42939.47
559.97	43154.80
560.13	42759.25
560.30	42792.01
560.46	43220.33
560.63	43124.37
560.79	43086.92
560.96	43164.16
561.12	43220.33
561.29	42932.45
561.45	43510.56
561.61	43199.27
561.78	43700.14
561.94	43379.49
562.11	43021.39
562.27	43276.51
562.44	43232.04
562.60	43470.77
562.77	43721.21
562.93	42939.47
563.10	43650.99
563.26	43217.99
563.42	43964.62
563.59	43531.62
563.75	43665.03
563.92	43459.07
564.08	43416.94
564.24	43835.89
564.41	43957.60
564.57	43700.14
564.74	43636.95
564.90	43409.92
565.07	43117.35
565.23	43737.59
565.39	43533.96
565.56	43791.42
565.72	43667.37
565.88	43761.00
566.05	43395.87
566.21	43674.40
566.38	43842.92
566.54	44083.99
566.70	44048.88
566.87	43765.68
567.03	43845.26
567.19	43889.73
567.36	44055.90
567.52	43538.65
567.68	43821.85
567.85	43962.28
568.01	43941.22
568.17	43793.76
568.34	44041.86
568.50	43866.32
568.66	43721.21
568.83	43786.74
568.99	43913.13
569.15	43704.82
569.32	43894.41
569.48	43924.83
569.64	44280.60
569.81	44259.53
569.97	44341.45
570.13	44348.47
570.30	43934.20
570.46	44219.74
570.62	43938.88
570.78	43763.34
570.95	44264.21
571.11	44327.41
571.27	44112.08
571.43	43871.00
571.60	44079.31
571.76	44158.89
571.92	44514.65
572.09	44158.89
572.25	44381.24
572.41	44484.22
572.57	44133.14
572.74	44362.51
572.90	44479.54
573.06	44594.23
573.22	44491.24
573.38	44467.84
573.55	44198.68
573.71	44170.59
573.87	44397.62
574.03	44294.64
574.20	44720.62
574.36	44350.81
574.52	44837.64
574.68	43892.07
574.84	44421.03
575.01	44390.60
575.17	44624.65
575.33	44411.67
575.49	44381.24
575.65	44484.22
575.82	44603.59
575.98	44449.11
576.14	44774.45
576.30	44891.48
576.46	44694.87
576.62	44238.47
576.79	44442.09
576.95	44257.19
577.11	44444.43
577.27	44935.95
577.43	44488.90
577.59	44737.00
577.75	44105.06
577.92	44495.92
578.08	44832.96
578.24	44421.03
578.40	44711.25
578.56	44802.53
578.72	44954.67
578.88	44804.88
579.04	44744.02
579.21	44704.23
579.37	44924.24
579.53	44788.49
579.69	44495.92
579.85	44615.29
580.01	44671.46
580.17	44105.06
580.33	44830.62
580.49	45120.85
580.65	44680.83
580.82	44603.59
580.98	44367.20
581.14	44306.34
581.30	44502.95
581.46	44830.62
581.62	44467.84
581.78	44589.55
581.94	45008.50
582.10	44631.68
582.26	44512.31
582.42	44416.35
582.58	44493.58
582.74	44741.68
582.90	45230.85
583.06	44694.87
583.22	44701.89
583.38	44355.49
583.54	44966.37
583.70	45368.94
583.86	45392.35
584.02	44416.35
584.18	44949.99
584.34	45029.57
584.50	44875.09
584.66	45083.40
584.82	44987.44
584.98	45048.29
585.14	44821.26
585.30	44790.83
585.46	44748.70
585.62	44917.22
585.78	45076.38
585.94	44369.54
586.10	45034.25
586.26	44732.32
586.42	44299.32
586.58	44619.97
586.74	44666.78
586.90	44308.68
587.06	45078.72
587.22	45303.41
587.38	44683.17
587.54	44816.58
587.70	45748.11
587.86	45291.71
588.02	44807.22
588.18	44516.99
588.34	45102.12
588.49	45045.95
588.65	44722.96
588.81	44624.65
588.97	45038.93
589.13	45528.10
589.29	44535.71
589.45	45186.38
589.61	45188.72
589.77	44931.26
589.93	44982.76
590.08	45521.08
590.24	45305.75
590.40	45516.40
590.56	45329.16
590.72	45167.66
590.88	45120.85
591.04	45090.42
591.20	45411.07
591.35	45483.63
591.51	45900.25
591.67	45193.40
591.83	45701.30
591.99	45242.56
592.15	45340.86
592.31	45205.11
592.46	45113.83
592.62	45223.83
592.78	45296.39
592.94	45553.85
593.10	45549.17
593.26	45579.59
593.41	45413.41
593.57	45670.87
593.73	45359.58
593.89	45757.47
594.05	45411.07
594.20	45923.65
594.36	45787.90
594.52	45429.80
594.68	46012.59
594.84	44996.80
594.99	45895.56
595.15	45380.65
595.31	45694.28
595.47	45509.38
595.62	45546.82
595.78	44875.09
595.94	46033.66
596.10	45516.40
596.25	45701.30
596.41	45769.18
596.57	45308.09
596.73	45834.71
596.88	45572.57
597.04	45481.29
597.20	45525.76
597.36	45621.72
597.51	45886.20
597.67	45490.65
597.83	45249.58
597.99	45900.25
598.14	45701.30
598.30	45471.93
598.46	45900.25
598.61	45902.59
598.77	45509.38
598.93	45818.33
599.09	45794.92
599.24	46330.90
599.40	45825.35
599.56	45610.02
599.71	45659.17
599.87	45911.95
600.03	46466.66
600.18	45684.92
600.34	45574.91
600.50	45984.51
600.65	45951.74
600.81	45563.21
600.97	46291.12
601.12	46033.66
601.28	46319.20
601.44	45865.14
601.59	45490.65
601.75	45605.34
601.91	45902.59
602.06	45844.07
602.22	45944.72
602.37	45724.71
602.53	46059.40
602.69	45993.87
602.84	45633.42
603.00	45996.21
603.16	45705.98
603.31	45635.77
603.47	46305.16
603.62	45701.30
603.78	46021.95
603.94	45893.22
604.09	45542.14
604.25	45184.04
604.40	45455.54
604.56	45645.13
604.71	46216.22
604.87	45972.80
605.03	45647.47
605.18	45837.05
605.34	45869.82
605.49	45502.35
605.65	45734.07
605.80	45563.21
605.96	45769.18
606.12	45483.63
606.27	45696.62
606.43	45642.79
606.58	45509.38
606.74	45457.88
606.89	45404.05
607.05	45553.85
607.20	45984.51
607.36	45865.14
607.51	44985.10
607.67	45336.18
607.82	45518.74
607.98	45474.27
608.13	45579.59
608.29	45542.14
608.44	45832.37
608.60	45799.60
608.75	45752.79
608.91	45392.35
609.06	45116.17
609.22	45724.71
609.37	44910.20
609.53	45708.32
609.68	45752.79
609.84	45113.83
609.99	45687.26
610.15	45703.64
610.30	45610.02
610.46	45200.43
610.61	45312.77
610.76	45591.30
610.92	45378.31
611.07	45160.64
611.23	45359.58
611.38	44959.35
611.54	45109.14
611.69	45177.02
611.84	45345.54
612.00	45045.95
612.15	45467.25
612.31	45305.75
612.46	44524.01
612.62	44842.32
612.77	44886.79
612.92	45193.40
613.08	45390.01
613.23	45277.66
613.39	45188.72
613.54	44804.88
613.69	45418.10
613.85	45085.74
614.00	45258.94
614.15	45228.51
614.31	45207.45
614.46	44896.16
614.62	44816.58
614.77	44868.07
614.92	45062.33
615.08	44875.09
615.23	44823.60
615.38	45289.37
615.54	45167.66
615.69	45118.51
615.84	44760.40
616.00	45146.59
616.15	44804.88
616.30	44851.69
616.46	44769.77
616.61	44439.75
616.76	45043.61
616.92	45003.82
617.07	44772.11
617.22	44942.97
617.37	44554.44
617.53	44776.79
617.68	44687.85
617.83	44823.60
617.99	45214.47
618.14	45160.64
618.29	44830.62
618.45	44430.39
618.60	44346.13
618.75	44210.38
618.90	44561.46
619.06	44350.81
619.21	44641.04
619.36	44582.52
619.51	44662.10
619.67	44243.15
619.82	44191.65
619.97	44568.48
620.12	44547.42
620.28	44449.11
620.43	44526.35
620.58	44514.65
620.73	44119.10
620.89	44839.98
621.04	44268.89
621.19	44362.51
621.34	44502.95
621.49	44332.09
621.65	44357.83
621.80	44774.45
621.95	44334.43
622.10	44914.88
622.25	44435.07
622.41	43973.98
622.56	44385.92
622.71	44128.46
622.86	44074.63
623.01	43838.23
623.16	44411.67
623.32	44135.48
623.47	44088.67
623.62	43950.58
623.77	44411.67
623.92	44385.92
624.07	43952.92
624.23	43697.80
624.38	44051.22
624.53	44285.28
624.68	43611.20
624.83	43438.00
624.98	43580.78
625.13	43302.25
625.29	43496.52
625.44	43917.81
625.59	43676.74
625.74	43384.17
625.89	43482.47
626.04	43363.11
626.19	43356.08
626.34	43337.36
626.49	43433.32
626.65	43077.56
626.80	43922.49
626.95	42974.58
627.10	43079.90
627.25	43388.85
627.40	43161.82
627.55	43730.57
627.70	43171.18
627.85	43615.88
628.00	43594.82
628.15	43580.78
628.30	42866.91
628.45	42834.14
628.60	42850.53
628.76	43466.09
628.91	43016.71
629.06	43012.02
629.21	42824.78
629.36	42862.23
629.51	42789.67
629.66	43288.21
629.81	42740.52
629.96	43049.47
630.11	42731.16
630.26	42663.28
630.41	42969.90
630.56	42852.87
630.71	42806.06
630.86	43030.75
631.01	42677.33
631.16	42600.09
631.31	42546.26
631.46	42792.01
631.61	42953.51
631.76	42876.27
631.91	42658.60
632.06	42822.44
632.21	43033.09
632.36	43063.52
632.51	42841.17
632.66	42457.32
632.81	42433.91
632.96	42539.24
633.10	41764.52
633.25	42113.26
633.40	42344.97
633.55	42450.30
633.70	42328.59
633.85	42075.81
634.00	42319.23
634.15	42150.71
634.30	42211.56
634.45	41916.65
634.60	42106.24
634.75	42206.88
634.90	42284.12
635.05	42291.14
635.19	41626.43
635.34	41631.11
635.49	42340.29
635.64	42562.64
635.79	42351.99
635.94	41916.65
636.09	42251.35
636.24	41839.42
636.39	42265.39
636.53	41900.27
636.68	41303.43
636.83	41373.65
636.98	41418.12
637.13	41331.52
637.28	41654.51
637.43	41867.50
637.57	41853.46
637.72	41352.58
637.87	41684.94
638.02	41879.21
638.17	41654.51
638.32	41486.00
638.46	40957.03
638.61	41186.41
638.76	41287.05
638.91	41148.96
639.06	41219.17
639.20	41181.73
639.35	41233.22
639.50	41200.45
639.65	41469.61
639.80	41684.94
639.94	41291.73
640.09	41528.13
640.24	41441.53
640.39	40816.60
640.54	41092.79
640.68	41230.88
640.83	41729.41
640.98	40825.96
641.13	40982.78
641.27	41603.02
641.42	41165.34
641.57	40587.23
641.72	41141.94
641.86	40601.27
642.01	40484.25
642.16	40617.66
642.31	40451.48
642.45	40601.27
642.60	40598.93
642.75	40648.08
642.90	40938.31
643.04	41064.70
643.19	40556.80
643.34	40643.40
643.48	41076.40
643.63	40568.51
643.78	41212.15
643.93	40638.72
644.07	40896.18
644.22	41160.66
644.37	40683.19
644.51	40481.91
644.66	40509.99
644.81	40575.53
644.95	40973.42
645.10	40575.53
645.25	40142.53
645.39	40114.44
645.54	40659.79
645.69	40264.24
645.83	40203.38
645.98	39990.39
646.13	40404.67
646.27	40081.67
646.42	39814.85
646.57	40432.75
646.71	40451.48
646.86	40348.50
647.00	40095.72
647.15	40378.92
647.30	40168.27
647.44	39915.50
647.59	40231.47
647.74	40055.93
647.88	40060.61
648.03	40264.24
648.17	39971.67
648.32	39871.03
648.47	40222.11
648.61	39772.72
648.76	39978.69
648.90	39856.98
649.05	39885.07
649.20	40229.13
649.34	39688.46
649.49	39840.60
649.63	39861.66
649.78	39517.60
649.92	39789.11
650.07	40060.61
650.21	40016.14
650.36	39859.32
650.51	39552.71
650.65	40135.51
650.80	39810.17
650.94	39676.76
651.09	39473.13
651.23	39665.06
651.38	39218.02
651.52	39316.32
651.67	39416.96
651.81	39714.21
651.96	39587.82
652.10	38944.17
652.25	39243.76
652.39	39641.65
652.54	39229.72
652.68	39442.71
652.83	39306.96
652.97	39213.34
653.12	39271.85
653.26	39491.86
653.41	39349.09
653.55	39379.51
653.70	39395.90
653.84	39353.77
653.99	39328.02
654.13	38869.28
654.27	39269.51
654.42	39143.12
654.56	38550.96
654.71	38972.26
654.85	38691.40
655.00	39533.99
655.14	39030.77
655.29	39592.50
655.43	39262.49
655.57	38813.10
655.72	38923.11
655.86	38450.32
656.01	38593.09
656.15	38775.66
656.30	38682.03
656.44	38649.27
656.58	38810.76
656.73	38387.13
656.87	38155.41
657.01	38192.86
657.16	38785.02
657.30	38368.40
657.45	38520.54
657.59	38466.70
657.73	38146.05
657.88	38944.17
658.02	38670.33
658.16	38359.04
658.31	38146.05
658.45	38508.83
658.60	38532.24
658.74	38506.49
658.88	38623.52
659.03	38066.47
659.17	38059.45
659.31	38174.14
659.46	37834.76
659.60	37961.15
659.74	37647.52
659.89	37614.75
660.03	37462.61
660.17	37675.60
660.32	37729.44
660.46	37488.36
660.60	37514.11
660.74	37806.67
660.89	37785.61
661.03	37471.98
661.17	37247.29
661.32	37055.36
661.46	37581.98
661.60	37184.09
661.74	36924.29
661.89	37141.96
662.03	37247.29
662.17	36833.01
662.31	36919.61
662.46	36921.95
662.60	37090.47
662.74	36671.51
662.88	36327.45
663.03	36847.05
663.17	36603.64
663.31	36444.48
663.45	36851.73
663.60	36851.73
663.74	37036.64
663.88	36720.66
664.02	36280.64
664.17	36910.25
664.31	36095.74
664.45	36292.35
664.59	36037.23
664.73	36041.91
664.88	36025.53
665.02	35723.60
665.16	36144.89
665.30	35852.33
665.44	36201.07
665.59	35344.43
665.73	35555.08
665.87	35276.55
666.01	35945.95
666.15	35456.78
666.29	35283.58
666.44	35817.22
666.58	35571.46
666.72	35353.79
666.86	35227.40
667.00	35283.58
667.14	35522.31
667.28	34892.71
667.43	35250.81
667.57	35461.46
667.71	35559.76
667.85	35463.80
667.99	35185.27
668.13	34937.18
668.27	34700.78
668.41	34583.76
668.56	34562.69
668.70	34572.05
668.84	34174.16
668.98	34256.08
669.12	34539.29
669.26	34417.58
669.40	34483.11
669.54	34345.02
669.68	34558.01
669.82	34127.35
669.96	33628.82
670.10	33862.87
670.25	33762.23
670.39	33818.40
670.53	33982.24
670.67	34000.96
670.81	34183.52
670.95	33795.00
671.09	33832.44
671.23	33256.67
671.37	33937.77
671.51	33469.66
671.65	33652.22
671.79	33130.28
671.93	33429.87
672.07	33518.81
672.21	33139.65
672.35	33373.70
672.49	33303.48
672.63	33102.20
672.77	32833.04
672.91	33106.88
673.05	32374.29
673.19	32383.65
673.33	32683.24
673.47	32535.79
673.61	32421.10
673.75	32294.71
673.89	32383.65
674.03	32315.78
674.17	31938.95
674.31	31887.46
674.45	31775.11
674.59	31672.13
674.73	31674.47
674.87	31473.18
675.01	31557.44
675.15	31707.24
675.29	31452.12
675.43	31356.16
675.56	31262.54
675.70	31255.51
675.84	31253.17
675.98	30548.67
676.12	31178.28
676.26	31215.72
676.40	31030.82
676.54	30920.82
676.68	30380.15
676.82	30052.48
676.96	30441.01
677.10	30595.48
677.23	30429.30
677.37	30494.84
677.51	30232.70
677.65	30450.37
677.79	30181.21
677.93	30127.38
678.07	29586.71
678.21	29556.28
678.34	29570.33
678.48	29329.25
678.62	29706.08
678.76	29163.08
678.90	29034.35
679.04	29338.62
679.18	29254.36
679.31	28858.81
679.45	28856.46
679.59	28692.63
679.73	28748.80
679.87	28610.71
680.00	28341.55
680.14	28458.57
680.28	28912.64
680.42	28395.38
680.56	28107.49
680.70	28166.01
680.83	28002.17
680.97	27946.00
681.11	27999.83
681.25	27938.97
681.39	27665.13
681.52	27843.01
681.66	27000.42
681.80	26953.61
681.94	27426.40
682.07	27030.85
682.21	27110.43
682.35	26831.90
682.49	26700.83
682.62	26876.37
682.76	26602.53
682.90	26941.91
683.04	26635.30
683.17	26345.07
683.31	26457.42
683.45	26438.69
683.59	26033.78
683.72	25778.66
683.86	26015.05
684.00	25919.09
684.13	25844.20
684.27	25813.77
684.41	25795.04
684.55	25628.87
684.68	25537.59
684.82	25252.04
684.96	25193.53
685.09	25216.93
685.23	25462.69
685.37	25329.28
685.50	25301.19
685.64	24922.02
685.78	24790.95
685.91	24737.12
686.05	24500.73
686.19	23964.75
686.32	24142.63
686.46	24107.52
686.60	23857.08
686.73	24086.45
686.87	23716.65
687.01	24102.84
687.14	24002.19
687.28	23665.16
687.42	23761.12
687.55	23520.04
687.69	23300.03
687.82	23363.23
687.96	23138.54
688.10	23173.64
688.23	23243.86
688.37	23377.27
688.50	23447.49
688.64	23211.09
688.78	22808.52
688.91	22752.35
689.05	22979.38
689.18	22394.25
689.32	22389.56
689.46	22244.45
689.59	22190.62
689.73	22352.12
689.86	22721.92
690.00	22204.66
690.13	22082.95
690.27	21783.37
690.41	21874.65
690.54	21542.29
690.68	21860.60
690.81	21486.12
690.95	21682.72
691.08	21322.28
691.22	21261.43
691.35	20980.56
691.49	21095.25
691.62	21165.46
691.76	20805.02
691.89	20786.30
692.03	20308.83
692.16	20547.56
692.30	20582.67
692.43	20545.22
692.57	20161.37
692.70	20414.15
692.84	20144.99
692.97	19831.36
693.11	19892.21
693.24	19548.15
693.38	19707.31
693.51	19470.92
693.65	19707.31
693.78	19468.58
693.92	19353.89
694.05	19491.98
694.19	19260.27
694.32	19236.86
694.45	19473.26
694.59	19424.11
694.72	19286.01
694.86	18951.32
694.99	18710.24
695.13	18956.00
695.26	18651.73
695.39	18209.37
695.53	18682.16
695.66	18497.25
695.80	18061.91
695.93	18265.54
696.07	17858.29
696.20	17813.82
696.33	17975.31
696.47	17769.35
696.60	17607.85
696.73	17638.28
696.87	17956.59
697.00	17914.46
697.14	17418.27
697.27	17511.89
697.40	17451.03
697.54	17057.82
697.67	17076.55
697.80	17139.74
697.94	17092.93
698.07	17022.72
698.21	16807.39
698.34	17006.33
698.47	16938.46
698.61	16744.19
698.74	16599.08
698.87	16189.49
699.01	16365.03
699.14	16262.04
699.27	16027.99
699.40	16327.58
699.54	15939.05
699.67	15885.22
699.80	16252.68
699.94	15712.02
700.07	15805.64
700.20	15915.64
700.34	15861.81
700.47	15728.40
700.60	15894.58
700.73	15543.50
700.87	15442.85
701.00	15379.66
701.13	15232.21
701.26	15094.11
701.40	14941.98
701.53	14949.00
701.66	14967.73
701.79	14780.48
701.93	14785.16
702.06	14740.69
702.19	14466.85
702.32	14600.26
702.46	14595.58
702.59	14490.26
702.72	14490.26
702.85	14546.43
702.99	14459.83
703.12	14132.15
703.25	14169.60
703.38	14218.75
703.51	14169.60
703.65	13895.76
703.78	13563.40
703.91	13584.47
704.04	13612.56
704.17	13415.95
704.31	13638.30
704.44	13401.91
704.57	13486.17
704.70	13460.42
704.83	13123.38
704.96	13221.69
705.10	12992.31
705.23	13111.68
>>>>>End Processed Spectral Data<<<<<
