SpectraSuite Data File
++++++++++++++++++++++++++++++++++++
Date: Fri Oct 25 10:47:44 EDT 2013
User: price-jones
Dark Spectrum Present: No
Reference Spectrum Present: No
Number of Sampled Component Spectra: 1
Spectrometers: USB2+H05261
Integration Time (usec): 100000 (USB2+H05261)
Spectra Averaged: 1 (USB2+H05261)
Boxcar Smoothing: 0 (USB2+H05261)
Correct for Electrical Dark: No (USB2+H05261)
Strobe/Lamp Enabled: No (USB2+H05261)
Correct for Detector Non-linearity: No (USB2+H05261)
Correct for Stray Light: No (USB2+H05261)
Number of Pixels in Processed Spectrum: 2048
>>>>>Begin Processed Spectral Data<<<<<
365.73	74.90
365.92	74.90
366.12	74.90
366.32	53.83
366.52	37.45
366.72	18.72
366.91	25.75
367.11	51.49
367.31	9.36
367.51	25.75
367.70	53.83
367.90	121.71
368.10	9.36
368.30	56.17
368.49	46.81
368.69	51.49
368.89	0.00
369.09	49.15
369.28	81.92
369.48	138.09
369.68	154.48
369.87	156.82
370.07	25.75
370.27	70.22
370.47	175.54
370.66	351.08
370.86	355.76
371.06	500.87
371.25	519.60
371.45	346.40
371.65	430.66
371.84	451.72
372.04	531.30
372.24	493.85
372.44	505.56
372.63	545.34
372.83	491.51
373.03	496.19
373.22	545.34
373.42	514.92
373.62	500.87
373.81	566.41
374.01	582.79
374.21	631.94
374.40	428.32
374.60	578.11
374.79	589.82
374.99	491.51
375.19	580.45
375.38	550.03
375.58	648.33
375.78	592.16
375.97	580.45
376.17	669.39
376.37	540.66
376.56	617.90
376.76	557.05
376.95	561.73
377.15	585.13
377.35	566.41
377.54	578.11
377.74	538.32
377.93	568.75
378.13	596.84
378.33	660.03
378.52	587.47
378.72	702.16
378.91	671.73
379.11	617.90
379.31	655.35
379.50	643.65
379.70	690.46
379.89	601.52
380.09	608.54
380.28	667.05
380.48	587.47
380.68	657.69
380.87	660.03
381.07	606.20
381.26	711.52
381.46	620.24
381.65	697.48
381.85	660.03
382.04	648.33
382.24	641.31
382.43	688.12
382.63	631.94
382.83	657.69
383.02	753.65
383.22	636.63
383.41	660.03
383.61	674.07
383.80	814.51
384.00	814.51
384.19	702.16
384.39	793.44
384.58	760.67
384.78	779.40
384.97	732.59
385.17	739.61
385.36	734.93
385.56	781.74
385.75	741.95
385.95	751.31
386.14	791.10
386.34	854.30
386.53	840.25
386.72	737.27
386.92	730.25
387.11	821.53
387.31	849.61
387.50	819.19
387.70	760.67
387.89	723.23
388.09	884.72
388.28	812.17
388.48	823.87
388.67	866.00
388.86	863.66
389.06	912.81
389.25	940.90
389.45	1018.13
389.64	826.21
389.84	795.78
390.03	919.83
390.22	858.98
390.42	997.07
390.61	898.77
390.81	880.04
391.00	922.17
391.19	887.06
391.39	945.58
391.58	999.41
391.78	983.02
391.97	966.64
392.16	933.87
392.36	959.62
392.55	1064.94
392.75	1053.24
392.94	1022.81
393.13	966.64
393.33	922.17
393.52	898.77
393.71	1034.52
393.91	992.39
394.10	943.24
394.29	1125.80
394.49	1093.03
394.68	1111.75
394.88	1011.11
395.07	1111.75
395.26	1078.99
395.46	1069.62
395.65	1062.60
395.84	1151.54
396.04	1153.88
396.23	1074.31
396.42	1067.28
396.62	1060.26
396.81	1078.99
397.00	1142.18
397.19	1071.97
397.39	1114.10
397.58	1259.21
397.77	1174.95
397.97	1231.12
398.16	1324.74
398.35	1322.40
398.55	1277.93
398.74	1291.98
398.93	1320.06
399.12	1273.25
399.32	1399.64
399.51	1423.05
399.70	1387.94
399.90	1359.85
400.09	1345.81
400.28	1394.96
400.47	1460.49
400.67	1404.32
400.86	1451.13
401.05	1479.22
401.24	1514.33
401.44	1479.22
401.63	1474.54
401.82	1509.65
402.01	1392.62
402.21	1488.58
402.40	1514.33
402.59	1561.14
402.78	1565.82
402.97	1547.09
403.17	1547.09
403.36	1591.56
403.55	1636.03
403.74	1694.55
403.93	1579.86
404.13	1633.69
404.32	1554.12
404.51	1568.16
404.70	1696.89
404.89	1631.35
405.09	1739.02
405.28	1579.86
405.47	1760.08
405.66	1671.14
405.85	1834.98
406.05	1788.17
406.24	1685.19
406.43	1851.36
406.62	1834.98
406.81	1858.39
407.00	1778.81
407.20	1799.87
407.39	1830.30
407.58	1893.49
407.77	1849.02
407.96	1905.20
408.15	1975.41
408.34	1980.09
408.54	1921.58
408.73	1949.67
408.92	1937.96
409.11	1923.92
409.30	2059.67
409.49	1959.03
409.68	1942.64
409.87	2005.84
410.07	2040.95
410.26	2127.55
410.45	2078.40
410.64	2204.78
410.83	2115.84
411.02	2136.91
411.21	2211.81
411.40	2211.81
411.59	2251.60
411.78	2207.13
411.98	2291.38
412.17	2319.47
412.36	2328.83
412.55	2272.66
412.74	2413.09
412.93	2387.35
413.12	2471.61
413.31	2455.22
413.50	2427.14
413.69	2452.88
413.88	2605.02
414.07	2396.71
414.26	2574.59
414.45	2567.57
414.64	2609.70
414.83	2644.81
415.02	2801.62
415.22	2787.58
415.41	2715.02
415.60	2754.81
415.79	2787.58
415.98	2803.96
416.17	2871.84
416.36	2855.45
416.55	2778.22
416.74	2939.71
416.93	2750.13
417.12	2848.43
417.31	2883.54
417.50	2939.71
417.69	3208.87
417.88	2986.52
418.07	3063.76
418.26	2977.16
418.45	3016.95
418.64	3094.19
418.83	3063.76
419.02	2988.86
419.21	3042.70
419.39	3110.57
419.58	3098.87
419.77	3206.53
419.96	3262.71
420.15	3143.34
420.34	3236.96
420.53	3253.34
420.72	3365.69
420.91	3304.84
421.10	3272.07
421.29	3410.16
421.48	3307.18
421.67	3243.98
421.86	3318.88
422.05	3318.88
422.24	3421.86
422.43	3449.95
422.61	3449.95
422.80	3377.39
422.99	3555.27
423.18	3592.72
423.37	3599.74
423.56	3515.48
423.75	3454.63
423.94	3433.57
424.13	3248.66
424.32	3438.25
424.50	3442.93
424.69	3592.72
424.88	3538.89
425.07	3602.08
425.26	3538.89
425.45	3585.70
425.64	3456.97
425.83	3499.10
426.01	3702.73
426.20	3648.90
426.39	3543.57
426.58	3562.30
426.77	3588.04
426.96	3501.44
427.15	3555.27
427.33	3658.26
427.52	3452.29
427.71	3627.83
427.90	3648.90
428.09	3747.20
428.28	3667.62
428.46	3676.98
428.65	3714.43
428.84	3819.75
429.03	3854.86
429.22	3616.13
429.40	3730.81
429.59	3882.95
429.78	3693.37
429.97	3625.49
430.16	3749.54
430.34	3604.42
430.53	3803.37
430.72	3871.25
430.91	3810.39
431.10	3936.78
431.28	3997.64
431.47	4095.94
431.66	4091.26
431.85	4037.42
432.03	4049.13
432.22	4147.43
432.41	4112.32
432.60	4021.04
432.79	4079.55
432.97	4198.92
433.16	4285.52
433.35	4079.55
433.54	4159.13
433.72	4311.27
433.91	4264.46
434.10	4269.14
434.28	4191.90
434.47	4400.21
434.66	4393.19
434.85	4355.74
435.03	4430.63
435.22	4582.77
435.41	4571.07
435.59	4559.36
435.78	4479.79
435.97	4594.47
436.16	4638.94
436.34	4636.60
436.53	4568.73
436.72	4599.15
436.90	4521.92
437.09	4571.07
437.28	4545.32
437.46	4664.69
437.65	4711.50
437.84	4702.14
438.02	4695.11
438.21	4629.58
438.40	4716.18
438.58	4912.78
438.77	4985.34
438.96	4711.50
439.14	4924.49
439.33	5006.41
439.52	5006.41
439.70	5137.48
439.89	5137.48
440.08	5195.99
440.26	5090.67
440.45	5149.18
440.63	5238.12
440.82	5331.74
441.01	5186.63
441.19	5198.33
441.38	5179.61
441.57	5514.30
441.75	5537.71
441.94	5500.26
442.12	5362.17
442.31	5659.42
442.50	5708.57
442.68	5540.05
442.87	5605.58
443.05	5511.96
443.24	5722.61
443.43	5612.60
443.61	5614.95
443.80	5947.30
443.98	5643.03
444.17	5607.92
444.35	5717.93
444.54	5839.64
444.73	5900.49
444.91	5680.48
445.10	5844.32
445.28	5813.89
445.47	5797.51
445.65	5706.23
445.84	5937.94
446.02	5849.00
446.21	5738.99
446.39	5837.30
446.58	5724.95
446.77	5827.93
446.95	5802.19
447.14	5902.83
447.32	6092.41
447.51	5907.51
447.69	5949.64
447.88	6076.03
448.06	6061.99
448.25	5818.57
448.43	5916.87
448.62	5893.47
448.80	5900.49
448.99	6071.35
449.17	6153.27
449.36	6115.82
449.54	6223.48
449.73	6031.56
449.91	6279.66
450.10	6359.24
450.28	6394.34
450.46	6356.90
450.65	6242.21
450.83	6399.02
451.02	6324.13
451.20	6445.84
451.39	6431.79
451.57	6375.62
451.76	6321.79
451.94	6342.85
452.13	6614.35
452.31	6370.94
452.49	6354.55
452.68	6567.54
452.86	6223.48
453.05	6476.26
453.23	6443.49
453.42	6604.99
453.60	6452.86
453.78	6682.23
453.97	6544.14
454.15	6581.59
454.34	6424.77
454.52	6796.92
454.70	6700.95
454.89	6703.29
455.07	6939.69
455.26	6857.77
455.44	6745.42
455.62	6810.96
455.81	6827.34
455.99	6773.51
456.17	6939.69
456.36	6857.77
456.54	7117.57
456.73	6979.48
456.91	7178.42
457.09	7110.55
457.28	7335.24
457.46	7014.59
457.64	7098.84
457.83	7192.47
458.01	7126.93
458.19	7314.17
458.38	7342.26
458.56	7440.56
458.74	7206.51
458.93	7344.60
459.11	7487.37
459.29	7269.70
459.48	7468.65
459.66	7595.04
459.84	7508.44
460.03	7506.10
460.21	7672.28
460.39	7489.71
460.57	7442.90
460.76	7688.66
460.94	7808.03
461.12	7728.45
461.31	7583.34
461.49	7796.32
461.67	7576.31
461.85	7709.72
462.04	7840.79
462.22	8472.74
462.40	7981.23
462.59	7913.35
462.77	7953.14
462.95	8226.98
463.13	7964.84
463.32	7939.10
463.50	8018.68
463.68	8264.43
463.86	7981.23
464.05	8039.74
464.23	8140.38
464.41	8252.73
464.59	7978.89
464.78	8203.58
464.96	8166.13
465.14	8269.11
465.32	8065.49
465.50	8248.05
465.69	8283.16
465.87	8128.68
466.05	8257.41
466.23	8322.94
466.41	8262.09
466.60	8421.25
466.78	8154.43
466.96	8205.92
467.14	8271.45
467.32	8226.98
467.51	8557.00
467.69	8273.79
467.87	8388.48
468.05	8582.74
468.23	8475.08
468.41	8379.12
468.60	8533.59
468.78	8517.21
468.96	8402.52
469.14	8500.83
469.32	8650.62
469.50	8622.53
469.69	8751.26
469.87	8903.40
470.05	8891.70
470.23	8879.99
470.41	8807.44
470.59	8936.17
470.77	8926.80
470.95	9111.71
471.14	9249.80
471.32	8894.04
471.50	9247.46
471.68	9188.94
471.86	9366.82
472.04	9212.35
472.22	9423.00
472.40	9198.31
472.58	9268.52
472.77	9472.15
472.95	9444.06
473.13	9687.48
473.31	9465.13
473.49	9427.68
473.67	9589.17
473.85	9694.50
474.03	9788.12
474.21	9944.94
474.39	9944.94
474.57	9907.49
474.75	9921.53
474.93	9841.95
475.12	9961.32
475.30	10202.40
475.48	10178.99
475.66	10141.54
475.84	10244.52
476.02	10118.14
476.20	10057.28
476.38	10377.94
476.56	10698.59
476.74	10773.49
476.92	10633.05
477.10	10750.08
477.28	10792.21
477.46	10719.65
477.64	11014.56
477.82	11171.38
478.00	11346.92
478.18	11372.66
478.36	11382.03
478.54	11398.41
478.72	11365.64
478.90	11559.91
479.08	11723.74
479.26	11796.30
479.44	11875.88
479.62	12009.29
479.80	11953.12
479.98	12046.74
480.16	12269.09
480.34	12046.74
480.52	12524.21
480.70	12475.06
480.88	12210.57
481.06	12182.49
481.24	12748.90
481.41	12830.82
481.59	13008.70
481.77	12786.35
481.95	13076.57
482.13	13104.66
482.31	13202.96
482.49	13217.01
482.67	13481.49
482.85	13437.02
483.03	13678.09
483.21	13724.90
483.39	14132.15
483.57	14045.55
483.74	14274.93
483.92	14005.77
484.10	14036.19
484.28	14185.99
484.46	14565.15
484.64	14794.53
484.82	14640.05
485.00	14883.47
485.18	15023.90
485.35	14958.36
485.53	14820.27
485.71	15044.96
485.89	15379.66
486.07	15276.68
486.25	15215.82
486.43	15337.53
486.61	15728.40
486.78	15363.28
486.96	16152.04
487.14	16107.57
487.32	16313.53
487.50	16339.28
487.68	16512.48
487.85	16760.58
488.03	16695.04
488.21	17048.46
488.39	16903.35
488.57	17132.72
488.75	17212.30
488.92	17198.26
489.10	17547.00
489.28	17521.25
489.46	17818.50
489.64	17823.18
489.81	18281.92
489.99	18352.14
490.17	18036.17
490.35	18391.93
490.53	18431.72
490.70	18717.26
490.88	18710.24
491.06	18792.16
491.24	18810.89
491.41	18771.10
491.59	19002.81
491.77	18925.57
491.95	19215.80
492.13	19412.40
492.30	19274.31
492.48	19227.50
492.66	19929.66
492.84	19894.55
493.01	19887.53
493.19	20283.08
493.37	20240.95
493.54	20526.50
493.72	20868.22
493.90	20622.46
494.08	20739.49
494.25	21137.38
494.43	21284.83
494.61	21341.00
494.79	21446.33
494.96	21057.80
495.14	21242.70
495.32	21507.18
495.49	21443.99
495.67	22181.26
495.85	22017.42
496.02	22040.82
496.20	22167.21
496.38	22298.28
496.55	22431.69
496.73	23269.61
496.91	22476.16
497.09	22799.16
497.26	22890.44
497.44	22750.01
497.62	22934.91
497.79	23290.67
497.97	22934.91
498.14	23627.71
498.32	23520.04
498.50	23515.36
498.67	23693.24
498.85	23880.49
499.03	24046.66
499.20	23967.09
499.38	23929.64
499.56	24053.69
499.73	24105.18
499.91	24439.87
500.08	24467.96
500.26	24383.70
500.44	24451.58
500.61	24355.61
500.79	24294.76
500.97	24800.32
501.14	25401.83
501.32	24992.24
501.49	24819.04
501.67	24823.72
501.84	25142.03
502.02	25542.27
502.20	25652.27
502.37	25530.56
502.55	25301.19
502.72	25455.67
502.90	25671.00
503.07	25876.96
503.25	25930.80
503.43	25722.49
503.60	26068.89
503.78	26331.03
503.95	26370.82
504.13	26373.16
504.30	26326.35
504.48	26548.70
504.65	26448.05
504.83	26717.22
505.01	26803.82
505.18	26794.45
505.36	26808.50
505.53	27108.08
505.71	27154.90
505.88	27098.72
506.06	26913.82
506.23	27070.64
506.41	27124.47
506.58	27641.73
506.76	27473.21
506.93	27927.27
507.11	27655.77
507.28	27463.85
507.46	27487.25
507.63	27721.30
507.81	27931.95
507.98	27704.92
508.16	27878.12
508.33	28292.40
508.50	28276.01
508.68	28666.88
508.85	28765.18
509.03	28568.58
509.20	28357.93
509.38	28802.63
509.55	28922.00
509.73	29282.44
509.90	29060.09
510.08	28680.92
510.25	29134.99
510.42	29043.71
510.60	29127.97
510.77	29668.63
510.95	29394.79
511.12	29193.50
511.30	29539.90
511.47	29989.28
511.64	29951.84
511.82	30115.67
511.99	29675.65
512.17	30120.35
512.34	29930.77
512.51	30141.42
512.69	30260.79
512.86	30174.19
513.04	30209.29
513.21	30890.39
513.38	30309.94
513.56	30113.33
513.73	30429.30
513.90	30897.41
514.08	30642.29
514.25	30808.47
514.43	30541.65
514.60	30548.67
514.77	30955.93
514.95	31281.26
515.12	30888.05
515.29	31175.94
515.47	31468.50
515.64	31225.09
515.81	31152.53
515.99	31447.44
516.16	31665.11
516.33	31215.72
516.51	31550.42
516.68	31679.15
516.85	31405.31
517.03	32070.02
517.20	31831.29
517.37	31934.27
517.54	32203.43
517.72	32533.45
517.89	31854.69
518.06	31903.84
518.24	32158.96
518.41	32077.04
518.58	31854.69
518.75	32027.89
518.93	32708.99
519.10	32360.25
519.27	32737.07
519.45	32617.71
519.62	32666.86
519.79	32844.74
519.96	32903.25
520.14	33600.73
520.31	33064.75
520.48	33591.37
520.65	33179.43
520.83	33436.89
521.00	33570.30
521.17	33319.87
521.34	33680.31
521.52	33947.13
521.69	33977.56
521.86	33773.93
522.03	33869.89
522.20	33738.82
522.38	34073.52
522.55	34220.97
522.72	34117.99
522.89	33902.66
523.07	34153.10
523.24	34132.03
523.41	34169.48
523.58	34171.82
523.75	34499.50
523.92	34244.38
524.10	34967.60
524.27	34869.30
524.44	34714.83
524.61	34719.51
524.78	34962.92
524.96	34960.58
525.13	34899.73
525.30	35351.45
525.47	35002.71
525.64	35093.99
525.81	35234.42
525.98	35505.93
526.16	35040.16
526.33	35388.90
526.50	35747.00
526.67	35824.24
526.84	35365.49
527.01	35253.15
527.18	35718.92
527.36	35658.06
527.53	35833.60
527.70	35924.88
527.87	35976.37
528.04	35536.35
528.21	36144.89
528.38	35641.68
528.55	36044.25
528.72	36098.08
528.89	36032.55
529.07	36123.83
529.24	36362.56
529.41	36568.53
529.58	36493.63
529.75	36201.07
529.92	36762.79
530.09	36671.51
530.26	36554.49
530.43	36868.12
530.60	36341.50
530.77	36931.31
530.94	36891.52
531.11	37050.68
531.28	36882.16
531.46	36987.49
531.63	37666.24
531.80	36950.04
531.97	36975.78
532.14	36741.73
532.31	37008.55
532.48	37244.94
532.65	37443.89
532.82	37504.74
532.99	37722.41
533.16	37481.34
533.33	37476.66
533.50	37848.80
533.67	37469.64
533.84	37551.56
534.01	37764.54
534.18	37591.34
534.35	38333.29
534.52	37867.53
534.69	38073.49
534.86	37970.51
535.03	37968.17
535.20	38010.30
535.37	38700.76
535.54	38251.38
535.71	38143.71
535.88	38174.14
536.05	38555.64
536.22	38546.28
536.38	38298.19
536.55	38693.74
536.72	38387.13
536.89	38485.43
537.06	38316.91
537.23	38363.72
537.40	38576.71
537.57	38455.00
537.74	38422.23
537.91	38859.91
538.08	39227.38
538.25	38670.33
538.42	38625.86
538.59	39023.75
538.75	38794.38
538.92	39187.59
539.09	39049.50
539.26	39323.34
539.43	39232.06
539.60	39313.98
539.77	39068.22
539.94	39215.68
540.11	39136.10
540.28	38909.07
540.44	39257.81
540.61	39131.42
540.78	39033.11
540.95	39393.56
541.12	39187.59
541.29	39468.45
541.46	39047.16
541.62	39440.37
541.79	39679.10
541.96	39672.08
542.13	39388.88
542.30	39903.79
542.47	39880.39
542.63	39807.83
542.80	40254.87
542.97	39702.51
543.14	40339.13
543.31	40306.37
543.48	40126.14
543.64	40950.01
543.81	40500.63
543.98	40470.20
544.15	40275.94
544.32	40517.01
544.48	40748.73
544.65	40538.08
544.82	40189.34
544.99	40126.14
545.16	40273.60
545.32	40509.99
545.49	41008.53
545.66	40612.98
545.83	41022.57
546.00	40844.69
546.16	41060.02
546.33	40404.67
546.50	40032.52
546.67	41055.34
546.83	40568.51
547.00	40858.73
547.17	41090.44
547.34	41317.48
547.50	41064.70
547.67	41532.81
547.84	41298.75
548.00	41553.87
548.17	41308.11
548.34	41265.99
548.51	41509.40
548.67	42181.13
548.84	41808.99
549.01	41301.09
549.18	41090.44
549.34	41635.79
549.51	42031.34
549.68	41514.08
549.84	41794.95
550.01	42075.81
550.18	41488.34
550.34	41785.58
550.51	41614.72
550.68	41642.81
550.84	41696.64
551.01	41926.02
551.18	41605.36
551.34	41757.50
551.51	41923.68
551.68	41806.65
551.84	42415.19
552.01	42258.37
552.18	41694.30
552.34	41961.12
552.51	42609.45
552.68	42162.41
552.84	42569.66
553.01	42925.42
553.18	42403.49
553.34	42803.72
553.51	41703.67
553.67	42370.72
553.84	42644.56
554.01	42749.88
554.17	42548.60
554.34	42841.17
554.51	42932.45
554.67	42696.05
554.84	42719.46
555.00	41888.57
555.17	42246.67
555.33	42883.30
555.50	42595.41
555.67	42534.56
555.83	42689.03
556.00	42485.40
556.16	43468.43
556.33	43030.75
556.50	42674.99
556.66	43000.32
556.83	42623.50
556.99	43026.07
557.16	42960.53
557.32	42850.53
557.49	42993.30
557.65	42665.63
557.82	42583.71
557.98	43110.33
558.15	43187.56
558.32	42944.15
558.48	43391.19
558.65	42876.27
558.81	42890.32
558.98	43166.50
559.14	43124.37
559.31	43222.67
559.47	43309.27
559.64	43501.20
559.80	43440.34
559.97	43672.06
560.13	43136.07
560.30	43611.20
560.46	43454.39
560.63	43208.63
560.79	43402.89
560.96	43772.70
561.12	43426.30
561.29	43590.14
561.45	43409.92
561.61	43445.02
561.78	43498.86
561.94	43138.41
562.11	43269.48
562.27	43005.00
562.44	43552.69
562.60	43962.28
562.77	43873.34
562.93	43838.23
563.10	43789.08
563.26	43133.73
563.42	44130.80
563.59	43805.47
563.75	43831.21
563.92	44098.03
564.08	43681.42
564.24	44023.14
564.41	43768.02
564.57	43863.98
564.74	43817.17
564.90	43583.12
565.07	44013.77
565.23	43901.43
565.39	43597.16
565.56	44369.54
565.72	43498.86
565.88	43938.88
566.05	43707.16
566.21	43847.60
566.38	43746.95
566.54	44072.29
566.70	43653.33
566.87	44236.12
567.03	44044.20
567.19	44385.92
567.36	44296.98
567.52	43679.08
567.68	44062.93
567.85	43957.60
568.01	44170.59
568.17	43962.28
568.34	44289.96
568.50	44182.29
568.66	43941.22
568.83	44126.12
568.99	43863.98
569.15	43934.20
569.32	44039.52
569.48	44119.10
569.64	44287.62
569.81	44182.29
569.97	44177.61
570.13	44538.05
570.30	44069.95
570.46	43882.70
570.62	43784.40
570.78	44294.64
570.95	44037.18
571.11	43941.22
571.27	44395.28
571.43	44371.88
571.60	44383.58
571.76	44233.78
571.92	44165.91
572.09	44156.55
572.25	44294.64
572.41	44336.77
572.57	44308.68
572.74	44858.71
572.90	44364.85
573.06	44254.85
573.22	44306.34
573.38	44140.16
573.55	43817.17
573.71	44706.57
573.87	44292.30
574.03	43882.70
574.20	44296.98
574.36	44177.61
574.52	44521.67
574.68	44404.64
574.84	44357.83
575.01	44093.35
575.17	44083.99
575.33	44299.32
575.49	44371.88
575.65	44744.02
575.82	44573.16
575.98	44512.31
576.14	44622.31
576.30	44765.09
576.46	44217.40
576.62	44313.36
576.79	44254.85
576.95	44048.88
577.11	44516.99
577.27	44030.16
577.43	44786.15
577.59	44439.75
577.75	44498.26
577.92	43981.01
578.08	44212.72
578.24	44332.09
578.40	44301.66
578.56	44360.17
578.72	44072.29
578.88	44708.91
579.04	44624.65
579.21	44500.61
579.37	44610.61
579.53	44252.51
579.69	44034.84
579.85	44439.75
580.01	44500.61
580.17	44655.08
580.33	45125.53
580.49	44769.77
580.65	44823.60
580.82	44423.37
580.98	44685.51
581.14	44416.35
581.30	44549.76
581.46	44357.83
581.62	44669.12
581.78	44322.72
581.94	45020.20
582.10	44442.09
582.26	44563.80
582.42	44912.54
582.58	44718.28
582.74	44605.93
582.90	45010.84
583.06	44762.75
583.22	44685.51
583.38	44648.06
583.54	44624.65
583.70	44311.02
583.86	44526.35
584.02	44542.74
584.18	44669.12
584.34	44987.44
584.50	44519.33
584.66	44296.98
584.82	44341.45
584.98	44580.18
585.14	44411.67
585.30	44404.64
585.46	44465.50
585.62	44479.54
585.78	44430.39
585.94	44287.62
586.10	44430.39
586.26	44378.90
586.42	44423.37
586.58	44662.10
586.74	44753.38
586.90	44947.65
587.06	44598.91
587.22	44816.58
587.38	44767.43
587.54	44837.64
587.70	44994.46
587.86	44769.77
588.02	44524.01
588.18	44683.17
588.34	44636.36
588.49	44332.09
588.65	44617.63
588.81	44587.21
588.97	44327.41
589.13	44744.02
589.29	44275.91
589.45	44734.66
589.61	44680.83
589.77	44891.48
589.93	44720.62
590.08	44507.63
590.24	44767.43
590.40	44903.18
590.56	44741.68
590.72	44502.95
590.88	44491.24
591.04	44580.18
591.20	45291.71
591.35	45113.83
591.51	45336.18
591.67	44949.99
591.83	44692.53
591.99	44538.05
592.15	44451.45
592.31	44935.95
592.46	44666.78
592.62	44598.91
592.78	45118.51
592.94	45350.22
593.10	44882.11
593.26	44994.46
593.41	44804.88
593.57	44559.12
593.73	44811.90
593.89	44884.45
594.05	44732.32
594.20	44472.52
594.36	45141.91
594.52	44804.88
594.68	44732.32
594.84	44896.16
594.99	45457.88
595.15	44952.33
595.31	45422.78
595.47	45263.62
595.62	45048.29
595.78	44900.84
595.94	45570.23
596.10	45280.00
596.25	45457.88
596.41	45088.08
596.57	44935.95
596.73	44868.07
596.88	45034.25
597.04	44847.00
597.20	45382.99
597.36	45233.19
597.51	45483.63
597.67	45083.40
597.83	45174.68
597.99	45258.94
598.14	45530.44
598.30	44804.88
598.46	45205.11
598.61	45235.53
598.77	45069.36
598.93	45385.33
599.09	45235.53
599.24	45198.09
599.40	45251.92
599.56	45184.04
599.71	44893.82
599.87	45200.43
600.03	44999.14
600.18	45092.76
600.34	45041.27
600.50	45036.59
600.65	44741.68
600.81	45495.33
600.97	45244.90
601.12	45649.81
601.28	45160.64
601.44	44645.72
601.59	45160.64
601.75	44872.75
601.91	45132.55
602.06	44657.42
602.22	45287.03
602.37	44886.79
602.53	45195.74
602.69	45291.71
602.84	44886.79
603.00	45099.78
603.16	45151.27
603.31	45015.52
603.47	44741.68
603.62	44727.64
603.78	45188.72
603.94	45345.54
604.09	45162.98
604.25	45497.67
604.40	44973.39
604.56	45193.40
604.71	45132.55
604.87	44814.24
605.03	44758.06
605.18	45120.85
605.34	45141.91
605.49	45109.14
605.65	45083.40
605.80	44725.30
605.96	45106.80
606.12	45181.70
606.27	45371.28
606.43	44896.16
606.58	45378.31
606.74	44821.26
606.89	44708.91
607.05	44725.30
607.20	45013.18
607.36	45024.89
607.51	45132.55
607.67	45170.00
607.82	44788.49
607.98	45090.42
608.13	44671.46
608.29	44594.23
608.44	44650.40
608.60	43782.06
608.75	44282.94
608.91	44371.88
609.06	44392.94
609.22	44968.71
609.37	44697.21
609.53	44662.10
609.68	44678.49
609.84	44823.60
609.99	44718.28
610.15	44697.21
610.30	44521.67
610.46	44069.95
610.61	44577.84
610.76	44296.98
610.92	44687.85
611.07	44416.35
611.23	44399.96
611.38	44512.31
611.54	44624.65
611.69	44156.55
611.84	44083.99
612.00	44509.97
612.15	44149.53
612.31	44355.49
612.46	44521.67
612.62	44610.61
612.77	44009.09
612.92	44526.35
613.08	43936.54
613.23	44404.64
613.39	43538.65
613.54	44289.96
613.69	43798.44
613.85	44048.88
614.00	43938.88
614.15	44184.63
614.31	44119.10
614.46	44486.56
614.62	44065.27
614.77	43852.28
614.92	44184.63
615.08	43772.70
615.23	44147.18
615.38	44304.00
615.54	43679.08
615.69	43587.80
615.84	43154.80
616.00	43861.64
616.15	44170.59
616.30	43969.30
616.46	43679.08
616.61	43697.80
616.76	43772.70
616.92	43690.78
617.07	43674.40
617.22	43643.97
617.37	43615.88
617.53	43807.81
617.68	43681.42
617.83	43887.39
617.99	43938.88
618.14	43810.15
618.29	43515.24
618.45	43548.01
618.60	43620.56
618.75	43739.93
618.90	43503.54
619.06	44142.50
619.21	43421.62
619.36	43718.87
619.51	43629.93
619.67	43267.14
619.82	43304.59
619.97	43473.11
620.12	43192.25
620.28	42829.46
620.43	43023.73
620.58	43573.75
620.73	43597.16
620.89	42890.32
621.04	42962.87
621.19	43351.40
621.34	42801.38
621.49	43098.62
621.65	43246.08
621.80	43133.73
621.95	43019.05
622.10	42927.77
622.25	42824.78
622.41	42756.91
622.56	42810.74
622.71	43311.61
622.86	42958.19
623.01	43143.09
623.16	43161.82
623.32	43154.80
623.47	42789.67
623.62	43044.79
623.77	42656.26
623.92	42555.62
624.07	42288.80
624.23	42401.14
624.38	43049.47
624.53	42557.96
624.68	42656.26
624.83	42969.90
624.98	42424.55
625.13	42384.76
625.29	42628.18
625.44	42431.57
625.59	42204.54
625.74	42181.13
625.89	42607.11
626.04	41638.13
626.19	42316.89
626.34	42054.75
626.49	42115.60
626.65	42490.09
626.80	42319.23
626.95	42190.50
627.10	42155.39
627.25	42359.02
627.40	41879.21
627.55	41638.13
627.70	41385.35
627.85	41738.77
628.00	41745.80
628.15	41883.89
628.30	42216.24
628.45	41961.12
628.60	42150.71
628.76	42127.30
628.91	41757.50
629.06	41991.55
629.21	41694.30
629.36	41497.70
629.51	41759.84
629.66	41364.29
629.81	41563.23
629.96	41834.74
630.11	41748.14
630.26	41631.11
630.41	42085.17
630.56	41207.47
630.71	41457.91
630.86	41345.56
631.01	41596.00
631.16	41586.64
631.31	40917.25
631.46	40823.62
631.61	41163.00
631.76	41471.95
631.91	41265.99
632.06	41256.62
632.21	41497.70
632.36	41322.16
632.51	41209.81
632.66	40996.82
632.81	41109.17
632.96	41322.16
633.10	40699.58
633.25	40828.30
633.40	41064.70
633.55	41368.97
633.70	41263.64
633.85	40755.75
634.00	40910.22
634.15	40648.08
634.30	40793.20
634.45	40699.58
634.60	40594.25
634.75	40734.68
634.90	40807.24
635.05	40926.61
635.19	40741.71
635.34	40601.27
635.49	41071.72
635.64	40524.04
635.79	40755.75
635.94	40648.08
636.09	40514.67
636.24	40498.29
636.39	40474.88
636.53	40486.59
636.68	39861.66
636.83	40472.54
636.98	40402.33
637.13	40198.70
637.28	40172.96
637.43	40575.53
637.57	40236.15
637.72	40598.93
637.87	40617.66
638.02	40495.95
638.17	39819.53
638.32	40067.63
638.46	40032.52
638.61	40224.45
638.76	39805.49
638.91	39798.47
639.06	40280.62
639.20	40112.10
639.35	40123.80
639.50	40437.44
639.65	39934.22
639.80	40067.63
639.94	39969.33
640.09	40076.99
640.24	39407.60
640.39	39793.79
640.54	39651.02
640.68	39824.22
640.83	39447.39
640.98	39665.06
641.13	39627.61
641.27	39651.02
641.42	39374.83
641.57	39798.47
641.72	39805.49
641.86	39459.09
642.01	39676.76
642.16	39746.98
642.31	39028.43
642.45	39459.09
642.60	38845.87
642.75	39182.91
642.90	39302.28
643.04	39412.28
643.19	39229.72
643.34	39541.01
643.48	39117.37
643.63	39239.08
643.78	38646.93
643.93	39093.97
644.07	39105.67
644.22	39578.46
644.37	38696.08
644.51	38951.20
644.66	38866.94
644.81	39325.68
644.95	38995.67
645.10	38939.49
645.25	39292.91
645.39	39332.70
645.54	39208.65
645.69	38646.93
645.83	38717.14
645.98	38611.82
646.13	38550.96
646.27	39292.91
646.42	38597.77
646.57	38696.08
646.71	38520.54
646.86	39042.48
647.00	38700.76
647.15	38522.88
647.30	38995.67
647.44	38806.08
647.59	38925.45
647.74	38499.47
647.88	38611.82
648.03	38382.45
648.17	38363.72
648.32	38536.92
648.47	38394.15
648.61	38143.71
648.76	38391.81
648.90	38789.70
649.05	38918.43
649.20	38447.98
649.34	38780.34
649.49	38604.80
649.63	38284.14
649.78	38204.56
649.92	38366.06
650.07	38770.97
650.21	38007.96
650.36	38190.52
650.51	38012.64
650.65	38483.09
650.80	38642.24
650.94	38169.46
651.09	38078.18
651.23	38174.14
651.38	37879.23
651.52	37965.83
651.67	38403.51
651.81	37879.23
651.96	37785.61
652.10	38071.15
652.25	37617.09
652.39	37560.92
652.54	38101.58
652.68	38012.64
652.83	37993.92
652.97	37965.83
653.12	37778.59
653.26	37556.24
653.41	37734.12
653.55	37172.39
653.70	37542.19
653.84	37507.08
653.99	37792.63
654.13	37551.56
654.27	37642.84
654.42	37165.37
654.56	37509.43
654.71	37787.95
654.85	37600.71
655.00	37270.69
655.14	37188.77
655.29	36987.49
655.43	37022.59
655.57	36730.03
655.72	36622.36
655.86	37141.96
656.01	36980.46
656.15	36669.17
656.30	36973.44
656.44	36765.14
656.58	36971.10
656.73	36818.97
656.87	36985.15
657.01	36788.54
657.16	36535.76
657.30	36383.63
657.45	36264.26
657.59	36582.57
657.73	36814.29
657.88	36746.41
658.02	36708.96
658.16	36669.17
658.31	36697.26
658.45	36879.82
658.60	36687.90
658.74	36882.16
658.88	36723.01
659.03	36570.87
659.17	36311.07
659.31	36624.70
659.46	36425.76
659.60	36245.54
659.74	35990.42
659.89	36067.66
660.03	36313.41
660.17	36304.05
660.32	36156.60
660.46	36769.82
660.60	36477.25
660.74	35950.63
660.89	35763.39
661.03	36254.90
661.17	35655.72
661.32	35166.55
661.46	35440.39
661.60	35826.58
661.74	35519.97
661.89	35431.03
662.03	35803.17
662.17	35580.82
662.31	35133.78
662.46	35498.91
662.60	35468.48
662.74	35370.18
662.88	35538.69
663.03	35283.58
663.17	35358.47
663.31	35211.02
663.45	35742.32
663.60	35168.89
663.74	35033.14
663.88	35014.41
664.02	34850.58
664.17	35086.97
664.31	34579.07
664.45	34897.39
664.59	34745.25
664.73	34885.68
664.88	34579.07
665.02	34415.24
665.16	34443.32
665.30	34974.63
665.44	34604.82
665.59	34230.33
665.73	33951.81
665.87	34249.06
666.01	34335.66
666.15	34015.01
666.29	34298.21
666.44	34272.46
666.58	34068.84
666.72	34120.33
666.86	34656.31
667.00	34356.72
667.14	33804.36
667.28	34078.20
667.43	33469.66
667.57	33750.52
667.71	33528.17
667.85	33259.01
667.99	33652.22
668.13	33163.05
668.27	33287.10
668.41	33692.01
668.56	33230.93
668.70	33809.04
668.84	33294.12
668.98	33532.86
669.12	33261.35
669.26	33294.12
669.40	32598.98
669.54	32954.74
669.68	33186.46
669.82	33020.28
669.96	32610.68
670.10	32917.29
670.25	32615.37
670.39	33001.55
670.53	32865.80
670.67	32598.98
670.81	32835.38
670.95	32437.48
671.09	32680.90
671.23	32388.33
671.37	32304.07
671.51	32577.92
671.65	32065.34
671.79	31882.78
671.93	31873.42
672.07	32275.99
672.21	32306.41
672.35	31845.33
672.49	32343.86
672.63	32212.79
672.77	31459.14
672.91	31740.00
673.05	31571.49
673.19	31716.60
673.33	31323.39
673.47	31573.83
673.61	31356.16
673.75	30932.52
673.89	31194.66
674.03	30998.06
674.17	31164.23
674.31	30834.22
674.45	30740.60
674.59	30866.98
674.73	30895.07
674.87	30813.15
675.01	30810.81
675.15	30764.00
675.29	31122.10
675.43	30733.57
675.56	30415.26
675.70	30494.84
675.84	30305.26
675.98	29228.61
676.12	29631.18
676.26	29890.98
676.40	30110.99
676.54	29851.19
676.68	30127.38
676.82	29516.50
676.96	29567.99
677.10	29734.17
677.23	29385.43
677.37	29343.30
677.51	29497.77
677.65	29092.86
677.79	28964.13
677.93	28978.17
678.07	28575.60
678.21	28568.58
678.34	28641.14
678.48	28517.09
678.62	28594.32
678.76	28503.04
678.90	28580.28
679.04	28133.24
679.18	28257.29
679.31	28158.99
679.45	27938.97
679.59	27697.90
679.73	27667.47
679.87	27976.42
680.00	28217.50
680.14	27922.59
680.28	27674.49
680.42	27611.30
680.56	27300.01
680.70	27206.39
680.83	27321.07
680.97	27070.64
681.11	26719.56
681.25	26700.83
681.39	26806.16
681.52	26939.57
681.66	26450.39
681.80	26831.90
681.94	26265.49
682.07	26441.03
682.21	26338.05
682.35	26129.74
682.49	25970.58
682.62	26291.24
682.76	25853.56
682.90	25926.11
683.04	26113.36
683.17	26113.36
683.31	25802.07
683.45	25937.82
683.59	25366.73
683.72	25523.54
683.86	25462.69
684.00	25170.12
684.13	25242.68
684.27	25509.50
684.41	25436.94
684.55	25212.25
684.68	24797.98
684.82	24917.34
684.96	24694.99
685.09	24580.31
685.23	24524.13
685.37	24524.13
685.50	24437.53
685.64	24458.60
685.78	24231.57
685.91	24091.13
686.05	24196.46
686.19	24423.49
686.32	23836.02
686.46	23363.23
686.60	23601.96
686.73	23611.32
686.87	23110.45
687.01	23307.05
687.14	23124.49
687.28	22932.57
687.42	23197.05
687.55	22806.18
687.69	23183.01
687.82	22785.12
687.96	22841.29
688.10	22862.35
688.23	22614.26
688.37	22277.22
688.50	22328.71
688.64	22265.52
688.78	22174.24
688.91	22412.97
689.05	21820.81
689.18	22054.87
689.32	21703.79
689.46	22108.70
689.59	22190.62
689.73	21923.80
689.86	21853.58
690.00	21425.26
690.13	21659.32
690.27	21301.22
690.41	21605.49
690.54	21069.50
690.68	21167.80
690.81	21259.09
690.95	21053.12
691.08	21039.08
691.22	21025.03
691.35	20947.79
691.49	20599.05
691.62	20711.40
691.76	20489.05
691.89	20519.48
692.03	20414.15
692.16	20198.82
692.30	20369.68
692.43	20346.28
692.57	20262.02
692.70	20224.57
692.84	20142.65
692.97	19887.53
693.11	19871.15
693.24	19658.16
693.38	19587.94
693.51	19328.14
693.65	19749.44
693.78	19276.65
693.92	19133.88
694.05	19386.66
694.19	19190.05
694.32	19098.77
694.45	19161.97
694.59	19026.21
694.72	18855.36
694.86	18817.91
694.99	19000.47
695.13	18860.04
695.26	18389.59
695.39	18373.21
695.53	18469.17
695.66	18352.14
695.80	18558.11
695.93	18270.22
696.07	17865.31
696.20	18513.64
696.33	18195.32
696.47	17930.84
696.60	18129.79
696.73	17696.79
696.87	17493.16
697.00	17806.80
697.14	17572.74
697.27	17500.19
697.40	17432.31
697.54	17418.27
697.67	17399.54
697.80	17235.70
697.94	16807.39
698.07	16893.99
698.21	16702.06
698.34	16952.50
698.47	16746.53
698.61	16645.89
698.74	16208.21
698.87	16470.35
699.01	16133.31
699.14	16304.17
699.27	16219.91
699.40	16568.65
699.54	16329.92
699.67	15983.52
699.80	16107.57
699.94	15934.37
700.07	16100.55
700.20	15885.22
700.34	15786.91
700.47	15807.98
700.60	15822.02
700.73	16044.37
700.87	15735.42
701.00	15529.45
701.13	15220.50
701.26	15454.56
701.40	15611.37
701.53	15281.36
701.66	15272.00
701.79	15019.22
701.93	14988.79
702.06	14909.21
702.19	14909.21
702.32	15246.25
702.46	14839.00
702.59	14572.18
702.72	14785.16
702.85	14689.20
702.99	14750.06
703.12	14829.63
703.25	14623.67
703.38	14452.81
703.51	14291.31
703.65	14380.25
703.78	14169.60
703.91	14178.97
704.04	14033.85
704.17	14047.90
704.31	13900.44
704.44	13558.72
704.57	13568.09
704.70	13610.22
704.83	13682.77
704.96	13710.86
705.10	13802.14
705.23	13802.14
>>>>>End Processed Spectral Data<<<<<
