SpectraSuite Data File
++++++++++++++++++++++++++++++++++++
Date: Fri Oct 25 10:44:40 EDT 2013
User: price-jones
Dark Spectrum Present: No
Reference Spectrum Present: No
Number of Sampled Component Spectra: 1
Spectrometers: USB2+H05261
Integration Time (usec): 100000 (USB2+H05261)
Spectra Averaged: 1 (USB2+H05261)
Boxcar Smoothing: 0 (USB2+H05261)
Correct for Electrical Dark: No (USB2+H05261)
Strobe/Lamp Enabled: No (USB2+H05261)
Correct for Detector Non-linearity: No (USB2+H05261)
Correct for Stray Light: No (USB2+H05261)
Number of Pixels in Processed Spectrum: 2048
>>>>>Begin Processed Spectral Data<<<<<
365.73	145.11
365.92	145.11
366.12	145.11
366.32	102.98
366.52	25.75
366.72	72.56
366.91	25.75
367.11	0.00
367.31	74.90
367.51	0.00
367.70	23.41
367.90	44.47
368.10	18.72
368.30	46.81
368.49	42.13
368.69	37.45
368.89	35.11
369.09	0.00
369.28	88.94
369.48	39.79
369.68	88.94
369.87	159.16
370.07	114.69
370.27	98.30
370.47	208.31
370.66	437.68
370.86	388.53
371.06	517.26
371.25	461.09
371.45	400.23
371.65	425.98
371.84	465.77
372.04	510.24
372.24	458.74
372.44	425.98
372.63	393.21
372.83	547.69
373.03	461.09
373.22	416.62
373.42	533.64
373.62	507.90
373.81	524.28
374.01	528.96
374.21	543.00
374.40	449.38
374.60	491.51
374.79	489.17
374.99	550.03
375.19	524.28
375.38	566.41
375.58	524.28
375.78	606.20
375.97	510.24
376.17	615.56
376.37	538.32
376.56	575.77
376.76	629.60
376.95	557.05
377.15	587.47
377.35	589.82
377.54	585.13
377.74	547.69
377.93	573.43
378.13	571.09
378.33	648.33
378.52	550.03
378.72	650.67
378.91	564.07
379.11	638.97
379.31	601.52
379.50	566.41
379.70	648.33
379.89	678.76
380.09	613.22
380.28	615.56
380.48	575.77
380.68	554.71
380.87	662.37
381.07	648.33
381.26	662.37
381.46	638.97
381.65	669.39
381.85	744.29
382.04	739.61
382.24	711.52
382.43	662.37
382.63	683.44
382.83	650.67
383.02	671.73
383.22	779.40
383.41	641.31
383.61	737.27
383.80	798.12
384.00	777.06
384.19	704.50
384.39	751.31
384.58	674.07
384.78	674.07
384.97	692.80
385.17	770.04
385.36	699.82
385.56	826.21
385.75	671.73
385.95	800.46
386.14	741.95
386.34	739.61
386.53	716.20
386.72	770.04
386.92	854.30
387.11	807.48
387.31	826.21
387.50	755.99
387.70	814.51
387.89	767.70
388.09	753.65
388.28	802.80
388.48	770.04
388.67	830.89
388.86	788.76
389.06	877.70
389.25	828.55
389.45	931.53
389.64	910.47
389.84	858.98
390.03	823.87
390.22	919.83
390.42	924.51
390.61	978.34
390.81	887.06
391.00	877.70
391.19	924.51
391.39	999.41
391.58	1036.86
391.78	924.51
391.97	861.32
392.16	945.58
392.36	957.28
392.55	978.34
392.75	947.92
392.94	919.83
393.13	978.34
393.33	950.26
393.52	961.96
393.71	1006.43
393.91	1036.86
394.10	985.37
394.29	1043.88
394.49	1015.79
394.68	1020.47
394.88	1123.46
395.07	1158.57
395.26	1034.52
395.46	1130.48
395.65	1160.91
395.84	1123.46
396.04	1263.89
396.23	1149.20
396.42	1123.46
396.62	1086.01
396.81	1146.86
397.00	1203.04
397.19	1193.67
397.39	1172.61
397.58	1207.72
397.77	1160.91
397.97	1214.74
398.16	1266.23
398.35	1310.70
398.55	1329.42
398.74	1308.36
398.93	1359.85
399.12	1329.42
399.32	1296.66
399.51	1371.55
399.70	1289.64
399.90	1322.40
400.09	1514.33
400.28	1441.77
400.47	1495.60
400.67	1413.68
400.86	1495.60
401.05	1509.65
401.24	1488.58
401.44	1437.09
401.63	1519.01
401.82	1570.50
402.01	1500.28
402.21	1497.94
402.40	1528.37
402.59	1600.93
402.78	1514.33
402.97	1528.37
403.17	1558.80
403.36	1631.35
403.55	1586.88
403.74	1647.74
403.93	1558.80
404.13	1626.67
404.32	1654.76
404.51	1598.59
404.70	1818.60
404.89	1675.82
405.09	1713.27
405.28	1694.55
405.47	1741.36
405.66	1694.55
405.85	1664.12
406.05	1729.66
406.24	1736.68
406.43	1764.76
406.62	1792.85
406.81	1921.58
407.00	1797.53
407.20	1886.47
407.39	1832.64
407.58	1863.07
407.77	1905.20
407.96	1921.58
408.15	1954.35
408.34	1902.86
408.54	1973.07
408.73	1996.48
408.92	1959.03
409.11	2073.71
409.30	2111.16
409.49	1928.60
409.68	1912.22
409.87	2010.52
410.07	2162.66
410.26	2104.14
410.45	2132.23
410.64	2181.38
410.83	2223.51
411.02	2165.00
411.21	2253.94
411.40	2249.25
411.59	2244.57
411.78	2399.05
411.98	2328.83
412.17	2258.62
412.36	2307.77
412.55	2291.38
412.74	2415.43
412.93	2429.48
413.12	2457.56
413.31	2459.90
413.50	2462.24
413.69	2572.25
413.88	2537.14
414.07	2530.12
414.26	2637.78
414.45	2574.59
414.64	2534.80
414.83	2630.76
415.02	2668.21
415.22	2715.02
415.41	2715.02
415.60	2885.88
415.79	2808.64
415.98	2787.58
416.17	2848.43
416.36	2843.75
416.55	2911.63
416.74	2958.44
416.93	2909.29
417.12	2998.23
417.31	2906.95
417.50	2867.16
417.69	3077.80
417.88	3066.10
418.07	3007.59
418.26	3152.70
418.45	2972.48
418.64	3190.15
418.83	3185.47
419.02	3239.30
419.21	3183.13
419.39	3349.31
419.58	3124.62
419.77	3098.87
419.96	3274.41
420.15	3318.88
420.34	3335.26
420.53	3321.22
420.72	3398.46
420.91	3419.52
421.10	3384.41
421.29	3447.61
421.48	3288.45
421.67	3419.52
421.86	3358.67
422.05	3325.90
422.24	3506.12
422.43	3421.86
422.61	3382.07
422.80	3332.92
422.99	3471.01
423.18	3382.07
423.37	3559.95
423.56	3513.14
423.75	3508.46
423.94	3330.58
424.13	3304.84
424.32	3382.07
424.50	3569.32
424.69	3763.58
424.88	3527.19
425.07	3492.08
425.26	3524.85
425.45	3407.82
425.64	3468.67
425.83	3503.78
426.01	3632.51
426.20	3712.09
426.39	3599.74
426.58	3541.23
426.77	3609.11
426.96	3473.36
427.15	3691.02
427.33	3653.58
427.52	3602.08
427.71	3679.32
427.90	3616.13
428.09	3679.32
428.28	3798.69
428.46	3852.52
428.65	3655.92
428.84	3819.75
429.03	3824.44
429.22	3627.83
429.40	3889.97
429.59	3674.64
429.78	3700.39
429.97	3595.06
430.16	3698.05
430.34	3686.34
430.53	3836.14
430.72	3829.12
430.91	3911.04
431.10	3794.01
431.28	3995.29
431.47	4147.43
431.66	4021.04
431.85	4133.39
432.03	4173.18
432.22	4152.11
432.41	3983.59
432.60	4152.11
432.79	4196.58
432.97	4266.80
433.16	4194.24
433.35	4198.92
433.54	4154.45
433.72	4138.07
433.91	4222.33
434.10	4351.06
434.28	4159.13
434.47	4404.89
434.66	4337.01
434.85	4484.47
435.03	4404.89
435.22	4372.12
435.41	4571.07
435.59	4617.88
435.78	4428.29
435.97	4505.53
436.16	4645.96
436.34	4514.89
436.53	4620.22
436.72	4692.77
436.90	4634.26
437.09	4671.71
437.28	4596.81
437.46	4484.47
437.65	4409.57
437.84	4699.80
438.02	4643.62
438.21	4622.56
438.40	4664.69
438.58	4807.46
438.77	4723.20
438.96	4746.61
439.14	4943.21
439.33	5032.15
439.52	4887.04
439.70	4943.21
439.89	5193.65
440.08	5109.39
440.26	5135.14
440.45	5151.52
440.63	5343.44
440.82	5331.74
441.01	5228.76
441.19	5273.23
441.38	5502.60
441.57	5378.55
441.75	5406.64
441.94	5565.79
442.12	5481.53
442.31	5589.20
442.50	5806.87
442.68	5523.66
442.87	5586.86
443.05	5713.25
443.24	5748.36
443.43	5600.90
443.61	5823.25
443.80	5919.21
443.98	5579.84
444.17	5533.03
444.35	5673.46
444.54	5795.17
444.73	5844.32
444.91	5771.76
445.10	5778.78
445.28	5872.40
445.47	5689.84
445.65	5643.03
445.84	5935.60
446.02	6001.13
446.21	5846.66
446.39	5905.17
446.58	5865.38
446.77	5895.81
446.95	5846.66
447.14	5970.71
447.32	5905.17
447.51	6001.13
447.69	5870.06
447.88	6012.84
448.06	6026.88
448.25	6066.67
448.43	5865.38
448.62	6026.88
448.80	5949.64
448.99	6218.80
449.17	6132.20
449.36	6057.31
449.54	6125.18
449.73	6253.91
449.91	6415.41
450.10	6392.00
450.28	6366.26
450.46	6492.65
450.65	6340.51
450.83	6431.79
451.02	6289.02
451.20	6518.39
451.39	6314.77
451.57	6476.26
451.76	6375.62
451.94	6539.46
452.13	6441.15
452.31	6422.43
452.49	6438.81
452.68	6548.82
452.86	6471.58
453.05	6506.69
453.23	6567.54
453.42	6553.50
453.60	6478.60
453.78	6548.82
453.97	6672.87
454.15	6691.59
454.34	6593.29
454.52	6820.32
454.70	6703.29
454.89	6895.22
455.07	6743.08
455.26	6932.67
455.44	7019.27
455.62	6888.20
455.81	6787.55
455.99	6806.28
456.17	7105.87
456.36	6825.00
456.54	7075.44
456.73	7042.67
456.91	7250.98
457.09	7253.32
457.28	7527.16
457.46	7185.44
457.64	7227.57
457.83	7314.17
458.01	7234.60
458.19	7349.28
458.38	7272.04
458.56	7524.82
458.74	7463.97
458.93	7353.96
459.11	7485.03
459.29	7433.54
459.48	7396.09
459.66	7358.64
459.84	7503.76
460.03	7709.72
460.21	7639.51
460.39	7529.50
460.57	7672.28
460.76	7475.67
460.94	7719.09
461.12	7779.94
461.31	7742.49
461.49	7880.58
461.67	7808.03
461.85	7885.26
462.04	7845.48
462.22	7852.50
462.40	8018.68
462.59	7878.24
462.77	7955.48
462.95	7969.52
463.13	8023.36
463.32	7997.61
463.50	8077.19
463.68	8023.36
463.86	8152.09
464.05	7969.52
464.23	8018.68
464.41	8229.32
464.59	7936.76
464.78	8189.53
464.96	8070.17
465.14	8241.03
465.32	8205.92
465.50	8250.39
465.69	8369.76
465.87	8257.41
466.05	8250.39
466.23	8222.30
466.41	8320.60
466.60	8634.24
466.78	8248.05
466.96	8091.23
467.14	8283.16
467.32	8327.63
467.51	8533.59
467.69	8524.23
467.87	8449.33
468.05	8695.09
468.23	8458.70
468.41	8449.33
468.60	8634.24
468.78	8472.74
468.96	8484.44
469.14	8739.56
469.32	8692.75
469.50	8549.98
469.69	8699.77
469.87	8863.61
470.05	8877.65
470.23	8961.91
470.41	9011.06
470.59	9036.81
470.77	8917.44
470.95	8975.95
471.14	9310.65
471.32	9062.55
471.50	9415.98
471.68	9231.07
471.86	9266.18
472.04	9324.69
472.22	9411.29
472.40	9366.82
472.58	9329.38
472.77	9348.10
472.95	9476.83
473.13	9781.10
473.31	9411.29
473.49	9451.08
473.67	9635.99
473.85	9626.62
474.03	9902.81
474.21	9867.70
474.39	9963.66
474.57	9991.75
474.75	9874.72
474.93	10178.99
475.12	10068.98
475.30	10272.61
475.48	10366.23
475.66	10239.84
475.84	10085.37
476.02	10413.04
476.20	10380.28
476.38	10452.83
476.56	10733.70
476.74	10607.31
476.92	10759.44
477.10	10490.28
477.28	10937.32
477.46	10848.38
477.64	10939.66
477.82	11152.65
478.00	11302.45
478.18	11314.15
478.36	11339.90
478.54	11456.92
478.72	11417.13
478.90	11667.57
479.08	11772.89
479.26	11908.65
479.44	11915.67
479.62	11845.45
479.80	11906.31
479.98	12194.19
480.16	12334.62
480.34	12133.34
480.52	12587.40
480.70	12393.14
480.88	12407.18
481.06	12458.67
481.24	12589.74
481.41	12915.08
481.59	12901.03
481.77	13027.42
481.95	13036.78
482.13	13209.98
482.31	12978.27
482.49	13460.42
482.67	13291.90
482.85	13383.18
483.03	13626.60
483.21	13799.80
483.39	13940.23
483.57	13776.39
483.74	14143.86
483.92	14338.12
484.10	14216.41
484.28	14410.68
484.46	14513.66
484.64	14686.86
484.82	14649.41
485.00	14668.14
485.18	15229.87
485.35	15040.28
485.53	14972.41
485.71	14752.40
485.89	15220.50
486.07	15372.64
486.25	15279.02
486.43	15611.37
486.61	15726.06
486.78	15639.46
486.96	16002.24
487.14	16278.43
487.32	16266.72
487.50	16388.43
487.68	16430.56
487.85	16570.99
488.03	16936.12
488.21	16926.75
488.39	17001.65
488.57	17355.07
488.75	17172.51
488.92	17460.40
489.10	17516.57
489.28	17614.87
489.46	17657.00
489.64	18031.49
489.81	18176.60
489.99	18087.66
490.17	18668.11
490.35	18600.24
490.53	18328.74
490.70	18853.02
490.88	18661.09
491.06	19126.86
491.24	18817.91
491.41	18918.55
491.59	19105.79
491.77	19227.50
491.95	19229.84
492.13	19445.17
492.30	19711.99
492.48	19482.62
492.66	20084.14
492.84	19763.48
493.01	20215.21
493.19	20137.97
493.37	20350.96
493.54	20400.11
493.72	20802.68
493.90	20503.09
494.08	20893.96
494.25	20926.73
494.43	21139.72
494.61	21425.26
494.79	21195.89
494.96	21273.13
495.14	21394.84
495.32	21659.32
495.49	21989.33
495.67	21525.91
495.85	21603.14
496.02	22141.47
496.20	22157.85
496.38	22537.02
496.55	22597.87
496.73	22649.36
496.91	22824.90
497.09	22452.76
497.26	23042.57
497.44	22988.74
497.62	23016.83
497.79	23080.02
497.97	23264.92
498.14	23623.03
498.32	23447.49
498.50	23417.06
498.67	23662.82
498.85	23931.98
499.03	24166.03
499.20	24128.58
499.38	23674.52
499.56	24072.41
499.73	24112.20
499.91	24376.68
500.08	24421.15
500.26	24397.74
500.44	24491.37
500.61	24343.91
500.79	24210.50
500.97	24774.57
501.14	24900.96
501.32	24503.07
501.49	25097.56
501.67	24959.47
501.84	25364.39
502.02	25355.02
502.20	25568.01
502.37	25324.60
502.55	25645.25
502.72	25710.78
502.90	25598.44
503.07	25792.70
503.25	26022.08
503.43	25340.98
503.60	26103.99
503.78	26185.91
503.95	26291.24
504.13	26157.83
504.30	26211.66
504.48	26085.27
504.65	26897.44
504.83	26789.77
505.01	26593.17
505.18	26796.79
505.36	27178.30
505.53	27370.22
505.71	27304.69
505.88	27232.13
506.06	27173.62
506.23	26967.65
506.41	26895.10
506.58	27185.32
506.76	27377.25
506.93	27618.32
507.11	27578.53
507.28	27644.07
507.46	28048.98
507.63	27543.42
507.81	27948.34
507.98	27983.44
508.16	28510.07
508.33	28301.76
508.50	28060.68
508.68	28680.92
508.85	28500.70
509.03	28519.43
509.20	28526.45
509.38	28872.85
509.55	28889.23
509.73	28685.61
509.90	29111.58
510.08	28737.10
510.25	29425.22
510.42	29003.92
510.60	29263.72
510.77	29521.18
510.95	29525.86
511.12	29228.61
511.30	29530.54
511.47	29233.29
511.64	29647.57
511.82	30199.93
511.99	29724.80
512.17	29848.85
512.34	29575.01
512.51	30366.11
512.69	30232.70
512.86	29961.20
513.04	30602.50
513.21	30436.33
513.38	30036.09
513.56	30176.53
513.73	30445.69
513.90	30635.27
514.08	30731.23
514.25	30668.04
514.43	31161.89
514.60	30986.35
514.77	31049.55
514.95	31232.11
515.12	30932.52
515.29	31267.22
515.47	31711.92
515.64	31597.23
515.81	31424.03
515.99	31337.43
516.16	31847.67
516.33	31756.39
516.51	31049.55
516.68	31452.12
516.85	31248.49
517.03	31449.78
517.20	31608.93
517.37	32016.19
517.54	31924.91
517.72	32194.07
517.89	32163.64
518.06	31632.34
518.24	31892.14
518.41	32144.92
518.58	32444.51
518.75	32327.48
518.93	32725.37
519.10	32479.61
519.27	32940.70
519.45	32566.21
519.62	32521.74
519.79	32884.53
519.96	32856.44
520.14	33626.48
520.31	32917.29
520.48	33237.95
520.65	33053.05
520.83	33357.32
521.00	33385.40
521.17	33598.39
521.34	33893.30
521.52	33947.13
521.69	33574.98
521.86	33965.85
522.03	33731.80
522.20	33675.63
522.38	34242.04
522.55	34136.71
522.72	34265.44
522.89	34146.08
523.07	34157.78
523.24	33886.28
523.41	34529.92
523.58	33933.09
523.75	34485.45
523.92	34436.30
524.10	34906.75
524.27	34974.63
524.44	34857.60
524.61	35056.54
524.78	34955.90
524.96	35526.99
525.13	34848.24
525.30	35075.27
525.47	35384.22
525.64	35285.92
525.81	35255.49
525.98	34859.94
526.16	35171.23
526.33	35431.03
526.50	35627.63
526.67	35225.06
526.84	35129.10
527.01	35283.58
527.18	35702.53
527.36	35711.89
527.53	35845.30
527.70	35934.24
527.87	35665.08
528.04	35435.71
528.21	36079.36
528.38	35737.64
528.55	36392.99
528.72	36301.71
528.89	36163.62
529.07	36498.31
529.24	36177.66
529.41	36081.70
529.58	36343.84
529.75	36238.51
529.92	36627.04
530.09	36809.61
530.26	36905.57
530.43	37027.28
530.60	36266.60
530.77	36645.77
530.94	36739.39
531.11	36699.60
531.28	36664.49
531.46	37289.42
531.63	37067.06
531.80	36847.05
531.97	37177.07
532.14	36973.44
532.31	36744.07
532.48	36982.80
532.65	37273.03
532.82	37113.87
532.99	37488.36
533.16	37411.12
533.33	37827.74
533.50	37668.58
533.67	37516.45
533.84	37425.17
534.01	37722.41
534.18	37799.65
534.35	37940.08
534.52	37490.70
534.69	37813.70
534.86	38136.69
535.03	37663.90
535.20	38176.48
535.37	38368.40
535.54	38340.32
535.71	38211.59
535.88	38251.38
536.05	37794.97
536.22	38185.84
536.38	38450.32
536.55	38541.60
536.72	38335.63
536.89	38391.81
537.06	38265.42
537.23	38492.45
537.40	38171.80
537.57	38550.96
537.74	38506.49
537.91	38808.42
538.08	38658.63
538.25	38501.81
538.42	38770.97
538.59	39033.11
538.75	38859.91
538.92	38892.68
539.09	38899.70
539.26	39147.80
539.43	38787.36
539.60	39199.29
539.77	38852.89
539.94	38829.49
540.11	39093.97
540.28	39461.43
540.44	38911.41
540.61	39049.50
540.78	39227.38
540.95	38859.91
541.12	39227.38
541.29	39044.82
541.46	39196.95
541.62	39232.06
541.79	39222.70
541.96	39150.14
542.13	39503.56
542.30	39332.70
542.47	39550.37
542.63	39613.57
542.80	39894.43
542.97	40226.79
543.14	40399.99
543.31	40203.38
543.48	40175.30
543.64	40589.57
543.81	40715.96
543.98	40615.32
544.15	40531.06
544.32	40692.55
544.48	40615.32
544.65	40954.69
544.82	40924.27
544.99	40140.19
545.16	40559.14
545.32	40439.78
545.49	40762.77
545.66	41209.81
545.83	40612.98
546.00	40631.70
546.16	40430.41
546.33	40374.24
546.50	40327.43
546.67	40486.59
546.83	40493.61
547.00	40737.02
547.17	40519.35
547.34	40706.60
547.50	40973.42
547.67	41476.63
547.84	40715.96
548.00	41481.31
548.17	41111.51
548.34	40910.22
548.51	41186.41
548.67	41467.27
548.84	42066.45
549.01	41198.11
549.18	41404.08
549.34	41757.50
549.51	41467.27
549.68	41577.28
549.84	41383.01
550.01	41467.27
550.18	41670.90
550.34	41764.52
550.51	41481.31
550.68	42003.25
550.84	41308.11
551.01	41923.68
551.18	41635.79
551.34	41851.12
551.51	41975.17
551.68	41670.90
551.84	41820.69
552.01	41844.10
552.18	41752.82
552.34	41516.42
552.51	41841.76
552.68	41778.56
552.84	42234.97
553.01	42501.79
553.18	42120.28
553.34	42305.18
553.51	42188.16
553.67	42401.14
553.84	42150.71
554.01	42295.82
554.17	42630.52
554.34	42815.42
554.51	42164.75
554.67	42733.50
554.84	42300.50
555.00	42436.25
555.17	41951.76
555.33	42464.34
555.50	42220.92
555.67	42607.11
555.83	42230.29
556.00	42696.05
556.16	43028.41
556.33	42630.52
556.50	42249.01
556.66	42541.58
556.83	42824.78
556.99	42784.99
557.16	42562.64
557.32	42337.95
557.49	43107.99
557.65	42857.55
557.82	43086.92
557.98	42906.70
558.15	42934.79
558.32	43002.66
558.48	42997.98
558.65	42916.06
558.81	42780.31
558.98	43021.39
559.14	43260.12
559.31	43166.50
559.47	42841.17
559.64	43180.54
559.80	43147.78
559.97	43430.98
560.13	43061.18
560.30	43136.07
560.46	43058.84
560.63	43269.48
560.79	43138.41
560.96	43601.84
561.12	42969.90
561.29	43107.99
561.45	43192.25
561.61	43126.71
561.78	43187.56
561.94	43325.66
562.11	43089.26
562.27	43363.11
562.44	43372.47
562.60	43817.17
562.77	43255.44
562.93	43564.39
563.10	43896.75
563.26	43660.35
563.42	43737.59
563.59	43035.43
563.75	43072.88
563.92	43880.36
564.08	43459.07
564.24	43732.91
564.41	43791.42
564.57	43552.69
564.74	43384.17
564.90	43423.96
565.07	43447.36
565.23	43576.09
565.39	43412.26
565.56	43669.72
565.72	43643.97
565.88	43585.46
566.05	43452.05
566.21	43489.49
566.38	43398.21
566.54	43545.67
566.70	43709.50
566.87	43824.19
567.03	44046.54
567.19	44236.12
567.36	44257.19
567.52	43892.07
567.68	43999.73
567.85	43838.23
568.01	43627.59
568.17	43688.44
568.34	44123.78
568.50	43758.66
568.66	43625.25
568.83	43999.73
568.99	43807.81
569.15	43847.60
569.32	43508.22
569.48	43419.28
569.64	44212.72
569.81	43889.73
569.97	43763.34
570.13	44315.70
570.30	43758.66
570.46	43693.12
570.62	43526.94
570.78	43842.92
570.95	43814.83
571.11	44184.63
571.27	43662.69
571.43	44009.09
571.60	43723.55
571.76	43924.83
571.92	43948.24
572.09	43959.94
572.25	43882.70
572.41	43765.68
572.57	44296.98
572.74	44196.34
572.90	43917.81
573.06	43842.92
573.22	43856.96
573.38	44004.41
573.55	43690.78
573.71	44399.96
573.87	43899.09
574.03	44170.59
574.20	43922.49
574.36	44009.09
574.52	43868.66
574.68	43824.19
574.84	44114.42
575.01	44236.12
575.17	43627.59
575.33	43849.94
575.49	43721.21
575.65	44432.73
575.82	44182.29
575.98	44034.84
576.14	44076.97
576.30	44680.83
576.46	43718.87
576.62	44133.14
576.79	44133.14
576.95	44086.33
577.11	44198.68
577.27	44435.07
577.43	44306.34
577.59	44233.78
577.75	43997.39
577.92	43826.53
578.08	43854.62
578.24	44116.76
578.40	43966.96
578.56	43985.69
578.72	44091.01
578.88	44315.70
579.04	44208.04
579.21	44177.61
579.37	44069.95
579.53	44624.65
579.69	43826.53
579.85	44404.64
580.01	44191.65
580.17	44133.14
580.33	44133.14
580.49	44507.63
580.65	44210.38
580.82	44376.56
580.98	43955.26
581.14	43899.09
581.30	43948.24
581.46	44020.80
581.62	44301.66
581.78	44025.48
581.94	44505.29
582.10	43901.43
582.26	44055.90
582.42	44275.91
582.58	43976.33
582.74	44147.18
582.90	44299.32
583.06	44617.63
583.22	44362.51
583.38	44671.46
583.54	44500.61
583.70	44418.69
583.86	44554.44
584.02	43962.28
584.18	44350.81
584.34	44252.51
584.50	44411.67
584.66	43866.32
584.82	44252.51
584.98	44456.14
585.14	44348.47
585.30	44065.27
585.46	44495.92
585.62	44137.82
585.78	44479.54
585.94	44039.52
586.10	43971.64
586.26	43981.01
586.42	43988.03
586.58	44847.00
586.74	44278.25
586.90	44126.12
587.06	43945.90
587.22	44610.61
587.38	44285.28
587.54	44416.35
587.70	44505.29
587.86	44699.55
588.02	44622.31
588.18	44545.08
588.34	44535.71
588.49	44128.46
588.65	43782.06
588.81	44126.12
588.97	44327.41
589.13	43999.73
589.29	44325.07
589.45	44315.70
589.61	44451.45
589.77	44542.74
589.93	44811.90
590.08	45031.91
590.24	44704.23
590.40	44711.25
590.56	44781.47
590.72	44215.06
590.88	43945.90
591.04	44498.26
591.20	44671.46
591.35	44844.66
591.51	45078.72
591.67	44444.43
591.83	44531.03
591.99	44430.39
592.15	44650.40
592.31	44774.45
592.46	44385.92
592.62	44645.72
592.78	44430.39
592.94	45010.84
593.10	44306.34
593.26	44739.34
593.41	44605.93
593.57	44484.22
593.73	44603.59
593.89	44472.52
594.05	44669.12
594.20	44570.82
594.36	45001.48
594.52	44612.95
594.68	44411.67
594.84	44271.23
594.99	44655.08
595.15	44507.63
595.31	44729.98
595.47	44858.71
595.62	44577.84
595.78	44980.42
595.94	44921.90
596.10	45429.80
596.25	45165.32
596.41	45067.02
596.57	44793.17
596.73	44414.01
596.88	44868.07
597.04	44535.71
597.20	44552.10
597.36	44835.30
597.51	45013.18
597.67	44657.42
597.83	45188.72
597.99	44994.46
598.14	44479.54
598.30	44690.19
598.46	44748.70
598.61	44935.95
598.77	44718.28
598.93	44875.09
599.09	44348.47
599.24	45549.17
599.40	45485.97
599.56	45008.50
599.71	44856.37
599.87	45062.33
600.03	44676.15
600.18	44350.81
600.34	44596.57
600.50	44919.56
600.65	44470.18
600.81	45120.85
600.97	45317.45
601.12	45064.67
601.28	44886.79
601.44	44697.21
601.59	44561.46
601.75	44414.01
601.91	44619.97
602.06	44729.98
602.22	44690.19
602.37	44727.64
602.53	44493.58
602.69	44751.04
602.84	44722.96
603.00	44699.55
603.16	44898.50
603.31	44971.05
603.47	44573.16
603.62	44856.37
603.78	44683.17
603.94	44713.59
604.09	44898.50
604.25	44858.71
604.40	44701.89
604.56	44460.82
604.71	44594.23
604.87	44835.30
605.03	44526.35
605.18	44610.61
605.34	44362.51
605.49	44465.50
605.65	44346.13
605.80	44863.39
605.96	44697.21
606.12	44708.91
606.27	44818.92
606.43	44399.96
606.58	44619.97
606.74	44514.65
606.89	44327.41
607.05	44566.14
607.20	44690.19
607.36	44357.83
607.51	44516.99
607.67	44224.42
607.82	44507.63
607.98	44802.53
608.13	44076.97
608.29	44418.69
608.44	44069.95
608.60	43894.41
608.75	44119.10
608.91	44254.85
609.06	44414.01
609.22	44205.70
609.37	44371.88
609.53	44196.34
609.68	44149.53
609.84	43990.37
609.99	44098.03
610.15	44236.12
610.30	44222.08
610.46	43548.01
610.61	44013.77
610.76	44533.37
610.92	44381.24
611.07	44004.41
611.23	44083.99
611.38	44100.37
611.54	44048.88
611.69	43885.04
611.84	43969.30
612.00	44154.21
612.15	43779.72
612.31	43995.05
612.46	44102.71
612.62	43777.38
612.77	43929.51
612.92	43983.35
613.08	43922.49
613.23	44346.13
613.39	44044.20
613.54	43842.92
613.69	44158.89
613.85	44011.43
614.00	44435.07
614.15	43903.77
614.31	43973.98
614.46	43950.58
614.62	43861.64
614.77	43557.37
614.92	43562.05
615.08	43330.34
615.23	43667.37
615.38	43798.44
615.54	43473.11
615.69	43311.61
615.84	43622.90
616.00	43573.75
616.15	43510.56
616.30	43529.28
616.46	43580.78
616.61	42873.93
616.76	43222.67
616.92	42983.94
617.07	43110.33
617.22	42904.36
617.37	42646.90
617.53	43435.66
617.68	43412.26
617.83	43391.19
617.99	43447.36
618.14	43381.83
618.29	42951.17
618.45	43126.71
618.60	42873.93
618.75	42918.40
618.90	42918.40
619.06	43152.46
619.21	43409.92
619.36	42911.38
619.51	43292.89
619.67	42974.58
619.82	43302.25
619.97	43084.58
620.12	42880.95
620.28	42497.11
620.43	42651.58
620.58	42616.47
620.73	42724.14
620.89	42759.25
621.04	43058.84
621.19	42611.79
621.34	43131.39
621.49	42646.90
621.65	42738.18
621.80	42637.54
621.95	42417.53
622.10	42536.90
622.25	42007.94
622.41	42354.33
622.56	42064.11
622.71	42593.07
622.86	42698.39
623.01	42415.19
623.16	42300.50
623.32	42527.53
623.47	42471.36
623.62	42595.41
623.77	42021.98
623.92	42464.34
624.07	42375.40
624.23	42050.06
624.38	41808.99
624.53	42005.59
624.68	42195.18
624.83	42307.52
624.98	42614.13
625.13	42155.39
625.29	42131.98
625.44	41806.65
625.59	42141.35
625.74	41736.43
625.89	41614.72
626.04	41982.19
626.19	41787.92
626.34	42099.22
626.49	41619.41
626.65	41984.53
626.80	42019.64
626.95	42021.98
627.10	41532.81
627.25	41434.50
627.40	41553.87
627.55	41352.58
627.70	41069.38
627.85	41003.85
628.00	41258.96
628.15	41340.88
628.30	40947.67
628.45	41596.00
628.60	41368.97
628.76	41329.18
628.91	41521.10
629.06	41144.28
629.21	41223.86
629.36	41397.06
629.51	40779.15
629.66	41104.49
629.81	41067.04
629.96	40900.86
630.11	41256.62
630.26	41043.63
630.41	41645.15
630.56	40795.54
630.71	41071.72
630.86	40830.65
631.01	40744.05
631.16	40877.46
631.31	41041.29
631.46	40460.84
631.61	41219.17
631.76	40793.20
631.91	40931.29
632.06	41120.87
632.21	41095.13
632.36	40797.88
632.51	40512.33
632.66	40514.67
632.81	40385.94
632.96	40240.83
633.10	40610.64
633.25	40627.02
633.40	40692.55
633.55	40580.21
633.70	40297.00
633.85	40484.25
634.00	40575.53
634.15	40580.21
634.30	40807.24
634.45	40348.50
634.60	40556.80
634.75	40243.17
634.90	40072.31
635.05	40500.63
635.19	40203.38
635.34	40570.85
635.49	40130.83
635.64	40327.43
635.79	40067.63
635.94	39992.73
636.09	40095.72
636.24	39756.34
636.39	40392.97
636.53	39988.05
636.68	39349.09
636.83	39866.34
636.98	39999.76
637.13	39896.77
637.28	39718.89
637.43	40091.04
637.57	40074.65
637.72	39803.15
637.87	40006.78
638.02	39646.33
638.17	39772.72
638.32	39894.43
638.46	39519.95
638.61	39552.71
638.76	39824.22
638.91	39887.41
639.06	39456.75
639.20	39601.86
639.35	39653.36
639.50	39676.76
639.65	39669.74
639.80	39721.23
639.94	39487.18
640.09	39377.17
640.24	39431.01
640.39	39236.74
640.54	39328.02
640.68	39084.61
640.83	39276.53
640.98	39194.61
641.13	39098.65
641.27	39438.03
641.42	39063.54
641.57	39304.62
641.72	39218.02
641.86	38993.32
642.01	38815.44
642.16	39220.36
642.31	38883.32
642.45	39381.85
642.60	38735.87
642.75	38820.13
642.90	38763.95
643.04	39152.48
643.19	39037.80
643.34	38625.86
643.48	38412.87
643.63	38555.64
643.78	38567.35
643.93	38614.16
644.07	38848.21
644.22	38565.01
644.37	38871.62
644.51	38539.26
644.66	38539.26
644.81	38700.76
644.95	38965.24
645.10	38527.56
645.25	38763.95
645.39	38443.30
645.54	38567.35
645.69	38361.38
645.83	38944.17
645.98	38237.33
646.13	38326.27
646.27	38476.07
646.42	38749.91
646.57	38557.99
646.71	38309.89
646.86	38307.55
647.00	38354.36
647.15	38209.25
647.30	38286.48
647.44	38494.79
647.59	38705.44
647.74	38291.16
647.88	37841.78
648.03	38492.45
648.17	38139.03
648.32	37984.55
648.47	38103.92
648.61	37933.06
648.76	38014.98
648.90	38204.56
649.05	38148.39
649.20	38129.67
649.34	37743.48
649.49	37436.87
649.63	37867.53
649.78	37755.18
649.92	37937.74
650.07	38281.80
650.21	37897.95
650.36	37563.26
650.51	37567.94
650.65	38227.97
650.80	38124.99
650.94	37376.01
651.09	37699.01
651.23	37710.71
651.38	37408.78
651.52	37511.77
651.67	37404.10
651.81	37420.48
651.96	37532.83
652.10	37443.89
652.25	37383.04
652.39	37680.28
652.54	37436.87
652.68	37816.04
652.83	37605.39
652.97	37493.04
653.12	37483.68
653.26	37060.04
653.41	37408.78
653.55	36919.61
653.70	37083.45
653.84	37240.26
653.99	37663.90
654.13	37141.96
654.27	37013.23
654.42	37006.21
654.56	37055.36
654.71	36978.12
654.85	36947.70
655.00	36802.58
655.14	37191.11
655.29	36781.52
655.43	37006.21
655.57	36662.15
655.72	36313.41
655.86	36524.06
656.01	36634.06
656.15	36278.30
656.30	36484.27
656.44	36638.75
656.58	36355.54
656.73	36425.76
656.87	36802.58
657.01	36500.65
657.16	36788.54
657.30	36114.47
657.45	36180.00
657.59	36404.69
657.73	36297.03
657.88	37069.40
658.02	36322.77
658.16	36959.40
658.31	36577.89
658.45	36495.97
658.60	36088.72
658.74	36297.03
658.88	35796.15
659.03	36123.83
659.17	35674.45
659.31	36013.82
659.46	35625.29
659.60	36442.14
659.74	35828.92
659.89	35938.93
660.03	35594.87
660.17	35927.22
660.32	35438.05
660.46	35931.90
660.60	35798.49
660.74	35323.36
660.89	35693.17
661.03	35351.45
661.17	35241.45
661.32	35669.76
661.46	35122.08
661.60	35639.34
661.74	35154.85
661.89	35278.89
662.03	35311.66
662.17	35021.44
662.31	35082.29
662.46	35138.46
662.60	35182.93
662.74	35330.39
662.88	35316.34
663.03	34717.17
663.17	34637.59
663.31	34745.25
663.45	34522.90
663.60	34752.27
663.74	34471.41
663.88	34660.99
664.02	34574.39
664.17	34843.56
664.31	34768.66
664.45	34359.06
664.59	34291.19
664.73	33975.22
664.88	34501.84
665.02	34370.77
665.16	34190.55
665.30	34190.55
665.44	33947.13
665.59	34000.96
665.73	34183.52
665.87	34043.09
666.01	33727.12
666.15	33851.17
666.29	34031.39
666.44	33998.62
666.58	33715.42
666.72	33546.90
666.86	33301.14
667.00	33556.26
667.14	33266.03
667.28	33390.08
667.43	33242.63
667.57	33376.04
667.71	33092.83
667.85	32943.04
667.99	33235.61
668.13	32924.32
668.27	33010.92
668.41	32912.61
668.56	32879.85
668.70	33563.28
668.84	33029.64
668.98	33111.56
669.12	32868.14
669.26	32730.05
669.40	31889.80
669.54	32414.08
669.68	32275.99
669.82	32306.41
669.96	32453.87
670.10	32589.62
670.25	32500.68
670.39	31952.99
670.53	32271.31
670.67	31842.99
670.81	32170.66
670.95	32348.54
671.09	31995.12
671.23	31791.50
671.37	31674.47
671.51	31878.10
671.65	32100.45
671.79	31789.16
671.93	31243.81
672.07	31557.44
672.21	31433.39
672.35	31494.25
672.49	31620.64
672.63	31374.88
672.77	31227.43
672.91	31459.14
673.05	31255.51
673.19	31299.98
673.33	31267.22
673.47	31094.02
673.61	30993.37
673.75	30661.02
673.89	30607.19
674.03	30740.60
674.17	30714.85
674.31	30691.44
674.45	30529.95
674.59	30565.06
674.73	30499.52
674.87	30600.16
675.01	30651.66
675.15	30384.83
675.29	30047.80
675.43	30078.22
675.56	29851.19
675.70	29869.92
675.84	29790.34
675.98	28936.04
676.12	29612.46
676.26	29790.34
676.40	29607.78
676.54	29570.33
676.68	29799.70
676.82	28992.22
676.96	29472.03
677.10	29149.03
677.23	29116.26
677.37	29048.39
677.51	28804.97
677.65	28765.18
677.79	28362.61
677.93	28896.25
678.07	28425.81
678.21	28430.49
678.34	28306.44
678.48	27585.55
678.62	27800.88
678.76	27871.10
678.90	27857.06
679.04	27981.10
679.18	27473.21
679.31	27445.12
679.45	27496.61
679.59	27089.36
679.73	27269.58
679.87	27302.35
680.00	27147.87
680.14	27091.70
680.28	26899.78
680.42	27414.69
680.56	27426.40
680.70	27051.91
680.83	27190.00
680.97	26778.07
681.11	26958.29
681.25	26635.30
681.39	26377.84
681.52	26841.26
681.66	26230.38
681.80	26321.66
681.94	26190.59
682.07	26216.34
682.21	25881.64
682.35	26043.14
682.49	25998.67
682.62	26174.21
682.76	25989.31
682.90	25706.10
683.04	25467.37
683.17	25230.98
683.31	25151.40
683.45	24989.90
683.59	25369.07
683.72	25195.87
683.86	24922.02
684.00	24521.79
684.13	24730.10
684.27	24973.52
684.41	24556.90
684.55	24411.79
684.68	24510.09
684.82	24460.94
684.96	24465.62
685.09	24393.06
685.23	23718.99
685.37	24198.80
685.50	24203.48
685.64	24046.66
685.78	24088.79
685.91	23777.50
686.05	23391.31
686.19	23784.52
686.32	23412.38
686.46	23243.86
686.60	23171.30
686.73	23152.58
686.87	23246.20
687.01	23201.73
687.14	23094.07
687.28	22890.44
687.42	22794.48
687.55	22970.02
687.69	23180.67
687.82	22813.20
687.96	22635.32
688.10	22415.31
688.23	22522.98
688.37	22207.00
688.50	21851.24
688.64	22188.28
688.78	22092.32
688.91	21715.49
689.05	21888.69
689.18	21954.22
689.32	21600.80
689.46	21921.46
689.59	21738.90
689.73	21671.02
689.86	21479.10
690.00	21415.90
690.13	21680.38
690.27	21455.69
690.41	21064.82
690.54	20652.89
690.68	20496.07
690.81	20673.95
690.95	20725.44
691.08	20786.30
691.22	20411.81
691.35	20439.90
691.49	20926.73
691.62	20830.77
691.76	20755.87
691.89	20430.54
692.03	20175.42
692.16	20051.37
692.30	19976.47
692.43	19850.08
692.57	19702.63
692.70	19997.54
692.84	19833.70
692.97	19779.87
693.11	19300.06
693.24	19150.26
693.38	19360.91
693.51	19206.44
693.65	19431.13
693.78	19234.52
693.92	19363.25
694.05	19206.44
694.19	19274.31
694.32	18684.50
694.45	18712.58
694.59	18490.23
694.72	18527.68
694.86	18501.93
694.99	18452.78
695.13	18356.82
695.26	18609.60
695.39	18274.90
695.53	18295.97
695.66	18080.64
695.80	18174.26
695.93	18010.42
696.07	18031.49
696.20	17853.61
696.33	18047.87
696.47	17827.86
696.60	17745.94
696.73	17584.44
696.87	17387.84
697.00	17687.43
697.14	17497.84
697.27	17291.88
697.40	17224.00
697.54	17287.20
697.67	17011.01
697.80	16978.25
697.94	17020.38
698.07	16594.40
698.21	16723.13
698.34	16685.68
698.47	16477.37
698.61	16559.29
698.74	16107.57
698.87	16201.19
699.01	15927.35
699.14	15850.11
699.27	16053.73
699.40	15920.32
699.54	16039.69
699.67	15648.82
699.80	16020.97
699.94	15665.21
700.07	15669.89
700.20	15513.07
700.34	15449.88
700.47	15786.91
700.60	15908.62
700.73	15803.30
700.87	15541.16
701.00	15260.29
701.13	15176.03
701.26	15248.59
701.40	15365.62
701.53	15185.40
701.66	15044.96
701.79	14916.23
701.93	15023.90
702.06	14656.43
702.19	14902.19
702.32	14810.91
702.46	14567.49
702.59	14618.99
702.72	14499.62
702.85	14427.06
702.99	14677.50
703.12	14476.21
703.25	14382.59
703.38	14047.90
703.51	13973.00
703.65	13748.31
703.78	14195.35
703.91	13921.51
704.04	13806.82
704.17	13937.89
704.31	13767.03
704.44	13561.06
704.57	13905.12
704.70	13741.29
704.83	13645.32
704.96	13591.49
705.10	13305.95
705.23	13238.07
>>>>>End Processed Spectral Data<<<<<
