SpectraSuite Data File
++++++++++++++++++++++++++++++++++++
Date: Fri Oct 25 10:43:56 EDT 2013
User: price-jones
Dark Spectrum Present: No
Reference Spectrum Present: No
Number of Sampled Component Spectra: 1
Spectrometers: USB2+H05261
Integration Time (usec): 100000 (USB2+H05261)
Spectra Averaged: 1 (USB2+H05261)
Boxcar Smoothing: 0 (USB2+H05261)
Correct for Electrical Dark: No (USB2+H05261)
Strobe/Lamp Enabled: No (USB2+H05261)
Correct for Detector Non-linearity: No (USB2+H05261)
Correct for Stray Light: No (USB2+H05261)
Number of Pixels in Processed Spectrum: 2048
>>>>>Begin Processed Spectral Data<<<<<
365.73	133.41
365.92	133.41
366.12	133.41
366.32	0.00
366.52	44.47
366.72	39.79
366.91	67.88
367.11	0.00
367.31	4.68
367.51	0.00
367.70	42.13
367.90	74.90
368.10	70.22
368.30	98.30
368.49	46.81
368.69	91.28
368.89	9.36
369.09	44.47
369.28	58.51
369.48	39.79
369.68	63.19
369.87	124.05
370.07	98.30
370.27	102.98
370.47	145.11
370.66	428.32
370.86	491.51
371.06	498.53
371.25	496.19
371.45	418.96
371.65	514.92
371.84	528.96
372.04	479.81
372.24	489.17
372.44	472.79
372.63	566.41
372.83	512.58
373.03	531.30
373.22	561.73
373.42	545.34
373.62	533.64
373.81	535.98
374.01	641.31
374.21	566.41
374.40	540.66
374.60	587.47
374.79	592.16
374.99	575.77
375.19	617.90
375.38	629.60
375.58	608.54
375.78	655.35
375.97	601.52
376.17	655.35
376.37	578.11
376.56	582.79
376.76	662.37
376.95	634.29
377.15	629.60
377.35	678.76
377.54	627.26
377.74	685.78
377.93	755.99
378.13	730.25
378.33	699.82
378.52	634.29
378.72	758.33
378.91	699.82
379.11	779.40
379.31	631.94
379.50	711.52
379.70	699.82
379.89	650.67
380.09	713.86
380.28	699.82
380.48	713.86
380.68	751.31
380.87	690.46
381.07	669.39
381.26	685.78
381.46	718.54
381.65	753.65
381.85	784.08
382.04	674.07
382.24	795.78
382.43	648.33
382.63	795.78
382.83	751.31
383.02	730.25
383.22	695.14
383.41	739.61
383.61	772.38
383.80	821.53
384.00	842.59
384.19	894.08
384.39	802.80
384.58	718.54
384.78	786.42
384.97	765.36
385.17	812.17
385.36	842.59
385.56	856.64
385.75	791.10
385.95	884.72
386.14	866.00
386.34	819.19
386.53	800.46
386.72	779.40
386.92	903.45
387.11	922.17
387.31	863.66
387.50	894.08
387.70	933.87
387.89	882.38
388.09	929.19
388.28	938.55
388.48	868.34
388.67	908.13
388.86	994.73
389.06	961.96
389.25	978.34
389.45	938.55
389.64	1008.77
389.84	1029.84
390.03	1088.35
390.22	1076.65
390.42	1086.01
390.61	1041.54
390.81	1020.47
391.00	1158.57
391.19	1132.82
391.39	1088.35
391.58	1043.88
391.78	1036.86
391.97	1104.73
392.16	1086.01
392.36	1067.28
392.55	1048.56
392.75	1081.33
392.94	1025.15
393.13	1013.45
393.33	1081.33
393.52	1015.79
393.71	1158.57
393.91	1121.12
394.10	1186.65
394.29	1123.46
394.49	1146.86
394.68	1299.00
394.88	1284.95
395.07	1296.66
395.26	1277.93
395.46	1284.95
395.65	1317.72
395.84	1296.66
396.04	1322.40
396.23	1186.65
396.42	1125.80
396.62	1177.29
396.81	1191.33
397.00	1284.95
397.19	1252.19
397.39	1369.21
397.58	1509.65
397.77	1404.32
397.97	1434.75
398.16	1416.02
398.35	1406.66
398.55	1451.13
398.74	1523.69
398.93	1614.97
399.12	1570.50
399.32	1626.67
399.51	1631.35
399.70	1572.84
399.90	1533.05
400.09	1614.97
400.28	1706.25
400.47	1678.16
400.67	1764.76
400.86	1703.91
401.05	1645.40
401.24	1739.02
401.44	1724.97
401.63	1776.47
401.82	1708.59
402.01	1636.03
402.21	1785.83
402.40	1774.13
402.59	1720.29
402.78	1851.36
402.97	1811.57
403.17	1865.41
403.36	1842.00
403.55	1839.66
403.74	1970.73
403.93	1975.41
404.13	2015.20
404.32	1893.49
404.51	1928.60
404.70	2087.76
404.89	1989.46
405.09	1994.14
405.28	2022.22
405.47	2090.10
405.66	2026.90
405.85	2136.91
406.05	2003.50
406.24	2115.84
406.43	2148.61
406.62	2132.23
406.81	2270.32
407.00	2099.46
407.20	2143.93
407.39	2260.96
407.58	2143.93
407.77	2312.45
407.96	2277.34
408.15	2431.82
408.34	2347.56
408.54	2457.56
408.73	2267.98
408.92	2399.05
409.11	2476.29
409.30	2347.56
409.49	2296.07
409.68	2312.45
409.87	2349.90
410.07	2382.67
410.26	2427.14
410.45	2417.77
410.64	2539.48
410.83	2649.49
411.02	2576.93
411.21	2771.19
411.40	2658.85
411.59	2719.70
411.78	2710.34
411.98	2679.91
412.17	2722.04
412.36	2759.49
412.55	2799.28
412.74	2825.03
412.93	2850.77
413.12	2839.07
413.31	3073.12
413.50	3021.63
413.69	3059.08
413.88	2960.78
414.07	2878.86
414.26	2958.44
414.45	3101.21
414.64	3213.56
414.83	3304.84
415.02	3082.49
415.22	3169.09
415.41	3274.41
415.60	3173.77
415.79	3372.71
415.98	3478.04
416.17	3370.37
416.36	3311.86
416.55	3398.46
416.74	3438.25
416.93	3363.35
417.12	3456.97
417.31	3515.48
417.50	3396.12
417.69	3599.74
417.88	3606.77
418.07	3536.55
418.26	3545.91
418.45	3674.64
418.64	3688.68
418.83	3669.96
419.02	3655.92
419.21	3742.52
419.39	3920.40
419.58	3747.20
419.77	3602.08
419.96	3653.58
420.15	3803.37
420.34	3730.81
420.53	3936.78
420.72	3946.14
420.91	3880.61
421.10	3838.48
421.29	3985.93
421.48	3943.80
421.67	3901.67
421.86	3920.40
422.05	4037.42
422.24	3939.12
422.43	4021.04
422.61	3992.95
422.80	4189.56
422.99	3995.29
423.18	4060.83
423.37	4039.76
423.56	4159.13
423.75	4009.34
423.94	3969.55
424.13	3920.40
424.32	3866.56
424.50	3964.87
424.69	4100.62
424.88	4196.58
425.07	4119.34
425.26	3981.25
425.45	4060.83
425.64	4058.49
425.83	4212.96
426.01	4245.73
426.20	4004.66
426.39	4128.70
426.58	4119.34
426.77	4128.70
426.96	4145.09
427.15	4145.09
427.33	4187.22
427.52	4180.20
427.71	4315.95
427.90	4477.44
428.09	4205.94
428.28	4222.33
428.46	4322.97
428.65	4278.50
428.84	4355.74
429.03	4358.08
429.22	4128.70
429.40	4173.18
429.59	4386.16
429.78	4056.15
429.97	3946.14
430.16	4063.17
430.34	4353.40
430.53	4117.00
430.72	4271.48
430.91	4304.25
431.10	4507.87
431.28	4777.03
431.47	4826.18
431.66	4786.40
431.85	4652.98
432.03	4746.61
432.22	4903.42
432.41	4709.16
432.60	4753.63
432.79	4882.36
432.97	4943.21
433.16	4950.23
433.35	4732.56
433.54	4901.08
433.72	4788.74
433.91	4898.74
434.10	4990.02
434.28	4908.10
434.47	5085.98
434.66	5179.61
434.85	5165.56
435.03	5280.25
435.22	5067.26
435.41	5294.29
435.59	5135.14
435.78	5373.87
435.97	5413.66
436.16	5341.10
436.34	5289.61
436.53	5455.79
436.72	5434.72
436.90	5364.51
437.09	5434.72
437.28	5432.38
437.46	5270.89
437.65	5490.90
437.84	5439.40
438.02	5268.55
438.21	5413.66
438.40	5348.12
438.58	5568.13
438.77	5568.13
438.96	5563.45
439.14	5673.46
439.33	5818.57
439.52	5881.77
439.70	5991.77
439.89	5764.74
440.08	5710.91
440.26	5933.26
440.45	5942.62
440.63	6094.76
440.82	6188.38
441.01	6099.44
441.19	6228.17
441.38	6195.40
441.57	6298.38
441.75	6399.02
441.94	6429.45
442.12	6361.58
442.31	6504.35
442.50	6595.63
442.68	6593.29
442.87	6579.25
443.05	6429.45
443.24	6693.93
443.43	6658.82
443.61	6682.23
443.80	6750.10
443.98	6541.80
444.17	6457.54
444.35	6682.23
444.54	6862.45
444.73	6848.41
444.91	6558.18
445.10	6810.96
445.28	6670.53
445.47	6654.14
445.65	6684.57
445.84	6675.21
446.02	6846.07
446.21	6897.56
446.39	6848.41
446.58	6949.05
446.77	6927.99
446.95	6766.49
447.14	6951.39
447.32	7101.19
447.51	6820.32
447.69	6925.65
447.88	6935.01
448.06	6862.45
448.25	6799.26
448.43	6981.82
448.62	6848.41
448.80	6911.60
448.99	7030.97
449.17	7197.15
449.36	7091.82
449.54	7286.09
449.73	7431.20
449.91	7300.13
450.10	7258.00
450.28	7529.50
450.46	7466.31
450.65	7412.48
450.83	7449.93
451.02	7517.80
451.20	7583.34
451.39	7676.96
451.57	7337.58
451.76	7583.34
451.94	7616.10
452.13	7604.40
452.31	7660.57
452.49	7351.62
452.68	7634.83
452.86	7325.88
453.05	7571.63
453.23	7662.91
453.42	7510.78
453.60	7674.62
453.78	7653.55
453.97	7562.27
454.15	7824.41
454.34	7655.89
454.52	7777.60
454.70	7618.44
454.89	7915.69
455.07	7688.66
455.26	7641.85
455.44	8098.25
455.62	8124.00
455.81	7967.18
455.99	8063.15
456.17	7990.59
456.36	8039.74
456.54	8177.83
456.73	8250.39
456.91	8325.29
457.09	8299.54
457.28	8416.57
457.46	8196.56
457.64	8311.24
457.83	8386.14
458.01	8322.94
458.19	8582.74
458.38	8374.44
458.56	8683.39
458.74	8678.71
458.93	8620.19
459.11	8805.10
459.29	8540.61
459.48	8526.57
459.66	8561.68
459.84	8617.85
460.03	8854.25
460.21	8772.33
460.39	8856.59
460.57	8760.63
460.76	8882.33
460.94	8947.87
461.12	8669.34
461.31	8973.61
461.49	8943.19
461.67	9043.83
461.85	9088.30
462.04	9184.26
462.22	9233.41
462.40	9261.50
462.59	9163.20
462.77	9228.73
462.95	9277.88
463.13	9139.79
463.32	9327.03
463.50	9198.31
463.68	9338.74
463.86	9254.48
464.05	9451.08
464.23	9282.56
464.41	9430.02
464.59	9107.02
464.78	9530.66
464.96	9455.76
465.14	9277.88
465.32	9575.13
465.50	9776.42
465.69	9671.09
465.87	9544.70
466.05	9437.04
466.23	9542.36
466.41	9792.80
466.60	9809.19
466.78	9626.62
466.96	9645.35
467.14	9605.56
467.32	9479.17
467.51	9715.56
467.69	9467.47
467.87	9575.13
468.05	9806.84
468.23	9788.12
468.41	9781.10
468.60	9565.77
468.78	10038.56
468.96	9750.67
469.14	9968.34
469.32	10071.33
469.50	9687.48
469.69	10265.59
469.87	10298.36
470.05	10232.82
470.23	10134.52
470.41	10164.95
470.59	10209.42
470.77	10387.30
470.95	10391.98
471.14	10396.66
471.32	10303.04
471.50	10558.16
471.68	10747.74
471.86	10637.73
472.04	10670.50
472.22	10806.25
472.40	10509.01
472.58	10750.08
472.77	10714.97
472.95	11042.65
473.13	11185.42
473.31	11009.88
473.49	10939.66
473.67	10960.73
473.85	11082.44
474.03	11431.18
474.21	11309.47
474.39	11339.90
474.57	11587.99
474.75	11372.66
474.93	11501.39
475.12	11480.33
475.30	11625.44
475.48	11712.04
475.66	11726.08
475.84	11527.14
476.02	11754.17
476.20	11880.56
476.38	11936.73
476.56	12189.51
476.74	12271.43
476.92	11929.71
477.10	12163.76
477.28	12596.76
477.46	12313.56
477.64	12608.47
477.82	12828.48
478.00	13025.08
478.18	12877.63
478.36	12898.69
478.54	13184.24
478.72	13357.44
478.90	13551.70
479.08	13544.68
479.26	13460.42
479.44	13495.53
479.62	13745.97
479.80	13898.10
479.98	13884.06
480.16	13991.72
480.34	14071.30
480.52	14520.68
480.70	14136.84
480.88	13994.06
481.06	14384.93
481.24	14368.55
481.41	14628.35
481.59	14869.42
481.77	14806.23
481.95	15005.17
482.13	15133.90
482.31	15145.61
482.49	15372.64
482.67	15129.22
482.85	15733.08
483.03	15772.87
483.21	15836.06
483.39	15917.98
483.57	15957.77
483.74	15988.20
483.92	16402.47
484.10	15836.06
484.28	16425.88
484.46	16587.38
484.64	16882.28
484.82	16446.94
485.00	16760.58
485.18	17001.65
485.35	17167.83
485.53	16613.12
485.71	16685.68
485.89	16664.61
486.07	16872.92
486.25	16821.43
486.43	17415.93
486.61	17507.21
486.78	17703.81
486.96	17757.64
487.14	18286.61
487.32	18321.71
487.50	18277.24
487.68	18677.48
487.85	19117.50
488.03	18904.51
488.21	19398.36
488.39	18930.25
488.57	19161.97
488.75	19386.66
488.92	19646.46
489.10	19679.22
489.28	20128.61
489.46	20540.54
489.64	20180.10
489.81	20863.54
489.99	20816.72
490.17	20826.09
490.35	21113.97
490.53	21137.38
490.70	20844.81
490.88	21238.02
491.06	21671.02
491.24	21420.58
491.41	21448.67
491.59	21525.91
491.77	21376.11
491.95	21682.72
492.13	22202.32
492.30	22263.18
492.48	22581.49
492.66	22417.65
492.84	22714.90
493.01	22785.12
493.19	23140.88
493.37	23087.04
493.54	22876.40
493.72	23585.58
493.90	23487.28
494.08	23552.81
494.25	23669.84
494.43	23749.42
494.61	24252.63
494.79	24189.44
494.96	23957.72
495.14	24173.05
495.32	24432.85
495.49	24283.06
495.67	24458.60
495.85	24713.72
496.02	25057.78
496.20	25142.03
496.38	25106.93
496.55	24882.24
496.73	25827.81
496.91	25671.00
497.09	25738.87
497.26	26246.77
497.44	25963.56
497.62	26040.80
497.79	26436.35
497.97	25883.98
498.14	26221.02
498.32	26202.30
498.50	26405.92
498.67	26700.83
498.85	26703.17
499.03	27194.68
499.20	26960.63
499.38	26969.99
499.56	27227.45
499.73	27119.79
499.91	27316.39
500.08	27152.55
500.26	27070.64
500.44	27356.18
500.61	27784.50
500.79	27356.18
500.97	28137.92
501.14	28095.79
501.32	27676.83
501.49	27786.84
501.67	27665.13
501.84	28233.88
502.02	28341.55
502.20	28671.56
502.37	28685.61
502.55	28505.38
502.72	28786.25
502.90	28723.05
503.07	28390.70
503.25	29202.86
503.43	28610.71
503.60	28545.17
503.78	28746.46
503.95	28716.03
504.13	29041.37
504.30	29647.57
504.48	29457.98
504.65	29680.33
504.83	30148.44
505.01	29958.86
505.18	30005.67
505.36	30314.62
505.53	30316.96
505.71	30646.97
505.88	30462.07
506.06	29804.38
506.23	30602.50
506.41	30424.62
506.58	30775.70
506.76	30895.07
506.93	30984.01
507.11	30771.02
507.28	30611.87
507.46	30848.26
507.63	30838.90
507.81	31054.23
507.98	31136.15
508.16	31321.05
508.33	31531.70
508.50	31290.62
508.68	31501.27
508.85	31775.11
509.03	31887.46
509.20	31360.84
509.38	31833.63
509.55	31997.46
509.73	32135.56
509.90	32376.63
510.08	32130.87
510.25	32591.96
510.42	32510.04
510.60	32659.84
510.77	32886.87
510.95	32921.98
511.12	32659.84
511.30	32762.82
511.47	33284.76
511.64	33460.30
511.82	33574.98
511.99	33184.12
512.17	33523.49
512.34	33191.14
512.51	33486.04
512.69	33610.09
512.86	33755.21
513.04	33942.45
513.21	33549.24
513.38	33446.26
513.56	33670.95
513.73	33544.56
513.90	34043.09
514.08	33722.44
514.25	33844.15
514.43	33757.55
514.60	34134.37
514.77	34534.60
514.95	34689.08
515.12	34569.71
515.29	34277.15
515.47	35056.54
515.64	34553.33
515.81	34976.97
515.99	34686.74
516.16	34862.28
516.33	34291.19
516.51	34071.18
516.68	33818.40
516.85	33926.07
517.03	34380.13
517.20	34855.26
517.37	35342.09
517.54	35096.33
517.72	35154.85
517.89	34852.92
518.06	34424.60
518.24	34916.11
518.41	34916.11
518.58	35250.81
518.75	35421.67
518.93	35519.97
519.10	35498.91
519.27	36175.32
519.45	35978.72
519.62	36016.16
519.79	36032.55
519.96	35920.20
520.14	36369.58
520.31	36519.38
520.48	36573.21
520.65	36547.47
520.83	36844.71
521.00	36540.44
521.17	37041.32
521.34	37010.89
521.52	36720.66
521.69	37247.29
521.86	37619.43
522.03	37198.13
522.20	37074.09
522.38	36680.88
522.55	37127.92
522.72	37773.91
522.89	37340.91
523.07	37621.77
523.24	37670.92
523.41	37965.83
523.58	37963.49
523.75	38433.94
523.92	38164.78
524.10	38087.54
524.27	38066.47
524.44	38213.93
524.61	38455.00
524.78	38265.42
524.96	38419.89
525.13	39077.58
525.30	38747.57
525.47	38550.96
525.64	38375.42
525.81	38452.66
525.98	38480.75
526.16	38258.40
526.33	38005.62
526.50	38356.70
526.67	37811.35
526.84	38075.84
527.01	38618.84
527.18	38611.82
527.36	38941.83
527.53	39543.35
527.70	39335.04
527.87	39370.15
528.04	39321.00
528.21	39278.87
528.38	39690.80
528.55	39646.33
528.72	39285.89
528.89	39856.98
529.07	39674.42
529.24	39746.98
529.41	39868.69
529.58	39550.37
529.75	39807.83
529.92	39578.46
530.09	40201.04
530.26	39983.37
530.43	40121.46
530.60	40196.36
530.77	40205.72
530.94	40725.32
531.11	40320.41
531.28	40444.46
531.46	40322.75
531.63	40449.14
531.80	40722.98
531.97	40297.00
532.14	40011.46
532.31	39852.30
532.48	39901.45
532.65	40648.08
532.82	40772.13
532.99	40863.41
533.16	40737.02
533.33	40809.58
533.50	40802.56
533.67	41261.30
533.84	40425.73
534.01	41053.00
534.18	41235.56
534.35	41006.19
534.52	41148.96
534.69	41357.27
534.86	41579.62
535.03	41352.58
535.20	41717.71
535.37	42064.11
535.54	41406.42
535.71	41893.25
535.88	41647.49
536.05	41656.85
536.22	41617.07
536.38	41771.54
536.55	41586.64
536.72	41523.44
536.89	40858.73
537.06	41722.39
537.23	42066.45
537.40	41757.50
537.57	41940.06
537.74	41663.88
537.91	41907.29
538.08	41949.42
538.25	42141.35
538.42	41914.31
538.59	42305.18
538.75	42377.74
538.92	41855.80
539.09	42024.32
539.26	42157.73
539.43	42174.11
539.60	42026.66
539.77	42527.53
539.94	42368.38
540.11	42040.70
540.28	42424.55
540.44	42684.35
540.61	42567.32
540.78	42553.28
540.95	41956.44
541.12	41996.23
541.29	42511.15
541.46	42625.84
541.62	42672.65
541.79	42997.98
541.96	42419.87
542.13	42969.90
542.30	42855.21
542.47	43100.97
542.63	43061.18
542.80	43339.70
542.97	43061.18
543.14	43419.28
543.31	43421.62
543.48	43295.23
543.64	43934.20
543.81	43803.13
543.98	44065.27
544.15	43435.66
544.32	43772.70
544.48	44161.23
544.65	43618.22
544.82	43650.99
544.99	44074.63
545.16	43723.55
545.32	43604.18
545.49	44278.25
545.66	44418.69
545.83	43730.57
546.00	44622.31
546.16	43945.90
546.33	43922.49
546.50	43814.83
546.67	44322.72
546.83	44135.48
547.00	44215.06
547.17	43632.27
547.34	43789.08
547.50	44430.39
547.67	44189.31
547.84	44252.51
548.00	44247.83
548.17	44687.85
548.34	44619.97
548.51	45067.02
548.67	44559.12
548.84	44935.95
549.01	44175.27
549.18	44924.24
549.34	44940.63
549.51	44992.12
549.68	44715.93
549.84	45294.05
550.01	44559.12
550.18	45017.86
550.34	44882.11
550.51	45338.52
550.68	44935.95
550.84	44402.30
551.01	44893.82
551.18	45031.91
551.34	44832.96
551.51	44949.99
551.68	45167.66
551.84	45574.91
552.01	45029.57
552.18	44938.29
552.34	44715.93
552.51	45586.61
552.68	45359.58
552.84	45331.50
553.01	45497.67
553.18	45783.22
553.34	45263.62
553.51	45158.30
553.67	45572.57
553.84	45635.77
554.01	45572.57
554.17	45759.81
554.34	45734.07
554.51	45752.79
554.67	45729.39
554.84	45755.13
555.00	45579.59
555.17	45350.22
555.33	45567.89
555.50	45380.65
555.67	45673.21
555.83	45315.11
556.00	45624.06
556.16	45930.67
556.33	45549.17
556.50	45937.69
556.66	45794.92
556.83	45401.71
556.99	46031.32
557.16	45635.77
557.32	45888.54
557.49	45841.73
557.65	45722.37
557.82	45923.65
557.98	46045.36
558.15	45921.31
558.32	46028.98
558.48	45577.25
558.65	45462.57
558.81	45827.69
558.98	46071.10
559.14	46178.77
559.31	45645.13
559.47	46141.32
559.64	46321.54
559.80	46026.63
559.97	46087.49
560.13	46059.40
560.30	46087.49
560.46	45925.99
560.63	46227.92
560.79	46286.43
560.96	46454.95
561.12	46239.62
561.29	46054.72
561.45	46485.38
561.61	46169.41
561.78	46218.56
561.94	45996.21
562.11	46258.35
562.27	46216.22
562.44	46260.69
562.60	46054.72
562.77	46108.55
562.93	46007.91
563.10	46698.37
563.26	46199.83
563.42	46518.15
563.59	46131.96
563.75	45909.61
563.92	46354.31
564.08	46440.91
564.24	46417.50
564.41	46672.62
564.57	46127.28
564.74	46328.56
564.90	46410.48
565.07	46689.01
565.23	46436.23
565.39	46176.43
565.56	46564.96
565.72	45961.10
565.88	46417.50
566.05	46302.82
566.21	46129.62
566.38	46506.44
566.54	46197.49
566.70	46810.71
566.87	47028.38
567.03	46644.54
567.19	47271.80
567.36	46651.56
567.52	46274.73
567.68	46401.12
567.85	46813.05
568.01	46698.37
568.17	46487.72
568.34	46520.49
568.50	46850.50
568.66	46611.77
568.83	46672.62
568.99	46478.36
569.15	46651.56
569.32	46548.57
569.48	46485.38
569.64	46689.01
569.81	46707.73
569.97	46541.55
570.13	46382.40
570.30	46361.33
570.46	46181.11
570.62	46017.27
570.78	46358.99
570.95	46438.57
571.11	46710.07
571.27	46679.64
571.43	46279.41
571.60	46653.90
571.76	46974.55
571.92	46445.59
572.09	46691.35
572.25	46696.03
572.41	46621.13
572.57	46820.08
572.74	46829.44
572.90	46934.76
573.06	47126.69
573.22	46719.43
573.38	46639.86
573.55	46361.33
573.71	47178.18
573.87	46852.84
574.03	46394.10
574.20	46953.49
574.36	47016.68
574.52	46689.01
574.68	47166.48
574.84	46534.53
575.01	46625.81
575.17	46855.18
575.33	46799.01
575.49	46784.97
575.65	47002.64
575.82	47138.39
575.98	46700.71
576.14	46829.44
576.30	47124.35
576.46	46850.50
576.62	46962.85
576.79	46553.26
576.95	46752.20
577.11	46604.75
577.27	47054.13
577.43	46869.23
577.59	46567.30
577.75	46550.91
577.92	46263.03
578.08	46597.73
578.24	46789.65
578.40	46969.87
578.56	46983.91
578.72	46777.95
578.88	47168.82
579.04	46986.25
579.21	46656.24
579.37	46712.41
579.53	46761.56
579.69	46799.01
579.85	46667.94
580.01	46974.55
580.17	46855.18
580.33	46855.18
580.49	47030.72
580.65	46883.27
580.82	46969.87
580.98	46443.25
581.14	47058.81
581.30	47098.60
581.46	46487.72
581.62	46579.00
581.78	46759.22
581.94	47349.04
582.10	46665.60
582.26	47459.04
582.42	46681.98
582.58	47215.63
582.74	46827.10
582.90	47217.97
583.06	47019.02
583.22	46766.24
583.38	47056.47
583.54	46909.02
583.70	47363.08
583.86	47091.58
584.02	46836.46
584.18	47063.49
584.34	46990.94
584.50	46932.42
584.66	46857.52
584.82	46955.83
584.98	47173.50
585.14	46698.37
585.30	46684.33
585.46	46564.96
585.62	46499.42
585.78	46862.21
585.94	46113.23
586.10	46614.11
586.26	46902.00
586.42	47274.14
586.58	47192.22
586.74	47012.00
586.90	46796.67
587.06	46946.47
587.22	46904.34
587.38	46560.28
587.54	47222.65
587.70	46728.80
587.86	47171.16
588.02	46775.61
588.18	46693.69
588.34	46602.41
588.49	46253.67
588.65	46007.91
588.81	45963.44
588.97	46436.23
589.13	46499.42
589.29	46424.53
589.45	46398.78
589.61	46597.73
589.77	47007.32
589.93	46756.88
590.08	47393.51
590.24	46873.91
590.40	47047.11
590.56	47140.73
590.72	46986.25
590.88	46485.38
591.04	46969.87
591.20	47356.06
591.35	46799.01
591.51	47662.67
591.67	47105.62
591.83	47117.32
591.99	46391.76
592.15	47185.20
592.31	47299.89
592.46	47351.38
592.62	47033.07
592.78	46969.87
592.94	47084.56
593.10	47264.78
593.26	47374.78
593.41	46899.65
593.57	46836.46
593.73	46635.17
593.89	46628.15
594.05	46944.12
594.20	46712.41
594.36	47290.52
594.52	46892.63
594.68	46897.31
594.84	47063.49
594.99	47409.89
595.15	46972.21
595.31	47253.08
595.47	47192.22
595.62	46969.87
595.78	46937.10
595.94	47189.88
596.10	47412.23
596.25	47166.48
596.41	46569.64
596.57	47124.35
596.73	47175.84
596.88	46293.46
597.04	47250.74
597.20	46878.59
597.36	47004.98
597.51	47098.60
597.67	47016.68
597.83	47026.04
597.99	47208.61
598.14	47164.14
598.30	46976.89
598.46	46920.72
598.61	47201.58
598.77	47159.45
598.93	46787.31
599.09	47248.39
599.24	47463.72
599.40	47075.19
599.56	47217.97
599.71	46986.25
599.87	47056.47
600.03	47117.32
600.18	46934.76
600.34	47236.69
600.50	47016.68
600.65	47051.79
600.81	47072.85
600.97	47269.46
601.12	47302.23
601.28	47150.09
601.44	46906.68
601.59	46995.62
601.75	46705.39
601.91	46913.70
602.06	46801.35
602.22	46714.75
602.37	46897.31
602.53	46885.61
602.69	47538.62
602.84	46789.65
603.00	47239.03
603.16	47159.45
603.31	46878.59
603.47	47276.48
603.62	46976.89
603.78	46894.97
603.94	47082.22
604.09	47208.61
604.25	47201.58
604.40	46857.52
604.56	46880.93
604.71	47309.25
604.87	46944.12
605.03	46794.33
605.18	46557.94
605.34	46653.90
605.49	46663.26
605.65	47232.01
605.80	46747.52
605.96	47047.11
606.12	46918.38
606.27	47166.48
606.43	46794.33
606.58	46948.81
606.74	46850.50
606.89	46639.86
607.05	46501.76
607.20	46571.98
607.36	46499.42
607.51	47320.95
607.67	46864.55
607.82	46799.01
607.98	46808.37
608.13	46562.62
608.29	46429.21
608.44	46408.14
608.60	46199.83
608.75	46309.84
608.91	46646.88
609.06	46754.54
609.22	46843.48
609.37	46263.03
609.53	46557.94
609.68	46351.97
609.84	46511.13
609.99	46487.72
610.15	46307.50
610.30	46136.64
610.46	46293.46
610.61	46197.49
610.76	46632.83
610.92	46405.80
611.07	46597.73
611.23	46485.38
611.38	46267.71
611.54	46309.84
611.69	46412.82
611.84	45769.18
612.00	46309.84
612.15	46017.27
612.31	45991.53
612.46	46199.83
612.62	46403.46
612.77	46127.28
612.92	46174.09
613.08	45914.29
613.23	46211.54
613.39	46155.36
613.54	45490.65
613.69	45668.53
613.85	45226.17
614.00	45759.81
614.15	46059.40
614.31	45701.30
614.46	45963.44
614.62	46068.76
614.77	45897.91
614.92	46017.27
615.08	45230.85
615.23	45422.78
615.38	45565.55
615.54	45502.35
615.69	45883.86
615.84	45687.26
616.00	45855.78
616.15	45478.95
616.30	45947.06
616.46	45319.79
616.61	45090.42
616.76	45249.58
616.92	44938.29
617.07	45177.02
617.22	44980.42
617.37	45104.46
617.53	45649.81
617.68	45530.44
617.83	45471.93
617.99	45207.45
618.14	45029.57
618.29	45195.74
618.45	44973.39
618.60	44870.41
618.75	44900.84
618.90	45326.81
619.06	45420.44
619.21	44926.58
619.36	45317.45
619.51	44676.15
619.67	45116.17
619.82	45123.19
619.97	45048.29
620.12	44573.16
620.28	44233.78
620.43	44626.99
620.58	44964.03
620.73	44877.43
620.89	45099.78
621.04	44886.79
621.19	44538.05
621.34	45027.23
621.49	44828.28
621.65	44247.83
621.80	44996.80
621.95	44928.92
622.10	44795.51
622.25	44456.14
622.41	44215.06
622.56	43971.64
622.71	45148.93
622.86	44678.49
623.01	44472.52
623.16	43896.75
623.32	44332.09
623.47	44278.25
623.62	44472.52
623.77	44442.09
623.92	44278.25
624.07	44320.38
624.23	43880.36
624.38	43880.36
624.53	44016.11
624.68	44144.84
624.83	44397.62
624.98	43662.69
625.13	43758.66
625.29	43814.83
625.44	43505.88
625.59	43711.84
625.74	43765.68
625.89	43365.45
626.04	43746.95
626.19	43697.80
626.34	43718.87
626.49	43971.64
626.65	43744.61
626.80	44018.46
626.95	43543.33
627.10	43571.41
627.25	43248.42
627.40	43480.13
627.55	43157.14
627.70	43129.05
627.85	43283.53
628.00	43119.69
628.15	43571.41
628.30	43576.09
628.45	43409.92
628.60	43257.78
628.76	43508.22
628.91	43140.75
629.06	42986.28
629.21	42892.66
629.36	42974.58
629.51	42677.33
629.66	42981.60
629.81	43054.15
629.96	43313.95
630.11	43049.47
630.26	43409.92
630.41	43217.99
630.56	43054.15
630.71	42890.32
630.86	42518.17
631.01	42464.34
631.16	42536.90
631.31	42827.12
631.46	42363.70
631.61	42710.10
631.76	42822.44
631.91	42632.86
632.06	42824.78
632.21	42368.38
632.36	42799.04
632.51	42298.16
632.66	42911.38
632.81	42293.48
632.96	42281.78
633.10	42476.04
633.25	42476.04
633.40	42815.42
633.55	42241.99
633.70	42415.19
633.85	42342.63
634.00	42782.65
634.15	42199.86
634.30	42092.19
634.45	42270.08
634.60	42176.45
634.75	42581.37
634.90	42068.79
635.05	42258.37
635.19	42265.39
635.34	42333.27
635.49	42124.96
635.64	42281.78
635.79	42007.94
635.94	41741.11
636.09	42012.62
636.24	41968.15
636.39	41668.56
636.53	41598.34
636.68	41701.32
636.83	41598.34
636.98	41911.97
637.13	41085.76
637.28	41792.61
637.43	42300.50
637.57	41848.78
637.72	41682.60
637.87	41783.24
638.02	41415.78
638.17	41888.57
638.32	41354.93
638.46	41486.00
638.61	41572.60
638.76	41792.61
638.91	41621.75
639.06	41137.26
639.20	41818.35
639.35	41429.82
639.50	41345.56
639.65	41223.86
639.80	41322.16
639.94	40825.96
640.09	41167.68
640.24	40854.05
640.39	41088.10
640.54	41067.04
640.68	41331.52
640.83	41287.05
640.98	40938.31
641.13	40730.00
641.27	40732.34
641.42	41097.47
641.57	40769.79
641.72	40959.38
641.86	41024.91
642.01	40507.65
642.16	40575.53
642.31	39983.37
642.45	40807.24
642.60	40594.25
642.75	40533.40
642.90	40608.29
643.04	40502.97
643.19	40872.78
643.34	40568.51
643.48	40711.28
643.63	40711.28
643.78	40425.73
643.93	40542.76
644.07	40584.89
644.22	40266.58
644.37	40362.54
644.51	40727.66
644.66	40376.58
644.81	40610.64
644.95	40790.86
645.10	40502.97
645.25	40573.19
645.39	39945.92
645.54	40261.90
645.69	40123.80
645.83	40074.65
645.98	39924.86
646.13	39985.71
646.27	40474.88
646.42	40179.98
646.57	40208.06
646.71	39966.99
646.86	39524.63
647.00	40039.54
647.15	39852.30
647.30	39723.57
647.44	39681.44
647.59	39709.53
647.74	39927.20
647.88	39690.80
648.03	39484.84
648.17	39819.53
648.32	39793.79
648.47	39445.05
648.61	39658.04
648.76	39756.34
648.90	39765.70
649.05	39482.50
649.20	39515.26
649.34	39580.80
649.49	39140.78
649.63	39110.35
649.78	39770.38
649.92	39428.66
650.07	39690.80
650.21	39246.10
650.36	39267.17
650.51	39342.06
650.65	39910.82
650.80	39744.64
650.94	39924.86
651.09	39098.65
651.23	39014.39
651.38	38906.73
651.52	39033.11
651.67	38864.60
651.81	38969.92
651.96	38604.80
652.10	38965.24
652.25	39014.39
652.39	38913.75
652.54	38876.30
652.68	38892.68
652.83	39222.70
652.97	39225.04
653.12	38719.48
653.26	38808.42
653.41	38644.59
653.55	38419.89
653.70	38866.94
653.84	38557.99
653.99	38611.82
654.13	38199.88
654.27	38532.24
654.42	38181.16
654.56	38319.25
654.71	38312.23
654.85	38394.15
655.00	38686.71
655.14	38433.94
655.29	38270.10
655.43	38071.15
655.57	38132.01
655.72	37806.67
655.86	37736.46
656.01	37783.27
656.15	37350.27
656.30	37830.08
656.44	37460.27
656.58	38031.36
656.73	37689.65
656.87	37991.58
657.01	38047.75
657.16	37825.40
657.30	37415.80
657.45	37811.35
657.59	37865.19
657.73	37748.16
657.88	38010.30
658.02	37977.53
658.16	38169.46
658.31	38103.92
658.45	38036.05
658.60	37689.65
658.74	38312.23
658.88	37675.60
659.03	37638.15
659.17	37195.79
659.31	37221.54
659.46	37153.66
659.60	37694.33
659.74	37507.08
659.89	37137.28
660.03	37141.96
660.17	37170.05
660.32	36982.80
660.46	37570.28
660.60	37099.83
660.74	37022.59
660.89	36844.71
661.03	36940.68
661.17	37062.38
661.32	37031.96
661.46	36727.69
661.60	36573.21
661.74	36467.89
661.89	37097.49
662.03	36882.16
662.17	36746.41
662.31	36631.72
662.46	36622.36
662.60	37031.96
662.74	36582.57
662.88	36383.63
663.03	36243.20
663.17	36294.69
663.31	36170.64
663.45	36039.57
663.60	36201.07
663.74	36266.60
663.88	35967.01
664.02	35894.46
664.17	36030.21
664.31	35889.77
664.45	35419.33
664.59	35557.42
664.73	35835.94
664.88	35758.70
665.02	35222.72
665.16	35763.39
665.30	35316.34
665.44	35246.13
665.59	35311.66
665.73	35136.12
665.87	35026.12
666.01	35388.90
666.15	35747.00
666.29	35445.07
666.44	35239.11
666.58	35044.84
666.72	35101.01
666.86	34850.58
667.00	35105.70
667.14	34810.79
667.28	34602.48
667.43	34440.98
667.57	35009.73
667.71	35028.46
667.85	34487.79
667.99	34543.97
668.13	34677.38
668.27	34728.87
668.41	34782.70
668.56	34309.91
668.70	34361.40
668.84	33993.94
668.98	33848.83
669.12	33944.79
669.26	33912.02
669.40	33799.68
669.54	33504.77
669.68	33757.55
669.82	33584.35
669.96	33195.82
670.10	33411.15
670.25	33340.93
670.39	33233.27
670.53	32882.19
670.67	33577.33
670.81	33261.35
670.95	33453.28
671.09	33266.03
671.23	33113.90
671.37	33408.81
671.51	32755.80
671.65	32652.81
671.79	32620.05
671.93	32769.84
672.07	33057.73
672.21	32826.01
672.35	32678.56
672.49	32961.76
672.63	32477.27
672.77	32877.51
672.91	32561.53
673.05	32390.67
673.19	32297.05
673.33	32074.70
673.47	31725.96
673.61	32070.02
673.75	31637.02
673.89	31707.24
674.03	31695.53
674.17	31751.71
674.31	31826.60
674.45	31644.04
674.59	31604.25
674.73	31826.60
674.87	31842.99
675.01	30930.18
675.15	31220.41
675.29	30824.86
675.43	31342.11
675.56	31171.25
675.70	31199.34
675.84	30778.04
675.98	30082.91
676.12	30529.95
676.26	30635.27
676.40	30749.96
676.54	30995.71
676.68	30726.55
676.82	30216.32
676.96	30391.86
677.10	30389.52
677.23	30246.74
677.37	29872.26
677.51	30160.14
677.65	29954.18
677.79	29450.96
677.93	29472.03
678.07	29425.22
678.21	29205.20
678.34	29560.97
678.48	29024.98
678.62	29284.78
678.76	28823.70
678.90	28917.32
679.04	28666.88
679.18	29015.62
679.31	28709.01
679.45	28364.95
679.59	28175.37
679.73	28350.91
679.87	28379.00
680.00	28229.20
680.14	28168.35
680.28	28095.79
680.42	28151.96
680.56	27995.15
680.70	27974.08
680.83	28149.62
680.97	27747.05
681.11	28027.92
681.25	27613.64
681.39	27672.15
681.52	27641.73
681.66	27314.05
681.80	27178.30
681.94	27405.33
682.07	26969.99
682.21	26630.62
682.35	27304.69
682.49	26764.03
682.62	26785.09
682.76	26345.07
682.90	26579.12
683.04	26639.98
683.17	26668.06
683.31	26031.44
683.45	26143.78
683.59	25935.48
683.72	26106.34
683.86	25605.46
684.00	26288.90
684.13	25687.38
684.27	25722.49
684.41	25507.16
684.55	25586.74
684.68	25572.69
684.82	25411.20
684.96	25277.79
685.09	25518.86
685.23	24994.58
685.37	24973.52
685.50	25060.12
685.64	24966.49
685.78	24926.71
685.91	24837.76
686.05	24173.05
686.19	24311.14
686.32	24376.68
686.46	24044.32
686.60	23466.21
686.73	23552.81
686.87	23662.82
687.01	23096.41
687.14	23227.48
687.28	23702.61
687.42	23501.32
687.55	23044.91
687.69	23192.37
687.82	23274.29
687.96	23229.82
688.10	23080.02
688.23	22813.20
688.37	23026.19
688.50	22939.59
688.64	22953.63
688.78	22647.02
688.91	22623.62
689.05	22321.69
689.18	22520.63
689.32	22141.47
689.46	22466.80
689.59	22487.87
689.73	22590.85
689.86	22373.18
690.00	22005.72
690.13	21823.16
690.27	21741.24
690.41	21415.90
690.54	21696.77
690.68	21376.11
690.81	21549.31
690.95	21465.05
691.08	21453.35
691.22	21268.45
691.35	21223.98
691.49	21088.23
691.62	21221.64
691.76	21228.66
691.89	21090.57
692.03	20706.72
692.16	21020.35
692.30	20875.24
692.43	20695.02
692.57	20414.15
692.70	20269.04
692.84	20088.82
692.97	20191.80
693.11	20067.75
693.24	19733.06
693.38	20032.65
693.51	19693.27
693.65	20004.56
693.78	19915.62
693.92	19620.71
694.05	19910.94
694.19	19566.88
694.32	19688.59
694.45	19351.55
694.59	19323.46
694.72	19152.60
694.86	18925.57
694.99	18801.52
695.13	19021.53
695.26	18853.02
695.39	18918.55
695.53	18958.34
695.66	18740.67
695.80	18913.87
695.93	18579.17
696.07	18562.79
696.20	18668.11
696.33	18537.04
696.47	18349.80
696.60	18148.51
696.73	18181.28
696.87	18157.88
697.00	17802.11
697.14	17825.52
697.27	17841.90
697.40	17818.50
697.54	17642.96
697.67	17245.07
697.80	17563.38
697.94	17280.18
698.07	17324.65
698.21	17282.52
698.34	17174.85
698.47	16980.59
698.61	16844.84
698.74	16671.64
698.87	16765.26
699.01	16889.31
699.14	16362.69
699.27	16259.70
699.40	16575.67
699.54	16688.02
699.67	16180.12
699.80	16512.48
699.94	16056.08
700.07	16269.06
700.20	16184.80
700.34	16313.53
700.47	16210.55
700.60	16456.31
700.73	16219.91
700.87	16163.74
701.00	15712.02
701.13	15768.19
701.26	15506.05
701.40	15770.53
701.53	15431.15
701.66	15407.75
701.79	15084.75
701.93	15075.39
702.06	15009.86
702.19	15105.82
702.32	14846.02
702.46	14984.11
702.59	14885.81
702.72	15082.41
702.85	14902.19
702.99	14843.68
703.12	14794.53
703.25	14604.94
703.38	14593.24
703.51	14415.36
703.65	14438.76
703.78	14450.47
703.91	14045.55
704.04	14251.52
704.17	14232.80
704.31	14237.48
704.44	14052.58
704.57	14038.53
704.70	13729.58
704.83	14066.62
704.96	13907.46
705.10	13776.39
705.23	13795.12
>>>>>End Processed Spectral Data<<<<<
