SpectraSuite Data File
++++++++++++++++++++++++++++++++++++
Date: Fri Oct 25 10:48:18 EDT 2013
User: price-jones
Dark Spectrum Present: No
Reference Spectrum Present: No
Number of Sampled Component Spectra: 1
Spectrometers: USB2+H05261
Integration Time (usec): 100000 (USB2+H05261)
Spectra Averaged: 1 (USB2+H05261)
Boxcar Smoothing: 0 (USB2+H05261)
Correct for Electrical Dark: No (USB2+H05261)
Strobe/Lamp Enabled: No (USB2+H05261)
Correct for Detector Non-linearity: No (USB2+H05261)
Correct for Stray Light: No (USB2+H05261)
Number of Pixels in Processed Spectrum: 2048
>>>>>Begin Processed Spectral Data<<<<<
365.73	81.92
365.92	81.92
366.12	81.92
366.32	39.79
366.52	4.68
366.72	56.17
366.91	81.92
367.11	65.54
367.31	37.45
367.51	46.81
367.70	16.38
367.90	67.88
368.10	30.43
368.30	79.58
368.49	21.06
368.69	114.69
368.89	49.15
369.09	65.54
369.28	140.43
369.48	35.11
369.68	95.96
369.87	142.77
370.07	110.01
370.27	140.43
370.47	220.01
370.66	425.98
370.86	491.51
371.06	484.49
371.25	484.49
371.45	397.89
371.65	528.96
371.84	477.47
372.04	484.49
372.24	491.51
372.44	566.41
372.63	531.30
372.83	538.32
373.03	517.26
373.22	524.28
373.42	575.77
373.62	580.45
373.81	538.32
374.01	624.92
374.21	528.96
374.40	596.84
374.60	585.13
374.79	575.77
374.99	514.92
375.19	566.41
375.38	540.66
375.58	688.12
375.78	617.90
375.97	610.88
376.17	603.86
376.37	641.31
376.56	638.97
376.76	645.99
376.95	650.67
377.15	716.20
377.35	772.38
377.54	685.78
377.74	617.90
377.93	697.48
378.13	711.52
378.33	716.20
378.52	725.57
378.72	802.80
378.91	828.55
379.11	720.88
379.31	709.18
379.50	681.10
379.70	765.36
379.89	720.88
380.09	748.97
380.28	763.01
380.48	777.06
380.68	763.01
380.87	781.74
381.07	774.72
381.26	798.12
381.46	744.29
381.65	763.01
381.85	671.73
382.04	702.16
382.24	676.41
382.43	720.88
382.63	734.93
382.83	791.10
383.02	746.63
383.22	847.27
383.41	753.65
383.61	746.63
383.80	891.74
384.00	786.42
384.19	882.38
384.39	873.02
384.58	805.14
384.78	938.55
384.97	737.27
385.17	856.64
385.36	814.51
385.56	851.96
385.75	812.17
385.95	830.89
386.14	926.85
386.34	840.25
386.53	901.11
386.72	884.72
386.92	889.40
387.11	919.83
387.31	1060.26
387.50	873.02
387.70	926.85
387.89	938.55
388.09	863.66
388.28	1001.75
388.48	997.07
388.67	980.68
388.86	919.83
389.06	1048.56
389.25	1032.18
389.45	1067.28
389.64	1076.65
389.84	1093.03
390.03	1041.54
390.22	1046.22
390.42	1111.75
390.61	994.73
390.81	1008.77
391.00	1048.56
391.19	1149.20
391.39	1022.81
391.58	1144.52
391.78	1043.88
391.97	1107.07
392.16	1025.15
392.36	1125.80
392.55	1081.33
392.75	1039.20
392.94	983.02
393.13	1001.75
393.33	1039.20
393.52	1163.25
393.71	1165.59
393.91	1139.84
394.10	1172.61
394.29	1090.69
394.49	1151.54
394.68	1308.36
394.88	1263.89
395.07	1303.68
395.26	1350.49
395.46	1268.57
395.65	1284.95
395.84	1322.40
396.04	1296.66
396.23	1242.82
396.42	1167.93
396.62	1210.06
396.81	1259.21
397.00	1294.32
397.19	1320.06
397.39	1341.13
397.58	1387.94
397.77	1404.32
397.97	1526.03
398.16	1593.90
398.35	1451.13
398.55	1582.20
398.74	1528.37
398.93	1577.52
399.12	1593.90
399.32	1514.33
399.51	1643.06
399.70	1600.93
399.90	1558.80
400.09	1624.33
400.28	1713.27
400.47	1640.72
400.67	1685.19
400.86	1715.61
401.05	1661.78
401.24	1736.68
401.44	1884.13
401.63	1729.66
401.82	1792.85
402.01	1895.83
402.21	1806.89
402.40	1790.51
402.59	1811.57
402.78	1830.30
402.97	1783.49
403.17	1975.41
403.36	1893.49
403.55	1865.41
403.74	1811.57
403.93	1998.82
404.13	1930.94
404.32	2001.16
404.51	1977.75
404.70	2092.44
404.89	1942.64
405.09	2026.90
405.28	2064.35
405.47	2083.08
405.66	2036.27
405.85	1982.43
406.05	1991.80
406.24	1874.77
406.43	2148.61
406.62	2188.40
406.81	2249.25
407.00	2246.91
407.20	2108.82
407.39	2120.53
407.58	2186.06
407.77	2218.83
407.96	2237.55
408.15	2363.94
408.34	2326.49
408.54	2406.07
408.73	2335.85
408.92	2349.90
409.11	2420.11
409.30	2347.56
409.49	2352.24
409.68	2380.32
409.87	2321.81
410.07	2492.67
410.26	2422.45
410.45	2546.50
410.64	2469.27
410.83	2605.02
411.02	2679.91
411.21	2616.72
411.40	2532.46
411.59	2644.81
411.78	2628.42
411.98	2738.43
412.17	2693.96
412.36	2848.43
412.55	2906.95
412.74	2920.99
412.93	2876.52
413.12	2860.13
413.31	2974.82
413.50	2932.69
413.69	3033.33
413.88	3030.99
414.07	3068.44
414.26	3077.80
414.45	3091.85
414.64	3045.04
414.83	3005.25
415.02	3070.78
415.22	3150.36
415.41	3316.54
415.60	3344.63
415.79	3353.99
415.98	3431.23
416.17	3311.86
416.36	3274.41
416.55	3349.31
416.74	3410.16
416.93	3286.11
417.12	3499.10
417.31	3447.61
417.50	3433.57
417.69	3712.09
417.88	3466.33
418.07	3637.19
418.26	3700.39
418.45	3541.23
418.64	3721.45
418.83	3653.58
419.02	3609.11
419.21	3632.51
419.39	3527.19
419.58	3599.74
419.77	3627.83
419.96	3721.45
420.15	3770.60
420.34	3887.63
420.53	3843.16
420.72	3932.10
420.91	3976.57
421.10	3899.33
421.29	3983.59
421.48	3955.51
421.67	3878.27
421.86	3950.82
422.05	3866.56
422.24	3864.22
422.43	3882.95
422.61	3981.25
422.80	4098.28
422.99	3978.91
423.18	4016.36
423.37	4074.87
423.56	4091.26
423.75	4016.36
423.94	4105.30
424.13	3892.31
424.32	3908.69
424.50	4187.22
424.69	4273.82
424.88	4081.89
425.07	4095.94
425.26	3999.98
425.45	4114.66
425.64	4035.08
425.83	4147.43
426.01	4306.59
426.20	4147.43
426.39	4217.65
426.58	4210.62
426.77	4318.29
426.96	4051.47
427.15	4021.04
427.33	4248.07
427.52	4102.96
427.71	4217.65
427.90	4126.36
428.09	4262.12
428.28	4351.06
428.46	4248.07
428.65	4262.12
428.84	4393.19
429.03	4442.34
429.22	4201.26
429.40	4285.52
429.59	4177.86
429.78	3932.10
429.97	4126.36
430.16	4021.04
430.34	4297.22
430.53	4313.61
430.72	4222.33
430.91	4369.78
431.10	4451.70
431.28	4571.07
431.47	4865.97
431.66	4720.86
431.85	4606.17
432.03	4660.01
432.22	4877.68
432.41	4718.52
432.60	5036.83
432.79	4880.02
432.97	4800.44
433.16	4798.10
433.35	4971.30
433.54	4987.68
433.72	4912.78
433.91	4922.15
434.10	4957.25
434.28	4922.15
434.47	5085.98
434.66	5027.47
434.85	5041.51
435.03	5135.14
435.22	5027.47
435.41	5345.78
435.59	5352.81
435.78	5268.55
435.97	5294.29
436.16	5284.93
436.34	5249.82
436.53	5392.59
436.72	5516.64
436.90	5273.23
437.09	5366.85
437.28	5343.44
437.46	5336.42
437.65	5350.46
437.84	5270.89
438.02	5282.59
438.21	5233.44
438.40	5207.69
438.58	5465.15
438.77	5577.50
438.96	5575.16
439.14	5633.67
439.33	5797.51
439.52	5846.66
439.70	5916.87
439.89	5881.77
440.08	5973.05
440.26	5944.96
440.45	5940.28
440.63	5898.15
440.82	6141.57
441.01	6150.93
441.19	6253.91
441.38	6291.36
441.57	6200.08
441.75	6122.84
441.94	6413.07
442.12	6485.62
442.31	6518.39
442.50	6368.60
442.68	6621.38
442.87	6434.13
443.05	6520.73
443.24	6726.70
443.43	6602.65
443.61	6736.06
443.80	6953.73
443.98	6546.48
444.17	6544.14
444.35	6726.70
444.54	6745.42
444.73	6677.55
444.91	6759.47
445.10	6487.96
445.28	6607.33
445.47	6661.16
445.65	6576.91
445.84	6799.26
446.02	6876.49
446.21	6775.85
446.39	6679.89
446.58	7000.54
446.77	6843.73
446.95	6780.53
447.14	6993.52
447.32	7117.57
447.51	6925.65
447.69	6754.79
447.88	6862.45
448.06	6869.47
448.25	6942.03
448.43	6883.52
448.62	7037.99
448.80	6878.83
448.99	6974.80
449.17	7052.03
449.36	7077.78
449.54	7255.66
449.73	7173.74
449.91	7360.98
450.10	7304.81
450.28	7463.97
450.46	7316.51
450.65	7632.49
450.83	7396.09
451.02	7286.09
451.20	7492.05
451.39	7407.80
451.57	7307.15
451.76	7496.74
451.94	7564.61
452.13	7419.50
452.31	7562.27
452.49	7222.89
452.68	7536.52
452.86	7389.07
453.05	7445.24
453.23	7585.68
453.42	7735.47
453.60	7522.48
453.78	7815.05
453.97	7559.93
454.15	7665.25
454.34	7562.27
454.52	7686.32
454.70	7817.39
454.89	7564.61
455.07	7929.74
455.26	7812.71
455.44	8039.74
455.62	7859.52
455.81	8252.73
455.99	8170.81
456.17	8264.43
456.36	8023.36
456.54	8262.09
456.73	8257.41
456.91	8299.54
457.09	8252.73
457.28	8465.72
457.46	8194.22
457.64	8521.89
457.83	8341.67
458.01	8334.65
458.19	8678.71
458.38	8414.23
458.56	8664.66
458.74	8711.47
458.93	8463.38
459.11	8554.66
459.29	8533.59
459.48	8510.19
459.66	8491.46
459.84	8578.06
460.03	8837.86
460.21	8858.93
460.39	8767.65
460.57	8814.46
460.76	8842.54
460.94	8954.89
461.12	8964.25
461.31	8877.65
461.49	8905.74
461.67	8833.18
461.85	9156.18
462.04	8950.21
462.22	9423.00
462.40	9252.14
462.59	9071.92
462.77	9020.42
462.95	9100.00
463.13	9205.33
463.32	9177.24
463.50	9238.09
463.68	9432.36
463.86	9268.52
464.05	9163.20
464.23	9053.19
464.41	9418.32
464.59	9071.92
464.78	9465.13
464.96	9500.23
465.14	9247.46
465.32	9572.79
465.50	9811.53
465.69	9502.58
465.87	9439.38
466.05	9558.75
466.23	9472.15
466.41	9289.59
466.60	9848.97
466.78	9481.51
466.96	9603.22
467.14	9638.33
467.32	9717.90
467.51	9626.62
467.69	9497.89
467.87	9755.35
468.05	10061.96
468.23	9839.61
468.41	9937.91
468.60	9760.03
468.78	10026.86
468.96	9919.19
469.14	9699.18
469.32	10029.20
469.50	9757.69
469.69	10244.52
469.87	10148.56
470.05	10120.48
470.23	10115.80
470.41	10305.38
470.59	10373.25
470.77	10015.15
470.95	10506.66
471.14	10452.83
471.32	10335.81
471.50	10527.73
471.68	10729.02
471.86	10588.58
472.04	10771.15
472.22	10738.38
472.40	10576.88
472.58	10569.86
472.77	10757.10
472.95	10888.17
473.13	11176.06
473.31	10541.77
473.49	10892.85
473.67	11124.57
473.85	10927.96
474.03	11300.11
474.21	11183.08
474.39	11421.81
474.57	11304.79
474.75	11236.91
474.93	11473.31
475.12	11255.64
475.30	11590.33
475.48	11611.40
475.66	11534.16
475.84	11747.15
476.02	11712.04
476.20	11861.84
476.38	11967.16
476.56	12060.78
476.74	12156.74
476.92	12196.53
477.10	12226.96
477.28	12411.86
477.46	12435.27
477.64	12779.32
477.82	12868.27
478.00	12933.80
478.18	12816.77
478.36	12882.31
478.54	12861.24
478.72	13191.26
478.90	13193.60
479.08	13425.31
479.26	13720.22
479.44	13788.10
479.62	13628.94
479.80	13607.87
479.98	13874.70
480.16	14012.79
480.34	13926.19
480.52	14216.41
480.70	14242.16
480.88	14111.09
481.06	14506.64
481.24	14471.53
481.41	14464.51
481.59	14991.13
481.77	14773.46
481.95	14724.31
482.13	14967.73
482.31	15026.24
482.49	15166.67
482.67	14944.32
482.85	15618.39
483.03	15473.28
483.21	15829.04
483.39	15859.47
483.57	16077.14
483.74	16060.76
483.92	16065.44
484.10	16285.45
484.28	16444.60
484.46	16594.40
484.64	16812.07
484.82	16180.12
485.00	16709.08
485.18	16791.00
485.35	16938.46
485.53	16673.98
485.71	16442.26
485.89	16901.01
486.07	16919.73
486.25	17188.89
486.43	17179.53
486.61	17453.37
486.78	17797.43
486.96	18038.51
487.14	18052.55
487.32	18059.57
487.50	18445.76
487.68	18656.41
487.85	18960.68
488.03	18904.51
488.21	18958.34
488.39	19110.47
488.57	19246.23
488.75	19506.02
488.92	19800.93
489.10	19992.86
489.28	20042.01
489.46	20215.21
489.64	20294.79
489.81	20798.00
489.99	20467.98
490.17	20849.49
490.35	21212.28
490.53	20816.72
490.70	21319.94
490.88	21539.95
491.06	21652.30
491.24	21120.99
491.41	21483.78
491.59	21476.76
491.77	21565.70
491.95	21582.08
492.13	22071.25
492.30	21996.35
492.48	22157.85
492.66	22469.14
492.84	22445.74
493.01	22682.13
493.19	22595.53
493.37	22930.23
493.54	22965.34
493.72	23154.92
493.90	22984.06
494.08	23585.58
494.25	23592.60
494.43	23765.80
494.61	23894.53
494.79	24034.96
494.96	23852.40
495.14	24339.23
495.32	24304.12
495.49	24311.14
495.67	24762.87
495.85	24945.43
496.02	24896.28
496.20	25149.06
496.38	25350.34
496.55	25188.85
496.73	25736.53
496.91	24999.26
497.09	25535.24
497.26	25617.16
497.44	25476.73
497.62	25584.40
497.79	25914.41
497.97	25846.54
498.14	25926.11
498.32	26265.49
498.50	26459.76
498.67	26682.11
498.85	26614.23
499.03	26700.83
499.20	26867.01
499.38	27054.25
499.56	27124.47
499.73	27360.86
499.91	27243.84
500.08	27166.60
500.26	26897.44
500.44	27440.44
500.61	27564.49
500.79	27311.71
500.97	27725.99
501.14	28072.39
501.32	28034.94
501.49	27875.78
501.67	27578.53
501.84	28460.91
502.02	28376.66
502.20	28201.11
502.37	28840.08
502.55	28404.74
502.72	28517.09
502.90	28606.03
503.07	28713.69
503.25	28943.06
503.43	28982.85
503.60	28762.84
503.78	29120.95
503.95	28872.85
504.13	29472.03
504.30	29390.11
504.48	29181.80
504.65	29773.95
504.83	29764.59
505.01	30047.80
505.18	30054.82
505.36	30520.59
505.53	30183.55
505.71	30274.83
505.88	30724.21
506.06	29951.84
506.23	30600.16
506.41	30235.04
506.58	30747.62
506.76	30895.07
506.93	31110.40
507.11	31108.06
507.28	30752.30
507.46	30988.69
507.63	30874.01
507.81	31395.95
507.98	30845.92
508.16	31356.16
508.33	31365.52
508.50	31384.24
508.68	31709.58
508.85	32002.14
509.03	31908.52
509.20	31913.20
509.38	32079.38
509.55	32006.83
509.73	32233.86
509.90	32130.87
510.08	32121.51
510.25	32308.76
510.42	32301.73
510.60	33118.58
510.77	32528.77
510.95	33195.82
511.12	32718.35
511.30	33153.69
511.47	33244.97
511.64	33422.85
511.82	33387.74
511.99	33111.56
512.17	33060.07
512.34	33102.20
512.51	33436.89
512.69	33649.88
512.86	33649.88
513.04	34068.84
513.21	33668.61
513.38	33701.37
513.56	33598.39
513.73	33481.36
513.90	34019.69
514.08	34033.73
514.25	34040.75
514.43	34260.76
514.60	33947.13
514.77	34345.02
514.95	34890.37
515.12	34408.22
515.29	34653.97
515.47	35295.28
515.64	35086.97
515.81	34771.00
515.99	34705.46
516.16	34562.69
516.33	34644.61
516.51	34588.44
516.68	34471.41
516.85	33968.19
517.03	34471.41
517.20	34834.19
517.37	35042.50
517.54	35122.08
517.72	35101.01
517.89	34747.59
518.06	35019.10
518.24	35103.35
518.41	34852.92
518.58	35372.52
518.75	35381.88
518.93	35524.65
519.10	35838.28
519.27	35695.51
519.45	35889.77
519.62	35978.72
519.79	36282.98
519.96	36224.47
520.14	36549.81
520.31	36392.99
520.48	36601.30
520.65	36797.90
520.83	36627.04
521.00	36914.93
521.17	37146.64
521.34	36751.09
521.52	37249.63
521.69	37200.47
521.86	37043.66
522.03	37553.90
522.20	37469.64
522.38	37319.84
522.55	37343.25
522.72	37251.97
522.89	37368.99
523.07	37574.96
523.24	37209.84
523.41	37919.02
523.58	37839.44
523.75	38305.21
523.92	38267.76
524.10	38087.54
524.27	38433.94
524.44	38377.76
524.61	38373.08
524.78	38543.94
524.96	38447.98
525.13	38323.93
525.30	38738.21
525.47	38990.98
525.64	38611.82
525.81	38408.19
525.98	38199.88
526.16	38560.33
526.33	37949.45
526.50	38511.17
526.67	37996.26
526.84	38450.32
527.01	38185.84
527.18	38745.23
527.36	39730.59
527.53	38983.96
527.70	39646.33
527.87	39555.05
528.04	39611.23
528.21	39480.16
528.38	39674.42
528.55	39697.83
528.72	40023.16
528.89	40341.47
529.07	39445.05
529.24	39651.02
529.41	39782.09
529.58	39751.66
529.75	39449.73
529.92	40119.12
530.09	39974.01
530.26	40297.00
530.43	40098.06
530.60	39828.90
530.77	40311.05
530.94	40238.49
531.11	40149.55
531.28	40477.22
531.46	40517.01
531.63	40409.35
531.80	40416.37
531.97	40332.11
532.14	40587.23
532.31	40203.38
532.48	40484.25
532.65	40933.63
532.82	40531.06
532.99	41029.59
533.16	41074.06
533.33	40612.98
533.50	41303.43
533.67	41024.91
533.84	40844.69
534.01	40879.80
534.18	41060.02
534.35	41411.10
534.52	41153.64
534.69	41427.48
534.86	41469.61
535.03	41701.32
535.20	41841.76
535.37	42080.49
535.54	42005.59
535.71	41478.97
535.88	41523.44
536.05	41315.14
536.22	42005.59
536.38	41968.15
536.55	41579.62
536.72	41872.18
536.89	41521.10
537.06	42155.39
537.23	42258.37
537.40	41893.25
537.57	42202.20
537.74	41947.08
537.91	42164.75
538.08	42351.99
538.25	42155.39
538.42	42377.74
538.59	42335.61
538.75	41684.94
538.92	42511.15
539.09	42263.05
539.26	42293.48
539.43	42251.35
539.60	42679.67
539.77	42286.46
539.94	42443.27
540.11	42323.91
540.28	42335.61
540.44	42326.25
540.61	42436.25
540.78	42401.14
540.95	42674.99
541.12	42710.10
541.29	42206.88
541.46	42738.18
541.62	42979.26
541.79	43281.19
541.96	42974.58
542.13	42885.64
542.30	43173.52
542.47	43122.03
542.63	43065.86
542.80	43405.23
542.97	43597.16
543.14	43487.15
543.31	43416.94
543.48	43901.43
543.64	44428.05
543.81	44175.27
543.98	44308.68
544.15	44027.82
544.32	43887.39
544.48	44343.79
544.65	44130.80
544.82	43868.66
544.99	43491.83
545.16	44210.38
545.32	43969.30
545.49	44376.56
545.66	44079.31
545.83	44355.49
546.00	44772.11
546.16	44051.22
546.33	44381.24
546.50	44140.16
546.67	44236.12
546.83	43803.13
547.00	44212.72
547.17	44175.27
547.34	44081.65
547.50	44456.14
547.67	44629.34
547.84	44865.73
548.00	44973.39
548.17	44971.05
548.34	44397.62
548.51	44914.88
548.67	44985.10
548.84	44809.56
549.01	44729.98
549.18	44765.09
549.34	44751.04
549.51	44875.09
549.68	44863.39
549.84	45174.68
550.01	45181.70
550.18	44676.15
550.34	44896.16
550.51	45308.09
550.68	44739.34
550.84	44687.85
551.01	45223.83
551.18	45216.81
551.34	44935.95
551.51	45310.43
551.68	44926.58
551.84	45523.42
552.01	44847.00
552.18	45382.99
552.34	45116.17
552.51	45823.01
552.68	45268.30
552.84	45523.42
553.01	45537.46
553.18	45539.80
553.34	45322.13
553.51	45106.80
553.67	45897.91
553.84	46075.79
554.01	45834.71
554.17	45804.28
554.34	45879.18
554.51	46138.98
554.67	45916.63
554.84	45673.21
555.00	45715.34
555.17	45813.65
555.33	46258.35
555.50	45401.71
555.67	45535.12
555.83	45780.88
556.00	46232.60
556.16	46300.48
556.33	45914.29
556.50	46071.10
556.66	46419.84
556.83	45401.71
556.99	46213.88
557.16	46183.45
557.32	46099.19
557.49	46237.28
557.65	45656.83
557.82	46167.07
557.98	46024.29
558.15	46108.55
558.32	45935.35
558.48	45911.95
558.65	45766.84
558.81	45991.53
558.98	46176.43
559.14	45806.62
559.31	46206.86
559.47	46358.99
559.64	46522.83
559.80	46321.54
559.97	46508.79
560.13	45825.35
560.30	46747.52
560.46	46178.77
560.63	46356.65
560.79	46459.63
560.96	46696.03
561.12	46202.18
561.29	46148.34
561.45	46602.41
561.61	46660.92
561.78	46646.88
561.94	46358.99
562.11	46527.51
562.27	46309.84
562.44	46506.44
562.60	46742.84
562.77	47276.48
562.93	46050.04
563.10	46646.88
563.26	46162.39
563.42	46548.57
563.59	46869.23
563.75	46658.58
563.92	46742.84
564.08	46834.12
564.24	46670.28
564.41	47098.60
564.57	46543.89
564.74	46997.96
564.90	47068.17
565.07	46960.51
565.23	46841.14
565.39	46777.95
565.56	46997.96
565.72	46529.85
565.88	46672.62
566.05	46550.91
566.21	46672.62
566.38	46511.13
566.54	46543.89
566.70	47346.70
566.87	47161.79
567.03	47079.88
567.19	47292.86
567.36	46995.62
567.52	46974.55
567.68	46843.48
567.85	46614.11
568.01	46827.10
568.17	46780.29
568.34	46696.03
568.50	46810.71
568.66	46693.69
568.83	47002.64
568.99	46902.00
569.15	47086.90
569.32	46813.05
569.48	46934.76
569.64	46934.76
569.81	47201.58
569.97	46878.59
570.13	46677.30
570.30	46653.90
570.46	46532.19
570.62	46719.43
570.78	46880.93
570.95	47346.70
571.11	47054.13
571.27	46969.87
571.43	46747.52
571.60	47131.37
571.76	46862.21
571.92	47129.03
572.09	46974.55
572.25	46894.97
572.41	47456.70
572.57	46927.74
572.74	47681.39
572.90	47206.26
573.06	47297.55
573.22	47356.06
573.38	47037.75
573.55	46766.24
573.71	46976.89
573.87	46827.10
574.03	46803.69
574.20	47555.00
574.36	47086.90
574.52	47037.75
574.68	47285.84
574.84	46941.78
575.01	46930.08
575.17	46887.95
575.33	46880.93
575.49	47047.11
575.65	47178.18
575.82	47180.52
575.98	46904.34
576.14	47339.68
576.30	47388.83
576.46	47082.22
576.62	47168.82
576.79	46871.57
576.95	46714.75
577.11	47082.22
577.27	47344.36
577.43	47306.91
577.59	46740.50
577.75	46787.31
577.92	46696.03
578.08	46574.32
578.24	46806.03
578.40	46866.89
578.56	46965.19
578.72	46955.83
578.88	47421.59
579.04	47505.85
579.21	47002.64
579.37	47150.09
579.53	46766.24
579.69	46906.68
579.85	47065.83
580.01	47236.69
580.17	47049.45
580.33	47178.18
580.49	46927.74
580.65	47175.84
580.82	46836.46
580.98	47150.09
581.14	47033.07
581.30	47459.04
581.46	47433.30
581.62	46873.91
581.78	47171.16
581.94	47576.07
582.10	47473.09
582.26	47276.48
582.42	47452.02
582.58	47353.72
582.74	47023.70
582.90	47264.78
583.06	47210.95
583.22	47943.53
583.38	47487.13
583.54	47356.06
583.70	46777.95
583.86	47365.42
584.02	47377.12
584.18	47267.12
584.34	47189.88
584.50	47257.76
584.66	46827.10
584.82	46962.85
584.98	47531.60
585.14	47828.85
585.30	47012.00
585.46	47426.28
585.62	46635.17
585.78	46995.62
585.94	46796.67
586.10	47253.08
586.26	47421.59
586.42	47325.63
586.58	47468.40
586.74	47173.50
586.90	47093.92
587.06	47290.52
587.22	47613.52
587.38	46972.21
587.54	47402.87
587.70	47746.93
587.86	47674.37
588.02	47239.03
588.18	47124.35
588.34	46932.42
588.49	46974.55
588.65	46487.72
588.81	46635.17
588.97	46595.38
589.13	46763.90
589.29	47110.30
589.45	47098.60
589.61	46983.91
589.77	47426.28
589.93	46972.21
590.08	47054.13
590.24	46969.87
590.40	47405.21
590.56	47466.06
590.72	47098.60
590.88	47157.11
591.04	47519.90
591.20	47426.28
591.35	47440.32
591.51	47679.05
591.67	47676.71
591.83	47334.99
591.99	47606.50
592.15	47194.56
592.31	47604.16
592.46	47393.51
592.62	47360.74
592.78	47470.75
592.94	47274.14
593.10	47580.75
593.26	47840.55
593.41	47103.28
593.57	47395.85
593.73	47318.61
593.89	47407.55
594.05	47491.81
594.20	47419.25
594.36	47873.32
594.52	47180.52
594.68	47358.40
594.84	47306.91
594.99	47402.87
595.15	47309.25
595.31	47793.74
595.47	47292.86
595.62	47110.30
595.78	47723.52
595.94	47667.35
596.10	47618.20
596.25	47416.91
596.41	47435.64
596.57	47650.97
596.73	47103.28
596.88	47402.87
597.04	47206.26
597.20	47372.44
597.36	47047.11
597.51	47344.36
597.67	47737.57
597.83	47693.10
597.99	47849.91
598.14	47426.28
598.30	47377.12
598.46	47292.86
598.61	47419.25
598.77	47103.28
598.93	47194.56
599.09	47119.66
599.24	47711.82
599.40	47590.11
599.56	47540.96
599.71	47721.18
599.87	47613.52
600.03	47608.84
600.18	47437.98
600.34	47447.34
600.50	47578.41
600.65	47419.25
600.81	47856.93
600.97	47786.72
601.12	47997.37
601.28	47491.81
601.44	47304.57
601.59	47517.56
601.75	47295.21
601.91	47281.16
602.06	47014.34
602.22	47559.69
602.37	47358.40
602.53	47428.62
602.69	47599.47
602.84	47274.14
603.00	47154.77
603.16	47173.50
603.31	47452.02
603.47	47618.20
603.62	46880.93
603.78	47498.83
603.94	47468.40
604.09	47576.07
604.25	47470.75
604.40	47543.30
604.56	47468.40
604.71	47735.23
604.87	47662.67
605.03	47215.63
605.18	47323.29
605.34	47454.36
605.49	46948.81
605.65	47295.21
605.80	47342.02
605.96	47922.47
606.12	47559.69
606.27	47526.92
606.43	47281.16
606.58	47260.10
606.74	46820.08
606.89	46724.11
607.05	47463.72
607.20	47122.01
607.36	47114.98
607.51	48006.73
607.67	46988.60
607.82	47339.68
607.98	47049.45
608.13	46806.03
608.29	47164.14
608.44	46443.25
608.60	46618.79
608.75	46808.37
608.91	47049.45
609.06	46955.83
609.22	47339.68
609.37	46759.22
609.53	46906.68
609.68	46677.30
609.84	47026.04
609.99	46904.34
610.15	47042.43
610.30	46859.87
610.46	46539.21
610.61	46953.49
610.76	46696.03
610.92	46623.47
611.07	46850.50
611.23	46525.17
611.38	46738.16
611.54	46518.15
611.69	46686.67
611.84	46244.30
612.00	46433.89
612.15	46351.97
612.31	46990.94
612.46	46597.73
612.62	46838.80
612.77	46616.45
612.92	46817.74
613.08	46426.87
613.23	46033.66
613.39	46328.56
613.54	46309.84
613.69	46497.08
613.85	46382.40
614.00	46693.69
614.15	46429.21
614.31	46408.14
614.46	46841.14
614.62	46209.20
614.77	46483.04
614.92	46101.53
615.08	46532.19
615.23	46176.43
615.38	46253.67
615.54	45979.82
615.69	46164.73
615.84	45806.62
616.00	46155.36
616.15	45900.25
616.30	45893.22
616.46	45701.30
616.61	45263.62
616.76	45909.61
616.92	45588.95
617.07	45500.01
617.22	45780.88
617.37	45862.80
617.53	45895.56
617.68	45954.08
617.83	46157.70
617.99	45956.42
618.14	45572.57
618.29	45853.44
618.45	45771.52
618.60	45675.55
618.75	45727.05
618.90	45579.59
619.06	45743.43
619.21	45874.50
619.36	45717.68
619.51	45397.03
619.67	45052.97
619.82	45488.31
619.97	45483.63
620.12	45226.17
620.28	45352.56
620.43	45139.57
620.58	45713.00
620.73	45359.58
620.89	45406.39
621.04	45350.22
621.19	45188.72
621.34	45111.49
621.49	45064.67
621.65	45015.52
621.80	45371.28
621.95	45179.36
622.10	44823.60
622.25	45170.00
622.41	44737.00
622.56	44919.56
622.71	45022.54
622.86	44744.02
623.01	45244.90
623.16	45031.91
623.32	44912.54
623.47	45565.55
623.62	45031.91
623.77	44404.64
623.92	44844.66
624.07	44989.78
624.23	44388.26
624.38	44634.02
624.53	44676.15
624.68	45174.68
624.83	44514.65
624.98	44999.14
625.13	44512.31
625.29	44514.65
625.44	44804.88
625.59	43908.45
625.74	43913.13
625.89	44105.06
626.04	44098.03
626.19	44402.30
626.34	44046.54
626.49	44034.84
626.65	44311.02
626.80	44430.39
626.95	44318.04
627.10	43491.83
627.25	43859.30
627.40	43625.25
627.55	43381.83
627.70	43512.90
627.85	43707.16
628.00	44013.77
628.15	44011.43
628.30	43791.42
628.45	43913.13
628.60	43674.40
628.76	43658.01
628.91	44102.71
629.06	43435.66
629.21	43643.97
629.36	43484.81
629.51	43517.58
629.66	43278.85
629.81	43103.31
629.96	43363.11
630.11	43538.65
630.26	43686.10
630.41	43400.55
630.56	43143.09
630.71	43510.56
630.86	43365.45
631.01	43187.56
631.16	43405.23
631.31	42892.66
631.46	42955.85
631.61	43168.84
631.76	42843.51
631.91	43409.92
632.06	43260.12
632.21	43342.04
632.36	43721.21
632.51	43107.99
632.66	42909.04
632.81	43042.45
632.96	43002.66
633.10	42504.13
633.25	42368.38
633.40	43173.52
633.55	42953.51
633.70	42958.19
633.85	42817.76
634.00	42330.93
634.15	42794.36
634.30	42754.57
634.45	42731.16
634.60	42616.47
634.75	43168.84
634.90	43040.11
635.05	42597.75
635.19	42663.28
635.34	42883.30
635.49	42284.12
635.64	42815.42
635.79	42483.06
635.94	42450.30
636.09	42763.93
636.24	42003.25
636.39	42293.48
636.53	42590.73
636.68	42078.15
636.83	42029.00
636.98	42258.37
637.13	42300.50
637.28	43058.84
637.43	42373.06
637.57	42768.61
637.72	42562.64
637.87	42436.25
638.02	42316.89
638.17	42061.77
638.32	42036.02
638.46	41624.09
638.61	42127.30
638.76	41647.49
638.91	41942.40
639.06	41846.44
639.20	42078.15
639.35	41926.02
639.50	42026.66
639.65	42141.35
639.80	41574.94
639.94	41930.70
640.09	41486.00
640.24	41560.89
640.39	41659.20
640.54	40999.16
640.68	41397.06
640.83	41640.47
640.98	41668.56
641.13	41640.47
641.27	41827.71
641.42	41455.57
641.57	41670.90
641.72	41258.96
641.86	41596.00
642.01	41181.73
642.16	41069.38
642.31	41106.83
642.45	41324.50
642.60	41090.44
642.75	40987.46
642.90	40952.35
643.04	41333.86
643.19	41282.37
643.34	41420.46
643.48	41586.64
643.63	40973.42
643.78	40561.48
643.93	40737.02
644.07	40790.86
644.22	40910.22
644.37	40584.89
644.51	41137.26
644.66	40900.86
644.81	40844.69
644.95	40851.71
645.10	41062.36
645.25	40947.67
645.39	41071.72
645.54	40694.89
645.69	40570.85
645.83	40666.81
645.98	41118.53
646.13	40509.99
646.27	41015.55
646.42	40687.87
646.57	40390.62
646.71	40486.59
646.86	40418.71
647.00	40615.32
647.15	40463.18
647.30	40423.39
647.44	40390.62
647.59	40271.26
647.74	40320.41
647.88	40196.36
648.03	39845.28
648.17	39974.01
648.32	39885.07
648.47	40231.47
648.61	40245.51
648.76	40238.49
648.90	40254.87
649.05	40414.03
649.20	39948.26
649.34	40458.50
649.49	40130.83
649.63	40383.60
649.78	40095.72
649.92	40163.59
650.07	40353.18
650.21	39791.45
650.36	40210.40
650.51	39814.85
650.65	40016.14
650.80	39543.35
650.94	40119.12
651.09	39864.00
651.23	39587.82
651.38	39672.08
651.52	39674.42
651.67	40231.47
651.81	39683.78
651.96	39665.06
652.10	39723.57
652.25	39246.10
652.39	39143.12
652.54	39604.20
652.68	39517.60
652.83	39571.44
652.97	39580.80
653.12	39285.89
653.26	39318.66
653.41	39353.77
653.55	39206.31
653.70	39012.05
653.84	39412.28
653.99	39166.52
654.13	39246.10
654.27	39100.99
654.42	38962.90
654.56	39278.87
654.71	39100.99
654.85	38918.43
655.00	38979.28
655.14	38888.00
655.29	38597.77
655.43	39285.89
655.57	38185.84
655.72	38508.83
655.86	37989.24
656.01	38965.24
656.15	38394.15
656.30	38487.77
656.44	37928.38
656.58	38478.41
656.73	38515.86
656.87	38232.65
657.01	37844.12
657.16	37890.93
657.30	38234.99
657.45	37703.69
657.59	38227.97
657.73	38157.75
657.88	38220.95
658.02	38499.47
658.16	38106.26
658.31	38677.35
658.45	38199.88
658.60	38073.49
658.74	38370.74
658.88	38148.39
659.03	38614.16
659.17	37832.42
659.31	38143.71
659.46	37586.66
659.60	37659.22
659.74	37790.29
659.89	37509.43
660.03	37509.43
660.17	37663.90
660.32	37799.65
660.46	38155.41
660.60	37556.24
660.74	37989.24
660.89	37696.67
661.03	37340.91
661.17	37074.09
661.32	36877.48
661.46	37015.57
661.60	37198.13
661.74	36968.76
661.89	37233.24
662.03	37230.90
662.17	37006.21
662.31	36858.76
662.46	37188.77
662.60	37376.01
662.74	36961.74
662.88	36723.01
663.03	36634.06
663.17	36451.50
663.31	36797.90
663.45	36830.67
663.60	36631.72
663.74	36367.24
663.88	36638.75
664.02	35997.44
664.17	36364.90
664.31	36205.75
664.45	36402.35
664.59	36392.99
664.73	36240.86
664.88	36121.49
665.02	36006.80
665.16	35854.67
665.30	35913.18
665.44	36428.10
665.59	35833.60
665.73	35971.69
665.87	35243.79
666.01	35580.82
666.15	35534.01
666.29	35768.07
666.44	35660.40
666.58	35552.74
666.72	35281.24
666.86	35583.16
667.00	35445.07
667.14	35374.86
667.28	34878.66
667.43	34962.92
667.57	35152.51
667.71	35000.37
667.85	34878.66
667.99	35342.09
668.13	34944.20
668.27	34731.21
668.41	35072.93
668.56	34817.81
668.70	35023.78
668.84	34581.42
668.98	34403.53
669.12	34529.92
669.26	34618.86
669.40	34412.90
669.54	34719.51
669.68	34480.77
669.82	34387.15
669.96	34260.76
670.10	33832.44
670.25	34277.15
670.39	34227.99
670.53	33736.48
670.67	33692.01
670.81	34066.50
670.95	33593.71
671.09	34022.03
671.23	34319.28
671.37	33893.30
671.51	33776.27
671.65	33621.80
671.79	33046.02
671.93	33469.66
672.07	33556.26
672.21	33261.35
672.35	33160.71
672.49	32994.53
672.63	33116.24
672.77	32921.98
672.91	33095.18
673.05	32957.08
673.19	32577.92
673.33	32863.46
673.47	32912.61
673.61	32393.01
673.75	32121.51
673.89	31934.27
674.03	32257.26
674.17	32025.55
674.31	32100.45
674.45	32130.87
674.59	32378.97
674.73	32109.81
674.87	31812.56
675.01	31840.65
675.15	32498.34
675.29	31995.12
675.43	32161.30
675.56	31920.23
675.70	31997.46
675.84	31304.67
675.98	30665.70
676.12	31440.42
676.26	31290.62
676.40	31063.59
676.54	31019.12
676.68	31218.07
676.82	30197.59
676.96	30852.94
677.10	30387.18
677.23	30700.81
677.37	30473.78
677.51	30513.56
677.65	30410.58
677.79	29633.52
677.93	29806.72
678.07	29991.62
678.21	29371.38
678.34	29652.25
678.48	29397.13
678.62	29675.65
678.76	29579.69
678.90	29331.59
679.04	29610.12
679.18	29235.63
679.31	29296.49
679.45	28849.44
679.59	28652.84
679.73	29043.71
679.87	29069.45
680.00	29132.65
680.14	28594.32
680.28	28748.80
680.42	28835.40
680.56	28584.96
680.70	28276.01
680.83	28194.09
680.97	27983.44
681.11	27983.44
681.25	27697.90
681.39	28112.17
681.52	27892.16
681.66	27758.75
681.80	27300.01
681.94	27859.40
682.07	27604.28
682.21	27243.84
682.35	27651.09
682.49	27201.71
682.62	27328.10
682.76	26955.95
682.90	27323.41
683.04	26885.73
683.17	26801.47
683.31	26852.97
683.45	26455.08
683.59	26455.08
683.72	26408.26
683.86	26377.84
684.00	26562.74
684.13	26199.96
684.27	26298.26
684.41	25883.98
684.55	25511.84
684.68	25645.25
684.82	25668.66
684.96	25858.24
685.09	25397.15
685.23	25563.33
685.37	25397.15
685.50	25226.29
685.64	25397.15
685.78	25247.36
685.91	25434.60
686.05	24790.95
686.19	25020.33
686.32	25015.65
686.46	24711.38
686.60	24009.22
686.73	24334.55
686.87	23906.23
687.01	24198.80
687.14	23908.57
687.28	23679.20
687.42	23955.38
687.55	23403.02
687.69	23637.07
687.82	23426.42
687.96	23344.50
688.10	23412.38
688.23	23278.97
688.37	23089.38
688.50	23005.13
688.64	22946.61
688.78	22986.40
688.91	22588.51
689.05	22642.34
689.18	22679.79
689.32	22075.93
689.46	22679.79
689.59	22850.65
689.73	22740.64
689.86	22485.53
690.00	22515.95
690.13	22656.39
690.27	22155.51
690.41	22263.18
690.54	21795.07
690.68	21865.28
690.81	21998.70
690.95	21671.02
691.08	21659.32
691.22	21518.89
691.35	21532.93
691.49	21612.51
691.62	21750.60
691.76	21624.21
691.89	21298.88
692.03	21305.90
692.16	21092.91
692.30	21067.16
692.43	21160.78
692.57	20631.82
692.70	21025.03
692.84	21006.31
692.97	20451.60
693.11	20725.44
693.24	20233.93
693.38	20285.42
693.51	20121.59
693.65	20379.04
693.78	20159.03
693.92	19997.54
694.05	19852.42
694.19	19716.67
694.32	19711.99
694.45	19934.34
694.59	20067.75
694.72	19569.22
694.86	19496.66
694.99	19297.72
695.13	19307.08
695.26	18707.90
695.39	19033.24
695.53	19119.84
695.66	18773.44
695.80	18923.23
695.93	18897.49
696.07	18853.02
696.20	18902.17
696.33	18579.17
696.47	18548.75
696.60	18654.07
696.73	18855.36
696.87	18485.55
697.00	18349.80
697.14	18356.82
697.27	18328.74
697.40	18010.42
697.54	17884.03
697.67	17884.03
697.80	17699.13
697.94	17731.90
698.07	17610.19
698.21	17413.59
698.34	17591.47
698.47	17441.67
698.61	17341.03
698.74	17027.40
698.87	17369.12
699.01	16952.50
699.14	16980.59
699.27	17170.17
699.40	17085.91
699.54	16641.21
699.67	16711.42
699.80	16683.34
699.94	16367.37
700.07	16575.67
700.20	16482.05
700.34	16358.00
700.47	16226.93
700.60	16411.84
700.73	16484.39
700.87	16095.86
701.00	15999.90
701.13	16009.26
701.26	16102.89
701.40	15985.86
701.53	15873.51
701.66	15712.02
701.79	15789.25
701.93	15625.42
702.06	15431.15
702.19	15166.67
702.32	15356.25
702.46	15288.38
702.59	15150.29
702.72	15192.42
702.85	15283.70
702.99	15154.97
703.12	15042.62
703.25	14902.19
703.38	15019.22
703.51	14855.38
703.65	14714.95
703.78	14504.30
703.91	14747.72
704.04	14588.56
704.17	14724.31
704.31	14368.55
704.44	14277.27
704.57	14047.90
704.70	14148.54
704.83	13973.00
704.96	14057.26
705.10	14221.10
705.23	14047.90
>>>>>End Processed Spectral Data<<<<<
