SpectraSuite Data File
++++++++++++++++++++++++++++++++++++
Date: Fri Oct 25 10:43:19 EDT 2013
User: price-jones
Dark Spectrum Present: No
Reference Spectrum Present: No
Number of Sampled Component Spectra: 1
Spectrometers: USB2+H05261
Integration Time (usec): 100000 (USB2+H05261)
Spectra Averaged: 1 (USB2+H05261)
Boxcar Smoothing: 0 (USB2+H05261)
Correct for Electrical Dark: No (USB2+H05261)
Strobe/Lamp Enabled: No (USB2+H05261)
Correct for Detector Non-linearity: No (USB2+H05261)
Correct for Stray Light: No (USB2+H05261)
Number of Pixels in Processed Spectrum: 2048
>>>>>Begin Processed Spectral Data<<<<<
365.73	142.77
365.92	142.77
366.12	142.77
366.32	44.47
366.52	74.90
366.72	23.41
366.91	14.04
367.11	0.00
367.31	0.00
367.51	2.34
367.70	7.02
367.90	18.72
368.10	0.00
368.30	28.09
368.49	0.00
368.69	72.56
368.89	32.77
369.09	124.05
369.28	119.37
369.48	4.68
369.68	70.22
369.87	100.64
370.07	79.58
370.27	86.60
370.47	217.67
370.66	390.87
370.86	383.85
371.06	458.74
371.25	458.74
371.45	449.38
371.65	482.15
371.84	414.27
372.04	491.51
372.24	489.17
372.44	409.59
372.63	486.83
372.83	526.62
373.03	482.15
373.22	540.66
373.42	557.05
373.62	465.77
373.81	482.15
374.01	510.24
374.21	503.22
374.40	566.41
374.60	596.84
374.79	585.13
374.99	557.05
375.19	545.34
375.38	566.41
375.58	498.53
375.78	587.47
375.97	622.58
376.17	683.44
376.37	550.03
376.56	603.86
376.76	580.45
376.95	603.86
377.15	561.73
377.35	599.18
377.54	624.92
377.74	603.86
377.93	589.82
378.13	730.25
378.33	641.31
378.52	683.44
378.72	678.76
378.91	648.33
379.11	580.45
379.31	657.69
379.50	739.61
379.70	720.88
379.89	711.52
380.09	671.73
380.28	681.10
380.48	690.46
380.68	704.50
380.87	734.93
381.07	713.86
381.26	774.72
381.46	681.10
381.65	727.91
381.85	671.73
382.04	662.37
382.24	739.61
382.43	690.46
382.63	695.14
382.83	664.71
383.02	690.46
383.22	767.70
383.41	643.65
383.61	676.41
383.80	814.51
384.00	774.72
384.19	809.83
384.39	755.99
384.58	793.44
384.78	842.59
384.97	791.10
385.17	765.36
385.36	755.99
385.56	802.80
385.75	856.64
385.95	814.51
386.14	863.66
386.34	844.93
386.53	784.08
386.72	840.25
386.92	868.34
387.11	915.15
387.31	931.53
387.50	854.30
387.70	814.51
387.89	943.24
388.09	908.13
388.28	819.19
388.48	973.66
388.67	936.21
388.86	926.85
389.06	877.70
389.25	915.15
389.45	987.71
389.64	912.81
389.84	973.66
390.03	1013.45
390.22	959.62
390.42	1067.28
390.61	903.45
390.81	1015.79
391.00	945.58
391.19	1076.65
391.39	1074.31
391.58	1086.01
391.78	1001.75
391.97	1013.45
392.16	1046.22
392.36	926.85
392.55	1004.09
392.75	976.00
392.94	1006.43
393.13	961.96
393.33	943.24
393.52	1036.86
393.71	1125.80
393.91	1081.33
394.10	1121.12
394.29	1121.12
394.49	1109.41
394.68	1212.40
394.88	1116.44
395.07	1217.08
395.26	1196.01
395.46	1188.99
395.65	1263.89
395.84	1181.97
396.04	1226.44
396.23	1280.27
396.42	1214.74
396.62	1165.59
396.81	1137.50
397.00	1212.40
397.19	1270.91
397.39	1366.87
397.58	1427.73
397.77	1451.13
397.97	1352.83
398.16	1404.32
398.35	1453.47
398.55	1420.71
398.74	1556.46
398.93	1467.52
399.12	1563.48
399.32	1535.39
399.51	1516.67
399.70	1535.39
399.90	1488.58
400.09	1530.71
400.28	1593.90
400.47	1521.35
400.67	1640.72
400.86	1678.16
401.05	1619.65
401.24	1717.95
401.44	1687.53
401.63	1703.91
401.82	1743.70
402.01	1710.93
402.21	1687.53
402.40	1753.06
402.59	1769.44
402.78	1743.70
402.97	1706.25
403.17	1703.91
403.36	1753.06
403.55	1820.94
403.74	1928.60
403.93	1825.62
404.13	1715.61
404.32	1811.57
404.51	1820.94
404.70	1961.37
404.89	1853.70
405.09	1980.09
405.28	1935.62
405.47	1944.99
405.66	1930.94
405.85	1998.82
406.05	1905.20
406.24	2017.54
406.43	2050.31
406.62	2120.53
406.81	2136.91
407.00	2085.42
407.20	2031.58
407.39	2129.89
407.58	2101.80
407.77	2155.63
407.96	2284.36
408.15	2139.25
408.34	2246.91
408.54	2340.54
408.73	2244.57
408.92	2267.98
409.11	2176.70
409.30	2195.42
409.49	2298.41
409.68	2265.64
409.87	2300.75
410.07	2373.30
410.26	2410.75
410.45	2375.64
410.64	2260.96
410.83	2485.65
411.02	2567.57
411.21	2569.91
411.40	2516.08
411.59	2562.89
411.78	2541.82
411.98	2569.91
412.17	2677.57
412.36	2572.25
412.55	2705.66
412.74	2729.06
412.93	2722.04
413.12	2757.15
413.31	2787.58
413.50	2806.30
413.69	2759.49
413.88	2977.16
414.07	2904.60
414.26	2925.67
414.45	2885.88
414.64	2930.35
414.83	3038.02
415.02	3012.27
415.22	3089.51
415.41	3084.83
415.60	3225.26
415.79	3089.51
415.98	3112.91
416.17	3157.38
416.36	3288.45
416.55	3208.87
416.74	3241.64
416.93	3138.66
417.12	3220.58
417.31	3255.69
417.50	3211.22
417.69	3398.46
417.88	3337.60
418.07	3403.14
418.26	3438.25
418.45	3473.36
418.64	3585.70
418.83	3508.46
419.02	3522.51
419.21	3513.14
419.39	3428.88
419.58	3463.99
419.77	3510.80
419.96	3531.87
420.15	3623.15
420.34	3662.94
420.53	3744.86
420.72	3779.97
420.91	3770.60
421.10	3801.03
421.29	3850.18
421.48	3786.99
421.67	3803.37
421.86	3822.09
422.05	3810.39
422.24	3688.68
422.43	3740.18
422.61	3763.58
422.80	3850.18
422.99	3817.41
423.18	3967.21
423.37	3927.42
423.56	3927.42
423.75	3932.10
423.94	4018.70
424.13	3768.26
424.32	3719.11
424.50	3911.04
424.69	4016.36
424.88	4081.89
425.07	3873.59
425.26	3796.35
425.45	3779.97
425.64	3833.80
425.83	3927.42
426.01	4051.47
426.20	4032.74
426.39	4032.74
426.58	3904.01
426.77	3906.35
426.96	3992.95
427.15	4039.76
427.33	3992.95
427.52	4009.34
427.71	4203.60
427.90	4084.23
428.09	4028.06
428.28	4269.14
428.46	4126.36
428.65	4074.87
428.84	4203.60
429.03	4187.22
429.22	4198.92
429.40	4126.36
429.59	4145.09
429.78	3904.01
429.97	3754.22
430.16	4002.32
430.34	4262.12
430.53	4166.15
430.72	4205.94
430.91	4241.05
431.10	4311.27
431.28	4395.53
431.47	4681.07
431.66	4704.48
431.85	4428.29
432.03	4564.04
432.22	4463.40
432.41	4578.09
432.60	4774.69
432.79	4657.67
432.97	4774.69
433.16	4863.63
433.35	4596.81
433.54	4713.84
433.72	4718.52
433.91	4755.97
434.10	4573.41
434.28	4631.92
434.47	4723.20
434.66	4847.25
434.85	4781.71
435.03	4760.65
435.22	4938.53
435.41	5008.75
435.59	5128.11
435.78	5153.86
435.97	5100.03
436.16	5088.32
436.34	5090.67
436.53	5004.07
436.72	5291.95
436.90	5282.59
437.09	4964.28
437.28	4999.38
437.46	5256.84
437.65	5172.58
437.84	5205.35
438.02	5008.75
438.21	5008.75
438.40	5081.30
438.58	5320.04
438.77	5331.74
438.96	5486.22
439.14	5664.10
439.33	5628.99
439.52	5537.71
439.70	5565.79
439.89	5554.09
440.08	5540.05
440.26	5738.99
440.45	5544.73
440.63	5783.46
440.82	5867.72
441.01	5795.17
441.19	5792.83
441.38	6094.76
441.57	5898.15
441.75	6104.12
441.94	6157.95
442.12	6258.59
442.31	6246.89
442.50	6232.85
442.68	6202.42
442.87	6310.08
443.05	6127.52
443.24	6403.71
443.43	6338.17
443.61	6317.11
443.80	6668.19
443.98	6338.17
444.17	6207.10
444.35	6394.34
444.54	6520.73
444.73	6525.41
444.91	6373.28
445.10	6333.49
445.28	6494.99
445.47	6249.23
445.65	6303.06
445.84	6581.59
446.02	6614.35
446.21	6427.11
446.39	6700.95
446.58	6637.76
446.77	6525.41
446.95	6663.51
447.14	6670.53
447.32	6794.58
447.51	6588.61
447.69	6513.71
447.88	6794.58
448.06	6686.91
448.25	6420.09
448.43	6572.22
448.62	6707.98
448.80	6609.67
448.99	6656.48
449.17	6832.02
449.36	6757.13
449.54	6897.56
449.73	7101.19
449.91	7155.02
450.10	7124.59
450.28	7054.37
450.46	7166.72
450.65	7321.20
450.83	7129.27
451.02	7215.87
451.20	7208.85
451.39	7033.31
451.57	7180.76
451.76	6986.50
451.94	7169.06
452.13	7155.02
452.31	7117.57
452.49	7033.31
452.68	7061.40
452.86	7206.51
453.05	7063.74
453.23	7276.73
453.42	7131.61
453.60	7042.67
453.78	7417.16
453.97	7386.73
454.15	7396.09
454.34	7403.11
454.52	7386.73
454.70	7360.98
454.89	7410.14
455.07	7447.58
455.26	7674.62
455.44	7709.72
455.62	7737.81
455.81	7522.48
455.99	7707.38
456.17	7669.94
456.36	7712.07
456.54	7878.24
456.73	7847.82
456.91	7871.22
457.09	8030.38
457.28	8063.15
457.46	8180.17
457.64	8098.25
457.83	7932.08
458.01	8023.36
458.19	8203.58
458.38	8093.57
458.56	8060.80
458.74	7971.86
458.93	8107.62
459.11	8278.47
459.29	8315.92
459.48	8269.11
459.66	8030.38
459.84	8259.75
460.03	8414.23
460.21	8432.95
460.39	8716.16
460.57	8404.86
460.76	8507.85
460.94	8580.40
461.12	8578.06
461.31	8468.06
461.49	8659.98
461.67	8493.80
461.85	8828.50
462.04	8613.17
462.22	9315.33
462.40	8903.40
462.59	8795.73
462.77	8681.05
462.95	8840.20
463.13	8997.02
463.32	8835.52
463.50	8940.85
463.68	8709.13
463.86	8917.44
464.05	8753.60
464.23	8891.70
464.41	9067.24
464.59	8793.39
464.78	9006.38
464.96	8966.59
465.14	8915.10
465.32	9184.26
465.50	9315.33
465.69	9277.88
465.87	9128.09
466.05	9076.60
466.23	9032.13
466.41	9125.75
466.60	9263.84
466.78	8957.23
466.96	9067.24
467.14	9116.39
467.32	9263.84
467.51	9523.64
467.69	9074.26
467.87	9284.91
468.05	9500.23
468.23	9355.12
468.41	9366.82
468.60	9509.60
468.78	9635.99
468.96	9474.49
469.14	9472.15
469.32	9753.01
469.50	9565.77
469.69	9902.81
469.87	9956.64
470.05	9841.95
470.23	9647.69
470.41	9673.43
470.59	10054.94
470.77	9977.70
470.95	9856.00
471.14	10101.75
471.32	9872.38
471.50	9968.34
471.68	10178.99
471.86	10200.05
472.04	10260.91
472.22	10644.76
472.40	10263.25
472.58	10314.74
472.77	10370.91
472.95	10338.15
473.13	10689.23
473.31	10335.81
473.49	10469.22
473.67	10637.73
473.85	10710.29
474.03	10867.11
474.21	10867.11
474.39	10759.44
474.57	11187.76
474.75	11115.20
474.93	11140.95
475.12	11035.63
475.30	11140.95
475.48	10927.96
475.66	10970.09
475.84	11213.51
476.02	11272.02
476.20	11367.98
476.38	11548.20
476.56	11763.53
476.74	11707.36
476.92	11576.29
477.10	11805.66
477.28	11777.58
477.46	11913.33
477.64	12241.00
477.82	12327.60
478.00	12547.61
478.18	12425.90
478.36	12533.57
478.54	12620.17
478.72	12699.75
478.90	12730.17
479.08	13116.36
479.26	13041.46
479.44	12898.69
479.62	13078.91
479.80	13184.24
479.98	13174.88
480.16	13624.26
480.34	13535.32
480.52	13570.43
480.70	13797.46
480.88	13535.32
481.06	13909.80
481.24	14017.47
481.41	14143.86
481.59	14260.88
481.77	14143.86
481.95	14274.93
482.13	14429.40
482.31	14513.66
482.49	14703.25
482.67	14670.48
482.85	14656.43
483.03	14909.21
483.21	15264.97
483.39	15279.02
483.57	15208.80
483.74	15454.56
483.92	15630.10
484.10	15503.71
484.28	15789.25
484.46	15847.77
484.64	16215.23
484.82	15800.96
485.00	15962.45
485.18	16205.87
485.35	16112.25
485.53	16042.03
485.71	15927.35
485.89	16458.65
486.07	16114.59
486.25	16498.44
486.43	16629.51
486.61	16856.54
486.78	17060.16
486.96	17062.51
487.14	17195.92
487.32	17673.39
487.50	17947.23
487.68	17748.28
487.85	18277.24
488.03	18579.17
488.21	18558.11
488.39	18223.41
488.57	18387.25
488.75	18466.83
488.92	18972.38
489.10	19398.36
489.28	19040.26
489.46	19634.75
489.64	19400.70
489.81	19964.77
489.99	19924.98
490.17	19730.72
490.35	19978.81
490.53	20177.76
490.70	20432.88
490.88	20154.35
491.06	20624.80
491.24	20477.35
491.41	20713.74
491.59	20498.41
491.77	20730.12
491.95	20795.66
492.13	21287.17
492.30	21076.52
492.48	21476.76
492.66	21387.82
492.84	21418.24
493.01	21750.60
493.19	21717.83
493.37	22108.70
493.54	21961.25
493.72	22728.94
493.90	22658.73
494.08	23049.60
494.25	22850.65
494.43	23175.98
494.61	23276.63
494.79	23080.02
494.96	23583.24
495.14	23381.95
495.32	23646.43
495.49	23616.01
495.67	23711.97
495.85	23793.89
496.02	24128.58
496.20	24053.69
496.38	24102.84
496.55	24114.54
496.73	24790.95
496.91	24772.23
497.09	24657.54
497.26	24765.21
497.44	24652.86
497.62	24870.53
497.79	25118.63
497.97	25020.33
498.14	25120.97
498.32	25467.37
498.50	25291.83
498.67	25661.63
498.85	25928.45
499.03	25795.04
499.20	25823.13
499.38	25951.86
499.56	26022.08
499.73	26494.86
499.91	26162.51
500.08	26511.25
500.26	26335.71
500.44	26558.06
500.61	26700.83
500.79	26321.66
500.97	26443.37
501.14	26876.37
501.32	26754.66
501.49	27119.79
501.67	26932.54
501.84	27248.52
502.02	26941.91
502.20	27475.55
502.37	27459.16
502.55	27772.80
502.72	27683.86
502.90	27578.53
503.07	27627.68
503.25	27751.73
503.43	27915.57
503.60	27770.46
503.78	27924.93
503.95	27843.01
504.13	28252.61
504.30	28203.46
504.48	28507.72
504.65	28648.16
504.83	28727.74
505.01	28830.72
505.18	28519.43
505.36	29191.16
505.53	29137.33
505.71	29277.76
505.88	29425.22
506.06	29385.43
506.23	29315.21
506.41	29076.48
506.58	29635.86
506.76	29394.79
506.93	29771.61
507.11	29694.38
507.28	29488.41
507.46	29680.33
507.63	29406.49
507.81	29956.52
507.98	29837.15
508.16	30185.89
508.33	30483.14
508.50	30815.49
508.68	30583.78
508.85	30895.07
509.03	30394.20
509.20	30810.81
509.38	31091.68
509.55	31049.55
509.73	31040.18
509.90	31510.63
510.08	30742.94
510.25	31077.63
510.42	31229.77
510.60	31482.55
510.77	31545.74
510.95	32231.52
511.12	31686.17
511.30	31786.82
511.47	31978.74
511.64	32451.53
511.82	32170.66
511.99	31854.69
512.17	31899.16
512.34	32027.89
512.51	32458.55
512.69	32390.67
512.86	32285.35
513.04	32683.24
513.21	32657.49
513.38	32353.23
513.56	32753.46
513.73	32299.39
513.90	32741.75
514.08	33010.92
514.25	32730.05
514.43	32765.16
514.60	33041.34
514.77	33057.73
514.95	33350.29
515.12	33298.80
515.29	33132.62
515.47	33476.68
515.64	33975.22
515.81	33287.10
515.99	33354.97
516.16	33816.06
516.33	33216.88
516.51	33315.19
516.68	33146.67
516.85	33193.48
517.03	33354.97
517.20	34050.11
517.37	33879.25
517.54	34279.49
517.72	34223.31
517.89	33612.43
518.06	33755.21
518.24	33780.95
518.41	33979.90
518.58	34106.29
518.75	34024.37
518.93	34169.48
519.10	34373.11
519.27	34682.06
519.45	34789.72
519.62	35147.82
519.79	35145.48
519.96	34913.77
520.14	34948.88
520.31	34852.92
520.48	35253.15
520.65	34738.23
520.83	35716.58
521.00	35562.10
521.17	35835.94
521.34	35683.81
521.52	36079.36
521.69	36020.84
521.86	36072.34
522.03	35901.48
522.20	35695.51
522.38	36236.17
522.55	36297.03
522.72	35899.14
522.89	36086.38
523.07	36666.83
523.24	36229.15
523.41	36753.43
523.58	36163.62
523.75	36870.46
523.92	36928.97
524.10	36957.06
524.27	36896.20
524.44	37015.57
524.61	37081.11
524.78	37031.96
524.96	37397.08
525.13	37015.57
525.30	37488.36
525.47	37230.90
525.64	37244.94
525.81	36828.33
525.98	37572.62
526.16	37097.49
526.33	36741.73
526.50	37191.11
526.67	37207.50
526.84	36968.76
527.01	36952.38
527.18	37455.59
527.36	37266.01
527.53	37790.29
527.70	38340.32
527.87	38382.45
528.04	37764.54
528.21	37968.17
528.38	37928.38
528.55	38471.39
528.72	38534.58
528.89	38431.60
529.07	38747.57
529.24	38260.74
529.41	38644.59
529.58	38352.02
529.75	38550.96
529.92	38857.57
530.09	38859.91
530.26	38698.42
530.43	38726.50
530.60	38691.40
530.77	38770.97
530.94	38972.26
531.11	39124.40
531.28	39304.62
531.46	38712.46
531.63	39054.18
531.80	38995.67
531.97	39129.08
532.14	39154.82
532.31	38476.07
532.48	39026.09
532.65	39278.87
532.82	39386.54
532.99	39283.55
533.16	39105.67
533.33	39667.40
533.50	39800.81
533.67	39601.86
533.84	39571.44
534.01	39711.87
534.18	39730.59
534.35	40023.16
534.52	39585.48
534.69	40259.55
534.86	40025.50
535.03	39948.26
535.20	40617.66
535.37	40540.42
535.54	40732.34
535.71	40076.99
535.88	40657.45
536.05	40392.97
536.22	40662.13
536.38	40680.85
536.55	40456.16
536.72	39805.49
536.89	40357.86
537.06	40421.05
537.23	40535.74
537.40	40598.93
537.57	40844.69
537.74	40685.53
537.91	41045.97
538.08	41205.13
538.25	40610.64
538.42	40533.40
538.59	41008.53
538.75	41071.72
538.92	41029.59
539.09	41029.59
539.26	41242.58
539.43	40945.33
539.60	41088.10
539.77	40821.28
539.94	41024.91
540.11	40996.82
540.28	41378.33
540.44	41191.09
540.61	41265.99
540.78	40739.36
540.95	40891.50
541.12	41294.07
541.29	41383.01
541.46	41586.64
541.62	41659.20
541.79	42036.02
541.96	41553.87
542.13	41509.40
542.30	41841.76
542.47	41614.72
542.63	41865.16
542.80	41883.89
542.97	41591.32
543.14	42412.85
543.31	42139.00
543.48	41780.90
543.64	42649.24
543.81	42878.61
543.98	42593.07
544.15	42635.20
544.32	42724.14
544.48	42801.38
544.65	42307.52
544.82	42782.65
544.99	42251.35
545.16	42932.45
545.32	42195.18
545.49	42068.79
545.66	43325.66
545.83	42504.13
546.00	42644.56
546.16	42487.74
546.33	42625.84
546.50	42677.33
546.67	43023.73
546.83	42476.04
547.00	42738.18
547.17	42747.54
547.34	42389.44
547.50	42986.28
547.67	42988.62
547.84	43152.46
548.00	43236.72
548.17	43367.79
548.34	43636.95
548.51	43323.32
548.67	43426.30
548.84	43086.92
549.01	43536.30
549.18	43283.53
549.34	43496.52
549.51	43393.53
549.68	43737.59
549.84	43407.58
550.01	43725.89
550.18	43199.27
550.34	43473.11
550.51	43445.02
550.68	43253.10
550.84	43199.27
551.01	43737.59
551.18	43531.62
551.34	43728.23
551.51	43871.00
551.68	43643.97
551.84	43461.41
552.01	43779.72
552.18	44114.42
552.34	43639.29
552.51	44196.34
552.68	44201.02
552.84	44037.18
553.01	44252.51
553.18	44105.06
553.34	44135.48
553.51	43779.72
553.67	44212.72
553.84	44500.61
554.01	44811.90
554.17	44369.54
554.34	44449.11
554.51	44474.86
554.67	44844.66
554.84	44526.35
555.00	43639.29
555.17	44219.74
555.33	44165.91
555.50	44734.66
555.67	44121.44
555.83	44669.12
556.00	44512.31
556.16	45006.16
556.33	44451.45
556.50	44404.64
556.66	44109.74
556.83	44074.63
556.99	44479.54
557.16	44657.42
557.32	44109.74
557.49	44655.08
557.65	44493.58
557.82	44409.32
557.98	44687.85
558.15	44603.59
558.32	44924.24
558.48	44334.43
558.65	44814.24
558.81	44343.79
558.98	44737.00
559.14	44896.16
559.31	44662.10
559.47	44605.93
559.64	44699.55
559.80	44917.22
559.97	45048.29
560.13	44584.86
560.30	44942.97
560.46	44973.39
560.63	44924.24
560.79	45504.70
560.96	45280.00
561.12	44924.24
561.29	45125.53
561.45	45174.68
561.61	44971.05
561.78	45160.64
561.94	44603.59
562.11	44982.76
562.27	45242.56
562.44	45287.03
562.60	45170.00
562.77	45469.59
562.93	44980.42
563.10	45294.05
563.26	45052.97
563.42	45062.33
563.59	44985.10
563.75	45287.03
563.92	45553.85
564.08	45792.58
564.24	45579.59
564.41	45130.21
564.57	45296.39
564.74	45130.21
564.90	45338.52
565.07	45439.16
565.23	45387.67
565.39	45242.56
565.56	45045.95
565.72	44975.73
565.88	45205.11
566.05	44828.28
566.21	45207.45
566.38	45340.86
566.54	45434.48
566.70	45647.47
566.87	45586.61
567.03	45577.25
567.19	45855.78
567.36	45507.04
567.52	45357.24
567.68	45851.09
567.85	45338.52
568.01	45518.74
568.17	45792.58
568.34	46021.95
568.50	45663.85
568.66	45352.56
568.83	45251.92
568.99	45244.90
569.15	45436.82
569.32	45509.38
569.48	45703.64
569.64	45750.45
569.81	45687.26
569.97	45411.07
570.13	45528.10
570.30	45294.05
570.46	45139.57
570.62	45132.55
570.78	45200.43
570.95	45083.40
571.11	45481.29
571.27	45263.62
571.43	45500.01
571.60	45799.60
571.76	45287.03
571.92	45443.84
572.09	45366.60
572.25	45254.26
572.41	45450.86
572.57	45975.14
572.74	46148.34
572.90	45972.80
573.06	45525.76
573.22	45560.87
573.38	45813.65
573.55	45715.34
573.71	45879.18
573.87	46178.77
574.03	45813.65
574.20	45457.88
574.36	45319.79
574.52	46099.19
574.68	45572.57
574.84	45600.66
575.01	45574.91
575.17	45778.54
575.33	45284.68
575.49	45542.14
575.65	45996.21
575.82	45757.47
575.98	45532.78
576.14	46073.45
576.30	45731.73
576.46	45745.77
576.62	45607.68
576.79	45448.52
576.95	45659.17
577.11	45820.67
577.27	45588.95
577.43	45682.58
577.59	45614.70
577.75	45497.67
577.92	45052.97
578.08	45214.47
578.24	45261.28
578.40	45291.71
578.56	45610.02
578.72	45715.34
578.88	45813.65
579.04	45944.72
579.21	45331.50
579.37	45443.84
579.53	45525.76
579.69	45624.06
579.85	45710.66
580.01	45764.49
580.17	45542.14
580.33	45743.43
580.49	45855.78
580.65	45607.68
580.82	45492.99
580.98	45720.02
581.14	45214.47
581.30	46073.45
581.46	45567.89
581.62	45708.32
581.78	45790.24
581.94	46038.34
582.10	46033.66
582.26	46188.13
582.42	45790.24
582.58	46199.83
582.74	45675.55
582.90	45666.19
583.06	46101.53
583.22	45982.16
583.38	45867.48
583.54	45844.07
583.70	45918.97
583.86	45766.84
584.02	45406.39
584.18	45415.76
584.34	45862.80
584.50	45935.35
584.66	45525.76
584.82	45385.33
584.98	46115.58
585.14	45755.13
585.30	45642.79
585.46	45434.48
585.62	45820.67
585.78	45518.74
585.94	45450.86
586.10	45565.55
586.26	45808.96
586.42	45984.51
586.58	45839.39
586.74	46218.56
586.90	45862.80
587.06	45979.82
587.22	45827.69
587.38	45579.59
587.54	46096.85
587.70	45755.13
587.86	46036.00
588.02	45610.02
588.18	46019.61
588.34	45500.01
588.49	45420.44
588.65	45097.44
588.81	44563.80
588.97	45284.68
589.13	45294.05
589.29	45528.10
589.45	45453.20
589.61	45432.14
589.77	45928.33
589.93	45853.44
590.08	46277.07
590.24	45500.01
590.40	45799.60
590.56	46047.70
590.72	45890.88
590.88	45862.80
591.04	46024.29
591.20	46330.90
591.35	46146.00
591.51	46527.51
591.67	45993.87
591.83	45331.50
591.99	45801.94
592.15	45855.78
592.31	45970.46
592.46	45488.31
592.62	46347.29
592.78	46265.37
592.94	46241.96
593.10	46005.57
593.26	46017.27
593.41	46445.59
593.57	46036.00
593.73	45823.01
593.89	46174.09
594.05	46103.87
594.20	45794.92
594.36	45605.34
594.52	46092.17
594.68	45937.69
594.84	45696.62
594.99	46153.02
595.15	45993.87
595.31	46319.20
595.47	45813.65
595.62	46316.86
595.78	45792.58
595.94	45909.61
596.10	46157.70
596.25	45794.92
596.41	46354.31
596.57	45900.25
596.73	45947.06
596.88	45677.90
597.04	45708.32
597.20	46050.04
597.36	46061.74
597.51	46487.72
597.67	45521.08
597.83	46057.06
597.99	46333.24
598.14	45464.91
598.30	45876.84
598.46	46064.08
598.61	46101.53
598.77	45586.61
598.93	45949.40
599.09	45855.78
599.24	46129.62
599.40	46335.59
599.56	46447.93
599.71	45904.93
599.87	46239.62
600.03	46113.23
600.18	45823.01
600.34	46092.17
600.50	45818.33
600.65	45977.48
600.81	45956.42
600.97	46260.69
601.12	46380.06
601.28	46141.32
601.44	45806.62
601.59	45918.97
601.75	45778.54
601.91	45811.31
602.06	45755.13
602.22	45539.80
602.37	45823.01
602.53	45815.99
602.69	46260.69
602.84	45373.63
603.00	45539.80
603.16	45698.96
603.31	45998.55
603.47	45841.73
603.62	45544.48
603.78	46382.40
603.94	45607.68
604.09	46122.60
604.25	45755.13
604.40	45900.25
604.56	45853.44
604.71	45801.94
604.87	45635.77
605.03	45720.02
605.18	45872.16
605.34	45832.37
605.49	45483.63
605.65	45610.02
605.80	45427.46
605.96	45923.65
606.12	46052.38
606.27	46012.59
606.43	45804.28
606.58	45670.87
606.74	45642.79
606.89	45776.20
607.05	45827.69
607.20	45874.50
607.36	45942.38
607.51	46045.36
607.67	45876.84
607.82	45542.14
607.98	45483.63
608.13	45380.65
608.29	45574.91
608.44	45361.92
608.60	44996.80
608.75	45766.84
608.91	45263.62
609.06	45368.94
609.22	45399.37
609.37	45448.52
609.53	45663.85
609.68	45488.31
609.84	45495.33
609.99	45134.89
610.15	45303.41
610.30	45574.91
610.46	45450.86
610.61	45347.88
610.76	45544.48
610.92	45441.50
611.07	45221.49
611.23	45268.30
611.38	45090.42
611.54	45507.04
611.69	45361.92
611.84	45155.96
612.00	45020.20
612.15	44879.77
612.31	44933.60
612.46	44844.66
612.62	45319.79
612.77	45291.71
612.92	45350.22
613.08	44875.09
613.23	45209.79
613.39	44594.23
613.54	44718.28
613.69	44807.22
613.85	44856.37
614.00	44491.24
614.15	44657.42
614.31	44671.46
614.46	44903.18
614.62	44900.84
614.77	44046.54
614.92	44556.78
615.08	44617.63
615.23	44699.55
615.38	44942.97
615.54	44243.15
615.69	44767.43
615.84	44779.13
616.00	44603.59
616.15	44554.44
616.30	44535.71
616.46	44542.74
616.61	43964.62
616.76	44121.44
616.92	44044.20
617.07	44519.33
617.22	44474.86
617.37	44030.16
617.53	44722.96
617.68	44498.26
617.83	44219.74
617.99	44268.89
618.14	44863.39
618.29	44292.30
618.45	44114.42
618.60	43990.37
618.75	44259.53
618.90	43973.98
619.06	43981.01
619.21	43789.08
619.36	44172.93
619.51	43887.39
619.67	43590.14
619.82	43620.56
619.97	44072.29
620.12	43707.16
620.28	43454.39
620.43	43847.60
620.58	43772.70
620.73	43917.81
620.89	43716.53
621.04	43955.26
621.19	43463.75
621.34	43346.72
621.49	43171.18
621.65	43807.81
621.80	43943.56
621.95	43459.07
622.10	43833.55
622.25	43540.99
622.41	43564.39
622.56	43739.93
622.71	43480.13
622.86	43367.79
623.01	43234.38
623.16	43803.13
623.32	43517.58
623.47	43363.11
623.62	43335.02
623.77	43058.84
623.92	43416.94
624.07	43084.58
624.23	42911.38
624.38	43065.86
624.53	43372.47
624.68	43147.78
624.83	43428.64
624.98	43122.03
625.13	43143.09
625.29	43007.34
625.44	42728.82
625.59	42689.03
625.74	43079.90
625.89	43210.97
626.04	43082.24
626.19	42843.51
626.34	42553.28
626.49	42780.31
626.65	42855.21
626.80	42766.27
626.95	42834.14
627.10	42436.25
627.25	42426.89
627.40	42340.29
627.55	42277.10
627.70	42384.76
627.85	42834.14
628.00	42440.93
628.15	42735.84
628.30	42436.25
628.45	42700.73
628.60	42300.50
628.76	42586.05
628.91	42087.51
629.06	42003.25
629.21	42143.69
629.36	42363.70
629.51	42052.41
629.66	42185.82
629.81	41923.68
629.96	42108.58
630.11	42085.17
630.26	42096.88
630.41	42705.41
630.56	42424.55
630.71	41947.08
630.86	41888.57
631.01	41551.53
631.16	41743.45
631.31	41415.78
631.46	41776.22
631.61	41591.32
631.76	41813.67
631.91	42234.97
632.06	42061.77
632.21	41523.44
632.36	41743.45
632.51	41736.43
632.66	41469.61
632.81	41427.48
632.96	41563.23
633.10	41443.87
633.25	41656.85
633.40	41226.20
633.55	41265.99
633.70	41565.57
633.85	41347.90
634.00	41336.20
634.15	41661.54
634.30	41280.03
634.45	41600.68
634.60	40971.08
634.75	40950.01
634.90	41158.32
635.05	41340.88
635.19	41280.03
635.34	41546.85
635.49	41057.68
635.64	41448.55
635.79	41614.72
635.94	40673.83
636.09	40704.26
636.24	40804.90
636.39	40549.78
636.53	40823.62
636.68	40673.83
636.83	40816.60
636.98	40849.37
637.13	40655.11
637.28	41043.63
637.43	41385.35
637.57	41120.87
637.72	40807.24
637.87	40655.11
638.02	40301.68
638.17	40858.73
638.32	40671.49
638.46	40189.34
638.61	40271.26
638.76	40531.06
638.91	40746.39
639.06	40332.11
639.20	40580.21
639.35	40399.99
639.50	39887.41
639.65	40566.16
639.80	40130.83
639.94	40470.20
640.09	40430.41
640.24	40706.60
640.39	40245.51
640.54	40259.55
640.68	40222.11
640.83	39955.29
640.98	39746.98
641.13	39777.40
641.27	40198.70
641.42	40116.78
641.57	40217.43
641.72	40062.95
641.86	40069.97
642.01	39583.14
642.16	39936.56
642.31	39447.39
642.45	39447.39
642.60	39758.68
642.75	39992.73
642.90	39824.22
643.04	40163.59
643.19	39468.45
643.34	39651.02
643.48	39426.32
643.63	39732.93
643.78	39864.00
643.93	39655.70
644.07	39351.43
644.22	39154.82
644.37	39332.70
644.51	39243.76
644.66	39590.16
644.81	39358.45
644.95	39337.38
645.10	39208.65
645.25	39278.87
645.39	39377.17
645.54	39512.92
645.69	39433.35
645.83	39512.92
645.98	39110.35
646.13	38726.50
646.27	39089.29
646.42	38885.66
646.57	39068.22
646.71	38939.49
646.86	38799.06
647.00	39409.94
647.15	39042.48
647.30	39222.70
647.44	39002.69
647.59	38810.76
647.74	38443.30
647.88	38948.85
648.03	38871.62
648.17	39026.09
648.32	38543.94
648.47	38796.72
648.61	38410.53
648.76	39157.16
648.90	38576.71
649.05	38932.47
649.20	38888.00
649.34	38808.42
649.49	38569.69
649.63	38518.20
649.78	38691.40
649.92	38773.31
650.07	38735.87
650.21	38387.13
650.36	38775.66
650.51	38527.56
650.65	38778.00
650.80	38850.55
650.94	38965.24
651.09	38646.93
651.23	38094.56
651.38	37490.70
651.52	38031.36
651.67	37750.50
651.81	37722.41
651.96	38401.17
652.10	38443.30
652.25	38183.50
652.39	38050.09
652.54	38050.09
652.68	38361.38
652.83	38417.55
652.97	38684.37
653.12	38667.99
653.26	37790.29
653.41	37502.40
653.55	38354.36
653.70	38370.74
653.84	37479.00
653.99	37624.11
654.13	37837.10
654.27	37425.17
654.42	37979.87
654.56	37581.98
654.71	38232.65
654.85	37755.18
655.00	38141.37
655.14	37654.54
655.29	37242.60
655.43	37116.22
655.57	36610.66
655.72	36847.05
655.86	37017.91
656.01	36598.96
656.15	36793.22
656.30	36987.49
656.44	37357.29
656.58	37549.21
656.73	37385.38
656.87	36893.86
657.01	36795.56
657.16	36680.88
657.30	36605.98
657.45	37223.88
657.59	36994.51
657.73	36954.72
657.88	36985.15
658.02	37165.37
658.16	36524.06
658.31	36598.96
658.45	36713.64
658.60	37156.00
658.74	37081.11
658.88	36793.22
659.03	36765.14
659.17	36374.27
659.31	36084.04
659.46	36362.56
659.60	36390.65
659.74	36346.18
659.89	36037.23
660.03	36559.17
660.17	36697.26
660.32	36821.31
660.46	36304.05
660.60	36411.71
660.74	36367.24
660.89	36348.52
661.03	35945.95
661.17	35894.46
661.32	36070.00
661.46	35758.70
661.60	35840.62
661.74	35959.99
661.89	35885.09
662.03	35803.17
662.17	36320.43
662.31	35641.68
662.46	36306.39
662.60	35669.76
662.74	35597.21
662.88	35498.91
663.03	35367.84
663.17	35316.34
663.31	35042.50
663.45	34831.85
663.60	35122.08
663.74	35129.10
663.88	35002.71
664.02	34955.90
664.17	35480.18
664.31	34639.93
664.45	34864.62
664.59	34897.39
664.73	35145.48
664.88	34937.18
665.02	34249.06
665.16	34438.64
665.30	34480.77
665.44	34754.61
665.59	34220.97
665.73	34623.54
665.87	34316.93
666.01	34452.69
666.15	34232.68
666.29	33970.54
666.44	34558.01
666.58	34270.12
666.72	33979.90
666.86	34274.80
667.00	34064.16
667.14	33787.97
667.28	34167.14
667.43	33846.49
667.57	34094.58
667.71	33869.89
667.85	34000.96
667.99	33649.88
668.13	34036.07
668.27	33549.24
668.41	34249.06
668.56	33579.67
668.70	33298.80
668.84	33053.05
668.98	33359.66
669.12	33048.36
669.26	32947.72
669.40	32671.54
669.54	32994.53
669.68	33193.48
669.82	33001.55
669.96	33141.99
670.10	32708.99
670.25	32772.18
670.39	32458.55
670.53	32858.78
670.67	32577.92
670.81	32488.98
670.95	32833.04
671.09	32217.47
671.23	32301.73
671.37	32133.21
671.51	32203.43
671.65	32449.19
671.79	32034.91
671.93	32156.62
672.07	31969.38
672.21	31807.88
672.35	32039.59
672.49	31777.45
672.63	31948.31
672.77	31910.86
672.91	31793.84
673.05	31477.86
673.19	31377.22
673.33	31096.36
673.47	31218.07
673.61	31545.74
673.75	31204.02
673.89	31388.92
674.03	30808.47
674.17	31257.85
674.31	31136.15
674.45	31075.29
674.59	31058.91
674.73	30998.06
674.87	30733.57
675.01	30930.18
675.15	30808.47
675.29	30782.73
675.43	30593.14
675.56	30438.67
675.70	30228.02
675.84	30654.00
675.98	29296.49
676.12	30045.46
676.26	30314.62
676.40	30181.21
676.54	30518.25
676.68	29839.49
676.82	29465.00
676.96	29916.73
677.10	29823.11
677.23	29378.40
677.37	29347.98
677.51	29280.10
677.65	28982.85
677.79	28797.95
677.93	28758.16
678.07	28540.49
678.21	28606.03
678.34	28545.17
678.48	28584.96
678.62	28470.28
678.76	28261.97
678.90	28039.62
679.04	27812.59
679.18	28397.72
679.31	28201.11
679.45	27777.48
679.59	28151.96
679.73	27810.25
679.87	27821.95
680.00	27733.01
680.14	27749.39
680.28	27400.65
680.42	27281.28
680.56	27122.13
680.70	27351.50
680.83	27318.73
680.97	26890.41
681.11	27302.35
681.25	27012.12
681.39	26796.79
681.52	26993.40
681.66	26675.09
681.80	26604.87
681.94	26141.44
682.07	26389.54
682.21	25879.30
682.35	26284.22
682.49	26424.65
682.62	25736.53
682.76	25692.06
682.90	26094.63
683.04	25914.41
683.17	25862.92
683.31	25542.27
683.45	25610.14
683.59	25509.50
683.72	25525.88
683.86	25518.86
684.00	25015.65
684.13	25032.03
684.27	24851.81
684.41	25125.65
684.55	24687.97
684.68	24821.38
684.82	24835.42
684.96	24786.27
685.09	24606.05
685.23	24470.30
685.37	24540.52
685.50	24498.39
685.64	24355.61
685.78	24463.28
685.91	24203.48
686.05	23861.76
686.19	23302.37
686.32	23763.46
686.46	23241.52
686.60	23426.42
686.73	22960.66
686.87	22721.92
687.01	23325.78
687.14	23138.54
687.28	22881.08
687.42	22904.48
687.55	22960.66
687.69	22813.20
687.82	22752.35
687.96	22871.72
688.10	22691.49
688.23	22576.81
688.37	21986.99
688.50	21998.70
688.64	22410.63
688.78	22391.91
688.91	21949.54
689.05	21954.22
689.18	21816.13
689.32	21764.64
689.46	21909.75
689.59	22064.23
689.73	21984.65
689.86	21619.53
690.00	21338.66
690.13	21607.83
690.27	21010.99
690.41	20819.07
690.54	21231.00
690.68	21055.46
690.81	21233.34
690.95	21226.32
691.08	21102.27
691.22	20875.24
691.35	20856.51
691.49	20842.47
691.62	20823.75
691.76	20767.57
691.89	20404.79
692.03	20531.18
692.16	20294.79
692.30	20147.33
692.43	20044.35
692.57	19943.70
692.70	19702.63
692.84	19719.01
692.97	19630.07
693.11	19330.48
693.24	19646.46
693.38	19566.88
693.51	19489.64
693.65	19412.40
693.78	19314.10
693.92	19314.10
694.05	18937.27
694.19	19389.00
694.32	19199.41
694.45	19232.18
694.59	19461.55
694.72	18703.22
694.86	18862.38
694.99	18724.29
695.13	18574.49
695.26	18803.86
695.39	18345.12
695.53	18483.21
695.66	18349.80
695.80	17736.58
695.93	18022.12
696.07	18136.81
696.20	18120.43
696.33	17998.72
696.47	17862.97
696.60	17998.72
696.73	17699.13
696.87	17703.81
697.00	17696.79
697.14	17305.92
697.27	17369.12
697.40	17310.60
697.54	17132.72
697.67	17331.67
697.80	17181.87
697.94	17221.66
698.07	16760.58
698.21	17006.33
698.34	17287.20
698.47	17144.42
698.61	16617.80
698.74	16652.91
698.87	16585.04
699.01	16538.23
699.14	15997.56
699.27	16350.98
699.40	16137.99
699.54	16074.80
699.67	15960.11
699.80	15864.15
699.94	16128.63
700.07	16093.52
700.20	15936.71
700.34	15878.19
700.47	15700.31
700.60	15737.76
700.73	15875.85
700.87	15463.92
701.00	15562.22
701.13	15492.01
701.26	15300.08
701.40	15178.37
701.53	15030.92
701.66	15239.23
701.79	15159.65
701.93	15143.27
702.06	14747.72
702.19	14689.20
702.32	14595.58
702.46	14654.09
702.59	14970.07
702.72	14892.83
702.85	14654.09
702.99	14633.03
703.12	14450.47
703.25	14537.07
703.38	14307.69
703.51	14169.60
703.65	14143.86
703.78	13853.63
703.91	13954.27
704.04	13874.70
704.17	14054.92
704.31	13968.32
704.44	13570.43
704.57	13490.85
704.70	13603.19
704.83	13322.33
704.96	13432.33
705.10	13631.28
705.23	13425.31
>>>>>End Processed Spectral Data<<<<<
