SpectraSuite Data File
++++++++++++++++++++++++++++++++++++
Date: Fri Oct 25 11:33:56 EDT 2013
User: price-jones
Dark Spectrum Present: No
Reference Spectrum Present: No
Number of Sampled Component Spectra: 1
Spectrometers: USB2+H05261
Integration Time (usec): 100000 (USB2+H05261)
Spectra Averaged: 1 (USB2+H05261)
Boxcar Smoothing: 0 (USB2+H05261)
Correct for Electrical Dark: No (USB2+H05261)
Strobe/Lamp Enabled: No (USB2+H05261)
Correct for Detector Non-linearity: No (USB2+H05261)
Correct for Stray Light: No (USB2+H05261)
Number of Pixels in Processed Spectrum: 2048
>>>>>Begin Processed Spectral Data<<<<<
365.73	278.52
365.92	278.52
366.12	278.52
366.32	161.50
366.52	149.79
366.72	182.56
366.91	142.77
367.11	166.18
367.31	205.97
367.51	189.58
367.70	124.05
367.90	208.31
368.10	238.73
368.30	191.92
368.49	173.20
368.69	236.39
368.89	231.71
369.09	222.35
369.28	224.69
369.48	131.07
369.68	212.99
369.87	217.67
370.07	210.65
370.27	250.44
370.47	311.29
370.66	545.34
370.86	514.92
371.06	573.43
371.25	540.66
371.45	521.94
371.65	526.62
371.84	596.84
372.04	608.54
372.24	550.03
372.44	507.90
372.63	622.58
372.83	638.97
373.03	575.77
373.22	636.63
373.42	557.05
373.62	603.86
373.81	697.48
374.01	667.05
374.21	711.52
374.40	669.39
374.60	683.44
374.79	610.88
374.99	678.76
375.19	624.92
375.38	737.27
375.58	596.84
375.78	713.86
375.97	650.67
376.17	723.23
376.37	784.08
376.56	657.69
376.76	660.03
376.95	627.26
377.15	706.84
377.35	669.39
377.54	685.78
377.74	699.82
377.93	669.39
378.13	671.73
378.33	718.54
378.52	734.93
378.72	711.52
378.91	711.52
379.11	699.82
379.31	699.82
379.50	732.59
379.70	730.25
379.89	758.33
380.09	683.44
380.28	692.80
380.48	741.95
380.68	760.67
380.87	758.33
381.07	767.70
381.26	713.86
381.46	725.57
381.65	781.74
381.85	727.91
382.04	819.19
382.24	739.61
382.43	760.67
382.63	681.10
382.83	765.36
383.02	809.83
383.22	805.14
383.41	835.57
383.61	847.27
383.80	805.14
384.00	805.14
384.19	814.51
384.39	816.85
384.58	788.76
384.78	833.23
384.97	800.46
385.17	795.78
385.36	837.91
385.56	870.68
385.75	840.25
385.95	828.55
386.14	912.81
386.34	940.90
386.53	861.32
386.72	891.74
386.92	856.64
387.11	833.23
387.31	809.83
387.50	966.64
387.70	903.45
387.89	826.21
388.09	861.32
388.28	856.64
388.48	873.02
388.67	903.45
388.86	898.77
389.06	877.70
389.25	964.30
389.45	945.58
389.64	901.11
389.84	964.30
390.03	987.71
390.22	952.60
390.42	1050.90
390.61	968.98
390.81	947.92
391.00	1055.58
391.19	971.32
391.39	1036.86
391.58	985.37
391.78	957.28
391.97	1032.18
392.16	1034.52
392.36	1022.81
392.55	1050.90
392.75	1025.15
392.94	1027.50
393.13	1048.56
393.33	1034.52
393.52	1118.78
393.71	1053.24
393.91	1135.16
394.10	1090.69
394.29	1095.37
394.49	1088.35
394.68	1181.97
394.88	1032.18
395.07	1100.05
395.26	1121.12
395.46	1167.93
395.65	1179.63
395.84	1210.06
396.04	1196.01
396.23	1160.91
396.42	1163.25
396.62	1149.20
396.81	1046.22
397.00	1125.80
397.19	1287.29
397.39	1224.10
397.58	1233.46
397.77	1245.16
397.97	1226.44
398.16	1233.46
398.35	1135.16
398.55	1259.21
398.74	1362.19
398.93	1329.42
399.12	1315.38
399.32	1320.06
399.51	1301.34
399.70	1348.15
399.90	1268.57
400.09	1277.93
400.28	1399.64
400.47	1371.55
400.67	1404.32
400.86	1490.92
401.05	1444.11
401.24	1434.75
401.44	1467.52
401.63	1476.88
401.82	1423.05
402.01	1439.43
402.21	1390.28
402.40	1502.62
402.59	1418.36
402.78	1493.26
402.97	1453.47
403.17	1544.75
403.36	1448.79
403.55	1547.09
403.74	1549.43
403.93	1572.84
404.13	1572.84
404.32	1650.08
404.51	1652.42
404.70	1605.61
404.89	1589.22
405.09	1666.46
405.28	1680.50
405.47	1617.31
405.66	1600.93
405.85	1753.06
406.05	1682.85
406.24	1734.34
406.43	1746.04
406.62	1832.64
406.81	1771.79
407.00	1795.19
407.20	1727.32
407.39	1839.66
407.58	1813.92
407.77	1884.13
407.96	1989.46
408.15	1905.20
408.34	1930.94
408.54	1940.30
408.73	1898.17
408.92	1881.79
409.11	1881.79
409.30	1996.48
409.49	2022.22
409.68	1989.46
409.87	2003.50
410.07	1963.71
410.26	1982.43
410.45	2043.29
410.64	2155.63
410.83	2183.72
411.02	2118.18
411.21	2136.91
411.40	2106.48
411.59	2282.02
411.78	2181.38
411.98	2136.91
412.17	2246.91
412.36	2197.76
412.55	2296.07
412.74	2352.24
412.93	2312.45
413.12	2321.81
413.31	2382.67
413.50	2347.56
413.69	2321.81
413.88	2480.97
414.07	2480.97
414.26	2469.27
414.45	2450.54
414.64	2462.24
414.83	2525.44
415.02	2612.04
415.22	2738.43
415.41	2586.29
415.60	2581.61
415.79	2703.32
415.98	2586.29
416.17	2759.49
416.36	2780.56
416.55	2722.04
416.74	2799.28
416.93	2747.79
417.12	2841.41
417.31	2743.11
417.50	2834.39
417.69	2888.22
417.88	2913.97
418.07	2860.13
418.26	2885.88
418.45	2928.01
418.64	3056.74
418.83	3070.78
419.02	2937.37
419.21	3023.97
419.39	3066.10
419.58	2867.16
419.77	2984.18
419.96	3183.13
420.15	3213.56
420.34	3117.59
420.53	3279.09
420.72	3096.53
420.91	3262.71
421.10	3131.64
421.29	3239.30
421.48	3279.09
421.67	3384.41
421.86	3141.00
422.05	3187.81
422.24	3309.52
422.43	3363.35
422.61	3318.88
422.80	3442.93
422.99	3372.71
423.18	3456.97
423.37	3377.39
423.56	3318.88
423.75	3293.13
423.94	3344.63
424.13	3272.07
424.32	3295.47
424.50	3251.00
424.69	3492.08
424.88	3520.17
425.07	3471.01
425.26	3438.25
425.45	3346.97
425.64	3393.78
425.83	3304.84
426.01	3541.23
426.20	3564.64
426.39	3456.97
426.58	3454.63
426.77	3506.12
426.96	3403.14
427.15	3513.14
427.33	3581.02
427.52	3564.64
427.71	3562.30
427.90	3564.64
428.09	3585.70
428.28	3588.04
428.46	3646.55
428.65	3639.53
428.84	3808.05
429.03	3702.73
429.22	3794.01
429.40	3775.28
429.59	3735.50
429.78	3583.36
429.97	3595.06
430.16	3817.41
430.34	3831.46
430.53	3786.99
430.72	3824.44
430.91	3742.52
431.10	3836.14
431.28	3920.40
431.47	3733.15
431.66	3995.29
431.85	4044.45
432.03	3957.85
432.22	3971.89
432.41	3932.10
432.60	3969.55
432.79	4032.74
432.97	4215.30
433.16	4114.66
433.35	4198.92
433.54	4086.58
433.72	4210.62
433.91	4098.28
434.10	4198.92
434.28	4308.93
434.47	4271.48
434.66	4219.99
434.85	4257.43
435.03	4400.21
435.22	4245.73
435.41	4351.06
435.59	4411.91
435.78	4318.29
435.97	4367.44
436.16	4425.95
436.34	4379.14
436.53	4383.82
436.72	4575.75
436.90	4395.53
437.09	4528.94
437.28	4238.71
437.46	4362.76
437.65	4573.41
437.84	4765.33
438.02	4519.57
438.21	4587.45
438.40	4545.32
438.58	4877.68
438.77	4638.94
438.96	4702.14
439.14	4842.57
439.33	4739.58
439.52	4966.62
439.70	4690.43
439.89	4980.66
440.08	4959.60
440.26	5151.52
440.45	5025.13
440.63	5125.77
440.82	5212.37
441.01	4992.36
441.19	5181.95
441.38	5170.24
441.57	5259.18
441.75	5249.82
441.94	5413.66
442.12	5399.62
442.31	5376.21
442.50	5401.96
442.68	5296.63
442.87	5427.70
443.05	5483.88
443.24	5444.09
443.43	5453.45
443.61	5572.82
443.80	5610.26
443.98	5535.37
444.17	5205.35
444.35	5563.45
444.54	5633.67
444.73	5661.76
444.91	5603.24
445.10	5570.48
445.28	5612.60
445.47	5650.05
445.65	5497.92
445.84	5713.25
446.02	5720.27
446.21	5479.19
446.39	5486.22
446.58	5865.38
446.77	5586.86
446.95	5521.32
447.14	5731.97
447.32	5734.31
447.51	5544.73
447.69	5654.73
447.88	5621.97
448.06	5863.04
448.25	5849.00
448.43	5907.51
448.62	5832.62
448.80	5703.89
448.99	5654.73
449.17	5879.43
449.36	5806.87
449.54	5975.39
449.73	5944.96
449.91	5956.66
450.10	5987.09
450.28	5977.73
450.46	6029.22
450.65	5998.79
450.83	5867.72
451.02	6122.84
451.20	6246.89
451.39	6064.33
451.57	6085.39
451.76	5956.66
451.94	6113.48
452.13	6202.42
452.31	6382.64
452.49	6150.93
452.68	6263.27
452.86	6392.00
453.05	6324.13
453.23	6422.43
453.42	6223.48
453.60	6169.65
453.78	6431.79
453.97	6312.42
454.15	6277.32
454.34	6356.90
454.52	6487.96
454.70	6579.25
454.89	6511.37
455.07	6523.07
455.26	6548.82
455.44	6682.23
455.62	6555.84
455.81	6689.25
455.99	6600.31
456.17	6607.33
456.36	6794.58
456.54	6544.14
456.73	6909.26
456.91	7110.55
457.09	6942.03
457.28	6909.26
457.46	7033.31
457.64	7056.72
457.83	7019.27
458.01	7173.74
458.19	7035.65
458.38	6916.28
458.56	7103.53
458.74	7061.40
458.93	7096.50
459.11	7400.77
459.29	7105.87
459.48	7243.96
459.66	7124.59
459.84	7274.38
460.03	7140.97
460.21	7407.80
460.39	7239.28
460.57	7386.73
460.76	7262.68
460.94	7578.65
461.12	7508.44
461.31	7566.95
461.49	7363.33
461.67	7456.95
461.85	7777.60
462.04	7623.12
462.22	7838.45
462.40	7740.15
462.59	7552.91
462.77	7840.79
462.95	7793.98
463.13	7620.78
463.32	7836.11
463.50	7648.87
463.68	7868.88
463.86	7887.61
464.05	7758.88
464.23	7887.61
464.41	8002.29
464.59	7789.30
464.78	8074.85
464.96	8009.31
465.14	7721.43
465.32	7953.14
465.50	8114.64
465.69	7894.63
465.87	8018.68
466.05	8028.04
466.23	8044.42
466.41	7911.01
466.60	8121.66
466.78	7868.88
466.96	8180.17
467.14	8184.85
467.32	8051.44
467.51	8191.88
467.69	8067.83
467.87	8173.15
468.05	8425.93
468.23	7983.57
468.41	8299.54
468.60	8400.18
468.78	8297.20
468.96	8390.82
469.14	8603.81
469.32	8575.72
469.50	8486.78
469.69	8746.58
469.87	8692.75
470.05	8498.49
470.23	8795.73
470.41	8865.95
470.59	8690.41
470.77	8833.18
470.95	8847.22
471.14	9020.42
471.32	8659.98
471.50	8912.76
471.68	8896.38
471.86	8966.59
472.04	9107.02
472.22	9165.54
472.40	8947.87
472.58	9092.98
472.77	9156.18
472.95	9149.15
473.13	9675.77
473.31	9198.31
473.49	9202.99
473.67	9458.10
473.85	9458.10
474.03	9671.09
474.21	9467.47
474.39	9586.83
474.57	9886.42
474.75	10045.58
474.93	9790.46
475.12	9940.26
475.30	9928.55
475.48	9942.60
475.66	10043.24
475.84	10052.60
476.02	9994.09
476.20	10258.57
476.38	10377.94
476.56	10766.46
476.74	10553.48
476.92	10534.75
477.10	10611.99
477.28	10480.92
477.46	10530.07
477.64	10604.97
477.82	10909.24
478.00	11009.88
478.18	10958.39
478.36	11192.44
478.54	11173.72
478.72	11316.49
478.90	11513.10
479.08	11494.37
479.26	11276.70
479.44	11700.34
479.62	11555.22
479.80	11791.62
479.98	11779.92
480.16	12086.53
480.34	12060.78
480.52	12006.95
480.70	12238.66
480.88	11967.16
481.06	12383.77
481.24	12243.34
481.41	12500.80
481.59	12702.09
481.77	12589.74
481.95	12922.10
482.13	12915.08
482.31	12828.48
482.49	13242.75
482.67	13027.42
482.85	13310.63
483.03	13252.11
483.21	13642.98
483.39	13392.55
483.57	13593.83
483.74	13537.66
483.92	13832.57
484.10	13790.44
484.28	14167.26
484.46	14518.34
484.64	14726.65
484.82	14253.86
485.00	14340.46
485.18	14754.74
485.35	14979.43
485.53	15262.63
485.71	14944.32
485.89	15435.83
486.07	15199.44
486.25	15339.87
486.43	15552.86
486.61	15606.69
486.78	15611.37
486.96	15569.24
487.14	15964.79
487.32	16070.12
487.50	16180.12
487.68	16308.85
487.85	16409.50
488.03	16505.46
488.21	16929.09
488.39	16886.97
488.57	16968.88
488.75	17114.00
488.92	17242.73
489.10	17247.41
489.28	17319.96
489.46	17537.63
489.64	17568.06
489.81	17820.84
489.99	18169.58
490.17	18167.24
490.35	18267.88
490.53	18370.86
490.70	18541.72
490.88	18377.89
491.06	18501.93
491.24	18665.77
491.41	18888.12
491.59	19061.32
491.77	18906.85
491.95	19105.79
492.13	19208.78
492.30	19403.04
492.48	19559.86
492.66	19538.79
492.84	19777.53
493.01	20037.33
493.19	19974.13
493.37	20175.42
493.54	20030.30
493.72	20362.66
493.90	20273.72
494.08	20568.63
494.25	20872.90
494.43	20795.66
494.61	20458.62
494.79	21289.51
494.96	20779.28
495.14	21425.26
495.32	21511.86
495.49	21614.85
495.67	21490.80
495.85	21654.64
496.02	22319.35
496.20	22164.87
496.38	22162.53
496.55	21979.97
496.73	22682.13
496.91	22492.55
497.09	22597.87
497.26	22789.80
497.44	22735.96
497.62	22738.30
497.79	23035.55
497.97	23229.82
498.14	23414.72
498.32	23391.31
498.50	23784.52
498.67	23716.65
498.85	23386.63
499.03	23651.11
499.20	24027.94
499.38	24133.26
499.56	24219.86
499.73	24100.50
499.91	24191.78
500.08	24907.98
500.26	24411.79
500.44	24685.63
500.61	24615.41
500.79	24615.41
500.97	24826.06
501.14	25081.18
501.32	24774.57
501.49	24987.56
501.67	25261.40
501.84	25373.75
502.02	25230.98
502.20	25181.82
502.37	25628.87
502.55	25340.98
502.72	25638.23
502.90	25614.82
503.07	25788.02
503.25	26136.76
503.43	25671.00
503.60	26206.98
503.78	26567.42
503.95	26085.27
504.13	26192.94
504.30	26202.30
504.48	26457.42
504.65	26544.02
504.83	26494.86
505.01	26874.03
505.18	26644.66
505.36	27140.85
505.53	26885.73
505.71	27136.17
505.88	27101.06
506.06	27037.87
506.23	27222.77
506.41	27363.20
506.58	27377.25
506.76	27482.57
506.93	27566.83
507.11	27700.24
507.28	27791.52
507.46	27627.68
507.63	28151.96
507.81	28400.06
507.98	27927.27
508.16	27960.04
508.33	28458.57
508.50	28381.34
508.68	28512.41
508.85	28772.21
509.03	28657.52
509.20	28453.89
509.38	28989.88
509.55	28875.19
509.73	29132.65
509.90	29069.45
510.08	29104.56
510.25	29670.97
510.42	29453.30
510.60	29329.25
510.77	29481.39
510.95	29998.65
511.12	29628.84
511.30	29399.47
511.47	29486.07
511.64	29715.44
511.82	30064.18
511.99	30134.40
512.17	30195.25
512.34	30387.18
512.51	30586.12
512.69	30483.14
512.86	30551.01
513.04	30684.42
513.21	30356.75
513.38	30714.85
513.56	30946.56
513.73	31115.08
513.90	31346.79
514.08	31159.55
514.25	31335.09
514.43	31388.92
514.60	31112.74
514.77	31365.52
514.95	31599.57
515.12	31508.29
515.29	31637.02
515.47	31735.32
515.64	31679.15
515.81	31594.89
515.99	31456.80
516.16	31782.13
516.33	32320.46
516.51	32552.17
516.68	31875.76
516.85	31950.65
517.03	32374.29
517.20	32402.38
517.37	32133.21
517.54	32456.21
517.72	32924.32
517.89	32446.85
518.06	32540.47
518.24	33097.52
518.41	32645.79
518.58	32807.29
518.75	32699.62
518.93	33149.01
519.10	33181.77
519.27	33242.63
519.45	33092.83
519.62	33158.37
519.79	33823.08
519.96	33387.74
520.14	33841.81
520.31	33577.33
520.48	33893.30
520.65	33727.12
520.83	34057.14
521.00	34263.10
521.17	33872.23
521.34	33816.06
521.52	34045.43
521.69	34071.18
521.86	34232.68
522.03	34277.15
522.20	34639.93
522.38	34810.79
522.55	34700.78
522.72	34738.23
522.89	35007.39
523.07	35072.93
523.24	34836.53
523.41	34923.13
523.58	34878.66
523.75	35129.10
523.92	35030.80
524.10	34930.16
524.27	35538.69
524.44	35463.80
524.61	35442.73
524.78	35597.21
524.96	35606.57
525.13	35873.39
525.30	35765.73
525.47	36072.34
525.64	35669.76
525.81	35985.74
525.98	35831.26
526.16	36091.06
526.33	35833.60
526.50	36247.88
526.67	35857.01
526.84	36165.96
527.01	35985.74
527.18	35910.84
527.36	36297.03
527.53	36280.64
527.70	37038.98
527.87	36849.39
528.04	36566.19
528.21	36952.38
528.38	36711.30
528.55	36877.48
528.72	37090.47
528.89	36767.48
529.07	36332.14
529.24	36669.17
529.41	37088.13
529.58	37209.84
529.75	37420.48
529.92	37090.47
530.09	37598.37
530.26	37205.16
530.43	37530.49
530.60	37062.38
530.77	37221.54
530.94	37326.86
531.11	36844.71
531.28	37549.21
531.46	37769.22
531.63	37560.92
531.80	37584.32
531.97	37949.45
532.14	38494.79
532.31	37766.88
532.48	38134.35
532.65	38609.48
532.82	38333.29
532.99	38321.59
533.16	38096.90
533.33	38714.80
533.50	38061.79
533.67	38749.91
533.84	37890.93
534.01	38115.62
534.18	38817.78
534.35	38862.26
534.52	39152.48
534.69	39189.93
534.86	39047.16
535.03	38967.58
535.20	39260.15
535.37	39037.80
535.54	39646.33
535.71	39115.03
535.88	39416.96
536.05	39428.66
536.22	38810.76
536.38	39477.82
536.55	39407.60
536.72	39524.63
536.89	39335.04
537.06	39295.25
537.23	39723.57
537.40	39428.66
537.57	39557.39
537.74	39695.49
537.91	39899.11
538.08	39480.16
538.25	39618.25
538.42	39758.68
538.59	40112.10
538.75	39580.80
538.92	40130.83
539.09	40261.90
539.26	40023.16
539.43	39871.03
539.60	40215.08
539.77	40210.40
539.94	40439.78
540.11	40657.45
540.28	40177.64
540.44	40149.55
540.61	40470.20
540.78	40842.35
540.95	40350.84
541.12	40514.67
541.29	40140.19
541.46	40711.28
541.62	40699.58
541.79	40875.12
541.96	40245.51
542.13	40851.71
542.30	40545.10
542.47	40699.58
542.63	41074.06
542.80	41406.42
542.97	41516.42
543.14	41794.95
543.31	41338.54
543.48	41207.47
543.64	41808.99
543.81	41748.14
543.98	42019.64
544.15	41755.16
544.32	41808.99
544.48	42155.39
544.65	41743.45
544.82	41734.09
544.99	41722.39
545.16	42241.99
545.32	41722.39
545.49	42230.29
545.66	42983.94
545.83	42494.77
546.00	42347.31
546.16	42005.59
546.33	41865.16
546.50	41940.06
546.67	41933.04
546.83	41993.89
547.00	42220.92
547.17	42061.77
547.34	42368.38
547.50	42644.56
547.67	43082.24
547.84	42466.68
548.00	42593.07
548.17	42862.23
548.34	42529.87
548.51	42733.50
548.67	43194.59
548.84	43505.88
549.01	42515.83
549.18	42674.99
549.34	43337.36
549.51	43421.62
549.68	43346.72
549.84	42962.87
550.01	42703.07
550.18	43103.31
550.34	43203.95
550.51	43519.92
550.68	43374.81
550.84	42974.58
551.01	43353.74
551.18	43337.36
551.34	43330.34
551.51	43419.28
551.68	43229.69
551.84	43711.84
552.01	43386.51
552.18	43880.36
552.34	43693.12
552.51	43634.61
552.68	43395.87
552.84	43552.69
553.01	44156.55
553.18	43557.37
553.34	43498.86
553.51	43786.74
553.67	43948.24
553.84	44339.11
554.01	44163.57
554.17	43997.39
554.34	44421.03
554.51	43929.51
554.67	44348.47
554.84	44481.88
555.00	43856.96
555.17	44091.01
555.33	44196.34
555.50	44126.12
555.67	44020.80
555.83	44638.70
556.00	44158.89
556.16	44706.57
556.33	44626.99
556.50	44641.04
556.66	44432.73
556.83	44137.82
556.99	44781.47
557.16	44898.50
557.32	44671.46
557.49	44781.47
557.65	44563.80
557.82	44844.66
557.98	44989.78
558.15	44807.22
558.32	44428.05
558.48	45001.48
558.65	44465.50
558.81	45008.50
558.98	45144.25
559.14	44296.98
559.31	44676.15
559.47	44839.98
559.64	44982.76
559.80	44933.60
559.97	44900.84
560.13	45275.32
560.30	44954.67
560.46	45275.32
560.63	45324.47
560.79	44954.67
560.96	45677.90
561.12	45537.46
561.29	45387.67
561.45	45172.34
561.61	45179.36
561.78	45640.45
561.94	45310.43
562.11	44971.05
562.27	45326.81
562.44	45492.99
562.60	45275.32
562.77	45481.29
562.93	45223.83
563.10	45469.59
563.26	45347.88
563.42	45755.13
563.59	45584.27
563.75	45471.93
563.92	45769.18
564.08	45338.52
564.24	45874.50
564.41	45504.70
564.57	45691.94
564.74	45399.37
564.90	45368.94
565.07	45584.27
565.23	45666.19
565.39	45729.39
565.56	45888.54
565.72	45783.22
565.88	45823.01
566.05	45488.31
566.21	45593.64
566.38	45893.22
566.54	45787.90
566.70	46124.94
566.87	46232.60
567.03	45567.89
567.19	45965.78
567.36	45970.46
567.52	45911.95
567.68	45975.14
567.85	45993.87
568.01	45940.04
568.17	45677.90
568.34	46054.72
568.50	45858.12
568.66	46089.83
568.83	45909.61
568.99	46124.94
569.15	46314.52
569.32	46330.90
569.48	46213.88
569.64	46387.08
569.81	46237.28
569.97	46506.44
570.13	46241.96
570.30	46227.92
570.46	46321.54
570.62	46761.56
570.78	46340.27
570.95	45661.51
571.11	46621.13
571.27	46316.86
571.43	46232.60
571.60	46017.27
571.76	46237.28
571.92	46227.92
572.09	46183.45
572.25	46129.62
572.41	45914.29
572.57	46396.44
572.74	46742.84
572.90	46426.87
573.06	46623.47
573.22	46387.08
573.38	46487.72
573.55	46504.10
573.71	46656.24
573.87	46677.30
574.03	46354.31
574.20	47009.66
574.36	46340.27
574.52	46902.00
574.68	46653.90
574.84	46761.56
575.01	46979.23
575.17	46712.41
575.33	46597.73
575.49	46780.29
575.65	46864.55
575.82	46391.76
575.98	46354.31
576.14	47061.15
576.30	46710.07
576.46	46733.48
576.62	46703.05
576.79	46845.82
576.95	46230.26
577.11	46504.10
577.27	46745.18
577.43	46700.71
577.59	46714.75
577.75	46632.83
577.92	46356.65
578.08	46768.58
578.24	46773.27
578.40	47077.54
578.56	46658.58
578.72	46703.05
578.88	46761.56
579.04	46843.48
579.21	46497.08
579.37	46642.20
579.53	46927.74
579.69	46773.27
579.85	46494.74
580.01	47061.15
580.17	46555.60
580.33	46927.74
580.49	47206.26
580.65	46518.15
580.82	46571.98
580.98	46660.92
581.14	46698.37
581.30	46679.64
581.46	46808.37
581.62	46803.69
581.78	46469.00
581.94	46621.13
582.10	46637.51
582.26	46972.21
582.42	46473.68
582.58	47133.71
582.74	46600.07
582.90	46689.01
583.06	47117.32
583.22	46766.24
583.38	47129.03
583.54	47042.43
583.70	46983.91
583.86	47264.78
584.02	46981.57
584.18	47054.13
584.34	46855.18
584.50	47187.54
584.66	46813.05
584.82	47089.24
584.98	47320.95
585.14	47194.56
585.30	47114.98
585.46	46707.73
585.62	47227.33
585.78	46958.17
585.94	46576.66
586.10	47271.80
586.26	46787.31
586.42	47119.66
586.58	46958.17
586.74	46902.00
586.90	46754.54
587.06	47002.64
587.22	47229.67
587.38	47012.00
587.54	47302.23
587.70	47522.24
587.86	46787.31
588.02	46803.69
588.18	46813.05
588.34	46923.06
588.49	47124.35
588.65	46445.59
588.81	47091.58
588.97	46918.38
589.13	46911.36
589.29	47093.92
589.45	47213.29
589.61	47419.25
589.77	47480.11
589.93	46649.22
590.08	47217.97
590.24	47601.82
590.40	47419.25
590.56	47852.25
590.72	47655.65
590.88	47262.44
591.04	47702.46
591.20	47461.38
591.35	47447.34
591.51	47672.03
591.67	47604.16
591.83	47538.62
591.99	47592.45
592.15	47419.25
592.31	47112.64
592.46	47122.01
592.62	47056.47
592.78	47545.64
592.94	47737.57
593.10	47887.36
593.26	47957.58
593.41	47948.21
593.57	47543.30
593.73	47906.08
593.89	48055.88
594.05	47828.85
594.20	47700.12
594.36	48327.38
594.52	47772.67
594.68	47618.20
594.84	47533.94
594.99	48463.13
595.15	47805.44
595.31	48027.79
595.47	47735.23
595.62	47915.45
595.78	47405.21
595.94	47641.60
596.10	47416.91
596.25	47819.49
596.41	47969.28
596.57	47835.87
596.73	47838.21
596.88	47845.23
597.04	47753.95
597.20	47934.17
597.36	47491.81
597.51	47903.74
597.67	47414.57
597.83	47878.00
597.99	47812.46
598.14	47845.23
598.30	47533.94
598.46	47903.74
598.61	48055.88
598.77	47959.92
598.93	47896.72
599.09	47622.88
599.24	48114.39
599.40	48044.18
599.56	47756.29
599.71	48545.05
599.87	48650.38
600.03	47962.26
600.18	47842.89
600.34	47941.19
600.50	47999.71
600.65	47889.70
600.81	48208.01
600.97	48041.84
601.12	48140.14
601.28	47948.21
601.44	47920.13
601.59	48055.88
601.75	47821.83
601.91	47952.90
602.06	48266.53
602.22	48147.16
602.37	48200.99
602.53	48009.07
602.69	48151.84
602.84	47620.54
603.00	47847.57
603.16	48250.14
603.31	47819.49
603.47	48329.72
603.62	48128.44
603.78	48062.90
603.94	47990.34
604.09	47988.00
604.25	48079.28
604.40	47840.55
604.56	47711.82
604.71	48109.71
604.87	47751.61
605.03	47922.47
605.18	47728.20
605.34	47653.31
605.49	47779.70
605.65	48116.73
605.80	47363.08
605.96	47674.37
606.12	47889.70
606.27	47957.58
606.43	47868.64
606.58	47833.53
606.74	47812.46
606.89	47948.21
607.05	47627.56
607.20	47613.52
607.36	47917.79
607.51	47833.53
607.67	47468.40
607.82	47662.67
607.98	47622.88
608.13	47948.21
608.29	47395.85
608.44	47487.13
608.60	47222.65
608.75	47913.11
608.91	47676.71
609.06	47269.46
609.22	47810.12
609.37	47496.49
609.53	47782.04
609.68	47657.99
609.84	48083.97
609.99	47363.08
610.15	47468.40
610.30	47824.17
610.46	47543.30
610.61	47613.52
610.76	48051.20
610.92	47349.04
611.07	47456.70
611.23	47379.46
611.38	47540.96
611.54	47468.40
611.69	47543.30
611.84	47611.18
612.00	47306.91
612.15	47669.69
612.31	47576.07
612.46	46850.50
612.62	47004.98
612.77	47229.67
612.92	47555.00
613.08	47356.06
613.23	47363.08
613.39	47468.40
613.54	47290.52
613.69	47360.74
613.85	47187.54
614.00	47302.23
614.15	47531.60
614.31	47100.94
614.46	46866.89
614.62	47105.62
614.77	47131.37
614.92	47154.77
615.08	47271.80
615.23	47086.90
615.38	47461.38
615.54	47227.33
615.69	47075.19
615.84	47004.98
616.00	47072.85
616.15	46642.20
616.30	47248.39
616.46	47311.59
616.61	47000.30
616.76	46976.89
616.92	46883.27
617.07	47124.35
617.22	46845.82
617.37	46525.17
617.53	46742.84
617.68	46534.53
617.83	46532.19
617.99	47126.69
618.14	47337.33
618.29	46770.93
618.45	46677.30
618.60	46478.36
618.75	46909.02
618.90	46852.84
619.06	46611.77
619.21	47063.49
619.36	46600.07
619.51	46403.46
619.67	46286.43
619.82	46302.82
619.97	46974.55
620.12	46583.68
620.28	46649.22
620.43	46731.14
620.58	46658.58
620.73	46880.93
620.89	46841.14
621.04	46780.29
621.19	46562.62
621.34	46052.38
621.49	46691.35
621.65	46075.79
621.80	46864.55
621.95	45888.54
622.10	46253.67
622.25	46244.30
622.41	46185.79
622.56	46445.59
622.71	46230.26
622.86	46319.20
623.01	46263.03
623.16	46026.63
623.32	45794.92
623.47	46260.69
623.62	45909.61
623.77	46265.37
623.92	46129.62
624.07	46234.94
624.23	45942.38
624.38	45865.14
624.53	46209.20
624.68	45993.87
624.83	45867.48
624.98	46045.36
625.13	45991.53
625.29	45897.91
625.44	45841.73
625.59	45991.53
625.74	45839.39
625.89	45605.34
626.04	45930.67
626.19	45457.88
626.34	45528.10
626.49	45523.42
626.65	45120.85
626.80	45811.31
626.95	45272.98
627.10	45326.81
627.25	45631.08
627.40	45455.54
627.55	45698.96
627.70	45504.70
627.85	45670.87
628.00	45687.26
628.15	45390.01
628.30	44858.71
628.45	44928.92
628.60	44793.17
628.76	45031.91
628.91	44905.52
629.06	44905.52
629.21	44959.35
629.36	45219.15
629.51	45263.62
629.66	45755.13
629.81	45338.52
629.96	45024.89
630.11	44940.63
630.26	44968.71
630.41	45375.97
630.56	45240.21
630.71	45158.30
630.86	44722.96
631.01	44673.81
631.16	44891.48
631.31	44626.99
631.46	44626.99
631.61	45619.38
631.76	44856.37
631.91	44722.96
632.06	45095.10
632.21	44671.46
632.36	45343.20
632.51	44406.98
632.66	44919.56
632.81	44767.43
632.96	44839.98
633.10	44786.15
633.25	44898.50
633.40	44851.69
633.55	44774.45
633.70	44535.71
633.85	44594.23
634.00	44177.61
634.15	44339.11
634.30	44411.67
634.45	44409.32
634.60	44299.32
634.75	44392.94
634.90	44516.99
635.05	44491.24
635.19	44528.69
635.34	44460.82
635.49	44030.16
635.64	44652.74
635.79	44591.89
635.94	44533.37
636.09	44299.32
636.24	44376.56
636.39	44254.85
636.53	44037.18
636.68	43784.40
636.83	43941.22
636.98	44130.80
637.13	43538.65
637.28	43749.29
637.43	44112.08
637.57	44079.31
637.72	43751.63
637.87	43381.83
638.02	44163.57
638.17	43461.41
638.32	43393.53
638.46	43377.15
638.61	43360.76
638.76	43800.79
638.91	43459.07
639.06	43299.91
639.20	43161.82
639.35	43590.14
639.50	43028.41
639.65	43805.47
639.80	43772.70
639.94	43735.25
640.09	43756.32
640.24	43744.61
640.39	43260.12
640.54	43182.88
640.68	42974.58
640.83	43435.66
640.98	42880.95
641.13	43290.55
641.27	43578.43
641.42	43136.07
641.57	43353.74
641.72	43250.76
641.86	43047.13
642.01	43377.15
642.16	43115.01
642.31	42569.66
642.45	43295.23
642.60	42855.21
642.75	42878.61
642.90	43356.08
643.04	42986.28
643.19	42974.58
643.34	42410.51
643.48	42632.86
643.63	42473.70
643.78	42873.93
643.93	43096.28
644.07	43098.62
644.22	42653.92
644.37	42775.63
644.51	43241.40
644.66	43061.18
644.81	42824.78
644.95	42899.68
645.10	42763.93
645.25	42113.26
645.39	42557.96
645.54	42490.09
645.69	42029.00
645.83	42174.11
645.98	42314.55
646.13	42721.80
646.27	42682.01
646.42	42045.38
646.57	42319.23
646.71	42546.26
646.86	42164.75
647.00	42270.08
647.15	42513.49
647.30	42520.51
647.44	42029.00
647.59	42335.61
647.74	42113.26
647.88	42220.92
648.03	42480.72
648.17	42241.99
648.32	42387.10
648.47	42141.35
648.61	42073.47
648.76	42146.03
648.90	42007.94
649.05	42293.48
649.20	41764.52
649.34	41757.50
649.49	41944.74
649.63	42141.35
649.78	42078.15
649.92	42344.97
650.07	42319.23
650.21	41947.08
650.36	42281.78
650.51	41860.48
650.65	42073.47
650.80	42012.62
650.94	42174.11
651.09	41523.44
651.23	41645.15
651.38	41771.54
651.52	41476.63
651.67	41804.31
651.81	41083.42
651.96	41287.05
652.10	41153.64
652.25	41514.08
652.39	41319.82
652.54	41488.34
652.68	41738.77
652.83	41558.55
652.97	41670.90
653.12	41558.55
653.26	41738.77
653.41	41130.23
653.55	41483.66
653.70	41174.70
653.84	41504.72
653.99	41715.37
654.13	41453.23
654.27	41003.85
654.42	41045.97
654.56	40856.39
654.71	40938.31
654.85	41301.09
655.00	41399.40
655.14	41106.83
655.29	41130.23
655.43	41134.92
655.57	40711.28
655.72	40500.63
655.86	40811.92
656.01	40746.39
656.15	40446.80
656.30	40744.05
656.44	41160.66
656.58	40584.89
656.73	40570.85
656.87	40179.98
657.01	40313.39
657.16	40809.58
657.30	40215.08
657.45	40692.55
657.59	40156.57
657.73	40095.72
657.88	40549.78
658.02	40521.69
658.16	40755.75
658.31	40318.07
658.45	40945.33
658.60	40114.44
658.74	40657.45
658.88	40636.38
659.03	40051.25
659.17	39735.27
659.31	39950.60
659.46	40205.72
659.60	39988.05
659.74	39536.33
659.89	39962.31
660.03	39281.21
660.17	40011.46
660.32	39676.76
660.46	39821.87
660.60	39136.10
660.74	39555.05
660.89	39592.50
661.03	39510.58
661.17	39068.22
661.32	39290.57
661.46	39538.67
661.60	39194.61
661.74	39182.91
661.89	39084.61
662.03	39374.83
662.17	38824.81
662.31	39157.16
662.46	38864.60
662.60	38824.81
662.74	38794.38
662.88	38731.18
663.03	38447.98
663.17	38146.05
663.31	38405.85
663.45	38616.50
663.60	38583.73
663.74	38408.19
663.88	38576.71
664.02	38302.87
664.17	38506.49
664.31	38553.30
664.45	38089.88
664.59	38227.97
664.73	38359.04
664.88	38511.17
665.02	37780.93
665.16	37773.91
665.30	37804.33
665.44	38139.03
665.59	37687.31
665.73	37706.03
665.87	37532.83
666.01	37710.71
666.15	37947.11
666.29	37364.31
666.44	37757.52
666.58	37383.04
666.72	37282.39
666.86	37256.65
667.00	37069.40
667.14	37378.36
667.28	37043.66
667.43	37017.91
667.57	37170.05
667.71	37303.46
667.85	37387.72
667.99	36957.06
668.13	36835.35
668.27	37167.71
668.41	36634.06
668.56	36762.79
668.70	36573.21
668.84	36514.70
668.98	36472.57
669.12	36685.56
669.26	36636.41
669.40	36535.76
669.54	36474.91
669.68	36538.10
669.82	36194.04
669.96	35826.58
670.10	35747.00
670.25	35957.65
670.39	36011.48
670.53	35646.36
670.67	35962.33
670.81	36123.83
670.95	35880.41
671.09	35421.67
671.23	35431.03
671.37	35669.76
671.51	35278.89
671.65	35208.68
671.79	35021.44
671.93	35758.70
672.07	35157.19
672.21	35358.47
672.35	34834.19
672.49	34707.80
672.63	34962.92
672.77	34698.44
672.91	34520.56
673.05	34726.53
673.19	34136.71
673.33	34415.24
673.47	33947.13
673.61	34043.09
673.75	34029.05
673.89	33963.51
674.03	33858.19
674.17	33677.97
674.31	33605.41
674.45	33799.68
674.59	33488.38
674.73	33560.94
674.87	33081.13
675.01	33092.83
675.15	33516.47
675.29	32996.87
675.43	32421.10
675.56	33247.31
675.70	32835.38
675.84	32975.81
675.98	31622.98
676.12	32573.24
676.26	32936.02
676.40	32891.55
676.54	32100.45
676.68	32383.65
676.82	32065.34
676.96	32519.40
677.10	32378.97
677.23	32315.78
677.37	31941.29
677.51	31597.23
677.65	31927.25
677.79	31637.02
677.93	31627.66
678.07	31835.97
678.21	31611.28
678.34	31204.02
678.48	31274.24
678.62	31178.28
678.76	30820.17
678.90	30799.11
679.04	30808.47
679.18	30876.35
679.31	30607.19
679.45	30487.82
679.59	30338.02
679.73	30663.36
679.87	30281.85
680.00	30183.55
680.14	30040.78
680.28	30143.76
680.42	29869.92
680.56	29661.61
680.70	29703.74
680.83	29682.67
680.97	29315.21
681.11	29455.64
681.25	29329.25
681.39	28996.90
681.52	29340.96
681.66	28748.80
681.80	28519.43
681.94	28809.65
682.07	28718.37
682.21	28538.15
682.35	28779.23
682.49	28095.79
682.62	28379.00
682.76	28156.64
682.90	28130.90
683.04	28460.91
683.17	28507.72
683.31	27630.02
683.45	27751.73
683.59	27569.17
683.72	27402.99
683.86	27337.46
684.00	27349.16
684.13	27166.60
684.27	27227.45
684.41	27157.24
684.55	27204.05
684.68	26902.12
684.82	26569.76
684.96	26581.46
685.09	26881.05
685.23	26661.04
685.37	27049.57
685.50	26511.25
685.64	26562.74
685.78	26221.02
685.91	26001.01
686.05	25811.43
686.19	25406.52
686.32	25612.48
686.46	25303.53
686.60	25081.18
686.73	25411.20
686.87	25535.24
687.01	25593.76
687.14	25413.54
687.28	25163.10
687.42	25219.27
687.55	24854.15
687.69	24765.21
687.82	24638.82
687.96	24456.26
688.10	24737.12
688.23	24489.03
688.37	24498.39
688.50	24650.52
688.64	24680.95
688.78	24238.59
688.91	24245.61
689.05	24383.70
689.18	23522.38
689.32	23646.43
689.46	23484.94
689.59	23428.76
689.73	23971.77
689.86	23807.93
690.00	23461.53
690.13	23557.49
690.27	22951.29
690.41	23255.56
690.54	22745.33
690.68	23143.22
690.81	22864.69
690.95	22909.16
691.08	22764.05
691.22	22452.76
691.35	22286.58
691.49	22253.81
691.62	22403.61
691.76	21912.10
691.89	21874.65
692.03	21610.17
692.16	21687.40
692.30	21558.67
692.43	21994.01
692.57	21617.19
692.70	21371.43
692.84	21153.76
692.97	21242.70
693.11	21275.47
693.24	21034.39
693.38	21036.74
693.51	20851.83
693.65	20732.47
693.78	20568.63
693.92	20339.26
694.05	20365.00
694.19	19992.86
694.32	20355.64
694.45	20673.95
694.59	20271.38
694.72	20247.97
694.86	20266.70
694.99	19988.18
695.13	19868.81
695.26	19772.85
695.39	19562.20
695.53	19534.11
695.66	19620.71
695.80	19405.38
695.93	19447.51
696.07	19021.53
696.20	18906.85
696.33	18850.67
696.47	18745.35
696.60	18860.04
696.73	18780.46
696.87	18941.96
697.00	18754.71
697.14	18775.78
697.27	18092.34
697.40	18223.41
697.54	18129.79
697.67	18017.44
697.80	18361.50
697.94	17820.84
698.07	18050.21
698.21	18033.83
698.34	17965.95
698.47	17415.93
698.61	17324.65
698.74	17554.02
698.87	17308.26
699.01	17118.68
699.14	17256.77
699.27	16978.25
699.40	17198.26
699.54	16957.18
699.67	17305.92
699.80	16753.55
699.94	16645.89
700.07	16631.85
700.20	16758.24
700.34	16542.91
700.47	16739.51
700.60	16767.60
700.73	16463.33
700.87	16376.73
701.00	16009.26
701.13	16116.93
701.26	16109.91
701.40	15786.91
701.53	15716.70
701.66	15864.15
701.79	15939.05
701.93	15651.16
702.06	15419.45
702.19	15154.97
702.32	15508.39
702.46	15351.57
702.59	15482.64
702.72	15765.85
702.85	15101.14
702.99	15246.25
703.12	15016.88
703.25	15014.54
703.38	14986.45
703.51	14775.80
703.65	14792.19
703.78	14431.74
703.91	14413.02
704.04	14396.64
704.17	14256.20
704.31	14127.47
704.44	14015.13
704.57	14368.55
704.70	14047.90
704.83	14134.50
704.96	13879.38
705.10	13825.54
705.23	13942.57
>>>>>End Processed Spectral Data<<<<<
