SpectraSuite Data File
++++++++++++++++++++++++++++++++++++
Date: Fri Oct 25 10:43:43 EDT 2013
User: price-jones
Dark Spectrum Present: No
Reference Spectrum Present: No
Number of Sampled Component Spectra: 1
Spectrometers: USB2+H05261
Integration Time (usec): 100000 (USB2+H05261)
Spectra Averaged: 1 (USB2+H05261)
Boxcar Smoothing: 0 (USB2+H05261)
Correct for Electrical Dark: No (USB2+H05261)
Strobe/Lamp Enabled: No (USB2+H05261)
Correct for Detector Non-linearity: No (USB2+H05261)
Correct for Stray Light: No (USB2+H05261)
Number of Pixels in Processed Spectrum: 2048
>>>>>Begin Processed Spectral Data<<<<<
365.73	95.96
365.92	95.96
366.12	95.96
366.32	4.68
366.52	0.00
366.72	161.50
366.91	0.00
367.11	30.43
367.31	0.00
367.51	16.38
367.70	4.68
367.90	67.88
368.10	0.00
368.30	0.00
368.49	65.54
368.69	21.06
368.89	86.60
369.09	84.26
369.28	86.60
369.48	30.43
369.68	37.45
369.87	135.75
370.07	44.47
370.27	142.77
370.47	217.67
370.66	383.85
370.86	454.06
371.06	482.15
371.25	528.96
371.45	468.11
371.65	470.45
371.84	500.87
372.04	498.53
372.24	477.47
372.44	465.77
372.63	454.06
372.83	538.32
373.03	503.22
373.22	547.69
373.42	533.64
373.62	507.90
373.81	585.13
374.01	610.88
374.21	531.30
374.40	510.24
374.60	496.19
374.79	585.13
374.99	596.84
375.19	641.31
375.38	575.77
375.58	662.37
375.78	615.56
375.97	592.16
376.17	718.54
376.37	535.98
376.56	634.29
376.76	557.05
376.95	517.26
377.15	713.86
377.35	636.63
377.54	641.31
377.74	660.03
377.93	603.86
378.13	615.56
378.33	671.73
378.52	620.24
378.72	727.91
378.91	711.52
379.11	692.80
379.31	613.22
379.50	657.69
379.70	702.16
379.89	716.20
380.09	669.39
380.28	723.23
380.48	767.70
380.68	657.69
380.87	781.74
381.07	739.61
381.26	746.63
381.46	713.86
381.65	753.65
381.85	641.31
382.04	723.23
382.24	641.31
382.43	727.91
382.63	671.73
382.83	718.54
383.02	758.33
383.22	755.99
383.41	741.95
383.61	779.40
383.80	844.93
384.00	744.29
384.19	737.27
384.39	763.01
384.58	854.30
384.78	823.87
384.97	798.12
385.17	732.59
385.36	847.27
385.56	816.85
385.75	774.72
385.95	847.27
386.14	823.87
386.34	833.23
386.53	835.57
386.72	861.32
386.92	898.77
387.11	837.91
387.31	887.06
387.50	887.06
387.70	847.27
387.89	809.83
388.09	788.76
388.28	880.04
388.48	971.32
388.67	894.08
388.86	926.85
389.06	919.83
389.25	1006.43
389.45	1008.77
389.64	1008.77
389.84	1008.77
390.03	910.47
390.22	1043.88
390.42	940.90
390.61	1013.45
390.81	968.98
391.00	1121.12
391.19	1011.11
391.39	1053.24
391.58	1032.18
391.78	1060.26
391.97	1109.41
392.16	1022.81
392.36	1032.18
392.55	1104.73
392.75	1027.50
392.94	990.05
393.13	959.62
393.33	1011.11
393.52	1095.37
393.71	1139.84
393.91	1071.97
394.10	1071.97
394.29	1238.14
394.49	1156.22
394.68	1242.82
394.88	1186.65
395.07	1266.23
395.26	1179.63
395.46	1160.91
395.65	1179.63
395.84	1179.63
396.04	1263.89
396.23	1198.35
396.42	1177.29
396.62	1165.59
396.81	1205.38
397.00	1226.44
397.19	1362.19
397.39	1341.13
397.58	1299.00
397.77	1409.00
397.97	1416.02
398.16	1404.32
398.35	1507.30
398.55	1418.36
398.74	1469.86
398.93	1598.59
399.12	1577.52
399.32	1481.56
399.51	1486.24
399.70	1605.61
399.90	1535.39
400.09	1591.56
400.28	1678.16
400.47	1563.48
400.67	1584.54
400.86	1689.87
401.05	1610.29
401.24	1701.57
401.44	1701.57
401.63	1713.27
401.82	1771.79
402.01	1699.23
402.21	1708.59
402.40	1736.68
402.59	1671.14
402.78	1724.97
402.97	1727.32
403.17	1748.38
403.36	2003.50
403.55	1827.96
403.74	1856.04
403.93	1839.66
404.13	1888.81
404.32	1870.09
404.51	1797.53
404.70	1912.22
404.89	1905.20
405.09	1975.41
405.28	1980.09
405.47	1966.05
405.66	1909.88
405.85	1989.46
406.05	2127.55
406.24	2078.40
406.43	2066.69
406.62	2078.40
406.81	2005.84
407.00	2015.20
407.20	1991.80
407.39	2017.54
407.58	2188.40
407.77	2162.66
407.96	2284.36
408.15	2237.55
408.34	2221.17
408.54	2244.57
408.73	2251.60
408.92	2307.77
409.11	2298.41
409.30	2298.41
409.49	2263.30
409.68	2457.56
409.87	2214.15
410.07	2359.26
410.26	2396.71
410.45	2413.09
410.64	2417.77
410.83	2502.03
411.02	2551.18
411.21	2532.46
411.40	2555.86
411.59	2574.59
411.78	2562.89
411.98	2602.68
412.17	2649.49
412.36	2633.10
412.55	2686.94
412.74	2766.51
412.93	2822.69
413.12	2649.49
413.31	2867.16
413.50	2818.00
413.69	2935.03
413.88	2925.67
414.07	2949.08
414.26	2923.33
414.45	3005.25
414.64	2937.37
414.83	2960.78
415.02	3009.93
415.22	3066.10
415.41	3094.19
415.60	3084.83
415.79	3126.96
415.98	3248.66
416.17	3243.98
416.36	3227.60
416.55	3300.16
416.74	3272.07
416.93	3260.37
417.12	3239.30
417.31	3258.03
417.50	3412.50
417.69	3386.76
417.88	3426.54
418.07	3456.97
418.26	3365.69
418.45	3421.86
418.64	3686.34
418.83	3538.89
419.02	3581.02
419.21	3595.06
419.39	3552.93
419.58	3461.65
419.77	3471.01
419.96	3667.62
420.15	3719.11
420.34	3562.30
420.53	3784.65
420.72	3716.77
420.91	3831.46
421.10	3786.99
421.29	3871.25
421.48	3763.58
421.67	3829.12
421.86	3674.64
422.05	3801.03
422.24	3779.97
422.43	3768.26
422.61	3817.41
422.80	3918.06
422.99	3969.55
423.18	3915.72
423.37	4004.66
423.56	3913.38
423.75	3962.53
423.94	3831.46
424.13	3726.13
424.32	3772.94
424.50	4086.58
424.69	3894.65
424.88	4007.00
425.07	3892.31
425.26	3936.78
425.45	3992.95
425.64	3981.25
425.83	3906.35
426.01	4025.72
426.20	3974.23
426.39	3974.23
426.58	3974.23
426.77	3999.98
426.96	3988.27
427.15	4049.13
427.33	4014.02
427.52	4227.01
427.71	4105.30
427.90	4241.05
428.09	4124.02
428.28	4119.34
428.46	4168.49
428.65	4067.85
428.84	4219.99
429.03	4252.75
429.22	4098.28
429.40	4203.60
429.59	4114.66
429.78	3976.57
429.97	3920.40
430.16	4063.17
430.34	4140.41
430.53	4217.65
430.72	4259.78
430.91	4285.52
431.10	4245.73
431.28	4454.04
431.47	4524.26
431.66	4610.86
431.85	4650.64
432.03	4547.66
432.22	4617.88
432.41	4587.45
432.60	4692.77
432.79	4519.57
432.97	4727.88
433.16	4840.23
433.35	4671.71
433.54	4617.88
433.72	4809.80
433.91	4784.06
434.10	4840.23
434.28	4819.16
434.47	4931.51
434.66	4926.83
434.85	4973.64
435.03	4943.21
435.22	5104.71
435.41	5172.58
435.59	5050.88
435.78	5083.64
435.97	5210.03
436.16	4985.34
436.34	5060.24
436.53	5205.35
436.72	5376.21
436.90	5135.14
437.09	5085.98
437.28	5046.20
437.46	5142.16
437.65	5188.97
437.84	5093.01
438.02	5083.64
438.21	5125.77
438.40	5228.76
438.58	5411.32
438.77	5287.27
438.96	5486.22
439.14	5469.83
439.33	5734.31
439.52	5626.65
439.70	5652.39
439.89	5760.06
440.08	5736.65
440.26	5727.29
440.45	5565.79
440.63	5912.19
440.82	5933.26
441.01	5741.33
441.19	5916.87
441.38	6017.52
441.57	6076.03
441.75	6146.25
441.94	6296.04
442.12	6181.35
442.31	6256.25
442.50	6258.59
442.68	6324.13
442.87	6373.28
443.05	6392.00
443.24	6546.48
443.43	6356.90
443.61	6410.73
443.80	6434.13
443.98	6417.75
444.17	6230.51
444.35	6478.60
444.54	6684.57
444.73	6595.63
444.91	6455.20
445.10	6483.28
445.28	6406.05
445.47	6162.63
445.65	6558.18
445.84	6480.94
446.02	6574.56
446.21	6675.21
446.39	6289.02
446.58	6670.53
446.77	6684.57
446.95	6590.95
447.14	6579.25
447.32	6825.00
447.51	6698.61
447.69	6574.56
447.88	6698.61
448.06	6670.53
448.25	6810.96
448.43	6686.91
448.62	6743.08
448.80	6635.42
448.99	6792.23
449.17	6867.13
449.36	6736.06
449.54	7101.19
449.73	6942.03
449.91	7073.10
450.10	7164.38
450.28	7241.62
450.46	7007.56
450.65	7122.25
450.83	7183.10
451.02	7115.23
451.20	7206.51
451.39	7183.10
451.57	7218.21
451.76	7122.25
451.94	7162.04
452.13	7314.17
452.31	7061.40
452.49	7077.78
452.68	7197.15
452.86	7171.40
453.05	7169.06
453.23	7197.15
453.42	7246.30
453.60	7239.28
453.78	7428.86
453.97	7307.15
454.15	7517.80
454.34	7353.96
454.52	7419.50
454.70	7623.12
454.89	7496.74
455.07	7475.67
455.26	7585.68
455.44	7850.16
455.62	7726.11
455.81	7714.41
455.99	7777.60
456.17	7901.65
456.36	7950.80
456.54	7925.05
456.73	8018.68
456.91	8264.43
457.09	8175.49
457.28	8327.63
457.46	7971.86
457.64	8203.58
457.83	7889.95
458.01	7990.59
458.19	8262.09
458.38	8025.70
458.56	8386.14
458.74	8355.71
458.93	8215.28
459.11	8311.24
459.29	8116.98
459.48	8383.80
459.66	8297.20
459.84	8519.55
460.03	8437.63
460.21	8463.38
460.39	8674.03
460.57	8439.97
460.76	8482.10
460.94	8603.81
461.12	8580.40
461.31	8638.92
461.49	8585.08
461.67	8650.62
461.85	8823.82
462.04	8936.17
462.22	9329.38
462.40	8854.25
462.59	8739.56
462.77	8872.97
462.95	9092.98
463.13	8915.10
463.32	8865.95
463.50	9013.40
463.68	8931.48
463.86	8858.93
464.05	9095.32
464.23	8975.95
464.41	9146.81
464.59	8823.82
464.78	9067.24
464.96	8865.95
465.14	9055.53
465.32	9296.61
465.50	9025.11
465.69	9432.36
465.87	9217.03
466.05	9305.97
466.23	9083.62
466.41	9343.42
466.60	9444.06
466.78	9104.68
466.96	9359.80
467.14	9329.38
467.32	9207.67
467.51	9427.68
467.69	9153.84
467.87	9540.02
468.05	9343.42
468.23	9607.90
468.41	9462.79
468.60	9476.83
468.78	9635.99
468.96	9432.36
469.14	9706.20
469.32	9689.82
469.50	9671.09
469.69	9743.65
469.87	9863.02
470.05	10057.28
470.23	9951.96
470.41	9783.44
470.59	9966.00
470.77	9755.35
470.95	9914.51
471.14	9893.44
471.32	10038.56
471.50	10260.91
471.68	10501.98
471.86	10274.95
472.04	10485.60
472.22	10394.32
472.40	10298.36
472.58	10448.15
472.77	10373.25
472.95	10487.94
473.13	10773.49
473.31	10691.57
473.49	10567.52
473.67	10583.90
473.85	10679.86
474.03	10686.89
474.21	11030.94
474.39	11033.29
474.57	10920.94
474.75	11272.02
474.93	11138.61
475.12	11133.93
475.30	11269.68
475.48	11283.72
475.66	11255.64
475.84	11435.86
476.02	11604.38
476.20	11566.93
476.38	11641.82
476.56	11908.65
476.74	11878.22
476.92	11843.11
477.10	11786.94
477.28	12126.32
477.46	12072.48
477.64	12248.02
477.82	12610.81
478.00	12659.96
478.18	12484.42
478.36	12559.31
478.54	12915.08
478.72	12709.11
478.90	13123.38
479.08	13039.12
479.26	13034.44
479.44	13099.98
479.62	13291.90
479.80	13348.08
479.98	13373.82
480.16	13792.78
480.34	13558.72
480.52	13881.72
480.70	13811.50
480.88	13547.02
481.06	13809.16
481.24	13975.34
481.41	14150.88
481.59	14494.94
481.77	14452.81
481.95	14499.62
482.13	14677.50
482.31	14562.81
482.49	14960.70
482.67	14691.54
482.85	14949.00
483.03	15311.78
483.21	15447.54
483.39	15468.60
483.57	15229.87
483.74	15616.05
483.92	15510.73
484.10	15623.08
484.28	15845.43
484.46	16004.58
484.64	16259.70
484.82	15955.43
485.00	16163.74
485.18	16695.04
485.35	16610.78
485.53	15995.22
485.71	16229.27
485.89	16269.06
486.07	16620.14
486.25	16503.12
486.43	16872.92
486.61	17177.19
486.78	17254.43
486.96	17446.35
487.14	17624.23
487.32	17617.21
487.50	17872.33
487.68	18225.75
487.85	18132.13
488.03	18349.80
488.21	18696.20
488.39	18508.96
488.57	18565.13
488.75	18815.57
488.92	19124.52
489.10	19218.14
489.28	19590.28
489.46	19704.97
489.64	19737.74
489.81	20170.74
489.99	20140.31
490.17	20049.03
490.35	20107.54
490.53	20456.28
490.70	20573.31
490.88	20393.09
491.06	20954.82
491.24	20648.21
491.41	21135.04
491.59	20931.41
491.77	20599.05
491.95	20975.88
492.13	21062.48
492.30	21570.38
492.48	21568.04
492.66	21783.37
492.84	21891.03
493.01	22052.53
493.19	21834.86
493.37	22073.59
493.54	22256.15
493.72	22623.62
493.90	22656.39
494.08	22740.64
494.25	22883.42
494.43	22991.08
494.61	23367.91
494.79	23271.95
494.96	23428.76
495.14	23466.21
495.32	23889.85
495.49	23775.16
495.67	23606.64
495.85	24269.01
496.02	24479.66
496.20	24367.32
496.38	24133.26
496.55	24334.55
496.73	25144.38
496.91	24842.45
497.09	25071.82
497.26	24936.07
497.44	24865.85
497.62	25455.67
497.79	25362.04
497.97	25371.41
498.14	25469.71
498.32	25558.65
498.50	25757.60
498.67	26202.30
498.85	25902.71
499.03	26536.99
499.20	26672.74
499.38	26120.38
499.56	26260.81
499.73	26567.42
499.91	26529.97
500.08	26836.58
500.26	26466.78
500.44	26434.01
500.61	26752.32
500.79	26473.80
500.97	26752.32
501.14	26916.16
501.32	27051.91
501.49	27555.13
501.67	27353.84
501.84	27473.21
502.02	27513.00
502.20	27782.16
502.37	27772.80
502.55	27779.82
502.72	27868.76
502.90	28142.60
503.07	27819.61
503.25	28072.39
503.43	27906.21
503.60	28245.58
503.78	28180.05
503.95	28196.43
504.13	28390.70
504.30	28699.65
504.48	28512.41
504.65	29200.52
504.83	28994.56
505.01	29024.98
505.18	29193.50
505.36	29015.62
505.53	29345.64
505.71	29502.45
505.88	29881.62
506.06	29680.33
506.23	29558.63
506.41	29666.29
506.58	29895.66
506.76	29755.23
506.93	29993.97
507.11	30249.08
507.28	30064.18
507.46	29909.71
507.63	29837.15
507.81	30057.16
507.98	30274.83
508.16	30415.26
508.33	30740.60
508.50	30314.62
508.68	31175.94
508.85	30979.33
509.03	30794.43
509.20	31157.21
509.38	31402.97
509.55	31384.24
509.73	31318.71
509.90	31227.43
510.08	31194.66
510.25	31243.81
510.42	31634.68
510.60	31915.54
510.77	31791.50
510.95	31920.23
511.12	31988.10
511.30	31995.12
511.47	32315.78
511.64	32339.18
511.82	32402.38
511.99	32231.52
512.17	32364.93
512.34	32418.76
512.51	32559.19
512.69	32758.14
512.86	32964.10
513.04	32779.20
513.21	33036.66
513.38	32870.48
513.56	32804.95
513.73	32788.56
513.90	32875.16
514.08	33022.62
514.25	32898.57
514.43	33174.75
514.60	33212.20
514.77	33689.67
514.95	33729.46
515.12	33462.64
515.29	33694.35
515.47	34015.01
515.64	34373.11
515.81	34230.33
515.99	34169.48
516.16	33809.04
516.33	33947.13
516.51	33769.25
516.68	33603.07
516.85	33308.16
517.03	33757.55
517.20	34000.96
517.37	34157.78
517.54	34525.24
517.72	34220.97
517.89	34143.74
518.06	33886.28
518.24	33986.92
518.41	33958.83
518.58	34724.19
518.75	34394.17
518.93	34740.57
519.10	34991.01
519.27	34937.18
519.45	35356.13
519.62	35061.22
519.79	35040.16
519.96	35365.49
520.14	35803.17
520.31	35489.54
520.48	35562.10
520.65	35749.34
520.83	35749.34
521.00	35693.17
521.17	35892.12
521.34	35957.65
521.52	36084.04
521.69	36156.60
521.86	36030.21
522.03	36388.31
522.20	36294.69
522.38	36772.16
522.55	36463.21
522.72	36383.63
522.89	36409.37
523.07	36327.45
523.24	36341.50
523.41	36849.39
523.58	36774.50
523.75	37741.14
523.92	36816.63
524.10	37483.68
524.27	37237.92
524.44	37263.67
524.61	37195.79
524.78	37174.73
524.96	37642.84
525.13	37544.53
525.30	37525.81
525.47	37668.58
525.64	37975.19
525.81	37710.71
525.98	37394.74
526.16	37174.73
526.33	37596.03
526.50	37656.88
526.67	37230.90
526.84	37134.94
527.01	37352.61
527.18	38003.28
527.36	38143.71
527.53	38473.73
527.70	38609.48
527.87	39112.69
528.04	38237.33
528.21	38506.49
528.38	38508.83
528.55	38749.91
528.72	38878.64
528.89	38838.85
529.07	38862.26
529.24	38838.85
529.41	38986.30
529.58	38916.09
529.75	38616.50
529.92	38679.69
530.09	39412.28
530.26	39168.87
530.43	39269.51
530.60	38820.13
530.77	39035.45
530.94	39552.71
531.11	39147.80
531.28	39639.31
531.46	39838.26
531.63	39344.41
531.80	39548.03
531.97	39283.55
532.14	39718.89
532.31	39585.48
532.48	39414.62
532.65	39669.74
532.82	39852.30
532.99	39854.64
533.16	39636.97
533.33	39576.12
533.50	40102.74
533.67	39955.29
533.84	39821.87
534.01	40016.14
534.18	40229.13
534.35	40488.93
534.52	40098.06
534.69	40563.82
534.86	40407.01
535.03	40568.51
535.20	40942.99
535.37	40875.12
535.54	40821.28
535.71	40327.43
535.88	40978.10
536.05	40699.58
536.22	40467.86
536.38	40655.11
536.55	40650.42
536.72	41050.66
536.89	40624.68
537.06	40692.55
537.23	41422.80
537.40	41383.01
537.57	41160.66
537.74	41254.28
537.91	41446.21
538.08	41205.13
538.25	41219.17
538.42	41448.55
538.59	41057.68
538.75	41254.28
538.92	41523.44
539.09	41504.72
539.26	41743.45
539.43	40987.46
539.60	41123.21
539.77	40900.86
539.94	41436.84
540.11	41741.11
540.28	41727.07
540.44	41951.76
540.61	41532.81
540.78	41408.76
540.95	41586.64
541.12	41511.74
541.29	41598.34
541.46	41668.56
541.62	41757.50
541.79	42447.96
541.96	41888.57
542.13	41977.51
542.30	41944.74
542.47	41902.61
542.63	42155.39
542.80	42164.75
542.97	42799.04
543.14	42541.58
543.31	42260.71
543.48	42560.30
543.64	42600.09
543.81	43030.75
543.98	42948.83
544.15	42440.93
544.32	42462.00
544.48	43274.16
544.65	43026.07
544.82	42979.26
544.99	42452.64
545.16	42932.45
545.32	42848.19
545.49	43419.28
545.66	43323.32
545.83	43407.58
546.00	43288.21
546.16	43136.07
546.33	43084.58
546.50	42850.53
546.67	43309.27
546.83	42637.54
547.00	43239.06
547.17	43217.99
547.34	43126.71
547.50	43756.32
547.67	43456.73
547.84	43381.83
548.00	43643.97
548.17	43667.37
548.34	43782.06
548.51	43683.76
548.67	43992.71
548.84	43985.69
549.01	43803.13
549.18	43407.58
549.34	43625.25
549.51	43957.60
549.68	43929.51
549.84	44006.75
550.01	43981.01
550.18	44229.10
550.34	43966.96
550.51	44364.85
550.68	43707.16
550.84	43599.50
551.01	44275.91
551.18	43955.26
551.34	44161.23
551.51	44385.92
551.68	44130.80
551.84	44346.13
552.01	44039.52
552.18	44144.84
552.34	44046.54
552.51	44060.58
552.68	44559.12
552.84	44341.45
553.01	44659.76
553.18	44573.16
553.34	44425.71
553.51	44360.17
553.67	44406.98
553.84	44521.67
554.01	45078.72
554.17	45251.92
554.34	45153.62
554.51	44783.81
554.67	44999.14
554.84	44748.70
555.00	44603.59
555.17	44428.05
555.33	45008.50
555.50	44788.49
555.67	44807.22
555.83	44818.92
556.00	44662.10
556.16	44964.03
556.33	45258.94
556.50	44896.16
556.66	44978.07
556.83	44949.99
556.99	45364.26
557.16	45340.86
557.32	45010.84
557.49	45446.18
557.65	44949.99
557.82	45172.34
557.98	45289.37
558.15	45165.32
558.32	45483.63
558.48	45050.63
558.65	45158.30
558.81	45214.47
558.98	45050.63
559.14	44949.99
559.31	45530.44
559.47	44992.12
559.64	45003.82
559.80	45478.95
559.97	45392.35
560.13	44893.82
560.30	45724.71
560.46	45336.18
560.63	45357.24
560.79	45708.32
560.96	45762.15
561.12	45570.23
561.29	44844.66
561.45	45532.78
561.61	45331.50
561.78	45106.80
561.94	45471.93
562.11	45528.10
562.27	45233.19
562.44	45588.95
562.60	45312.77
562.77	45963.44
562.93	45387.67
563.10	45881.52
563.26	45521.08
563.42	45921.31
563.59	45890.88
563.75	45593.64
563.92	45780.88
564.08	45769.18
564.24	46007.91
564.41	45907.27
564.57	45397.03
564.74	45579.59
564.90	45535.12
565.07	45584.27
565.23	45516.40
565.39	45525.76
565.56	45593.64
565.72	45481.29
565.88	45551.51
566.05	45598.32
566.21	45427.46
566.38	45567.89
566.54	45701.30
566.70	46017.27
566.87	46248.99
567.03	45631.08
567.19	46078.13
567.36	45745.77
567.52	46005.57
567.68	45677.90
567.85	45837.05
568.01	45670.87
568.17	45858.12
568.34	46171.75
568.50	45514.06
568.66	45698.96
568.83	45799.60
568.99	45507.04
569.15	46052.38
569.32	45776.20
569.48	45972.80
569.64	45755.13
569.81	45661.51
569.97	45825.35
570.13	45567.89
570.30	45467.25
570.46	45815.99
570.62	45542.14
570.78	45567.89
570.95	45591.30
571.11	45724.71
571.27	45453.20
571.43	45865.14
571.60	45780.88
571.76	45947.06
571.92	46113.23
572.09	46202.18
572.25	46096.85
572.41	45890.88
572.57	45890.88
572.74	46241.96
572.90	45801.94
573.06	45930.67
573.22	46061.74
573.38	46134.30
573.55	45694.28
573.71	46312.18
573.87	46375.37
574.03	46036.00
574.20	46204.52
574.36	45958.76
574.52	45626.40
574.68	46293.46
574.84	46164.73
575.01	45954.08
575.17	45691.94
575.33	45951.74
575.49	46075.79
575.65	46005.57
575.82	46162.39
575.98	46057.06
576.14	46284.09
576.30	46082.81
576.46	46461.97
576.62	45928.33
576.79	45696.62
576.95	45794.92
577.11	46078.13
577.27	45933.01
577.43	45949.40
577.59	45687.26
577.75	45907.27
577.92	45546.82
578.08	45729.39
578.24	45839.39
578.40	45731.73
578.56	46061.74
578.72	45951.74
578.88	46223.24
579.04	46099.19
579.21	45846.41
579.37	46206.86
579.53	46010.25
579.69	46066.42
579.85	46050.04
580.01	45762.15
580.17	46192.81
580.33	46234.94
580.49	46000.89
580.65	46017.27
580.82	46122.60
580.98	46017.27
581.14	45813.65
581.30	46621.13
581.46	46286.43
581.62	46394.10
581.78	45982.16
581.94	46305.16
582.10	46532.19
582.26	46375.37
582.42	46216.22
582.58	46349.63
582.74	46122.60
582.90	46389.42
583.06	46443.25
583.22	46438.57
583.38	46248.99
583.54	46628.15
583.70	46319.20
583.86	46181.11
584.02	46288.77
584.18	46199.83
584.34	45918.97
584.50	46036.00
584.66	46134.30
584.82	46050.04
584.98	46380.06
585.14	46089.83
585.30	46000.89
585.46	46227.92
585.62	45593.64
585.78	46417.50
585.94	46040.68
586.10	46014.93
586.26	45897.91
586.42	46501.76
586.58	46469.00
586.74	46279.41
586.90	46129.62
587.06	45820.67
587.22	46602.41
587.38	46148.34
587.54	46202.18
587.70	46588.36
587.86	46003.23
588.02	46232.60
588.18	46363.67
588.34	46122.60
588.49	45500.01
588.65	45839.39
588.81	45689.60
588.97	45951.74
589.13	45834.71
589.29	45914.29
589.45	46342.61
589.61	45935.35
589.77	46164.73
589.93	46522.83
590.08	46321.54
590.24	46124.94
590.40	46445.59
590.56	46597.73
590.72	46253.67
590.88	46124.94
591.04	46707.73
591.20	46368.35
591.35	46300.48
591.51	46918.38
591.67	46370.69
591.83	46426.87
591.99	46312.18
592.15	46171.75
592.31	46370.69
592.46	46461.97
592.62	46550.91
592.78	46244.30
592.94	46564.96
593.10	46199.83
593.26	46366.01
593.41	46330.90
593.57	46248.99
593.73	46129.62
593.89	46546.23
594.05	46700.71
594.20	46270.05
594.36	46469.00
594.52	46635.17
594.68	46344.95
594.84	46190.47
594.99	46454.95
595.15	46302.82
595.31	46813.05
595.47	46674.96
595.62	46265.37
595.78	46340.27
595.94	46330.90
596.10	46602.41
596.25	46822.42
596.41	46293.46
596.57	46174.09
596.73	46005.57
596.88	46298.14
597.04	46354.31
597.20	46293.46
597.36	46532.19
597.51	46703.05
597.67	46665.60
597.83	46642.20
597.99	46843.48
598.14	46382.40
598.30	46490.06
598.46	46410.48
598.61	46508.79
598.77	45930.67
598.93	46422.19
599.09	46380.06
599.24	46754.54
599.40	46642.20
599.56	46703.05
599.71	46403.46
599.87	46581.34
600.03	46333.24
600.18	46344.95
600.34	46204.52
600.50	46520.49
600.65	46213.88
600.81	46354.31
600.97	46546.23
601.12	46735.82
601.28	46089.83
601.44	46106.21
601.59	46272.39
601.75	46176.43
601.91	46050.04
602.06	46059.40
602.22	46457.29
602.37	46211.54
602.53	46358.99
602.69	46450.27
602.84	46469.00
603.00	46309.84
603.16	46684.33
603.31	46146.00
603.47	46157.70
603.62	45806.62
603.78	46466.66
603.94	46391.76
604.09	46564.96
604.25	46490.06
604.40	46471.34
604.56	46293.46
604.71	46050.04
604.87	46256.01
605.03	46260.69
605.18	46447.93
605.34	46176.43
605.49	46138.98
605.65	46363.67
605.80	46335.59
605.96	45914.29
606.12	46129.62
606.27	46827.10
606.43	46052.38
606.58	46447.93
606.74	45970.46
606.89	46108.55
607.05	46288.77
607.20	45949.40
607.36	46380.06
607.51	46445.59
607.67	46190.47
607.82	45830.03
607.98	46124.94
608.13	46436.23
608.29	45504.70
608.44	45724.71
608.60	45268.30
608.75	45984.51
608.91	46014.93
609.06	45825.35
609.22	45820.67
609.37	46024.29
609.53	46396.44
609.68	45916.63
609.84	45689.60
609.99	45390.01
610.15	45806.62
610.30	45612.36
610.46	45518.74
610.61	45858.12
610.76	45844.07
610.92	46110.89
611.07	45982.16
611.23	45820.67
611.38	45893.22
611.54	45874.50
611.69	45736.41
611.84	45162.98
612.00	45258.94
612.15	45294.05
612.31	45563.21
612.46	45221.49
612.62	45434.48
612.77	45329.16
612.92	45881.52
613.08	45635.77
613.23	45003.82
613.39	45113.83
613.54	44851.69
613.69	44975.73
613.85	45090.42
614.00	45432.14
614.15	45095.10
614.31	45270.64
614.46	45820.67
614.62	45097.44
614.77	45366.60
614.92	44879.77
615.08	45092.76
615.23	44921.90
615.38	44861.05
615.54	44842.32
615.69	44825.94
615.84	44921.90
616.00	45174.68
616.15	44858.71
616.30	45446.18
616.46	45120.85
616.61	44814.24
616.76	44854.03
616.92	44680.83
617.07	44573.16
617.22	45102.12
617.37	45034.25
617.53	45146.59
617.68	45048.29
617.83	44954.67
617.99	44760.40
618.14	44533.37
618.29	44545.08
618.45	44498.26
618.60	44596.57
618.75	44264.21
618.90	44257.19
619.06	44406.98
619.21	44364.85
619.36	44783.81
619.51	44472.52
619.67	44236.12
619.82	44648.06
619.97	44402.30
620.12	43938.88
620.28	43983.35
620.43	44048.88
620.58	44559.12
620.73	43969.30
620.89	44172.93
621.04	44046.54
621.19	44374.22
621.34	44088.67
621.49	44163.57
621.65	44168.25
621.80	44121.44
621.95	44020.80
622.10	44236.12
622.25	43763.34
622.41	43786.74
622.56	43945.90
622.71	43875.68
622.86	43955.26
623.01	43863.98
623.16	43868.66
623.32	43957.60
623.47	43810.15
623.62	43714.19
623.77	43959.94
623.92	43744.61
624.07	43625.25
624.23	43220.33
624.38	43154.80
624.53	43459.07
624.68	43672.06
624.83	43496.52
624.98	43716.53
625.13	42979.26
625.29	42958.19
625.44	43021.39
625.59	42843.51
625.74	43049.47
625.89	43196.93
626.04	43086.92
626.19	43325.66
626.34	42997.98
626.49	43044.79
626.65	43454.39
626.80	43288.21
626.95	43023.73
627.10	42752.23
627.25	43206.29
627.40	42859.89
627.55	42766.27
627.70	42639.88
627.85	42684.35
628.00	42361.36
628.15	43000.32
628.30	42902.02
628.45	42534.56
628.60	42838.83
628.76	42911.38
628.91	42553.28
629.06	42440.93
629.21	42632.86
629.36	42450.30
629.51	42632.86
629.66	42789.67
629.81	42277.10
629.96	42946.49
630.11	42284.12
630.26	42595.41
630.41	42476.04
630.56	42234.97
630.71	42033.68
630.86	42080.49
631.01	41977.51
631.16	42630.52
631.31	42092.19
631.46	41998.57
631.61	42101.56
631.76	42129.64
631.91	42139.00
632.06	42150.71
632.21	42003.25
632.36	42347.31
632.51	41567.91
632.66	42169.43
632.81	41853.46
632.96	42424.55
633.10	42110.92
633.25	42085.17
633.40	42021.98
633.55	41968.15
633.70	41750.48
633.85	41354.93
634.00	41947.08
634.15	42185.82
634.30	41816.01
634.45	41343.22
634.60	41663.88
634.75	41914.31
634.90	41240.24
635.05	41619.41
635.19	41322.16
635.34	41799.63
635.49	41205.13
635.64	41226.20
635.79	41441.53
635.94	41085.76
636.09	41233.22
636.24	40863.41
636.39	41383.01
636.53	41305.77
636.68	41118.53
636.83	41219.17
636.98	41132.57
637.13	40879.80
637.28	41490.68
637.43	41310.46
637.57	41464.93
637.72	41031.93
637.87	41242.58
638.02	41420.46
638.17	41193.43
638.32	41055.34
638.46	40547.44
638.61	40912.56
638.76	40809.58
638.91	40954.69
639.06	41076.40
639.20	41265.99
639.35	41521.10
639.50	40797.88
639.65	40704.26
639.80	40849.37
639.94	40598.93
640.09	40638.72
640.24	40238.49
640.39	40554.46
640.54	40350.84
640.68	40465.52
640.83	40395.31
640.98	40268.92
641.13	40154.23
641.27	40884.48
641.42	40208.06
641.57	40608.29
641.72	40451.48
641.86	40285.30
642.01	40175.30
642.16	40170.61
642.31	40051.25
642.45	39995.07
642.60	40226.79
642.75	39756.34
642.90	40273.60
643.04	40329.77
643.19	40297.00
643.34	39938.90
643.48	40013.80
643.63	39880.39
643.78	39938.90
643.93	39915.50
644.07	40095.72
644.22	39754.00
644.37	39941.24
644.51	39819.53
644.66	39576.12
644.81	40018.48
644.95	39812.51
645.10	39316.32
645.25	39725.91
645.39	39676.76
645.54	39864.00
645.69	39775.06
645.83	39365.47
645.98	39264.83
646.13	39208.65
646.27	39761.02
646.42	39339.72
646.57	38967.58
646.71	39185.25
646.86	39721.23
647.00	39601.86
647.15	39438.03
647.30	39414.62
647.44	39346.75
647.59	39339.72
647.74	38909.07
647.88	39030.77
648.03	38958.22
648.17	39009.71
648.32	38990.98
648.47	39232.06
648.61	38696.08
648.76	39407.60
648.90	39030.77
649.05	39056.52
649.20	39168.87
649.34	38951.20
649.49	38377.76
649.63	38953.54
649.78	38923.11
649.92	39168.87
650.07	39325.68
650.21	39473.13
650.36	38892.68
650.51	39180.57
650.65	39604.20
650.80	39157.16
650.94	39342.06
651.09	38536.92
651.23	38607.14
651.38	38698.42
651.52	38167.12
651.67	38045.41
651.81	38293.50
651.96	38321.59
652.10	38504.15
652.25	38396.49
652.39	38108.60
652.54	38796.72
652.68	38548.62
652.83	38705.44
652.97	38436.28
653.12	38216.27
653.26	38155.41
653.41	38213.93
653.55	38174.14
653.70	38071.15
653.84	38363.72
653.99	38106.26
654.13	37809.01
654.27	37890.93
654.42	37759.86
654.56	38050.09
654.71	38237.33
654.85	38230.31
655.00	38113.28
655.14	38162.43
655.29	37308.14
655.43	37897.95
655.57	37600.71
655.72	37170.05
655.86	37406.44
656.01	37303.46
656.15	37383.04
656.30	37036.64
656.44	36950.04
656.58	37806.67
656.73	37357.29
656.87	37361.97
657.01	37340.91
657.16	37055.36
657.30	37338.57
657.45	37006.21
657.59	37256.65
657.73	37315.16
657.88	37577.30
658.02	37551.56
658.16	37755.18
658.31	37605.39
658.45	37165.37
658.60	37427.51
658.74	37237.92
658.88	37174.73
659.03	37237.92
659.17	37282.39
659.31	37092.81
659.46	37050.68
659.60	36751.09
659.74	36966.42
659.89	36624.70
660.03	36760.45
660.17	36891.52
660.32	36992.17
660.46	36879.82
660.60	36662.15
660.74	36119.15
660.89	36884.50
661.03	36290.01
661.17	36582.57
661.32	36428.10
661.46	36521.72
661.60	36378.95
661.74	36194.04
661.89	36278.30
662.03	36596.62
662.17	36025.53
662.31	35676.79
662.46	36748.75
662.60	35941.27
662.74	36240.86
662.88	36093.40
663.03	35875.73
663.17	36369.58
663.31	35627.63
663.45	35557.42
663.60	35875.73
663.74	35314.00
663.88	35576.14
664.02	35721.26
664.17	35648.70
664.31	35276.55
664.45	35260.17
664.59	35550.40
664.73	35194.64
664.88	35328.05
665.02	34630.57
665.16	34763.98
665.30	34696.10
665.44	34548.65
665.59	34646.95
665.73	34916.11
665.87	34583.76
666.01	35040.16
666.15	34850.58
666.29	34625.89
666.44	34822.49
666.58	34925.47
666.72	34714.83
666.86	34480.77
667.00	34508.86
667.14	34436.30
667.28	34183.52
667.43	34316.93
667.57	34583.76
667.71	34155.44
667.85	34286.51
667.99	34052.45
668.13	33930.75
668.27	34061.82
668.41	34455.03
668.56	33944.79
668.70	33738.82
668.84	33591.37
668.98	33462.64
669.12	33701.37
669.26	33511.79
669.40	33472.00
669.54	33191.14
669.68	33570.30
669.82	32760.48
669.96	33263.69
670.10	32975.81
670.25	33415.83
670.39	33041.34
670.53	32765.16
670.67	32690.26
670.81	32982.83
670.95	32982.83
671.09	32912.61
671.23	32898.57
671.37	32692.60
671.51	32575.58
671.65	32692.60
671.79	32498.34
671.93	32739.41
672.07	32254.92
672.21	31988.10
672.35	32020.87
672.49	32285.35
672.63	32304.07
672.77	31960.02
672.91	31934.27
673.05	31922.57
673.19	31817.24
673.33	31721.28
673.47	31707.24
673.61	31744.69
673.75	31358.50
673.89	31299.98
674.03	31267.22
674.17	30850.60
674.31	31339.77
674.45	31187.64
674.59	31637.02
674.73	31002.74
674.87	31180.62
675.01	30993.37
675.15	30848.26
675.29	30871.67
675.43	30888.05
675.56	30955.93
675.70	30902.09
675.84	30639.95
675.98	29521.18
676.12	30382.49
676.26	30593.14
676.40	30382.49
676.54	30576.76
676.68	30438.67
676.82	29757.57
676.96	29970.56
677.10	29771.61
677.23	29675.65
677.37	29563.31
677.51	29790.34
677.65	29247.33
677.79	29116.26
677.93	29308.19
678.07	29216.91
678.21	28744.12
678.34	29111.58
678.48	29057.75
678.62	28650.50
678.76	28732.42
678.90	28325.16
679.04	28231.54
679.18	28526.45
679.31	27800.88
679.45	28194.09
679.59	28252.61
679.73	28095.79
679.87	27931.95
680.00	28058.34
680.14	27534.06
680.28	27517.68
680.42	27660.45
680.56	27569.17
680.70	27847.69
680.83	27398.31
680.97	27452.14
681.11	27138.51
681.25	27051.91
681.39	26890.41
681.52	27417.04
681.66	26991.06
681.80	26764.03
681.94	26787.43
682.07	26508.91
682.21	26211.66
682.35	26380.18
682.49	26469.12
682.62	26616.57
682.76	26221.02
682.90	25996.33
683.04	26169.53
683.17	26209.32
683.31	26003.35
683.45	25596.10
683.59	25757.60
683.72	25692.06
683.86	25785.68
684.00	25392.47
684.13	25053.09
684.27	25322.26
684.41	25319.92
684.55	25340.98
684.68	24975.86
684.82	25109.27
684.96	25146.72
685.09	24905.64
685.23	24409.45
685.37	24823.72
685.50	24645.84
685.64	24959.47
685.78	24357.96
685.91	24357.96
686.05	24208.16
686.19	23667.50
686.32	24004.53
686.46	23868.78
686.60	23183.01
686.73	23421.74
686.87	23042.57
687.01	23307.05
687.14	22824.90
687.28	22951.29
687.42	23143.22
687.55	22878.74
687.69	22909.16
687.82	22817.88
687.96	22904.48
688.10	22862.35
688.23	22740.64
688.37	22656.39
688.50	22623.62
688.64	22684.47
688.78	22541.70
688.91	22164.87
689.05	22104.02
689.18	22122.74
689.32	21682.72
689.46	21921.46
689.59	22225.73
689.73	22286.58
689.86	21708.47
690.00	21436.97
690.13	21802.09
690.27	21474.42
690.41	21348.03
690.54	21233.34
690.68	21301.22
690.81	21200.57
690.95	21132.70
691.08	21254.40
691.22	20954.82
691.35	21116.31
691.49	21172.49
691.62	20961.84
691.76	20720.76
691.89	20926.73
692.03	20648.21
692.16	20531.18
692.30	20404.79
692.43	20304.15
692.57	19920.30
692.70	20046.69
692.84	20013.92
692.97	19723.69
693.11	19840.72
693.24	19683.91
693.38	19646.46
693.51	20091.16
693.65	19723.69
693.78	19578.58
693.92	19407.72
694.05	19475.60
694.19	19475.60
694.32	19243.88
694.45	19463.90
694.59	19389.00
694.72	19049.62
694.86	18920.89
694.99	18560.45
695.13	18759.39
695.26	18396.61
695.39	18403.63
695.53	18628.32
695.66	18897.49
695.80	18668.11
695.93	18342.78
696.07	18635.35
696.20	18501.93
696.33	18288.95
696.47	18078.30
696.60	17933.18
696.73	17914.46
696.87	17638.28
697.00	17586.79
697.14	17589.13
697.27	17345.71
697.40	17731.90
697.54	17635.94
697.67	17455.72
697.80	16975.91
697.94	17076.55
698.07	17312.94
698.21	17097.61
698.34	17036.76
698.47	17055.48
698.61	16716.11
698.74	16999.31
698.87	16753.55
699.01	16535.88
699.14	16388.43
699.27	16355.66
699.40	16779.30
699.54	15939.05
699.67	16594.40
699.80	16091.18
699.94	15807.98
700.07	15976.50
700.20	16020.97
700.34	16060.76
700.47	16049.05
700.60	16168.42
700.73	16039.69
700.87	15676.91
701.00	15590.31
701.13	15456.90
701.26	15510.73
701.40	15536.48
701.53	15274.34
701.66	15382.00
701.79	14988.79
701.93	15030.92
702.06	14808.57
702.19	14775.80
702.32	14796.87
702.46	14951.34
702.59	15016.88
702.72	14937.30
702.85	14586.22
702.99	14408.34
703.12	14623.67
703.25	14373.23
703.38	14534.73
703.51	14312.38
703.65	14326.42
703.78	14139.18
703.91	13811.50
704.04	14061.94
704.17	14024.49
704.31	14054.92
704.44	14010.45
704.57	13923.85
704.70	13715.54
704.83	13577.45
704.96	13893.42
705.10	13806.82
705.23	13832.57
>>>>>End Processed Spectral Data<<<<<
