SpectraSuite Data File
++++++++++++++++++++++++++++++++++++
Date: Fri Oct 25 10:47:00 EDT 2013
User: price-jones
Dark Spectrum Present: No
Reference Spectrum Present: No
Number of Sampled Component Spectra: 1
Spectrometers: USB2+H05261
Integration Time (usec): 100000 (USB2+H05261)
Spectra Averaged: 1 (USB2+H05261)
Boxcar Smoothing: 0 (USB2+H05261)
Correct for Electrical Dark: No (USB2+H05261)
Strobe/Lamp Enabled: No (USB2+H05261)
Correct for Detector Non-linearity: No (USB2+H05261)
Correct for Stray Light: No (USB2+H05261)
Number of Pixels in Processed Spectrum: 2048
>>>>>Begin Processed Spectral Data<<<<<
365.73	138.09
365.92	138.09
366.12	138.09
366.32	79.58
366.52	0.00
366.72	100.64
366.91	95.96
367.11	11.70
367.31	46.81
367.51	51.49
367.70	70.22
367.90	51.49
368.10	49.15
368.30	0.00
368.49	81.92
368.69	9.36
368.89	0.00
369.09	86.60
369.28	65.54
369.48	112.35
369.68	72.56
369.87	102.98
370.07	114.69
370.27	121.71
370.47	170.86
370.66	388.53
370.86	456.40
371.06	526.62
371.25	486.83
371.45	437.68
371.65	421.30
371.84	496.19
372.04	416.62
372.24	472.79
372.44	566.41
372.63	491.51
372.83	524.28
373.03	528.96
373.22	528.96
373.42	547.69
373.62	533.64
373.81	535.98
374.01	571.09
374.21	543.00
374.40	566.41
374.60	667.05
374.79	624.92
374.99	578.11
375.19	538.32
375.38	531.30
375.58	519.60
375.78	669.39
375.97	589.82
376.17	667.05
376.37	517.26
376.56	690.46
376.76	561.73
376.95	571.09
377.15	608.54
377.35	622.58
377.54	587.47
377.74	620.24
377.93	645.99
378.13	657.69
378.33	631.94
378.52	629.60
378.72	648.33
378.91	695.14
379.11	550.03
379.31	615.56
379.50	636.63
379.70	601.52
379.89	634.29
380.09	638.97
380.28	755.99
380.48	676.41
380.68	610.88
380.87	685.78
381.07	739.61
381.26	741.95
381.46	631.94
381.65	678.76
381.85	699.82
382.04	667.05
382.24	751.31
382.43	702.16
382.63	727.91
382.83	692.80
383.02	758.33
383.22	835.57
383.41	678.76
383.61	770.04
383.80	784.08
384.00	741.95
384.19	767.70
384.39	788.76
384.58	760.67
384.78	763.01
384.97	784.08
385.17	716.20
385.36	763.01
385.56	805.14
385.75	706.84
385.95	774.72
386.14	791.10
386.34	786.42
386.53	870.68
386.72	823.87
386.92	877.70
387.11	823.87
387.31	802.80
387.50	828.55
387.70	767.70
387.89	851.96
388.09	882.38
388.28	866.00
388.48	781.74
388.67	863.66
388.86	943.24
389.06	945.58
389.25	882.38
389.45	929.19
389.64	847.27
389.84	947.92
390.03	1004.09
390.22	943.24
390.42	861.32
390.61	1043.88
390.81	1027.50
391.00	1062.60
391.19	978.34
391.39	947.92
391.58	1078.99
391.78	1011.11
391.97	1001.75
392.16	940.90
392.36	1064.94
392.55	1013.45
392.75	1048.56
392.94	997.07
393.13	1018.13
393.33	1011.11
393.52	1018.13
393.71	997.07
393.91	1102.39
394.10	1008.77
394.29	1064.94
394.49	1104.73
394.68	1158.57
394.88	1069.62
395.07	1170.27
395.26	1132.82
395.46	1144.52
395.65	1219.42
395.84	1139.84
396.04	1235.80
396.23	1170.27
396.42	1163.25
396.62	1212.40
396.81	1198.35
397.00	1226.44
397.19	1212.40
397.39	1277.93
397.58	1362.19
397.77	1336.45
397.97	1282.61
398.16	1275.59
398.35	1392.62
398.55	1334.11
398.74	1364.53
398.93	1423.05
399.12	1322.40
399.32	1296.66
399.51	1352.83
399.70	1542.41
399.90	1467.52
400.09	1486.24
400.28	1540.07
400.47	1448.79
400.67	1500.28
400.86	1544.75
401.05	1514.33
401.24	1563.48
401.44	1612.63
401.63	1495.60
401.82	1624.33
402.01	1535.39
402.21	1699.23
402.40	1654.76
402.59	1671.14
402.78	1528.37
402.97	1640.72
403.17	1781.15
403.36	1668.80
403.55	1839.66
403.74	1865.41
403.93	1675.82
404.13	1713.27
404.32	1652.42
404.51	1795.19
404.70	1685.19
404.89	1694.55
405.09	1900.52
405.28	1820.94
405.47	1734.34
405.66	1893.49
405.85	1802.21
406.05	1769.44
406.24	1818.60
406.43	1811.57
406.62	1865.41
406.81	2001.16
407.00	1935.62
407.20	1933.28
407.39	1959.03
407.58	2036.27
407.77	2031.58
407.96	2083.08
408.15	2069.03
408.34	2157.97
408.54	2099.46
408.73	2094.78
408.92	2118.18
409.11	2162.66
409.30	2066.69
409.49	2050.31
409.68	2073.71
409.87	2193.08
410.07	2136.91
410.26	2263.30
410.45	2235.21
410.64	2298.41
410.83	2312.45
411.02	2305.43
411.21	2396.71
411.40	2392.03
411.59	2499.69
411.78	2436.50
411.98	2406.07
412.17	2450.54
412.36	2408.41
412.55	2473.95
412.74	2455.22
412.93	2572.25
413.12	2583.95
413.31	2644.81
413.50	2612.04
413.69	2633.10
413.88	2738.43
414.07	2736.09
414.26	2668.21
414.45	2630.76
414.64	2764.17
414.83	2754.81
415.02	2813.32
415.22	2796.94
415.41	2841.41
415.60	2956.10
415.79	2916.31
415.98	2920.99
416.17	3077.80
416.36	2904.60
416.55	2958.44
416.74	3112.91
416.93	3063.76
417.12	3030.99
417.31	3091.85
417.50	3222.92
417.69	3173.77
417.88	3150.36
418.07	3077.80
418.26	3232.28
418.45	3131.64
418.64	3391.44
418.83	3328.24
419.02	3361.01
419.21	3375.05
419.39	3384.41
419.58	3314.20
419.77	3279.09
419.96	3449.95
420.15	3651.24
420.34	3480.38
420.53	3459.31
420.72	3583.36
420.91	3595.06
421.10	3538.89
421.29	3588.04
421.48	3588.04
421.67	3543.57
421.86	3744.86
422.05	3705.07
422.24	3534.21
422.43	3681.66
422.61	3709.75
422.80	3754.22
422.99	3712.09
423.18	3728.47
423.37	3756.56
423.56	3672.30
423.75	3691.02
423.94	3634.85
424.13	3506.12
424.32	3606.77
424.50	3655.92
424.69	3810.39
424.88	3665.28
425.07	3606.77
425.26	3662.94
425.45	3707.41
425.64	3756.56
425.83	3815.07
426.01	3836.14
426.20	3810.39
426.39	3765.92
426.58	3852.52
426.77	3791.67
426.96	3782.31
427.15	3782.31
427.33	3782.31
427.52	3777.62
427.71	3873.59
427.90	3824.44
428.09	3934.44
428.28	3901.67
428.46	3985.93
428.65	3962.53
428.84	3957.85
429.03	4168.49
429.22	3929.76
429.40	3936.78
429.59	3985.93
429.78	3852.52
429.97	3873.59
430.16	3880.61
430.34	4126.36
430.53	4081.89
430.72	3988.27
430.91	4114.66
431.10	4060.83
431.28	4264.46
431.47	4276.16
431.66	4442.34
431.85	4245.73
432.03	4447.02
432.22	4447.02
432.41	4355.74
432.60	4362.76
432.79	4458.72
432.97	4470.42
433.16	4355.74
433.35	4374.46
433.54	4636.60
433.72	4442.34
433.91	4440.00
434.10	4559.36
434.28	4711.50
434.47	4734.90
434.66	4690.43
434.85	4535.96
435.03	4531.28
435.22	4571.07
435.41	4847.25
435.59	4678.73
435.78	4669.37
435.97	4774.69
436.16	4669.37
436.34	4793.42
436.53	4835.55
436.72	4786.40
436.90	4755.97
437.09	5053.22
437.28	4812.14
437.46	4896.40
437.65	4908.10
437.84	4954.91
438.02	4936.19
438.21	4931.51
438.40	4889.38
438.58	4980.66
438.77	5146.84
438.96	5057.90
439.14	5151.52
439.33	5334.08
439.52	5294.29
439.70	5345.78
439.89	5343.44
440.08	5284.93
440.26	5357.49
440.45	5406.64
440.63	5472.17
440.82	5547.07
441.01	5736.65
441.19	5586.86
441.38	5528.35
441.57	5788.14
441.75	5884.11
441.94	5846.66
442.12	5991.77
442.31	5804.53
442.50	6005.81
442.68	6176.67
442.87	5956.66
443.05	5942.62
443.24	5963.68
443.43	6207.10
443.61	6064.33
443.80	6174.33
443.98	5959.00
444.17	6015.18
444.35	6085.39
444.54	6176.67
444.73	6181.35
444.91	6090.07
445.10	6097.10
445.28	6181.35
445.47	5980.07
445.65	6080.71
445.84	6127.52
446.02	6197.74
446.21	6225.82
446.39	6267.95
446.58	6277.32
446.77	6293.70
446.95	6223.48
447.14	6221.14
447.32	6314.77
447.51	6310.08
447.69	6132.20
447.88	6380.30
448.06	6282.00
448.25	6300.72
448.43	6415.41
448.62	6413.07
448.80	6289.02
448.99	6464.56
449.17	6597.97
449.36	6370.94
449.54	6548.82
449.73	6647.12
449.91	6712.66
450.10	6778.19
450.28	6930.33
450.46	6609.67
450.65	6839.05
450.83	6719.68
451.02	6527.75
451.20	6593.29
451.39	6794.58
451.57	6670.53
451.76	6752.45
451.94	6722.02
452.13	6771.17
452.31	6633.08
452.49	6759.47
452.68	6736.06
452.86	6747.76
453.05	6862.45
453.23	6853.09
453.42	6881.18
453.60	6977.14
453.78	7091.82
453.97	7016.93
454.15	6925.65
454.34	6839.05
454.52	6981.82
454.70	7005.22
454.89	7030.97
455.07	7052.03
455.26	7143.32
455.44	7480.35
455.62	7232.26
455.81	7241.62
455.99	7323.54
456.17	7372.69
456.36	7398.43
456.54	7543.55
456.73	7452.27
456.91	7632.49
457.09	7510.78
457.28	7595.04
457.46	7714.41
457.64	7630.15
457.83	7674.62
458.01	7524.82
458.19	7772.92
458.38	7585.68
458.56	7962.50
458.74	7702.70
458.93	7840.79
459.11	7866.54
459.29	7674.62
459.48	7808.03
459.66	7829.09
459.84	7765.90
460.03	8109.96
460.21	7915.69
460.39	8107.62
460.57	8093.57
460.76	7922.71
460.94	8049.10
461.12	7985.91
461.31	8058.46
461.49	8037.40
461.67	8070.17
461.85	8140.38
462.04	8180.17
462.22	8870.63
462.40	8542.96
462.59	8475.08
462.77	8336.99
462.95	8395.50
463.13	8393.16
463.32	8212.94
463.50	8683.39
463.68	8636.58
463.86	8510.19
464.05	8545.30
464.23	8468.06
464.41	8615.51
464.59	8294.86
464.78	8582.74
464.96	8585.08
465.14	8655.30
465.32	8613.17
465.50	8840.20
465.69	8702.11
465.87	8603.81
466.05	8674.03
466.23	8732.54
466.41	8561.68
466.60	8943.19
466.78	8692.75
466.96	8664.66
467.14	8830.84
467.32	8980.64
467.51	8851.91
467.69	8805.10
467.87	8929.14
468.05	9085.96
468.23	8894.04
468.41	8884.67
468.60	8978.30
468.78	8971.27
468.96	9013.40
469.14	9357.46
469.32	9284.91
469.50	8781.69
469.69	9125.75
469.87	9224.05
470.05	9320.01
470.23	9310.65
470.41	9308.31
470.59	9465.13
470.77	9490.87
470.95	9441.72
471.14	9635.99
471.32	9317.67
471.50	9750.67
471.68	9687.48
471.86	9856.00
472.04	9774.08
472.22	10054.94
472.40	9607.90
472.58	9755.35
472.77	9902.81
472.95	10029.20
473.13	10104.09
473.31	9951.96
473.49	10012.81
473.67	10001.11
473.85	9884.08
474.03	10272.61
474.21	10490.28
474.39	10516.03
474.57	10401.34
474.75	10581.56
474.93	10555.82
475.12	10480.92
475.30	10445.81
475.48	10436.45
475.66	10691.57
475.84	10642.42
476.02	10920.94
476.20	10729.02
476.38	10937.32
476.56	11080.10
476.74	11274.36
476.92	11293.08
477.10	11211.17
477.28	11403.09
477.46	11344.58
477.64	11534.16
477.82	11550.54
478.00	11967.16
478.18	11728.42
478.36	11641.82
478.54	12191.85
478.72	11850.13
478.90	12119.29
479.08	12402.50
479.26	12545.27
479.44	12500.80
479.62	12257.39
479.80	12566.34
479.98	12723.15
480.16	12889.33
480.34	12762.94
480.52	13109.34
480.70	12898.69
480.88	12681.02
481.06	13383.18
481.24	13261.48
481.41	13394.89
481.59	13731.92
481.77	13472.12
481.95	13638.30
482.13	13933.21
482.31	13692.13
482.49	13909.80
482.67	14036.19
482.85	14150.88
483.03	14293.65
483.21	14590.90
483.39	14569.83
483.57	14295.99
483.74	14616.65
483.92	14829.63
484.10	14530.05
484.28	15183.06
484.46	15370.30
484.64	15484.98
484.82	15349.23
485.00	15468.60
485.18	15662.86
485.35	15960.11
485.53	15578.61
485.71	15506.05
485.89	15683.93
486.07	15789.25
486.25	15829.04
486.43	16215.23
486.61	16198.85
486.78	16460.99
486.96	16688.02
487.14	17146.76
487.32	16938.46
487.50	17118.68
487.68	17359.75
487.85	17418.27
488.03	17397.20
488.21	17521.25
488.39	17954.25
488.57	17621.89
488.75	17862.97
488.92	18506.62
489.10	18445.76
489.28	18427.04
489.46	18459.81
489.64	18869.40
489.81	18951.32
489.99	19342.19
490.17	19171.33
490.35	19522.41
490.53	19367.93
490.70	19269.63
490.88	19555.18
491.06	19747.10
491.24	19700.29
491.41	19798.59
491.59	19988.18
491.77	20100.52
491.95	20044.35
492.13	20332.23
492.30	20620.12
492.48	20790.98
492.66	20608.42
492.84	20556.93
493.01	21036.74
493.19	21418.24
493.37	21551.65
493.54	21149.08
493.72	21682.72
493.90	21345.69
494.08	21734.21
494.25	21898.05
494.43	22167.21
494.61	22361.48
494.79	22417.65
494.96	22218.71
495.14	22759.37
495.32	22497.23
495.49	22480.85
495.67	22803.84
495.85	23213.43
496.02	23035.55
496.20	23215.77
496.38	23304.71
496.55	23344.50
496.73	23896.87
496.91	23754.10
497.09	23761.12
497.26	23784.52
497.44	23578.56
497.62	23644.09
497.79	23819.63
497.97	24233.91
498.14	24687.97
498.32	24294.76
498.50	24655.20
498.67	25142.03
498.85	24973.52
499.03	25348.00
499.20	25142.03
499.38	25242.68
499.56	25109.27
499.73	24961.81
499.91	25343.32
500.08	25649.93
500.26	25336.30
500.44	25411.20
500.61	25656.95
500.79	25759.94
500.97	25813.77
501.14	25940.16
501.32	26118.04
501.49	25975.27
501.67	26218.68
501.84	26398.90
502.02	26553.38
502.20	26497.20
502.37	26679.77
502.55	26618.91
502.72	26867.01
502.90	26532.31
503.07	26499.55
503.25	26918.50
503.43	26785.09
503.60	27110.43
503.78	27410.01
503.95	27119.79
504.13	27283.62
504.30	27620.66
504.48	27683.86
504.65	27449.80
504.83	27681.52
505.01	28163.67
505.18	28095.79
505.36	28151.96
505.53	28091.11
505.71	28247.93
505.88	28325.16
506.06	28311.12
506.23	28404.74
506.41	28013.87
506.58	28851.78
506.76	28779.23
506.93	29149.03
507.11	29001.58
507.28	28833.06
507.46	28875.19
507.63	28720.71
507.81	28865.83
507.98	28783.91
508.16	29120.95
508.33	29366.70
508.50	29776.30
508.68	29502.45
508.85	29750.55
509.03	29912.05
509.20	29743.53
509.38	29654.59
509.55	30300.58
509.73	30338.02
509.90	30417.60
510.08	29773.95
510.25	30354.41
510.42	30455.05
510.60	30417.60
510.77	30616.55
510.95	30874.01
511.12	30597.82
511.30	30546.33
511.47	30850.60
511.64	30948.90
511.82	31213.38
511.99	30677.40
512.17	31494.25
512.34	31257.85
512.51	31758.73
512.69	31576.17
512.86	31887.46
513.04	31620.64
513.21	31730.64
513.38	31613.62
513.56	31393.61
513.73	31407.65
513.90	31772.77
514.08	31880.44
514.25	31857.03
514.43	32191.73
514.60	32002.14
514.77	32240.88
514.95	32397.70
515.12	32442.17
515.29	32271.31
515.47	32512.38
515.64	32793.25
515.81	32498.34
515.99	32744.09
516.16	32577.92
516.33	32891.55
516.51	32620.05
516.68	32261.94
516.85	32528.77
517.03	32847.08
517.20	32556.85
517.37	32987.51
517.54	32964.10
517.72	33053.05
517.89	32921.98
518.06	33170.07
518.24	33193.48
518.41	32936.02
518.58	33359.66
518.75	33539.88
518.93	33848.83
519.10	33710.74
519.27	34113.31
519.45	33879.25
519.62	33703.71
519.79	34370.77
519.96	34291.19
520.14	34323.96
520.31	34092.24
520.48	34579.07
520.65	34225.65
520.83	34836.53
521.00	34703.12
521.17	34792.06
521.34	34682.06
521.52	34944.20
521.69	34813.13
521.86	34623.54
522.03	35150.17
522.20	34677.38
522.38	35288.26
522.55	35283.58
522.72	34962.92
522.89	35239.11
523.07	35363.15
523.24	35468.48
523.41	35702.53
523.58	35615.93
523.75	36163.62
523.92	35849.99
524.10	36147.23
524.27	35988.08
524.44	36369.58
524.61	36245.54
524.78	36119.15
524.96	36477.25
525.13	36346.18
525.30	36481.93
525.47	36739.39
525.64	36397.67
525.81	36318.09
525.98	36278.30
526.16	36556.83
526.33	36547.47
526.50	36587.25
526.67	36144.89
526.84	36456.18
527.01	36252.56
527.18	36877.48
527.36	37031.96
527.53	36746.41
527.70	37687.31
527.87	37284.73
528.04	37247.29
528.21	37741.14
528.38	37188.77
528.55	37755.18
528.72	37469.64
528.89	38092.22
529.07	37443.89
529.24	37174.73
529.41	37816.04
529.58	37366.65
529.75	37755.18
529.92	37820.72
530.09	37535.17
530.26	37811.35
530.43	38349.68
530.60	37570.28
530.77	38225.63
530.94	38293.50
531.11	38106.26
531.28	38426.92
531.46	38309.89
531.63	38752.25
531.80	38314.57
531.97	38508.83
532.14	38696.08
532.31	38270.10
532.48	38803.74
532.65	38667.99
532.82	38150.73
532.99	38637.56
533.16	38370.74
533.33	39014.39
533.50	38988.64
533.67	38946.51
533.84	38651.61
534.01	38532.24
534.18	38618.84
534.35	39358.45
534.52	39164.18
534.69	39243.76
534.86	39260.15
535.03	39316.32
535.20	39449.73
535.37	39803.15
535.54	39864.00
535.71	39288.23
535.88	39587.82
536.05	39487.18
536.22	39728.25
536.38	39821.87
536.55	39079.92
536.72	39896.77
536.89	39665.06
537.06	39765.70
537.23	39981.03
537.40	39634.63
537.57	39538.67
537.74	40032.52
537.91	39646.33
538.08	40418.71
538.25	39976.35
538.42	40126.14
538.59	40318.07
538.75	39707.19
538.92	40390.62
539.09	40238.49
539.26	40397.65
539.43	40065.29
539.60	40236.15
539.77	40264.24
539.94	40439.78
540.11	40105.08
540.28	40238.49
540.44	40287.64
540.61	40362.54
540.78	40533.40
540.95	40282.96
541.12	40315.73
541.29	40666.81
541.46	40673.83
541.62	40748.73
541.79	41146.62
541.96	40362.54
542.13	40741.71
542.30	40875.12
542.47	41532.81
542.63	40711.28
542.80	41352.58
542.97	40987.46
543.14	41656.85
543.31	41523.44
543.48	41247.26
543.64	41879.21
543.81	42183.48
543.98	41603.02
544.15	41958.78
544.32	41757.50
544.48	42099.22
544.65	41998.57
544.82	41872.18
544.99	41511.74
545.16	42213.90
545.32	41970.49
545.49	41996.23
545.66	41869.84
545.83	41823.03
546.00	42478.38
546.16	42227.95
546.33	42045.38
546.50	41717.71
546.67	42014.96
546.83	41448.55
547.00	42185.82
547.17	42342.63
547.34	42490.09
547.50	42279.44
547.67	42169.43
547.84	42454.98
548.00	42602.43
548.17	42370.72
548.34	42754.57
548.51	42344.97
548.67	42714.78
548.84	42710.10
549.01	42658.60
549.18	42410.51
549.34	42740.52
549.51	43243.74
549.68	43262.46
549.84	42822.44
550.01	43328.00
550.18	42944.15
550.34	43002.66
550.51	42850.53
550.68	42923.08
550.84	42799.04
551.01	43014.37
551.18	43281.19
551.34	43058.84
551.51	43742.27
551.68	43416.94
551.84	42990.96
552.01	43445.02
552.18	43122.03
552.34	42590.73
552.51	43578.43
552.68	43131.39
552.84	43606.52
553.01	43627.59
553.18	43332.68
553.34	43313.95
553.51	43786.74
553.67	43320.98
553.84	44149.53
554.01	43665.03
554.17	43938.88
554.34	43569.07
554.51	43777.38
554.67	44039.52
554.84	43814.83
555.00	43742.27
555.17	43477.79
555.33	43999.73
555.50	43999.73
555.67	43859.30
555.83	44095.69
556.00	43875.68
556.16	44376.56
556.33	43931.86
556.50	44053.56
556.66	43952.92
556.83	43531.62
556.99	44203.36
557.16	44477.20
557.32	44540.39
557.49	44355.49
557.65	43632.27
557.82	43728.23
557.98	43700.14
558.15	44367.20
558.32	44299.32
558.48	44081.65
558.65	44163.57
558.81	44102.71
558.98	44184.63
559.14	44690.19
559.31	43959.94
559.47	44245.49
559.64	44435.07
559.80	44882.11
559.97	44737.00
560.13	44561.46
560.30	44554.44
560.46	44465.50
560.63	44587.21
560.79	44828.28
560.96	44802.53
561.12	44652.74
561.29	44502.95
561.45	44722.96
561.61	44830.62
561.78	44610.61
561.94	44535.71
562.11	44322.72
562.27	44406.98
562.44	44708.91
562.60	44711.25
562.77	44959.35
562.93	44697.21
563.10	44818.92
563.26	44648.06
563.42	45123.19
563.59	44704.23
563.75	44823.60
563.92	45284.68
564.08	45045.95
564.24	45067.02
564.41	44821.26
564.57	44919.56
564.74	44662.10
564.90	45099.78
565.07	44992.12
565.23	44931.26
565.39	44982.76
565.56	44737.00
565.72	44580.18
565.88	44821.26
566.05	44893.82
566.21	44973.39
566.38	44774.45
566.54	45024.89
566.70	45116.17
566.87	45460.23
567.03	45050.63
567.19	45471.93
567.36	45240.21
567.52	44964.03
567.68	45130.21
567.85	45123.19
568.01	45240.21
568.17	45151.27
568.34	45221.49
568.50	45265.96
568.66	45382.99
568.83	45263.62
568.99	45277.66
569.15	45198.09
569.32	45247.24
569.48	45144.25
569.64	45338.52
569.81	45006.16
569.97	45020.20
570.13	45254.26
570.30	45006.16
570.46	44868.07
570.62	44737.00
570.78	44832.96
570.95	45109.14
571.11	45249.58
571.27	45315.11
571.43	45074.04
571.60	45610.02
571.76	45488.31
571.92	45294.05
572.09	45364.26
572.25	44779.13
572.41	45464.91
572.57	45598.32
572.74	45748.11
572.90	45193.40
573.06	45134.89
573.22	45570.23
573.38	45375.97
573.55	45069.36
573.71	45535.12
573.87	45584.27
574.03	45408.73
574.20	44896.16
574.36	45818.33
574.52	45340.86
574.68	44952.33
574.84	45390.01
575.01	45750.45
575.17	45226.17
575.33	45422.78
575.49	45446.18
575.65	45628.74
575.82	45628.74
575.98	45186.38
576.14	45703.64
576.30	45654.49
576.46	45041.27
576.62	45230.85
576.79	45368.94
576.95	45130.21
577.11	45160.64
577.27	45698.96
577.43	45336.18
577.59	45205.11
577.75	45392.35
577.92	45315.11
578.08	45605.34
578.24	45282.34
578.40	44879.77
578.56	45188.72
578.72	45186.38
578.88	45968.12
579.04	45528.10
579.21	45713.00
579.37	45326.81
579.53	45226.17
579.69	45254.26
579.85	45408.73
580.01	45507.04
580.17	45544.48
580.33	45708.32
580.49	45879.18
580.65	45813.65
580.82	45642.79
580.98	46028.98
581.14	45336.18
581.30	45703.64
581.46	45595.98
581.62	45656.83
581.78	45418.10
581.94	46202.18
582.10	45523.42
582.26	45624.06
582.42	45736.41
582.58	45537.46
582.74	45404.05
582.90	45605.34
583.06	45890.88
583.22	45642.79
583.38	45923.65
583.54	45886.20
583.70	45755.13
583.86	45633.42
584.02	45125.53
584.18	45633.42
584.34	45404.05
584.50	45659.17
584.66	45752.79
584.82	45291.71
584.98	45717.68
585.14	45745.77
585.30	45471.93
585.46	45296.39
585.62	45249.58
585.78	45874.50
585.94	45205.11
586.10	45322.13
586.26	45560.87
586.42	45652.15
586.58	45837.05
586.74	46028.98
586.90	45312.77
587.06	45361.92
587.22	45586.61
587.38	45511.72
587.54	45797.26
587.70	45729.39
587.86	45848.75
588.02	45567.89
588.18	46061.74
588.34	45551.51
588.49	45006.16
588.65	45174.68
588.81	45478.95
588.97	45518.74
589.13	45797.26
589.29	45516.40
589.45	45397.03
589.61	45518.74
589.77	45659.17
589.93	46038.34
590.08	45762.15
590.24	45996.21
590.40	45612.36
590.56	46071.10
590.72	45869.82
590.88	45881.52
591.04	46059.40
591.20	45902.59
591.35	45897.91
591.51	46394.10
591.67	45851.09
591.83	45865.14
591.99	45654.49
592.15	45422.78
592.31	46176.43
592.46	45638.11
592.62	45626.40
592.78	45827.69
592.94	45975.14
593.10	46073.45
593.26	46183.45
593.41	45701.30
593.57	45490.65
593.73	45902.59
593.89	46143.66
594.05	45876.84
594.20	45734.07
594.36	46270.05
594.52	45823.01
594.68	45729.39
594.84	45811.31
594.99	46246.65
595.15	46150.68
595.31	46192.81
595.47	45958.76
595.62	46433.89
595.78	45780.88
595.94	45961.10
596.10	46171.75
596.25	46244.30
596.41	46143.66
596.57	46085.15
596.73	45785.56
596.88	45928.33
597.04	45588.95
597.20	46000.89
597.36	45652.15
597.51	46295.80
597.67	45579.59
597.83	46354.31
597.99	46256.01
598.14	46241.96
598.30	45844.07
598.46	46300.48
598.61	45675.55
598.77	46064.08
598.93	45830.03
599.09	45748.11
599.24	46223.24
599.40	46384.74
599.56	46148.34
599.71	46176.43
599.87	46225.58
600.03	46021.95
600.18	45844.07
600.34	45778.54
600.50	46024.29
600.65	46071.10
600.81	45933.01
600.97	46223.24
601.12	46377.72
601.28	46277.07
601.44	45862.80
601.59	46108.55
601.75	45619.38
601.91	46071.10
602.06	46099.19
602.22	45813.65
602.37	45851.09
602.53	46232.60
602.69	45909.61
602.84	45846.41
603.00	45865.14
603.16	45663.85
603.31	45794.92
603.47	45572.57
603.62	45869.82
603.78	46057.06
603.94	45727.05
604.09	46050.04
604.25	46162.39
604.40	45925.99
604.56	45935.35
604.71	45940.04
604.87	45694.28
605.03	45893.22
605.18	45373.63
605.34	45642.79
605.49	45476.61
605.65	46333.24
605.80	45886.20
605.96	46124.94
606.12	46150.68
606.27	46316.86
606.43	45631.08
606.58	46307.50
606.74	45652.15
606.89	45834.71
607.05	46110.89
607.20	45806.62
607.36	45762.15
607.51	45392.35
607.67	45717.68
607.82	45841.73
607.98	45186.38
608.13	45656.83
608.29	45595.98
608.44	45184.04
608.60	45514.06
608.75	45125.53
608.91	45727.05
609.06	45186.38
609.22	45642.79
609.37	45525.76
609.53	45710.66
609.68	45132.55
609.84	45380.65
609.99	46003.23
610.15	45071.70
610.30	45570.23
610.46	45088.08
610.61	45350.22
610.76	45385.33
610.92	45214.47
611.07	45500.01
611.23	45474.27
611.38	45429.80
611.54	45450.86
611.69	45333.84
611.84	45191.06
612.00	45088.08
612.15	45043.61
612.31	45076.38
612.46	45179.36
612.62	45324.47
612.77	44985.10
612.92	45542.14
613.08	44781.47
613.23	44999.14
613.39	45329.16
613.54	44692.53
613.69	44744.02
613.85	44790.83
614.00	45340.86
614.15	45205.11
614.31	45130.21
614.46	45425.12
614.62	45095.10
614.77	44797.85
614.92	44776.79
615.08	44828.28
615.23	44893.82
615.38	44891.48
615.54	44315.70
615.69	44711.25
615.84	44802.53
616.00	44713.59
616.15	44346.13
616.30	44837.64
616.46	44385.92
616.61	44311.02
616.76	44666.78
616.92	44130.80
617.07	44917.22
617.22	44430.39
617.37	44516.99
617.53	44472.52
617.68	44498.26
617.83	44383.58
617.99	44561.46
618.14	44851.69
618.29	44399.96
618.45	43889.73
618.60	44561.46
618.75	44392.94
618.90	44219.74
619.06	44715.93
619.21	44289.96
619.36	44247.83
619.51	43842.92
619.67	44046.54
619.82	43913.13
619.97	44130.80
620.12	43882.70
620.28	43590.14
620.43	44261.87
620.58	43868.66
620.73	43981.01
620.89	43990.37
621.04	44161.23
621.19	44088.67
621.34	44018.46
621.49	44144.84
621.65	44011.43
621.80	44198.68
621.95	43770.36
622.10	43810.15
622.25	43950.58
622.41	43775.04
622.56	43545.67
622.71	44390.60
622.86	43440.34
623.01	43789.08
623.16	43763.34
623.32	43615.88
623.47	43405.23
623.62	43559.71
623.77	43466.09
623.92	43428.64
624.07	43491.83
624.23	43292.89
624.38	43042.45
624.53	43255.44
624.68	43328.00
624.83	43447.36
624.98	43770.36
625.13	43035.43
625.29	43140.75
625.44	43405.23
625.59	42916.06
625.74	42689.03
625.89	42789.67
626.04	42553.28
626.19	42850.53
626.34	43047.13
626.49	43042.45
626.65	43274.16
626.80	43246.08
626.95	43051.81
627.10	42834.14
627.25	42932.45
627.40	42810.74
627.55	42478.38
627.70	42162.41
627.85	42295.82
628.00	42677.33
628.15	43100.97
628.30	43012.02
628.45	42541.58
628.60	42572.00
628.76	42452.64
628.91	42852.87
629.06	42321.57
629.21	42274.76
629.36	42251.35
629.51	42153.05
629.66	42120.28
629.81	42057.09
629.96	42485.40
630.11	42260.71
630.26	42192.84
630.41	42630.52
630.56	42344.97
630.71	42274.76
630.86	42440.93
631.01	42092.19
631.16	42300.50
631.31	42092.19
631.46	41748.14
631.61	41757.50
631.76	42073.47
631.91	42178.79
632.06	42085.17
632.21	42162.41
632.36	41956.44
632.51	42185.82
632.66	42096.88
632.81	41968.15
632.96	41811.33
633.10	41429.82
633.25	41689.62
633.40	41745.80
633.55	42021.98
633.70	41490.68
633.85	41621.75
634.00	41851.12
634.15	41755.16
634.30	41677.92
634.45	41345.56
634.60	41801.97
634.75	41631.11
634.90	40987.46
635.05	41605.36
635.19	41411.10
635.34	41579.62
635.49	41340.88
635.64	41453.23
635.79	41235.56
635.94	41425.14
636.09	40945.33
636.24	40680.85
636.39	40844.69
636.53	40659.79
636.68	41017.89
636.83	41008.53
636.98	41308.11
637.13	40615.32
637.28	41188.75
637.43	41418.12
637.57	41123.21
637.72	41340.88
637.87	41137.26
638.02	41322.16
638.17	41116.19
638.32	41148.96
638.46	40945.33
638.61	41069.38
638.76	40524.04
638.91	40467.86
639.06	40591.91
639.20	40870.43
639.35	40898.52
639.50	40596.59
639.65	40807.24
639.80	40741.71
639.94	40715.96
640.09	40334.45
640.24	40596.59
640.39	40285.30
640.54	40252.53
640.68	40713.62
640.83	40343.81
640.98	40411.69
641.13	40226.79
641.27	40397.65
641.42	40339.13
641.57	41034.27
641.72	40505.31
641.86	39917.84
642.01	39824.22
642.16	39941.24
642.31	39498.88
642.45	40154.23
642.60	39880.39
642.75	39864.00
642.90	40053.59
643.04	39665.06
643.19	39824.22
643.34	40233.81
643.48	40187.00
643.63	39880.39
643.78	39739.96
643.93	39880.39
644.07	39707.19
644.22	39686.12
644.37	39433.35
644.51	39377.17
644.66	39875.71
644.81	39601.86
644.95	39868.69
645.10	39938.90
645.25	40074.65
645.39	39854.64
645.54	39658.04
645.69	39651.02
645.83	39143.12
645.98	39651.02
646.13	39414.62
646.27	39466.11
646.42	39594.84
646.57	39480.16
646.71	39070.56
646.86	40034.86
647.00	39494.20
647.15	39522.29
647.30	39374.83
647.44	39508.24
647.59	39578.46
647.74	38756.93
647.88	39215.68
648.03	39248.44
648.17	38878.64
648.32	38983.96
648.47	38948.85
648.61	38618.84
648.76	39075.24
648.90	39199.29
649.05	39566.76
649.20	39278.87
649.34	39040.14
649.49	38986.30
649.63	38888.00
649.78	38778.00
649.92	39058.86
650.07	39431.01
650.21	39000.35
650.36	38684.37
650.51	38852.89
650.65	39468.45
650.80	39402.92
650.94	38941.83
651.09	39016.73
651.23	38426.92
651.38	38679.69
651.52	38604.80
651.67	38567.35
651.81	38689.06
651.96	38770.97
652.10	38405.85
652.25	38506.49
652.39	38457.34
652.54	38202.22
652.68	38534.58
652.83	38534.58
652.97	38667.99
653.12	38213.93
653.26	38447.98
653.41	38925.45
653.55	38305.21
653.70	38153.07
653.84	38497.13
653.99	38237.33
654.13	38431.60
654.27	38384.79
654.42	37921.36
654.56	38174.14
654.71	38230.31
654.85	38321.59
655.00	37804.33
655.14	37567.94
655.29	37951.79
655.43	37799.65
655.57	37926.04
655.72	37464.96
655.86	37380.70
656.01	37589.00
656.15	37647.52
656.30	37027.28
656.44	37357.29
656.58	37345.59
656.73	37310.48
656.87	37764.54
657.01	37715.39
657.16	37476.66
657.30	37195.79
657.45	36891.52
657.59	37600.71
657.73	37322.18
657.88	37404.10
658.02	37507.08
658.16	37371.33
658.31	37612.41
658.45	37401.76
658.60	37092.81
658.74	37254.31
658.88	37319.84
659.03	36968.76
659.17	36842.37
659.31	37144.30
659.46	36603.64
659.60	36486.61
659.74	36833.01
659.89	36400.01
660.03	36416.40
660.17	36872.80
660.32	36699.60
660.46	36627.04
660.60	36945.36
660.74	37153.66
660.89	36765.14
661.03	36158.94
661.17	36477.25
661.32	36285.33
661.46	36425.76
661.60	36301.71
661.74	36006.80
661.89	36243.20
662.03	36495.97
662.17	36823.65
662.31	36006.80
662.46	36212.77
662.60	36222.13
662.74	35938.93
662.88	36126.17
663.03	35587.85
663.17	36191.70
663.31	35496.56
663.45	35803.17
663.60	35810.20
663.74	35629.98
663.88	35606.57
664.02	35473.16
664.17	35597.21
664.31	34995.69
664.45	35276.55
664.59	35583.16
664.73	34700.78
664.88	35234.42
665.02	35096.33
665.16	34845.90
665.30	34981.65
665.44	35318.68
665.59	34787.38
665.73	34490.13
665.87	34789.72
666.01	34960.58
666.15	34520.56
666.29	34550.99
666.44	34866.96
666.58	34600.14
666.72	34122.67
666.86	34733.55
667.00	34707.80
667.14	34295.87
667.28	34396.51
667.43	34120.33
667.57	34705.46
667.71	34127.35
667.85	34433.96
667.99	34073.52
668.13	33888.62
668.27	34007.98
668.41	34082.88
668.56	33628.82
668.70	34272.46
668.84	33975.22
668.98	33862.87
669.12	33724.78
669.26	33668.61
669.40	33699.03
669.54	33226.24
669.68	33558.60
669.82	33696.69
669.96	33296.46
670.10	33343.27
670.25	33584.35
670.39	33326.89
670.53	33502.43
670.67	33226.24
670.81	33106.88
670.95	32959.42
671.09	32676.22
671.23	32486.64
671.37	33031.98
671.51	32690.26
671.65	32744.09
671.79	32453.87
671.93	32362.59
672.07	32123.85
672.21	32741.75
672.35	32151.94
672.49	32718.35
672.63	32374.29
672.77	32521.74
672.91	32032.57
673.05	31960.02
673.19	31751.71
673.33	31768.09
673.47	31566.81
673.61	31644.04
673.75	31709.58
673.89	31299.98
674.03	31023.80
674.17	31512.97
674.31	31421.69
674.45	31630.00
674.59	31660.43
674.73	31833.63
674.87	31445.10
675.01	31023.80
675.15	31290.62
675.29	31061.25
675.43	30637.61
675.56	31112.74
675.70	30721.87
675.84	30855.28
675.98	29575.01
676.12	30483.14
676.26	30391.86
676.40	30305.26
676.54	30125.04
676.68	30153.12
676.82	29530.54
676.96	29961.20
677.10	29692.04
677.23	30050.14
677.37	29776.30
677.51	29706.08
677.65	29757.57
677.79	29170.10
677.93	29563.31
678.07	29310.53
678.21	29146.69
678.34	29263.72
678.48	29142.01
678.62	28783.91
678.76	28861.15
678.90	28304.10
679.04	28737.10
679.18	28917.32
679.31	28116.86
679.45	28119.20
679.59	28390.70
679.73	28009.19
679.87	27971.74
680.00	27770.46
680.14	27976.42
680.28	27702.58
680.42	27676.83
680.56	27999.83
680.70	27828.97
680.83	27412.35
680.97	27639.39
681.11	27405.33
681.25	27363.20
681.39	27211.07
681.52	27213.41
681.66	27232.13
681.80	27030.85
681.94	26757.00
682.07	26857.65
682.21	26867.01
682.35	26604.87
682.49	26529.97
682.62	26490.18
682.76	26478.48
682.90	26389.54
683.04	26396.56
683.17	26445.71
683.31	26328.69
683.45	26314.64
683.59	25795.04
683.72	25717.81
683.86	25706.10
684.00	25392.47
684.13	25558.65
684.27	25497.80
684.41	25329.28
684.55	25172.46
684.68	25036.71
684.82	25483.75
684.96	25027.35
685.09	25170.12
685.23	24683.29
685.37	24856.49
685.50	24664.57
685.64	24652.86
685.78	24453.92
685.91	24713.72
686.05	24680.95
686.19	24236.25
686.32	24091.13
686.46	23915.59
686.60	23606.64
686.73	24128.58
686.87	23674.52
687.01	23714.31
687.14	23709.63
687.28	23620.69
687.42	23449.83
687.55	23094.07
687.69	23707.29
687.82	23398.34
687.96	23463.87
688.10	23290.67
688.23	23028.53
688.37	22544.04
688.50	22656.39
688.64	22766.39
688.78	22532.34
688.91	22309.99
689.05	22705.54
689.18	22490.21
689.32	21668.68
689.46	22122.74
689.59	21972.95
689.73	22394.25
689.86	21996.35
690.00	21879.33
690.13	21928.48
690.27	21837.20
690.41	21481.44
690.54	21322.28
690.68	21434.63
690.81	21397.18
690.95	21163.12
691.08	21401.86
691.22	21216.96
691.35	21186.53
691.49	21179.51
691.62	21064.82
691.76	20961.84
691.89	20772.25
692.03	20610.76
692.16	20439.90
692.30	20105.20
692.43	20467.98
692.57	20334.57
692.70	20191.80
692.84	20229.25
692.97	20032.65
693.11	19906.26
693.24	19934.34
693.38	20074.77
693.51	19592.62
693.65	19985.83
693.78	19730.72
693.92	19920.30
694.05	19300.06
694.19	19599.65
694.32	19524.75
694.45	19269.63
694.59	19014.51
694.72	19183.03
694.86	19190.05
694.99	19246.23
695.13	19014.51
695.26	18644.71
695.39	18417.68
695.53	18768.76
695.66	18773.44
695.80	18359.16
695.93	18270.22
696.07	18040.85
696.20	18349.80
696.33	18258.52
696.47	17970.63
696.60	17937.87
696.73	18017.44
696.87	18038.51
697.00	17855.95
697.14	17914.46
697.27	17933.18
697.40	17633.60
697.54	18008.08
697.67	17518.91
697.80	17544.66
697.94	17301.24
698.07	17268.47
698.21	17025.06
698.34	17205.28
698.47	17284.86
698.61	17006.33
698.74	16603.76
698.87	16723.13
699.01	16800.37
699.14	16580.36
699.27	16404.81
699.40	16362.69
699.54	16383.75
699.67	16627.17
699.80	16444.60
699.94	16259.70
700.07	15955.43
700.20	15974.16
700.34	15815.00
700.47	16042.03
700.60	16159.06
700.73	16285.45
700.87	15913.30
701.00	15559.88
701.13	15634.78
701.26	15419.45
701.40	15592.65
701.53	15543.50
701.66	15314.13
701.79	15262.63
701.93	15349.23
702.06	15150.29
702.19	15087.09
702.32	14946.66
702.46	14937.30
702.59	14906.87
702.72	14724.31
702.85	14867.08
702.99	14829.63
703.12	14817.93
703.25	14672.82
703.38	14644.73
703.51	14640.05
703.65	14436.42
703.78	14251.52
703.91	14160.24
704.04	14324.08
704.17	14169.60
704.31	13947.25
704.44	13752.99
704.57	13963.64
704.70	13685.11
704.83	13823.20
704.96	14003.43
705.10	13872.36
705.23	14099.39
>>>>>End Processed Spectral Data<<<<<
