SpectraSuite Data File
++++++++++++++++++++++++++++++++++++
Date: Fri Oct 25 10:43:55 EDT 2013
User: price-jones
Dark Spectrum Present: No
Reference Spectrum Present: No
Number of Sampled Component Spectra: 1
Spectrometers: USB2+H05261
Integration Time (usec): 100000 (USB2+H05261)
Spectra Averaged: 1 (USB2+H05261)
Boxcar Smoothing: 0 (USB2+H05261)
Correct for Electrical Dark: No (USB2+H05261)
Strobe/Lamp Enabled: No (USB2+H05261)
Correct for Detector Non-linearity: No (USB2+H05261)
Correct for Stray Light: No (USB2+H05261)
Number of Pixels in Processed Spectrum: 2048
>>>>>Begin Processed Spectral Data<<<<<
365.73	166.18
365.92	166.18
366.12	166.18
366.32	53.83
366.52	0.00
366.72	14.04
366.91	32.77
367.11	63.19
367.31	16.38
367.51	0.00
367.70	11.70
367.90	39.79
368.10	35.11
368.30	21.06
368.49	46.81
368.69	65.54
368.89	35.11
369.09	39.79
369.28	44.47
369.48	0.00
369.68	7.02
369.87	81.92
370.07	72.56
370.27	170.86
370.47	243.42
370.66	421.30
370.86	433.00
371.06	472.79
371.25	566.41
371.45	580.45
371.65	505.56
371.84	503.22
372.04	444.70
372.24	571.09
372.44	531.30
372.63	547.69
372.83	524.28
373.03	449.38
373.22	470.45
373.42	442.36
373.62	550.03
373.81	519.60
374.01	538.32
374.21	531.30
374.40	543.00
374.60	550.03
374.79	543.00
374.99	531.30
375.19	592.16
375.38	578.11
375.58	596.84
375.78	622.58
375.97	657.69
376.17	690.46
376.37	613.22
376.56	667.05
376.76	615.56
376.95	589.82
377.15	671.73
377.35	624.92
377.54	690.46
377.74	678.76
377.93	667.05
378.13	678.76
378.33	737.27
378.52	711.52
378.72	732.59
378.91	617.90
379.11	711.52
379.31	566.41
379.50	678.76
379.70	706.84
379.89	631.94
380.09	732.59
380.28	758.33
380.48	688.12
380.68	702.16
380.87	753.65
381.07	638.97
381.26	809.83
381.46	758.33
381.65	798.12
381.85	660.03
382.04	683.44
382.24	744.29
382.43	746.63
382.63	664.71
382.83	737.27
383.02	739.61
383.22	753.65
383.41	741.95
383.61	697.48
383.80	800.46
384.00	784.08
384.19	877.70
384.39	840.25
384.58	819.19
384.78	809.83
384.97	894.08
385.17	894.08
385.36	795.78
385.56	800.46
385.75	802.80
385.95	873.02
386.14	880.04
386.34	812.17
386.53	929.19
386.72	819.19
386.92	840.25
387.11	903.45
387.31	976.00
387.50	816.85
387.70	894.08
387.89	830.89
388.09	990.05
388.28	898.77
388.48	917.49
388.67	1013.45
388.86	940.90
389.06	1039.20
389.25	943.24
389.45	1039.20
389.64	1043.88
389.84	1015.79
390.03	1086.01
390.22	1135.16
390.42	1025.15
390.61	1128.14
390.81	1022.81
391.00	1095.37
391.19	1137.50
391.39	1191.33
391.58	1048.56
391.78	1097.71
391.97	1224.10
392.16	1015.79
392.36	1074.31
392.55	1163.25
392.75	1137.50
392.94	1025.15
393.13	1135.16
393.33	973.66
393.52	1032.18
393.71	1165.59
393.91	1137.50
394.10	1207.72
394.29	1121.12
394.49	1205.38
394.68	1111.75
394.88	1296.66
395.07	1198.35
395.26	1378.58
395.46	1277.93
395.65	1268.57
395.84	1303.68
396.04	1322.40
396.23	1200.69
396.42	1226.44
396.62	1240.48
396.81	1245.16
397.00	1301.34
397.19	1364.53
397.39	1444.11
397.58	1514.33
397.77	1416.02
397.97	1526.03
398.16	1516.67
398.35	1488.58
398.55	1554.12
398.74	1568.16
398.93	1668.80
399.12	1575.18
399.32	1519.01
399.51	1589.22
399.70	1717.95
399.90	1650.08
400.09	1694.55
400.28	1652.42
400.47	1650.08
400.67	1764.76
400.86	1741.36
401.05	1689.87
401.24	1785.83
401.44	1762.42
401.63	1886.47
401.82	1785.83
402.01	1739.02
402.21	1867.75
402.40	1886.47
402.59	1809.23
402.78	1832.64
402.97	1886.47
403.17	1893.49
403.36	1898.17
403.55	2026.90
403.74	1895.83
403.93	1991.80
404.13	1916.90
404.32	1959.03
404.51	1996.48
404.70	2047.97
404.89	1888.81
405.09	2176.70
405.28	2008.18
405.47	2071.37
405.66	2132.23
405.85	2143.93
406.05	2012.86
406.24	2108.82
406.43	2113.50
406.62	2202.44
406.81	2368.62
407.00	2153.29
407.20	2190.74
407.39	2197.76
407.58	2136.91
407.77	2347.56
407.96	2260.96
408.15	2326.49
408.34	2275.00
408.54	2450.54
408.73	2413.09
408.92	2441.18
409.11	2436.50
409.30	2483.31
409.49	2394.37
409.68	2422.45
409.87	2354.58
410.07	2401.39
410.26	2544.16
410.45	2377.98
410.64	2527.78
410.83	2663.53
411.02	2700.98
411.21	2658.85
411.40	2766.51
411.59	2778.22
411.78	2820.35
411.98	2712.68
412.17	2761.83
412.36	2766.51
412.55	2785.24
412.74	2836.73
412.93	2935.03
413.12	2803.96
413.31	2993.55
413.50	2885.88
413.69	2963.12
413.88	3075.46
414.07	3021.63
414.26	3087.17
414.45	3047.38
414.64	3204.19
414.83	3166.74
415.02	3246.32
415.22	3164.40
415.41	3243.98
415.60	3157.38
415.79	3485.06
415.98	3342.28
416.17	3508.46
416.36	3372.71
416.55	3421.86
416.74	3487.40
416.93	3255.69
417.12	3426.54
417.31	3353.99
417.50	3492.08
417.69	3620.81
417.88	3576.34
418.07	3515.48
418.26	3571.66
418.45	3592.72
418.64	3763.58
418.83	3730.81
419.02	3726.13
419.21	3847.84
419.39	3749.54
419.58	3758.90
419.77	3658.26
419.96	3843.16
420.15	3983.59
420.34	3899.33
420.53	3922.74
420.72	4067.85
420.91	4004.66
421.10	4058.49
421.29	4086.58
421.48	4084.23
421.67	4182.54
421.86	4011.68
422.05	4093.60
422.24	3896.99
422.43	3971.89
422.61	3920.40
422.80	4067.85
422.99	4105.30
423.18	4117.00
423.37	4121.68
423.56	4147.43
423.75	4035.08
423.94	4124.02
424.13	3904.01
424.32	3941.46
424.50	4147.43
424.69	4201.26
424.88	4131.05
425.07	4173.18
425.26	4196.58
425.45	4053.81
425.64	4210.62
425.83	4168.49
426.01	4273.82
426.20	4311.27
426.39	4212.96
426.58	4156.79
426.77	4070.19
426.96	4114.66
427.15	4109.98
427.33	4189.56
427.52	4227.01
427.71	4269.14
427.90	4255.09
428.09	4329.99
428.28	4379.14
428.46	4432.97
428.65	4273.82
428.84	4512.55
429.03	4355.74
429.22	4234.03
429.40	4217.65
429.59	4079.55
429.78	4028.06
429.97	4168.49
430.16	4074.87
430.34	4301.90
430.53	4407.23
430.72	4285.52
430.91	4449.36
431.10	4442.34
431.28	4816.82
431.47	4915.12
431.66	4842.57
431.85	4741.93
432.03	4718.52
432.22	4826.18
432.41	4847.25
432.60	4865.97
432.79	4875.34
432.97	4961.94
433.16	4919.81
433.35	4641.28
433.54	4772.35
433.72	4865.97
433.91	4814.48
434.10	5036.83
434.28	5034.49
434.47	4947.89
434.66	5118.75
434.85	5116.41
435.03	5130.45
435.22	5303.65
435.41	5348.12
435.59	5345.78
435.78	5437.06
435.97	5317.70
436.16	5462.81
436.34	5364.51
436.53	5305.99
436.72	5518.98
436.90	5385.57
437.09	5275.57
437.28	5210.03
437.46	5352.81
437.65	5432.38
437.84	5479.19
438.02	5413.66
438.21	5256.84
438.40	5233.44
438.58	5530.69
438.77	5699.20
438.96	5671.12
439.14	5891.13
439.33	5900.49
439.52	5963.68
439.70	6008.16
439.89	5905.17
440.08	6080.71
440.26	6003.47
440.45	6012.84
440.63	5994.11
440.82	6120.50
441.01	6188.38
441.19	6146.25
441.38	6420.09
441.57	6314.77
441.75	6490.31
441.94	6490.31
442.12	6609.67
442.31	6600.31
442.50	6548.82
442.68	6480.94
442.87	6551.16
443.05	6684.57
443.24	6895.22
443.43	6726.70
443.61	6733.72
443.80	6822.66
443.98	6663.51
444.17	6581.59
444.35	6757.13
444.54	6897.56
444.73	7042.67
444.91	6836.70
445.10	6733.72
445.28	6754.79
445.47	6684.57
445.65	6642.44
445.84	6834.36
446.02	6981.82
446.21	6813.30
446.39	7007.56
446.58	7002.88
446.77	6946.71
446.95	6775.85
447.14	6974.80
447.32	7021.61
447.51	7087.14
447.69	7056.72
447.88	7087.14
448.06	7178.42
448.25	7115.23
448.43	7056.72
448.62	7077.78
448.80	6984.16
448.99	7042.67
449.17	7356.30
449.36	7089.48
449.54	7330.56
449.73	7421.84
449.91	7470.99
450.10	7508.44
450.28	7627.81
450.46	7456.95
450.65	7707.38
450.83	7665.25
451.02	7459.29
451.20	7637.17
451.39	7548.23
451.57	7449.93
451.76	7386.73
451.94	7470.99
452.13	7503.76
452.31	7494.40
452.49	7438.22
452.68	7332.90
452.86	7447.58
453.05	7707.38
453.23	7658.23
453.42	7419.50
453.60	7541.21
453.78	7829.09
453.97	7826.75
454.15	7742.49
454.34	7644.19
454.52	7798.66
454.70	7651.21
454.89	8013.99
455.07	7721.43
455.26	7889.95
455.44	8046.76
455.62	8205.92
455.81	8215.28
455.99	8046.76
456.17	8276.13
456.36	8355.71
456.54	8250.39
456.73	8322.94
456.91	8498.49
457.09	8606.15
457.28	8669.34
457.46	8414.23
457.64	8451.67
457.83	8456.36
458.01	8372.10
458.19	8580.40
458.38	8531.25
458.56	8664.66
458.74	8554.66
458.93	8538.27
459.11	8702.11
459.29	8624.87
459.48	8828.50
459.66	8617.85
459.84	8489.12
460.03	8973.61
460.21	8826.16
460.39	8943.19
460.57	9069.58
460.76	8847.22
460.94	8931.48
461.12	8924.46
461.31	9149.15
461.49	9055.53
461.67	8922.12
461.85	9193.62
462.04	9128.09
462.22	9523.64
462.40	9652.37
462.59	9390.23
462.77	9497.89
462.95	9214.69
463.13	9355.12
463.32	9334.06
463.50	9411.29
463.68	9551.73
463.86	9315.33
464.05	9179.58
464.23	9312.99
464.41	9273.20
464.59	9153.84
464.78	9355.12
464.96	9441.72
465.14	9575.13
465.32	9549.39
465.50	9652.37
465.69	9692.16
465.87	9558.75
466.05	9678.12
466.23	9750.67
466.41	9535.34
466.60	9727.27
466.78	9696.84
466.96	9600.88
467.14	9699.18
467.32	10005.79
467.51	9755.35
467.69	9525.98
467.87	9635.99
468.05	10040.90
468.23	9839.61
468.41	9860.68
468.60	10078.35
468.78	10174.31
468.96	9935.57
469.14	9980.04
469.32	10026.86
469.50	9767.06
469.69	10183.67
469.87	10207.08
470.05	10045.58
470.23	10246.87
470.41	10129.84
470.59	10448.15
470.77	10258.57
470.95	10331.12
471.14	10401.34
471.32	10485.60
471.50	10661.14
471.68	10691.57
471.86	10846.04
472.04	10937.32
472.22	11222.87
472.40	10490.28
472.58	10684.55
472.77	11042.65
472.95	11019.24
473.13	11255.64
473.31	11101.16
473.49	10953.71
473.67	10878.81
473.85	11115.20
474.03	11470.97
474.21	11414.79
474.39	11487.35
474.57	11527.14
474.75	11690.98
474.93	11838.43
475.12	11442.88
475.30	11754.17
475.48	11852.47
475.66	11761.19
475.84	11882.90
476.02	11796.30
476.20	11819.71
476.38	12503.14
476.56	12030.35
476.74	12203.55
476.92	12348.67
477.10	12215.26
477.28	12589.74
477.46	12622.51
477.64	12709.11
477.82	12912.74
478.00	13039.12
478.18	12919.76
478.36	13139.77
478.54	13188.92
478.72	13188.92
478.90	13352.76
479.08	13774.05
479.26	13696.82
479.44	13544.68
479.62	13799.80
479.80	13785.76
479.98	14005.77
480.16	14314.72
480.34	14352.16
480.52	14232.80
480.70	14211.73
480.88	14111.09
481.06	14263.22
481.24	14504.30
481.41	14740.69
481.59	14981.77
481.77	14867.08
481.95	15000.49
482.13	14817.93
482.31	15166.67
482.49	15592.65
482.67	15616.05
482.85	15461.58
483.03	15756.49
483.21	15810.32
483.39	16135.65
483.57	15927.35
483.74	16044.37
483.92	16187.14
484.10	16180.12
484.28	16552.27
484.46	16910.37
484.64	17043.78
484.82	16758.24
485.00	16795.68
485.18	16954.84
485.35	17057.82
485.53	16327.58
485.71	16528.86
485.89	17291.88
486.07	16996.97
486.25	17109.32
486.43	17607.85
486.61	17717.86
486.78	17895.74
486.96	17912.12
487.14	18427.04
487.32	18319.37
487.50	18532.36
487.68	18759.39
487.85	18885.78
488.03	19077.71
488.21	19028.56
488.39	19342.19
488.57	19377.30
488.75	19363.25
488.92	19646.46
489.10	20224.57
489.28	20056.05
489.46	20154.35
489.64	20393.09
489.81	21041.42
489.99	21018.01
490.17	21240.36
490.35	21041.42
490.53	20858.85
490.70	21092.91
490.88	21324.62
491.06	21748.26
491.24	21479.10
491.41	21797.41
491.59	21593.78
491.77	21390.16
491.95	21673.36
492.13	22246.79
492.30	22066.57
492.48	22270.20
492.66	22424.67
492.84	22733.62
493.01	23019.17
493.19	22726.60
493.37	23065.98
493.54	23147.90
493.72	23618.35
493.90	23522.38
494.08	24074.75
494.25	24313.48
494.43	23943.68
494.61	24332.21
494.79	24411.79
494.96	24128.58
495.14	24332.21
495.32	24634.14
495.49	24535.84
495.67	24643.50
495.85	24786.27
496.02	25476.73
496.20	25151.40
496.38	25207.57
496.55	25422.90
496.73	26197.62
496.91	25830.15
497.09	25944.84
497.26	25970.58
497.44	26099.31
497.62	25895.69
497.79	26286.56
497.97	25820.79
498.14	26256.13
498.32	26361.45
498.50	26637.64
498.67	26927.86
498.85	26939.57
499.03	27178.30
499.20	27204.05
499.38	27484.91
499.56	27129.15
499.73	27194.68
499.91	27520.02
500.08	27398.31
500.26	27335.12
500.44	27332.78
500.61	27538.74
500.79	27655.77
500.97	27693.22
501.14	27967.06
501.32	27779.82
501.49	27742.37
501.67	28203.46
501.84	28201.11
502.02	28362.61
502.20	28570.92
502.37	28678.58
502.55	28737.10
502.72	29092.86
502.90	29055.41
503.07	29099.88
503.25	28945.41
503.43	28676.24
503.60	29181.80
503.78	29097.54
503.95	29195.84
504.13	29706.08
504.30	29535.22
504.48	29460.32
504.65	29528.20
504.83	30387.18
505.01	30106.31
505.18	30075.88
505.36	30679.74
505.53	30581.44
505.71	30778.04
505.88	30792.09
506.06	30223.34
506.23	30756.98
506.41	30738.26
506.58	30621.23
506.76	30756.98
506.93	31136.15
507.11	30923.16
507.28	31126.78
507.46	30820.17
507.63	31360.84
507.81	31225.09
507.98	31569.15
508.16	31386.58
508.33	31798.52
508.50	31779.79
508.68	31718.94
508.85	31859.37
509.03	32280.67
509.20	31718.94
509.38	32453.87
509.55	32105.13
509.73	32371.95
509.90	32210.45
510.08	32236.20
510.25	32730.05
510.42	32402.38
510.60	32945.38
510.77	32896.23
510.95	33207.52
511.12	32617.71
511.30	33195.82
511.47	33565.62
511.64	33249.65
511.82	33455.62
511.99	33268.37
512.17	33862.87
512.34	33326.89
512.51	33699.03
512.69	33844.15
512.86	33865.21
513.04	33919.04
513.21	33787.97
513.38	33645.20
513.56	33621.80
513.73	33610.09
513.90	34298.21
514.08	34307.57
514.25	34003.30
514.43	34253.74
514.60	34438.64
514.77	34328.64
514.95	34892.71
515.12	34415.24
515.29	34593.12
515.47	34902.07
515.64	34944.20
515.81	34726.53
515.99	34834.19
516.16	34820.15
516.33	34448.00
516.51	34593.12
516.68	34174.16
516.85	34501.84
517.03	34707.80
517.20	35079.95
517.37	35204.00
517.54	35501.25
517.72	35264.85
517.89	35166.55
518.06	35023.78
518.24	35131.44
518.41	35473.16
518.58	35690.83
518.75	35538.69
518.93	36093.40
519.10	35805.52
519.27	36182.34
519.45	35969.35
519.62	36528.74
519.79	36498.31
519.96	36236.17
520.14	36662.15
520.31	35938.93
520.48	36559.17
520.65	36168.30
520.83	37081.11
521.00	36856.42
521.17	37120.90
521.34	37319.84
521.52	37170.05
521.69	37331.54
521.86	37254.31
522.03	37486.02
522.20	37397.08
522.38	37556.24
522.55	37378.36
522.72	37823.06
522.89	37422.83
523.07	37471.98
523.24	37654.54
523.41	38230.31
523.58	38110.94
523.75	38576.71
523.92	38518.20
524.10	38426.92
524.27	38569.69
524.44	38234.99
524.61	38391.81
524.78	38684.37
524.96	38576.71
525.13	38972.26
525.30	38773.31
525.47	39281.21
525.64	38466.70
525.81	38785.02
525.98	38817.78
526.16	38646.93
526.33	38459.68
526.50	38305.21
526.67	38342.66
526.84	38457.34
527.01	38279.46
527.18	38644.59
527.36	39100.99
527.53	39835.92
527.70	39768.04
527.87	39634.63
528.04	39571.44
528.21	39580.80
528.38	39611.23
528.55	40123.80
528.72	39784.43
528.89	40060.61
529.07	39915.50
529.24	39732.93
529.41	40240.83
529.58	39999.76
529.75	39880.39
529.92	40346.15
530.09	40449.14
530.26	40210.40
530.43	40392.97
530.60	40308.71
530.77	40425.73
530.94	41081.08
531.11	40451.48
531.28	40493.61
531.46	40790.86
531.63	40435.10
531.80	40526.38
531.97	40428.07
532.14	40746.39
532.31	40109.76
532.48	40797.88
532.65	41324.50
532.82	40360.20
532.99	41076.40
533.16	40966.40
533.33	40879.80
533.50	41001.50
533.67	41151.30
533.84	41514.08
534.01	41261.30
534.18	41251.94
534.35	42206.88
534.52	41177.04
534.69	41394.71
534.86	42010.28
535.03	41504.72
535.20	41808.99
535.37	42167.09
535.54	41937.72
535.71	42115.60
535.88	41989.21
536.05	41734.09
536.22	42295.82
536.38	42307.52
536.55	41535.15
536.72	41720.05
536.89	41818.35
537.06	41762.18
537.23	42099.22
537.40	42131.98
537.57	42436.25
537.74	42595.41
537.91	42766.27
538.08	42169.43
538.25	42005.59
538.42	42417.53
538.59	42522.85
538.75	42160.07
538.92	42333.27
539.09	42555.62
539.26	42457.32
539.43	42164.75
539.60	42546.26
539.77	42129.64
539.94	42244.33
540.11	42087.51
540.28	42658.60
540.44	42576.69
540.61	42686.69
540.78	42389.44
540.95	42616.47
541.12	42810.74
541.29	42527.53
541.46	43103.31
541.62	43075.22
541.79	43161.82
541.96	42777.97
542.13	43309.27
542.30	42958.19
542.47	43215.65
542.63	43248.42
542.80	42869.25
542.97	43353.74
543.14	44219.74
543.31	44004.41
543.48	43878.02
543.64	44116.76
543.81	44364.85
543.98	44299.32
544.15	43428.64
544.32	43753.97
544.48	43906.11
544.65	44018.46
544.82	43817.17
544.99	44016.11
545.16	43908.45
545.32	44102.71
545.49	44570.82
545.66	44664.44
545.83	44568.48
546.00	44409.32
546.16	44065.27
546.33	44107.40
546.50	44325.07
546.67	44224.42
546.83	43878.02
547.00	44203.36
547.17	44409.32
547.34	44088.67
547.50	44165.91
547.67	44790.83
547.84	44259.53
548.00	44727.64
548.17	44589.55
548.34	44828.28
548.51	45036.59
548.67	45151.27
548.84	45111.49
549.01	44580.18
549.18	45083.40
549.34	44926.58
549.51	45020.20
549.68	44973.39
549.84	45162.98
550.01	45167.66
550.18	44720.62
550.34	44886.79
550.51	44706.57
550.68	45027.23
550.84	44528.69
551.01	45160.64
551.18	45081.06
551.34	45436.82
551.51	45427.46
551.68	45595.98
551.84	45443.84
552.01	45780.88
552.18	45277.66
552.34	44966.37
552.51	45132.55
552.68	45277.66
552.84	45574.91
553.01	45268.30
553.18	45773.86
553.34	45221.49
553.51	45270.64
553.67	45593.64
553.84	45904.93
554.01	45914.29
554.17	46246.65
554.34	46073.45
554.51	46181.11
554.67	45717.68
554.84	45860.46
555.00	46050.04
555.17	45418.10
555.33	45897.91
555.50	45766.84
555.67	45944.72
555.83	45811.31
556.00	45949.40
556.16	45935.35
556.33	45619.38
556.50	45567.89
556.66	45916.63
556.83	45492.99
556.99	45766.84
557.16	46440.91
557.32	46167.07
557.49	46248.99
557.65	45673.21
557.82	46319.20
557.98	46260.69
558.15	46045.36
558.32	46143.66
558.48	45872.16
558.65	46054.72
558.81	45954.08
558.98	45853.44
559.14	45830.03
559.31	46026.63
559.47	46127.28
559.64	46309.84
559.80	46272.39
559.97	46256.01
560.13	45544.48
560.30	46146.00
560.46	46071.10
560.63	46698.37
560.79	46600.07
560.96	46782.63
561.12	46534.53
561.29	46433.89
561.45	46358.99
561.61	46373.03
561.78	46298.14
561.94	46038.34
562.11	46014.93
562.27	46480.70
562.44	46944.12
562.60	46281.75
562.77	46756.88
562.93	46899.65
563.10	46756.88
563.26	46342.61
563.42	46696.03
563.59	46567.30
563.75	46567.30
563.92	46663.26
564.08	46885.61
564.24	46691.35
564.41	46838.80
564.57	46447.93
564.74	46443.25
564.90	46841.14
565.07	46621.13
565.23	46689.01
565.39	46726.46
565.56	46686.67
565.72	46419.84
565.88	46625.81
566.05	46457.29
566.21	46850.50
566.38	46300.48
566.54	46782.63
566.70	46768.58
566.87	46733.48
567.03	47044.77
567.19	47091.58
567.36	46890.29
567.52	47100.94
567.68	46883.27
567.85	46405.80
568.01	46721.77
568.17	46925.40
568.34	47044.77
568.50	46927.74
568.66	46902.00
568.83	46663.26
568.99	46326.22
569.15	46550.91
569.32	46358.99
569.48	46841.14
569.64	46857.52
569.81	47072.85
569.97	46548.57
570.13	46459.63
570.30	46623.47
570.46	46642.20
570.62	46492.40
570.78	46330.90
570.95	46295.80
571.11	46810.71
571.27	46731.14
571.43	46438.57
571.60	46990.94
571.76	46747.52
571.92	46550.91
572.09	46628.15
572.25	46649.22
572.41	46843.48
572.57	47145.41
572.74	47224.99
572.90	47136.05
573.06	47236.69
573.22	47014.34
573.38	46894.97
573.55	46693.69
573.71	47199.24
573.87	47124.35
574.03	46623.47
574.20	46845.82
574.36	47175.84
574.52	47185.20
574.68	47047.11
574.84	47187.54
575.01	46700.71
575.17	46649.22
575.33	46658.58
575.49	46717.09
575.65	47232.01
575.82	47026.04
575.98	47000.30
576.14	47082.22
576.30	46553.26
576.46	46890.29
576.62	46726.46
576.79	46777.95
576.95	46958.17
577.11	47009.66
577.27	46951.15
577.43	47058.81
577.59	47114.98
577.75	46665.60
577.92	46286.43
578.08	46703.05
578.24	46714.75
578.40	46712.41
578.56	46962.85
578.72	46777.95
578.88	47122.01
579.04	47274.14
579.21	46855.18
579.37	47105.62
579.53	47332.65
579.69	46548.57
579.85	46801.35
580.01	46920.72
580.17	46775.61
580.33	47009.66
580.49	47138.39
580.65	47086.90
580.82	47042.43
580.98	46965.19
581.14	47061.15
581.30	47100.94
581.46	47234.35
581.62	47505.85
581.78	46981.57
581.94	47477.77
582.10	47126.69
582.26	47164.14
582.42	46887.95
582.58	47058.81
582.74	46803.69
582.90	47367.76
583.06	47140.73
583.22	47356.06
583.38	47227.33
583.54	47370.10
583.70	46892.63
583.86	47557.35
584.02	47243.71
584.18	47124.35
584.34	47054.13
584.50	46944.12
584.66	47014.34
584.82	47086.90
584.98	47501.17
585.14	47110.30
585.30	47012.00
585.46	46838.80
585.62	47260.10
585.78	47185.20
585.94	46476.02
586.10	47009.66
586.26	46700.71
586.42	47269.46
586.58	47468.40
586.74	46930.08
586.90	47248.39
587.06	47058.81
587.22	47224.99
587.38	47304.57
587.54	46904.34
587.70	47140.73
587.86	46974.55
588.02	46986.25
588.18	47002.64
588.34	46951.15
588.49	46436.23
588.65	46270.05
588.81	46806.03
588.97	46321.54
589.13	46651.56
589.29	46810.71
589.45	46831.78
589.61	47023.70
589.77	46890.29
589.93	46960.51
590.08	46791.99
590.24	47061.15
590.40	47377.12
590.56	47618.20
590.72	47079.88
590.88	46962.85
591.04	47395.85
591.20	47789.06
591.35	47463.72
591.51	47220.31
591.67	47189.88
591.83	47452.02
591.99	46670.28
592.15	46930.08
592.31	47269.46
592.46	46806.03
592.62	47175.84
592.78	47285.84
592.94	47545.64
593.10	46799.01
593.26	47124.35
593.41	46986.25
593.57	47084.56
593.73	46972.21
593.89	47227.33
594.05	47360.74
594.20	47028.38
594.36	46845.82
594.52	47154.77
594.68	46965.19
594.84	47037.75
594.99	46930.08
595.15	47077.54
595.31	47077.54
595.47	47393.51
595.62	47332.65
595.78	47114.98
595.94	47281.16
596.10	47215.63
596.25	47199.24
596.41	47414.57
596.57	47136.05
596.73	47285.84
596.88	46951.15
597.04	47042.43
597.20	47503.51
597.36	46948.81
597.51	47505.85
597.67	47320.95
597.83	47353.72
597.99	47393.51
598.14	47222.65
598.30	47065.83
598.46	47662.67
598.61	47536.28
598.77	46742.84
598.93	46906.68
599.09	47325.63
599.24	47959.92
599.40	47201.58
599.56	47477.77
599.71	46939.44
599.87	47463.72
600.03	47330.31
600.18	47196.90
600.34	47037.75
600.50	47147.75
600.65	46883.27
600.81	47320.95
600.97	47037.75
601.12	47704.80
601.28	47463.72
601.44	47316.27
601.59	47119.66
601.75	46925.40
601.91	47187.54
602.06	46588.36
602.22	46878.59
602.37	47133.71
602.53	47117.32
602.69	47356.06
602.84	46670.28
603.00	46803.69
603.16	46993.28
603.31	47124.35
603.47	47084.56
603.62	47323.29
603.78	47421.59
603.94	47129.03
604.09	47224.99
604.25	46890.29
604.40	46995.62
604.56	47140.73
604.71	47262.44
604.87	46972.21
605.03	46906.68
605.18	46579.00
605.34	46855.18
605.49	46389.42
605.65	47131.37
605.80	46932.42
605.96	46951.15
606.12	46808.37
606.27	47037.75
606.43	46890.29
606.58	47192.22
606.74	47117.32
606.89	46850.50
607.05	47110.30
607.20	46899.65
607.36	46574.32
607.51	47030.72
607.67	46951.15
607.82	47271.80
607.98	46864.55
608.13	46712.41
608.29	46941.78
608.44	46274.73
608.60	46274.73
608.75	46560.28
608.91	46993.28
609.06	46876.25
609.22	46782.63
609.37	46326.22
609.53	46630.49
609.68	46340.27
609.84	46794.33
609.99	46616.45
610.15	46557.94
610.30	46553.26
610.46	46433.89
610.61	46277.07
610.76	46836.46
610.92	46476.02
611.07	46522.83
611.23	46644.54
611.38	46621.13
611.54	46181.11
611.69	46094.51
611.84	45975.14
612.00	46300.48
612.15	46408.14
612.31	46527.51
612.46	46024.29
612.62	46532.19
612.77	46005.57
612.92	46972.21
613.08	45963.44
613.23	45825.35
613.39	46096.85
613.54	45748.11
613.69	46302.82
613.85	45773.86
614.00	45970.46
614.15	46513.47
614.31	45984.51
614.46	46349.63
614.62	46024.29
614.77	45890.88
614.92	45984.51
615.08	45921.31
615.23	46174.09
615.38	45530.44
615.54	45757.47
615.69	45879.18
615.84	45879.18
616.00	46061.74
616.15	45720.02
616.30	45834.71
616.46	45427.46
616.61	45551.51
616.76	45464.91
616.92	45598.32
617.07	45478.95
617.22	45221.49
617.37	45436.82
617.53	45603.00
617.68	45827.69
617.83	45848.75
617.99	45305.75
618.14	45350.22
618.29	45352.56
618.45	44926.58
618.60	45078.72
618.75	45104.46
618.90	45294.05
619.06	45106.80
619.21	45146.59
619.36	45425.12
619.51	45207.45
619.67	45322.13
619.82	45251.92
619.97	45448.52
620.12	44999.14
620.28	44767.43
620.43	45268.30
620.58	45296.39
620.73	44980.42
620.89	45036.59
621.04	44868.07
621.19	45160.64
621.34	45102.12
621.49	44598.91
621.65	45219.15
621.80	45170.00
621.95	44409.32
622.10	44378.90
622.25	44580.18
622.41	44626.99
622.56	44905.52
622.71	44903.18
622.86	44825.94
623.01	44299.32
623.16	44374.22
623.32	44624.65
623.47	44432.73
623.62	44634.02
623.77	44212.72
623.92	44741.68
624.07	44098.03
624.23	43880.36
624.38	44339.11
624.53	44493.58
624.68	44179.95
624.83	44514.65
624.98	44275.91
625.13	43786.74
625.29	44149.53
625.44	44039.52
625.59	43842.92
625.74	43882.70
625.89	43540.99
626.04	43936.54
626.19	43943.56
626.34	44154.21
626.49	44006.75
626.65	43871.00
626.80	43814.83
626.95	43892.07
627.10	43346.72
627.25	43737.59
627.40	43440.34
627.55	43103.31
627.70	43309.27
627.85	43606.52
628.00	43440.34
628.15	43590.14
628.30	42873.93
628.45	43477.79
628.60	44011.43
628.76	43658.01
628.91	43484.81
629.06	43349.06
629.21	43372.47
629.36	43047.13
629.51	42682.01
629.66	43473.11
629.81	42993.30
629.96	43175.86
630.11	43021.39
630.26	43655.67
630.41	43241.40
630.56	42927.77
630.71	43225.01
630.86	42738.18
631.01	42941.81
631.16	42953.51
631.31	42382.42
631.46	42644.56
631.61	42696.05
631.76	42679.67
631.91	42752.23
632.06	42850.53
632.21	43309.27
632.36	42852.87
632.51	42454.98
632.66	42349.65
632.81	42658.60
632.96	42735.84
633.10	42593.07
633.25	42543.92
633.40	42597.75
633.55	42658.60
633.70	42501.79
633.85	42270.08
634.00	42649.24
634.15	42789.67
634.30	42813.08
634.45	42548.60
634.60	42316.89
634.75	42124.96
634.90	42405.83
635.05	42351.99
635.19	41949.42
635.34	42298.16
635.49	41933.04
635.64	41670.90
635.79	42117.94
635.94	42029.00
636.09	42384.76
636.24	41951.76
636.39	41666.22
636.53	42108.58
636.68	41816.01
636.83	41958.78
636.98	42000.91
637.13	41689.62
637.28	42085.17
637.43	42195.18
637.57	42059.43
637.72	41509.40
637.87	41675.58
638.02	41689.62
638.17	41694.30
638.32	41907.29
638.46	41808.99
638.61	41244.92
638.76	41734.09
638.91	41684.94
639.06	41790.27
639.20	41743.45
639.35	42061.77
639.50	41216.83
639.65	41902.61
639.80	41471.95
639.94	41350.24
640.09	41319.82
640.24	41273.01
640.39	40947.67
640.54	41055.34
640.68	40982.78
640.83	40680.85
640.98	41041.29
641.13	40481.91
641.27	41329.18
641.42	40931.29
641.57	40858.73
641.72	40870.43
641.86	40825.96
642.01	40467.86
642.16	40797.88
642.31	40336.79
642.45	40964.06
642.60	40601.27
642.75	40697.24
642.90	40804.90
643.04	40828.30
643.19	40493.61
643.34	40844.69
643.48	40442.12
643.63	40706.60
643.78	40711.28
643.93	40694.89
644.07	40854.05
644.22	40617.66
644.37	40182.32
644.51	40648.08
644.66	40769.79
644.81	40114.44
644.95	40762.77
645.10	40179.98
645.25	40259.55
645.39	40402.33
645.54	40467.86
645.69	40411.69
645.83	40041.88
645.98	40076.99
646.13	40128.48
646.27	40266.58
646.42	39978.69
646.57	39854.64
646.71	39849.96
646.86	40002.10
647.00	40297.00
647.15	40418.71
647.30	40048.91
647.44	39833.58
647.59	39936.56
647.74	39679.10
647.88	39786.77
648.03	39622.93
648.17	39746.98
648.32	39896.77
648.47	39833.58
648.61	39234.40
648.76	39990.39
648.90	39831.24
649.05	39562.08
649.20	39742.30
649.34	39501.22
649.49	39000.35
649.63	39248.44
649.78	39335.04
649.92	39337.38
650.07	39768.04
650.21	39398.24
650.36	39498.88
650.51	39627.61
650.65	40163.59
650.80	39892.09
650.94	39597.18
651.09	39721.23
651.23	39625.27
651.38	39367.81
651.52	39124.40
651.67	39157.16
651.81	39353.77
651.96	39225.04
652.10	39416.96
652.25	39306.96
652.39	39349.09
652.54	39154.82
652.68	38862.26
652.83	39143.12
652.97	39236.74
653.12	39379.51
653.26	39019.07
653.41	38813.10
653.55	38733.53
653.70	38883.32
653.84	39028.43
653.99	38705.44
654.13	38630.54
654.27	38323.93
654.42	38071.15
654.56	38527.56
654.71	38724.16
654.85	38595.43
655.00	38457.34
655.14	38625.86
655.29	38305.21
655.43	38274.78
655.57	37961.15
655.72	37783.27
655.86	37848.80
656.01	37968.17
656.15	37600.71
656.30	38141.37
656.44	37860.51
656.58	38108.60
656.73	37926.04
656.87	37928.38
657.01	38085.20
657.16	37897.95
657.30	37621.77
657.45	37687.31
657.59	37586.66
657.73	37820.72
657.88	38220.95
658.02	38047.75
658.16	38335.63
658.31	38258.40
658.45	37944.76
658.60	37956.47
658.74	37977.53
658.88	37949.45
659.03	37607.73
659.17	37556.24
659.31	37174.73
659.46	37350.27
659.60	37769.22
659.74	37801.99
659.89	37284.73
660.03	37383.04
660.17	37305.80
660.32	37464.96
660.46	37560.92
660.60	37095.15
660.74	37481.34
660.89	36982.80
661.03	36814.29
661.17	36959.40
661.32	36982.80
661.46	36891.52
661.60	36989.83
661.74	37015.57
661.89	36664.49
662.03	37015.57
662.17	36430.44
662.31	36147.23
662.46	37134.94
662.60	36758.11
662.74	36739.39
662.88	36650.45
663.03	36357.88
663.17	36376.61
663.31	36109.78
663.45	36313.41
663.60	36137.87
663.74	36107.44
663.88	36058.29
664.02	35875.73
664.17	35908.50
664.31	35833.60
664.45	35529.33
664.59	35793.81
664.73	35990.42
664.88	35929.56
665.02	35625.29
665.16	35431.03
665.30	35173.57
665.44	35747.00
665.59	35093.99
665.73	35335.07
665.87	35182.93
666.01	35393.58
666.15	35302.30
666.29	35419.33
666.44	35489.54
666.58	35089.31
666.72	35084.63
666.86	34941.86
667.00	34803.77
667.14	34749.93
667.28	34623.54
667.43	34848.24
667.57	34785.04
667.71	34707.80
667.85	34511.20
667.99	34747.59
668.13	35021.44
668.27	34759.30
668.41	35075.27
668.56	34295.87
668.70	34398.85
668.84	34291.19
668.98	33748.18
669.12	34270.12
669.26	34005.64
669.40	34117.99
669.54	33757.55
669.68	33905.00
669.82	33582.01
669.96	33589.03
670.10	33593.71
670.25	33364.34
670.39	33289.44
670.53	33425.19
670.67	33591.37
670.81	33544.56
670.95	33441.57
671.09	33106.88
671.23	33656.90
671.37	33074.11
671.51	32854.10
671.65	32999.21
671.79	33022.62
671.93	32884.53
672.07	32620.05
672.21	32594.30
672.35	32826.01
672.49	32697.28
672.63	33008.58
672.77	32526.42
672.91	32980.49
673.05	32283.01
673.19	32552.17
673.33	32479.61
673.47	31761.07
673.61	32521.74
673.75	32318.12
673.89	31711.92
674.03	31660.43
674.17	31915.54
674.31	31756.39
674.45	31992.78
674.59	31597.23
674.73	31962.36
674.87	31915.54
675.01	31091.68
675.15	31316.37
675.29	31288.28
675.43	31131.47
675.56	31412.33
675.70	31002.74
675.84	31105.72
675.98	30607.19
676.12	30916.14
676.26	30876.35
676.40	30925.50
676.54	31388.92
676.68	30698.47
676.82	30136.74
676.96	30829.54
677.10	30522.93
677.23	30157.80
677.37	30230.36
677.51	30459.73
677.65	29827.79
677.79	29357.34
677.93	29340.96
678.07	29333.93
678.21	29158.39
678.34	29092.86
678.48	29062.43
678.62	29214.57
678.76	29289.46
678.90	28746.46
679.04	28964.13
679.18	28809.65
679.31	28753.48
679.45	28584.96
679.59	28481.98
679.73	28535.81
679.87	28315.80
680.00	28549.85
680.14	28191.75
680.28	28350.91
680.42	28105.15
680.56	27920.25
680.70	27938.97
680.83	28271.33
680.97	28114.52
681.11	27571.51
681.25	27417.04
681.39	27639.39
681.52	27646.41
681.66	27325.75
681.80	27466.19
681.94	27175.96
682.07	27129.15
682.21	26859.99
682.35	27028.51
682.49	26787.43
682.62	26506.57
682.76	26691.47
682.90	26394.22
683.04	26553.38
683.17	26644.66
683.31	26281.88
683.45	26333.37
683.59	26178.89
683.72	25879.30
683.86	26052.50
684.00	26103.99
684.13	25663.97
684.27	25638.23
684.41	25816.11
684.55	25626.53
684.68	25294.17
684.82	25916.75
684.96	25504.82
685.09	25509.50
685.23	25071.82
685.37	25338.64
685.50	25535.24
685.64	24596.69
685.78	24774.57
685.91	24638.82
686.05	24662.22
686.19	24173.05
686.32	24159.01
686.46	23836.02
686.60	24023.26
686.73	23384.29
686.87	23335.14
687.01	23215.77
687.14	23346.84
687.28	23215.77
687.42	23374.93
687.55	23470.89
687.69	23145.56
687.82	23545.79
687.96	23391.31
688.10	23360.89
688.23	22855.33
688.37	22902.14
688.50	22441.06
688.64	23047.26
688.78	22607.23
688.91	22457.44
689.05	22333.39
689.18	22335.73
689.32	22174.24
689.46	22192.96
689.59	22300.62
689.73	22583.83
689.86	22113.38
690.00	21958.91
690.13	22199.98
690.27	22108.70
690.41	21923.80
690.54	21071.84
690.68	21755.28
690.81	21678.04
690.95	21535.27
691.08	21647.61
691.22	21493.14
691.35	21593.78
691.49	21448.67
691.62	21235.68
691.76	21261.43
691.89	21270.79
692.03	20884.60
692.16	20961.84
692.30	20542.88
692.43	20374.36
692.57	20255.00
692.70	20409.47
692.84	20444.58
692.97	20388.41
693.11	20308.83
693.24	20205.84
693.38	20168.40
693.51	19625.39
693.65	20093.50
693.78	20009.24
693.92	19847.74
694.05	20133.29
694.19	19744.76
694.32	19576.24
694.45	19623.05
694.59	19417.08
694.72	19140.90
694.86	19229.84
694.99	18649.39
695.13	19007.49
695.26	19040.26
695.39	18649.39
695.53	18843.65
695.66	19005.15
695.80	18764.07
695.93	18394.27
696.07	18728.97
696.20	18705.56
696.33	18590.88
696.47	18417.68
696.60	18279.58
696.73	17867.65
696.87	18314.69
697.00	18101.70
697.14	18005.74
697.27	17558.70
697.40	17989.36
697.54	17638.28
697.67	17678.07
697.80	17511.89
697.94	17439.33
698.07	17390.18
698.21	17516.57
698.34	17188.89
698.47	17305.92
698.61	17156.13
698.74	16959.52
698.87	17027.40
699.01	16652.91
699.14	16833.13
699.27	16828.45
699.40	16713.77
699.54	16545.25
699.67	16428.22
699.80	16353.32
699.94	16194.17
700.07	16215.23
700.20	16093.52
700.34	16393.11
700.47	15985.86
700.60	16306.51
700.73	16355.66
700.87	16020.97
701.00	15852.45
701.13	15393.70
701.26	15690.95
701.40	15707.34
701.53	15672.23
701.66	15583.29
701.79	15241.57
701.93	15066.03
702.06	15133.90
702.19	14864.74
702.32	15194.76
702.46	15042.62
702.59	15190.08
702.72	15147.95
702.85	14991.13
702.99	14909.21
703.12	14766.44
703.25	14607.28
703.38	14651.75
703.51	14621.33
703.65	14682.18
703.78	14408.34
703.91	14246.84
704.04	14218.75
704.17	14183.65
704.31	14436.42
704.44	14413.02
704.57	14211.73
704.70	13884.06
704.83	13638.30
704.96	13893.42
705.10	13954.27
705.23	13788.10
>>>>>End Processed Spectral Data<<<<<
