SpectraSuite Data File
++++++++++++++++++++++++++++++++++++
Date: Fri Oct 25 11:33:15 EDT 2013
User: price-jones
Dark Spectrum Present: No
Reference Spectrum Present: No
Number of Sampled Component Spectra: 1
Spectrometers: USB2+H05261
Integration Time (usec): 100000 (USB2+H05261)
Spectra Averaged: 1 (USB2+H05261)
Boxcar Smoothing: 0 (USB2+H05261)
Correct for Electrical Dark: No (USB2+H05261)
Strobe/Lamp Enabled: No (USB2+H05261)
Correct for Detector Non-linearity: No (USB2+H05261)
Correct for Stray Light: No (USB2+H05261)
Number of Pixels in Processed Spectrum: 2048
>>>>>Begin Processed Spectral Data<<<<<
365.73	290.23
365.92	290.23
366.12	290.23
366.32	173.20
366.52	201.29
366.72	220.01
366.91	184.90
367.11	170.86
367.31	205.97
367.51	189.58
367.70	138.09
367.90	208.31
368.10	227.03
368.30	184.90
368.49	210.65
368.69	173.20
368.89	220.01
369.09	234.05
369.28	229.37
369.48	168.52
369.68	184.90
369.87	252.78
370.07	191.92
370.27	283.20
370.47	266.82
370.66	470.45
370.86	493.85
371.06	486.83
371.25	524.28
371.45	589.82
371.65	589.82
371.84	547.69
372.04	535.98
372.24	550.03
372.44	599.18
372.63	571.09
372.83	636.63
373.03	622.58
373.22	608.54
373.42	615.56
373.62	580.45
373.81	631.94
374.01	641.31
374.21	566.41
374.40	622.58
374.60	587.47
374.79	645.99
374.99	704.50
375.19	617.90
375.38	648.33
375.58	650.67
375.78	688.12
375.97	706.84
376.17	697.48
376.37	727.91
376.56	648.33
376.76	624.92
376.95	641.31
377.15	678.76
377.35	624.92
377.54	765.36
377.74	650.67
377.93	667.05
378.13	692.80
378.33	653.01
378.52	662.37
378.72	816.85
378.91	758.33
379.11	791.10
379.31	716.20
379.50	702.16
379.70	751.31
379.89	718.54
380.09	753.65
380.28	725.57
380.48	669.39
380.68	699.82
380.87	746.63
381.07	774.72
381.26	781.74
381.46	828.55
381.65	772.38
381.85	772.38
382.04	692.80
382.24	823.87
382.43	753.65
382.63	777.06
382.83	814.51
383.02	760.67
383.22	828.55
383.41	774.72
383.61	791.10
383.80	758.33
384.00	720.88
384.19	833.23
384.39	767.70
384.58	833.23
384.78	823.87
384.97	882.38
385.17	765.36
385.36	877.70
385.56	826.21
385.75	844.93
385.95	901.11
386.14	910.47
386.34	917.49
386.53	851.96
386.72	924.51
386.92	880.04
387.11	830.89
387.31	819.19
387.50	870.68
387.70	854.30
387.89	898.77
388.09	898.77
388.28	896.43
388.48	915.15
388.67	952.60
388.86	936.21
389.06	887.06
389.25	987.71
389.45	896.43
389.64	894.08
389.84	896.43
390.03	997.07
390.22	959.62
390.42	936.21
390.61	1006.43
390.81	976.00
391.00	896.43
391.19	973.66
391.39	1027.50
391.58	957.28
391.78	983.02
391.97	1018.13
392.16	1034.52
392.36	1135.16
392.55	1114.10
392.75	1055.58
392.94	1046.22
393.13	1032.18
393.33	1067.28
393.52	1004.09
393.71	1111.75
393.91	1109.41
394.10	1088.35
394.29	1034.52
394.49	1081.33
394.68	1142.18
394.88	1186.65
395.07	1193.67
395.26	1193.67
395.46	1123.46
395.65	1128.14
395.84	1139.84
396.04	1263.89
396.23	1088.35
396.42	1198.35
396.62	1193.67
396.81	1273.25
397.00	1221.76
397.19	1200.69
397.39	1331.76
397.58	1334.11
397.77	1191.33
397.97	1233.46
398.16	1327.08
398.35	1282.61
398.55	1263.89
398.74	1270.91
398.93	1357.51
399.12	1320.06
399.32	1350.49
399.51	1308.36
399.70	1320.06
399.90	1303.68
400.09	1320.06
400.28	1423.05
400.47	1380.92
400.67	1336.45
400.86	1458.15
401.05	1441.77
401.24	1324.74
401.44	1427.73
401.63	1472.20
401.82	1390.28
402.01	1406.66
402.21	1481.56
402.40	1488.58
402.59	1502.62
402.78	1549.43
402.97	1486.24
403.17	1519.01
403.36	1451.13
403.55	1544.75
403.74	1605.61
403.93	1696.89
404.13	1614.97
404.32	1570.50
404.51	1610.29
404.70	1556.46
404.89	1563.48
405.09	1743.70
405.28	1650.08
405.47	1638.38
405.66	1748.38
405.85	1748.38
406.05	1795.19
406.24	1727.32
406.43	1802.21
406.62	1757.74
406.81	1947.33
407.00	1753.06
407.20	1823.28
407.39	1736.68
407.58	1870.09
407.77	1849.02
407.96	1823.28
408.15	1830.30
408.34	1902.86
408.54	2003.50
408.73	2031.58
408.92	1991.80
409.11	1914.56
409.30	1933.28
409.49	1916.90
409.68	2045.63
409.87	1998.82
410.07	2064.35
410.26	2033.93
410.45	2038.61
410.64	2066.69
410.83	2146.27
411.02	2120.53
411.21	2176.70
411.40	2176.70
411.59	2132.23
411.78	2218.83
411.98	2150.95
412.17	2267.98
412.36	2193.08
412.55	2331.17
412.74	2284.36
412.93	2352.24
413.12	2326.49
413.31	2396.71
413.50	2356.92
413.69	2331.17
413.88	2502.03
414.07	2349.90
414.26	2483.31
414.45	2518.42
414.64	2504.37
414.83	2593.31
415.02	2607.36
415.22	2665.87
415.41	2605.02
415.60	2700.98
415.79	2555.86
415.98	2719.70
416.17	2771.19
416.36	2719.70
416.55	2780.56
416.74	2813.32
416.93	2682.25
417.12	2839.07
417.31	2885.88
417.50	2899.92
417.69	2913.97
417.88	2878.86
418.07	2920.99
418.26	2874.18
418.45	2860.13
418.64	3176.11
418.83	2993.55
419.02	3049.72
419.21	3068.44
419.39	3199.51
419.58	3183.13
419.77	2991.20
419.96	3204.19
420.15	3206.53
420.34	3318.88
420.53	3157.38
420.72	3183.13
420.91	3197.17
421.10	3234.62
421.29	3400.80
421.48	3255.69
421.67	3309.52
421.86	3192.49
422.05	3225.26
422.24	3204.19
422.43	3400.80
422.61	3274.41
422.80	3435.91
422.99	3421.86
423.18	3456.97
423.37	3473.36
423.56	3449.95
423.75	3370.37
423.94	3262.71
424.13	3166.74
424.32	3372.71
424.50	3552.93
424.69	3517.83
424.88	3595.06
425.07	3421.86
425.26	3449.95
425.45	3445.27
425.64	3358.67
425.83	3583.36
426.01	3438.25
426.20	3435.91
426.39	3466.33
426.58	3520.17
426.77	3421.86
426.96	3592.72
427.15	3599.74
427.33	3665.28
427.52	3613.79
427.71	3669.96
427.90	3684.00
428.09	3681.66
428.28	3602.08
428.46	3744.86
428.65	3637.19
428.84	3716.77
429.03	3920.40
429.22	3691.02
429.40	3712.09
429.59	3644.21
429.78	3606.77
429.97	3531.87
430.16	3726.13
430.34	3906.35
430.53	3913.38
430.72	3892.31
430.91	3845.50
431.10	3845.50
431.28	3997.64
431.47	4112.32
431.66	4007.00
431.85	3927.42
432.03	4074.87
432.22	4262.12
432.41	3990.61
432.60	3946.14
432.79	3999.98
432.97	4255.09
433.16	4100.62
433.35	4088.92
433.54	4198.92
433.72	4262.12
433.91	4304.25
434.10	4273.82
434.28	4287.86
434.47	4236.37
434.66	4271.48
434.85	4404.89
435.03	4411.91
435.22	4348.72
435.41	4449.36
435.59	4397.87
435.78	4418.93
435.97	4437.66
436.16	4496.17
436.34	4355.74
436.53	4507.87
436.72	4561.70
436.90	4482.13
437.09	4575.75
437.28	4365.10
437.46	4526.60
437.65	4566.39
437.84	4608.51
438.02	4421.27
438.21	4542.98
438.40	4491.49
438.58	4744.27
438.77	4966.62
438.96	4847.25
439.14	4816.82
439.33	4968.96
439.52	4947.89
439.70	4950.23
439.89	4924.49
440.08	5212.37
440.26	5004.07
440.45	5214.71
440.63	5118.75
440.82	5364.51
441.01	5118.75
441.19	5085.98
441.38	5259.18
441.57	5240.46
441.75	5350.46
441.94	5441.75
442.12	5446.43
442.31	5497.92
442.50	5472.17
442.68	5469.83
442.87	5465.15
443.05	5437.06
443.24	5654.73
443.43	5628.99
443.61	5544.73
443.80	5811.55
443.98	5462.81
444.17	5310.68
444.35	5607.92
444.54	5827.93
444.73	5652.39
444.91	5654.73
445.10	5589.20
445.28	5713.25
445.47	5621.97
445.65	5544.73
445.84	5724.95
446.02	5659.42
446.21	5771.76
446.39	5640.69
446.58	5809.21
446.77	5851.34
446.95	5600.90
447.14	5659.42
447.32	5853.68
447.51	5678.14
447.69	5767.08
447.88	5837.30
448.06	5755.38
448.25	5806.87
448.43	5746.02
448.62	5713.25
448.80	5863.04
448.99	5832.62
449.17	5790.49
449.36	6092.41
449.54	5968.37
449.73	6001.13
449.91	6127.52
450.10	6043.26
450.28	6174.33
450.46	6141.57
450.65	6211.78
450.83	6153.27
451.02	6129.86
451.20	6260.93
451.39	6141.57
451.57	6171.99
451.76	6097.10
451.94	6029.22
452.13	6401.37
452.31	6223.48
452.49	6193.06
452.68	6410.73
452.86	6328.81
453.05	6417.75
453.23	6525.41
453.42	6534.78
453.60	6373.28
453.78	6436.47
453.97	6516.05
454.15	6380.30
454.34	6413.07
454.52	6612.01
454.70	6633.08
454.89	6567.54
455.07	6595.63
455.26	6715.00
455.44	6546.48
455.62	6878.83
455.81	6754.79
455.99	6759.47
456.17	6719.68
456.36	6778.19
456.54	6909.26
456.73	6993.52
456.91	7110.55
457.09	7084.80
457.28	7183.10
457.46	7176.08
457.64	7321.20
457.83	7117.57
458.01	6747.76
458.19	7162.04
458.38	7066.08
458.56	7293.11
458.74	7171.40
458.93	7342.26
459.11	7297.79
459.29	7314.17
459.48	7375.03
459.66	7372.69
459.84	7274.38
460.03	7501.42
460.21	7578.65
460.39	7297.79
460.57	7398.43
460.76	7555.25
460.94	7576.31
461.12	7599.72
461.31	7506.10
461.49	7449.93
461.67	7534.18
461.85	7815.05
462.04	7784.62
462.22	7981.23
462.40	7873.56
462.59	7948.46
462.77	7688.66
462.95	7922.71
463.13	7838.45
463.32	7777.60
463.50	7875.90
463.68	7896.97
463.86	7974.21
464.05	7812.71
464.23	8011.65
464.41	8004.63
464.59	7948.46
464.78	8294.86
464.96	8079.53
465.14	7950.80
465.32	8255.07
465.50	8121.66
465.69	8077.19
465.87	8100.59
466.05	8177.83
466.23	8266.77
466.41	8287.84
466.60	8336.99
466.78	8077.19
466.96	8180.17
467.14	8301.88
467.32	8367.42
467.51	8528.91
467.69	8196.56
467.87	8341.67
468.05	8568.70
468.23	8315.92
468.41	8322.94
468.60	8549.98
468.78	8559.34
468.96	8748.92
469.14	8809.78
469.32	8765.31
469.50	8559.34
469.69	8744.24
469.87	8812.12
470.05	8690.41
470.23	8882.33
470.41	8863.61
470.59	8954.89
470.77	8891.70
470.95	8805.10
471.14	9114.05
471.32	8917.44
471.50	9083.62
471.68	8964.25
471.86	9270.86
472.04	9174.90
472.22	9327.03
472.40	9221.71
472.58	9226.39
472.77	9170.22
472.95	9624.28
473.13	9685.14
473.31	9217.03
473.49	9504.92
473.67	9530.66
473.85	9617.26
474.03	9664.07
474.21	9830.25
474.39	9748.33
474.57	9877.06
474.75	9813.87
474.93	10003.45
475.12	10050.26
475.30	10223.46
475.48	10008.13
475.66	10237.50
475.84	10078.35
476.02	10504.32
476.20	10223.46
476.38	10230.48
476.56	10623.69
476.74	10651.78
476.92	10619.01
477.10	10656.46
477.28	10719.65
477.46	10572.20
477.64	10836.68
477.82	11173.72
478.00	11265.00
478.18	11108.18
478.36	11159.67
478.54	11550.54
478.72	11485.01
478.90	11534.16
479.08	11850.13
479.26	11548.20
479.44	11798.64
479.62	11971.84
479.80	12018.65
479.98	11964.82
480.16	12142.70
480.34	12451.65
480.52	12325.26
480.70	12456.33
480.88	12126.32
481.06	12388.46
481.24	12645.91
481.41	12709.11
481.59	12741.88
481.77	12989.97
481.95	12961.89
482.13	13249.77
482.31	13249.77
482.49	13474.46
482.67	13378.50
482.85	13591.49
483.03	13799.80
483.21	13701.50
483.39	13853.63
483.57	13905.12
483.74	13951.93
483.92	14068.96
484.10	13991.72
484.28	14321.74
484.46	14562.81
484.64	14808.57
484.82	14544.09
485.00	14881.13
485.18	15166.67
485.35	15374.98
485.53	15061.35
485.71	15183.06
485.89	15517.75
486.07	15536.48
486.25	15461.58
486.43	15749.46
486.61	15782.23
486.78	16039.69
486.96	16142.67
487.14	16280.77
487.32	16252.68
487.50	15967.13
487.68	16744.19
487.85	16908.03
488.03	16912.71
488.21	16922.07
488.39	16945.48
488.57	17181.87
488.75	17282.52
488.92	17331.67
489.10	17572.74
489.28	17532.95
489.46	18003.40
489.64	17745.94
489.81	18192.98
489.99	18263.20
490.17	18204.69
490.35	18349.80
490.53	18768.76
490.70	18972.38
490.88	18782.80
491.06	19168.99
491.24	19108.13
491.41	19199.41
491.59	19208.78
491.77	19353.89
491.95	19403.04
492.13	19733.06
492.30	19714.33
492.48	19936.68
492.66	19908.60
492.84	20245.63
493.01	20453.94
493.19	19934.34
493.37	20741.83
493.54	20442.24
493.72	20624.80
493.90	20720.76
494.08	20631.82
494.25	21212.28
494.43	20954.82
494.61	21106.95
494.79	21589.10
494.96	21514.20
495.14	21589.10
495.32	21664.00
495.49	21598.46
495.67	22059.55
495.85	22085.30
496.02	22312.33
496.20	22595.53
496.38	22569.79
496.55	22506.59
496.73	23278.97
496.91	22850.65
497.09	23475.57
497.26	23201.73
497.44	23051.94
497.62	22951.29
497.79	23555.15
497.97	23384.29
498.14	23915.59
498.32	23852.40
498.50	24105.18
498.67	24313.48
498.85	23831.33
499.03	24264.33
499.20	24205.82
499.38	24379.02
499.56	24519.45
499.73	24439.87
499.91	24577.97
500.08	24877.55
500.26	24788.61
500.44	24952.45
500.61	24994.58
500.79	24847.13
500.97	25514.18
501.14	25603.12
501.32	25507.16
501.49	25514.18
501.67	25626.53
501.84	25752.91
502.02	25748.23
502.20	25820.79
502.37	26085.27
502.55	25982.29
502.72	25816.11
502.90	26031.44
503.07	25745.89
503.25	26199.96
503.43	26408.26
503.60	26401.24
503.78	26820.20
503.95	26506.57
504.13	27164.26
504.30	26951.27
504.48	26829.56
504.65	27002.76
504.83	27318.73
505.01	27175.96
505.18	27342.14
505.36	27379.59
505.53	27623.00
505.71	27697.90
505.88	27765.78
506.06	27424.06
506.23	27545.76
506.41	27522.36
506.58	27978.76
506.76	27992.81
506.93	28182.39
507.11	27892.16
507.28	28615.39
507.46	28861.15
507.63	28226.86
507.81	28456.23
507.98	28657.52
508.16	28615.39
508.33	29022.64
508.50	28568.58
508.68	28800.29
508.85	29336.27
509.03	29130.31
509.20	29205.20
509.38	29603.10
509.55	29432.24
509.73	29504.79
509.90	30094.61
510.08	29748.21
510.25	29633.52
510.42	29617.14
510.60	29951.84
510.77	29628.84
510.95	30527.61
511.12	29895.66
511.30	30087.59
511.47	30529.95
511.64	30422.28
511.82	30567.40
511.99	30096.95
512.17	30572.08
512.34	30260.79
512.51	30831.88
512.69	31101.04
512.86	31019.12
513.04	31346.79
513.21	31379.56
513.38	31414.67
513.56	31641.70
513.73	30848.26
513.90	31452.12
514.08	31667.45
514.25	31892.14
514.43	32039.59
514.60	32074.70
514.77	31981.08
514.95	32067.68
515.12	31414.67
515.29	31903.84
515.47	32374.29
515.64	32329.82
515.81	32180.03
515.99	32418.76
516.16	32563.87
516.33	32077.04
516.51	33048.36
516.68	32620.05
516.85	32751.12
517.03	32903.25
517.20	33074.11
517.37	32723.03
517.54	33123.26
517.72	33570.30
517.89	33193.48
518.06	33811.38
518.24	33174.75
518.41	33186.46
518.58	33181.77
518.75	33305.82
518.93	33500.09
519.10	33207.52
519.27	34307.57
519.45	34125.01
519.62	33935.43
519.79	34031.39
519.96	33701.37
520.14	33940.11
520.31	33731.80
520.48	34274.80
520.65	34492.47
520.83	34581.42
521.00	34972.28
521.17	34490.13
521.34	34768.66
521.52	34857.60
521.69	34621.20
521.86	35185.27
522.03	35374.86
522.20	35180.59
522.38	35599.55
522.55	35744.66
522.72	35101.01
522.89	35337.41
523.07	35807.86
523.24	35859.35
523.41	35526.99
523.58	35456.78
523.75	35737.64
523.92	35648.70
524.10	35653.38
524.27	35828.92
524.44	36062.97
524.61	36137.87
524.78	36072.34
524.96	36037.23
525.13	36254.90
525.30	36755.77
525.47	36552.15
525.64	36507.68
525.81	36849.39
525.98	36673.85
526.16	36786.20
526.33	36446.82
526.50	36982.80
526.67	36872.80
526.84	36994.51
527.01	36877.48
527.18	36889.18
527.36	37368.99
527.53	37525.81
527.70	37684.97
527.87	37240.26
528.04	37462.61
528.21	37446.23
528.38	37598.37
528.55	37123.24
528.72	37411.12
528.89	37523.47
529.07	37043.66
529.24	37589.00
529.41	37757.52
529.58	38206.90
529.75	38232.65
529.92	37656.88
530.09	37886.25
530.26	37872.21
530.43	37460.27
530.60	37486.02
530.77	37954.13
530.94	38265.42
531.11	38202.22
531.28	37715.39
531.46	37949.45
531.63	38443.30
531.80	38550.96
531.97	38471.39
532.14	38501.81
532.31	38398.83
532.48	38646.93
532.65	39014.39
532.82	38749.91
532.99	38686.71
533.16	38675.01
533.33	38888.00
533.50	38920.77
533.67	39133.76
533.84	38724.16
534.01	39241.42
534.18	39470.79
534.35	39873.37
534.52	39538.67
534.69	39770.38
534.86	39643.99
535.03	39391.22
535.20	39669.74
535.37	39636.97
535.54	40027.84
535.71	39613.57
535.88	39590.16
536.05	39723.57
536.22	40179.98
536.38	39915.50
536.55	39941.24
536.72	40137.85
536.89	40128.48
537.06	39934.22
537.23	40032.52
537.40	39887.41
537.57	40339.13
537.74	40381.26
537.91	40081.67
538.08	40444.46
538.25	40091.04
538.42	40484.25
538.59	40687.87
538.75	40170.61
538.92	40261.90
539.09	40975.76
539.26	40596.59
539.43	40755.75
539.60	40795.54
539.77	40528.72
539.94	41317.48
540.11	41120.87
540.28	41577.28
540.44	41170.02
540.61	40961.72
540.78	41165.34
540.95	41390.03
541.12	41415.78
541.29	41357.27
541.46	41404.08
541.62	41642.81
541.79	41731.75
541.96	41074.06
542.13	41216.83
542.30	40966.40
542.47	41488.34
542.63	41645.15
542.80	41567.91
542.97	41792.61
543.14	42017.30
543.31	42232.63
543.48	42071.13
543.64	42478.38
543.81	42426.89
543.98	42405.83
544.15	42389.44
544.32	42286.46
544.48	42256.03
544.65	42646.90
544.82	42457.32
544.99	42281.78
545.16	42473.70
545.32	42780.31
545.49	42918.40
545.66	43175.86
545.83	42831.80
546.00	42873.93
546.16	43173.52
546.33	42464.34
546.50	42494.77
546.67	42981.60
546.83	42810.74
547.00	42595.41
547.17	42883.30
547.34	43229.69
547.50	43253.10
547.67	43842.92
547.84	43316.29
548.00	43758.66
548.17	43849.94
548.34	43264.80
548.51	43732.91
548.67	43580.78
548.84	43643.97
549.01	43576.09
549.18	43477.79
549.34	43814.83
549.51	43658.01
549.68	43896.75
549.84	43669.72
550.01	44210.38
550.18	43674.40
550.34	43770.36
550.51	44069.95
550.68	44126.12
550.84	43899.09
551.01	44184.63
551.18	43639.29
551.34	43840.57
551.51	44128.46
551.68	43995.05
551.84	44208.04
552.01	43910.79
552.18	44301.66
552.34	44053.56
552.51	44481.88
552.68	44266.55
552.84	44098.03
553.01	44788.49
553.18	44374.22
553.34	44596.57
553.51	44360.17
553.67	44435.07
553.84	44837.64
554.01	44502.95
554.17	44905.52
554.34	44856.37
554.51	44870.41
554.67	45205.11
554.84	45125.53
555.00	44774.45
555.17	44732.32
555.33	45584.27
555.50	45085.74
555.67	44842.32
555.83	45078.72
556.00	44989.78
556.16	45425.12
556.33	45375.97
556.50	45439.16
556.66	45221.49
556.83	45254.26
556.99	45701.30
557.16	45755.13
557.32	45272.98
557.49	45495.33
557.65	45490.65
557.82	44964.03
557.98	45378.31
558.15	45764.49
558.32	45514.06
558.48	45162.98
558.65	45858.12
558.81	45551.51
558.98	45202.77
559.14	45476.61
559.31	45401.71
559.47	45577.25
559.64	46021.95
559.80	45937.69
559.97	45633.42
560.13	45825.35
560.30	45830.03
560.46	45951.74
560.63	46099.19
560.79	45958.76
560.96	45720.02
561.12	45909.61
561.29	46150.68
561.45	46415.16
561.61	45715.34
561.78	45869.82
561.94	46019.61
562.11	46164.73
562.27	46143.66
562.44	45811.31
562.60	46333.24
562.77	46160.05
562.93	45846.41
563.10	46384.74
563.26	46239.62
563.42	46445.59
563.59	46422.19
563.75	46195.15
563.92	46108.55
564.08	46171.75
564.24	46094.51
564.41	46457.29
564.57	46714.75
564.74	46281.75
564.90	46466.66
565.07	46356.65
565.23	46146.00
565.39	46623.47
565.56	46241.96
565.72	46527.51
565.88	46602.41
566.05	46464.32
566.21	46391.76
566.38	46398.78
566.54	46417.50
566.70	46536.87
566.87	46597.73
567.03	46515.81
567.19	46801.35
567.36	46707.73
567.52	46415.16
567.68	46639.86
567.85	46801.35
568.01	46728.80
568.17	46773.27
568.34	46829.44
568.50	46782.63
568.66	46546.23
568.83	46831.78
568.99	46873.91
569.15	46927.74
569.32	46726.46
569.48	46614.11
569.64	47093.92
569.81	47166.48
569.97	46658.58
570.13	47175.84
570.30	46766.24
570.46	47016.68
570.62	47143.07
570.78	47054.13
570.95	46834.12
571.11	47213.29
571.27	46726.46
571.43	47042.43
571.60	46946.47
571.76	46871.57
571.92	47004.98
572.09	47124.35
572.25	47082.22
572.41	47297.55
572.57	47091.58
572.74	47377.12
572.90	47330.31
573.06	47084.56
573.22	47201.58
573.38	47618.20
573.55	47063.49
573.71	47538.62
573.87	47723.52
574.03	47342.02
574.20	47629.90
574.36	47114.98
574.52	47494.15
574.68	47180.52
574.84	47178.18
575.01	47302.23
575.17	47316.27
575.33	47353.72
575.49	47236.69
575.65	47297.55
575.82	47704.80
575.98	47569.05
576.14	47452.02
576.30	47679.05
576.46	47206.26
576.62	47402.87
576.79	47770.33
576.95	46880.93
577.11	47229.67
577.27	46997.96
577.43	47416.91
577.59	47342.02
577.75	47629.90
577.92	47093.92
578.08	47608.84
578.24	47519.90
578.40	48004.39
578.56	47931.83
578.72	47232.01
578.88	47461.38
579.04	47615.86
579.21	47248.39
579.37	46988.60
579.53	47676.71
579.69	47344.36
579.85	47447.34
580.01	47210.95
580.17	47353.72
580.33	47782.04
580.49	47545.64
580.65	47388.83
580.82	47229.67
580.98	47463.72
581.14	46995.62
581.30	47442.66
581.46	47384.15
581.62	47213.29
581.78	47150.09
581.94	47618.20
582.10	47402.87
582.26	47868.64
582.42	47224.99
582.58	47707.14
582.74	47793.74
582.90	47576.07
583.06	47562.03
583.22	47203.92
583.38	47536.28
583.54	47990.34
583.70	47634.58
583.86	48133.12
584.02	47744.59
584.18	48189.29
584.34	47964.60
584.50	47709.48
584.66	48072.26
584.82	47819.49
584.98	47929.49
585.14	48044.18
585.30	47388.83
585.46	47639.26
585.62	47547.98
585.78	47732.89
585.94	47449.68
586.10	47606.50
586.26	47529.26
586.42	47522.24
586.58	47583.09
586.74	47569.05
586.90	47452.02
587.06	47929.49
587.22	48027.79
587.38	47782.04
587.54	47899.06
587.70	47784.38
587.86	47838.21
588.02	47793.74
588.18	47594.79
588.34	47800.76
588.49	47889.70
588.65	47903.74
588.81	47782.04
588.97	47709.48
589.13	47875.66
589.29	47618.20
589.45	48135.46
589.61	47786.72
589.77	47934.17
589.93	47622.88
590.08	48114.39
590.24	47791.40
590.40	48243.12
590.56	48278.23
590.72	48046.52
590.88	47973.96
591.04	48334.40
591.20	48011.41
591.35	48236.10
591.51	48575.48
591.67	48334.40
591.83	48172.91
591.99	47803.10
592.15	48079.28
592.31	48208.01
592.46	47985.66
592.62	48133.12
592.78	48325.04
592.94	48776.76
593.10	48081.63
593.26	48303.98
593.41	48685.48
593.57	48303.98
593.73	48210.35
593.89	48383.55
594.05	48879.75
594.20	48212.70
594.36	48898.47
594.52	48718.25
594.68	48521.65
594.84	48327.38
594.99	48589.52
595.15	48179.93
595.31	48004.39
595.47	48376.53
595.62	48444.41
595.78	48472.49
595.94	48608.25
596.10	48533.35
596.25	48346.11
596.41	48568.46
596.57	48402.28
596.73	48444.41
596.88	48460.79
597.04	48416.32
597.20	48739.32
597.36	47943.53
597.51	48479.52
597.67	48357.81
597.83	48177.59
597.99	48516.96
598.14	48222.06
598.30	48711.23
598.46	48430.36
598.61	48428.02
598.77	48662.08
598.93	49001.46
599.09	48465.47
599.24	48729.95
599.40	48690.16
599.56	48701.87
599.71	48900.81
599.87	49235.51
600.03	49071.67
600.18	48566.12
600.34	48334.40
600.50	48502.92
600.65	48275.89
600.81	48809.53
600.97	48975.71
601.12	48549.73
601.28	49010.82
601.44	48507.60
601.59	48474.84
601.75	48488.88
601.91	48910.17
602.06	48523.99
602.22	48980.39
602.37	48619.95
602.53	48259.51
602.69	48741.66
602.84	48303.98
603.00	48287.59
603.16	48484.20
603.31	48432.71
603.47	48835.28
603.62	48266.53
603.78	48622.29
603.94	48673.78
604.09	48732.29
604.25	48371.85
604.40	48416.32
604.56	48587.18
604.71	49076.35
604.87	48437.39
605.03	48470.15
605.18	48559.09
605.34	48566.12
605.49	48481.86
605.65	48339.08
605.80	48114.39
605.96	48652.72
606.12	48624.63
606.27	48573.14
606.43	48055.88
606.58	48692.50
606.74	48463.13
606.89	48308.66
607.05	48825.92
607.20	48615.27
607.36	48493.56
607.51	48458.45
607.67	48404.62
607.82	48505.26
607.98	48346.11
608.13	48231.42
608.29	48292.27
608.44	48378.87
608.60	48093.33
608.75	48687.82
608.91	48711.23
609.06	48100.35
609.22	48355.47
609.37	48140.14
609.53	48514.62
609.68	48451.43
609.84	48048.86
609.99	48374.19
610.15	48294.61
610.30	48109.71
610.46	48285.25
610.61	48418.66
610.76	48470.15
610.92	47824.17
611.07	48114.39
611.23	47978.64
611.38	47948.21
611.54	48076.94
611.69	48488.88
611.84	48545.05
612.00	48121.41
612.15	47835.87
612.31	48303.98
612.46	47711.82
612.62	48013.75
612.77	48039.50
612.92	48554.41
613.08	47922.47
613.23	48081.63
613.39	47952.90
613.54	48018.43
613.69	48406.96
613.85	47819.49
614.00	47957.58
614.15	48116.73
614.31	47716.50
614.46	47545.64
614.62	47927.15
614.77	47547.98
614.92	47772.67
615.08	47988.00
615.23	47964.60
615.38	48109.71
615.54	47840.55
615.69	48161.20
615.84	47765.65
616.00	47873.32
616.15	47908.43
616.30	47583.09
616.46	47746.93
616.61	47765.65
616.76	47845.23
616.92	47498.83
617.07	48013.75
617.22	48013.75
617.37	47384.15
617.53	47604.16
617.68	47494.15
617.83	47709.48
617.99	47899.06
618.14	47688.42
618.29	47037.75
618.45	47157.11
618.60	47040.09
618.75	47241.37
618.90	47489.47
619.06	47456.70
619.21	47105.62
619.36	47585.43
619.51	47267.12
619.67	47030.72
619.82	47206.26
619.97	47171.16
620.12	47267.12
620.28	47086.90
620.43	47744.59
620.58	47374.78
620.73	47538.62
620.89	47407.55
621.04	47452.02
621.19	47049.45
621.34	47402.87
621.49	47365.42
621.65	46976.89
621.80	47189.88
621.95	47353.72
622.10	47419.25
622.25	46782.63
622.41	47150.09
622.56	47232.01
622.71	46997.96
622.86	46660.92
623.01	47196.90
623.16	47412.23
623.32	46775.61
623.47	47061.15
623.62	46780.29
623.77	47166.48
623.92	46871.57
624.07	46925.40
624.23	47136.05
624.38	47110.30
624.53	46883.27
624.68	46887.95
624.83	46358.99
624.98	46384.74
625.13	46316.86
625.29	46443.25
625.44	46766.24
625.59	46658.58
625.74	46689.01
625.89	46366.01
626.04	46293.46
626.19	46319.20
626.34	46146.00
626.49	46169.41
626.65	46085.15
626.80	45902.59
626.95	45984.51
627.10	46199.83
627.25	46384.74
627.40	46136.64
627.55	46417.50
627.70	46300.48
627.85	46174.09
628.00	46263.03
628.15	46298.14
628.30	45514.06
628.45	45469.59
628.60	45673.21
628.76	45839.39
628.91	45897.91
629.06	45921.31
629.21	45783.22
629.36	45464.91
629.51	46045.36
629.66	46153.02
629.81	46066.42
629.96	45808.96
630.11	45979.82
630.26	45481.29
630.41	45432.14
630.56	45563.21
630.71	45963.44
630.86	45619.38
631.01	45350.22
631.16	45366.60
631.31	45565.55
631.46	45483.63
631.61	45769.18
631.76	45738.75
631.91	45570.23
632.06	45858.12
632.21	45783.22
632.36	45858.12
632.51	44769.77
632.66	45851.09
632.81	45626.40
632.96	45474.27
633.10	45420.44
633.25	45464.91
633.40	45457.88
633.55	45366.60
633.70	45382.99
633.85	45308.09
634.00	45146.59
634.15	44631.68
634.30	45134.89
634.45	45034.25
634.60	45378.31
634.75	45038.93
634.90	44720.62
635.05	45591.30
635.19	45289.37
635.34	45600.66
635.49	45146.59
635.64	45120.85
635.79	45411.07
635.94	44886.79
636.09	44957.01
636.24	44884.45
636.39	45059.99
636.53	45003.82
636.68	44563.80
636.83	44257.19
636.98	45230.85
637.13	44732.32
637.28	44521.67
637.43	44779.13
637.57	44591.89
637.72	44378.90
637.87	44641.04
638.02	44570.82
638.17	44573.16
638.32	44584.86
638.46	44296.98
638.61	43957.60
638.76	44058.24
638.91	44383.58
639.06	44039.52
639.20	44023.14
639.35	44350.81
639.50	44013.77
639.65	44306.34
639.80	44442.09
639.94	44194.00
640.09	44807.22
640.24	44423.37
640.39	43665.03
640.54	43819.51
640.68	44224.42
640.83	43875.68
640.98	44294.64
641.13	43714.19
641.27	44086.33
641.42	44107.40
641.57	43739.93
641.72	43863.98
641.86	43639.29
642.01	43559.71
642.16	43789.08
642.31	43732.91
642.45	43810.15
642.60	43047.13
642.75	43643.97
642.90	43496.52
643.04	44006.75
643.19	43552.69
643.34	43501.20
643.48	43374.81
643.63	43580.78
643.78	43318.64
643.93	44051.22
644.07	43466.09
644.22	43627.59
644.37	43217.99
644.51	43819.51
644.66	43543.33
644.81	43234.38
644.95	43571.41
645.10	43405.23
645.25	43466.09
645.39	43007.34
645.54	43147.78
645.69	43126.71
645.83	43077.56
645.98	43112.67
646.13	43250.76
646.27	43122.03
646.42	42714.78
646.57	43421.62
646.71	43409.92
646.86	43075.22
647.00	43178.20
647.15	43409.92
647.30	43119.69
647.44	42726.48
647.59	43267.14
647.74	42880.95
647.88	43257.78
648.03	43330.34
648.17	43737.59
648.32	43082.24
648.47	43222.67
648.61	42560.30
648.76	42904.36
648.90	42782.65
649.05	42555.62
649.20	42752.23
649.34	42820.10
649.49	42391.78
649.63	43000.32
649.78	42913.72
649.92	42574.34
650.07	43323.32
650.21	42651.58
650.36	43056.50
650.51	42630.52
650.65	42763.93
650.80	42866.91
650.94	42632.86
651.09	42899.68
651.23	42391.78
651.38	42064.11
651.52	42103.90
651.67	42220.92
651.81	42291.14
651.96	42267.73
652.10	41797.29
652.25	41954.10
652.39	42302.84
652.54	42246.67
652.68	42351.99
652.83	42050.06
652.97	42225.60
653.12	42419.87
653.26	42082.83
653.41	41972.83
653.55	41914.31
653.70	42267.73
653.84	42328.59
653.99	41982.19
654.13	42209.22
654.27	41698.98
654.42	42094.53
654.56	41694.30
654.71	41923.68
654.85	42038.36
655.00	41649.83
655.14	41848.78
655.29	41876.86
655.43	41600.68
655.57	41563.23
655.72	41530.47
655.86	41551.53
656.01	41329.18
656.15	41329.18
656.30	41153.64
656.44	41621.75
656.58	41722.39
656.73	41191.09
656.87	41053.00
657.01	41352.58
657.16	41153.64
657.30	41291.73
657.45	40952.35
657.59	41113.85
657.73	41109.17
657.88	41258.96
658.02	41357.27
658.16	41544.51
658.31	41240.24
658.45	40741.71
658.60	40638.72
658.74	40980.44
658.88	41263.64
659.03	40912.56
659.17	40701.92
659.31	40910.22
659.46	40601.27
659.60	40517.01
659.74	40598.93
659.89	40301.68
660.03	40407.01
660.17	40830.65
660.32	40542.76
660.46	40364.88
660.60	40135.51
660.74	40517.01
660.89	40573.19
661.03	40266.58
661.17	39906.13
661.32	40109.76
661.46	39894.43
661.60	39849.96
661.74	40058.27
661.89	40339.13
662.03	40465.52
662.17	39679.10
662.31	39676.76
662.46	39938.90
662.60	39892.09
662.74	38969.92
662.88	39491.86
663.03	39271.85
663.17	39051.84
663.31	39056.52
663.45	38785.02
663.60	39353.77
663.74	39400.58
663.88	39482.50
664.02	39049.50
664.17	39548.03
664.31	39330.36
664.45	38958.22
664.59	39349.09
664.73	38852.89
664.88	39082.27
665.02	38958.22
665.16	38705.44
665.30	38447.98
665.44	38684.37
665.59	38567.35
665.73	38319.25
665.87	37902.64
666.01	38412.87
666.15	38426.92
666.29	38618.84
666.44	38457.34
666.58	38291.16
666.72	38445.64
666.86	37841.78
667.00	37832.42
667.14	37858.17
667.28	38094.56
667.43	37818.38
667.57	38150.73
667.71	38242.01
667.85	38031.36
667.99	37764.54
668.13	37518.79
668.27	37216.86
668.41	37542.19
668.56	37198.13
668.70	37083.45
668.84	36797.90
668.98	37109.19
669.12	36917.27
669.26	36985.15
669.40	37022.59
669.54	37390.06
669.68	37177.07
669.82	36884.50
669.96	36418.74
670.10	36566.19
670.25	36570.87
670.39	36404.69
670.53	36561.51
670.67	36638.75
670.81	36772.16
670.95	36287.67
671.09	36098.08
671.23	36332.14
671.37	36194.04
671.51	36180.00
671.65	35747.00
671.79	35826.58
671.93	36006.80
672.07	35967.01
672.21	35697.85
672.35	35433.37
672.49	35342.09
672.63	35555.08
672.77	35402.94
672.91	35662.74
673.05	35498.91
673.19	35211.02
673.33	35578.48
673.47	35105.70
673.61	34642.27
673.75	34710.14
673.89	35288.26
674.03	34389.49
674.17	34256.08
674.31	34073.52
674.45	34274.80
674.59	34246.72
674.73	34558.01
674.87	34424.60
675.01	34300.55
675.15	33954.15
675.29	33528.17
675.43	34005.64
675.56	34176.50
675.70	33570.30
675.84	33752.87
675.98	32442.17
676.12	33696.69
676.26	33827.76
676.40	33483.70
676.54	33013.26
676.68	33188.80
676.82	32851.76
676.96	32898.57
677.10	33256.67
677.23	32657.49
677.37	32671.54
677.51	32383.65
677.65	32212.79
677.79	32034.91
677.93	32498.34
678.07	32137.90
678.21	32301.73
678.34	31894.48
678.48	31894.48
678.62	31576.17
678.76	31765.75
678.90	31805.54
679.04	31674.47
679.18	31817.24
679.31	31358.50
679.45	31372.54
679.59	30810.81
679.73	31119.76
679.87	30820.17
680.00	30759.32
680.14	30958.27
680.28	30661.02
680.42	30651.66
680.56	30398.88
680.70	30267.81
680.83	30237.38
680.97	29930.77
681.11	29933.11
681.25	30298.23
681.39	29567.99
681.52	29565.65
681.66	29535.22
681.80	29137.33
681.94	29359.68
682.07	29003.92
682.21	28978.17
682.35	29017.96
682.49	28795.61
682.62	28905.62
682.76	29039.03
682.90	28608.37
683.04	28697.31
683.17	28751.14
683.31	28685.61
683.45	27943.66
683.59	27917.91
683.72	28180.05
683.86	27910.89
684.00	28046.64
684.13	27742.37
684.27	27768.12
684.41	27255.54
684.55	27653.43
684.68	27487.25
684.82	27199.37
684.96	27358.52
685.09	27239.15
685.23	27601.94
685.37	27412.35
685.50	27229.79
685.64	27103.40
685.78	26850.63
685.91	26480.82
686.05	26455.08
686.19	26214.00
686.32	26309.96
686.46	25731.85
686.60	25755.26
686.73	26216.34
686.87	25886.32
687.01	26085.27
687.14	25965.90
687.28	25837.17
687.42	25951.86
687.55	25408.86
687.69	25483.75
687.82	25266.08
687.96	25017.99
688.10	25025.01
688.23	24996.92
688.37	24992.24
688.50	25228.63
688.64	24847.13
688.78	24917.34
688.91	24849.47
689.05	24489.03
689.18	24395.40
689.32	24034.96
689.46	23913.25
689.59	23761.12
689.73	24156.67
689.86	24238.59
690.00	24088.79
690.13	24046.66
690.27	23754.10
690.41	23524.72
690.54	23377.27
690.68	23222.80
690.81	23461.53
690.95	23080.02
691.08	22733.62
691.22	22422.33
691.35	23016.83
691.49	22977.04
691.62	23077.68
691.76	22244.45
691.89	22412.97
692.03	22148.49
692.16	22111.04
692.30	21930.82
692.43	21947.20
692.57	21991.67
692.70	22047.85
692.84	21635.91
692.97	21521.23
693.11	21476.76
693.24	21376.11
693.38	21359.73
693.51	21113.97
693.65	21289.51
693.78	20940.77
693.92	21144.40
694.05	20893.96
694.19	20706.72
694.32	21006.31
694.45	21013.33
694.59	21331.64
694.72	20805.02
694.86	20737.15
694.99	20386.07
695.13	20100.52
695.26	20283.08
695.39	19793.91
695.53	19873.49
695.66	19978.81
695.80	19763.48
695.93	19407.72
696.07	19297.72
696.20	19456.87
696.33	19199.41
696.47	19051.96
696.60	19253.25
696.73	19482.62
696.87	19101.11
697.00	18785.14
697.14	19042.60
697.27	18998.13
697.40	18537.04
697.54	18576.83
697.67	18579.17
697.80	18359.16
697.94	18527.68
698.07	18237.45
698.21	18295.97
698.34	18314.69
698.47	18356.82
698.61	17731.90
698.74	17771.69
698.87	18043.19
699.01	17532.95
699.14	17638.28
699.27	17451.03
699.40	17486.14
699.54	17404.22
699.67	17593.81
699.80	17575.08
699.94	17125.70
700.07	17444.01
700.20	17350.39
700.34	16720.79
700.47	17027.40
700.60	16922.07
700.73	16765.26
700.87	16563.97
701.00	16348.64
701.13	16334.60
701.26	16315.87
701.40	16486.73
701.53	16163.74
701.66	16070.12
701.79	16102.89
701.93	16159.06
702.06	15688.61
702.19	15702.65
702.32	16023.31
702.46	15726.06
702.59	15786.91
702.72	15538.82
702.85	15501.37
702.99	15489.67
703.12	15524.77
703.25	15307.10
703.38	14995.81
703.51	15080.07
703.65	14916.23
703.78	15021.56
703.91	14803.89
704.04	14853.04
704.17	14623.67
704.31	14534.73
704.44	14621.33
704.57	14628.35
704.70	14244.50
704.83	14097.05
704.96	14331.10
705.10	14181.31
705.23	13799.80
>>>>>End Processed Spectral Data<<<<<
