SpectraSuite Data File
++++++++++++++++++++++++++++++++++++
Date: Fri Oct 25 11:34:11 EDT 2013
User: price-jones
Dark Spectrum Present: No
Reference Spectrum Present: No
Number of Sampled Component Spectra: 1
Spectrometers: USB2+H05261
Integration Time (usec): 100000 (USB2+H05261)
Spectra Averaged: 1 (USB2+H05261)
Boxcar Smoothing: 0 (USB2+H05261)
Correct for Electrical Dark: No (USB2+H05261)
Strobe/Lamp Enabled: No (USB2+H05261)
Correct for Detector Non-linearity: No (USB2+H05261)
Correct for Stray Light: No (USB2+H05261)
Number of Pixels in Processed Spectrum: 2048
>>>>>Begin Processed Spectral Data<<<<<
365.73	285.55
365.92	285.55
366.12	285.55
366.32	208.31
366.52	191.92
366.72	149.79
366.91	154.48
367.11	166.18
367.31	117.03
367.51	114.69
367.70	189.58
367.90	182.56
368.10	182.56
368.30	191.92
368.49	273.84
368.69	227.03
368.89	203.63
369.09	203.63
369.28	248.10
369.48	252.78
369.68	299.59
369.87	294.91
370.07	224.69
370.27	285.55
370.47	278.52
370.66	421.30
370.86	507.90
371.06	535.98
371.25	521.94
371.45	491.51
371.65	557.05
371.84	531.30
372.04	521.94
372.24	566.41
372.44	496.19
372.63	664.71
372.83	615.56
373.03	603.86
373.22	580.45
373.42	662.37
373.62	578.11
373.81	594.50
374.01	645.99
374.21	603.86
374.40	627.26
374.60	681.10
374.79	648.33
374.99	596.84
375.19	657.69
375.38	610.88
375.58	585.13
375.78	667.05
375.97	622.58
376.17	709.18
376.37	662.37
376.56	645.99
376.76	676.41
376.95	755.99
377.15	763.01
377.35	688.12
377.54	678.76
377.74	730.25
377.93	699.82
378.13	711.52
378.33	709.18
378.52	653.01
378.72	676.41
378.91	681.10
379.11	779.40
379.31	781.74
379.50	713.86
379.70	826.21
379.89	697.48
380.09	772.38
380.28	727.91
380.48	746.63
380.68	702.16
380.87	655.35
381.07	706.84
381.26	741.95
381.46	779.40
381.65	711.52
381.85	697.48
382.04	725.57
382.24	774.72
382.43	814.51
382.63	737.27
382.83	760.67
383.02	741.95
383.22	826.21
383.41	753.65
383.61	809.83
383.80	793.44
384.00	819.19
384.19	741.95
384.39	788.76
384.58	877.70
384.78	823.87
384.97	809.83
385.17	858.98
385.36	777.06
385.56	805.14
385.75	765.36
385.95	823.87
386.14	905.79
386.34	798.12
386.53	814.51
386.72	795.78
386.92	819.19
387.11	837.91
387.31	952.60
387.50	877.70
387.70	835.57
387.89	889.40
388.09	908.13
388.28	882.38
388.48	837.91
388.67	919.83
388.86	903.45
389.06	971.32
389.25	882.38
389.45	889.40
389.64	966.64
389.84	966.64
390.03	957.28
390.22	980.68
390.42	926.85
390.61	954.94
390.81	898.77
391.00	924.51
391.19	912.81
391.39	987.71
391.58	997.07
391.78	1020.47
391.97	1039.20
392.16	1015.79
392.36	1039.20
392.55	997.07
392.75	926.85
392.94	1041.54
393.13	1057.92
393.33	1090.69
393.52	1043.88
393.71	1022.81
393.91	1018.13
394.10	1074.31
394.29	1015.79
394.49	1055.58
394.68	1186.65
394.88	1153.88
395.07	1064.94
395.26	1008.77
395.46	1111.75
395.65	1174.95
395.84	1191.33
396.04	1224.10
396.23	1135.16
396.42	1130.48
396.62	1277.93
396.81	1240.48
397.00	1165.59
397.19	1170.27
397.39	1221.76
397.58	1249.85
397.77	1273.25
397.97	1268.57
398.16	1231.12
398.35	1310.70
398.55	1203.04
398.74	1287.29
398.93	1334.11
399.12	1275.59
399.32	1378.58
399.51	1263.89
399.70	1334.11
399.90	1252.19
400.09	1252.19
400.28	1462.83
400.47	1322.40
400.67	1500.28
400.86	1458.15
401.05	1439.43
401.24	1324.74
401.44	1418.36
401.63	1448.79
401.82	1460.49
402.01	1462.83
402.21	1362.19
402.40	1554.12
402.59	1439.43
402.78	1401.98
402.97	1441.77
403.17	1600.93
403.36	1528.37
403.55	1509.65
403.74	1547.09
403.93	1516.67
404.13	1504.96
404.32	1540.07
404.51	1643.06
404.70	1626.67
404.89	1624.33
405.09	1598.59
405.28	1645.40
405.47	1675.82
405.66	1743.70
405.85	1727.32
406.05	1619.65
406.24	1675.82
406.43	1748.38
406.62	1652.42
406.81	1790.51
407.00	1732.00
407.20	1678.16
407.39	1741.36
407.58	1837.32
407.77	1734.34
407.96	1767.10
408.15	1816.26
408.34	1830.30
408.54	1879.45
408.73	1926.26
408.92	1916.90
409.11	1919.24
409.30	1954.35
409.49	1980.09
409.68	1928.60
409.87	1930.94
410.07	2050.31
410.26	2071.37
410.45	2005.84
410.64	2062.01
410.83	2076.06
411.02	2090.10
411.21	2207.13
411.40	2139.25
411.59	2188.40
411.78	2211.81
411.98	2136.91
412.17	2253.94
412.36	2321.81
412.55	2235.21
412.74	2242.23
412.93	2317.13
413.12	2282.02
413.31	2492.67
413.50	2263.30
413.69	2326.49
413.88	2368.62
414.07	2363.94
414.26	2375.64
414.45	2420.11
414.64	2464.58
414.83	2427.14
415.02	2434.16
415.22	2509.05
415.41	2640.12
415.60	2551.18
415.79	2693.96
415.98	2672.89
416.17	2677.57
416.36	2654.17
416.55	2745.45
416.74	2712.68
416.93	2768.85
417.12	2785.24
417.31	2766.51
417.50	2839.07
417.69	2977.16
417.88	2825.03
418.07	2928.01
418.26	2867.16
418.45	2881.20
418.64	2949.08
418.83	3101.21
419.02	2972.48
419.21	2974.82
419.39	3023.97
419.58	3059.08
419.77	3038.02
419.96	3084.83
420.15	3164.40
420.34	3124.62
420.53	3094.19
420.72	3164.40
420.91	3082.49
421.10	3255.69
421.29	3101.21
421.48	3136.32
421.67	3098.87
421.86	3176.11
422.05	3351.65
422.24	3262.71
422.43	3316.54
422.61	3197.17
422.80	3318.88
422.99	3386.76
423.18	3353.99
423.37	3346.97
423.56	3346.97
423.75	3281.43
423.94	3309.52
424.13	3115.25
424.32	3262.71
424.50	3456.97
424.69	3442.93
424.88	3417.18
425.07	3517.83
425.26	3358.67
425.45	3433.57
425.64	3290.79
425.83	3346.97
426.01	3293.13
426.20	3335.26
426.39	3332.92
426.58	3426.54
426.77	3379.73
426.96	3375.05
427.15	3463.99
427.33	3529.53
427.52	3552.93
427.71	3433.57
427.90	3538.89
428.09	3644.21
428.28	3536.55
428.46	3705.07
428.65	3576.34
428.84	3836.14
429.03	3653.58
429.22	3632.51
429.40	3693.37
429.59	3658.26
429.78	3531.87
429.97	3522.51
430.16	3712.09
430.34	3712.09
430.53	3779.97
430.72	3789.33
430.91	3906.35
431.10	3758.90
431.28	3836.14
431.47	3950.82
431.66	3915.72
431.85	3761.24
432.03	3997.64
432.22	3990.61
432.41	3925.08
432.60	4035.08
432.79	3913.38
432.97	3985.93
433.16	4081.89
433.35	4039.76
433.54	4154.45
433.72	4224.67
433.91	4074.87
434.10	3978.91
434.28	4173.18
434.47	4086.58
434.66	4215.30
434.85	4194.24
435.03	4091.26
435.22	4264.46
435.41	4351.06
435.59	4259.78
435.78	4344.03
435.97	4381.48
436.16	4243.39
436.34	4278.50
436.53	4458.72
436.72	4444.68
436.90	4362.76
437.09	4482.13
437.28	4367.44
437.46	4437.66
437.65	4320.63
437.84	4507.87
438.02	4533.62
438.21	4580.43
438.40	4432.97
438.58	4678.73
438.77	4713.84
438.96	4533.62
439.14	4622.56
439.33	4844.91
439.52	4908.10
439.70	4819.16
439.89	4901.08
440.08	5015.77
440.26	5102.37
440.45	4877.68
440.63	5022.79
440.82	5128.11
441.01	4931.51
441.19	5074.28
441.38	4966.62
441.57	5193.65
441.75	5298.97
441.94	5238.12
442.12	5373.87
442.31	5460.47
442.50	5373.87
442.68	5233.44
442.87	5254.50
443.05	5357.49
443.24	5504.94
443.43	5460.47
443.61	5401.96
443.80	5610.26
443.98	5284.93
444.17	5191.31
444.35	5446.43
444.54	5596.22
444.73	5526.00
444.91	5577.50
445.10	5488.56
445.28	5474.51
445.47	5423.02
445.65	5423.02
445.84	5483.88
446.02	5528.35
446.21	5518.98
446.39	5589.20
446.58	5715.59
446.77	5472.17
446.95	5577.50
447.14	5584.52
447.32	5680.48
447.51	5645.37
447.69	5467.49
447.88	5509.62
448.06	5755.38
448.25	5523.66
448.43	5729.63
448.62	5715.59
448.80	5666.44
448.99	5727.29
449.17	5811.55
449.36	5720.27
449.54	5921.56
449.73	5907.51
449.91	5912.19
450.10	5881.77
450.28	5944.96
450.46	6040.92
450.65	5959.00
450.83	5891.13
451.02	5937.94
451.20	6087.73
451.39	6029.22
451.57	6069.01
451.76	6005.81
451.94	6122.84
452.13	6120.50
452.31	6127.52
452.49	5891.13
452.68	6134.54
452.86	6183.70
453.05	6239.87
453.23	6277.32
453.42	6045.60
453.60	6113.48
453.78	6230.51
453.97	6218.80
454.15	6204.76
454.34	6359.24
454.52	6462.22
454.70	6195.40
454.89	6466.90
455.07	6609.67
455.26	6539.46
455.44	6630.74
455.62	6434.13
455.81	6604.99
455.99	6752.45
456.17	6619.04
456.36	6670.53
456.54	6661.16
456.73	6668.19
456.91	6869.47
457.09	6803.94
457.28	6848.41
457.46	6722.02
457.64	6806.28
457.83	7000.54
458.01	6810.96
458.19	6965.43
458.38	6747.76
458.56	7045.01
458.74	7178.42
458.93	7197.15
459.11	7007.56
459.29	7091.82
459.48	7056.72
459.66	7049.69
459.84	6946.71
460.03	7218.21
460.21	7157.36
460.39	7068.42
460.57	7094.16
460.76	7218.21
460.94	7276.73
461.12	7508.44
461.31	7293.11
461.49	7145.66
461.67	7449.93
461.85	7487.37
462.04	7405.46
462.22	7838.45
462.40	7716.75
462.59	7550.57
462.77	7639.51
462.95	7611.42
463.13	7506.10
463.32	7485.03
463.50	7756.54
463.68	7702.70
463.86	7683.98
464.05	7524.82
464.23	7665.25
464.41	7719.09
464.59	7627.81
464.78	7901.65
464.96	7763.56
465.14	7698.02
465.32	7864.20
465.50	7960.16
465.69	8018.68
465.87	7861.86
466.05	8004.63
466.23	8058.46
466.41	7880.58
466.60	8105.28
466.78	7885.26
466.96	8023.36
467.14	7932.08
467.32	8184.85
467.51	8294.86
467.69	8060.80
467.87	8210.60
468.05	8084.21
468.23	8315.92
468.41	8002.29
468.60	8367.42
468.78	8278.47
468.96	8135.70
469.14	8407.20
469.32	8493.80
469.50	8297.20
469.69	8409.54
469.87	8580.40
470.05	8318.26
470.23	8667.00
470.41	8571.04
470.59	8781.69
470.77	8645.94
470.95	8657.64
471.14	8847.22
471.32	8561.68
471.50	8711.47
471.68	8950.21
471.86	8861.27
472.04	9001.70
472.22	9121.07
472.40	8985.32
472.58	8966.59
472.77	9060.21
472.95	9177.24
473.13	9427.68
473.31	9165.54
473.49	9336.40
473.67	9111.71
473.85	9118.73
474.03	9579.81
474.21	9238.09
474.39	9579.81
474.57	9451.08
474.75	9689.82
474.93	9678.12
475.12	9834.93
475.30	10033.88
475.48	9832.59
475.66	9781.10
475.84	9764.72
476.02	9923.87
476.20	10024.51
476.38	10244.52
476.56	10331.12
476.74	10232.82
476.92	10289.00
477.10	10286.65
477.28	10335.81
477.46	10424.75
477.64	10527.73
477.82	10511.35
478.00	10918.60
478.18	10803.91
478.36	11117.54
478.54	10986.47
478.72	11108.18
478.90	11272.02
479.08	11145.63
479.26	11330.53
479.44	11424.15
479.62	11508.41
479.80	11573.95
479.98	11618.42
480.16	11946.09
480.34	11782.26
480.52	12070.14
480.70	11808.00
480.88	11751.83
481.06	12208.23
481.24	12182.49
481.41	12131.00
481.59	12446.97
481.77	12472.71
481.95	12545.27
482.13	12812.09
482.31	12636.55
482.49	12894.01
482.67	13034.44
482.85	13139.77
483.03	13221.69
483.21	13144.45
483.39	13460.42
483.57	13551.70
483.74	13614.90
483.92	13472.12
484.10	13635.96
484.28	13717.88
484.46	14174.28
484.64	14366.21
484.82	14059.60
485.00	13980.02
485.18	14469.19
485.35	14792.19
485.53	14780.48
485.71	14853.04
485.89	15084.75
486.07	15051.99
486.25	15171.35
486.43	15246.25
486.61	15264.97
486.78	15627.76
486.96	15241.57
487.14	15571.58
487.32	15653.50
487.50	15896.92
487.68	15889.90
487.85	16224.59
488.03	16222.25
488.21	16524.18
488.39	16397.79
488.57	16704.40
488.75	16631.85
488.92	16851.86
489.10	17348.05
489.28	17043.78
489.46	17348.05
489.64	17355.07
489.81	17614.87
489.99	17532.95
490.17	17783.39
490.35	18335.76
490.53	17935.53
490.70	18146.17
490.88	18181.28
491.06	18759.39
491.24	18424.70
491.41	18527.68
491.59	18824.93
491.77	18780.46
491.95	18869.40
492.13	19274.31
492.30	19253.25
492.48	19126.86
492.66	19445.17
492.84	19604.33
493.01	19697.95
493.19	19599.65
493.37	20002.22
493.54	20049.03
493.72	20348.62
493.90	19772.85
494.08	20460.96
494.25	20563.95
494.43	20386.07
494.61	20643.52
494.79	20978.22
494.96	20650.55
495.14	20809.70
495.32	21067.16
495.49	20966.52
495.67	21160.78
495.85	21420.58
496.02	21788.05
496.20	21811.45
496.38	21642.93
496.55	21764.64
496.73	22377.86
496.91	22104.02
497.09	22363.82
497.26	22373.18
497.44	21809.11
497.62	22457.44
497.79	22920.87
497.97	22834.27
498.14	23187.69
498.32	22988.74
498.50	23115.13
498.67	23381.95
498.85	23218.11
499.03	23597.28
499.20	23290.67
499.38	23316.42
499.56	24140.29
499.73	24032.62
499.91	24058.37
500.08	24250.29
500.26	24018.58
500.44	23896.87
500.61	23995.17
500.79	24453.92
500.97	24577.97
501.14	24805.00
501.32	24575.62
501.49	24671.59
501.67	24367.32
501.84	24966.49
502.02	24938.41
502.20	24952.45
502.37	25055.43
502.55	25259.06
502.72	25448.64
502.90	25558.65
503.07	25329.28
503.25	25556.31
503.43	25411.20
503.60	25282.47
503.78	25790.36
503.95	25792.70
504.13	25773.98
504.30	26040.80
504.48	25893.35
504.65	26132.08
504.83	26148.46
505.01	26324.01
505.18	26525.29
505.36	26647.00
505.53	26431.67
505.71	26576.78
505.88	26848.29
506.06	26925.52
506.23	26597.85
506.41	26661.04
506.58	27218.09
506.76	27194.68
506.93	27328.10
507.11	27431.08
507.28	27527.04
507.46	27414.69
507.63	27522.36
507.81	27536.40
507.98	27611.30
508.16	27484.91
508.33	27955.36
508.50	28135.58
508.68	28151.96
508.85	28407.08
509.03	28114.52
509.20	28425.81
509.38	28402.40
509.55	28402.40
509.73	28423.47
509.90	28760.50
510.08	28493.68
510.25	28304.10
510.42	29296.49
510.60	28833.06
510.77	29158.39
510.95	29551.60
511.12	29149.03
511.30	29024.98
511.47	29582.03
511.64	29319.89
511.82	29762.25
511.99	29408.83
512.17	29738.85
512.34	29598.41
512.51	30127.38
512.69	29916.73
512.86	29986.94
513.04	30359.09
513.21	30256.11
513.38	30312.28
513.56	30232.70
513.73	30295.89
513.90	30443.35
514.08	30480.80
514.25	30843.58
514.43	30621.23
514.60	30888.05
514.77	30759.32
514.95	30862.30
515.12	30939.54
515.29	31402.97
515.47	31311.69
515.64	31229.77
515.81	30890.39
515.99	31311.69
516.16	31587.87
516.33	31227.43
516.51	31662.77
516.68	31878.10
516.85	31693.19
517.03	31718.94
517.20	32016.19
517.37	31674.47
517.54	31910.86
517.72	32006.83
517.89	32212.79
518.06	32313.44
518.24	32503.02
518.41	32135.56
518.58	32077.04
518.75	32463.23
518.93	32519.40
519.10	32189.39
519.27	32421.10
519.45	32697.28
519.62	33010.92
519.79	32584.94
519.96	32746.44
520.14	32854.10
520.31	32774.52
520.48	32910.27
520.65	33371.36
520.83	33408.81
521.00	33757.55
521.17	33706.05
521.34	33521.15
521.52	33989.26
521.69	33687.33
521.86	34054.79
522.03	34064.16
522.20	34202.25
522.38	34155.44
522.55	33965.85
522.72	34195.23
522.89	34108.63
523.07	34534.60
523.24	34412.90
523.41	35051.86
523.58	34330.98
523.75	34614.18
523.92	34710.14
524.10	34799.08
524.27	34752.27
524.44	34862.28
524.61	34864.62
524.78	34986.33
524.96	35185.27
525.13	35021.44
525.30	35379.54
525.47	35161.87
525.64	35227.40
525.81	35276.55
525.98	35204.00
526.16	35405.28
526.33	35709.55
526.50	35629.98
526.67	35311.66
526.84	35700.19
527.01	35901.48
527.18	35868.71
527.36	36233.83
527.53	36250.22
527.70	36259.58
527.87	36027.87
528.04	36371.92
528.21	35882.75
528.38	36172.98
528.55	36416.40
528.72	35725.94
528.89	36339.16
529.07	36009.14
529.24	36275.96
529.41	36741.73
529.58	36327.45
529.75	36603.64
529.92	37029.62
530.09	36666.83
530.26	36608.32
530.43	36825.99
530.60	36673.85
530.77	36744.07
530.94	37282.39
531.11	36762.79
531.28	36727.69
531.46	37221.54
531.63	37172.39
531.80	37237.92
531.97	37457.93
532.14	37186.43
532.31	37563.26
532.48	37834.76
532.65	37642.84
532.82	37621.77
532.99	37680.28
533.16	37621.77
533.33	37429.85
533.50	37755.18
533.67	37731.78
533.84	37897.95
534.01	37453.25
534.18	38024.34
534.35	37862.85
534.52	38653.95
534.69	38445.64
534.86	38490.11
535.03	38359.04
535.20	38352.02
535.37	38342.66
535.54	38361.38
535.71	38171.80
535.88	38735.87
536.05	38555.64
536.22	38440.96
536.38	38499.47
536.55	38536.92
536.72	38869.28
536.89	38866.94
537.06	39117.37
537.23	39124.40
537.40	38700.76
537.57	38948.85
537.74	39023.75
537.91	39426.32
538.08	39049.50
538.25	39002.69
538.42	38848.21
538.59	39569.10
538.75	39248.44
538.92	39498.88
539.09	39388.88
539.26	39615.91
539.43	39370.15
539.60	39864.00
539.77	39569.10
539.94	39718.89
540.11	39716.55
540.28	40034.86
540.44	39573.78
540.61	39730.59
540.78	39952.94
540.95	39845.28
541.12	39274.19
541.29	39931.88
541.46	40006.78
541.62	40149.55
541.79	40390.62
541.96	39639.31
542.13	40072.31
542.30	40069.97
542.47	40336.79
542.63	40187.00
542.80	40706.60
542.97	41270.67
543.14	40685.53
543.31	40444.46
543.48	40313.39
543.64	41076.40
543.81	41031.93
543.98	40872.78
544.15	41097.47
544.32	41502.38
544.48	41380.67
544.65	41127.89
544.82	40954.69
544.99	41013.21
545.16	41284.71
545.32	40751.07
545.49	41724.73
545.66	41441.53
545.83	41961.12
546.00	41617.07
546.16	41827.71
546.33	41689.62
546.50	41326.84
546.67	41467.27
546.83	41113.85
547.00	41282.37
547.17	41455.57
547.34	41359.61
547.50	41834.74
547.67	42328.59
547.84	41659.20
548.00	42031.34
548.17	42113.26
548.34	42204.54
548.51	42569.66
548.67	42204.54
548.84	42068.79
549.01	42241.99
549.18	42181.13
549.34	42424.55
549.51	42185.82
549.68	42843.51
549.84	42141.35
550.01	42672.65
550.18	42344.97
550.34	42485.40
550.51	42911.38
550.68	42660.94
550.84	42450.30
551.01	42728.82
551.18	42752.23
551.34	42918.40
551.51	42824.78
551.68	42721.80
551.84	42555.62
552.01	42689.03
552.18	42838.83
552.34	42871.59
552.51	42995.64
552.68	42862.23
552.84	42792.01
553.01	43377.15
553.18	42644.56
553.34	43196.93
553.51	42969.90
553.67	42869.25
553.84	43770.36
554.01	43271.82
554.17	43187.56
554.34	43147.78
554.51	43512.90
554.67	43821.85
554.84	43695.46
555.00	43498.86
555.17	43824.19
555.33	43510.56
555.50	43782.06
555.67	44133.14
555.83	43620.56
556.00	44020.80
556.16	44196.34
556.33	43576.09
556.50	43756.32
556.66	43819.51
556.83	43777.38
556.99	44107.40
557.16	43849.94
557.32	44257.19
557.49	44100.37
557.65	44222.08
557.82	43749.29
557.98	43885.04
558.15	44168.25
558.32	44332.09
558.48	43920.15
558.65	44306.34
558.81	44343.79
558.98	44236.12
559.14	43847.60
559.31	43924.83
559.47	43988.03
559.64	44540.39
559.80	44662.10
559.97	44423.37
560.13	44509.97
560.30	44411.67
560.46	44776.79
560.63	44540.39
560.79	44617.63
560.96	44676.15
561.12	44737.00
561.29	44474.86
561.45	44650.40
561.61	44655.08
561.78	44821.26
561.94	44339.11
562.11	44486.56
562.27	44437.41
562.44	44676.15
562.60	45020.20
562.77	44910.20
562.93	44481.88
563.10	45099.78
563.26	44428.05
563.42	44926.58
563.59	44643.38
563.75	45141.91
563.92	44701.89
564.08	44657.42
564.24	45188.72
564.41	44596.57
564.57	44996.80
564.74	45024.89
564.90	45008.50
565.07	44671.46
565.23	44849.35
565.39	44992.12
565.56	45064.67
565.72	44755.72
565.88	45291.71
566.05	45310.43
566.21	45050.63
566.38	45305.75
566.54	45191.06
566.70	45038.93
566.87	44865.73
567.03	45074.04
567.19	45144.25
567.36	45219.15
567.52	45041.27
567.68	45539.80
567.85	45059.99
568.01	45624.06
568.17	44767.43
568.34	45146.59
568.50	45619.38
568.66	44825.94
568.83	45368.94
568.99	45464.91
569.15	45514.06
569.32	45467.25
569.48	45148.93
569.64	45607.68
569.81	45535.12
569.97	45542.14
570.13	45663.85
570.30	45359.58
570.46	45691.94
570.62	45670.87
570.78	45542.14
570.95	45825.35
571.11	45698.96
571.27	45485.97
571.43	45462.57
571.60	45844.07
571.76	45263.62
571.92	45553.85
572.09	45579.59
572.25	44971.05
572.41	45404.05
572.57	45478.95
572.74	46096.85
572.90	45698.96
573.06	45762.15
573.22	45792.58
573.38	46110.89
573.55	45785.56
573.71	45764.49
573.87	46122.60
574.03	45532.78
574.20	45949.40
574.36	46335.59
574.52	45558.53
574.68	45984.51
574.84	45937.69
575.01	45727.05
575.17	45713.00
575.33	45918.97
575.49	45827.69
575.65	46017.27
575.82	46005.57
575.98	45717.68
576.14	46131.96
576.30	45907.27
576.46	45837.05
576.62	45769.18
576.79	45893.22
576.95	46068.76
577.11	46127.28
577.27	45607.68
577.43	45741.09
577.59	46160.05
577.75	45911.95
577.92	45710.66
578.08	46174.09
578.24	45834.71
578.40	46199.83
578.56	45867.48
578.72	45930.67
578.88	46176.43
579.04	45886.20
579.21	45963.44
579.37	45832.37
579.53	46445.59
579.69	46094.51
579.85	46260.69
580.01	46536.87
580.17	46183.45
580.33	45982.16
580.49	46384.74
580.65	46164.73
580.82	46087.49
580.98	45860.46
581.14	46206.86
581.30	46155.36
581.46	46150.68
581.62	45897.91
581.78	45834.71
581.94	46323.88
582.10	45968.12
582.26	46263.03
582.42	46237.28
582.58	45993.87
582.74	46319.20
582.90	46230.26
583.06	46316.86
583.22	45965.78
583.38	46131.96
583.54	46302.82
583.70	46082.81
583.86	46361.33
584.02	46197.49
584.18	46539.21
584.34	46567.30
584.50	46330.90
584.66	46555.60
584.82	46234.94
584.98	46590.70
585.14	46256.01
585.30	46211.54
585.46	46607.09
585.62	46181.11
585.78	46279.41
585.94	46059.40
586.10	46415.16
586.26	46050.04
586.42	46082.81
586.58	46248.99
586.74	46260.69
586.90	46120.26
587.06	46160.05
587.22	46220.90
587.38	46157.70
587.54	46452.61
587.70	46607.09
587.86	46686.67
588.02	46326.22
588.18	46028.98
588.34	46131.96
588.49	46658.58
588.65	46256.01
588.81	46553.26
588.97	46555.60
589.13	46225.58
589.29	46604.75
589.45	46513.47
589.61	46749.86
589.77	46298.14
589.93	46742.84
590.08	46614.11
590.24	46913.70
590.40	46834.12
590.56	46885.61
590.72	46820.08
590.88	46614.11
591.04	46941.78
591.20	47054.13
591.35	47079.88
591.51	46848.16
591.67	46719.43
591.83	46923.06
591.99	46616.45
592.15	46307.50
592.31	46583.68
592.46	46595.38
592.62	46749.86
592.78	46848.16
592.94	46852.84
593.10	47285.84
593.26	47234.35
593.41	47068.17
593.57	46941.78
593.73	47257.76
593.89	47316.27
594.05	46951.15
594.20	47075.19
594.36	47360.74
594.52	47220.31
594.68	46829.44
594.84	46520.49
594.99	47262.44
595.15	46759.22
595.31	46838.80
595.47	47129.03
595.62	46946.47
595.78	46941.78
595.94	47271.80
596.10	47129.03
596.25	47360.74
596.41	47178.18
596.57	47014.34
596.73	47173.50
596.88	47257.76
597.04	47248.39
597.20	47437.98
597.36	46850.50
597.51	47491.81
597.67	47049.45
597.83	46995.62
597.99	47442.66
598.14	46787.31
598.30	47227.33
598.46	47077.54
598.61	46925.40
598.77	46979.23
598.93	47082.22
599.09	47061.15
599.24	47292.86
599.40	46927.74
599.56	47171.16
599.71	47552.66
599.87	47564.37
600.03	47669.69
600.18	47798.42
600.34	47136.05
600.50	47201.58
600.65	47114.98
600.81	47732.89
600.97	47133.71
601.12	47430.96
601.28	47428.62
601.44	46967.53
601.59	47215.63
601.75	47239.03
601.91	47430.96
602.06	47370.10
602.22	47166.48
602.37	47152.43
602.53	47185.20
602.69	47285.84
602.84	46703.05
603.00	46845.82
603.16	47505.85
603.31	47206.26
603.47	47498.83
603.62	47004.98
603.78	47243.71
603.94	47201.58
604.09	47311.59
604.25	47281.16
604.40	47033.07
604.56	47374.78
604.71	47096.26
604.87	47330.31
605.03	46761.56
605.18	47398.19
605.34	47323.29
605.49	47023.70
605.65	47650.97
605.80	47026.04
605.96	47119.66
606.12	47365.42
606.27	47536.28
606.43	46794.33
606.58	47386.49
606.74	47363.08
606.89	47309.25
607.05	47522.24
607.20	47196.90
607.36	46930.08
607.51	47147.75
607.67	47255.42
607.82	47334.99
607.98	47143.07
608.13	46838.80
608.29	47103.28
608.44	47466.06
608.60	47234.35
608.75	46925.40
608.91	46646.88
609.06	46539.21
609.22	46873.91
609.37	46288.77
609.53	46920.72
609.68	46981.57
609.84	47089.24
609.99	46597.73
610.15	47114.98
610.30	46976.89
610.46	46731.14
610.61	46686.67
610.76	46990.94
610.92	46754.54
611.07	46588.36
611.23	46586.02
611.38	46628.15
611.54	46997.96
611.69	47070.51
611.84	46710.07
612.00	46642.20
612.15	46354.31
612.31	47026.04
612.46	46466.66
612.62	46693.69
612.77	46960.51
612.92	47000.30
613.08	46796.67
613.23	47117.32
613.39	46501.76
613.54	46461.97
613.69	46684.33
613.85	46150.68
614.00	46415.16
614.15	46590.70
614.31	46230.26
614.46	46244.30
614.62	46150.68
614.77	46445.59
614.92	46410.48
615.08	46176.43
615.23	46981.57
615.38	46965.19
615.54	46312.18
615.69	46321.54
615.84	46286.43
616.00	46674.96
616.15	46703.05
616.30	46616.45
616.46	46251.33
616.61	46155.36
616.76	46681.98
616.92	46703.05
617.07	46314.52
617.22	46211.54
617.37	46213.88
617.53	46309.84
617.68	45958.76
617.83	46061.74
617.99	46485.38
618.14	46122.60
618.29	46045.36
618.45	45858.12
618.60	45825.35
618.75	45443.84
618.90	46054.72
619.06	46014.93
619.21	46075.79
619.36	46375.37
619.51	45893.22
619.67	45729.39
619.82	45893.22
619.97	46021.95
620.12	45895.56
620.28	45661.51
620.43	45799.60
620.58	45977.48
620.73	45792.58
620.89	45617.04
621.04	46094.51
621.19	45731.73
621.34	45598.32
621.49	45469.59
621.65	45743.43
621.80	45738.75
621.95	45368.94
622.10	45792.58
622.25	45745.77
622.41	45219.15
622.56	45385.33
622.71	45621.72
622.86	45694.28
623.01	45705.98
623.16	45322.13
623.32	45301.07
623.47	45441.50
623.62	45422.78
623.77	45429.80
623.92	45588.95
624.07	45345.54
624.23	45982.16
624.38	45532.78
624.53	45127.87
624.68	45092.76
624.83	45280.00
624.98	45249.58
625.13	45174.68
625.29	45284.68
625.44	45418.10
625.59	45205.11
625.74	45333.84
625.89	44814.24
626.04	44772.11
626.19	45118.51
626.34	45237.87
626.49	44659.76
626.65	44725.30
626.80	44823.60
626.95	44762.75
627.10	44708.91
627.25	45076.38
627.40	44809.56
627.55	44935.95
627.70	44783.81
627.85	44542.74
628.00	45001.48
628.15	44687.85
628.30	44186.97
628.45	44353.15
628.60	44807.22
628.76	44589.55
628.91	44486.56
629.06	43906.11
629.21	44144.84
629.36	44179.95
629.51	44561.46
629.66	45031.91
629.81	44596.57
629.96	44542.74
630.11	44837.64
630.26	44294.64
630.41	44741.68
630.56	44362.51
630.71	44069.95
630.86	44350.81
631.01	43765.68
631.16	43543.33
631.31	44093.35
631.46	44027.82
631.61	44580.18
631.76	44371.88
631.91	44130.80
632.06	44432.73
632.21	44186.97
632.36	44353.15
632.51	43643.97
632.66	44079.31
632.81	43723.55
632.96	44268.89
633.10	43533.96
633.25	44093.35
633.40	44208.04
633.55	44095.69
633.70	43948.24
633.85	43643.97
634.00	43540.99
634.15	43573.75
634.30	43459.07
634.45	43480.13
634.60	43716.53
634.75	43501.20
634.90	43615.88
635.05	43943.56
635.19	43501.20
635.34	43922.49
635.49	43159.48
635.64	43709.50
635.79	43557.37
635.94	43641.63
636.09	43445.02
636.24	43276.51
636.39	43934.20
636.53	43260.12
636.68	43005.00
636.83	42979.26
636.98	42990.96
637.13	42801.38
637.28	43054.15
637.43	43173.52
637.57	43049.47
637.72	42876.27
637.87	43145.44
638.02	43079.90
638.17	43248.42
638.32	42684.35
638.46	42759.25
638.61	42658.60
638.76	42658.60
638.91	42574.34
639.06	43007.34
639.20	42169.43
639.35	42752.23
639.50	42581.37
639.65	42934.79
639.80	43232.04
639.94	43213.31
640.09	43122.03
640.24	42698.39
640.39	42363.70
640.54	42396.46
640.68	42955.85
640.83	43416.94
640.98	42216.24
641.13	42117.94
641.27	43030.75
641.42	42309.86
641.57	42644.56
641.72	42665.63
641.86	42672.65
642.01	42096.88
642.16	42525.19
642.31	41926.02
642.45	42895.00
642.60	42080.49
642.75	42263.05
642.90	42387.10
643.04	42337.95
643.19	42150.71
643.34	42012.62
643.48	41572.60
643.63	41663.88
643.78	42312.20
643.93	42429.23
644.07	42012.62
644.22	41759.84
644.37	41476.63
644.51	42092.19
644.66	41890.91
644.81	41762.18
644.95	41874.52
645.10	41801.97
645.25	41640.47
645.39	41862.82
645.54	41881.55
645.69	41846.44
645.83	41163.00
645.98	41514.08
646.13	41331.52
646.27	41977.51
646.42	41317.48
646.57	41397.06
646.71	41474.29
646.86	41717.71
647.00	42000.91
647.15	41624.09
647.30	41614.72
647.44	41383.01
647.59	41338.54
647.74	41443.87
647.88	41111.51
648.03	41673.24
648.17	41972.83
648.32	41715.37
648.47	42012.62
648.61	41177.04
648.76	41038.95
648.90	41429.82
649.05	41546.85
649.20	41448.55
649.34	41408.76
649.49	41605.36
649.63	41235.56
649.78	41251.94
649.92	41429.82
650.07	41551.53
650.21	41467.27
650.36	41663.88
650.51	41130.23
650.65	41015.55
650.80	41153.64
650.94	41338.54
651.09	41010.87
651.23	40666.81
651.38	40678.51
651.52	40662.13
651.67	40559.14
651.81	41254.28
651.96	40692.55
652.10	40720.64
652.25	40563.82
652.39	41003.85
652.54	40638.72
652.68	40573.19
652.83	40547.44
652.97	40776.81
653.12	40533.40
653.26	40254.87
653.41	40622.34
653.55	40362.54
653.70	40783.83
653.84	40786.18
653.99	40886.82
654.13	40589.57
654.27	40261.90
654.42	40652.76
654.56	40273.60
654.71	40617.66
654.85	40615.32
655.00	40566.16
655.14	40470.20
655.29	41144.28
655.43	40566.16
655.57	40491.27
655.72	39995.07
655.86	39882.73
656.01	40297.00
656.15	39702.51
656.30	39889.75
656.44	40023.16
656.58	40009.12
656.73	40044.23
656.87	39393.56
657.01	39821.87
657.16	40023.16
657.30	39725.91
657.45	39571.44
657.59	40093.38
657.73	39529.31
657.88	39541.01
658.02	40109.76
658.16	40105.08
658.31	39728.25
658.45	39428.66
658.60	39447.39
658.74	39943.58
658.88	39655.70
659.03	39669.74
659.17	39604.20
659.31	38920.77
659.46	38726.50
659.60	39681.44
659.74	39349.09
659.89	38745.23
660.03	38642.24
660.17	39220.36
660.32	38960.56
660.46	39185.25
660.60	38279.46
660.74	39023.75
660.89	39042.48
661.03	38778.00
661.17	38452.66
661.32	38349.68
661.46	38770.97
661.60	38602.46
661.74	38857.57
661.89	38553.30
662.03	38354.36
662.17	38375.42
662.31	38178.82
662.46	38742.89
662.60	38185.84
662.74	38005.62
662.88	37963.49
663.03	37935.40
663.17	37694.33
663.31	37647.52
663.45	37975.19
663.60	37804.33
663.74	37912.00
663.88	37673.26
664.02	37324.52
664.17	37778.59
664.31	37352.61
664.45	37563.26
664.59	37504.74
664.73	37720.07
664.88	37371.33
665.02	37450.91
665.16	37729.44
665.30	37584.32
665.44	37242.60
665.59	36935.99
665.73	36924.29
665.87	36517.04
666.01	37261.33
666.15	37242.60
666.29	36811.95
666.44	36793.22
666.58	36833.01
666.72	36177.66
666.86	36584.91
667.00	36439.80
667.14	36900.89
667.28	36245.54
667.43	36105.10
667.57	36835.35
667.71	36641.09
667.85	36697.26
667.99	36219.79
668.13	35880.41
668.27	35974.03
668.41	36376.61
668.56	35910.84
668.70	35482.52
668.84	35662.74
668.98	35498.91
669.12	35985.74
669.26	35845.30
669.40	35512.95
669.54	35538.69
669.68	35435.71
669.82	35936.59
669.96	35117.40
670.10	35105.70
670.25	34895.05
670.39	35082.29
670.53	35686.15
670.67	35126.76
670.81	35416.99
670.95	35405.28
671.09	34944.20
671.23	34756.96
671.37	35091.65
671.51	34309.91
671.65	34841.21
671.79	34319.28
671.93	34565.03
672.07	34632.91
672.21	34703.12
672.35	34471.41
672.49	34380.13
672.63	34408.22
672.77	34230.33
672.91	34323.96
673.05	34029.05
673.19	34043.09
673.33	33872.23
673.47	33769.25
673.61	33434.55
673.75	33390.08
673.89	33198.16
674.03	33385.40
674.17	32973.47
674.31	32919.63
674.45	32992.19
674.59	33294.12
674.73	33134.96
674.87	32943.04
675.01	32903.25
675.15	32254.92
675.29	32404.72
675.43	32849.42
675.56	32931.34
675.70	32378.97
675.84	32107.47
675.98	31309.35
676.12	32481.95
676.26	32350.88
676.40	31850.01
676.54	31601.91
676.68	31871.07
676.82	31344.45
676.96	32247.90
677.10	31854.69
677.23	31199.34
677.37	31489.57
677.51	31541.06
677.65	31548.08
677.79	31002.74
677.93	31178.28
678.07	31246.15
678.21	30675.06
678.34	31026.14
678.48	30866.98
678.62	30469.09
678.76	30443.35
678.90	30630.59
679.04	30148.44
679.18	30448.03
679.31	30309.94
679.45	29905.02
679.59	29879.28
679.73	29788.00
679.87	29902.68
680.00	29425.22
680.14	29680.33
680.28	29518.84
680.42	29146.69
680.56	29333.93
680.70	29043.71
680.83	29064.77
680.97	28992.22
681.11	29017.96
681.25	28510.07
681.39	28460.91
681.52	28697.31
681.66	28439.85
681.80	27906.21
681.94	27840.67
682.07	27899.19
682.21	27948.34
682.35	27843.01
682.49	27744.71
682.62	27777.48
682.76	27964.72
682.90	27735.35
683.04	27608.96
683.17	27730.67
683.31	27292.99
683.45	27501.29
683.59	27225.11
683.72	26644.66
683.86	26647.00
684.00	26527.63
684.13	26895.10
684.27	26457.42
684.41	26829.56
684.55	26480.82
684.68	26487.84
684.82	25956.54
684.96	26415.29
685.09	25970.58
685.23	25921.43
685.37	26590.83
685.50	26628.27
685.64	26169.53
685.78	25914.41
685.91	25626.53
686.05	24952.45
686.19	25113.95
686.32	25205.23
686.46	25057.78
686.60	25001.60
686.73	25195.87
686.87	24877.55
687.01	24744.14
687.14	24863.51
687.28	24957.13
687.42	24781.59
687.55	24636.48
687.69	24552.22
687.82	24280.72
687.96	24360.30
688.10	24465.62
688.23	24259.65
688.37	24056.03
688.50	23950.70
688.64	23864.10
688.78	23828.99
688.91	23651.11
689.05	23616.01
689.18	23452.17
689.32	23068.32
689.46	23049.60
689.59	22998.10
689.73	23302.37
689.86	23414.72
690.00	23014.49
690.13	23335.14
690.27	22640.00
690.41	23164.28
690.54	22249.13
690.68	22471.48
690.81	22181.26
690.95	22235.09
691.08	22153.17
691.22	22214.02
691.35	21867.63
691.49	22085.30
691.62	21998.70
691.76	21345.69
691.89	21544.63
692.03	21352.71
692.16	20987.58
692.30	21362.07
692.43	21589.10
692.57	21221.64
692.70	21008.65
692.84	20814.38
692.97	20882.26
693.11	20713.74
693.24	20453.94
693.38	20620.12
693.51	20304.15
693.65	20257.34
693.78	20212.87
693.92	20226.91
694.05	20400.11
694.19	19995.20
694.32	19901.58
694.45	20381.38
694.59	19999.88
694.72	20018.60
694.86	19840.72
694.99	19646.46
695.13	19522.41
695.26	19414.74
695.39	19253.25
695.53	19054.30
695.66	19552.84
695.80	18953.66
695.93	19080.05
696.07	18895.14
696.20	18490.23
696.33	18216.39
696.47	18181.28
696.60	18611.94
696.73	18384.91
696.87	18572.15
697.00	18530.02
697.14	18342.78
697.27	18150.85
697.40	17912.12
697.54	18015.10
697.67	17743.60
697.80	18256.18
697.94	17729.56
698.07	17514.23
698.21	17570.40
698.34	17429.97
698.47	17373.80
698.61	16879.94
698.74	17025.06
698.87	17142.08
699.01	16809.73
699.14	16828.45
699.27	16954.84
699.40	16901.01
699.54	16634.19
699.67	16727.81
699.80	16861.22
699.94	16652.91
700.07	16517.16
700.20	16547.59
700.34	16575.67
700.47	16545.25
700.60	16549.93
700.73	16248.00
700.87	15873.51
701.00	15906.28
701.13	16020.97
701.26	15735.42
701.40	15786.91
701.53	15559.88
701.66	15634.78
701.79	15520.09
701.93	15372.64
702.06	14979.43
702.19	15091.77
702.32	15220.50
702.46	15054.33
702.59	15143.27
702.72	14977.09
702.85	14951.34
702.99	14988.79
703.12	14902.19
703.25	14757.08
703.38	14523.02
703.51	14965.39
703.65	14284.29
703.78	14214.07
703.91	14242.16
704.04	14132.15
704.17	13919.17
704.31	14111.09
704.44	14024.49
704.57	13884.06
704.70	14050.24
704.83	13696.82
704.96	13973.00
705.10	13820.86
705.23	13434.68
>>>>>End Processed Spectral Data<<<<<
