SpectraSuite Data File
++++++++++++++++++++++++++++++++++++
Date: Fri Oct 25 11:33:08 EDT 2013
User: price-jones
Dark Spectrum Present: No
Reference Spectrum Present: No
Number of Sampled Component Spectra: 1
Spectrometers: USB2+H05261
Integration Time (usec): 100000 (USB2+H05261)
Spectra Averaged: 1 (USB2+H05261)
Boxcar Smoothing: 0 (USB2+H05261)
Correct for Electrical Dark: No (USB2+H05261)
Strobe/Lamp Enabled: No (USB2+H05261)
Correct for Detector Non-linearity: No (USB2+H05261)
Correct for Stray Light: No (USB2+H05261)
Number of Pixels in Processed Spectrum: 2048
>>>>>Begin Processed Spectral Data<<<<<
365.73	280.86
365.92	280.86
366.12	280.86
366.32	250.44
366.52	114.69
366.72	140.43
366.91	126.39
367.11	248.10
367.31	145.11
367.51	81.92
367.70	159.16
367.90	147.45
368.10	220.01
368.30	238.73
368.49	173.20
368.69	170.86
368.89	196.60
369.09	194.26
369.28	229.37
369.48	278.52
369.68	285.55
369.87	234.05
370.07	203.63
370.27	262.14
370.47	252.78
370.66	503.22
370.86	496.19
371.06	561.73
371.25	610.88
371.45	472.79
371.65	559.39
371.84	568.75
372.04	594.50
372.24	540.66
372.44	606.20
372.63	578.11
372.83	512.58
373.03	627.26
373.22	622.58
373.42	493.85
373.62	568.75
373.81	674.07
374.01	690.46
374.21	690.46
374.40	582.79
374.60	634.29
374.79	741.95
374.99	636.63
375.19	685.78
375.38	657.69
375.58	688.12
375.78	711.52
375.97	636.63
376.17	734.93
376.37	660.03
376.56	685.78
376.76	727.91
376.95	643.65
377.15	727.91
377.35	676.41
377.54	676.41
377.74	697.48
377.93	697.48
378.13	683.44
378.33	727.91
378.52	671.73
378.72	732.59
378.91	786.42
379.11	772.38
379.31	660.03
379.50	711.52
379.70	821.53
379.89	725.57
380.09	760.67
380.28	704.50
380.48	819.19
380.68	723.23
380.87	744.29
381.07	660.03
381.26	798.12
381.46	727.91
381.65	667.05
381.85	746.63
382.04	777.06
382.24	894.08
382.43	828.55
382.63	837.91
382.83	746.63
383.02	798.12
383.22	812.17
383.41	739.61
383.61	795.78
383.80	866.00
384.00	875.36
384.19	760.67
384.39	858.98
384.58	830.89
384.78	795.78
384.97	821.53
385.17	840.25
385.36	830.89
385.56	784.08
385.75	795.78
385.95	814.51
386.14	889.40
386.34	880.04
386.53	945.58
386.72	922.17
386.92	971.32
387.11	943.24
387.31	919.83
387.50	849.61
387.70	847.27
387.89	894.08
388.09	875.36
388.28	964.30
388.48	978.34
388.67	1006.43
388.86	990.05
389.06	968.98
389.25	1032.18
389.45	1020.47
389.64	933.87
389.84	1097.71
390.03	980.68
390.22	866.00
390.42	1039.20
390.61	926.85
390.81	968.98
391.00	980.68
391.19	1102.39
391.39	983.02
391.58	945.58
391.78	1078.99
391.97	1074.31
392.16	978.34
392.36	1069.62
392.55	1060.26
392.75	1123.46
392.94	1102.39
393.13	1013.45
393.33	1011.11
393.52	1053.24
393.71	1125.80
393.91	1032.18
394.10	1139.84
394.29	1125.80
394.49	1053.24
394.68	1181.97
394.88	1174.95
395.07	1193.67
395.26	1144.52
395.46	1130.48
395.65	1184.31
395.84	1219.42
396.04	1240.48
396.23	1240.48
396.42	1156.22
396.62	1331.76
396.81	1287.29
397.00	1139.84
397.19	1270.91
397.39	1235.80
397.58	1193.67
397.77	1256.87
397.97	1252.19
398.16	1294.32
398.35	1224.10
398.55	1280.27
398.74	1287.29
398.93	1401.98
399.12	1336.45
399.32	1338.79
399.51	1296.66
399.70	1397.30
399.90	1329.42
400.09	1317.72
400.28	1291.98
400.47	1336.45
400.67	1373.89
400.86	1427.73
401.05	1446.45
401.24	1413.68
401.44	1423.05
401.63	1357.51
401.82	1453.47
402.01	1444.11
402.21	1420.71
402.40	1509.65
402.59	1469.86
402.78	1490.92
402.97	1472.20
403.17	1612.63
403.36	1497.94
403.55	1570.50
403.74	1661.78
403.93	1558.80
404.13	1577.52
404.32	1554.12
404.51	1556.46
404.70	1717.95
404.89	1722.63
405.09	1739.02
405.28	1699.23
405.47	1689.87
405.66	1664.12
405.85	1774.13
406.05	1678.16
406.24	1804.55
406.43	1811.57
406.62	1778.81
406.81	1916.90
407.00	1771.79
407.20	1811.57
407.39	1788.17
407.58	1813.92
407.77	1872.43
407.96	1900.52
408.15	1895.83
408.34	1928.60
408.54	1914.56
408.73	1816.26
408.92	2005.84
409.11	1928.60
409.30	1907.54
409.49	1935.62
409.68	1970.73
409.87	1912.22
410.07	2015.20
410.26	2127.55
410.45	2022.22
410.64	2097.12
410.83	2169.68
411.02	2127.55
411.21	2216.49
411.40	2108.82
411.59	2204.78
411.78	2277.34
411.98	2218.83
412.17	2291.38
412.36	2272.66
412.55	2256.28
412.74	2319.47
412.93	2326.49
413.12	2342.88
413.31	2502.03
413.50	2396.71
413.69	2483.31
413.88	2492.67
414.07	2530.12
414.26	2534.80
414.45	2551.18
414.64	2572.25
414.83	2672.89
415.02	2565.23
415.22	2689.28
415.41	2672.89
415.60	2661.19
415.79	2693.96
415.98	2719.70
416.17	2839.07
416.36	2796.94
416.55	2764.17
416.74	2857.79
416.93	2815.66
417.12	2923.33
417.31	2876.52
417.50	2928.01
417.69	3080.14
417.88	2932.69
418.07	2839.07
418.26	3054.40
418.45	2979.50
418.64	3035.67
418.83	3014.61
419.02	3180.79
419.21	3073.12
419.39	3171.43
419.58	3066.10
419.77	3049.72
419.96	3014.61
420.15	3206.53
420.34	3204.19
420.53	3183.13
420.72	3314.20
420.91	3349.31
421.10	3361.01
421.29	3232.28
421.48	3332.92
421.67	3321.22
421.86	3393.78
422.05	3389.10
422.24	3447.61
422.43	3370.37
422.61	3307.18
422.80	3463.99
422.99	3435.91
423.18	3435.91
423.37	3428.88
423.56	3386.76
423.75	3501.44
423.94	3342.28
424.13	3323.56
424.32	3227.60
424.50	3396.12
424.69	3571.66
424.88	3510.80
425.07	3445.27
425.26	3431.23
425.45	3471.01
425.64	3389.10
425.83	3524.85
426.01	3475.70
426.20	3581.02
426.39	3452.29
426.58	3471.01
426.77	3517.83
426.96	3595.06
427.15	3564.64
427.33	3744.86
427.52	3719.11
427.71	3592.72
427.90	3592.72
428.09	3658.26
428.28	3754.22
428.46	3742.52
428.65	3644.21
428.84	3761.24
429.03	3889.97
429.22	3709.75
429.40	3758.90
429.59	3796.35
429.78	3625.49
429.97	3623.15
430.16	3822.09
430.34	3885.29
430.53	3880.61
430.72	4058.49
430.91	3892.31
431.10	3882.95
431.28	4147.43
431.47	4070.19
431.66	4007.00
431.85	3981.25
432.03	3978.91
432.22	4259.78
432.41	4117.00
432.60	4077.21
432.79	4276.16
432.97	3983.59
433.16	4109.98
433.35	4021.04
433.54	4142.75
433.72	4198.92
433.91	4079.55
434.10	4184.88
434.28	4191.90
434.47	4306.59
434.66	4290.20
434.85	4306.59
435.03	4430.63
435.22	4313.61
435.41	4472.76
435.59	4306.59
435.78	4547.66
435.97	4524.26
436.16	4454.04
436.34	4311.27
436.53	4285.52
436.72	4585.11
436.90	4517.23
437.09	4557.02
437.28	4461.06
437.46	4500.85
437.65	4500.85
437.84	4662.35
438.02	4636.60
438.21	4652.98
438.40	4606.17
438.58	4802.78
438.77	4905.76
438.96	4809.80
439.14	4767.67
439.33	4931.51
439.52	5053.22
439.70	4994.70
439.89	5078.96
440.08	5083.64
440.26	5132.79
440.45	4922.15
440.63	5144.50
440.82	5282.59
441.01	5184.29
441.19	5254.50
441.38	5289.61
441.57	5238.12
441.75	5364.51
441.94	5416.00
442.12	5331.74
442.31	5568.13
442.50	5558.77
442.68	5497.92
442.87	5575.16
443.05	5589.20
443.24	5645.37
443.43	5535.37
443.61	5612.60
443.80	5767.08
443.98	5474.51
444.17	5390.25
444.35	5486.22
444.54	5795.17
444.73	5682.82
444.91	5743.67
445.10	5790.49
445.28	5570.48
445.47	5561.11
445.65	5549.41
445.84	5809.21
446.02	5863.04
446.21	5708.57
446.39	5788.14
446.58	5778.78
446.77	5802.19
446.95	5687.50
447.14	5654.73
447.32	5851.34
447.51	5788.14
447.69	5872.40
447.88	5830.27
448.06	5849.00
448.25	5785.80
448.43	5856.02
448.62	5984.75
448.80	5923.90
448.99	5884.11
449.17	5973.05
449.36	5895.81
449.54	6073.69
449.73	6026.88
449.91	6190.72
450.10	6076.03
450.28	6080.71
450.46	6408.39
450.65	6232.85
450.83	6279.66
451.02	6237.53
451.20	6459.88
451.39	6382.64
451.57	6239.87
451.76	6197.74
451.94	6235.19
452.13	6523.07
452.31	6413.07
452.49	6242.21
452.68	6286.68
452.86	6284.34
453.05	6541.80
453.23	6551.16
453.42	6431.79
453.60	6370.94
453.78	6574.56
453.97	6511.37
454.15	6417.75
454.34	6555.84
454.52	6569.88
454.70	6623.72
454.89	6630.74
455.07	6700.95
455.26	6766.49
455.44	6719.68
455.62	6740.74
455.81	6799.26
455.99	6757.13
456.17	6820.32
456.36	6857.77
456.54	6888.20
456.73	6949.05
456.91	7049.69
457.09	7033.31
457.28	7005.22
457.46	7140.97
457.64	7293.11
457.83	7162.04
458.01	7047.35
458.19	7171.40
458.38	7019.27
458.56	7377.37
458.74	7260.34
458.93	7176.08
459.11	7183.10
459.29	7232.26
459.48	7382.05
459.66	7356.30
459.84	7438.22
460.03	7564.61
460.21	7449.93
460.39	7494.40
460.57	7396.09
460.76	7473.33
460.94	7508.44
461.12	7541.21
461.31	7566.95
461.49	7438.22
461.67	7571.63
461.85	7829.09
462.04	7597.38
462.22	8205.92
462.40	7805.69
462.59	7838.45
462.77	7836.11
462.95	7791.64
463.13	7922.71
463.32	7864.20
463.50	7826.75
463.68	7953.14
463.86	8011.65
464.05	7971.86
464.23	7889.95
464.41	8009.31
464.59	8006.97
464.78	8149.75
464.96	8067.83
465.14	7955.48
465.32	8049.10
465.50	8187.19
465.69	8313.58
465.87	8077.19
466.05	8449.33
466.23	8175.49
466.41	8229.32
466.60	8421.25
466.78	8369.76
466.96	8262.09
467.14	8437.63
467.32	8428.27
467.51	8533.59
467.69	8194.22
467.87	8512.53
468.05	8589.77
468.23	8241.03
468.41	8491.46
468.60	8631.90
468.78	8451.67
468.96	8561.68
469.14	8613.17
469.32	8872.97
469.50	8561.68
469.69	8634.24
469.87	8823.82
470.05	8575.72
470.23	8802.75
470.41	8856.59
470.59	8891.70
470.77	8990.00
470.95	8903.40
471.14	9224.05
471.32	8868.29
471.50	9247.46
471.68	9172.56
471.86	9186.60
472.04	9329.38
472.22	9535.34
472.40	9322.35
472.58	9146.81
472.77	9287.25
472.95	9408.95
473.13	9870.04
473.31	9701.52
473.49	9523.64
473.67	9530.66
473.85	9427.68
474.03	9893.44
474.21	9816.21
474.39	9776.42
474.57	9844.29
474.75	10024.51
474.93	10078.35
475.12	10001.11
475.30	10038.56
475.48	10003.45
475.66	10113.45
475.84	10239.84
476.02	10307.72
476.20	10031.54
476.38	10349.85
476.56	10471.56
476.74	10621.35
476.92	10668.16
477.10	10560.50
477.28	10684.55
477.46	10832.00
477.64	11026.26
477.82	10963.07
478.00	11157.33
478.18	11138.61
478.36	11304.79
478.54	11157.33
478.72	11555.22
478.90	11606.72
479.08	11480.33
479.26	11758.85
479.44	11723.74
479.62	11822.05
479.80	11873.54
479.98	12133.34
480.16	12283.13
480.34	12219.94
480.52	12315.90
480.70	12339.30
480.88	12184.83
481.06	12571.02
481.24	12617.83
481.41	12819.11
481.59	12800.39
481.77	13025.08
481.95	13074.23
482.13	13209.98
482.31	13095.30
482.49	13460.42
482.67	13561.06
482.85	13687.45
483.03	13692.13
483.21	13895.76
483.39	13980.02
483.57	13673.41
483.74	14160.24
483.92	14188.33
484.10	14204.71
484.28	14473.87
484.46	14394.29
484.64	14885.81
484.82	14600.26
485.00	14930.28
485.18	15197.10
485.35	15534.14
485.53	15302.42
485.71	15150.29
485.89	15620.74
486.07	15428.81
486.25	15506.05
486.43	15599.67
486.61	15892.24
486.78	16023.31
486.96	16065.44
487.14	16453.97
487.32	16180.12
487.50	16690.36
487.68	16666.95
487.85	16870.58
488.03	17081.23
488.21	17029.74
488.39	17336.35
488.57	17170.17
488.75	17439.33
488.92	17453.37
489.10	17577.42
489.28	17928.50
489.46	17958.93
489.64	17851.27
489.81	18204.69
489.99	18204.69
490.17	18246.82
490.35	18677.48
490.53	18576.83
490.70	18504.28
490.88	18970.04
491.06	18981.74
491.24	19000.47
491.41	19290.70
491.59	19250.91
491.77	19204.10
491.95	19447.51
492.13	19761.14
492.30	19899.23
492.48	19873.49
492.66	20159.03
492.84	20425.86
493.01	20325.21
493.19	20269.04
493.37	20465.64
493.54	20711.40
493.72	20830.77
493.90	20980.56
494.08	20961.84
494.25	21099.93
494.43	21071.84
494.61	21404.20
494.79	21944.86
494.96	21383.13
495.14	21752.94
495.32	21928.48
495.49	21928.48
495.67	22265.52
495.85	22038.48
496.02	22281.90
496.20	22459.78
496.38	22352.12
496.55	22661.07
496.73	23171.30
496.91	22656.39
497.09	22899.80
497.26	23527.06
497.44	23030.87
497.62	23204.07
497.79	23482.59
497.97	23400.68
498.14	23728.35
498.32	24079.43
498.50	23957.72
498.67	24283.06
498.85	24023.26
499.03	24224.54
499.20	24322.85
499.38	24395.40
499.56	24404.77
499.73	25149.06
499.91	24833.08
500.08	25083.52
500.26	24797.98
500.44	25142.03
500.61	24767.55
500.79	24936.07
500.97	25181.82
501.14	25371.41
501.32	25788.02
501.49	25233.32
501.67	25530.56
501.84	26141.44
502.02	26115.70
502.20	25834.83
502.37	25886.32
502.55	26178.89
502.72	25993.99
502.90	25883.98
503.07	26094.63
503.25	26335.71
503.43	26391.88
503.60	26529.97
503.78	26551.04
503.95	26665.72
504.13	26817.86
504.30	26974.67
504.48	26969.99
504.65	27133.83
504.83	27204.05
505.01	27536.40
505.18	27269.58
505.36	27978.76
505.53	27335.12
505.71	27983.44
505.88	27742.37
506.06	27662.79
506.23	27857.06
506.41	27840.67
506.58	28105.15
506.76	28046.64
506.93	28182.39
507.11	28133.24
507.28	28460.91
507.46	28603.69
507.63	28800.29
507.81	28929.02
507.98	28517.09
508.16	28680.92
508.33	28868.17
508.50	28788.59
508.68	28996.90
508.85	29090.52
509.03	28973.49
509.20	29062.43
509.38	29338.62
509.55	29546.92
509.73	29532.88
509.90	29376.06
510.08	30342.70
510.25	29825.45
510.42	29940.13
510.60	30139.08
510.77	30010.35
510.95	30565.06
511.12	30064.18
511.30	30522.93
511.47	30244.40
511.64	30801.45
511.82	30630.59
511.99	30820.17
512.17	30705.49
512.34	30485.48
512.51	30979.33
512.69	31309.35
512.86	30974.65
513.04	31363.18
513.21	31161.89
513.38	31234.45
513.56	31798.52
513.73	31821.92
513.90	31821.92
514.08	31344.45
514.25	31688.51
514.43	31772.77
514.60	31873.42
514.77	31803.20
514.95	31882.78
515.12	31992.78
515.29	32655.15
515.47	32140.24
515.64	32168.32
515.81	32254.92
515.99	32627.07
516.16	32514.72
516.33	32376.63
516.51	32999.21
516.68	32610.68
516.85	32943.04
517.03	32879.85
517.20	33156.03
517.37	33326.89
517.54	33219.22
517.72	32945.38
517.89	32905.59
518.06	33020.28
518.24	33095.18
518.41	33446.26
518.58	33577.33
518.75	33731.80
518.93	33813.72
519.10	33916.70
519.27	34017.35
519.45	33684.99
519.62	33860.53
519.79	34546.31
519.96	34260.76
520.14	34094.58
520.31	34256.08
520.48	34309.91
520.65	34466.73
520.83	34574.39
521.00	34714.83
521.17	35002.71
521.34	34902.07
521.52	34930.16
521.69	34937.18
521.86	34878.66
522.03	35543.38
522.20	35395.92
522.38	35295.28
522.55	35693.17
522.72	35498.91
522.89	35061.22
523.07	35810.20
523.24	35435.71
523.41	35981.06
523.58	35510.61
523.75	35943.61
523.92	35772.75
524.10	36013.82
524.27	35761.05
524.44	36112.13
524.61	36002.12
524.78	36243.20
524.96	36666.83
525.13	36233.83
525.30	36453.84
525.47	36765.14
525.64	36346.18
525.81	36940.68
525.98	36706.62
526.16	36423.42
526.33	36790.88
526.50	37235.58
526.67	36484.27
526.84	37359.63
527.01	36828.33
527.18	36713.64
527.36	37095.15
527.53	37422.83
527.70	37542.19
527.87	37317.50
528.04	37275.37
528.21	37542.19
528.38	37715.39
528.55	37474.32
528.72	37666.24
528.89	37745.82
529.07	37535.17
529.24	37493.04
529.41	37972.85
529.58	38054.77
529.75	37603.05
529.92	38274.78
530.09	38314.57
530.26	38124.99
530.43	38440.96
530.60	37860.51
530.77	37989.24
530.94	38073.49
531.11	38237.33
531.28	38237.33
531.46	38576.71
531.63	38490.11
531.80	38724.16
531.97	38916.09
532.14	39093.97
532.31	38513.52
532.48	38981.62
532.65	39133.76
532.82	39119.71
532.99	38986.30
533.16	38597.77
533.33	39529.31
533.50	39255.46
533.67	38983.96
533.84	39068.22
534.01	39276.53
534.18	39414.62
534.35	39339.72
534.52	39662.72
534.69	39847.62
534.86	39871.03
535.03	39838.26
535.20	39590.16
535.37	40151.89
535.54	39974.01
535.71	39613.57
535.88	39779.74
536.05	40556.80
536.22	40287.64
536.38	40102.74
536.55	40030.18
536.72	39913.16
536.89	39697.83
537.06	40172.96
537.23	40416.37
537.40	40252.53
537.57	40074.65
537.74	40343.81
537.91	40877.46
538.08	40615.32
538.25	40048.91
538.42	40861.07
538.59	40914.90
538.75	40711.28
538.92	40367.22
539.09	41287.05
539.26	40973.42
539.43	40854.05
539.60	40938.31
539.77	41031.93
539.94	41420.46
540.11	41319.82
540.28	41532.81
540.44	41287.05
540.61	41036.61
540.78	41153.64
540.95	41034.27
541.12	41378.33
541.29	40912.56
541.46	41233.22
541.62	41560.89
541.79	41684.94
541.96	41177.04
542.13	41406.42
542.30	41406.42
542.47	41902.61
542.63	41830.05
542.80	42073.47
542.97	42103.90
543.14	42572.00
543.31	41736.43
543.48	42263.05
543.64	42506.47
543.81	42799.04
543.98	42220.92
544.15	42686.69
544.32	42293.48
544.48	43147.78
544.65	42635.20
544.82	42782.65
544.99	42476.04
545.16	42410.51
545.32	42689.03
545.49	43391.19
545.66	43103.31
545.83	42714.78
546.00	43346.72
546.16	43328.00
546.33	42721.80
546.50	42731.16
546.67	43473.11
546.83	42574.34
547.00	43257.78
547.17	43227.35
547.34	43012.02
547.50	43318.64
547.67	43309.27
547.84	43030.75
548.00	43578.43
548.17	44107.40
548.34	43772.70
548.51	43938.88
548.67	43407.58
548.84	43332.68
549.01	43400.55
549.18	43498.86
549.34	44013.77
549.51	43704.82
549.68	43803.13
549.84	43894.41
550.01	44006.75
550.18	43391.19
550.34	44072.29
550.51	43859.30
550.68	44561.46
550.84	43779.72
551.01	44327.41
551.18	44004.41
551.34	44229.10
551.51	44062.93
551.68	44519.33
551.84	44306.34
552.01	44074.63
552.18	44112.08
552.34	44257.19
552.51	44357.83
552.68	44673.81
552.84	44612.95
553.01	44816.58
553.18	44299.32
553.34	44886.79
553.51	44528.69
553.67	44744.02
553.84	44767.43
554.01	44954.67
554.17	44739.34
554.34	44830.62
554.51	45144.25
554.67	44994.46
554.84	45277.66
555.00	45120.85
555.17	45179.36
555.33	45270.64
555.50	45315.11
555.67	45207.45
555.83	45305.75
556.00	45411.07
556.16	45656.83
556.33	45331.50
556.50	45703.64
556.66	45179.36
556.83	44912.54
556.99	46024.29
557.16	45666.19
557.32	45717.68
557.49	45701.30
557.65	44919.56
557.82	45584.27
557.98	45626.40
558.15	45366.60
558.32	45691.94
558.48	45507.04
558.65	45715.34
558.81	45837.05
558.98	45600.66
559.14	45684.92
559.31	45797.26
559.47	45504.70
559.64	45940.04
559.80	45790.24
559.97	45357.24
560.13	45532.78
560.30	45518.74
560.46	46220.90
560.63	46150.68
560.79	45993.87
560.96	46087.49
561.12	46349.63
561.29	46127.28
561.45	46204.52
561.61	45951.74
561.78	46143.66
561.94	46248.99
562.11	46064.08
562.27	46136.64
562.44	46204.52
562.60	46043.02
562.77	46513.47
562.93	45991.53
563.10	46375.37
563.26	46043.02
563.42	46532.19
563.59	45851.09
563.75	46075.79
563.92	45951.74
564.08	46768.58
564.24	47070.51
564.41	46628.15
564.57	46480.70
564.74	46160.05
564.90	45975.14
565.07	45979.82
565.23	46424.53
565.39	46438.57
565.56	46581.34
565.72	46394.10
565.88	46408.14
566.05	46499.42
566.21	47110.30
566.38	46426.87
566.54	46478.36
566.70	46740.50
566.87	46700.71
567.03	46117.92
567.19	46689.01
567.36	46562.62
567.52	46693.69
567.68	46983.91
567.85	46852.84
568.01	46913.70
568.17	46808.37
568.34	47023.70
568.50	46997.96
568.66	46651.56
568.83	46658.58
568.99	46653.90
569.15	46784.97
569.32	46815.40
569.48	47084.56
569.64	47320.95
569.81	47224.99
569.97	47065.83
570.13	47323.29
570.30	46817.74
570.46	46927.74
570.62	47292.86
570.78	47143.07
570.95	46791.99
571.11	47473.09
571.27	46689.01
571.43	47089.24
571.60	46990.94
571.76	47576.07
571.92	47049.45
572.09	47206.26
572.25	47154.77
572.41	47182.86
572.57	47304.57
572.74	47632.24
572.90	47222.65
573.06	47580.75
573.22	47421.59
573.38	47304.57
573.55	47531.60
573.71	47620.54
573.87	47416.91
574.03	46976.89
574.20	47725.86
574.36	47611.18
574.52	47365.42
574.68	47723.52
574.84	47381.80
575.01	47049.45
575.17	47016.68
575.33	47538.62
575.49	47363.08
575.65	47604.16
575.82	47297.55
575.98	47147.75
576.14	47753.95
576.30	47496.49
576.46	47547.98
576.62	47484.79
576.79	47199.24
576.95	47456.70
577.11	47524.58
577.27	47171.16
577.43	47643.94
577.59	47653.31
577.75	47318.61
577.92	46899.65
578.08	47096.26
578.24	47344.36
578.40	47643.94
578.56	47505.85
578.72	47154.77
578.88	47641.60
579.04	47447.34
579.21	48004.39
579.37	47597.13
579.53	47555.00
579.69	47597.13
579.85	47538.62
580.01	47650.97
580.17	47512.88
580.33	47648.63
580.49	47608.84
580.65	47672.03
580.82	47934.17
580.98	47730.54
581.14	47477.77
581.30	47648.63
581.46	47597.13
581.62	47365.42
581.78	47398.19
581.94	47611.18
582.10	47433.30
582.26	47753.95
582.42	47241.37
582.58	48107.37
582.74	47669.69
582.90	47945.87
583.06	48128.44
583.22	47210.95
583.38	47924.81
583.54	47728.20
583.70	47583.09
583.86	48032.47
584.02	47723.52
584.18	48011.41
584.34	47709.48
584.50	48189.29
584.66	48025.45
584.82	48191.63
584.98	47924.81
585.14	47545.64
585.30	47440.32
585.46	47744.59
585.62	47775.02
585.78	47917.79
585.94	47320.95
586.10	47524.58
586.26	47255.42
586.42	48079.28
586.58	47845.23
586.74	47728.20
586.90	48315.68
587.06	47667.35
587.22	48032.47
587.38	47435.64
587.54	47831.19
587.70	48423.34
587.86	47990.34
588.02	47763.31
588.18	47929.49
588.34	47290.52
588.49	48083.97
588.65	48044.18
588.81	48161.20
588.97	47983.32
589.13	48039.50
589.29	47868.64
589.45	48034.81
589.61	47828.85
589.77	48114.39
589.93	47868.64
590.08	48243.12
590.24	47983.32
590.40	48121.41
590.56	48816.55
590.72	48437.39
590.88	48088.65
591.04	47831.19
591.20	48519.31
591.35	48399.94
591.51	48830.60
591.67	48664.42
591.83	48491.22
591.99	48519.31
592.15	48212.70
592.31	48257.17
592.46	48383.55
592.62	48332.06
592.78	48610.59
592.94	48664.42
593.10	48694.85
593.26	48633.99
593.41	48828.26
593.57	48893.79
593.73	48472.49
593.89	48861.02
594.05	48921.88
594.20	48549.73
594.36	48973.37
594.52	48648.03
594.68	48325.04
594.84	48250.14
594.99	48680.80
595.15	48631.65
595.31	48472.49
595.47	48626.97
595.62	49059.97
595.78	48465.47
595.94	48706.55
596.10	48626.97
596.25	48582.50
596.41	48687.82
596.57	48451.43
596.73	48816.55
596.88	48762.72
597.04	48713.57
597.20	48648.03
597.36	48804.85
597.51	48514.62
597.67	48261.85
597.83	48439.73
597.99	48514.62
598.14	48357.81
598.30	48891.45
598.46	48626.97
598.61	48706.55
598.77	48694.85
598.93	48549.73
599.09	48619.95
599.24	48900.81
599.40	48205.67
599.56	48966.35
599.71	49242.53
599.87	49315.09
600.03	48821.23
600.18	49069.33
600.34	48453.77
600.50	48839.96
600.65	48842.30
600.81	48772.08
600.97	48856.34
601.12	48884.43
601.28	48903.15
601.44	48783.79
601.59	48935.92
601.75	48692.50
601.91	49055.29
602.06	48790.81
602.22	48577.82
602.37	48846.98
602.53	48474.84
602.69	49027.20
602.84	48540.37
603.00	48891.45
603.16	48760.38
603.31	48919.54
603.47	48734.63
603.62	48809.53
603.78	49109.12
603.94	48882.09
604.09	48678.46
604.25	48182.27
604.40	48736.98
604.56	48619.95
604.71	48706.55
604.87	48449.09
605.03	48566.12
605.18	48854.00
605.34	48531.01
605.49	48566.12
605.65	48753.36
605.80	48334.40
605.96	48268.87
606.12	48413.98
606.27	48561.44
606.43	48540.37
606.58	48839.96
606.74	48507.60
606.89	48856.34
607.05	49022.52
607.20	49336.15
607.36	48657.40
607.51	48514.62
607.67	48727.61
607.82	48849.32
607.98	48392.92
608.13	48215.04
608.29	48109.71
608.44	48327.38
608.60	48105.03
608.75	48692.50
608.91	48865.70
609.06	48128.44
609.22	48584.84
609.37	48339.08
609.53	48383.55
609.68	48516.96
609.84	48582.50
609.99	48402.28
610.15	48608.25
610.30	48655.06
610.46	48449.09
610.61	48545.05
610.76	48514.62
610.92	48252.48
611.07	47913.11
611.23	48311.00
611.38	48299.30
611.54	48554.41
611.69	48343.77
611.84	48617.61
612.00	48381.21
612.15	48095.67
612.31	48751.02
612.46	47896.72
612.62	48018.43
612.77	48095.67
612.92	48170.57
613.08	48046.52
613.23	48161.20
613.39	48236.10
613.54	47756.29
613.69	48355.47
613.85	48142.48
614.00	47910.77
614.15	48189.29
614.31	47868.64
614.46	47980.98
614.62	48296.95
614.77	47948.21
614.92	47767.99
615.08	47739.91
615.23	47962.26
615.38	48346.11
615.54	48030.13
615.69	47840.55
615.84	48090.99
616.00	47969.28
616.15	48430.36
616.30	47966.94
616.46	47447.34
616.61	47899.06
616.76	47714.16
616.92	47723.52
617.07	48086.31
617.22	47805.44
617.37	47573.73
617.53	47700.12
617.68	47641.60
617.83	47878.00
617.99	47999.71
618.14	47901.40
618.29	47538.62
618.45	47356.06
618.60	47653.31
618.75	47290.52
618.90	47597.13
619.06	47826.51
619.21	47760.97
619.36	47704.80
619.51	47398.19
619.67	47838.21
619.82	47597.13
619.97	47964.60
620.12	47346.70
620.28	47449.68
620.43	47496.49
620.58	47735.23
620.73	47072.85
620.89	47606.50
621.04	47704.80
621.19	47201.58
621.34	47437.98
621.49	47030.72
621.65	47435.64
621.80	47377.12
621.95	47430.96
622.10	46969.87
622.25	47402.87
622.41	47337.33
622.56	47213.29
622.71	47437.98
622.86	46684.33
623.01	47194.56
623.16	47311.59
623.32	47035.41
623.47	47009.66
623.62	46878.59
623.77	46913.70
623.92	47091.58
624.07	46838.80
624.23	47374.78
624.38	46728.80
624.53	46934.76
624.68	46656.24
624.83	46674.96
624.98	46789.65
625.13	46506.44
625.29	46586.02
625.44	46787.31
625.59	46302.82
625.74	46588.36
625.89	46323.88
626.04	46550.91
626.19	46822.42
626.34	46431.55
626.49	46277.07
626.65	46527.51
626.80	46525.17
626.95	46574.32
627.10	46033.66
627.25	46415.16
627.40	46443.25
627.55	46326.22
627.70	46054.72
627.85	46185.79
628.00	46670.28
628.15	46438.57
628.30	46178.77
628.45	45900.25
628.60	45530.44
628.76	45848.75
628.91	46040.68
629.06	45682.58
629.21	46017.27
629.36	45769.18
629.51	46080.47
629.66	46258.35
629.81	45830.03
629.96	46216.22
630.11	45385.33
630.26	46043.02
630.41	45614.70
630.56	45621.72
630.71	45902.59
630.86	45773.86
631.01	45476.61
631.16	45818.33
631.31	45893.22
631.46	46309.84
631.61	46337.93
631.76	46131.96
631.91	45991.53
632.06	46192.81
632.21	46410.48
632.36	45638.11
632.51	45560.87
632.66	45769.18
632.81	45492.99
632.96	45429.80
633.10	45703.64
633.25	45420.44
633.40	45612.36
633.55	45869.82
633.70	45605.34
633.85	45113.83
634.00	45106.80
634.15	45221.49
634.30	45427.46
634.45	45350.22
634.60	45104.46
634.75	45347.88
634.90	45560.87
635.05	45476.61
635.19	45174.68
635.34	45350.22
635.49	45207.45
635.64	45008.50
635.79	45535.12
635.94	45195.74
636.09	45329.16
636.24	44938.29
636.39	44889.13
636.53	45352.56
636.68	44694.87
636.83	44823.60
636.98	44507.63
637.13	44488.90
637.28	44739.34
637.43	44575.50
637.57	45226.17
637.72	44079.31
637.87	44645.72
638.02	44561.46
638.17	44964.03
638.32	44568.48
638.46	44268.89
638.61	44849.35
638.76	44704.23
638.91	44720.62
639.06	44643.38
639.20	44336.77
639.35	44484.22
639.50	44299.32
639.65	44142.50
639.80	44751.04
639.94	44814.24
640.09	44657.42
640.24	44505.29
640.39	43676.74
640.54	43779.72
640.68	44296.98
640.83	44722.96
640.98	44168.25
641.13	43730.57
641.27	44744.02
641.42	44030.16
641.57	43945.90
641.72	44411.67
641.86	44025.48
642.01	44006.75
642.16	44018.46
642.31	43295.23
642.45	44318.04
642.60	43349.06
642.75	44016.11
642.90	43985.69
643.04	43957.60
643.19	43803.13
643.34	43672.06
643.48	43622.90
643.63	43650.99
643.78	43643.97
643.93	43751.63
644.07	43826.53
644.22	43606.52
644.37	43578.43
644.51	43594.82
644.66	43887.39
644.81	43620.56
644.95	43660.35
645.10	43533.96
645.25	43344.38
645.39	43026.07
645.54	43318.64
645.69	42983.94
645.83	43203.95
645.98	43222.67
646.13	43213.31
646.27	43084.58
646.42	42904.36
646.57	43199.27
646.71	43269.48
646.86	43590.14
647.00	43267.14
647.15	43704.82
647.30	43309.27
647.44	43498.86
647.59	43154.80
647.74	43180.54
647.88	43344.38
648.03	43234.38
648.17	43531.62
648.32	43250.76
648.47	43269.48
648.61	43086.92
648.76	42817.76
648.90	42436.25
649.05	43026.07
649.20	43182.88
649.34	43253.10
649.49	42911.38
649.63	42733.50
649.78	42534.56
649.92	43096.28
650.07	43171.18
650.21	43208.63
650.36	43306.93
650.51	42859.89
650.65	42555.62
650.80	43306.93
650.94	42923.08
651.09	42590.73
651.23	42330.93
651.38	42157.73
651.52	42473.70
651.67	42457.32
651.81	42562.64
651.96	42267.73
652.10	41954.10
652.25	42188.16
652.39	42625.84
652.54	42710.10
652.68	42326.25
652.83	42726.48
652.97	42171.77
653.12	42469.02
653.26	42036.02
653.41	42340.29
653.55	42232.63
653.70	42590.73
653.84	42010.28
653.99	42185.82
654.13	42394.12
654.27	41998.57
654.42	42286.46
654.56	42007.94
654.71	41940.06
654.85	42300.50
655.00	42117.94
655.14	42005.59
655.29	42033.68
655.43	42061.77
655.57	42298.16
655.72	41731.75
655.86	41827.71
656.01	41216.83
656.15	41057.68
656.30	41364.29
656.44	42176.45
656.58	41500.04
656.73	41837.08
656.87	41670.90
657.01	41265.99
657.16	41649.83
657.30	41453.23
657.45	41509.40
657.59	41345.56
657.73	41233.22
657.88	41401.74
658.02	41528.13
658.16	41441.53
658.31	41406.42
658.45	41488.34
658.60	41340.88
658.74	41593.66
658.88	41319.82
659.03	41144.28
659.17	41130.23
659.31	40477.22
659.46	40727.66
659.60	40624.68
659.74	40886.82
659.89	40357.86
660.03	40549.78
660.17	40877.46
660.32	40570.85
660.46	40524.04
660.60	39782.09
660.74	40299.34
660.89	40999.16
661.03	39985.71
661.17	39952.94
661.32	40196.36
661.46	40524.04
661.60	40236.15
661.74	39988.05
661.89	39966.99
662.03	39941.24
662.17	39763.36
662.31	39449.73
662.46	40322.75
662.60	39730.59
662.74	39672.08
662.88	40030.18
663.03	39356.11
663.17	39683.78
663.31	39573.78
663.45	39189.93
663.60	39332.70
663.74	39395.90
663.88	38951.20
664.02	39234.40
664.17	39391.22
664.31	39098.65
664.45	39185.25
664.59	38983.96
664.73	38937.15
664.88	39201.63
665.02	38794.38
665.16	38356.70
665.30	39124.40
665.44	38913.75
665.59	38817.78
665.73	39061.20
665.87	38342.66
666.01	38609.48
666.15	38990.98
666.29	38174.14
666.44	38326.27
666.58	38405.85
666.72	38192.86
666.86	38003.28
667.00	38216.27
667.14	37876.89
667.28	38349.68
667.43	37734.12
667.57	38438.62
667.71	37677.94
667.85	37998.60
667.99	37963.49
668.13	37691.99
668.27	37474.32
668.41	37748.16
668.56	37699.01
668.70	37160.69
668.84	37188.77
668.98	36795.56
669.12	37490.70
669.26	37191.11
669.40	37034.30
669.54	37385.38
669.68	36762.79
669.82	37326.86
669.96	37076.43
670.10	36730.03
670.25	36549.81
670.39	36362.56
670.53	37013.23
670.67	36741.73
670.81	36921.95
670.95	36542.78
671.09	36531.08
671.23	36016.16
671.37	36552.15
671.51	36224.47
671.65	36135.53
671.79	36348.52
671.93	36172.98
672.07	36320.43
672.21	35812.54
672.35	35646.36
672.49	35838.28
672.63	35999.78
672.77	35536.35
672.91	35374.86
673.05	35896.80
673.19	35445.07
673.33	35360.81
673.47	34686.74
673.61	34895.05
673.75	34904.41
673.89	34902.07
674.03	34932.50
674.17	34738.23
674.31	34174.16
674.45	34560.35
674.59	34249.06
674.73	34422.26
674.87	34010.32
675.01	34455.03
675.15	33731.80
675.29	33834.78
675.43	33689.67
675.56	34052.45
675.70	33621.80
675.84	33462.64
675.98	32601.32
676.12	33809.04
676.26	33804.36
676.40	33504.77
676.54	33226.24
676.68	33603.07
676.82	32711.33
676.96	33223.90
677.10	33312.84
677.23	32994.53
677.37	33261.35
677.51	32730.05
677.65	32818.99
677.79	32648.13
677.93	32233.86
678.07	32283.01
678.21	32173.00
678.34	32013.85
678.48	31765.75
678.62	31597.23
678.76	31974.06
678.90	31716.60
679.04	31782.13
679.18	31915.54
679.31	31391.26
679.45	31463.82
679.59	30888.05
679.73	31035.50
679.87	30946.56
680.00	30920.82
680.14	30710.17
680.28	30733.57
680.42	30859.96
680.56	30672.72
680.70	30663.36
680.83	30424.62
680.97	29830.13
681.11	30174.19
681.25	30176.53
681.39	29799.70
681.52	30258.45
681.66	29565.65
681.80	29212.23
681.94	29165.42
682.07	29490.75
682.21	29226.27
682.35	29064.77
682.49	29125.63
682.62	29200.52
682.76	28671.56
682.90	29160.73
683.04	28947.75
683.17	28620.07
683.31	28463.25
683.45	28716.03
683.59	28168.35
683.72	27910.89
683.86	28432.83
684.00	28006.85
684.13	28044.30
684.27	27999.83
684.41	27761.09
684.55	27669.81
684.68	27882.80
684.82	27388.95
684.96	27768.12
685.09	27363.20
685.23	27360.86
685.37	27623.00
685.50	27426.40
685.64	26998.08
685.78	27028.51
685.91	26630.62
686.05	26719.56
686.19	26178.89
686.32	26384.86
686.46	26052.50
686.60	25883.98
686.73	26256.13
686.87	25893.35
687.01	26024.42
687.14	26015.05
687.28	25734.19
687.42	25752.91
687.55	25462.69
687.69	25514.18
687.82	25472.05
687.96	25027.35
688.10	25109.27
688.23	25425.24
688.37	25270.76
688.50	25467.37
688.64	25167.78
688.78	25127.99
688.91	24563.92
689.05	24662.22
689.18	24428.17
689.32	24177.73
689.46	24233.91
689.59	24067.73
689.73	24308.80
689.86	24327.53
690.00	24163.69
690.13	24353.27
690.27	23384.29
690.41	23770.48
690.54	23550.47
690.68	23236.84
690.81	23442.81
690.95	23264.92
691.08	23185.35
691.22	23049.60
691.35	22799.16
691.49	23168.96
691.62	22848.31
691.76	22530.00
691.89	22424.67
692.03	22286.58
692.16	22155.51
692.30	22176.58
692.43	22204.66
692.57	21940.18
692.70	22026.78
692.84	21961.25
692.97	21582.08
693.11	21558.67
693.24	21406.54
693.38	21401.86
693.51	21223.98
693.65	21067.16
693.78	21125.68
693.92	20994.61
694.05	20931.41
694.19	20875.24
694.32	20926.73
694.45	21130.36
694.59	20666.93
694.72	21099.93
694.86	20503.09
694.99	20348.62
695.13	20577.99
695.26	20044.35
695.39	19995.20
695.53	19662.84
695.66	19807.95
695.80	19723.69
695.93	19679.22
696.07	19239.20
696.20	19426.45
696.33	19330.48
696.47	19300.06
696.60	19190.05
696.73	19068.34
696.87	19379.64
697.00	19264.95
697.14	19005.15
697.27	19075.37
697.40	18923.23
697.54	18789.82
697.67	18560.45
697.80	18642.37
697.94	18394.27
698.07	18534.70
698.21	18366.18
698.34	18178.94
698.47	17785.73
698.61	17933.18
698.74	17769.35
698.87	17708.49
699.01	17617.21
699.14	17598.49
699.27	17671.04
699.40	17734.24
699.54	17357.41
699.67	17635.94
699.80	17298.90
699.94	17319.96
700.07	17043.78
700.20	16968.88
700.34	16776.96
700.47	17144.42
700.60	17315.28
700.73	17078.89
700.87	16659.93
701.00	16367.37
701.13	16395.45
701.26	16566.31
701.40	16549.93
701.53	16381.41
701.66	16322.90
701.79	16327.58
701.93	15941.39
702.06	15782.23
702.19	15964.79
702.32	15981.18
702.46	15658.18
702.59	15721.38
702.72	15962.45
702.85	15751.81
702.99	15594.99
703.12	15466.26
703.25	15389.02
703.38	15042.62
703.51	15318.81
703.65	14911.55
703.78	14806.23
703.91	14810.91
704.04	14918.57
704.17	14602.60
704.31	14956.02
704.44	14806.23
704.57	14593.24
704.70	14583.88
704.83	14387.27
704.96	14677.50
705.10	14118.11
705.23	14129.81
>>>>>End Processed Spectral Data<<<<<
