SpectraSuite Data File
++++++++++++++++++++++++++++++++++++
Date: Fri Oct 25 11:34:06 EDT 2013
User: price-jones
Dark Spectrum Present: No
Reference Spectrum Present: No
Number of Sampled Component Spectra: 1
Spectrometers: USB2+H05261
Integration Time (usec): 100000 (USB2+H05261)
Spectra Averaged: 1 (USB2+H05261)
Boxcar Smoothing: 0 (USB2+H05261)
Correct for Electrical Dark: No (USB2+H05261)
Strobe/Lamp Enabled: No (USB2+H05261)
Correct for Detector Non-linearity: No (USB2+H05261)
Correct for Stray Light: No (USB2+H05261)
Number of Pixels in Processed Spectrum: 2048
>>>>>Begin Processed Spectral Data<<<<<
365.73	252.78
365.92	252.78
366.12	252.78
366.32	177.88
366.52	203.63
366.72	163.84
366.91	198.95
367.11	201.29
367.31	220.01
367.51	163.84
367.70	142.77
367.90	156.82
368.10	138.09
368.30	234.05
368.49	271.50
368.69	212.99
368.89	124.05
369.09	135.75
369.28	194.26
369.48	187.24
369.68	194.26
369.87	250.44
370.07	252.78
370.27	269.16
370.47	320.65
370.66	421.30
370.86	500.87
371.06	510.24
371.25	489.17
371.45	514.92
371.65	608.54
371.84	535.98
372.04	568.75
372.24	587.47
372.44	585.13
372.63	524.28
372.83	613.22
373.03	608.54
373.22	608.54
373.42	578.11
373.62	657.69
373.81	566.41
374.01	610.88
374.21	638.97
374.40	634.29
374.60	671.73
374.79	699.82
374.99	608.54
375.19	667.05
375.38	678.76
375.58	627.26
375.78	711.52
375.97	592.16
376.17	748.97
376.37	653.01
376.56	624.92
376.76	634.29
376.95	610.88
377.15	718.54
377.35	641.31
377.54	655.35
377.74	653.01
377.93	685.78
378.13	681.10
378.33	697.48
378.52	709.18
378.72	697.48
378.91	699.82
379.11	706.84
379.31	650.67
379.50	678.76
379.70	730.25
379.89	760.67
380.09	727.91
380.28	727.91
380.48	711.52
380.68	688.12
380.87	671.73
381.07	763.01
381.26	716.20
381.46	837.91
381.65	755.99
381.85	723.23
382.04	695.14
382.24	840.25
382.43	711.52
382.63	765.36
382.83	777.06
383.02	833.23
383.22	807.48
383.41	807.48
383.61	770.04
383.80	774.72
384.00	830.89
384.19	760.67
384.39	847.27
384.58	840.25
384.78	856.64
384.97	798.12
385.17	788.76
385.36	816.85
385.56	830.89
385.75	805.14
385.95	826.21
386.14	788.76
386.34	844.93
386.53	807.48
386.72	830.89
386.92	880.04
387.11	903.45
387.31	847.27
387.50	814.51
387.70	919.83
387.89	943.24
388.09	912.81
388.28	922.17
388.48	866.00
388.67	894.08
388.86	917.49
389.06	882.38
389.25	997.07
389.45	868.34
389.64	957.28
389.84	910.47
390.03	898.77
390.22	966.64
390.42	915.15
390.61	889.40
390.81	1001.75
391.00	926.85
391.19	961.96
391.39	1001.75
391.58	1116.44
391.78	997.07
391.97	957.28
392.16	1041.54
392.36	1048.56
392.55	990.05
392.75	1062.60
392.94	1064.94
393.13	1090.69
393.33	1069.62
393.52	1064.94
393.71	1090.69
393.91	1069.62
394.10	1060.26
394.29	1116.44
394.49	1062.60
394.68	1116.44
394.88	1102.39
395.07	1205.38
395.26	1104.73
395.46	1074.31
395.65	1146.86
395.84	1174.95
396.04	1259.21
396.23	1186.65
396.42	1181.97
396.62	1210.06
396.81	1221.76
397.00	1128.14
397.19	1128.14
397.39	1247.51
397.58	1205.38
397.77	1205.38
397.97	1210.06
398.16	1287.29
398.35	1343.47
398.55	1198.35
398.74	1303.68
398.93	1247.51
399.12	1315.38
399.32	1289.64
399.51	1268.57
399.70	1198.35
399.90	1313.04
400.09	1366.87
400.28	1317.72
400.47	1401.98
400.67	1364.53
400.86	1394.96
401.05	1369.21
401.24	1439.43
401.44	1472.20
401.63	1469.86
401.82	1497.94
402.01	1301.34
402.21	1313.04
402.40	1394.96
402.59	1460.49
402.78	1446.45
402.97	1425.39
403.17	1593.90
403.36	1444.11
403.55	1579.86
403.74	1514.33
403.93	1472.20
404.13	1540.07
404.32	1434.75
404.51	1556.46
404.70	1547.09
404.89	1582.20
405.09	1687.53
405.28	1629.01
405.47	1619.65
405.66	1724.97
405.85	1724.97
406.05	1638.38
406.24	1792.85
406.43	1685.19
406.62	1827.96
406.81	1790.51
407.00	1785.83
407.20	1715.61
407.39	1785.83
407.58	1827.96
407.77	1940.30
407.96	1806.89
408.15	1853.70
408.34	1898.17
408.54	1830.30
408.73	1893.49
408.92	1947.33
409.11	1877.11
409.30	1930.94
409.49	1944.99
409.68	1926.26
409.87	1893.49
410.07	2026.90
410.26	2026.90
410.45	2038.61
410.64	2005.84
410.83	2033.93
411.02	2078.40
411.21	2059.67
411.40	2005.84
411.59	2118.18
411.78	2256.28
411.98	2125.21
412.17	2136.91
412.36	2204.78
412.55	2305.43
412.74	2429.48
412.93	2326.49
413.12	2216.49
413.31	2541.82
413.50	2422.45
413.69	2368.62
413.88	2392.03
414.07	2375.64
414.26	2555.86
414.45	2349.90
414.64	2347.56
414.83	2469.27
415.02	2621.40
415.22	2555.86
415.41	2473.95
415.60	2502.03
415.79	2649.49
415.98	2612.04
416.17	2588.63
416.36	2672.89
416.55	2647.15
416.74	2768.85
416.93	2717.36
417.12	2794.60
417.31	2876.52
417.50	2869.50
417.69	2949.08
417.88	2864.82
418.07	2799.28
418.26	2920.99
418.45	2925.67
418.64	2995.89
418.83	3042.70
419.02	3000.57
419.21	3021.63
419.39	3026.31
419.58	3084.83
419.77	3068.44
419.96	3098.87
420.15	3194.83
420.34	3052.06
420.53	3075.46
420.72	3061.42
420.91	3274.41
421.10	3164.40
421.29	3126.96
421.48	3213.56
421.67	3180.79
421.86	3293.13
422.05	3255.69
422.24	3304.84
422.43	3344.63
422.61	3274.41
422.80	3370.37
422.99	3389.10
423.18	3407.82
423.37	3321.22
423.56	3318.88
423.75	3361.01
423.94	3185.47
424.13	2988.86
424.32	3185.47
424.50	3332.92
424.69	3403.14
424.88	3318.88
425.07	3353.99
425.26	3466.33
425.45	3379.73
425.64	3471.01
425.83	3445.27
426.01	3445.27
426.20	3375.05
426.39	3426.54
426.58	3529.53
426.77	3426.54
426.96	3487.40
427.15	3407.82
427.33	3541.23
427.52	3442.93
427.71	3559.95
427.90	3407.82
428.09	3564.64
428.28	3613.79
428.46	3637.19
428.65	3597.40
428.84	3538.89
429.03	3681.66
429.22	3735.50
429.40	3618.47
429.59	3784.65
429.78	3669.96
429.97	3616.13
430.16	3705.07
430.34	3660.60
430.53	3796.35
430.72	3889.97
430.91	3702.73
431.10	3829.12
431.28	3854.86
431.47	3922.74
431.66	3920.40
431.85	3857.20
432.03	4011.68
432.22	4037.42
432.41	4011.68
432.60	3992.95
432.79	4100.62
432.97	4084.23
433.16	3936.78
433.35	3939.12
433.54	4044.45
433.72	4060.83
433.91	3967.21
434.10	4145.09
434.28	4032.74
434.47	4177.86
434.66	4217.65
434.85	4222.33
435.03	4222.33
435.22	4252.75
435.41	4369.78
435.59	4210.62
435.78	4264.46
435.97	4227.01
436.16	4227.01
436.34	4241.05
436.53	4372.12
436.72	4421.27
436.90	4444.68
437.09	4266.80
437.28	4348.72
437.46	4418.93
437.65	4376.80
437.84	4578.09
438.02	4521.92
438.21	4540.64
438.40	4400.21
438.58	4540.64
438.77	4620.22
438.96	4652.98
439.14	4695.11
439.33	4734.90
439.52	4697.46
439.70	4594.47
439.89	4718.52
440.08	4802.78
440.26	5013.43
440.45	4954.91
440.63	4901.08
440.82	5057.90
441.01	5055.56
441.19	5029.81
441.38	5013.43
441.57	5263.86
441.75	5228.76
441.94	5268.55
442.12	5266.21
442.31	5270.89
442.50	5280.25
442.68	5259.18
442.87	5371.53
443.05	5214.71
443.24	5411.32
443.43	5462.81
443.61	5434.72
443.80	5753.04
443.98	5294.29
444.17	5174.92
444.35	5404.30
444.54	5605.58
444.73	5289.61
444.91	5521.32
445.10	5472.17
445.28	5614.95
445.47	5474.51
445.65	5444.09
445.84	5518.98
446.02	5610.26
446.21	5654.73
446.39	5575.16
446.58	5692.18
446.77	5619.63
446.95	5479.19
447.14	5577.50
447.32	5671.12
447.51	5605.58
447.69	5565.79
447.88	5734.31
448.06	5671.12
448.25	5626.65
448.43	5729.63
448.62	5638.35
448.80	5589.20
448.99	5790.49
449.17	5715.59
449.36	5729.63
449.54	5839.64
449.73	5935.60
449.91	5970.71
450.10	5998.79
450.28	6113.48
450.46	5987.09
450.65	6064.33
450.83	6073.69
451.02	5975.39
451.20	6139.23
451.39	5996.45
451.57	6054.97
451.76	5930.92
451.94	6143.91
452.13	6267.95
452.31	6150.93
452.49	6038.58
452.68	6059.65
452.86	6155.61
453.05	6272.64
453.23	6457.54
453.42	6111.14
453.60	6104.12
453.78	6413.07
453.97	6237.53
454.15	6277.32
454.34	6188.38
454.52	6553.50
454.70	6375.62
454.89	6377.96
455.07	6555.84
455.26	6424.77
455.44	6600.31
455.62	6710.32
455.81	6403.71
455.99	6555.84
456.17	6574.56
456.36	6494.99
456.54	6562.86
456.73	6703.29
456.91	6773.51
457.09	6846.07
457.28	6888.20
457.46	6780.53
457.64	7052.03
457.83	6892.88
458.01	6881.18
458.19	7056.72
458.38	6925.65
458.56	6984.16
458.74	7068.42
458.93	7042.67
459.11	6986.50
459.29	7201.83
459.48	7140.97
459.66	7054.37
459.84	7239.28
460.03	7297.79
460.21	7183.10
460.39	7211.19
460.57	7288.43
460.76	7227.57
460.94	7389.07
461.12	7300.13
461.31	7482.69
461.49	7346.94
461.67	7473.33
461.85	7510.78
462.04	7375.03
462.22	7946.12
462.40	7660.57
462.59	7803.35
462.77	7662.91
462.95	7698.02
463.13	7700.36
463.32	7733.13
463.50	7637.17
463.68	7730.79
463.86	7927.39
464.05	7658.23
464.23	7723.77
464.41	7714.41
464.59	7583.34
464.78	7960.16
464.96	7885.26
465.14	7719.09
465.32	7852.50
465.50	8100.59
465.69	7847.82
465.87	8030.38
466.05	7978.89
466.23	7801.01
466.41	8065.49
466.60	8093.57
466.78	8053.78
466.96	7997.61
467.14	7857.18
467.32	7990.59
467.51	8278.47
467.69	7854.84
467.87	7911.01
468.05	8063.15
468.23	8112.30
468.41	8119.32
468.60	8173.15
468.78	8451.67
468.96	8156.77
469.14	8294.86
469.32	8409.54
469.50	8400.18
469.69	8327.63
469.87	8657.64
470.05	8500.83
470.23	8655.30
470.41	8592.11
470.59	8662.32
470.77	8505.51
470.95	8664.66
471.14	8879.99
471.32	8456.36
471.50	8748.92
471.68	8786.37
471.86	8950.21
472.04	8929.14
472.22	9118.73
472.40	8905.74
472.58	8931.48
472.77	9221.71
472.95	9221.71
473.13	9397.25
473.31	9193.62
473.49	9280.22
473.67	9261.50
473.85	9273.20
474.03	9495.55
474.21	9572.79
474.39	9605.56
474.57	9577.47
474.75	9537.68
474.93	9729.61
475.12	9617.26
475.30	9790.46
475.48	9748.33
475.66	10183.67
475.84	9760.03
476.02	9736.63
476.20	10190.69
476.38	10249.21
476.56	10480.92
476.74	10434.11
476.92	10197.71
477.10	10190.69
477.28	10530.07
477.46	10382.62
477.64	10497.30
477.82	10724.33
478.00	11068.39
478.18	10892.85
478.36	10780.51
478.54	11037.97
478.72	11157.33
478.90	11164.36
479.08	11304.79
479.26	11442.88
479.44	11499.05
479.62	11747.15
479.80	11552.88
479.98	11772.89
480.16	11775.24
480.34	11714.38
480.52	12255.04
480.70	12013.97
480.88	11960.14
481.06	12147.38
481.24	12166.10
481.41	12102.91
481.59	12367.39
481.77	12535.91
481.95	12486.76
482.13	12828.48
482.31	12615.49
482.49	13015.72
482.67	12917.42
482.85	13224.03
483.03	13345.73
483.21	13397.23
483.39	13699.16
483.57	13537.66
483.74	13507.23
483.92	13802.14
484.10	13694.47
484.28	13706.18
484.46	14005.77
484.64	14118.11
484.82	14108.75
485.00	14406.00
485.18	14689.20
485.35	14752.40
485.53	14747.72
485.71	14700.90
485.89	15016.88
486.07	15152.63
486.25	15150.29
486.43	14979.43
486.61	15332.85
486.78	15599.67
486.96	15456.90
487.14	15730.74
487.32	15737.76
487.50	15929.69
487.68	15726.06
487.85	16133.31
488.03	16210.55
488.21	16739.51
488.39	16662.27
488.57	16533.54
488.75	16835.47
488.92	16973.56
489.10	16987.61
489.28	17099.95
489.46	17572.74
489.64	17151.45
489.81	17757.64
489.99	17678.07
490.17	17570.40
490.35	18150.85
490.53	17984.68
490.70	18071.28
490.88	17972.97
491.06	18331.08
491.24	18478.53
491.41	18838.97
491.59	18647.05
491.77	18640.03
491.95	18984.09
492.13	19159.63
492.30	19421.77
492.48	19438.15
492.66	19335.17
492.84	19302.40
493.01	19726.04
493.19	19597.31
493.37	19948.39
493.54	19683.91
493.72	20180.10
493.90	20222.23
494.08	20308.83
494.25	20566.29
494.43	20489.05
494.61	20830.77
494.79	20781.62
494.96	20786.30
495.14	21198.23
495.32	21013.33
495.49	21273.13
495.67	21252.06
495.85	21500.16
496.02	21443.99
496.20	21708.47
496.38	21668.68
496.55	21816.13
496.73	22349.78
496.91	22174.24
497.09	22157.85
497.26	22272.54
497.44	22230.41
497.62	22443.40
497.79	22691.49
497.97	22817.88
498.14	22602.55
498.32	23452.17
498.50	23232.16
498.67	23386.63
498.85	23009.81
499.03	23501.32
499.20	23342.16
499.38	23782.18
499.56	23882.83
499.73	23840.70
499.91	23971.77
500.08	23978.79
500.26	23814.95
500.44	23873.46
500.61	24320.51
500.79	24212.84
500.97	24496.05
501.14	24599.03
501.32	24725.42
501.49	25069.48
501.67	24870.53
501.84	25198.21
502.02	25149.06
502.20	24833.08
502.37	25345.66
502.55	25036.71
502.72	25369.07
502.90	25137.35
503.07	25458.01
503.25	25497.80
503.43	25319.92
503.60	25628.87
503.78	25687.38
503.95	25839.51
504.13	25874.62
504.30	26314.64
504.48	26298.26
504.65	26342.73
504.83	26185.91
505.01	26574.44
505.18	26394.22
505.36	26560.40
505.53	26375.50
505.71	26904.46
505.88	26700.83
506.06	26658.70
506.23	27072.98
506.41	26773.39
506.58	27005.10
506.76	27037.87
506.93	27538.74
507.11	27433.42
507.28	27314.05
507.46	27644.07
507.63	27475.55
507.81	27611.30
507.98	27557.47
508.16	28011.53
508.33	27749.39
508.50	27967.06
508.68	28161.33
508.85	28505.38
509.03	28072.39
509.20	28130.90
509.38	28484.32
509.55	28388.36
509.73	28517.09
509.90	28833.06
510.08	28650.50
510.25	28924.34
510.42	29013.28
510.60	29191.16
510.77	28996.90
510.95	29556.28
511.12	29008.60
511.30	29359.68
511.47	29425.22
511.64	29242.65
511.82	29680.33
511.99	29907.37
512.17	29879.28
512.34	29525.86
512.51	30178.87
512.69	30394.20
512.86	30263.13
513.04	30228.02
513.21	30188.23
513.38	30401.22
513.56	30335.68
513.73	30459.73
513.90	30476.12
514.08	30789.75
514.25	30799.11
514.43	30794.43
514.60	30824.86
514.77	30742.94
514.95	30902.09
515.12	30920.82
515.29	30951.24
515.47	31344.45
515.64	31309.35
515.81	31590.21
515.99	30850.60
516.16	31903.84
516.33	31395.95
516.51	31981.08
516.68	31232.11
516.85	31585.53
517.03	31985.76
517.20	32250.24
517.37	32275.99
517.54	31871.07
517.72	31960.02
517.89	32203.43
518.06	32390.67
518.24	32058.32
518.41	32147.26
518.58	32655.15
518.75	32222.16
518.93	32854.10
519.10	32739.41
519.27	32746.44
519.45	32730.05
519.62	32936.02
519.79	32971.13
519.96	32769.84
520.14	33214.54
520.31	32744.09
520.48	33366.68
520.65	33113.90
520.83	33713.08
521.00	33411.15
521.17	33460.30
521.34	33544.56
521.52	33659.24
521.69	34094.58
521.86	34007.98
522.03	33745.84
522.20	34326.30
522.38	34595.46
522.55	34265.44
522.72	34298.21
522.89	34115.65
523.07	34799.08
523.24	34450.35
523.41	34321.62
523.58	34279.49
523.75	34885.68
523.92	34579.07
524.10	34850.58
524.27	34869.30
524.44	35014.41
524.61	35117.40
524.78	35037.82
524.96	35161.87
525.13	35199.32
525.30	35522.31
525.47	35161.87
525.64	35154.85
525.81	35241.45
525.98	35651.04
526.16	35370.18
526.33	35695.51
526.50	36025.53
526.67	35557.42
526.84	35810.20
527.01	35899.14
527.18	35676.79
527.36	35927.22
527.53	36268.94
527.70	36470.23
527.87	36519.38
528.04	36048.93
528.21	36376.61
528.38	36133.19
528.55	36306.39
528.72	36177.66
528.89	36430.44
529.07	36374.27
529.24	36463.21
529.41	36790.88
529.58	36708.96
529.75	37048.34
529.92	36678.54
530.09	37361.97
530.26	37055.36
530.43	36767.48
530.60	37020.25
530.77	36603.64
530.94	37132.60
531.11	36886.84
531.28	36907.91
531.46	37284.73
531.63	37202.82
531.80	37385.38
531.97	37736.46
532.14	37626.45
532.31	37336.23
532.48	37914.34
532.65	37565.60
532.82	37352.61
532.99	37832.42
533.16	37633.47
533.33	37823.06
533.50	37720.07
533.67	38033.71
533.84	37614.75
534.01	38316.91
534.18	38206.90
534.35	38101.58
534.52	37972.85
534.69	38499.47
534.86	38153.07
535.03	38031.36
535.20	38536.92
535.37	38735.87
535.54	38433.94
535.71	38667.99
535.88	38733.53
536.05	38710.12
536.22	39058.86
536.38	38424.57
536.55	38953.54
536.72	38742.89
536.89	39009.71
537.06	38679.69
537.23	39302.28
537.40	38684.37
537.57	39262.49
537.74	38855.23
537.91	39447.39
538.08	39058.86
538.25	38792.04
538.42	39192.27
538.59	39562.08
538.75	39246.10
538.92	39864.00
539.09	39789.11
539.26	39494.20
539.43	39786.77
539.60	39627.61
539.77	39885.07
539.94	39943.58
540.11	39779.74
540.28	39655.70
540.44	39737.62
540.61	39826.56
540.78	39744.64
540.95	39608.89
541.12	39812.51
541.29	39580.80
541.46	40114.44
541.62	39754.00
541.79	40369.56
541.96	40013.80
542.13	40039.54
542.30	40278.28
542.47	40161.25
542.63	40360.20
542.80	40746.39
542.97	40840.01
543.14	40933.63
543.31	40907.88
543.48	40748.73
543.64	41258.96
543.81	41202.79
543.98	41083.42
544.15	40722.98
544.32	41684.94
544.48	41593.66
544.65	41242.58
544.82	41228.54
544.99	41106.83
545.16	41352.58
545.32	40928.95
545.49	41422.80
545.66	41942.40
545.83	41682.60
546.00	42054.75
546.16	41535.15
546.33	41720.05
546.50	41701.32
546.67	41570.25
546.83	41263.64
547.00	41504.72
547.17	41532.81
547.34	41944.74
547.50	42017.30
547.67	42251.35
547.84	41773.88
548.00	41827.71
548.17	42445.62
548.34	42129.64
548.51	42263.05
548.67	42342.63
548.84	42684.35
549.01	42206.88
549.18	42267.73
549.34	42211.56
549.51	42480.72
549.68	43079.90
549.84	42569.66
550.01	42501.79
550.18	42328.59
550.34	42417.53
550.51	42548.60
550.68	42939.47
550.84	42836.48
551.01	42834.14
551.18	42731.16
551.34	42726.48
551.51	42829.46
551.68	43164.16
551.84	42869.25
552.01	42424.55
552.18	42749.88
552.34	42876.27
552.51	42651.58
552.68	42923.08
552.84	43103.31
553.01	43138.41
553.18	42829.46
553.34	43311.61
553.51	43103.31
553.67	43262.46
553.84	43672.06
554.01	43629.93
554.17	43473.11
554.34	43622.90
554.51	43367.79
554.67	43786.74
554.84	43346.72
555.00	43601.84
555.17	43391.19
555.33	43702.48
555.50	43849.94
555.67	43634.61
555.83	43433.32
556.00	44137.82
556.16	44130.80
556.33	44252.51
556.50	43803.13
556.66	43913.13
556.83	43973.98
556.99	44301.66
557.16	44233.78
557.32	44566.14
557.49	44296.98
557.65	43662.69
557.82	44179.95
557.98	44388.26
558.15	44231.44
558.32	44205.70
558.48	43688.44
558.65	44371.88
558.81	44069.95
558.98	43899.09
559.14	44362.51
559.31	44570.82
559.47	43906.11
559.64	44638.70
559.80	44458.48
559.97	44381.24
560.13	44189.31
560.30	44039.52
560.46	44355.49
560.63	44978.07
560.79	44542.74
560.96	44648.06
561.12	44449.11
561.29	44252.51
561.45	45287.03
561.61	44788.49
561.78	44201.02
561.94	44334.43
562.11	44715.93
562.27	44722.96
562.44	44966.37
562.60	44641.04
562.77	45455.54
562.93	45177.02
563.10	45624.06
563.26	44961.69
563.42	45382.99
563.59	44975.73
563.75	44650.40
563.92	44809.56
564.08	44690.19
564.24	45514.06
564.41	44722.96
564.57	45233.19
564.74	45237.87
564.90	44959.35
565.07	45064.67
565.23	45230.85
565.39	45097.44
565.56	45247.24
565.72	45191.06
565.88	45055.31
566.05	45027.23
566.21	45574.91
566.38	45090.42
566.54	45083.40
566.70	45368.94
566.87	44896.16
567.03	45240.21
567.19	45635.77
567.36	45523.42
567.52	44961.69
567.68	45584.27
567.85	45317.45
568.01	45453.20
568.17	45251.92
568.34	45963.44
568.50	45783.22
568.66	45230.85
568.83	45137.23
568.99	45324.47
569.15	45289.37
569.32	45839.39
569.48	45303.41
569.64	46031.32
569.81	45237.87
569.97	45603.00
570.13	46192.81
570.30	45265.96
570.46	45603.00
570.62	45993.87
570.78	45787.90
570.95	45577.25
571.11	46089.83
571.27	45460.23
571.43	45640.45
571.60	45467.25
571.76	45783.22
571.92	45759.81
572.09	45986.85
572.25	45614.70
572.41	45696.62
572.57	45771.52
572.74	45944.72
572.90	45518.74
573.06	45560.87
573.22	46075.79
573.38	45963.44
573.55	45970.46
573.71	46057.06
573.87	45834.71
574.03	46078.13
574.20	46485.38
574.36	46061.74
574.52	46403.46
574.68	45860.46
574.84	46150.68
575.01	46319.20
575.17	45965.78
575.33	45823.01
575.49	46328.56
575.65	46026.63
575.82	46167.07
575.98	46141.32
576.14	46302.82
576.30	46082.81
576.46	46492.40
576.62	46094.51
576.79	46075.79
576.95	45577.25
577.11	45514.06
577.27	46162.39
577.43	46319.20
577.59	46333.24
577.75	46026.63
577.92	45813.65
578.08	46073.45
578.24	46351.97
578.40	46586.02
578.56	46225.58
578.72	46459.63
578.88	46394.10
579.04	45750.45
579.21	46150.68
579.37	46101.53
579.53	46674.96
579.69	45790.24
579.85	46024.29
580.01	46211.54
580.17	45947.06
580.33	46476.02
580.49	46487.72
580.65	46443.25
580.82	45996.21
580.98	46288.77
581.14	45738.75
581.30	46195.15
581.46	45776.20
581.62	46272.39
581.78	46103.87
581.94	46106.21
582.10	46167.07
582.26	46539.21
582.42	46663.26
582.58	46569.64
582.74	46497.08
582.90	46368.35
583.06	46181.11
583.22	46234.94
583.38	46328.56
583.54	46564.96
583.70	46277.07
583.86	46712.41
584.02	46216.22
584.18	46513.47
584.34	46494.74
584.50	46309.84
584.66	46616.45
584.82	46485.38
584.98	46894.97
585.14	46766.24
585.30	46279.41
585.46	46330.90
585.62	46036.00
585.78	46211.54
585.94	46113.23
586.10	46340.27
586.26	46155.36
586.42	46625.81
586.58	46466.66
586.74	46436.23
586.90	46066.42
587.06	45916.63
587.22	46384.74
587.38	46089.83
587.54	46691.35
587.70	46658.58
587.86	46454.95
588.02	46148.34
588.18	46337.93
588.34	46836.46
588.49	46831.78
588.65	46358.99
588.81	46602.41
588.97	46766.24
589.13	46567.30
589.29	46983.91
589.45	46644.54
589.61	46845.82
589.77	46555.60
589.93	46735.82
590.08	46621.13
590.24	46862.21
590.40	46920.72
590.56	47075.19
590.72	47339.68
590.88	46733.48
591.04	46370.69
591.20	46897.31
591.35	46965.19
591.51	47597.13
591.67	47255.42
591.83	47288.18
591.99	46894.97
592.15	46808.37
592.31	47157.11
592.46	46579.00
592.62	46951.15
592.78	46859.87
592.94	47049.45
593.10	47173.50
593.26	47414.57
593.41	46923.06
593.57	46784.97
593.73	46719.43
593.89	47302.23
594.05	47049.45
594.20	46838.80
594.36	47459.04
594.52	47274.14
594.68	47154.77
594.84	46944.12
594.99	47112.64
595.15	47304.57
595.31	47154.77
595.47	47283.50
595.62	47545.64
595.78	47096.26
595.94	47278.82
596.10	47105.62
596.25	47257.76
596.41	47243.71
596.57	46696.03
596.73	47433.30
596.88	46660.92
597.04	47372.44
597.20	47070.51
597.36	47124.35
597.51	47386.49
597.67	47023.70
597.83	47229.67
597.99	46948.81
598.14	46955.83
598.30	47332.65
598.46	47281.16
598.61	47437.98
598.77	47224.99
598.93	47789.06
599.09	47550.32
599.24	47547.98
599.40	47105.62
599.56	47276.48
599.71	47452.02
599.87	47838.21
600.03	47402.87
600.18	47079.88
600.34	47196.90
600.50	47325.63
600.65	47463.72
600.81	47461.38
600.97	47559.69
601.12	47400.53
601.28	47819.49
601.44	47674.37
601.59	47576.07
601.75	47021.36
601.91	47562.03
602.06	47456.70
602.22	47648.63
602.37	47405.21
602.53	47433.30
602.69	47498.83
602.84	47578.41
603.00	47002.64
603.16	47269.46
603.31	47285.84
603.47	47821.83
603.62	47145.41
603.78	47468.40
603.94	47201.58
604.09	47257.76
604.25	47342.02
604.40	46885.61
604.56	47255.42
604.71	47421.59
604.87	46869.23
605.03	46719.43
605.18	47468.40
605.34	47213.29
605.49	47255.42
605.65	47655.65
605.80	47161.79
605.96	47091.58
606.12	47236.69
606.27	47363.08
606.43	47260.10
606.58	47501.17
606.74	47131.37
606.89	47571.39
607.05	47583.09
607.20	47463.72
607.36	46923.06
607.51	46824.76
607.67	46679.64
607.82	47091.58
607.98	47173.50
608.13	47136.05
608.29	47269.46
608.44	47203.92
608.60	46967.53
608.75	47178.18
608.91	46546.23
609.06	46681.98
609.22	47037.75
609.37	47075.19
609.53	47206.26
609.68	47122.01
609.84	47143.07
609.99	46873.91
610.15	46965.19
610.30	46955.83
610.46	46712.41
610.61	46639.86
610.76	46815.40
610.92	46553.26
611.07	46955.83
611.23	46660.92
611.38	46623.47
611.54	47133.71
611.69	47517.56
611.84	46913.70
612.00	46586.02
612.15	46611.77
612.31	46986.25
612.46	46646.88
612.62	46873.91
612.77	46443.25
612.92	46876.25
613.08	46717.09
613.23	46710.07
613.39	46843.48
613.54	46653.90
613.69	46614.11
613.85	46576.66
614.00	46656.24
614.15	47077.54
614.31	46703.05
614.46	46307.50
614.62	46504.10
614.77	46574.32
614.92	46284.09
615.08	46621.13
615.23	46782.63
615.38	46880.93
615.54	46471.34
615.69	46937.10
615.84	46422.19
616.00	46829.44
616.15	46726.46
616.30	46515.81
616.46	46611.77
616.61	46689.01
616.76	46883.27
616.92	46218.56
617.07	46614.11
617.22	46417.50
617.37	46169.41
617.53	46576.66
617.68	46527.51
617.83	46155.36
617.99	46548.57
618.14	46616.45
618.29	46316.86
618.45	46026.63
618.60	46681.98
618.75	45982.16
618.90	46230.26
619.06	45811.31
619.21	45951.74
619.36	46188.13
619.51	45930.67
619.67	45415.76
619.82	45907.27
619.97	46344.95
620.12	45427.46
620.28	45911.95
620.43	46389.42
620.58	45858.12
620.73	46129.62
620.89	46511.13
621.04	46073.45
621.19	46195.15
621.34	46003.23
621.49	46028.98
621.65	45954.08
621.80	45848.75
621.95	45694.28
622.10	46026.63
622.25	45254.26
622.41	45675.55
622.56	45485.97
622.71	45736.41
622.86	45949.40
623.01	45481.29
623.16	45766.84
623.32	45818.33
623.47	45478.95
623.62	45649.81
623.77	45813.65
623.92	45507.04
624.07	45666.19
624.23	45322.13
624.38	45553.85
624.53	45256.60
624.68	45322.13
624.83	45226.17
624.98	45612.36
625.13	45242.56
625.29	45289.37
625.44	45567.89
625.59	45375.97
625.74	45773.86
625.89	44914.88
626.04	45390.01
626.19	44928.92
626.34	44940.63
626.49	44861.05
626.65	44563.80
626.80	44921.90
626.95	44715.93
627.10	44624.65
627.25	44729.98
627.40	44854.03
627.55	44919.56
627.70	44760.40
627.85	44978.07
628.00	44713.59
628.15	44882.11
628.30	44491.24
628.45	44495.92
628.60	44212.72
628.76	44364.85
628.91	44685.51
629.06	44186.97
629.21	44605.93
629.36	44594.23
629.51	44081.65
629.66	45034.25
629.81	44535.71
629.96	44659.76
630.11	44446.77
630.26	44189.31
630.41	44360.17
630.56	44339.11
630.71	44725.30
630.86	44376.56
631.01	44552.10
631.16	44371.88
631.31	44144.84
631.46	44261.87
631.61	44397.62
631.76	44151.87
631.91	43941.22
632.06	44872.75
632.21	44245.49
632.36	44914.88
632.51	44023.14
632.66	44367.20
632.81	44105.06
632.96	44037.18
633.10	44006.75
633.25	44584.86
633.40	44238.47
633.55	44559.12
633.70	44065.27
633.85	43803.13
634.00	43461.41
634.15	43419.28
634.30	43863.98
634.45	43711.84
634.60	43945.90
634.75	43999.73
634.90	43833.55
635.05	44154.21
635.19	43814.83
635.34	43885.04
635.49	43215.65
635.64	44081.65
635.79	44013.77
635.94	43580.78
636.09	43821.85
636.24	43735.25
636.39	43913.13
636.53	43220.33
636.68	43346.72
636.83	43030.75
636.98	43199.27
637.13	42621.16
637.28	42876.27
637.43	43072.88
637.57	43290.55
637.72	43019.05
637.87	42799.04
638.02	43189.91
638.17	43058.84
638.32	42724.14
638.46	42784.99
638.61	42880.95
638.76	43079.90
638.91	42857.55
639.06	42548.60
639.20	42679.67
639.35	42670.31
639.50	42899.68
639.65	42485.40
639.80	42986.28
639.94	43592.48
640.09	43395.87
640.24	43217.99
640.39	42513.49
640.54	42401.14
640.68	43510.56
640.83	43246.08
640.98	42892.66
641.13	42658.60
641.27	42799.04
641.42	43196.93
641.57	42483.06
641.72	42806.06
641.86	42401.14
642.01	42895.00
642.16	42139.00
642.31	42389.44
642.45	42539.24
642.60	42351.99
642.75	42155.39
642.90	42457.32
643.04	42424.55
643.19	42485.40
643.34	42038.36
643.48	42153.05
643.63	42073.47
643.78	42057.09
643.93	42433.91
644.07	42665.63
644.22	42232.63
644.37	42033.68
644.51	42454.98
644.66	42216.24
644.81	42204.54
644.95	42141.35
645.10	41991.55
645.25	41979.85
645.39	41771.54
645.54	41823.03
645.69	41757.50
645.83	41523.44
645.98	41532.81
646.13	41724.73
646.27	41832.39
646.42	41764.52
646.57	41759.84
646.71	41991.55
646.86	41865.16
647.00	41846.44
647.15	41865.16
647.30	41668.56
647.44	41785.58
647.59	41839.42
647.74	41528.13
647.88	41930.70
648.03	41986.87
648.17	41888.57
648.32	41937.72
648.47	41792.61
648.61	41832.39
648.76	41249.60
648.90	41113.85
649.05	41453.23
649.20	41364.29
649.34	41654.51
649.49	41478.97
649.63	41474.29
649.78	41504.72
649.92	41460.25
650.07	41539.83
650.21	41518.76
650.36	41289.39
650.51	41191.09
650.65	41694.30
650.80	41827.71
650.94	41289.39
651.09	41043.63
651.23	41106.83
651.38	41155.98
651.52	40568.51
651.67	40842.35
651.81	41102.15
651.96	40917.25
652.10	40811.92
652.25	40687.87
652.39	41015.55
652.54	40737.02
652.68	40891.50
652.83	40718.30
652.97	40657.45
653.12	40985.12
653.26	40861.07
653.41	40484.25
653.55	40594.25
653.70	40781.49
653.84	41024.91
653.99	40526.38
654.13	40573.19
654.27	40634.04
654.42	40484.25
654.56	40285.30
654.71	40842.35
654.85	40631.70
655.00	40514.67
655.14	40863.41
655.29	40847.03
655.43	40769.79
655.57	40311.05
655.72	39969.33
655.86	40678.51
656.01	40093.38
656.15	40257.21
656.30	40011.46
656.44	39864.00
656.58	40601.27
656.73	40245.51
656.87	39697.83
657.01	40044.23
657.16	40334.45
657.30	40311.05
657.45	40081.67
657.59	40011.46
657.73	39908.47
657.88	40212.74
658.02	39840.60
658.16	40226.79
658.31	40252.53
658.45	39611.23
658.60	39346.75
658.74	39578.46
658.88	39608.89
659.03	39871.03
659.17	39171.21
659.31	39372.49
659.46	39196.95
659.60	39693.15
659.74	39426.32
659.89	39009.71
660.03	38607.14
660.17	39145.46
660.32	38948.85
660.46	38976.94
660.60	38864.60
660.74	38983.96
660.89	38960.56
661.03	38684.37
661.17	38600.12
661.32	38653.95
661.46	38698.42
661.60	38342.66
661.74	38857.57
661.89	38522.88
662.03	38565.01
662.17	38223.29
662.31	38312.23
662.46	38705.44
662.60	38169.46
662.74	38099.24
662.88	38342.66
663.03	38096.90
663.17	37935.40
663.31	38024.34
663.45	38284.14
663.60	38637.56
663.74	38085.20
663.88	37916.68
664.02	37544.53
664.17	38206.90
664.31	38050.09
664.45	37471.98
664.59	38050.09
664.73	37855.82
664.88	37715.39
665.02	37280.05
665.16	37687.31
665.30	37275.37
665.44	37343.25
665.59	36989.83
665.73	37331.54
665.87	36788.54
666.01	37640.50
666.15	37116.22
666.29	36790.88
666.44	37102.17
666.58	36849.39
666.72	36556.83
666.86	36900.89
667.00	36598.96
667.14	36746.41
667.28	36842.37
667.43	36388.31
667.57	36861.10
667.71	36598.96
667.85	37069.40
667.99	36151.91
668.13	36264.26
668.27	36517.04
668.41	36552.15
668.56	35798.49
668.70	36273.62
668.84	35667.42
668.98	35812.54
669.12	35831.26
669.26	35927.22
669.40	35732.96
669.54	35344.43
669.68	36180.00
669.82	35831.26
669.96	35325.71
670.10	35035.48
670.25	35459.12
670.39	35070.59
670.53	35534.01
670.67	35580.82
670.81	35395.92
670.95	35332.73
671.09	35171.23
671.23	35229.74
671.37	35239.11
671.51	34600.14
671.65	34691.42
671.79	34614.18
671.93	34897.39
672.07	34775.68
672.21	34881.00
672.35	34515.88
672.49	34375.45
672.63	34279.49
672.77	34192.89
672.91	34267.78
673.05	34220.97
673.19	33647.54
673.33	33820.74
673.47	33991.60
673.61	33542.22
673.75	33532.86
673.89	33799.68
674.03	33324.55
674.17	32975.81
674.31	33266.03
674.45	33273.06
674.59	33127.94
674.73	33460.30
674.87	32697.28
675.01	32769.84
675.15	32311.10
675.29	32552.17
675.43	32514.72
675.56	32615.37
675.70	32580.26
675.84	32367.27
675.98	31384.24
676.12	32519.40
676.26	32610.68
676.40	32275.99
676.54	31735.32
676.68	31763.41
676.82	31370.20
676.96	32013.85
677.10	31913.20
677.23	31218.07
677.37	31770.43
677.51	31459.14
677.65	31370.20
677.79	31388.92
677.93	31185.30
678.07	31318.71
678.21	30719.53
678.34	30735.92
678.48	30644.63
678.62	30771.02
678.76	30391.86
678.90	30719.53
679.04	30469.09
679.18	30700.81
679.31	30101.63
679.45	30148.44
679.59	29935.45
679.73	30061.84
679.87	29879.28
680.00	29907.37
680.14	29586.71
680.28	29916.73
680.42	29692.04
680.56	29654.59
680.70	29214.57
680.83	29062.43
680.97	28954.77
681.11	29069.45
681.25	28737.10
681.39	28561.56
681.52	28849.44
681.66	28430.49
681.80	28156.64
681.94	28004.51
682.07	28037.28
682.21	28123.88
682.35	28114.52
682.49	27941.32
682.62	28051.32
682.76	27641.73
682.90	27880.46
683.04	27850.03
683.17	28086.43
683.31	27615.98
683.45	27168.94
683.59	26824.88
683.72	27044.89
683.86	27098.72
684.00	26761.69
684.13	27171.28
684.27	26525.29
684.41	26473.80
684.55	26937.23
684.68	26665.72
684.82	26047.82
684.96	26408.26
685.09	26050.16
685.23	26616.57
685.37	26326.35
685.50	26501.89
685.64	26174.21
685.78	25830.15
685.91	25673.34
686.05	25378.43
686.19	24947.77
686.32	25479.07
686.46	24727.76
686.60	24851.81
686.73	25301.19
686.87	25142.03
687.01	25289.49
687.14	25465.03
687.28	24842.45
687.42	24772.23
687.55	24470.30
687.69	24596.69
687.82	24292.42
687.96	24353.27
688.10	24364.98
688.23	24011.56
688.37	24168.37
688.50	24379.02
688.64	24051.34
688.78	23927.30
688.91	23630.05
689.05	23686.22
689.18	23456.85
689.32	22970.02
689.46	23412.38
689.59	23211.09
689.73	23524.72
689.86	23330.46
690.00	23356.21
690.13	22991.08
690.27	22403.61
690.41	22925.55
690.54	22527.66
690.68	22637.66
690.81	22558.08
690.95	22359.14
691.08	22565.10
691.22	22216.36
691.35	21757.62
691.49	22160.19
691.62	22202.32
691.76	21869.97
691.89	21696.77
692.03	21392.50
692.16	21156.10
692.30	21488.46
692.43	21032.05
692.57	21008.65
692.70	20776.94
692.84	20877.58
692.97	20669.27
693.11	20580.33
693.24	20615.44
693.38	20655.23
693.51	20388.41
693.65	20444.58
693.78	20470.33
693.92	20098.18
694.05	20177.76
694.19	20091.16
694.32	20049.03
694.45	20528.84
694.59	20233.93
694.72	20011.58
694.86	19882.85
694.99	19819.66
695.13	19449.85
695.26	19346.87
695.39	19051.96
695.53	19154.94
695.66	19491.98
695.80	19204.10
695.93	19374.95
696.07	18883.44
696.20	18747.69
696.33	18391.93
696.47	18684.50
696.60	18672.79
696.73	18595.56
696.87	18523.00
697.00	18408.31
697.14	18363.84
697.27	18064.25
697.40	18139.15
697.54	17905.10
697.67	18075.96
697.80	18068.94
697.94	18087.66
698.07	17678.07
698.21	17432.31
698.34	17687.43
698.47	17481.46
698.61	17184.21
698.74	17081.23
698.87	16931.44
699.01	16776.96
699.14	16987.61
699.27	16669.30
699.40	16615.46
699.54	16655.25
699.67	16840.15
699.80	16723.13
699.94	16489.07
700.07	16631.85
700.20	16568.65
700.34	16343.96
700.47	16379.07
700.60	16505.46
700.73	15943.73
700.87	15917.98
701.00	15726.06
701.13	15747.12
701.26	15885.22
701.40	15833.72
701.53	15452.22
701.66	15878.19
701.79	15435.83
701.93	15356.25
702.06	15147.95
702.19	15222.84
702.32	15400.72
702.46	15412.43
702.59	15150.29
702.72	15295.40
702.85	15473.28
702.99	14902.19
703.12	14841.34
703.25	14813.25
703.38	14728.99
703.51	14803.89
703.65	14494.94
703.78	14340.46
703.91	14221.10
704.04	14174.28
704.17	14164.92
704.31	13909.80
704.44	14087.68
704.57	14061.94
704.70	13951.93
704.83	13874.70
704.96	13605.53
705.10	13694.47
705.23	13528.30
>>>>>End Processed Spectral Data<<<<<
