SpectraSuite Data File
++++++++++++++++++++++++++++++++++++
Date: Fri Oct 25 10:47:31 EDT 2013
User: price-jones
Dark Spectrum Present: No
Reference Spectrum Present: No
Number of Sampled Component Spectra: 1
Spectrometers: USB2+H05261
Integration Time (usec): 100000 (USB2+H05261)
Spectra Averaged: 1 (USB2+H05261)
Boxcar Smoothing: 0 (USB2+H05261)
Correct for Electrical Dark: No (USB2+H05261)
Strobe/Lamp Enabled: No (USB2+H05261)
Correct for Detector Non-linearity: No (USB2+H05261)
Correct for Stray Light: No (USB2+H05261)
Number of Pixels in Processed Spectrum: 2048
>>>>>Begin Processed Spectral Data<<<<<
365.73	156.82
365.92	156.82
366.12	156.82
366.32	84.26
366.52	131.07
366.72	79.58
366.91	37.45
367.11	56.17
367.31	51.49
367.51	49.15
367.70	77.24
367.90	0.00
368.10	21.06
368.30	0.00
368.49	117.03
368.69	0.00
368.89	67.88
369.09	77.24
369.28	88.94
369.48	149.79
369.68	84.26
369.87	135.75
370.07	86.60
370.27	126.39
370.47	212.99
370.66	348.74
370.86	411.93
371.06	470.45
371.25	414.27
371.45	454.06
371.65	393.21
371.84	381.51
372.04	418.96
372.24	433.00
372.44	449.38
372.63	479.81
372.83	367.46
373.03	470.45
373.22	449.38
373.42	538.32
373.62	451.72
373.81	538.32
374.01	510.24
374.21	617.90
374.40	531.30
374.60	592.16
374.79	500.87
374.99	514.92
375.19	554.71
375.38	669.39
375.58	521.94
375.78	568.75
375.97	531.30
376.17	589.82
376.37	510.24
376.56	585.13
376.76	561.73
376.95	564.07
377.15	592.16
377.35	636.63
377.54	585.13
377.74	592.16
377.93	589.82
378.13	566.41
378.33	653.01
378.52	692.80
378.72	514.92
378.91	706.84
379.11	631.94
379.31	645.99
379.50	634.29
379.70	697.48
379.89	713.86
380.09	624.92
380.28	589.82
380.48	667.05
380.68	662.37
380.87	653.01
381.07	634.29
381.26	678.76
381.46	615.56
381.65	643.65
381.85	660.03
382.04	599.18
382.24	725.57
382.43	662.37
382.63	671.73
382.83	683.44
383.02	674.07
383.22	744.29
383.41	755.99
383.61	814.51
383.80	711.52
384.00	734.93
384.19	793.44
384.39	690.46
384.58	620.24
384.78	683.44
384.97	760.67
385.17	781.74
385.36	676.41
385.56	660.03
385.75	779.40
385.95	713.86
386.14	763.01
386.34	739.61
386.53	748.97
386.72	746.63
386.92	849.61
387.11	786.42
387.31	753.65
387.50	748.97
387.70	851.96
387.89	791.10
388.09	723.23
388.28	847.27
388.48	866.00
388.67	798.12
388.86	877.70
389.06	870.68
389.25	842.59
389.45	882.38
389.64	854.30
389.84	1071.97
390.03	880.04
390.22	922.17
390.42	863.66
390.61	910.47
390.81	889.40
391.00	945.58
391.19	957.28
391.39	887.06
391.58	863.66
391.78	938.55
391.97	919.83
392.16	880.04
392.36	1032.18
392.55	945.58
392.75	929.19
392.94	966.64
393.13	950.26
393.33	887.06
393.52	976.00
393.71	1048.56
393.91	1004.09
394.10	1020.47
394.29	1020.47
394.49	1046.22
394.68	1107.07
394.88	1107.07
395.07	1128.14
395.26	1210.06
395.46	1132.82
395.65	1107.07
395.84	1004.09
396.04	1116.44
396.23	1011.11
396.42	1146.86
396.62	1165.59
396.81	1118.78
397.00	1118.78
397.19	1128.14
397.39	1240.48
397.58	1228.78
397.77	1118.78
397.97	1261.55
398.16	1254.53
398.35	1315.38
398.55	1273.25
398.74	1259.21
398.93	1291.98
399.12	1320.06
399.32	1256.87
399.51	1352.83
399.70	1357.51
399.90	1291.98
400.09	1341.13
400.28	1425.39
400.47	1497.94
400.67	1427.73
400.86	1427.73
401.05	1397.30
401.24	1324.74
401.44	1519.01
401.63	1565.82
401.82	1537.73
402.01	1362.19
402.21	1528.37
402.40	1483.90
402.59	1481.56
402.78	1507.30
402.97	1563.48
403.17	1582.20
403.36	1556.46
403.55	1605.61
403.74	1703.91
403.93	1493.26
404.13	1584.54
404.32	1582.20
404.51	1610.29
404.70	1619.65
404.89	1701.57
405.09	1598.59
405.28	1586.88
405.47	1645.40
405.66	1734.34
405.85	1792.85
406.05	1696.89
406.24	1769.44
406.43	1736.68
406.62	1790.51
406.81	1879.45
407.00	1781.15
407.20	1741.36
407.39	1767.10
407.58	1851.36
407.77	1944.99
407.96	1837.32
408.15	1963.71
408.34	1916.90
408.54	1940.30
408.73	1877.11
408.92	1984.77
409.11	1926.26
409.30	2050.31
409.49	1902.86
409.68	2108.82
409.87	2024.56
410.07	2113.50
410.26	2083.08
410.45	2040.95
410.64	2083.08
410.83	2218.83
411.02	2047.97
411.21	2155.63
411.40	2146.27
411.59	2195.42
411.78	2141.59
411.98	2127.55
412.17	2211.81
412.36	2293.72
412.55	2310.11
412.74	2476.29
412.93	2403.73
413.12	2368.62
413.31	2560.55
413.50	2445.86
413.69	2413.09
413.88	2513.74
414.07	2532.46
414.26	2534.80
414.45	2633.10
414.64	2572.25
414.83	2633.10
415.02	2654.17
415.22	2710.34
415.41	2619.06
415.60	2600.34
415.79	2693.96
415.98	2761.83
416.17	2827.37
416.36	2846.09
416.55	2850.77
416.74	2818.00
416.93	2834.39
417.12	2869.50
417.31	2883.54
417.50	2815.66
417.69	3141.00
417.88	2993.55
418.07	2988.86
418.26	3063.76
418.45	3098.87
418.64	3112.91
418.83	3136.32
419.02	2963.12
419.21	3056.74
419.39	3054.40
419.58	3115.25
419.77	3094.19
419.96	3098.87
420.15	3178.45
420.34	3187.81
420.53	3222.92
420.72	3253.34
420.91	3342.28
421.10	3311.86
421.29	3272.07
421.48	3124.62
421.67	3316.54
421.86	3311.86
422.05	3370.37
422.24	3410.16
422.43	3396.12
422.61	3323.56
422.80	3496.76
422.99	3351.65
423.18	3363.35
423.37	3463.99
423.56	3440.59
423.75	3492.08
423.94	3442.93
424.13	3265.05
424.32	3274.41
424.50	3445.27
424.69	3424.20
424.88	3588.04
425.07	3410.16
425.26	3400.80
425.45	3461.65
425.64	3463.99
425.83	3503.78
426.01	3365.69
426.20	3485.06
426.39	3545.91
426.58	3513.14
426.77	3433.57
426.96	3609.11
427.15	3492.08
427.33	3506.12
427.52	3590.38
427.71	3576.34
427.90	3571.66
428.09	3588.04
428.28	3611.45
428.46	3749.54
428.65	3693.37
428.84	3812.73
429.03	3805.71
429.22	3779.97
429.40	3728.47
429.59	3611.45
429.78	3571.66
429.97	3583.36
430.16	3817.41
430.34	3784.65
430.53	3716.77
430.72	3747.20
430.91	3803.37
431.10	3686.34
431.28	3974.23
431.47	3967.21
431.66	4088.92
431.85	3927.42
432.03	4128.70
432.22	4100.62
432.41	4081.89
432.60	4105.30
432.79	3974.23
432.97	4063.17
433.16	4182.54
433.35	4109.98
433.54	4133.39
433.72	4149.77
433.91	4074.87
434.10	4372.12
434.28	4241.05
434.47	4161.47
434.66	4339.35
434.85	4332.33
435.03	4381.48
435.22	4395.53
435.41	4512.55
435.59	4454.04
435.78	4451.70
435.97	4411.91
436.16	4332.33
436.34	4430.63
436.53	4386.16
436.72	4695.11
436.90	4456.38
437.09	4442.34
437.28	4482.13
437.46	4482.13
437.65	4482.13
437.84	4664.69
438.02	4660.01
438.21	4568.73
438.40	4683.41
438.58	4748.95
438.77	4753.63
438.96	4751.29
439.14	4835.55
439.33	4903.42
439.52	4926.83
439.70	4809.80
439.89	5067.26
440.08	4926.83
440.26	5015.77
440.45	5118.75
440.63	5132.79
440.82	5142.16
441.01	5217.05
441.19	5350.46
441.38	5420.68
441.57	5177.26
441.75	5486.22
441.94	5476.85
442.12	5305.99
442.31	5420.68
442.50	5472.17
442.68	5518.98
442.87	5497.92
443.05	5458.13
443.24	5680.48
443.43	5455.79
443.61	5605.58
443.80	5734.31
443.98	5561.11
444.17	5526.00
444.35	5572.82
444.54	5696.86
444.73	5605.58
444.91	5563.45
445.10	5706.23
445.28	5652.39
445.47	5551.75
445.65	5710.91
445.84	5760.06
446.02	5909.85
446.21	5788.14
446.39	5666.44
446.58	5781.12
446.77	5661.76
446.95	5654.73
447.14	5795.17
447.32	5715.59
447.51	5863.04
447.69	5774.10
447.88	5891.13
448.06	5973.05
448.25	5870.06
448.43	5825.59
448.62	5856.02
448.80	5879.43
448.99	5933.26
449.17	6001.13
449.36	5858.36
449.54	6080.71
449.73	6108.80
449.91	6258.59
450.10	6083.05
450.28	6342.85
450.46	6141.57
450.65	6038.58
450.83	6256.25
451.02	6246.89
451.20	6377.96
451.39	6265.61
451.57	6253.91
451.76	6183.70
451.94	6282.00
452.13	6352.21
452.31	6286.68
452.49	6200.08
452.68	6289.02
452.86	6389.66
453.05	6335.83
453.23	6361.58
453.42	6387.32
453.60	6424.77
453.78	6335.83
453.97	6413.07
454.15	6530.09
454.34	6373.28
454.52	6604.99
454.70	6429.45
454.89	6633.08
455.07	6715.00
455.26	6682.23
455.44	6502.01
455.62	6626.06
455.81	6761.81
455.99	6707.98
456.17	7035.65
456.36	6677.55
456.54	6913.94
456.73	6986.50
456.91	7002.88
457.09	7180.76
457.28	7260.34
457.46	7110.55
457.64	7143.32
457.83	7082.46
458.01	7005.22
458.19	7082.46
458.38	7124.59
458.56	7421.84
458.74	7157.36
458.93	7169.06
459.11	7260.34
459.29	7290.77
459.48	7337.58
459.66	7129.27
459.84	7368.01
460.03	7279.07
460.21	7379.71
460.39	7274.38
460.57	7403.11
460.76	7335.24
460.94	7517.80
461.12	7550.57
461.31	7751.85
461.49	7524.82
461.67	7740.15
461.85	7726.11
462.04	7499.08
462.22	8290.18
462.40	7733.13
462.59	7803.35
462.77	7742.49
462.95	7735.47
463.13	7824.41
463.32	7733.13
463.50	7925.05
463.68	7974.21
463.86	8077.19
464.05	7810.37
464.23	7864.20
464.41	8095.91
464.59	7875.90
464.78	8093.57
464.96	8049.10
465.14	7946.12
465.32	7990.59
465.50	8292.52
465.69	8336.99
465.87	8243.37
466.05	8072.51
466.23	8105.28
466.41	8290.18
466.60	8461.04
466.78	8257.41
466.96	8191.88
467.14	8131.02
467.32	8418.91
467.51	8362.73
467.69	8219.96
467.87	8280.82
468.05	8449.33
468.23	8273.79
468.41	8224.64
468.60	8334.65
468.78	8435.29
468.96	8449.33
469.14	8444.65
469.32	8812.12
469.50	8351.03
469.69	8755.94
469.87	8896.38
470.05	8568.70
470.23	8807.44
470.41	8702.11
470.59	9008.72
470.77	8762.97
470.95	9025.11
471.14	9041.49
471.32	8697.43
471.50	8992.34
471.68	9144.47
471.86	9081.28
472.04	9142.13
472.22	9348.10
472.40	9188.94
472.58	9184.26
472.77	9544.70
472.95	9430.02
473.13	9626.62
473.31	9343.42
473.49	9338.74
473.67	9565.77
473.85	9511.94
474.03	9788.12
474.21	9565.77
474.39	9703.86
474.57	9916.85
474.75	9984.73
474.93	9909.83
475.12	9977.70
475.30	10008.13
475.48	9863.02
475.66	10040.90
475.84	10083.03
476.02	10064.30
476.20	10188.35
476.38	10174.31
476.56	10427.09
476.74	10523.05
476.92	10504.32
477.10	10602.63
477.28	10682.20
477.46	10803.91
477.64	10785.19
477.82	11154.99
478.00	11229.89
478.18	11215.85
478.36	11222.87
478.54	11117.54
478.72	11309.47
478.90	11543.52
479.08	11463.94
479.26	11468.62
479.44	11854.81
479.62	11747.15
479.80	11545.86
479.98	11864.18
480.16	12135.68
480.34	11978.86
480.52	12081.85
480.70	12229.30
480.88	12205.89
481.06	12201.21
481.24	12421.22
481.41	12449.31
481.59	12699.75
481.77	12664.64
481.95	12781.67
482.13	12943.16
482.31	12975.93
482.49	13425.31
482.67	13050.83
482.85	13233.39
483.03	13369.14
483.21	13701.50
483.39	13832.57
483.57	13549.36
483.74	13888.74
483.92	14068.96
484.10	13994.06
484.28	14267.91
484.46	14298.33
484.64	14572.18
484.82	14368.55
485.00	14256.20
485.18	14721.97
485.35	14857.72
485.53	14801.55
485.71	14799.21
485.89	15145.61
486.07	15063.69
486.25	15344.55
486.43	15197.10
486.61	15157.31
486.78	15852.45
486.96	15639.46
487.14	16018.63
487.32	15648.82
487.50	16109.91
487.68	16442.26
487.85	16533.54
488.03	16573.33
488.21	16697.38
488.39	16561.63
488.57	16753.55
488.75	17179.53
488.92	17153.79
489.10	17209.96
489.28	17322.30
489.46	17635.94
489.64	17418.27
489.81	17987.02
489.99	18057.23
490.17	18001.06
490.35	18586.19
490.53	18490.23
490.70	18548.75
490.88	18520.66
491.06	18726.63
491.24	18656.41
491.41	18661.09
491.59	18834.29
491.77	18845.99
491.95	19051.96
492.13	19147.92
492.30	19180.69
492.48	19470.92
492.66	19639.44
492.84	19733.06
493.01	19903.92
493.19	19630.07
493.37	20233.93
493.54	20067.75
493.72	20240.95
493.90	20451.60
494.08	20390.75
494.25	20594.37
494.43	20868.22
494.61	21006.31
494.79	21050.78
494.96	21067.16
495.14	21188.87
495.32	21245.04
495.49	21277.81
495.67	21408.88
495.85	21565.70
496.02	21671.02
496.20	21795.07
496.38	21656.98
496.55	22008.06
496.73	22590.85
496.91	22104.02
497.09	22438.72
497.26	22742.99
497.44	22593.19
497.62	22595.53
497.79	23012.15
497.97	22977.04
498.14	23129.17
498.32	23190.03
498.50	23063.64
498.67	23264.92
498.85	23381.95
499.03	23648.77
499.20	23599.62
499.38	23969.43
499.56	24140.29
499.73	23859.42
499.91	24037.30
500.08	24067.73
500.26	24547.54
500.44	24173.05
500.61	24217.52
500.79	24224.54
500.97	24329.87
501.14	24732.44
501.32	24685.63
501.49	24774.57
501.67	24751.17
501.84	25127.99
502.02	24992.24
502.20	24868.19
502.37	25242.68
502.55	25202.89
502.72	25132.67
502.90	25394.81
503.07	25415.88
503.25	25530.56
503.43	25570.35
503.60	25685.04
503.78	25710.78
503.95	25886.32
504.13	25785.68
504.30	26106.34
504.48	26068.89
504.65	26260.81
504.83	26359.11
505.01	26464.44
505.18	26389.54
505.36	26731.26
505.53	26616.57
505.71	27164.26
505.88	27047.23
506.06	26511.25
506.23	26909.14
506.41	26691.47
506.58	27110.43
506.76	27363.20
506.93	27206.39
507.11	27395.97
507.28	27433.42
507.46	27119.79
507.63	27562.15
507.81	27412.35
507.98	27592.58
508.16	27608.96
508.33	28091.11
508.50	27910.89
508.68	27723.65
508.85	28205.80
509.03	27971.74
509.20	28163.67
509.38	28631.77
509.55	28678.58
509.73	28858.81
509.90	28603.69
510.08	28842.42
510.25	28587.30
510.42	28856.46
510.60	29057.75
510.77	29322.23
510.95	29123.29
511.12	29067.11
511.30	29006.26
511.47	29111.58
511.64	29509.47
511.82	29869.92
511.99	29113.92
512.17	29488.41
512.34	29277.76
512.51	29378.40
512.69	30038.44
512.86	30228.02
513.04	30204.61
513.21	30036.09
513.38	30246.74
513.56	29839.49
513.73	30115.67
513.90	30462.07
514.08	29956.52
514.25	30368.45
514.43	30352.07
514.60	30441.01
514.77	30944.22
514.95	30747.62
515.12	30590.80
515.29	31164.23
515.47	31466.16
515.64	31248.49
515.81	31227.43
515.99	31152.53
516.16	31496.59
516.33	31105.72
516.51	31400.63
516.68	31091.68
516.85	31234.45
517.03	31063.59
517.20	31456.80
517.37	31608.93
517.54	31875.76
517.72	31704.90
517.89	31641.70
518.06	31641.70
518.24	31564.46
518.41	31854.69
518.58	31910.86
518.75	31613.62
518.93	32442.17
519.10	32470.25
519.27	32016.19
519.45	32163.64
519.62	32369.61
519.79	32704.31
519.96	32428.12
520.14	32863.46
520.31	32776.86
520.48	32779.20
520.65	32552.17
520.83	33184.12
521.00	33233.27
521.17	32816.65
521.34	33467.32
521.52	33404.13
521.69	33254.33
521.86	33347.95
522.03	33743.50
522.20	33469.66
522.38	33724.78
522.55	33453.28
522.72	33528.17
522.89	33926.07
523.07	33612.43
523.24	33652.22
523.41	33897.98
523.58	33706.05
523.75	34183.52
523.92	34312.25
524.10	34384.81
524.27	34129.69
524.44	34621.20
524.61	34361.40
524.78	34373.11
524.96	34658.65
525.13	34953.56
525.30	34803.77
525.47	34838.87
525.64	34951.22
525.81	34948.88
525.98	35260.17
526.16	34352.04
526.33	35126.76
526.50	35386.56
526.67	35166.55
526.84	34969.94
527.01	34869.30
527.18	35227.40
527.36	35393.58
527.53	35718.92
527.70	35887.43
527.87	35810.20
528.04	35103.35
528.21	35772.75
528.38	35196.98
528.55	35945.95
528.72	35915.52
528.89	35866.37
529.07	35864.03
529.24	36161.28
529.41	35941.27
529.58	35880.41
529.75	35737.64
529.92	36070.00
530.09	36119.15
530.26	36315.75
530.43	36285.33
530.60	36208.09
530.77	36336.82
530.94	37127.92
531.11	36666.83
531.28	36758.11
531.46	36732.37
531.63	36601.30
531.80	36910.25
531.97	36591.94
532.14	36765.14
532.31	36774.50
532.48	36854.08
532.65	36971.10
532.82	37390.06
532.99	37397.08
533.16	36919.61
533.33	37216.86
533.50	37151.32
533.67	37626.45
533.84	36975.78
534.01	37415.80
534.18	37544.53
534.35	37158.34
534.52	37338.57
534.69	37273.03
534.86	37504.74
535.03	37560.92
535.20	37958.81
535.37	38085.20
535.54	37741.14
535.71	37673.26
535.88	37904.98
536.05	37897.95
536.22	37874.55
536.38	38239.67
536.55	37699.01
536.72	38038.39
536.89	37539.85
537.06	37706.03
537.23	38127.33
537.40	38115.62
537.57	38459.68
537.74	38391.81
537.91	38529.90
538.08	38438.62
538.25	37883.91
538.42	38384.79
538.59	38852.89
538.75	38089.88
538.92	38508.83
539.09	38576.71
539.26	38464.36
539.43	38532.24
539.60	39115.03
539.77	38457.34
539.94	39077.58
540.11	38857.57
540.28	38546.28
540.44	38593.09
540.61	39009.71
540.78	38733.53
540.95	38618.84
541.12	38841.19
541.29	39271.85
541.46	39199.29
541.62	39103.33
541.79	39440.37
541.96	38789.70
542.13	39379.51
542.30	39449.73
542.47	39419.30
542.63	39625.27
542.80	39447.39
542.97	39828.90
543.14	40601.27
543.31	39962.31
543.48	40062.95
543.64	40399.99
543.81	39861.66
543.98	40477.22
544.15	39646.33
544.32	40343.81
544.48	40435.10
544.65	40376.58
544.82	40615.32
544.99	40341.47
545.16	40254.87
545.32	40102.74
545.49	40622.34
545.66	40694.89
545.83	40336.79
546.00	40669.15
546.16	40636.38
546.33	40346.15
546.50	40418.71
546.67	40624.68
546.83	40154.23
547.00	40570.85
547.17	40378.92
547.34	40872.78
547.50	41001.50
547.67	40928.95
547.84	41139.60
548.00	41364.29
548.17	40856.39
548.34	40708.94
548.51	41092.79
548.67	41179.39
548.84	41205.13
549.01	41249.60
549.18	40809.58
549.34	41214.49
549.51	41284.71
549.68	41663.88
549.84	40809.58
550.01	41631.11
550.18	40884.48
550.34	41104.49
550.51	41404.08
550.68	41478.97
550.84	41432.16
551.01	41605.36
551.18	41254.28
551.34	41291.73
551.51	41661.54
551.68	41654.51
551.84	42335.61
552.01	41432.16
552.18	41963.46
552.34	40964.06
552.51	41799.63
552.68	41769.20
552.84	41914.31
553.01	42272.42
553.18	41799.63
553.34	41649.83
553.51	41659.20
553.67	42094.53
553.84	42106.24
554.01	42249.01
554.17	42546.26
554.34	42136.66
554.51	42167.09
554.67	42485.40
554.84	42288.80
555.00	42162.41
555.17	42096.88
555.33	42618.81
555.50	42101.56
555.67	42611.79
555.83	42541.58
556.00	42239.65
556.16	42740.52
556.33	42742.86
556.50	42527.53
556.66	42728.82
556.83	42349.65
556.99	42904.36
557.16	42665.63
557.32	42583.71
557.49	42618.81
557.65	42330.93
557.82	42698.39
557.98	42644.56
558.15	42572.00
558.32	43131.39
558.48	42454.98
558.65	42520.51
558.81	42890.32
558.98	43091.60
559.14	42918.40
559.31	42670.31
559.47	43133.73
559.64	43037.77
559.80	42934.79
559.97	42932.45
560.13	42911.38
560.30	42979.26
560.46	43145.44
560.63	42377.74
560.79	42981.60
560.96	43033.09
561.12	43152.46
561.29	43107.99
561.45	43157.14
561.61	43442.68
561.78	43302.25
561.94	43335.02
562.11	43187.56
562.27	42974.58
562.44	43351.40
562.60	43096.28
562.77	43285.87
562.93	43044.79
563.10	43475.45
563.26	43339.70
563.42	43351.40
563.59	43339.70
563.75	42808.40
563.92	43810.15
564.08	43761.00
564.24	43796.10
564.41	43482.47
564.57	43311.61
564.74	43377.15
564.90	43711.84
565.07	43217.99
565.23	43395.87
565.39	43559.71
565.56	43475.45
565.72	43627.59
565.88	43557.37
566.05	43550.35
566.21	43150.12
566.38	43145.44
566.54	43496.52
566.70	43498.86
566.87	44156.55
567.03	43501.20
567.19	44215.06
567.36	43973.98
567.52	43618.22
567.68	44093.35
567.85	43950.58
568.01	43901.43
568.17	43456.73
568.34	43749.29
568.50	43746.95
568.66	43697.80
568.83	43856.96
568.99	43655.67
569.15	43833.55
569.32	43459.07
569.48	43543.33
569.64	43955.26
569.81	43599.50
569.97	44100.37
570.13	43564.39
570.30	43540.99
570.46	43622.90
570.62	43793.76
570.78	43559.71
570.95	43927.17
571.11	44252.51
571.27	43739.93
571.43	44126.12
571.60	43852.28
571.76	43899.09
571.92	43999.73
572.09	44072.29
572.25	44170.59
572.41	43756.32
572.57	43957.60
572.74	44390.60
572.90	43903.77
573.06	43875.68
573.22	43950.58
573.38	44034.84
573.55	43569.07
573.71	44449.11
573.87	44224.42
574.03	43641.63
574.20	43744.61
574.36	43571.41
574.52	44210.38
574.68	44392.94
574.84	44102.71
575.01	43824.19
575.17	44311.02
575.33	43831.21
575.49	44030.16
575.65	44367.20
575.82	44678.49
575.98	44009.09
576.14	44573.16
576.30	44112.08
576.46	44053.56
576.62	43777.38
576.79	44233.78
576.95	43508.22
577.11	44289.96
577.27	44086.33
577.43	43899.09
577.59	44119.10
577.75	44313.36
577.92	44088.67
578.08	43856.96
578.24	44069.95
578.40	43620.56
578.56	44250.17
578.72	44072.29
578.88	44275.91
579.04	43908.45
579.21	44261.87
579.37	43913.13
579.53	44020.80
579.69	43758.66
579.85	43992.71
580.01	44191.65
580.17	44121.44
580.33	44212.72
580.49	44034.84
580.65	44432.73
580.82	44163.57
580.98	44165.91
581.14	44048.88
581.30	44362.51
581.46	44664.44
581.62	43805.47
581.78	44060.58
581.94	44636.36
582.10	44165.91
582.26	44367.20
582.42	44416.35
582.58	44439.75
582.74	44093.35
582.90	44381.24
583.06	44676.15
583.22	44292.30
583.38	44615.29
583.54	44128.46
583.70	44065.27
583.86	43906.11
584.02	44311.02
584.18	44224.42
584.34	44076.97
584.50	44067.61
584.66	44154.21
584.82	44034.84
584.98	44692.53
585.14	44147.18
585.30	44154.21
585.46	44430.39
585.62	44163.57
585.78	44278.25
585.94	43863.98
586.10	44102.71
586.26	44432.73
586.42	43997.39
586.58	43981.01
586.74	44327.41
586.90	43952.92
587.06	44086.33
587.22	44556.78
587.38	43803.13
587.54	44680.83
587.70	44617.63
587.86	44397.62
588.02	44559.12
588.18	44589.55
588.34	44266.55
588.49	43882.70
588.65	44287.62
588.81	44172.93
588.97	43716.53
589.13	44423.37
589.29	44273.57
589.45	44718.28
589.61	44252.51
589.77	44655.08
589.93	44619.97
590.08	44561.46
590.24	44619.97
590.40	44325.07
590.56	44612.95
590.72	44484.22
590.88	44229.10
591.04	44397.62
591.20	44463.16
591.35	44542.74
591.51	44966.37
591.67	44261.87
591.83	44715.93
591.99	44470.18
592.15	44430.39
592.31	44327.41
592.46	44418.69
592.62	44704.23
592.78	44301.66
592.94	44847.00
593.10	44418.69
593.26	44201.02
593.41	44692.53
593.57	44470.18
593.73	44304.00
593.89	44418.69
594.05	44641.04
594.20	44526.35
594.36	44692.53
594.52	44619.97
594.68	44704.23
594.84	44524.01
594.99	45326.81
595.15	44643.38
595.31	44863.39
595.47	44858.71
595.62	44842.32
595.78	45099.78
595.94	44891.48
596.10	44713.59
596.25	45221.49
596.41	44720.62
596.57	44631.68
596.73	44732.32
596.88	44350.81
597.04	44828.28
597.20	45078.72
597.36	44828.28
597.51	44502.95
597.67	44505.29
597.83	44971.05
597.99	45109.14
598.14	44772.11
598.30	44334.43
598.46	44479.54
598.61	44636.36
598.77	44339.11
598.93	44718.28
599.09	44680.83
599.24	45181.70
599.40	44788.49
599.56	45043.61
599.71	44755.72
599.87	45165.32
600.03	44521.67
600.18	44755.72
600.34	44624.65
600.50	44765.09
600.65	45078.72
600.81	44905.52
600.97	45097.44
601.12	45165.32
601.28	44961.69
601.44	44839.98
601.59	44566.14
601.75	44486.56
601.91	44580.18
602.06	44563.80
602.22	45057.65
602.37	44453.79
602.53	44376.56
602.69	44985.10
602.84	44629.34
603.00	44322.72
603.16	44849.35
603.31	44397.62
603.47	44399.96
603.62	44605.93
603.78	45036.59
603.94	45254.26
604.09	44666.78
604.25	45081.06
604.40	44612.95
604.56	44975.73
604.71	44863.39
604.87	44643.38
605.03	45071.70
605.18	44734.66
605.34	44793.17
605.49	44671.46
605.65	44980.42
605.80	44542.74
605.96	45034.25
606.12	44538.05
606.27	45298.73
606.43	44318.04
606.58	44933.60
606.74	44509.97
606.89	44774.45
607.05	44919.56
607.20	44697.21
607.36	44591.89
607.51	44851.69
607.67	44793.17
607.82	44802.53
607.98	44694.87
608.13	44729.98
608.29	44421.03
608.44	44229.10
608.60	44147.18
608.75	43882.70
608.91	44404.64
609.06	44219.74
609.22	44610.61
609.37	44137.82
609.53	44327.41
609.68	44336.77
609.84	44474.86
609.99	43964.62
610.15	44198.68
610.30	44030.16
610.46	44250.17
610.61	44128.46
610.76	44495.92
610.92	44165.91
611.07	44332.09
611.23	43786.74
611.38	43861.64
611.54	44009.09
611.69	43878.02
611.84	43908.45
612.00	44322.72
612.15	43824.19
612.31	44549.76
612.46	43896.75
612.62	44514.65
612.77	44123.78
612.92	44306.34
613.08	43910.79
613.23	44191.65
613.39	43917.81
613.54	43653.33
613.69	44149.53
613.85	43908.45
614.00	44198.68
614.15	44287.62
614.31	44304.00
614.46	43969.30
614.62	43716.53
614.77	43433.32
614.92	43606.52
615.08	43718.87
615.23	43325.66
615.38	43552.69
615.54	43526.94
615.69	43377.15
615.84	43456.73
616.00	43601.84
616.15	43812.49
616.30	44018.46
616.46	43112.67
616.61	43253.10
616.76	43456.73
616.92	43313.95
617.07	43215.65
617.22	43178.20
617.37	43735.25
617.53	43430.98
617.68	43440.34
617.83	43395.87
617.99	43592.48
618.14	43180.54
618.29	43550.35
618.45	42904.36
618.60	43269.48
618.75	43152.46
618.90	43484.81
619.06	43377.15
619.21	43400.55
619.36	43306.93
619.51	43260.12
619.67	43124.37
619.82	43372.47
619.97	43285.87
620.12	43217.99
620.28	43026.07
620.43	42904.36
620.58	43168.84
620.73	42761.59
620.89	42997.98
621.04	43019.05
621.19	43452.05
621.34	42555.62
621.49	42759.25
621.65	42651.58
621.80	43290.55
621.95	42464.34
622.10	42817.76
622.25	43051.81
622.41	42419.87
622.56	42176.45
622.71	42869.25
622.86	42880.95
623.01	42909.04
623.16	42789.67
623.32	42721.80
623.47	42157.73
623.62	42569.66
623.77	42246.67
623.92	42691.37
624.07	42572.00
624.23	42508.81
624.38	42089.85
624.53	42230.29
624.68	42405.83
624.83	42312.20
624.98	42621.16
625.13	42333.27
625.29	42419.87
625.44	42497.11
625.59	42031.34
625.74	41804.31
625.89	41790.27
626.04	41804.31
626.19	41801.97
626.34	41827.71
626.49	41855.80
626.65	41542.17
626.80	42251.35
626.95	41579.62
627.10	42127.30
627.25	41474.29
627.40	41282.37
627.55	41677.92
627.70	41411.10
627.85	41254.28
628.00	41621.75
628.15	42040.70
628.30	41556.21
628.45	42241.99
628.60	41486.00
628.76	41656.85
628.91	41696.64
629.06	41373.65
629.21	41244.92
629.36	41446.21
629.51	41041.29
629.66	41516.42
629.81	41111.51
629.96	41125.55
630.11	41368.97
630.26	41642.81
630.41	41691.96
630.56	41312.80
630.71	41390.03
630.86	41408.76
631.01	41123.21
631.16	41298.75
631.31	41048.32
631.46	40694.89
631.61	41385.35
631.76	40802.56
631.91	41088.10
632.06	41240.24
632.21	41322.16
632.36	41411.10
632.51	40830.65
632.66	41085.76
632.81	40645.74
632.96	41095.13
633.10	40692.55
633.25	40219.77
633.40	40533.40
633.55	40725.32
633.70	40816.60
633.85	40666.81
634.00	40851.71
634.15	40769.79
634.30	40524.04
634.45	40542.76
634.60	40402.33
634.75	40460.84
634.90	41020.23
635.05	40573.19
635.19	40142.53
635.34	41200.45
635.49	40460.84
635.64	40327.43
635.79	40294.66
635.94	40243.17
636.09	40196.36
636.24	40086.36
636.39	39917.84
636.53	40055.93
636.68	40128.48
636.83	39992.73
636.98	40357.86
637.13	39805.49
637.28	40528.72
637.43	39988.05
637.57	40154.23
637.72	40416.37
637.87	40084.01
638.02	39842.94
638.17	39718.89
638.32	39683.78
638.46	39985.71
638.61	39889.75
638.76	39494.20
638.91	40098.06
639.06	40161.25
639.20	40271.26
639.35	39924.86
639.50	39714.21
639.65	39931.88
639.80	40336.79
639.94	39629.95
640.09	39351.43
640.24	40175.30
640.39	39115.03
640.54	39517.60
640.68	39592.50
640.83	39564.42
640.98	39239.08
641.13	39688.46
641.27	39789.11
641.42	39526.97
641.57	39433.35
641.72	39782.09
641.86	39634.63
642.01	38913.75
642.16	39082.27
642.31	38937.15
642.45	39187.59
642.60	39005.03
642.75	39283.55
642.90	39042.48
643.04	39309.30
643.19	39489.52
643.34	39129.08
643.48	39168.87
643.63	39344.41
643.78	38946.51
643.93	38976.94
644.07	38859.91
644.22	38869.28
644.37	38770.97
644.51	38754.59
644.66	38417.55
644.81	38642.24
644.95	38883.32
645.10	39150.14
645.25	39037.80
645.39	38993.32
645.54	39227.38
645.69	38457.34
645.83	38810.76
645.98	38506.49
646.13	38808.42
646.27	38796.72
646.42	38637.56
646.57	38583.73
646.71	38143.71
646.86	38452.66
647.00	38848.21
647.15	38705.44
647.30	38672.67
647.44	38735.87
647.59	38562.67
647.74	38417.55
647.88	38031.36
648.03	38794.38
648.17	38211.59
648.32	38188.18
648.47	38352.02
648.61	38082.86
648.76	38459.68
648.90	38483.09
649.05	38541.60
649.20	38447.98
649.34	38450.32
649.49	37991.58
649.63	38213.93
649.78	38492.45
649.92	38110.94
650.07	38356.70
650.21	37708.37
650.36	38019.66
650.51	37855.82
650.65	38124.99
650.80	38494.79
650.94	38176.48
651.09	37872.21
651.23	37890.93
651.38	37584.32
651.52	37675.60
651.67	38239.67
651.81	37993.92
651.96	37706.03
652.10	37577.30
652.25	37483.68
652.39	37256.65
652.54	37731.78
652.68	37921.36
652.83	37797.31
652.97	37895.61
653.12	37291.76
653.26	37282.39
653.41	37752.84
653.55	37631.13
653.70	37479.00
653.84	37422.83
653.99	37528.15
654.13	37376.01
654.27	37235.58
654.42	37146.64
654.56	37001.53
654.71	37694.33
654.85	37368.99
655.00	37284.73
655.14	37062.38
655.29	36919.61
655.43	37167.71
655.57	36521.72
655.72	37085.79
655.86	36858.76
656.01	37057.70
656.15	36765.14
656.30	36713.64
656.44	36692.58
656.58	36563.85
656.73	36790.88
656.87	36706.62
657.01	36683.22
657.16	36943.02
657.30	36470.23
657.45	36474.91
657.59	36390.65
657.73	36390.65
657.88	36467.89
658.02	36266.60
658.16	36453.84
658.31	36734.71
658.45	36549.81
658.60	36676.19
658.74	36336.82
658.88	36503.00
659.03	36287.67
659.17	36128.51
659.31	36161.28
659.46	36032.55
659.60	36290.01
659.74	36449.16
659.89	36114.47
660.03	36112.13
660.17	35765.73
660.32	35892.12
660.46	36374.27
660.60	36247.88
660.74	36163.62
660.89	35945.95
661.03	35220.38
661.17	35662.74
661.32	35360.81
661.46	35651.04
661.60	35194.64
661.74	35082.29
661.89	35295.28
662.03	35473.16
662.17	35524.65
662.31	35360.81
662.46	35765.73
662.60	35337.41
662.74	35093.99
662.88	35243.79
663.03	34717.17
663.17	35243.79
663.31	34948.88
663.45	34768.66
663.60	34855.26
663.74	34979.31
663.88	34763.98
664.02	34560.35
664.17	34602.48
664.31	34590.78
664.45	34668.02
664.59	34918.45
664.73	34375.45
664.88	34773.34
665.02	34106.29
665.16	34300.55
665.30	34363.75
665.44	34403.53
665.59	33846.49
665.73	33853.51
665.87	34010.32
666.01	34047.77
666.15	34082.88
666.29	33888.62
666.44	34167.14
666.58	33947.13
666.72	33961.17
666.86	33766.91
667.00	34251.40
667.14	33886.28
667.28	33432.21
667.43	33420.51
667.57	33865.21
667.71	33240.29
667.85	33364.34
667.99	33387.74
668.13	33022.62
668.27	33167.73
668.41	33682.65
668.56	33263.69
668.70	33277.74
668.84	33006.23
668.98	32940.70
669.12	32788.56
669.26	33003.89
669.40	32643.45
669.54	32781.54
669.68	32950.06
669.82	32694.94
669.96	32765.16
670.10	32711.33
670.25	32767.50
670.39	32732.39
670.53	32678.56
670.67	32346.20
670.81	32680.90
670.95	32608.34
671.09	32451.53
671.23	32095.77
671.37	32528.77
671.51	31842.99
671.65	31978.74
671.79	32147.26
671.93	31484.89
672.07	31995.12
672.21	31676.81
672.35	31665.11
672.49	31978.74
672.63	31707.24
672.77	31154.87
672.91	31555.10
673.05	31438.08
673.19	31019.12
673.33	31438.08
673.47	31089.34
673.61	31108.06
673.75	31075.29
673.89	30738.26
674.03	30859.96
674.17	30593.14
674.31	30651.66
674.45	30293.55
674.59	30782.73
674.73	30845.92
674.87	30749.96
675.01	30693.79
675.15	30792.09
675.29	30611.87
675.43	30536.97
675.56	30401.22
675.70	30597.82
675.84	29989.28
675.98	29144.35
676.12	30113.33
676.26	30029.07
676.40	29823.11
676.54	29635.86
676.68	29537.56
676.82	29434.58
676.96	29465.00
677.10	29151.37
677.23	29153.71
677.37	29376.06
677.51	28940.72
677.65	29024.98
677.79	28463.25
677.93	28868.17
678.07	28566.24
678.21	28472.62
678.34	28027.92
678.48	28563.90
678.62	28006.85
678.76	27803.22
678.90	27943.66
679.04	28388.36
679.18	28283.03
679.31	28168.35
679.45	27735.35
679.59	27625.34
679.73	27878.12
679.87	27531.72
680.00	27620.66
680.14	27606.62
680.28	27304.69
680.42	27058.93
680.56	27232.13
680.70	27101.06
680.83	26728.92
680.97	26590.83
681.11	26522.95
681.25	26796.79
681.39	26628.27
681.52	27009.78
681.66	26731.26
681.80	26518.27
681.94	26483.16
682.07	26239.75
682.21	26291.24
682.35	25916.75
682.49	26352.09
682.62	26017.40
682.76	25986.97
682.90	26103.99
683.04	25628.87
683.17	25614.82
683.31	25736.53
683.45	26029.10
683.59	25539.93
683.72	25193.53
683.86	25113.95
684.00	25207.57
684.13	25228.63
684.27	25092.88
684.41	25371.41
684.55	25160.76
684.68	24868.19
684.82	24652.86
684.96	24730.10
685.09	24800.32
685.23	24056.03
685.37	24379.02
685.50	24208.16
685.64	24238.59
685.78	24402.43
685.91	23946.02
686.05	23847.72
686.19	23718.99
686.32	23735.37
686.46	23534.09
686.60	23543.45
686.73	23342.16
686.87	23323.44
687.01	23257.90
687.14	23218.11
687.28	23040.23
687.42	22995.76
687.55	23185.35
687.69	22911.50
687.82	22838.95
687.96	23026.19
688.10	22541.70
688.23	22731.28
688.37	22059.55
688.50	22267.86
688.64	22434.03
688.78	22127.42
688.91	22228.07
689.05	22073.59
689.18	22019.76
689.32	21902.73
689.46	21994.01
689.59	22068.91
689.73	21673.36
689.86	21855.92
690.00	21575.06
690.13	21680.38
690.27	21493.14
690.41	21188.87
690.54	20908.01
690.68	20917.37
690.81	20762.89
690.95	20690.34
691.08	20982.90
691.22	20870.56
691.35	20629.48
691.49	20748.85
691.62	20823.75
691.76	20922.05
691.89	20573.31
692.03	20233.93
692.16	20130.95
692.30	20128.61
692.43	20320.53
692.57	19838.38
692.70	20133.29
692.84	20002.22
692.97	19810.29
693.11	19730.72
693.24	19494.32
693.38	19440.49
693.51	19924.98
693.65	19637.09
693.78	19613.69
693.92	19576.24
694.05	19023.87
694.19	19040.26
694.32	18972.38
694.45	19136.22
694.59	18927.91
694.72	18981.74
694.86	19026.21
694.99	18483.21
695.13	18595.56
695.26	18099.36
695.39	18120.43
695.53	18148.51
695.66	18368.52
695.80	18148.51
695.93	18005.74
696.07	18012.76
696.20	17825.52
696.33	17980.00
696.47	17774.03
696.60	17715.51
696.73	17596.15
696.87	17750.62
697.00	17404.22
697.14	17568.06
697.27	17612.53
697.40	17287.20
697.54	17282.52
697.67	17207.62
697.80	17092.93
697.94	17036.76
698.07	16947.82
698.21	17081.23
698.34	16720.79
698.47	17048.46
698.61	16458.65
698.74	16313.53
698.87	16627.17
699.01	16077.14
699.14	16226.93
699.27	16116.93
699.40	16236.30
699.54	16180.12
699.67	15992.88
699.80	16140.33
699.94	15796.28
700.07	15749.46
700.20	15660.52
700.34	15620.74
700.47	15761.17
700.60	15775.21
700.73	16009.26
700.87	15585.63
701.00	15452.22
701.13	15463.92
701.26	15227.53
701.40	15316.47
701.53	15208.80
701.66	15094.11
701.79	15169.01
701.93	14934.96
702.06	14752.40
702.19	14799.21
702.32	14988.79
702.46	14801.55
702.59	14712.61
702.72	14850.70
702.85	14387.27
702.99	14707.93
703.12	14527.71
703.25	14593.24
703.38	14567.49
703.51	14295.99
703.65	14073.64
703.78	14141.52
703.91	14068.96
704.04	14120.45
704.17	14104.07
704.31	13762.35
704.44	13760.01
704.57	13532.98
704.70	13563.40
704.83	13387.86
704.96	13549.36
705.10	13626.60
705.23	13572.77
>>>>>End Processed Spectral Data<<<<<
