SpectraSuite Data File
++++++++++++++++++++++++++++++++++++
Date: Fri Oct 25 11:33:46 EDT 2013
User: price-jones
Dark Spectrum Present: No
Reference Spectrum Present: No
Number of Sampled Component Spectra: 1
Spectrometers: USB2+H05261
Integration Time (usec): 100000 (USB2+H05261)
Spectra Averaged: 1 (USB2+H05261)
Boxcar Smoothing: 0 (USB2+H05261)
Correct for Electrical Dark: No (USB2+H05261)
Strobe/Lamp Enabled: No (USB2+H05261)
Correct for Detector Non-linearity: No (USB2+H05261)
Correct for Stray Light: No (USB2+H05261)
Number of Pixels in Processed Spectrum: 2048
>>>>>Begin Processed Spectral Data<<<<<
365.73	175.54
365.92	175.54
366.12	175.54
366.32	217.67
366.52	198.95
366.72	182.56
366.91	149.79
367.11	180.22
367.31	184.90
367.51	184.90
367.70	140.43
367.90	198.95
368.10	220.01
368.30	208.31
368.49	175.54
368.69	220.01
368.89	234.05
369.09	208.31
369.28	227.03
369.48	201.29
369.68	201.29
369.87	229.37
370.07	257.46
370.27	191.92
370.47	341.72
370.66	465.77
370.86	519.60
371.06	533.64
371.25	493.85
371.45	496.19
371.65	550.03
371.84	528.96
372.04	561.73
372.24	599.18
372.44	599.18
372.63	603.86
372.83	660.03
373.03	627.26
373.22	589.82
373.42	535.98
373.62	552.37
373.81	681.10
374.01	643.65
374.21	711.52
374.40	681.10
374.60	678.76
374.79	634.29
374.99	608.54
375.19	667.05
375.38	655.35
375.58	638.97
375.78	664.71
375.97	711.52
376.17	695.14
376.37	697.48
376.56	685.78
376.76	627.26
376.95	657.69
377.15	699.82
377.35	706.84
377.54	751.31
377.74	674.07
377.93	695.14
378.13	704.50
378.33	755.99
378.52	730.25
378.72	770.04
378.91	683.44
379.11	685.78
379.31	676.41
379.50	608.54
379.70	772.38
379.89	767.70
380.09	725.57
380.28	737.27
380.48	781.74
380.68	734.93
380.87	704.50
381.07	697.48
381.26	781.74
381.46	744.29
381.65	753.65
381.85	779.40
382.04	826.21
382.24	746.63
382.43	753.65
382.63	739.61
382.83	753.65
383.02	847.27
383.22	788.76
383.41	758.33
383.61	713.86
383.80	809.83
384.00	697.48
384.19	814.51
384.39	814.51
384.58	805.14
384.78	821.53
384.97	889.40
385.17	805.14
385.36	821.53
385.56	983.02
385.75	830.89
385.95	863.66
386.14	849.61
386.34	910.47
386.53	835.57
386.72	842.59
386.92	912.81
387.11	847.27
387.31	985.37
387.50	926.85
387.70	905.79
387.89	910.47
388.09	851.96
388.28	858.98
388.48	898.77
388.67	938.55
388.86	910.47
389.06	894.08
389.25	961.96
389.45	931.53
389.64	950.26
389.84	966.64
390.03	1074.31
390.22	933.87
390.42	990.05
390.61	917.49
390.81	945.58
391.00	1074.31
391.19	1046.22
391.39	1025.15
391.58	1060.26
391.78	1062.60
391.97	1090.69
392.16	931.53
392.36	1086.01
392.55	1062.60
392.75	1013.45
392.94	1041.54
393.13	1011.11
393.33	1013.45
393.52	1041.54
393.71	1118.78
393.91	1186.65
394.10	1062.60
394.29	1135.16
394.49	1029.84
394.68	1188.99
394.88	1102.39
395.07	1142.18
395.26	1153.88
395.46	1167.93
395.65	1111.75
395.84	1083.67
396.04	1191.33
396.23	1210.06
396.42	1196.01
396.62	1188.99
396.81	1226.44
397.00	1160.91
397.19	1151.54
397.39	1203.04
397.58	1238.14
397.77	1231.12
397.97	1270.91
398.16	1345.81
398.35	1252.19
398.55	1249.85
398.74	1214.74
398.93	1331.76
399.12	1320.06
399.32	1308.36
399.51	1221.76
399.70	1378.58
399.90	1420.71
400.09	1308.36
400.28	1404.32
400.47	1289.64
400.67	1427.73
400.86	1455.81
401.05	1390.28
401.24	1425.39
401.44	1420.71
401.63	1481.56
401.82	1504.96
402.01	1357.51
402.21	1507.30
402.40	1521.35
402.59	1488.58
402.78	1495.60
402.97	1591.56
403.17	1577.52
403.36	1514.33
403.55	1603.27
403.74	1589.22
403.93	1533.05
404.13	1547.09
404.32	1570.50
404.51	1680.50
404.70	1715.61
404.89	1624.33
405.09	1715.61
405.28	1722.63
405.47	1547.09
405.66	1736.68
405.85	1720.29
406.05	1647.74
406.24	1619.65
406.43	1671.14
406.62	1689.87
406.81	1830.30
407.00	1790.51
407.20	1792.85
407.39	1589.22
407.58	1771.79
407.77	1851.36
407.96	1823.28
408.15	1867.75
408.34	1888.81
408.54	1954.35
408.73	1949.67
408.92	1989.46
409.11	2101.80
409.30	2008.18
409.49	2029.24
409.68	1952.01
409.87	1998.82
410.07	2115.84
410.26	2076.06
410.45	2015.20
410.64	2069.03
410.83	2083.08
411.02	2165.00
411.21	2223.51
411.40	2125.21
411.59	2155.63
411.78	2174.36
411.98	2235.21
412.17	2218.83
412.36	2368.62
412.55	2333.51
412.74	2452.88
412.93	2314.79
413.12	2270.32
413.31	2429.48
413.50	2445.86
413.69	2275.00
413.88	2546.50
414.07	2473.95
414.26	2462.24
414.45	2595.65
414.64	2527.78
414.83	2525.44
415.02	2588.63
415.22	2576.93
415.41	2672.89
415.60	2693.96
415.79	2703.32
415.98	2675.23
416.17	2818.00
416.36	2710.34
416.55	2670.55
416.74	2771.19
416.93	2780.56
417.12	2836.73
417.31	2794.60
417.50	2925.67
417.69	3016.95
417.88	2986.52
418.07	2986.52
418.26	2960.78
418.45	2897.58
418.64	3061.42
418.83	3119.93
419.02	3148.02
419.21	3239.30
419.39	3101.21
419.58	2960.78
419.77	3084.83
419.96	3169.09
420.15	3138.66
420.34	3136.32
420.53	3204.19
420.72	3218.24
420.91	3199.51
421.10	3286.11
421.29	3262.71
421.48	3243.98
421.67	3309.52
421.86	3325.90
422.05	3438.25
422.24	3243.98
422.43	3426.54
422.61	3269.73
422.80	3475.70
422.99	3368.03
423.18	3307.18
423.37	3466.33
423.56	3300.16
423.75	3485.06
423.94	3346.97
424.13	3253.34
424.32	3229.94
424.50	3274.41
424.69	3482.72
424.88	3438.25
425.07	3412.50
425.26	3449.95
425.45	3447.61
425.64	3543.57
425.83	3492.08
426.01	3506.12
426.20	3405.48
426.39	3375.05
426.58	3407.82
426.77	3520.17
426.96	3463.99
427.15	3492.08
427.33	3623.15
427.52	3529.53
427.71	3585.70
427.90	3576.34
428.09	3805.71
428.28	3667.62
428.46	3733.15
428.65	3531.87
428.84	3733.15
429.03	3770.60
429.22	3735.50
429.40	3728.47
429.59	3770.60
429.78	3611.45
429.97	3559.95
430.16	3798.69
430.34	3826.78
430.53	3843.16
430.72	3864.22
430.91	3836.14
431.10	3999.98
431.28	4042.11
431.47	3962.53
431.66	4133.39
431.85	3894.65
432.03	3997.64
432.22	4140.41
432.41	4046.79
432.60	4021.04
432.79	3997.64
432.97	4063.17
433.16	4117.00
433.35	4208.28
433.54	4264.46
433.72	4084.23
433.91	4280.84
434.10	4194.24
434.28	4098.28
434.47	4152.11
434.66	4248.07
434.85	4411.91
435.03	4341.69
435.22	4283.18
435.41	4432.97
435.59	4531.28
435.78	4545.32
435.97	4318.29
436.16	4390.84
436.34	4388.50
436.53	4388.50
436.72	4475.10
436.90	4521.92
437.09	4381.48
437.28	4351.06
437.46	4386.16
437.65	4589.79
437.84	4620.22
438.02	4676.39
438.21	4730.22
438.40	4645.96
438.58	4660.01
438.77	4765.33
438.96	4762.99
439.14	4777.03
439.33	5048.54
439.52	4910.44
439.70	4896.40
439.89	5046.20
440.08	5053.22
440.26	4990.02
440.45	5018.11
440.63	5081.30
440.82	5172.58
441.01	5254.50
441.19	5284.93
441.38	5308.34
441.57	5308.34
441.75	5294.29
441.94	5334.08
442.12	5214.71
442.31	5408.98
442.50	5376.21
442.68	5483.88
442.87	5701.54
443.05	5535.37
443.24	5572.82
443.43	5458.13
443.61	5671.12
443.80	5661.76
443.98	5425.36
444.17	5198.33
444.35	5458.13
444.54	5640.69
444.73	5617.29
444.91	5734.31
445.10	5774.10
445.28	5654.73
445.47	5628.99
445.65	5554.09
445.84	5715.59
446.02	5638.35
446.21	5753.04
446.39	5753.04
446.58	5888.79
446.77	5881.77
446.95	5621.97
447.14	5504.94
447.32	5654.73
447.51	5738.99
447.69	5769.42
447.88	5699.20
448.06	5731.97
448.25	5851.34
448.43	5818.57
448.62	5720.27
448.80	5746.02
448.99	5825.59
449.17	5998.79
449.36	5827.93
449.54	5891.13
449.73	5919.21
449.91	6040.92
450.10	6076.03
450.28	6202.42
450.46	5973.05
450.65	5963.68
450.83	6146.25
451.02	6211.78
451.20	6237.53
451.39	6094.76
451.57	6174.33
451.76	6153.27
451.94	6195.40
452.13	6384.98
452.31	6272.64
452.49	6211.78
452.68	6438.81
452.86	6193.06
453.05	6296.04
453.23	6328.81
453.42	6387.32
453.60	6209.44
453.78	6609.67
453.97	6359.24
454.15	6534.78
454.34	6134.54
454.52	6487.96
454.70	6534.78
454.89	6607.33
455.07	6679.89
455.26	6670.53
455.44	6834.36
455.62	6640.10
455.81	6850.75
455.99	6843.73
456.17	6719.68
456.36	6736.06
456.54	6871.81
456.73	6817.98
456.91	6904.58
457.09	7103.53
457.28	7155.02
457.46	7012.24
457.64	7045.01
457.83	7183.10
458.01	7073.10
458.19	7290.77
458.38	7070.76
458.56	7164.38
458.74	7185.44
458.93	7419.50
459.11	7236.94
459.29	7356.30
459.48	7197.15
459.66	7370.35
459.84	7368.01
460.03	7407.80
460.21	7445.24
460.39	7536.52
460.57	7405.46
460.76	7412.48
460.94	7508.44
461.12	7550.57
461.31	7463.97
461.49	7335.24
461.67	7578.65
461.85	7866.54
462.04	7475.67
462.22	7922.71
462.40	7882.92
462.59	7616.10
462.77	7602.06
462.95	7819.73
463.13	7742.49
463.32	7810.37
463.50	7894.63
463.68	8011.65
463.86	7969.52
464.05	8049.10
464.23	7824.41
464.41	8203.58
464.59	7887.61
464.78	7936.76
464.96	8070.17
465.14	8011.65
465.32	8056.12
465.50	8105.28
465.69	8224.64
465.87	8131.02
466.05	8201.24
466.23	8215.28
466.41	8149.75
466.60	8301.88
466.78	8035.06
466.96	8070.17
467.14	8107.62
467.32	8226.98
467.51	8374.44
467.69	8187.19
467.87	8348.69
468.05	8468.06
468.23	8294.86
468.41	8421.25
468.60	8278.47
468.78	8505.51
468.96	8547.64
469.14	8505.51
469.32	8704.45
469.50	8386.14
469.69	8566.36
469.87	8725.52
470.05	8765.31
470.23	8648.28
470.41	8526.57
470.59	8887.01
470.77	8786.37
470.95	8835.52
471.14	8926.80
471.32	8812.12
471.50	9015.74
471.68	8870.63
471.86	9071.92
472.04	9202.99
472.22	9352.78
472.40	9095.32
472.58	9083.62
472.77	9266.18
472.95	9528.32
473.13	9848.97
473.31	9427.68
473.49	9420.66
473.67	9406.61
473.85	9511.94
474.03	9785.78
474.21	9736.63
474.39	9708.54
474.57	9987.07
474.75	9827.91
474.93	9968.34
475.12	10066.64
475.30	10253.89
475.48	9961.32
475.66	9893.44
475.84	10097.07
476.02	10366.23
476.20	10286.65
476.38	10480.92
476.56	10541.77
476.74	10403.68
476.92	10696.25
477.10	10434.11
477.28	10609.65
477.46	10736.04
477.64	10927.96
477.82	10876.47
478.00	11269.68
478.18	11150.31
478.36	11360.96
478.54	11328.19
478.72	11145.63
478.90	11419.47
479.08	11674.59
479.26	11798.64
479.44	11772.89
479.62	11854.81
479.80	11698.00
479.98	11873.54
480.16	12009.29
480.34	11946.09
480.52	12037.38
480.70	12198.87
480.88	12259.73
481.06	12339.30
481.24	12329.94
481.41	12746.56
481.59	12659.96
481.77	12837.84
481.95	13055.51
482.13	12856.56
482.31	12872.95
482.49	13390.20
482.67	13256.79
482.85	13657.03
483.03	13479.15
483.21	13710.86
483.39	13530.64
483.57	13586.81
483.74	13928.53
483.92	13984.70
484.10	14120.45
484.28	14111.09
484.46	14551.11
484.64	14546.43
484.82	14277.27
485.00	14403.66
485.18	14876.44
485.35	15171.35
485.53	14937.30
485.71	15185.40
485.89	15262.63
486.07	15384.34
486.25	15393.70
486.43	15580.95
486.61	15728.40
486.78	15786.91
486.96	15960.11
487.14	16177.78
487.32	16297.15
487.50	16208.21
487.68	16430.56
487.85	16739.51
488.03	16690.36
488.21	16870.58
488.39	16744.19
488.57	16842.50
488.75	16891.65
488.92	17088.25
489.10	17792.75
489.28	17572.74
489.46	17755.30
489.64	17680.41
489.81	18230.43
489.99	18174.26
490.17	18059.57
490.35	18735.99
490.53	18602.58
490.70	18672.79
490.88	18420.02
491.06	18895.14
491.24	18782.80
491.41	18972.38
491.59	19054.30
491.77	18995.79
491.95	19377.30
492.13	19957.75
492.30	19950.73
492.48	19445.17
492.66	20049.03
492.84	19955.41
493.01	20273.72
493.19	20547.56
493.37	20315.85
493.54	20191.80
493.72	20690.34
493.90	20512.46
494.08	20931.41
494.25	20828.43
494.43	21076.52
494.61	20898.64
494.79	21598.46
494.96	21341.00
495.14	21165.46
495.32	21736.56
495.49	21516.54
495.67	21944.86
495.85	21965.93
496.02	21876.99
496.20	22279.56
496.38	22410.63
496.55	22494.89
496.73	23021.51
496.91	22527.66
497.09	22941.93
497.26	22944.27
497.44	22946.61
497.62	23082.36
497.79	23257.90
497.97	23403.02
498.14	23791.55
498.32	23777.50
498.50	23637.07
498.67	23836.02
498.85	23616.01
499.03	23927.30
499.20	24287.74
499.38	23782.18
499.56	24533.50
499.73	24627.12
499.91	24783.93
500.08	24751.17
500.26	24355.61
500.44	24615.41
500.61	24641.16
500.79	24868.19
500.97	25118.63
501.14	25530.56
501.32	25439.28
501.49	25125.65
501.67	25752.91
501.84	25827.81
502.02	25537.59
502.20	25729.51
502.37	25752.91
502.55	25984.63
502.72	26052.50
502.90	26160.17
503.07	26059.52
503.25	26012.71
503.43	26092.29
503.60	26452.73
503.78	26473.80
503.95	26394.22
504.13	26637.64
504.30	26700.83
504.48	26977.01
504.65	26948.93
504.83	27192.34
505.01	27262.56
505.18	26859.99
505.36	27124.47
505.53	27309.37
505.71	27267.24
505.88	27489.59
506.06	27529.38
506.23	27749.39
506.41	27885.14
506.58	27494.27
506.76	28018.55
506.93	27875.78
507.11	28268.99
507.28	28065.36
507.46	28322.82
507.63	28313.46
507.81	28432.83
507.98	28276.01
508.16	28074.73
508.33	28535.81
508.50	28929.02
508.68	28900.94
508.85	29003.92
509.03	28933.70
509.20	29043.71
509.38	29324.57
509.55	29120.95
509.73	29362.02
509.90	29411.17
510.08	29333.93
510.25	29605.44
510.42	29888.64
510.60	30061.84
510.77	29647.57
510.95	30202.27
511.12	30284.19
511.30	29930.77
511.47	30382.49
511.64	30415.26
511.82	30298.23
511.99	30068.86
512.17	30536.97
512.34	30213.98
512.51	30586.12
512.69	31033.16
512.86	30616.55
513.04	31545.74
513.21	31229.77
513.38	31091.68
513.56	31569.15
513.73	30923.16
513.90	30960.61
514.08	31342.11
514.25	31459.14
514.43	31534.04
514.60	31583.19
514.77	31433.39
514.95	31866.39
515.12	31885.12
515.29	31735.32
515.47	31901.50
515.64	32203.43
515.81	31971.72
515.99	32168.32
516.16	32739.41
516.33	32402.38
516.51	32109.81
516.68	32418.76
516.85	32500.68
517.03	33067.09
517.20	32657.49
517.37	32442.17
517.54	32783.88
517.72	32837.72
517.89	33090.49
518.06	33074.11
518.24	33041.34
518.41	33064.75
518.58	32802.61
518.75	33057.73
518.93	32971.13
519.10	33376.04
519.27	33317.53
519.45	33773.93
519.62	33511.79
519.79	34085.22
519.96	33734.14
520.14	33729.46
520.31	33886.28
520.48	34061.82
520.65	34108.63
520.83	34377.79
521.00	34607.16
521.17	34052.45
521.34	34560.35
521.52	34450.35
521.69	34492.47
521.86	34532.26
522.03	34983.99
522.20	34698.44
522.38	35323.36
522.55	34735.89
522.72	35292.94
522.89	35016.75
523.07	35330.39
523.24	35487.20
523.41	35189.95
523.58	35143.14
523.75	35526.99
523.92	35353.79
524.10	35892.12
524.27	35824.24
524.44	35550.40
524.61	35426.35
524.78	35929.56
524.96	36044.25
525.13	36339.16
525.30	36336.82
525.47	36407.03
525.64	36493.63
525.81	35917.86
525.98	36762.79
526.16	36170.64
526.33	36645.77
526.50	36629.38
526.67	36278.30
526.84	36467.89
527.01	36400.01
527.18	36299.37
527.36	36783.86
527.53	36692.58
527.70	36971.10
527.87	36933.65
528.04	37010.89
528.21	37338.57
528.38	36989.83
528.55	37158.34
528.72	37144.30
528.89	37277.71
529.07	36851.73
529.24	37038.98
529.41	37581.98
529.58	37563.26
529.75	37406.44
529.92	37682.62
530.09	37734.12
530.26	37574.96
530.43	37832.42
530.60	37404.10
530.77	37560.92
530.94	38328.61
531.11	37949.45
531.28	38054.77
531.46	37949.45
531.63	38092.22
531.80	38433.94
531.97	38089.88
532.14	38513.52
532.31	38164.78
532.48	38754.59
532.65	38768.63
532.82	38410.53
532.99	38487.77
533.16	38726.50
533.33	38520.54
533.50	38501.81
533.67	39147.80
533.84	38693.74
534.01	38827.15
534.18	38616.50
534.35	39234.40
534.52	39049.50
534.69	39477.82
534.86	39632.29
535.03	38899.70
535.20	39248.44
535.37	39374.83
535.54	39416.96
535.71	39461.43
535.88	39503.56
536.05	39714.21
536.22	39543.35
536.38	39442.71
536.55	39276.53
536.72	40107.42
536.89	39662.72
537.06	39718.89
537.23	39826.56
537.40	39854.64
537.57	39431.01
537.74	40048.91
537.91	40271.26
538.08	39646.33
538.25	40170.61
538.42	40282.96
538.59	40596.59
538.75	40062.95
538.92	40566.16
539.09	40470.20
539.26	40222.11
539.43	40577.87
539.60	40502.97
539.77	40367.22
539.94	40713.62
540.11	40980.44
540.28	40957.03
540.44	40594.25
540.61	40863.41
540.78	40495.95
540.95	40875.12
541.12	41029.59
541.29	40971.08
541.46	41219.17
541.62	40832.99
541.79	41497.70
541.96	40980.44
542.13	40769.79
542.30	41446.21
542.47	41549.19
542.63	41289.39
542.80	41493.02
542.97	41841.76
543.14	41750.48
543.31	41504.72
543.48	41537.49
543.64	41794.95
543.81	42347.31
543.98	41883.89
544.15	42232.63
544.32	42539.24
544.48	42426.89
544.65	42326.25
544.82	42478.38
544.99	42293.48
545.16	42349.65
545.32	42047.72
545.49	42546.26
545.66	42761.59
545.83	42253.69
546.00	42389.44
546.16	42333.27
546.33	42342.63
546.50	42452.64
546.67	42803.72
546.83	42190.50
547.00	42749.88
547.17	42761.59
547.34	42618.81
547.50	42646.90
547.67	42810.74
547.84	42993.30
548.00	43313.95
548.17	43454.39
548.34	43264.80
548.51	43250.76
548.67	43480.13
548.84	43356.08
549.01	43014.37
549.18	43438.00
549.34	43622.90
549.51	43782.06
549.68	43531.62
549.84	43295.23
550.01	43690.78
550.18	43482.47
550.34	43494.18
550.51	43938.88
550.68	43695.46
550.84	43707.16
551.01	43697.80
551.18	43648.65
551.34	44002.07
551.51	43945.90
551.68	43875.68
551.84	43728.23
552.01	43821.85
552.18	43819.51
552.34	43950.58
552.51	44004.41
552.68	43966.96
552.84	44048.88
553.01	44451.45
553.18	43981.01
553.34	44442.09
553.51	43920.15
553.67	44058.24
553.84	44142.50
554.01	44278.25
554.17	44367.20
554.34	44737.00
554.51	44374.22
554.67	44863.39
554.84	44804.88
555.00	44538.05
555.17	44650.40
555.33	44566.14
555.50	44601.25
555.67	44758.06
555.83	45127.87
556.00	44685.51
556.16	45097.44
556.33	44875.09
556.50	44470.18
556.66	44856.37
556.83	44842.32
556.99	45102.12
557.16	45282.34
557.32	45296.39
557.49	45635.77
557.65	44676.15
557.82	44830.62
557.98	45270.64
558.15	45240.21
558.32	45130.21
558.48	45177.02
558.65	45013.18
558.81	45205.11
558.98	44987.44
559.14	45303.41
559.31	45469.59
559.47	45083.40
559.64	45359.58
559.80	45457.88
559.97	45780.88
560.13	45090.42
560.30	45186.38
560.46	45670.87
560.63	45656.83
560.79	45773.86
560.96	45904.93
561.12	45881.52
561.29	45642.79
561.45	45893.22
561.61	45448.52
561.78	45462.57
561.94	45958.76
562.11	45425.12
562.27	45436.82
562.44	45595.98
562.60	45745.77
562.77	46068.76
562.93	45315.11
563.10	45799.60
563.26	46227.92
563.42	46501.76
563.59	45593.64
563.75	45811.31
563.92	46241.96
564.08	45595.98
564.24	46770.93
564.41	45525.76
564.57	46155.36
564.74	46483.04
564.90	46131.96
565.07	46103.87
565.23	45710.66
565.39	45930.67
565.56	45982.16
565.72	46005.57
565.88	45951.74
566.05	46078.13
566.21	46260.69
566.38	46160.05
566.54	46230.26
566.70	46038.34
566.87	46277.07
567.03	46127.28
567.19	46581.34
567.36	46195.15
567.52	46403.46
567.68	46197.49
567.85	45904.93
568.01	46529.85
568.17	46630.49
568.34	46377.72
568.50	46263.03
568.66	46162.39
568.83	46478.36
568.99	46300.48
569.15	46293.46
569.32	46373.03
569.48	46586.02
569.64	46918.38
569.81	46691.35
569.97	47026.04
570.13	46796.67
570.30	46429.21
570.46	46504.10
570.62	46354.31
570.78	46499.42
570.95	46731.14
571.11	46571.98
571.27	46595.38
571.43	46665.60
571.60	46356.65
571.76	46422.19
571.92	46663.26
572.09	46703.05
572.25	46679.64
572.41	46564.96
572.57	46717.09
572.74	46990.94
572.90	46700.71
573.06	47047.11
573.22	47271.80
573.38	46955.83
573.55	47152.43
573.71	47412.23
573.87	46820.08
574.03	46724.11
574.20	47325.63
574.36	47016.68
574.52	46487.72
574.68	47019.02
574.84	47117.32
575.01	47271.80
575.17	47180.52
575.33	47068.17
575.49	46850.50
575.65	47339.68
575.82	46831.78
575.98	46696.03
576.14	46948.81
576.30	47342.02
576.46	47077.54
576.62	46983.91
576.79	46972.21
576.95	46471.34
577.11	46932.42
577.27	47138.39
577.43	47325.63
577.59	46864.55
577.75	46829.44
577.92	46979.23
578.08	46782.63
578.24	47056.47
578.40	47086.90
578.56	47262.44
578.72	47068.17
578.88	47079.88
579.04	47194.56
579.21	47248.39
579.37	46817.74
579.53	47103.28
579.69	47103.28
579.85	46899.65
580.01	47524.58
580.17	47047.11
580.33	47103.28
580.49	47103.28
580.65	47070.51
580.82	47232.01
580.98	46813.05
581.14	47309.25
581.30	47320.95
581.46	47096.26
581.62	46890.29
581.78	46700.71
581.94	47395.85
582.10	47573.73
582.26	47299.89
582.42	47342.02
582.58	47227.33
582.74	47323.29
582.90	47512.88
583.06	47550.32
583.22	47007.32
583.38	47559.69
583.54	47346.70
583.70	47297.55
583.86	47210.95
584.02	47255.42
584.18	47908.43
584.34	47185.20
584.50	47374.78
584.66	47594.79
584.82	47201.58
584.98	47756.29
585.14	47229.67
585.30	47533.94
585.46	47154.77
585.62	47215.63
585.78	47299.89
585.94	47374.78
586.10	47327.97
586.26	47550.32
586.42	47714.16
586.58	47468.40
586.74	47489.47
586.90	47091.58
587.06	47215.63
587.22	47522.24
587.38	46902.00
587.54	47672.03
587.70	47580.75
587.86	47484.79
588.02	47040.09
588.18	47330.31
588.34	47423.93
588.49	47508.19
588.65	47601.82
588.81	47384.15
588.97	47505.85
589.13	47239.03
589.29	47342.02
589.45	47760.97
589.61	47519.90
589.77	47608.84
589.93	47442.66
590.08	47819.49
590.24	47903.74
590.40	47924.81
590.56	48037.16
590.72	47903.74
590.88	47393.51
591.04	47732.89
591.20	47903.74
591.35	48060.56
591.51	47711.82
591.67	48013.75
591.83	48486.54
591.99	47746.93
592.15	47976.30
592.31	47384.15
592.46	48149.50
592.62	48119.07
592.78	48107.37
592.94	48041.84
593.10	48179.93
593.26	48198.65
593.41	48208.01
593.57	47831.19
593.73	47922.47
593.89	48334.40
594.05	48395.26
594.20	47983.32
594.36	48381.21
594.52	48107.37
594.68	47894.38
594.84	48072.26
594.99	48336.74
595.15	48093.33
595.31	48109.71
595.47	48233.76
595.62	47854.59
595.78	47625.22
595.94	48119.07
596.10	48458.45
596.25	48289.93
596.41	48369.51
596.57	48041.84
596.73	48165.88
596.88	48425.68
597.04	48168.22
597.20	48385.89
597.36	48367.17
597.51	48299.30
597.67	47550.32
597.83	47941.19
597.99	48266.53
598.14	48325.04
598.30	48135.46
598.46	47468.40
598.61	48523.99
598.77	48371.85
598.93	48683.14
599.09	48191.63
599.24	48502.92
599.40	48233.76
599.56	48191.63
599.71	48610.59
599.87	48718.25
600.03	48708.89
600.18	48683.14
600.34	48065.24
600.50	48570.80
600.65	48240.78
600.81	48535.69
600.97	48575.48
601.12	48285.25
601.28	48580.16
601.44	48285.25
601.59	48488.88
601.75	48147.16
601.91	48240.78
602.06	48219.72
602.22	48261.85
602.37	48083.97
602.53	48346.11
602.69	48556.75
602.84	48339.08
603.00	48453.77
603.16	48456.11
603.31	48046.52
603.47	48177.59
603.62	48397.60
603.78	48357.81
603.94	48477.18
604.09	48062.90
604.25	48013.75
604.40	48392.92
604.56	48133.12
604.71	48603.56
604.87	48231.42
605.03	48112.05
605.18	48451.43
605.34	48383.55
605.49	48133.12
605.65	48549.73
605.80	47908.43
605.96	47917.79
606.12	47927.15
606.27	48264.19
606.43	48264.19
606.58	48299.30
606.74	48093.33
606.89	48058.22
607.05	48540.37
607.20	48175.25
607.36	47870.98
607.51	48128.44
607.67	47978.64
607.82	48144.82
607.98	47917.79
608.13	47882.68
608.29	48170.57
608.44	48315.68
608.60	47807.78
608.75	47931.83
608.91	47903.74
609.06	47578.41
609.22	48032.47
609.37	48011.41
609.53	47992.68
609.68	48301.64
609.84	48119.07
609.99	47688.42
610.15	48170.57
610.30	48053.54
610.46	47622.88
610.61	48198.65
610.76	48465.47
610.92	47690.76
611.07	48051.20
611.23	47988.00
611.38	48442.07
611.54	47915.45
611.69	48231.42
611.84	47983.32
612.00	47393.51
612.15	47770.33
612.31	47807.78
612.46	47484.79
612.62	47828.85
612.77	47646.29
612.92	47880.34
613.08	47854.59
613.23	47941.19
613.39	47473.09
613.54	47606.50
613.69	47679.05
613.85	47274.14
614.00	47700.12
614.15	47927.15
614.31	47349.04
614.46	47433.30
614.62	47140.73
614.77	47356.06
614.92	47672.03
615.08	47714.16
615.23	47522.24
615.38	47662.67
615.54	47643.94
615.69	47786.72
615.84	47861.61
616.00	47611.18
616.15	47517.56
616.30	47723.52
616.46	47515.22
616.61	47171.16
616.76	47395.85
616.92	47374.78
617.07	47489.47
617.22	46747.52
617.37	47107.96
617.53	47510.53
617.68	47042.43
617.83	47159.45
617.99	47562.03
618.14	47519.90
618.29	46983.91
618.45	47070.51
618.60	47468.40
618.75	46698.37
618.90	47136.05
619.06	47056.47
619.21	46775.61
619.36	47164.14
619.51	47150.09
619.67	46731.14
619.82	47084.56
619.97	47166.48
620.12	46976.89
620.28	46878.59
620.43	47147.75
620.58	46731.14
620.73	47009.66
620.89	47248.39
621.04	46934.76
621.19	46724.11
621.34	46911.36
621.49	46579.00
621.65	47077.54
621.80	46953.49
621.95	46550.91
622.10	46892.63
622.25	46855.18
622.41	46520.49
622.56	46869.23
622.71	46562.62
622.86	46476.02
623.01	46806.03
623.16	46827.10
623.32	46567.30
623.47	46469.00
623.62	46183.45
623.77	46450.27
623.92	46363.67
624.07	46497.08
624.23	46754.54
624.38	46897.31
624.53	46316.86
624.68	45914.29
624.83	46473.68
624.98	46192.81
625.13	45970.46
625.29	46225.58
625.44	46412.82
625.59	46131.96
625.74	46321.54
625.89	45757.47
626.04	45528.10
626.19	46164.73
626.34	45977.48
626.49	45921.31
626.65	45808.96
626.80	45897.91
626.95	45790.24
627.10	45902.59
627.25	45991.53
627.40	46000.89
627.55	46234.94
627.70	45572.57
627.85	45818.33
628.00	45935.35
628.15	46005.57
628.30	45586.61
628.45	45432.14
628.60	45308.09
628.76	45542.14
628.91	45874.50
629.06	45738.75
629.21	45495.33
629.36	45581.93
629.51	45736.41
629.66	45745.77
629.81	45471.93
629.96	45687.26
630.11	45890.88
630.26	45420.44
630.41	45820.67
630.56	45324.47
630.71	45240.21
630.86	45382.99
631.01	44886.79
631.16	45174.68
631.31	45228.51
631.46	45048.29
631.61	45303.41
631.76	45198.09
631.91	45525.76
632.06	46096.85
632.21	45158.30
632.36	45195.74
632.51	44987.44
632.66	45036.59
632.81	45263.62
632.96	45043.61
633.10	45127.87
633.25	45202.77
633.40	44877.43
633.55	45235.53
633.70	44978.07
633.85	45111.49
634.00	44343.79
634.15	45034.25
634.30	45083.40
634.45	44493.58
634.60	44662.10
634.75	45097.44
634.90	45174.68
635.05	44875.09
635.19	44577.84
635.34	44657.42
635.49	44479.54
635.64	44435.07
635.79	44671.46
635.94	44638.70
636.09	44774.45
636.24	44844.66
636.39	44325.07
636.53	44512.31
636.68	44460.82
636.83	44116.76
636.98	43959.94
637.13	44163.57
637.28	44163.57
637.43	44236.12
637.57	44339.11
637.72	43997.39
637.87	44254.85
638.02	44336.77
638.17	43978.67
638.32	44119.10
638.46	43564.39
638.61	43835.89
638.76	43824.19
638.91	43756.32
639.06	43653.33
639.20	43763.34
639.35	43761.00
639.50	43374.81
639.65	43817.17
639.80	43707.16
639.94	44198.68
640.09	44538.05
640.24	44107.40
640.39	43526.94
640.54	43536.30
640.68	44081.65
640.83	43896.75
640.98	43587.80
641.13	43400.55
641.27	44243.15
641.42	43489.49
641.57	43686.10
641.72	43379.49
641.86	43594.82
642.01	43154.80
642.16	43508.22
642.31	43100.97
642.45	43447.36
642.60	43115.01
642.75	43260.12
642.90	43421.62
643.04	43386.51
643.19	43391.19
643.34	43306.93
643.48	42768.61
643.63	43051.81
643.78	43161.82
643.93	43435.66
644.07	43430.98
644.22	43349.06
644.37	42995.64
644.51	43175.86
644.66	43407.58
644.81	42967.55
644.95	43377.15
645.10	43241.40
645.25	42813.08
645.39	42574.34
645.54	42927.77
645.69	42747.54
645.83	42340.29
645.98	42934.79
646.13	42555.62
646.27	42639.88
646.42	42787.33
646.57	42784.99
646.71	42799.04
646.86	43005.00
647.00	42691.37
647.15	42796.70
647.30	42820.10
647.44	42600.09
647.59	41944.74
647.74	42625.84
647.88	42813.08
648.03	42452.64
648.17	42983.94
648.32	43040.11
648.47	42911.38
648.61	42115.60
648.76	42536.90
648.90	42171.77
649.05	42520.51
649.20	41965.81
649.34	42527.53
649.49	42412.85
649.63	42162.41
649.78	42550.94
649.92	42234.97
650.07	42768.61
650.21	42146.03
650.36	42611.79
650.51	42326.25
650.65	42295.82
650.80	42185.82
650.94	42351.99
651.09	41993.89
651.23	41862.82
651.38	42012.62
651.52	41415.78
651.67	41867.50
651.81	41818.35
651.96	41783.24
652.10	41780.90
652.25	41691.96
652.39	41897.93
652.54	41785.58
652.68	41677.92
652.83	41549.19
652.97	41865.16
653.12	41663.88
653.26	41710.69
653.41	41790.27
653.55	41511.74
653.70	41972.83
653.84	41886.23
653.99	41724.73
654.13	41368.97
654.27	41268.33
654.42	41633.45
654.56	41102.15
654.71	41303.43
654.85	41483.66
655.00	41680.26
655.14	41825.37
655.29	41619.41
655.43	41715.37
655.57	41401.74
655.72	41273.01
655.86	41226.20
656.01	40928.95
656.15	40975.76
656.30	41113.85
656.44	41666.22
656.58	40879.80
656.73	41116.19
656.87	40825.96
657.01	40601.27
657.16	41310.46
657.30	41088.10
657.45	40971.08
657.59	40601.27
657.73	40655.11
657.88	40872.78
658.02	41015.55
658.16	41322.16
658.31	40421.05
658.45	41163.00
658.60	40575.53
658.74	40840.01
658.88	40783.83
659.03	40421.05
659.17	40407.01
659.31	40189.34
659.46	40730.00
659.60	40584.89
659.74	40575.53
659.89	40210.40
660.03	39775.06
660.17	40297.00
660.32	40165.93
660.46	39852.30
660.60	39414.62
660.74	39892.09
660.89	40144.87
661.03	39838.26
661.17	39512.92
661.32	39971.67
661.46	40016.14
661.60	39711.87
661.74	39332.70
661.89	39459.09
662.03	39779.74
662.17	39208.65
662.31	39257.81
662.46	39360.79
662.60	38792.04
662.74	39290.57
662.88	39084.61
663.03	38850.55
663.17	38990.98
663.31	38766.29
663.45	39152.48
663.60	38869.28
663.74	38976.94
663.88	38803.74
664.02	38501.81
664.17	39239.08
664.31	38815.44
664.45	38550.96
664.59	38850.55
664.73	38499.47
664.88	38345.00
665.02	38792.04
665.16	38644.59
665.30	38239.67
665.44	38272.44
665.59	38190.52
665.73	37949.45
665.87	38014.98
666.01	38082.86
666.15	37912.00
666.29	37827.74
666.44	38359.04
666.58	38279.46
666.72	37722.41
666.86	37783.27
667.00	37652.20
667.14	37567.94
667.28	37254.31
667.43	37195.79
667.57	37717.73
667.71	37790.29
667.85	37713.05
667.99	37390.06
668.13	37186.43
668.27	36931.31
668.41	37048.34
668.56	36601.30
668.70	36528.74
668.84	36730.03
668.98	37001.53
669.12	36924.29
669.26	36807.26
669.40	36680.88
669.54	36355.54
669.68	36484.27
669.82	36425.76
669.96	36065.31
670.10	36067.66
670.25	35917.86
670.39	35812.54
670.53	36673.85
670.67	36350.86
670.81	36226.81
670.95	36116.81
671.09	35875.73
671.23	35747.00
671.37	36154.26
671.51	35508.27
671.65	35381.88
671.79	35487.20
671.93	35440.39
672.07	35632.32
672.21	35564.44
672.35	35318.68
672.49	35129.10
672.63	35335.07
672.77	35110.38
672.91	35292.94
673.05	34890.37
673.19	35257.83
673.33	34518.22
673.47	34693.76
673.61	34555.67
673.75	34408.22
673.89	34820.15
674.03	34132.03
674.17	34293.53
674.31	34101.61
674.45	33872.23
674.59	34260.76
674.73	34054.79
674.87	33603.07
675.01	33895.64
675.15	33284.76
675.29	33408.81
675.43	33310.50
675.56	33591.37
675.70	33153.69
675.84	33179.43
675.98	32336.84
676.12	32914.95
676.26	33179.43
676.40	32851.76
676.54	32587.28
676.68	32847.08
676.82	32294.71
676.96	32741.75
677.10	32788.56
677.23	32519.40
677.37	32524.08
677.51	32161.30
677.65	32470.25
677.79	32278.33
677.93	32130.87
678.07	31824.26
678.21	31295.30
678.34	31887.46
678.48	31316.37
678.62	31641.70
678.76	31213.38
678.90	31278.92
679.04	31328.07
679.18	31292.96
679.31	31309.35
679.45	30962.95
679.59	30731.23
679.73	31124.44
679.87	30316.96
680.00	30740.60
680.14	30576.76
680.28	30431.65
680.42	30473.78
680.56	30541.65
680.70	29949.50
680.83	29713.10
680.97	29874.60
681.11	29926.09
681.25	29661.61
681.39	29411.17
681.52	29652.25
681.66	29343.30
681.80	29142.01
681.94	28694.97
682.07	28613.05
682.21	28418.78
682.35	28283.03
682.49	28980.51
682.62	28739.44
682.76	28769.86
682.90	28549.85
683.04	28182.39
683.17	28411.76
683.31	28114.52
683.45	27833.65
683.59	27861.74
683.72	27580.87
683.86	28048.98
684.00	27489.59
684.13	27487.25
684.27	27388.95
684.41	27363.20
684.55	27360.86
684.68	27243.84
684.82	27356.18
684.96	27243.84
685.09	26913.82
685.23	26977.01
685.37	27456.82
685.50	27215.75
685.64	26569.76
685.78	26504.23
685.91	26436.35
686.05	26249.11
686.19	25631.21
686.32	26026.76
686.46	25500.14
686.60	25759.94
686.73	25703.76
686.87	25652.27
687.01	26057.18
687.14	25490.77
687.28	25659.29
687.42	25287.15
687.55	25111.61
687.69	25221.61
687.82	24573.28
687.96	24861.17
688.10	25221.61
688.23	24788.61
688.37	25060.12
688.50	24896.28
688.64	24772.23
688.78	24278.38
688.91	24163.69
689.05	24119.22
689.18	24095.82
689.32	23740.05
689.46	23562.17
689.59	24081.77
689.73	24070.07
689.86	23735.37
690.00	23660.48
690.13	23686.22
690.27	23161.94
690.41	23491.96
690.54	23110.45
690.68	23140.88
690.81	22724.26
690.95	22984.06
691.08	22766.39
691.22	22544.04
691.35	22345.09
691.49	22864.69
691.62	22647.02
691.76	22190.62
691.89	22270.20
692.03	21813.79
692.16	21893.37
692.30	21860.60
692.43	21965.93
692.57	21570.38
692.70	21460.37
692.84	21563.36
692.97	21238.02
693.11	21233.34
693.24	21223.98
693.38	21116.31
693.51	21245.04
693.65	20844.81
693.78	20776.94
693.92	20627.14
694.05	20802.68
694.19	20954.82
694.32	20397.77
694.45	20702.04
694.59	20772.25
694.72	20582.67
694.86	20285.42
694.99	20102.86
695.13	20156.69
695.26	19896.89
695.39	19281.33
695.53	19496.66
695.66	19852.42
695.80	19613.69
695.93	19924.98
696.07	19044.94
696.20	19145.58
696.33	18916.21
696.47	19002.81
696.60	19094.09
696.73	19157.28
696.87	18930.25
697.00	18693.86
697.14	18721.95
697.27	18508.96
697.40	18317.03
697.54	18246.82
697.67	18363.84
697.80	18347.46
697.94	18480.87
698.07	18054.89
698.21	18178.94
698.34	17865.31
698.47	17940.21
698.61	17366.78
698.74	17493.16
698.87	17331.67
699.01	17703.81
699.14	17591.47
699.27	17568.06
699.40	17348.05
699.54	17069.53
699.67	17039.10
699.80	17142.08
699.94	17149.11
700.07	16947.82
700.20	17020.38
700.34	16786.32
700.47	16889.31
700.60	16561.63
700.73	16772.28
700.87	16479.71
701.00	16435.24
701.13	16418.86
701.26	16294.81
701.40	16318.22
701.53	15894.58
701.66	15943.73
701.79	15920.32
701.93	15637.12
702.06	15555.20
702.19	15452.22
702.32	15864.15
702.46	15695.63
702.59	16035.01
702.72	15714.36
702.85	15646.48
702.99	15239.23
703.12	15302.42
703.25	14960.70
703.38	15136.24
703.51	14843.68
703.65	14988.79
703.78	14410.68
703.91	14516.00
704.04	14677.50
704.17	14497.28
704.31	14417.70
704.44	14677.50
704.57	14303.01
704.70	14185.99
704.83	14235.14
704.96	14228.12
705.10	14094.71
705.23	13893.42
>>>>>End Processed Spectral Data<<<<<
