SpectraSuite Data File
++++++++++++++++++++++++++++++++++++
Date: Fri Oct 25 10:47:31 EDT 2013
User: price-jones
Dark Spectrum Present: No
Reference Spectrum Present: No
Number of Sampled Component Spectra: 1
Spectrometers: USB2+H05261
Integration Time (usec): 100000 (USB2+H05261)
Spectra Averaged: 1 (USB2+H05261)
Boxcar Smoothing: 0 (USB2+H05261)
Correct for Electrical Dark: No (USB2+H05261)
Strobe/Lamp Enabled: No (USB2+H05261)
Correct for Detector Non-linearity: No (USB2+H05261)
Correct for Stray Light: No (USB2+H05261)
Number of Pixels in Processed Spectrum: 2048
>>>>>Begin Processed Spectral Data<<<<<
365.73	140.43
365.92	140.43
366.12	140.43
366.32	58.51
366.52	0.00
366.72	0.00
366.91	23.41
367.11	72.56
367.31	0.00
367.51	100.64
367.70	0.00
367.90	56.17
368.10	23.41
368.30	0.00
368.49	0.00
368.69	88.94
368.89	39.79
369.09	49.15
369.28	124.05
369.48	0.00
369.68	95.96
369.87	105.32
370.07	88.94
370.27	138.09
370.47	257.46
370.66	341.72
370.86	468.11
371.06	477.47
371.25	402.57
371.45	416.62
371.65	461.09
371.84	383.85
372.04	440.02
372.24	500.87
372.44	411.93
372.63	447.04
372.83	479.81
373.03	533.64
373.22	468.11
373.42	552.37
373.62	463.43
373.81	512.58
374.01	589.82
374.21	461.09
374.40	514.92
374.60	533.64
374.79	575.77
374.99	550.03
375.19	622.58
375.38	599.18
375.58	491.51
375.78	575.77
375.97	617.90
376.17	608.54
376.37	500.87
376.56	524.28
376.76	543.00
376.95	582.79
377.15	615.56
377.35	674.07
377.54	585.13
377.74	578.11
377.93	557.05
378.13	573.43
378.33	624.92
378.52	678.76
378.72	655.35
378.91	620.24
379.11	582.79
379.31	561.73
379.50	521.94
379.70	587.47
379.89	671.73
380.09	648.33
380.28	559.39
380.48	615.56
380.68	664.71
380.87	535.98
381.07	641.31
381.26	613.22
381.46	587.47
381.65	690.46
381.85	662.37
382.04	683.44
382.24	676.41
382.43	650.67
382.63	807.48
382.83	697.48
383.02	636.63
383.22	744.29
383.41	657.69
383.61	760.67
383.80	786.42
384.00	674.07
384.19	786.42
384.39	650.67
384.58	800.46
384.78	748.97
384.97	727.91
385.17	699.82
385.36	697.48
385.56	709.18
385.75	720.88
385.95	755.99
386.14	826.21
386.34	720.88
386.53	730.25
386.72	713.86
386.92	751.31
387.11	791.10
387.31	809.83
387.50	798.12
387.70	798.12
387.89	847.27
388.09	819.19
388.28	805.14
388.48	875.36
388.67	786.42
388.86	788.76
389.06	884.72
389.25	887.06
389.45	835.57
389.64	826.21
389.84	896.43
390.03	908.13
390.22	971.32
390.42	905.79
390.61	926.85
390.81	901.11
391.00	964.30
391.19	929.19
391.39	901.11
391.58	908.13
391.78	873.02
391.97	994.73
392.16	851.96
392.36	987.71
392.55	919.83
392.75	997.07
392.94	908.13
393.13	945.58
393.33	978.34
393.52	915.15
393.71	1013.45
393.91	940.90
394.10	1036.86
394.29	1027.50
394.49	1029.84
394.68	1011.11
394.88	1057.92
395.07	1139.84
395.26	1100.05
395.46	1104.73
395.65	1090.69
395.84	1050.90
396.04	1207.72
396.23	1174.95
396.42	1111.75
396.62	1233.46
396.81	1142.18
397.00	1118.78
397.19	1076.65
397.39	1144.52
397.58	1203.04
397.77	1186.65
397.97	1240.48
398.16	1238.14
398.35	1275.59
398.55	1174.95
398.74	1289.64
398.93	1275.59
399.12	1256.87
399.32	1238.14
399.51	1348.15
399.70	1341.13
399.90	1306.02
400.09	1254.53
400.28	1341.13
400.47	1331.76
400.67	1446.45
400.86	1416.02
401.05	1364.53
401.24	1455.81
401.44	1514.33
401.63	1425.39
401.82	1549.43
402.01	1338.79
402.21	1451.13
402.40	1472.20
402.59	1481.56
402.78	1502.62
402.97	1474.54
403.17	1640.72
403.36	1586.88
403.55	1568.16
403.74	1666.46
403.93	1572.84
404.13	1584.54
404.32	1657.10
404.51	1621.99
404.70	1593.90
404.89	1589.22
405.09	1727.32
405.28	1687.53
405.47	1584.54
405.66	1724.97
405.85	1720.29
406.05	1659.44
406.24	1680.50
406.43	1741.36
406.62	1853.70
406.81	1769.44
407.00	1797.53
407.20	1685.19
407.39	1820.94
407.58	1816.26
407.77	1872.43
407.96	1947.33
408.15	1926.26
408.34	1891.15
408.54	1895.83
408.73	1937.96
408.92	1900.52
409.11	1977.75
409.30	2101.80
409.49	1940.30
409.68	1926.26
409.87	2083.08
410.07	2010.52
410.26	2033.93
410.45	2101.80
410.64	2143.93
410.83	2279.68
411.02	2134.57
411.21	2160.31
411.40	2122.87
411.59	2258.62
411.78	2298.41
411.98	2260.96
412.17	2331.17
412.36	2305.43
412.55	2275.00
412.74	2408.41
412.93	2275.00
413.12	2284.36
413.31	2532.46
413.50	2429.48
413.69	2462.24
413.88	2572.25
414.07	2478.63
414.26	2462.24
414.45	2555.86
414.64	2530.12
414.83	2600.34
415.02	2586.29
415.22	2654.17
415.41	2684.59
415.60	2703.32
415.79	2839.07
415.98	2810.98
416.17	2848.43
416.36	2836.73
416.55	2848.43
416.74	2825.03
416.93	2808.64
417.12	2813.32
417.31	2951.42
417.50	2918.65
417.69	2970.14
417.88	2895.24
418.07	3021.63
418.26	2920.99
418.45	3098.87
418.64	3063.76
418.83	3089.51
419.02	3141.00
419.21	3089.51
419.39	3190.15
419.58	3054.40
419.77	3045.04
419.96	3162.06
420.15	3169.09
420.34	3206.53
420.53	3166.74
420.72	3211.22
420.91	3204.19
421.10	3283.77
421.29	3396.12
421.48	3222.92
421.67	3311.86
421.86	3328.24
422.05	3323.56
422.24	3234.62
422.43	3300.16
422.61	3435.91
422.80	3391.44
422.99	3435.91
423.18	3445.27
423.37	3597.40
423.56	3438.25
423.75	3400.80
423.94	3529.53
424.13	3218.24
424.32	3286.11
424.50	3452.29
424.69	3475.70
424.88	3517.83
425.07	3379.73
425.26	3417.18
425.45	3548.25
425.64	3480.38
425.83	3431.23
426.01	3496.76
426.20	3400.80
426.39	3578.68
426.58	3510.80
426.77	3557.61
426.96	3485.06
427.15	3487.40
427.33	3557.61
427.52	3609.11
427.71	3630.17
427.90	3625.49
428.09	3679.32
428.28	3583.36
428.46	3721.45
428.65	3667.62
428.84	3751.88
429.03	3721.45
429.22	3707.41
429.40	3648.90
429.59	3681.66
429.78	3641.87
429.97	3517.83
430.16	3602.08
430.34	3768.26
430.53	3927.42
430.72	3763.58
430.91	3779.97
431.10	3770.60
431.28	3943.80
431.47	4081.89
431.66	4072.53
431.85	3936.78
432.03	4077.21
432.22	4063.17
432.41	4035.08
432.60	4117.00
432.79	4159.13
432.97	4124.02
433.16	4152.11
433.35	3997.64
433.54	4074.87
433.72	4215.30
433.91	4152.11
434.10	4166.15
434.28	4308.93
434.47	4271.48
434.66	4231.69
434.85	4344.03
435.03	4329.99
435.22	4313.61
435.41	4458.72
435.59	4325.31
435.78	4360.42
435.97	4507.87
436.16	4428.29
436.34	4430.63
436.53	4554.68
436.72	4706.82
436.90	4475.10
437.09	4554.68
437.28	4533.62
437.46	4503.19
437.65	4482.13
437.84	4627.24
438.02	4622.56
438.21	4617.88
438.40	4517.23
438.58	4748.95
438.77	4802.78
438.96	4858.95
439.14	4807.46
439.33	5060.24
439.52	4922.15
439.70	4809.80
439.89	4945.55
440.08	5029.81
440.26	5111.73
440.45	5025.13
440.63	5060.24
440.82	5198.33
441.01	5177.26
441.19	5291.95
441.38	5317.70
441.57	5310.68
441.75	5270.89
441.94	5558.77
442.12	5568.13
442.31	5624.31
442.50	5502.60
442.68	5495.58
442.87	5523.66
443.05	5425.36
443.24	5729.63
443.43	5664.10
443.61	5612.60
443.80	5764.74
443.98	5507.28
444.17	5481.53
444.35	5650.05
444.54	5783.46
444.73	5687.50
444.91	5640.69
445.10	5659.42
445.28	5760.06
445.47	5696.86
445.65	5760.06
445.84	5804.53
446.02	5720.27
446.21	5727.29
446.39	5689.84
446.58	5746.02
446.77	5912.19
446.95	5647.71
447.14	5708.57
447.32	5809.21
447.51	5827.93
447.69	5640.69
447.88	5769.42
448.06	5851.34
448.25	5802.19
448.43	5872.40
448.62	5947.30
448.80	5827.93
448.99	5870.06
449.17	5804.53
449.36	5839.64
449.54	6033.90
449.73	6026.88
449.91	6139.23
450.10	6221.14
450.28	6265.61
450.46	6167.31
450.65	6265.61
450.83	6342.85
451.02	6394.34
451.20	6431.79
451.39	6258.59
451.57	6174.33
451.76	6274.98
451.94	6228.17
452.13	6436.47
452.31	6216.46
452.49	6282.00
452.68	6431.79
452.86	6413.07
453.05	6494.99
453.23	6340.51
453.42	6373.28
453.60	6408.39
453.78	6527.75
453.97	6565.20
454.15	6567.54
454.34	6485.62
454.52	6490.31
454.70	6459.88
454.89	6492.65
455.07	6509.03
455.26	6635.42
455.44	6740.74
455.62	6789.89
455.81	6705.63
455.99	6729.04
456.17	6773.51
456.36	6817.98
456.54	7063.74
456.73	7007.56
456.91	7267.36
457.09	7077.78
457.28	7213.53
457.46	6925.65
457.64	7012.24
457.83	7286.09
458.01	6913.94
458.19	7176.08
458.38	7066.08
458.56	7335.24
458.74	7330.56
458.93	7178.42
459.11	7234.60
459.29	7157.36
459.48	7302.47
459.66	7335.24
459.84	7382.05
460.03	7300.13
460.21	7368.01
460.39	7466.31
460.57	7342.26
460.76	7590.36
460.94	7559.93
461.12	7527.16
461.31	7576.31
461.49	7461.63
461.67	7389.07
461.85	7768.24
462.04	7595.04
462.22	8081.87
462.40	7901.65
462.59	7758.88
462.77	7871.22
462.95	7740.15
463.13	7777.60
463.32	7796.32
463.50	8037.40
463.68	7889.95
463.86	7838.45
464.05	7932.08
464.23	7637.17
464.41	8044.42
464.59	7878.24
464.78	8173.15
464.96	7985.91
465.14	8049.10
465.32	8056.12
465.50	8088.89
465.69	8351.03
465.87	7971.86
466.05	7981.23
466.23	8067.83
466.41	8243.37
466.60	8297.20
466.78	8042.08
466.96	8037.40
467.14	8154.43
467.32	8241.03
467.51	8322.94
467.69	8084.21
467.87	8301.88
468.05	8416.57
468.23	8264.43
468.41	8404.86
468.60	8327.63
468.78	8549.98
468.96	8362.73
469.14	8521.89
469.32	8786.37
469.50	8381.46
469.69	8542.96
469.87	8638.92
470.05	8533.59
470.23	8758.28
470.41	8833.18
470.59	8985.32
470.77	8814.46
470.95	9034.47
471.14	8868.29
471.32	8915.10
471.50	8854.25
471.68	9008.72
471.86	9107.02
472.04	9144.47
472.22	9212.35
472.40	8997.02
472.58	8997.02
472.77	9062.55
472.95	9399.59
473.13	9621.94
473.31	9071.92
473.49	9355.12
473.67	9390.23
473.85	9430.02
474.03	9678.12
474.21	9741.31
474.39	9973.02
474.57	9895.78
474.75	9626.62
474.93	10045.58
475.12	9940.26
475.30	10047.92
475.48	9848.97
475.66	10083.03
475.84	10134.52
476.02	10143.88
476.20	10076.01
476.38	10485.60
476.56	10719.65
476.74	10651.78
476.92	10246.87
477.10	10609.65
477.28	10448.15
477.46	10626.03
477.64	10626.03
477.82	10913.92
478.00	11356.28
478.18	11091.80
478.36	11101.16
478.54	11173.72
478.72	11309.47
478.90	11543.52
479.08	11508.41
479.26	11719.06
479.44	11517.78
479.62	11793.96
479.80	12063.12
479.98	11978.86
480.16	12212.92
480.34	12028.01
480.52	12250.36
480.70	12163.76
480.88	11812.68
481.06	12365.05
481.24	12343.99
481.41	12571.02
481.59	12798.05
481.77	12823.80
481.95	12980.61
482.13	12765.28
482.31	12912.74
482.49	13198.28
482.67	13401.91
482.85	13411.27
483.03	13500.21
483.21	13694.47
483.39	13755.33
483.57	13837.25
483.74	13720.22
483.92	14022.15
484.10	13809.16
484.28	14321.74
484.46	14195.35
484.64	14668.14
484.82	14295.99
485.00	14487.92
485.18	14892.83
485.35	14574.52
485.53	14682.18
485.71	14920.92
485.89	15042.62
486.07	14963.04
486.25	15225.18
486.43	15360.94
486.61	15393.70
486.78	15506.05
486.96	15571.58
487.14	16072.46
487.32	16217.57
487.50	16224.59
487.68	16130.97
487.85	16510.14
488.03	16727.81
488.21	16706.74
488.39	16645.89
488.57	16638.87
488.75	17177.19
488.92	17060.16
489.10	17399.54
489.28	17472.10
489.46	17446.35
489.64	17469.76
489.81	17767.01
489.99	18263.20
490.17	18223.41
490.35	18274.90
490.53	18223.41
490.70	18256.18
490.88	18469.17
491.06	18836.63
491.24	18625.98
491.41	18775.78
491.59	18780.46
491.77	18867.06
491.95	18845.99
492.13	19187.71
492.30	19070.68
492.48	19421.77
492.66	19630.07
492.84	19562.20
493.01	19798.59
493.19	19726.04
493.37	20278.40
493.54	20088.82
493.72	20245.63
493.90	20587.35
494.08	20458.62
494.25	20915.03
494.43	20882.26
494.61	21067.16
494.79	20947.79
494.96	20781.62
495.14	21027.37
495.32	21500.16
495.49	21312.92
495.67	21525.91
495.85	21717.83
496.02	21731.87
496.20	22485.53
496.38	21867.63
496.55	22134.45
496.73	22661.07
496.91	22466.80
497.09	22309.99
497.26	22651.70
497.44	22574.47
497.62	22855.33
497.79	23016.83
497.97	23138.54
498.14	23119.81
498.32	23190.03
498.50	23445.15
498.67	23281.31
498.85	23330.46
499.03	24074.75
499.20	23896.87
499.38	23496.64
499.56	24037.30
499.73	24290.08
499.91	24086.45
500.08	24173.05
500.26	23903.89
500.44	24346.25
500.61	23915.59
500.79	24025.60
500.97	24421.15
501.14	24734.78
501.32	24840.11
501.49	24561.58
501.67	24788.61
501.84	24992.24
502.02	25109.27
502.20	25312.89
502.37	24959.47
502.55	25127.99
502.72	25336.30
502.90	25308.21
503.07	25057.78
503.25	25301.19
503.43	25586.74
503.60	25369.07
503.78	25916.75
503.95	25832.49
504.13	25867.60
504.30	26066.55
504.48	25813.77
504.65	25926.11
504.83	26113.36
505.01	26560.40
505.18	26508.91
505.36	26562.74
505.53	26478.48
505.71	26668.06
505.88	27108.08
506.06	26534.65
506.23	27260.22
506.41	26892.76
506.58	26876.37
506.76	27222.77
506.93	27463.85
507.11	27154.90
507.28	27421.72
507.46	27094.04
507.63	27398.31
507.81	28046.64
507.98	27517.68
508.16	27777.48
508.33	27957.70
508.50	27770.46
508.68	28093.45
508.85	28444.53
509.03	28290.06
509.20	28009.19
509.38	28470.28
509.55	28283.03
509.73	28226.86
509.90	28673.90
510.08	28577.94
510.25	28371.97
510.42	28781.57
510.60	28753.48
510.77	29027.32
510.95	29172.44
511.12	29277.76
511.30	29525.86
511.47	29504.79
511.64	29511.81
511.82	29436.92
511.99	29289.46
512.17	29689.70
512.34	29422.87
512.51	30096.95
512.69	29778.64
512.86	29876.94
513.04	30368.45
513.21	30113.33
513.38	30050.14
513.56	30340.36
513.73	30178.87
513.90	30199.93
514.08	30541.65
514.25	30342.70
514.43	30745.28
514.60	30309.94
514.77	30258.45
514.95	30593.14
515.12	30583.78
515.29	31126.78
515.47	31321.05
515.64	31140.83
515.81	31402.97
515.99	31409.99
516.16	31201.68
516.33	31157.21
516.51	31559.78
516.68	31047.21
516.85	31395.95
517.03	31239.13
517.20	31929.59
517.37	31910.86
517.54	31157.21
517.72	31782.13
517.89	31725.96
518.06	31971.72
518.24	31583.19
518.41	31667.45
518.58	31922.57
518.75	32009.17
518.93	32245.56
519.10	32283.01
519.27	32144.92
519.45	32657.49
519.62	32510.04
519.79	32772.18
519.96	32917.29
520.14	32809.63
520.31	32673.88
520.48	32741.75
520.65	32776.86
520.83	33099.86
521.00	33418.17
521.17	33151.35
521.34	33221.56
521.52	33109.22
521.69	33312.84
521.86	33387.74
522.03	33521.15
522.20	33504.77
522.38	33696.69
522.55	33567.96
522.72	33528.17
522.89	33495.41
523.07	34218.63
523.24	33551.58
523.41	33792.65
523.58	33982.24
523.75	34031.39
523.92	34099.26
524.10	34436.30
524.27	34443.32
524.44	34600.14
524.61	34974.63
524.78	34675.04
524.96	34588.44
525.13	34869.30
525.30	35276.55
525.47	35056.54
525.64	35274.21
525.81	35208.68
525.98	35304.64
526.16	34785.04
526.33	34955.90
526.50	35248.47
526.67	35002.71
526.84	34939.52
527.01	34876.32
527.18	35484.86
527.36	35079.95
527.53	35461.46
527.70	35723.60
527.87	35974.03
528.04	35264.85
528.21	35810.20
528.38	35782.11
528.55	35988.08
528.72	35885.09
528.89	36187.02
529.07	35896.80
529.24	35651.04
529.41	35838.28
529.58	36016.16
529.75	35810.20
529.92	36439.80
530.09	36556.83
530.26	35887.43
530.43	36128.51
530.60	36004.46
530.77	36638.75
530.94	36577.89
531.11	36425.76
531.28	36730.03
531.46	37034.30
531.63	36685.56
531.80	36624.70
531.97	37031.96
532.14	37081.11
532.31	36725.35
532.48	36854.08
532.65	37425.17
532.82	37050.68
532.99	36947.70
533.16	36704.28
533.33	37511.77
533.50	37357.29
533.67	37099.83
533.84	37195.79
534.01	37368.99
534.18	37406.44
534.35	37233.24
534.52	37598.37
534.69	37453.25
534.86	37399.42
535.03	37368.99
535.20	37912.00
535.37	38197.54
535.54	38080.52
535.71	37748.16
535.88	38050.09
536.05	37734.12
536.22	38150.73
536.38	37935.40
536.55	37921.36
536.72	37935.40
536.89	37923.70
537.06	37741.14
537.23	38014.98
537.40	37783.27
537.57	38033.71
537.74	38323.93
537.91	38541.60
538.08	38567.35
538.25	38656.29
538.42	38897.36
538.59	38778.00
538.75	38153.07
538.92	38494.79
539.09	39187.59
539.26	38995.67
539.43	38754.59
539.60	38876.30
539.77	38813.10
539.94	39262.49
540.11	38667.99
540.28	38721.82
540.44	39213.34
540.61	39253.12
540.78	38873.96
540.95	38754.59
541.12	39079.92
541.29	39313.98
541.46	39194.61
541.62	39222.70
541.79	39480.16
541.96	39042.48
542.13	39295.25
542.30	39576.12
542.47	39154.82
542.63	39206.31
542.80	39449.73
542.97	40140.19
543.14	39814.85
543.31	40201.04
543.48	40357.86
543.64	40341.47
543.81	40374.24
543.98	40123.80
544.15	39945.92
544.32	40776.81
544.48	40374.24
544.65	40121.46
544.82	40121.46
544.99	39892.09
545.16	40481.91
545.32	40210.40
545.49	40636.38
545.66	40456.16
545.83	40367.22
546.00	40617.66
546.16	40758.09
546.33	40739.36
546.50	40112.10
546.67	40495.95
546.83	40133.17
547.00	40580.21
547.17	40664.47
547.34	40430.41
547.50	40884.48
547.67	41209.81
547.84	41148.96
548.00	40851.71
548.17	41273.01
548.34	40818.94
548.51	41556.21
548.67	41184.07
548.84	41233.22
549.01	41450.89
549.18	41322.16
549.34	41106.83
549.51	41553.87
549.68	41483.66
549.84	41577.28
550.01	41631.11
550.18	41645.15
550.34	41539.83
550.51	40961.72
550.68	41336.20
550.84	41427.48
551.01	41717.71
551.18	41670.90
551.34	41687.28
551.51	41572.60
551.68	41525.78
551.84	41385.35
552.01	41298.75
552.18	41778.56
552.34	41256.62
552.51	42251.35
552.68	41921.34
552.84	42302.84
553.01	42197.52
553.18	41963.46
553.34	42150.71
553.51	42061.77
553.67	41897.93
553.84	42054.75
554.01	42122.62
554.17	42714.78
554.34	42354.33
554.51	42270.08
554.67	42541.58
554.84	42543.92
555.00	42323.91
555.17	42115.60
555.33	42155.39
555.50	41989.21
555.67	42691.37
555.83	42298.16
556.00	42604.77
556.16	43056.50
556.33	42724.14
556.50	42637.54
556.66	42361.36
556.83	42628.18
556.99	42955.85
557.16	42665.63
557.32	42583.71
557.49	42815.42
557.65	42485.40
557.82	42410.51
557.98	42361.36
558.15	42686.69
558.32	42934.79
558.48	42529.87
558.65	43021.39
558.81	42660.94
558.98	42752.23
559.14	42967.55
559.31	42674.99
559.47	43232.04
559.64	43309.27
559.80	43236.72
559.97	43143.09
560.13	42859.89
560.30	42876.27
560.46	43356.08
560.63	43372.47
560.79	43339.70
560.96	43091.60
561.12	43379.49
561.29	43426.30
561.45	43068.20
561.61	43323.32
561.78	42852.87
561.94	42974.58
562.11	43112.67
562.27	42918.40
562.44	43409.92
562.60	43648.65
562.77	43353.74
562.93	43627.59
563.10	43555.03
563.26	43409.92
563.42	43210.97
563.59	43269.48
563.75	43138.41
563.92	43662.69
564.08	43381.83
564.24	43374.81
564.41	43796.10
564.57	43599.50
564.74	43332.68
564.90	43533.96
565.07	43370.13
565.23	43175.86
565.39	43894.41
565.56	43838.23
565.72	43805.47
565.88	43372.47
566.05	43473.11
566.21	43435.66
566.38	43328.00
566.54	43667.37
566.70	43842.92
566.87	44051.22
567.03	43791.42
567.19	43995.05
567.36	43901.43
567.52	43803.13
567.68	44201.02
567.85	43658.01
568.01	43611.20
568.17	43335.02
568.34	43873.34
568.50	43693.12
568.66	43915.47
568.83	43899.09
568.99	43669.72
569.15	43922.49
569.32	43934.20
569.48	43716.53
569.64	43859.30
569.81	43817.17
569.97	43597.16
570.13	43606.52
570.30	43793.76
570.46	43810.15
570.62	43489.49
570.78	43945.90
570.95	43784.40
571.11	43798.44
571.27	43459.07
571.43	43840.57
571.60	43941.22
571.76	43405.23
571.92	44133.14
572.09	43908.45
572.25	44119.10
572.41	43943.56
572.57	44149.53
572.74	44538.05
572.90	44088.67
573.06	44222.08
573.22	43924.83
573.38	43667.37
573.55	43753.97
573.71	44039.52
573.87	43650.99
574.03	43892.07
574.20	43938.88
574.36	43761.00
574.52	44257.19
574.68	44217.40
574.84	44098.03
575.01	44388.26
575.17	44257.19
575.33	44203.36
575.49	43920.15
575.65	44559.12
575.82	44652.74
575.98	44502.95
576.14	44458.48
576.30	43966.96
576.46	44032.50
576.62	43819.51
576.79	44112.08
576.95	43646.31
577.11	43983.35
577.27	44065.27
577.43	44091.01
577.59	44512.31
577.75	44409.32
577.92	44144.84
578.08	43847.60
578.24	43335.02
578.40	44156.55
578.56	43796.10
578.72	43964.62
578.88	44126.12
579.04	43856.96
579.21	44278.25
579.37	44198.68
579.53	43971.64
579.69	43545.67
579.85	43880.36
580.01	44306.34
580.17	44416.35
580.33	44357.83
580.49	44442.09
580.65	44252.51
580.82	44446.77
580.98	44231.44
581.14	43913.13
581.30	44341.45
581.46	44179.95
581.62	44091.01
581.78	43924.83
581.94	44524.01
582.10	44477.20
582.26	44048.88
582.42	44264.21
582.58	44264.21
582.74	43807.81
582.90	44423.37
583.06	44734.66
583.22	44360.17
583.38	44563.80
583.54	44369.54
583.70	44369.54
583.86	44453.79
584.02	43779.72
584.18	44116.76
584.34	44507.63
584.50	44343.79
584.66	44011.43
584.82	44243.15
584.98	44332.09
585.14	44053.56
585.30	44072.29
585.46	44123.78
585.62	44395.28
585.78	44481.88
585.94	43941.22
586.10	44271.23
586.26	43702.48
586.42	44514.65
586.58	44254.85
586.74	43990.37
586.90	44287.62
587.06	43966.96
587.22	44250.17
587.38	44011.43
587.54	44769.77
587.70	44861.05
587.86	44481.88
588.02	44477.20
588.18	44437.41
588.34	44390.60
588.49	44149.53
588.65	44383.58
588.81	44219.74
588.97	44147.18
589.13	44301.66
589.29	44116.76
589.45	44521.67
589.61	44570.82
589.77	44821.26
589.93	44912.54
590.08	44685.51
590.24	44676.15
590.40	44301.66
590.56	44839.98
590.72	44783.81
590.88	44406.98
591.04	44622.31
591.20	44863.39
591.35	44701.89
591.51	45031.91
591.67	44502.95
591.83	44823.60
591.99	44524.01
592.15	44175.27
592.31	44856.37
592.46	44535.71
592.62	44257.19
592.78	44594.23
592.94	45123.19
593.10	44428.05
593.26	44760.40
593.41	44926.58
593.57	44889.13
593.73	44327.41
593.89	44687.85
594.05	44502.95
594.20	44580.18
594.36	44968.71
594.52	44495.92
594.68	44318.04
594.84	44882.11
594.99	44790.83
595.15	44634.02
595.31	45275.32
595.47	44755.72
595.62	44643.38
595.78	44617.63
595.94	44903.18
596.10	44896.16
596.25	45076.38
596.41	45125.53
596.57	44760.40
596.73	44432.73
596.88	44362.51
597.04	44626.99
597.20	44694.87
597.36	44774.45
597.51	44903.18
597.67	44744.02
597.83	44912.54
597.99	44851.69
598.14	44924.24
598.30	44781.47
598.46	44713.59
598.61	44467.84
598.77	44549.76
598.93	44706.57
599.09	44949.99
599.24	45303.41
599.40	44603.59
599.56	45322.13
599.71	44828.28
599.87	45191.06
600.03	44442.09
600.18	44935.95
600.34	44832.96
600.50	44753.38
600.65	44495.92
600.81	44973.39
600.97	45141.91
601.12	45408.73
601.28	45191.06
601.44	44477.20
601.59	44875.09
601.75	44456.14
601.91	44755.72
602.06	44488.90
602.22	44666.78
602.37	45109.14
602.53	45001.48
602.69	44964.03
602.84	44776.79
603.00	44938.29
603.16	44828.28
603.31	44570.82
603.47	43983.35
603.62	44699.55
603.78	45043.61
603.94	44699.55
604.09	44954.67
604.25	44891.48
604.40	44648.06
604.56	44980.42
604.71	44683.17
604.87	44776.79
605.03	44793.17
605.18	44825.94
605.34	45006.16
605.49	44624.65
605.65	44924.24
605.80	44631.68
605.96	44669.12
606.12	44980.42
606.27	44832.96
606.43	44701.89
606.58	44828.28
606.74	44259.53
606.89	44795.51
607.05	44708.91
607.20	44648.06
607.36	44425.71
607.51	44992.12
607.67	44795.51
607.82	44676.15
607.98	44399.96
608.13	44636.36
608.29	44053.56
608.44	44421.03
608.60	44067.61
608.75	44423.37
608.91	43952.92
609.06	44165.91
609.22	44751.04
609.37	44329.75
609.53	44238.47
609.68	44533.37
609.84	44767.43
609.99	44266.55
610.15	44467.84
610.30	44201.02
610.46	44273.57
610.61	43854.62
610.76	44315.70
610.92	44128.46
611.07	44327.41
611.23	44240.81
611.38	44205.70
611.54	43751.63
611.69	44093.35
611.84	44032.50
612.00	44409.32
612.15	44231.44
612.31	44289.96
612.46	43985.69
612.62	43938.88
612.77	43959.94
612.92	44076.97
613.08	43529.28
613.23	43899.09
613.39	43906.11
613.54	43945.90
613.69	44027.82
613.85	43910.79
614.00	44163.57
614.15	44472.52
614.31	44140.16
614.46	43934.20
614.62	43966.96
614.77	43517.58
614.92	43896.75
615.08	43812.49
615.23	44128.46
615.38	43585.46
615.54	43346.72
615.69	44023.14
615.84	43173.52
616.00	43828.87
616.15	43889.73
616.30	43613.54
616.46	43681.42
616.61	43515.24
616.76	43344.38
616.92	43049.47
617.07	43026.07
617.22	43412.26
617.37	43353.74
617.53	43571.41
617.68	43625.25
617.83	43590.14
617.99	43772.70
618.14	43419.28
618.29	43115.01
618.45	43203.95
618.60	43241.40
618.75	43522.26
618.90	43435.66
619.06	43999.73
619.21	43276.51
619.36	43379.49
619.51	43295.23
619.67	42880.95
619.82	42969.90
619.97	43597.16
620.12	42756.91
620.28	42955.85
620.43	43110.33
620.58	43019.05
620.73	42969.90
620.89	42789.67
621.04	42937.13
621.19	42827.12
621.34	42801.38
621.49	43115.01
621.65	42848.19
621.80	42658.60
621.95	42579.03
622.10	42351.99
622.25	43103.31
622.41	42602.43
622.56	42733.50
622.71	42918.40
622.86	42672.65
623.01	43037.77
623.16	42836.48
623.32	42653.92
623.47	42827.12
623.62	42513.49
623.77	42728.82
623.92	42684.35
624.07	42279.44
624.23	42419.87
624.38	42272.42
624.53	42099.22
624.68	42384.76
624.83	42174.11
624.98	42183.48
625.13	42469.02
625.29	42293.48
625.44	42258.37
625.59	41947.08
625.74	41933.04
625.89	41500.04
626.04	41806.65
626.19	41841.76
626.34	41888.57
626.49	41724.73
626.65	42057.09
626.80	41837.08
626.95	41551.53
627.10	42092.19
627.25	42089.85
627.40	41713.03
627.55	41610.04
627.70	41593.66
627.85	41565.57
628.00	41720.05
628.15	41876.86
628.30	42089.85
628.45	41631.11
628.60	41469.61
628.76	41794.95
628.91	41668.56
629.06	41956.44
629.21	41415.78
629.36	41045.97
629.51	41069.38
629.66	40952.35
629.81	41755.16
629.96	41448.55
630.11	41436.84
630.26	41368.97
630.41	41773.88
630.56	41221.52
630.71	41228.54
630.86	41254.28
631.01	41226.20
631.16	41174.70
631.31	41006.19
631.46	40568.51
631.61	41277.69
631.76	41113.85
631.91	41354.93
632.06	41038.95
632.21	41207.47
632.36	41460.25
632.51	40994.48
632.66	41219.17
632.81	40868.09
632.96	41221.52
633.10	40638.72
633.25	40442.12
633.40	41036.61
633.55	41486.00
633.70	40781.49
633.85	40495.95
634.00	40559.14
634.15	40435.10
634.30	40741.71
634.45	40491.27
634.60	40289.98
634.75	40397.65
634.90	40622.34
635.05	40369.56
635.19	40636.38
635.34	40563.82
635.49	40643.40
635.64	40088.70
635.79	40098.06
635.94	40313.39
636.09	40095.72
636.24	40491.27
636.39	40179.98
636.53	40168.27
636.68	39887.41
636.83	39955.29
636.98	40622.34
637.13	39856.98
637.28	40247.85
637.43	40357.86
637.57	40376.58
637.72	40067.63
637.87	40266.58
638.02	40133.17
638.17	39810.17
638.32	39805.49
638.46	39728.25
638.61	39768.04
638.76	39356.11
638.91	39791.45
639.06	39775.06
639.20	39854.64
639.35	39847.62
639.50	39887.41
639.65	40025.50
639.80	39828.90
639.94	39723.57
640.09	39744.64
640.24	39482.50
640.39	39262.49
640.54	39353.77
640.68	39306.96
640.83	39445.05
640.98	39379.51
641.13	39803.15
641.27	39651.02
641.42	39538.67
641.57	39452.07
641.72	39908.47
641.86	39517.60
642.01	39185.25
642.16	39194.61
642.31	39023.75
642.45	39374.83
642.60	39014.39
642.75	39136.10
642.90	39103.33
643.04	38705.44
643.19	39426.32
643.34	39276.53
643.48	38639.90
643.63	38965.24
643.78	38904.38
643.93	39047.16
644.07	38635.22
644.22	38625.86
644.37	38588.41
644.51	38424.57
644.66	38621.18
644.81	38745.23
644.95	39159.50
645.10	38637.56
645.25	38965.24
645.39	39185.25
645.54	39061.20
645.69	38756.93
645.83	38579.05
645.98	38660.97
646.13	38918.43
646.27	38904.38
646.42	38239.67
646.57	38567.35
646.71	38621.18
646.86	38871.62
647.00	38866.94
647.15	39042.48
647.30	38920.77
647.44	38604.80
647.59	38539.26
647.74	38078.18
647.88	37968.17
648.03	38134.35
648.17	38375.42
648.32	38181.16
648.47	38501.81
648.61	37996.26
648.76	38209.25
648.90	38022.00
649.05	38209.25
649.20	38361.38
649.34	38057.11
649.49	38419.89
649.63	38520.54
649.78	38272.44
649.92	37986.89
650.07	38508.83
650.21	37928.38
650.36	38136.69
650.51	38253.72
650.65	38160.09
650.80	38916.09
650.94	38033.71
651.09	38057.11
651.23	37743.48
651.38	37425.17
651.52	37631.13
651.67	37919.02
651.81	37769.22
651.96	37825.40
652.10	37624.11
652.25	37614.75
652.39	37462.61
652.54	37631.13
652.68	37453.25
652.83	37633.47
652.97	37596.03
653.12	37776.25
653.26	37357.29
653.41	37699.01
653.55	37415.80
653.70	37062.38
653.84	37535.17
653.99	37488.36
654.13	37764.54
654.27	37624.11
654.42	37500.06
654.56	37352.61
654.71	37764.54
654.85	37366.65
655.00	37277.71
655.14	36802.58
655.29	36652.79
655.43	36959.40
655.57	37443.89
655.72	36528.74
655.86	37130.26
656.01	37132.60
656.15	37020.25
656.30	37177.07
656.44	36774.50
656.58	36907.91
656.73	36818.97
656.87	36531.08
657.01	36917.27
657.16	36898.55
657.30	36378.95
657.45	36456.18
657.59	36456.18
657.73	36477.25
657.88	36486.61
658.02	36098.08
658.16	36638.75
658.31	36631.72
658.45	36339.16
658.60	36676.19
658.74	36472.57
658.88	36385.97
659.03	36463.21
659.17	35906.16
659.31	36119.15
659.46	35732.96
659.60	35849.99
659.74	36044.25
659.89	35798.49
660.03	35983.40
660.17	35999.78
660.32	35637.00
660.46	36484.27
660.60	36357.88
660.74	36437.46
660.89	36133.19
661.03	35615.93
661.17	35842.96
661.32	35175.91
661.46	35470.82
661.60	35538.69
661.74	35302.30
661.89	35164.21
662.03	35653.38
662.17	35227.40
662.31	34969.94
662.46	35536.35
662.60	35402.94
662.74	35491.88
662.88	35157.19
663.03	35068.25
663.17	35264.85
663.31	34934.84
663.45	35101.01
663.60	35255.49
663.74	34705.46
663.88	34714.83
664.02	34827.17
664.17	34998.03
664.31	34436.30
664.45	34621.20
664.59	34775.68
664.73	34642.27
664.88	34569.71
665.02	34089.90
665.16	34235.02
665.30	34171.82
665.44	34363.75
665.59	34073.52
665.73	33912.02
665.87	33614.77
666.01	34270.12
666.15	34000.96
666.29	34019.69
666.44	34220.97
666.58	33909.68
666.72	33736.48
666.86	33996.28
667.00	33979.90
667.14	33577.33
667.28	33703.71
667.43	33364.34
667.57	34036.07
667.71	33453.28
667.85	33652.22
667.99	33191.14
668.13	33282.42
668.27	33467.32
668.41	33560.94
668.56	33343.27
668.70	32992.19
668.84	33064.75
668.98	32856.44
669.12	33308.16
669.26	32994.53
669.40	32554.51
669.54	32575.58
669.68	33439.23
669.82	32680.90
669.96	32496.00
670.10	32517.06
670.25	32545.15
670.39	32685.58
670.53	32655.15
670.67	32367.27
670.81	32163.64
670.95	32151.94
671.09	32416.42
671.23	32753.46
671.37	32568.55
671.51	32121.51
671.65	31868.73
671.79	31662.77
671.93	31519.99
672.07	31880.44
672.21	32055.98
672.35	31686.17
672.49	32105.13
672.63	31611.28
672.77	31578.51
672.91	31463.82
673.05	31428.71
673.19	31363.18
673.33	31414.67
673.47	30845.92
673.61	30801.45
673.75	31232.11
673.89	30637.61
674.03	30668.04
674.17	30721.87
674.31	30698.47
674.45	30480.80
674.59	30595.48
674.73	31026.14
674.87	30904.43
675.01	30838.90
675.15	31168.91
675.29	30801.45
675.43	30703.15
675.56	30625.91
675.70	30295.89
675.84	30040.78
675.98	29085.84
676.12	29958.86
676.26	29575.01
676.40	29500.11
676.54	29731.83
676.68	29621.82
676.82	29378.40
676.96	28992.22
677.10	29160.73
677.23	29207.55
677.37	29144.35
677.51	29200.52
677.65	29167.76
677.79	28517.09
677.93	29076.48
678.07	28978.17
678.21	28381.34
678.34	28402.40
678.48	28446.87
678.62	28273.67
678.76	28357.93
678.90	27854.72
679.04	28140.26
679.18	28149.62
679.31	27754.07
679.45	27548.11
679.59	27672.15
679.73	27728.33
679.87	27524.70
680.00	27695.56
680.14	27271.92
680.28	27297.67
680.42	27372.57
680.56	27365.54
680.70	26981.70
680.83	27021.48
680.97	27091.70
681.11	27077.66
681.25	26473.80
681.39	26689.13
681.52	27161.92
681.66	26630.62
681.80	26497.20
681.94	26326.35
682.07	26235.06
682.21	26129.74
682.35	26312.30
682.49	26143.78
682.62	26059.52
682.76	25710.78
682.90	25593.76
683.04	25823.13
683.17	26003.35
683.31	25586.74
683.45	25893.35
683.59	25383.11
683.72	25195.87
683.86	25067.14
684.00	24809.68
684.13	25544.61
684.27	25462.69
684.41	25118.63
684.55	24877.55
684.68	24730.10
684.82	24592.01
684.96	24589.67
685.09	24877.55
685.23	24250.29
685.37	24219.86
685.50	24423.49
685.64	24142.63
685.78	24065.39
685.91	24109.86
686.05	23857.08
686.19	23637.07
686.32	23990.49
686.46	23632.39
686.60	23625.37
686.73	23417.06
686.87	23463.87
687.01	23529.41
687.14	23311.74
687.28	23119.81
687.42	23152.58
687.55	22815.54
687.69	22988.74
687.82	22979.38
687.96	22796.82
688.10	22555.74
688.23	22597.87
688.37	22190.62
688.50	22335.73
688.64	22197.64
688.78	21926.14
688.91	22207.00
689.05	22174.24
689.18	21944.86
689.32	21532.93
689.46	22040.82
689.59	22150.83
689.73	21956.57
689.86	21743.58
690.00	21675.70
690.13	21647.61
690.27	21694.43
690.41	21811.45
690.54	20975.88
690.68	20992.26
690.81	20884.60
690.95	20931.41
691.08	20680.97
691.22	20758.21
691.35	20788.64
691.49	20987.58
691.62	20954.82
691.76	20416.49
691.89	20507.77
692.03	20449.26
692.16	20140.31
692.30	20184.78
692.43	20381.38
692.57	20053.71
692.70	19988.18
692.84	20217.55
692.97	19838.38
693.11	19665.18
693.24	19433.47
693.38	19534.11
693.51	19480.28
693.65	19557.52
693.78	19501.34
693.92	19332.82
694.05	19300.06
694.19	19166.65
694.32	19157.28
694.45	19103.45
694.59	18717.26
694.72	18970.04
694.86	18810.89
694.99	18504.28
695.13	18773.44
695.26	18558.11
695.39	18195.32
695.53	17991.70
695.66	18485.55
695.80	18286.61
695.93	18052.55
696.07	17947.23
696.20	17942.55
696.33	18239.79
696.47	17741.26
696.60	17734.24
696.73	17572.74
696.87	17621.89
697.00	17605.51
697.14	17717.86
697.27	17422.95
697.40	17521.25
697.54	17420.61
697.67	17195.92
697.80	16938.46
697.94	17099.95
698.07	16783.98
698.21	16657.59
698.34	16989.95
698.47	17111.66
698.61	16638.87
698.74	16552.27
698.87	16631.85
699.01	16418.86
699.14	16163.74
699.27	16423.54
699.40	16130.97
699.54	15948.41
699.67	16004.58
699.80	15995.22
699.94	15840.75
700.07	15733.08
700.20	15822.02
700.34	15616.05
700.47	15763.51
700.60	15728.40
700.73	15737.76
700.87	15690.95
701.00	15494.35
701.13	15365.62
701.26	15267.31
701.40	15342.21
701.53	15386.68
701.66	15218.16
701.79	15283.70
701.93	14864.74
702.06	14700.90
702.19	14780.48
702.32	14831.97
702.46	14600.26
702.59	14485.58
702.72	14656.43
702.85	14558.13
702.99	14640.05
703.12	14492.60
703.25	14534.73
703.38	14464.51
703.51	14242.16
703.65	14260.88
703.78	13947.25
703.91	13970.66
704.04	14019.81
704.17	14178.97
704.31	13935.55
704.44	13521.27
704.57	13612.56
704.70	13467.44
704.83	13666.39
704.96	13579.79
705.10	13451.06
705.23	13710.86
>>>>>End Processed Spectral Data<<<<<
