SpectraSuite Data File
++++++++++++++++++++++++++++++++++++
Date: Fri Oct 25 11:34:10 EDT 2013
User: price-jones
Dark Spectrum Present: No
Reference Spectrum Present: No
Number of Sampled Component Spectra: 1
Spectrometers: USB2+H05261
Integration Time (usec): 100000 (USB2+H05261)
Spectra Averaged: 1 (USB2+H05261)
Boxcar Smoothing: 0 (USB2+H05261)
Correct for Electrical Dark: No (USB2+H05261)
Strobe/Lamp Enabled: No (USB2+H05261)
Correct for Detector Non-linearity: No (USB2+H05261)
Correct for Stray Light: No (USB2+H05261)
Number of Pixels in Processed Spectrum: 2048
>>>>>Begin Processed Spectral Data<<<<<
365.73	248.10
365.92	248.10
366.12	248.10
366.32	294.91
366.52	252.78
366.72	220.01
366.91	222.35
367.11	205.97
367.31	194.26
367.51	145.11
367.70	203.63
367.90	145.11
368.10	180.22
368.30	262.14
368.49	159.16
368.69	177.88
368.89	149.79
369.09	212.99
369.28	220.01
369.48	280.86
369.68	173.20
369.87	222.35
370.07	236.39
370.27	299.59
370.47	334.70
370.66	463.43
370.86	552.37
371.06	512.58
371.25	507.90
371.45	503.22
371.65	547.69
371.84	479.81
372.04	479.81
372.24	575.77
372.44	592.16
372.63	559.39
372.83	608.54
373.03	629.60
373.22	657.69
373.42	610.88
373.62	582.79
373.81	624.92
374.01	634.29
374.21	601.52
374.40	629.60
374.60	674.07
374.79	631.94
374.99	692.80
375.19	603.86
375.38	648.33
375.58	624.92
375.78	655.35
375.97	636.63
376.17	690.46
376.37	711.52
376.56	706.84
376.76	706.84
376.95	683.44
377.15	589.82
377.35	755.99
377.54	660.03
377.74	734.93
377.93	758.33
378.13	725.57
378.33	688.12
378.52	678.76
378.72	732.59
378.91	660.03
379.11	608.54
379.31	697.48
379.50	692.80
379.70	786.42
379.89	746.63
380.09	676.41
380.28	641.31
380.48	744.29
380.68	746.63
380.87	767.70
381.07	704.50
381.26	760.67
381.46	784.08
381.65	706.84
381.85	753.65
382.04	805.14
382.24	800.46
382.43	791.10
382.63	734.93
382.83	784.08
383.02	748.97
383.22	849.61
383.41	739.61
383.61	819.19
383.80	805.14
384.00	821.53
384.19	779.40
384.39	753.65
384.58	851.96
384.78	830.89
384.97	821.53
385.17	863.66
385.36	772.38
385.56	826.21
385.75	842.59
385.95	791.10
386.14	889.40
386.34	868.34
386.53	901.11
386.72	809.83
386.92	922.17
387.11	898.77
387.31	837.91
387.50	894.08
387.70	844.93
387.89	896.43
388.09	973.66
388.28	851.96
388.48	889.40
388.67	933.87
388.86	908.13
389.06	847.27
389.25	823.87
389.45	875.36
389.64	943.24
389.84	924.51
390.03	901.11
390.22	959.62
390.42	1001.75
390.61	908.13
390.81	959.62
391.00	952.60
391.19	980.68
391.39	978.34
391.58	945.58
391.78	992.39
391.97	971.32
392.16	1032.18
392.36	1048.56
392.55	1095.37
392.75	997.07
392.94	1055.58
393.13	1090.69
393.33	1039.20
393.52	1076.65
393.71	1104.73
393.91	1090.69
394.10	1186.65
394.29	1050.90
394.49	1074.31
394.68	1123.46
394.88	1025.15
395.07	1167.93
395.26	1153.88
395.46	1111.75
395.65	1240.48
395.84	1153.88
396.04	1116.44
396.23	1203.04
396.42	1107.07
396.62	1142.18
396.81	1132.82
397.00	1172.61
397.19	1259.21
397.39	1221.76
397.58	1252.19
397.77	1231.12
397.97	1240.48
398.16	1245.16
398.35	1313.04
398.55	1177.29
398.74	1280.27
398.93	1294.32
399.12	1341.13
399.32	1291.98
399.51	1308.36
399.70	1320.06
399.90	1320.06
400.09	1301.34
400.28	1371.55
400.47	1380.92
400.67	1366.87
400.86	1350.49
401.05	1437.09
401.24	1355.17
401.44	1401.98
401.63	1420.71
401.82	1385.60
402.01	1397.30
402.21	1401.98
402.40	1418.36
402.59	1488.58
402.78	1385.60
402.97	1504.96
403.17	1558.80
403.36	1439.43
403.55	1549.43
403.74	1551.78
403.93	1600.93
404.13	1575.18
404.32	1579.86
404.51	1540.07
404.70	1657.10
404.89	1575.18
405.09	1706.25
405.28	1699.23
405.47	1661.78
405.66	1589.22
405.85	1710.93
406.05	1624.33
406.24	1743.70
406.43	1764.76
406.62	1717.95
406.81	1769.44
407.00	1687.53
407.20	1753.06
407.39	1764.76
407.58	1722.63
407.77	1872.43
407.96	1767.10
408.15	1865.41
408.34	1813.92
408.54	1879.45
408.73	1839.66
408.92	1884.13
409.11	1933.28
409.30	1937.96
409.49	1940.30
409.68	1984.77
409.87	1947.33
410.07	2022.22
410.26	1970.73
410.45	2059.67
410.64	2106.48
410.83	2078.40
411.02	2087.76
411.21	2179.04
411.40	2064.35
411.59	2186.06
411.78	2143.93
411.98	2136.91
412.17	2108.82
412.36	2244.57
412.55	2319.47
412.74	2307.77
412.93	2237.55
413.12	2331.17
413.31	2392.03
413.50	2389.69
413.69	2317.13
413.88	2438.84
414.07	2370.96
414.26	2518.42
414.45	2509.05
414.64	2499.69
414.83	2466.92
415.02	2506.71
415.22	2579.27
415.41	2649.49
415.60	2675.23
415.79	2684.59
415.98	2750.13
416.17	2612.04
416.36	2703.32
416.55	2703.32
416.74	2757.15
416.93	2808.64
417.12	2729.06
417.31	2782.90
417.50	2810.98
417.69	3052.06
417.88	2871.84
418.07	2878.86
418.26	2909.29
418.45	2867.16
418.64	3066.10
418.83	2869.50
419.02	3000.57
419.21	3096.53
419.39	3089.51
419.58	2972.48
419.77	3084.83
419.96	3101.21
420.15	3005.25
420.34	3110.57
420.53	3162.06
420.72	3133.98
420.91	3087.17
421.10	3236.96
421.29	3169.09
421.48	3157.38
421.67	3157.38
421.86	3176.11
422.05	3082.49
422.24	3138.66
422.43	3185.47
422.61	3258.03
422.80	3370.37
422.99	3239.30
423.18	3178.45
423.37	3447.61
423.56	3372.71
423.75	3377.39
423.94	3431.23
424.13	3178.45
424.32	3150.36
424.50	3368.03
424.69	3445.27
424.88	3389.10
425.07	3211.22
425.26	3382.07
425.45	3377.39
425.64	3361.01
425.83	3456.97
426.01	3473.36
426.20	3370.37
426.39	3379.73
426.58	3393.78
426.77	3356.33
426.96	3485.06
427.15	3494.42
427.33	3581.02
427.52	3435.91
427.71	3590.38
427.90	3585.70
428.09	3590.38
428.28	3667.62
428.46	3588.04
428.65	3646.55
428.84	3667.62
429.03	3803.37
429.22	3531.87
429.40	3676.98
429.59	3744.86
429.78	3503.78
429.97	3620.81
430.16	3634.85
430.34	3662.94
430.53	3726.13
430.72	3850.18
430.91	3733.15
431.10	3833.80
431.28	3882.95
431.47	3791.67
431.66	3913.38
431.85	3922.74
432.03	3824.44
432.22	3962.53
432.41	3885.29
432.60	3885.29
432.79	3974.23
432.97	4051.47
433.16	4018.70
433.35	4077.21
433.54	4156.79
433.72	4070.19
433.91	4138.07
434.10	4046.79
434.28	4163.81
434.47	4126.36
434.66	4217.65
434.85	4304.25
435.03	4287.86
435.22	4180.20
435.41	4390.84
435.59	4198.92
435.78	4236.37
435.97	4353.40
436.16	4341.69
436.34	4425.95
436.53	4161.47
436.72	4519.57
436.90	4395.53
437.09	4449.36
437.28	4222.33
437.46	4517.23
437.65	4404.89
437.84	4521.92
438.02	4486.81
438.21	4589.79
438.40	4477.44
438.58	4601.49
438.77	4699.80
438.96	4667.03
439.14	4784.06
439.33	4690.43
439.52	4638.94
439.70	4709.16
439.89	4777.03
440.08	4954.91
440.26	4945.55
440.45	4784.06
440.63	4983.00
440.82	5210.03
441.01	5039.17
441.19	4952.57
441.38	5069.60
441.57	5149.18
441.75	5158.54
441.94	5266.21
442.12	5233.44
442.31	5371.53
442.50	5380.89
442.68	5301.31
442.87	5408.98
443.05	5392.59
443.24	5472.17
443.43	5231.10
443.61	5551.75
443.80	5654.73
443.98	5329.40
444.17	5146.84
444.35	5437.06
444.54	5530.69
444.73	5518.98
444.91	5366.85
445.10	5614.95
445.28	5542.39
445.47	5392.59
445.65	5540.05
445.84	5603.24
446.02	5572.82
446.21	5504.94
446.39	5659.42
446.58	5493.24
446.77	5741.33
446.95	5500.26
447.14	5607.92
447.32	5631.33
447.51	5591.54
447.69	5699.20
447.88	5792.83
448.06	5762.40
448.25	5619.63
448.43	5645.37
448.62	5643.03
448.80	5570.48
448.99	5870.06
449.17	5788.14
449.36	5795.17
449.54	5841.98
449.73	5900.49
449.91	5921.56
450.10	5856.02
450.28	5973.05
450.46	5898.15
450.65	6015.18
450.83	5963.68
451.02	6059.65
451.20	5991.77
451.39	6052.63
451.57	5923.90
451.76	6157.95
451.94	6047.94
452.13	6040.92
452.31	6029.22
452.49	6022.20
452.68	6204.76
452.86	6101.78
453.05	6225.82
453.23	6260.93
453.42	6101.78
453.60	6263.27
453.78	6298.38
453.97	6370.94
454.15	6125.18
454.34	6202.42
454.52	6384.98
454.70	6612.01
454.89	6459.88
455.07	6434.13
455.26	6436.47
455.44	6565.20
455.62	6530.09
455.81	6450.52
455.99	6572.22
456.17	6525.41
456.36	6581.59
456.54	6700.95
456.73	6768.83
456.91	6949.05
457.09	6722.02
457.28	6963.09
457.46	6862.45
457.64	6761.81
457.83	6841.39
458.01	6890.54
458.19	6927.99
458.38	6904.58
458.56	7126.93
458.74	6988.84
458.93	7040.33
459.11	7152.68
459.29	7019.27
459.48	7119.91
459.66	7087.14
459.84	7117.57
460.03	7192.47
460.21	7288.43
460.39	7258.00
460.57	7211.19
460.76	7199.49
460.94	7293.11
461.12	7215.87
461.31	7391.41
461.49	7262.68
461.67	7246.30
461.85	7499.08
462.04	7480.35
462.22	8023.36
462.40	7791.64
462.59	7595.04
462.77	7543.55
462.95	7609.08
463.13	7581.00
463.32	7641.85
463.50	7840.79
463.68	7599.72
463.86	7801.01
464.05	7627.81
464.23	7793.98
464.41	7742.49
464.59	7716.75
464.78	7866.54
464.96	7756.54
465.14	7836.11
465.32	7969.52
465.50	7756.54
465.69	7936.76
465.87	7906.33
466.05	7955.48
466.23	7953.14
466.41	8016.33
466.60	8208.26
466.78	7887.61
466.96	7892.29
467.14	8030.38
467.32	8329.97
467.51	8058.46
467.69	8053.78
467.87	8056.12
468.05	8074.85
468.23	8159.11
468.41	8248.05
468.60	8362.73
468.78	8381.46
468.96	8257.41
469.14	8266.77
469.32	8435.29
469.50	8269.11
469.69	8318.26
469.87	8486.78
470.05	8517.21
470.23	8730.20
470.41	8514.87
470.59	8650.62
470.77	8437.63
470.95	8739.56
471.14	8638.92
471.32	8519.55
471.50	8877.65
471.68	8699.77
471.86	9050.85
472.04	8718.50
472.22	9193.62
472.40	8861.27
472.58	8922.12
472.77	9128.09
472.95	9083.62
473.13	9420.66
473.31	9111.71
473.49	9266.18
473.67	9214.69
473.85	9336.40
474.03	9413.63
474.21	9582.15
474.39	9481.51
474.57	9626.62
474.75	9525.98
474.93	9493.21
475.12	9694.50
475.30	9951.96
475.48	9776.42
475.66	10010.47
475.84	9715.56
476.02	9619.60
476.20	9893.44
476.38	10157.92
476.56	10349.85
476.74	10293.68
476.92	10307.72
477.10	10204.74
477.28	10342.83
477.46	10574.54
477.64	10443.47
477.82	10661.14
478.00	10946.69
478.18	10644.76
478.36	11000.52
478.54	10958.39
478.72	10956.05
478.90	11108.18
479.08	11225.21
479.26	11449.90
479.44	11286.06
479.62	11407.77
479.80	11630.12
479.98	11599.70
480.16	11962.48
480.34	11768.21
480.52	11875.88
480.70	11953.12
480.88	12051.42
481.06	12105.25
481.24	12145.04
481.41	12351.01
481.59	12573.36
481.77	12287.81
481.95	12711.45
482.13	12727.83
482.31	12589.74
482.49	13027.42
482.67	12978.27
482.85	13231.05
483.03	13099.98
483.21	13495.53
483.39	13607.87
483.57	13406.59
483.74	13642.98
483.92	13523.62
484.10	13617.24
484.28	13879.38
484.46	14209.39
484.64	14267.91
484.82	14094.71
485.00	14059.60
485.18	14523.02
485.35	14817.93
485.53	14644.73
485.71	14792.19
485.89	14944.32
486.07	14934.96
486.25	14974.75
486.43	15197.10
486.61	15089.43
486.78	15618.39
486.96	15672.23
487.14	15704.99
487.32	15674.57
487.50	15838.41
487.68	16238.64
487.85	16257.36
488.03	16128.63
488.21	16393.11
488.39	16603.76
488.57	16739.51
488.75	16762.92
488.92	16987.61
489.10	16943.14
489.28	17191.23
489.46	17256.77
489.64	17778.71
489.81	17767.01
489.99	17441.67
490.17	17745.94
490.35	18012.76
490.53	18113.41
490.70	18111.07
490.88	17982.34
491.06	18420.02
491.24	18625.98
491.41	18614.28
491.59	18604.92
491.77	18635.35
491.95	18796.84
492.13	19044.94
492.30	19321.12
492.48	19068.34
492.66	19468.58
492.84	19503.68
493.01	19728.38
493.19	19726.04
493.37	19955.41
493.54	19798.59
493.72	19960.09
493.90	19995.20
494.08	20231.59
494.25	20334.57
494.43	20585.01
494.61	20594.37
494.79	20971.20
494.96	20683.31
495.14	20680.97
495.32	20994.61
495.49	21355.05
495.67	21254.40
495.85	21303.56
496.02	21537.61
496.20	21539.95
496.38	21827.84
496.55	21668.68
496.73	22508.93
496.91	21916.78
497.09	22244.45
497.26	22441.06
497.44	22155.51
497.62	22286.58
497.79	22902.14
497.97	22668.09
498.14	23009.81
498.32	23105.77
498.50	23285.99
498.67	23215.77
498.85	23379.61
499.03	23421.74
499.20	23363.23
499.38	23522.38
499.56	23665.16
499.73	23637.07
499.91	23730.69
500.08	24121.56
500.26	23997.51
500.44	24212.84
500.61	24163.69
500.79	24224.54
500.97	24800.32
501.14	24467.96
501.32	24503.07
501.49	24505.41
501.67	24769.89
501.84	25022.67
502.02	25158.42
502.20	24875.21
502.37	25165.44
502.55	24727.76
502.72	25340.98
502.90	25247.36
503.07	25436.94
503.25	25453.33
503.43	25415.88
503.60	25816.11
503.78	26120.38
503.95	25628.87
504.13	25537.59
504.30	26176.55
504.48	25956.54
504.65	26476.14
504.83	26363.79
505.01	26293.58
505.18	26534.65
505.36	26501.89
505.53	26586.15
505.71	26801.47
505.88	26829.56
506.06	26328.69
506.23	27211.07
506.41	27243.84
506.58	27028.51
506.76	27110.43
506.93	27510.66
507.11	27278.94
507.28	27658.11
507.46	27585.55
507.63	27482.57
507.81	27733.01
507.98	27606.62
508.16	27754.07
508.33	27850.03
508.50	28011.53
508.68	27810.25
508.85	28201.11
509.03	28151.96
509.20	28390.70
509.38	28620.07
509.55	28481.98
509.73	28790.93
509.90	28692.63
510.08	28400.06
510.25	28786.25
510.42	28987.53
510.60	28966.47
510.77	28989.88
510.95	29390.11
511.12	28945.41
511.30	29186.48
511.47	29411.17
511.64	29310.53
511.82	29902.68
511.99	29542.24
512.17	29483.73
512.34	29598.41
512.51	30099.29
512.69	30064.18
512.86	30235.04
513.04	30244.40
513.21	30040.78
513.38	30078.22
513.56	30258.45
513.73	30050.14
513.90	30471.43
514.08	30675.06
514.25	30494.84
514.43	30513.56
514.60	30623.57
514.77	30639.95
514.95	30787.41
515.12	30707.83
515.29	30602.50
515.47	31377.22
515.64	31164.23
515.81	31096.36
515.99	31552.76
516.16	31412.33
516.33	31527.02
516.51	31747.03
516.68	31402.97
516.85	31702.56
517.03	32041.93
517.20	31838.31
517.37	32107.47
517.54	31765.75
517.72	32514.72
517.89	31885.12
518.06	32063.00
518.24	32514.72
518.41	31744.69
518.58	32290.03
518.75	32039.59
518.93	32500.68
519.10	32512.38
519.27	32706.65
519.45	32783.88
519.62	32889.21
519.79	32790.91
519.96	33202.84
520.14	32725.37
520.31	32898.57
520.48	33221.56
520.65	33474.34
520.83	33514.13
521.00	33397.10
521.17	33453.28
521.34	33315.19
521.52	33432.21
521.69	33537.54
521.86	33975.22
522.03	33448.60
522.20	34007.98
522.38	34391.83
522.55	34398.85
522.72	34117.99
522.89	34340.34
523.07	34607.16
523.24	34213.95
523.41	34370.77
523.58	34047.77
523.75	34333.32
523.92	34436.30
524.10	35030.80
524.27	35271.87
524.44	34756.96
524.61	34843.56
524.78	35192.30
524.96	35201.66
525.13	35274.21
525.30	35314.00
525.47	35269.53
525.64	34859.94
525.81	35388.90
525.98	35765.73
526.16	35220.38
526.33	35299.96
526.50	35812.54
526.67	35424.01
526.84	35440.39
527.01	35761.05
527.18	35786.79
527.36	35709.55
527.53	35896.80
527.70	36325.11
527.87	36212.77
528.04	36128.51
528.21	36348.52
528.38	35899.14
528.55	35962.33
528.72	36175.32
528.89	36449.16
529.07	36098.08
529.24	36367.24
529.41	36503.00
529.58	36666.83
529.75	36446.82
529.92	36746.41
530.09	36430.44
530.26	36627.04
530.43	36924.29
530.60	36804.92
530.77	36701.94
530.94	36854.08
531.11	36893.86
531.28	37038.98
531.46	37046.00
531.63	36891.52
531.80	37085.79
531.97	37329.20
532.14	37219.20
532.31	37090.47
532.48	37642.84
532.65	37759.86
532.82	37647.52
532.99	37691.99
533.16	37429.85
533.33	37986.89
533.50	37759.86
533.67	37811.35
533.84	37755.18
534.01	37867.53
534.18	37677.94
534.35	38274.78
534.52	38050.09
534.69	38377.76
534.86	38445.64
535.03	38244.35
535.20	38478.41
535.37	38583.73
535.54	38440.96
535.71	38693.74
535.88	38387.13
536.05	38506.49
536.22	38677.35
536.38	38684.37
536.55	38653.95
536.72	38251.38
536.89	38658.63
537.06	38731.18
537.23	38998.01
537.40	38906.73
537.57	38778.00
537.74	38644.59
537.91	39215.68
538.08	39306.96
538.25	38951.20
538.42	39255.46
538.59	39110.35
538.75	39414.62
538.92	39658.04
539.09	39409.94
539.26	39522.29
539.43	39428.66
539.60	39686.12
539.77	39339.72
539.94	40076.99
540.11	39924.86
540.28	39990.39
540.44	39529.31
540.61	39768.04
540.78	39924.86
540.95	40201.04
541.12	39768.04
541.29	39669.74
541.46	40175.30
541.62	39976.35
541.79	40624.68
541.96	39660.38
542.13	39754.00
542.30	40587.23
542.47	40381.26
542.63	40158.91
542.80	40311.05
542.97	40552.12
543.14	40957.03
543.31	40739.36
543.48	40914.90
543.64	41476.63
543.81	40861.07
543.98	40659.79
544.15	40589.57
544.32	40868.09
544.48	41216.83
544.65	40957.03
544.82	41081.08
544.99	41361.95
545.16	41202.79
545.32	40872.78
545.49	41799.63
545.66	42010.28
545.83	41628.77
546.00	41633.45
546.16	41490.68
546.33	41263.64
546.50	40858.73
546.67	41921.34
546.83	41022.57
547.00	41607.70
547.17	41684.94
547.34	41806.65
547.50	41556.21
547.67	41530.47
547.84	41748.14
548.00	41837.08
548.17	42480.72
548.34	42026.66
548.51	41972.83
548.67	42169.43
548.84	42337.95
549.01	41577.28
549.18	41965.81
549.34	42438.59
549.51	42490.09
549.68	42485.40
549.84	42286.46
550.01	42569.66
550.18	42071.13
550.34	42426.89
550.51	42707.76
550.68	43000.32
550.84	42522.85
551.01	42829.46
551.18	42429.23
551.34	42749.88
551.51	42667.97
551.68	42515.83
551.84	42878.61
552.01	42777.97
552.18	42880.95
552.34	42972.24
552.51	42813.08
552.68	42604.77
552.84	42628.18
553.01	43075.22
553.18	43014.37
553.34	43311.61
553.51	43126.71
553.67	43592.48
553.84	43337.36
554.01	43761.00
554.17	43828.87
554.34	43707.16
554.51	43676.74
554.67	43548.01
554.84	43700.14
555.00	43524.60
555.17	43253.10
555.33	43669.72
555.50	43674.40
555.67	43761.00
555.83	43807.81
556.00	43725.89
556.16	44648.06
556.33	44177.61
556.50	43648.65
556.66	43732.91
556.83	43435.66
556.99	44051.22
557.16	43913.13
557.32	44144.84
557.49	44208.04
557.65	43805.47
557.82	44048.88
557.98	44069.95
558.15	43856.96
558.32	43861.64
558.48	43868.66
558.65	43894.41
558.81	44004.41
558.98	44245.49
559.14	44320.38
559.31	44271.23
559.47	43835.89
559.64	44416.35
559.80	44622.31
559.97	44507.63
560.13	44325.07
560.30	44243.15
560.46	44753.38
560.63	44533.37
560.79	44463.16
560.96	44957.01
561.12	44287.62
561.29	44353.15
561.45	44713.59
561.61	44886.79
561.78	44690.19
561.94	44355.49
562.11	44818.92
562.27	44683.17
562.44	44509.97
562.60	44800.19
562.77	44807.22
562.93	44500.61
563.10	44847.00
563.26	44847.00
563.42	45195.74
563.59	44659.76
563.75	44875.09
563.92	45097.44
564.08	44835.30
564.24	44399.96
564.41	44636.36
564.57	45069.36
564.74	44854.03
564.90	44376.56
565.07	44942.97
565.23	45155.96
565.39	45132.55
565.56	45191.06
565.72	44832.96
565.88	45247.24
566.05	45443.84
566.21	44957.01
566.38	45020.20
566.54	45132.55
566.70	45251.92
566.87	45478.95
567.03	45085.74
567.19	45249.58
567.36	45413.41
567.52	45261.28
567.68	45654.49
567.85	45275.32
568.01	45558.53
568.17	44952.33
568.34	45132.55
568.50	45500.01
568.66	45258.94
568.83	45565.55
568.99	45460.23
569.15	45177.02
569.32	45476.61
569.48	45397.03
569.64	45813.65
569.81	45691.94
569.97	45827.69
570.13	45404.05
570.30	45017.86
570.46	45666.19
570.62	45427.46
570.78	45394.69
570.95	45317.45
571.11	45734.07
571.27	45612.36
571.43	45371.28
571.60	45132.55
571.76	45546.82
571.92	45720.02
572.09	45617.04
572.25	45427.46
572.41	45113.83
572.57	45624.06
572.74	46019.61
572.90	45876.84
573.06	46012.59
573.22	45900.25
573.38	45893.22
573.55	45659.17
573.71	46197.49
573.87	45757.47
574.03	45954.08
574.20	45979.82
574.36	45659.17
574.52	45661.51
574.68	46106.21
574.84	45876.84
575.01	46089.83
575.17	46117.92
575.33	45724.71
575.49	45818.33
575.65	45935.35
575.82	46138.98
575.98	45783.22
576.14	45862.80
576.30	46590.70
576.46	45944.72
576.62	45717.68
576.79	45897.91
576.95	45539.80
577.11	45869.82
577.27	45965.78
577.43	45956.42
577.59	45794.92
577.75	46110.89
577.92	45794.92
578.08	45911.95
578.24	45984.51
578.40	45933.01
578.56	45893.22
578.72	46115.58
578.88	46337.93
579.04	46176.43
579.21	45783.22
579.37	46244.30
579.53	46239.62
579.69	45727.05
579.85	46092.17
580.01	45823.01
580.17	45839.39
580.33	46092.17
580.49	46237.28
580.65	45963.44
580.82	46333.24
580.98	46117.92
581.14	45691.94
581.30	45778.54
581.46	46031.32
581.62	45900.25
581.78	46080.47
581.94	46312.18
582.10	46017.27
582.26	46265.37
582.42	45865.14
582.58	46403.46
582.74	46473.68
582.90	46286.43
583.06	46213.88
583.22	45921.31
583.38	46508.79
583.54	46302.82
583.70	46600.07
583.86	46363.67
584.02	46237.28
584.18	46316.86
584.34	46703.05
584.50	46394.10
584.66	46342.61
584.82	45954.08
584.98	46438.57
585.14	46469.00
585.30	46260.69
585.46	46326.22
585.62	46256.01
585.78	46707.73
585.94	45991.53
586.10	46298.14
586.26	46445.59
586.42	46312.18
586.58	46443.25
586.74	46096.85
586.90	46115.58
587.06	46031.32
587.22	46101.53
587.38	46391.76
587.54	46373.03
587.70	46642.20
587.86	46314.52
588.02	46003.23
588.18	46260.69
588.34	45916.63
588.49	46405.80
588.65	46326.22
588.81	46630.49
588.97	46525.17
589.13	46520.49
589.29	46099.19
589.45	46808.37
589.61	46504.10
589.77	46220.90
589.93	46564.96
590.08	46667.94
590.24	46564.96
590.40	46733.48
590.56	46965.19
590.72	46782.63
590.88	47164.14
591.04	46401.12
591.20	46700.71
591.35	47026.04
591.51	47007.32
591.67	46993.28
591.83	46890.29
591.99	46717.09
592.15	46866.89
592.31	46855.18
592.46	46632.83
592.62	46808.37
592.78	46831.78
592.94	47358.40
593.10	46958.17
593.26	47056.47
593.41	47187.54
593.57	46869.23
593.73	46918.38
593.89	47330.31
594.05	47093.92
594.20	47168.82
594.36	47236.69
594.52	47098.60
594.68	47196.90
594.84	47084.56
594.99	47456.70
595.15	47206.26
595.31	46707.73
595.47	47171.16
595.62	46749.86
595.78	46707.73
595.94	47107.96
596.10	46794.33
596.25	47440.32
596.41	46740.50
596.57	46766.24
596.73	47657.99
596.88	46855.18
597.04	47173.50
597.20	47351.38
597.36	46667.94
597.51	47358.40
597.67	46960.51
597.83	46962.85
597.99	47089.24
598.14	47161.79
598.30	46567.30
598.46	47377.12
598.61	47665.01
598.77	47079.88
598.93	47213.29
599.09	46904.34
599.24	47140.73
599.40	47615.86
599.56	47019.02
599.71	47573.73
599.87	47665.01
600.03	47269.46
600.18	47400.53
600.34	46916.04
600.50	46871.57
600.65	47334.99
600.81	47292.86
600.97	47456.70
601.12	47299.89
601.28	47482.45
601.44	47379.46
601.59	47208.61
601.75	47334.99
601.91	47274.14
602.06	47161.79
602.22	47339.68
602.37	47447.34
602.53	47339.68
602.69	47351.38
602.84	47042.43
603.00	47260.10
603.16	47035.41
603.31	47173.50
603.47	47122.01
603.62	46986.25
603.78	47288.18
603.94	47295.21
604.09	47498.83
604.25	47051.79
604.40	46880.93
604.56	47327.97
604.71	47187.54
604.87	46873.91
605.03	47042.43
605.18	47061.15
605.34	47295.21
605.49	46953.49
605.65	46974.55
605.80	46932.42
605.96	46583.68
606.12	47072.85
606.27	47395.85
606.43	47175.84
606.58	47377.12
606.74	47243.71
606.89	47482.45
607.05	47250.74
607.20	47100.94
607.36	47145.41
607.51	46843.48
607.67	47033.07
607.82	46862.21
607.98	47047.11
608.13	46845.82
608.29	46909.02
608.44	47070.51
608.60	46810.71
608.75	47224.99
608.91	46672.62
609.06	46597.73
609.22	47250.74
609.37	46618.79
609.53	47173.50
609.68	47044.77
609.84	46824.76
609.99	47019.02
610.15	47037.75
610.30	46670.28
610.46	46429.21
610.61	46808.37
610.76	46597.73
610.92	46349.63
611.07	46679.64
611.23	46864.55
611.38	46726.46
611.54	47215.63
611.69	46791.99
611.84	46843.48
612.00	46373.03
612.15	46904.34
612.31	47051.79
612.46	46237.28
612.62	46286.43
612.77	46380.06
612.92	46806.03
613.08	46506.44
613.23	46892.63
613.39	46525.17
613.54	46389.42
613.69	46700.71
613.85	46471.34
614.00	46515.81
614.15	46677.30
614.31	45900.25
614.46	46281.75
614.62	46103.87
614.77	46274.73
614.92	46426.87
615.08	46206.86
615.23	46742.84
615.38	46600.07
615.54	46295.80
615.69	46366.01
615.84	46471.34
616.00	46820.08
616.15	46256.01
616.30	46630.49
616.46	46281.75
616.61	46075.79
616.76	46567.30
616.92	46005.57
617.07	46241.96
617.22	46171.75
617.37	45694.28
617.53	45820.67
617.68	46014.93
617.83	46195.15
617.99	46696.03
618.14	46277.07
618.29	46181.11
618.45	46195.15
618.60	45895.56
618.75	46092.17
618.90	45787.90
619.06	45783.22
619.21	46302.82
619.36	46394.10
619.51	46115.58
619.67	45968.12
619.82	45546.82
619.97	46251.33
620.12	45769.18
620.28	45848.75
620.43	46005.57
620.58	46117.92
620.73	45717.68
620.89	46054.72
621.04	45876.84
621.19	45448.52
621.34	45755.13
621.49	45441.50
621.65	45621.72
621.80	45975.14
621.95	45738.75
622.10	45879.18
622.25	45710.66
622.41	45722.37
622.56	45235.53
622.71	45535.12
622.86	45769.18
623.01	45916.63
623.16	45256.60
623.32	45485.97
623.47	45153.62
623.62	45249.58
623.77	45474.27
623.92	45368.94
624.07	45710.66
624.23	45476.61
624.38	45333.84
624.53	45074.04
624.68	44739.34
624.83	44844.66
624.98	45160.64
625.13	44875.09
625.29	44809.56
625.44	45127.87
625.59	45265.96
625.74	45048.29
625.89	44964.03
626.04	45158.30
626.19	45251.92
626.34	45008.50
626.49	44737.00
626.65	44776.79
626.80	44706.57
626.95	44746.36
627.10	44371.88
627.25	45027.23
627.40	44598.91
627.55	44664.44
627.70	44399.96
627.85	44744.02
628.00	44966.37
628.15	44697.21
628.30	44268.89
628.45	44554.44
628.60	44470.18
628.76	44346.13
628.91	44610.61
629.06	44343.79
629.21	44451.45
629.36	44175.27
629.51	44353.15
629.66	44772.11
629.81	44528.69
629.96	44619.97
630.11	44552.10
630.26	44311.02
630.41	44734.66
630.56	44165.91
630.71	44240.81
630.86	44093.35
631.01	44292.30
631.16	44142.50
631.31	44020.80
631.46	43643.97
631.61	44570.82
631.76	44229.10
631.91	44168.25
632.06	44463.16
632.21	44608.27
632.36	44587.21
632.51	43688.44
632.66	43976.33
632.81	44203.36
632.96	44067.61
633.10	43807.81
633.25	43878.02
633.40	44247.83
633.55	44479.54
633.70	43899.09
633.85	43765.68
634.00	43435.66
634.15	43283.53
634.30	43569.07
634.45	43693.12
634.60	44027.82
634.75	43515.24
634.90	43690.78
635.05	43859.30
635.19	43540.99
635.34	43445.02
635.49	43290.55
635.64	43838.23
635.79	43323.32
635.94	43658.01
636.09	43356.08
636.24	43246.08
636.39	43798.44
636.53	43739.93
636.68	43086.92
636.83	43201.61
636.98	43328.00
637.13	43159.48
637.28	43248.42
637.43	42855.21
637.57	43463.75
637.72	42768.61
637.87	42871.59
638.02	43414.60
638.17	43124.37
638.32	42969.90
638.46	42878.61
638.61	42810.74
638.76	42852.87
638.91	42707.76
639.06	42431.57
639.20	42529.87
639.35	42703.07
639.50	42918.40
639.65	42848.19
639.80	43267.14
639.94	43194.59
640.09	42988.62
640.24	42845.85
640.39	42403.49
640.54	42293.48
640.68	42873.93
640.83	42766.27
640.98	42321.57
641.13	42237.31
641.27	42344.97
641.42	42429.23
641.57	42649.24
641.72	42391.78
641.86	42574.34
642.01	42579.03
642.16	42637.54
642.31	42417.53
642.45	42684.35
642.60	41839.42
642.75	42464.34
642.90	42218.58
643.04	42010.28
643.19	42476.04
643.34	42162.41
643.48	41811.33
643.63	42026.66
643.78	42068.79
643.93	42513.49
644.07	42244.33
644.22	42277.10
644.37	41904.95
644.51	42045.38
644.66	42026.66
644.81	42148.37
644.95	41631.11
645.10	41652.17
645.25	41116.19
645.39	41436.84
645.54	42080.49
645.69	41745.80
645.83	41050.66
645.98	41619.41
646.13	41434.50
646.27	41486.00
646.42	41406.42
646.57	41563.23
646.71	41972.83
646.86	41652.17
647.00	41993.89
647.15	41837.08
647.30	41301.09
647.44	41308.11
647.59	41436.84
647.74	41141.94
647.88	41542.17
648.03	41808.99
648.17	41722.39
648.32	42197.52
648.47	41879.21
648.61	41481.31
648.76	41371.31
648.90	41090.44
649.05	41280.03
649.20	40992.14
649.34	41017.89
649.49	41563.23
649.63	41331.52
649.78	41518.76
649.92	41441.53
650.07	41537.49
650.21	41308.11
650.36	41897.93
650.51	41263.64
650.65	41186.41
650.80	41029.59
650.94	41031.93
651.09	41099.81
651.23	40320.41
651.38	40886.82
651.52	40409.35
651.67	41078.74
651.81	40788.52
651.96	40641.06
652.10	40732.34
652.25	40594.25
652.39	40699.58
652.54	40800.22
652.68	40783.83
652.83	40556.80
652.97	40816.60
653.12	40603.61
653.26	40545.10
653.41	40648.08
653.55	40985.12
653.70	40659.79
653.84	40449.14
653.99	41160.66
654.13	40376.58
654.27	40685.53
654.42	40467.86
654.56	40081.67
654.71	40137.85
654.85	40297.00
655.00	40521.69
655.14	40575.53
655.29	40809.58
655.43	40477.22
655.57	40011.46
655.72	39988.05
655.86	40172.96
656.01	40140.19
656.15	39920.18
656.30	40179.98
656.44	40006.78
656.58	40051.25
656.73	40046.57
656.87	39852.30
657.01	39599.52
657.16	39948.26
657.30	39812.51
657.45	40002.10
657.59	39672.08
657.73	39681.44
657.88	39796.13
658.02	39772.72
658.16	39604.20
658.31	39868.69
658.45	39601.86
658.60	39714.21
658.74	39416.96
658.88	39779.74
659.03	39339.72
659.17	39316.32
659.31	38873.96
659.46	39236.74
659.60	39786.77
659.74	39093.97
659.89	38621.18
660.03	39040.14
660.17	39215.68
660.32	39033.11
660.46	39290.57
660.60	38675.01
660.74	38740.55
660.89	39061.20
661.03	39030.77
661.17	38190.52
661.32	38490.11
661.46	38747.57
661.60	38658.63
661.74	38576.71
661.89	38595.43
662.03	38913.75
662.17	38155.41
662.31	38225.63
662.46	38326.27
662.60	38096.90
662.74	37397.08
662.88	37914.34
663.03	38040.73
663.17	37666.24
663.31	37933.06
663.45	38431.60
663.60	38312.23
663.74	37703.69
663.88	37752.84
664.02	37982.21
664.17	37912.00
664.31	37563.26
664.45	37228.56
664.59	37783.27
664.73	37263.67
664.88	37329.20
665.02	36926.63
665.16	37511.77
665.30	37352.61
665.44	37352.61
665.59	37055.36
665.73	37308.14
665.87	36589.59
666.01	37219.20
666.15	37118.56
666.29	36996.85
666.44	37308.14
666.58	36383.63
666.72	36692.58
666.86	36793.22
667.00	36776.84
667.14	36353.20
667.28	36746.41
667.43	36517.04
667.57	36891.52
667.71	36486.61
667.85	36437.46
667.99	36236.17
668.13	36011.48
668.27	35756.36
668.41	36100.42
668.56	35342.09
668.70	35702.53
668.84	35672.10
668.98	35508.27
669.12	35704.87
669.26	36144.89
669.40	35765.73
669.54	35651.04
669.68	35620.61
669.82	35335.07
669.96	35164.21
670.10	35185.27
670.25	35257.83
670.39	35051.86
670.53	35126.76
670.67	35234.42
670.81	35278.89
670.95	34927.81
671.09	35098.67
671.23	35110.38
671.37	34810.79
671.51	34735.89
671.65	34520.56
671.79	34768.66
671.93	34239.70
672.07	34747.59
672.21	34567.37
672.35	34335.66
672.49	34340.34
672.63	33991.60
672.77	33963.51
672.91	33923.72
673.05	33811.38
673.19	33825.42
673.33	33834.78
673.47	33656.90
673.61	33654.56
673.75	33617.11
673.89	33275.40
674.03	33408.81
674.17	33125.60
674.31	33350.29
674.45	33039.00
674.59	32952.40
674.73	32919.63
674.87	32673.88
675.01	32404.72
675.15	32444.51
675.29	32662.18
675.43	32758.14
675.56	32828.35
675.70	32423.44
675.84	32510.04
675.98	31428.71
676.12	32196.41
676.26	32662.18
676.40	31964.70
676.54	31611.28
676.68	31796.18
676.82	31557.44
676.96	32025.55
677.10	31943.63
677.23	31365.52
677.37	31342.11
677.51	31480.21
677.65	31316.37
677.79	31388.92
677.93	31033.16
678.07	31225.09
678.21	30937.20
678.34	30962.95
678.48	30555.69
678.62	30441.01
678.76	30565.06
678.90	30632.93
679.04	30623.57
679.18	30345.05
679.31	29984.60
679.45	30125.04
679.59	29748.21
679.73	30169.51
679.87	29972.90
680.00	29666.29
680.14	29640.54
680.28	29694.38
680.42	29738.85
680.56	29085.84
680.70	29144.35
680.83	29053.07
680.97	29064.77
681.11	29015.62
681.25	28898.59
681.39	28531.13
681.52	28723.05
681.66	27967.06
681.80	28030.26
681.94	27922.59
682.07	27922.59
682.21	27985.79
682.35	27903.87
682.49	28320.48
682.62	27798.54
682.76	28173.03
682.90	27716.62
683.04	27676.83
683.17	27185.32
683.31	27393.63
683.45	27386.61
683.59	27070.64
683.72	27147.87
683.86	26728.92
684.00	26508.91
684.13	26759.34
684.27	26602.53
684.41	26478.48
684.55	26630.62
684.68	26309.96
684.82	26078.25
684.96	26307.62
685.09	26164.85
685.23	26452.73
685.37	26595.51
685.50	26199.96
685.64	26237.41
685.78	25944.84
685.91	25799.73
686.05	25198.21
686.19	24833.08
686.32	25385.45
686.46	24678.61
686.60	25022.67
686.73	25039.05
686.87	25017.99
687.01	25083.52
687.14	24744.14
687.28	24664.57
687.42	24690.31
687.55	24336.89
687.69	24482.00
687.82	24327.53
687.96	24320.51
688.10	24306.46
688.23	23908.57
688.37	24208.16
688.50	24224.54
688.64	23737.71
688.78	23730.69
688.91	23573.88
689.05	23517.70
689.18	23304.71
689.32	22890.44
689.46	23110.45
689.59	22902.14
689.73	23489.62
689.86	22995.76
690.00	22852.99
690.13	23143.22
690.27	22867.03
690.41	22759.37
690.54	22307.65
690.68	22483.19
690.81	22441.06
690.95	22335.73
691.08	22111.04
691.22	22153.17
691.35	21575.06
691.49	21982.31
691.62	22038.48
691.76	21614.85
691.89	21762.30
692.03	21385.47
692.16	20915.03
692.30	21385.47
692.43	21231.00
692.57	21153.76
692.70	20725.44
692.84	21263.77
692.97	20683.31
693.11	20973.54
693.24	20395.43
693.38	20507.77
693.51	20470.33
693.65	20334.57
693.78	20313.51
693.92	20329.89
694.05	20166.06
694.19	19974.13
694.32	20149.67
694.45	20276.06
694.59	20018.60
694.72	19843.06
694.86	19751.78
694.99	19522.41
695.13	19491.98
695.26	19438.15
695.39	19281.33
695.53	19243.88
695.66	19288.35
695.80	19297.72
695.93	19283.67
696.07	18630.66
696.20	18867.06
696.33	18401.29
696.47	18232.77
696.60	18532.36
696.73	18892.80
696.87	18487.89
697.00	18333.42
697.14	18204.69
697.27	17804.46
697.40	18106.38
697.54	18195.32
697.67	17649.98
697.80	17926.16
697.94	17942.55
698.07	17778.71
698.21	17554.02
698.34	17589.13
698.47	17331.67
698.61	16699.72
698.74	17188.89
698.87	17369.12
699.01	16938.46
699.14	17121.02
699.27	16924.41
699.40	16964.20
699.54	16606.10
699.67	16730.15
699.80	16783.98
699.94	16573.33
700.07	16599.08
700.20	16201.19
700.34	16252.68
700.47	16194.17
700.60	16430.56
700.73	16140.33
700.87	15866.49
701.00	15978.84
701.13	15531.80
701.26	15721.38
701.40	15524.77
701.53	15709.68
701.66	15665.21
701.79	15538.82
701.93	15311.78
702.06	15220.50
702.19	15424.13
702.32	15152.63
702.46	15147.95
702.59	15044.96
702.72	15035.60
702.85	14848.36
702.99	14937.30
703.12	14698.56
703.25	14544.09
703.38	14518.34
703.51	14473.87
703.65	14382.59
703.78	14349.82
703.91	14174.28
704.04	14111.09
704.17	14036.19
704.31	14113.43
704.44	13991.72
704.57	13909.80
704.70	14019.81
704.83	13685.11
704.96	13502.55
705.10	13720.22
705.23	13598.51
>>>>>End Processed Spectral Data<<<<<
