SpectraSuite Data File
++++++++++++++++++++++++++++++++++++
Date: Fri Oct 25 10:43:52 EDT 2013
User: price-jones
Dark Spectrum Present: No
Reference Spectrum Present: No
Number of Sampled Component Spectra: 1
Spectrometers: USB2+H05261
Integration Time (usec): 100000 (USB2+H05261)
Spectra Averaged: 1 (USB2+H05261)
Boxcar Smoothing: 0 (USB2+H05261)
Correct for Electrical Dark: No (USB2+H05261)
Strobe/Lamp Enabled: No (USB2+H05261)
Correct for Detector Non-linearity: No (USB2+H05261)
Correct for Stray Light: No (USB2+H05261)
Number of Pixels in Processed Spectrum: 2048
>>>>>Begin Processed Spectral Data<<<<<
365.73	49.15
365.92	49.15
366.12	49.15
366.32	35.11
366.52	0.00
366.72	35.11
366.91	16.38
367.11	0.00
367.31	60.85
367.51	44.47
367.70	72.56
367.90	86.60
368.10	49.15
368.30	2.34
368.49	11.70
368.69	79.58
368.89	0.00
369.09	16.38
369.28	4.68
369.48	63.19
369.68	58.51
369.87	58.51
370.07	72.56
370.27	98.30
370.47	154.48
370.66	360.44
370.86	447.04
371.06	479.81
371.25	454.06
371.45	500.87
371.65	465.77
371.84	407.25
372.04	510.24
372.24	465.77
372.44	498.53
372.63	528.96
372.83	458.74
373.03	489.17
373.22	430.66
373.42	535.98
373.62	521.94
373.81	603.86
374.01	559.39
374.21	519.60
374.40	517.26
374.60	599.18
374.79	575.77
374.99	557.05
375.19	641.31
375.38	596.84
375.58	545.34
375.78	594.50
375.97	526.62
376.17	662.37
376.37	615.56
376.56	603.86
376.76	564.07
376.95	629.60
377.15	795.78
377.35	657.69
377.54	636.63
377.74	653.01
377.93	667.05
378.13	636.63
378.33	697.48
378.52	683.44
378.72	716.20
378.91	678.76
379.11	681.10
379.31	690.46
379.50	660.03
379.70	753.65
379.89	706.84
380.09	664.71
380.28	718.54
380.48	704.50
380.68	697.48
380.87	720.88
381.07	725.57
381.26	788.76
381.46	723.23
381.65	732.59
381.85	807.48
382.04	720.88
382.24	730.25
382.43	692.80
382.63	688.12
382.83	816.85
383.02	704.50
383.22	786.42
383.41	805.14
383.61	702.16
383.80	866.00
384.00	753.65
384.19	734.93
384.39	760.67
384.58	823.87
384.78	866.00
384.97	870.68
385.17	763.01
385.36	781.74
385.56	905.79
385.75	777.06
385.95	823.87
386.14	873.02
386.34	837.91
386.53	912.81
386.72	856.64
386.92	837.91
387.11	931.53
387.31	908.13
387.50	830.89
387.70	880.04
387.89	819.19
388.09	917.49
388.28	950.26
388.48	919.83
388.67	919.83
388.86	940.90
389.06	992.39
389.25	1048.56
389.45	1102.39
389.64	997.07
389.84	971.32
390.03	1057.92
390.22	1067.28
390.42	964.30
390.61	1013.45
390.81	994.73
391.00	1102.39
391.19	1088.35
391.39	1078.99
391.58	1086.01
391.78	1032.18
391.97	1100.05
392.16	1060.26
392.36	1062.60
392.55	1053.24
392.75	922.17
392.94	1032.18
393.13	992.39
393.33	997.07
393.52	1146.86
393.71	1128.14
393.91	1139.84
394.10	1100.05
394.29	1146.86
394.49	1214.74
394.68	1153.88
394.88	1245.16
395.07	1329.42
395.26	1284.95
395.46	1273.25
395.65	1158.57
395.84	1238.14
396.04	1266.23
396.23	1210.06
396.42	1177.29
396.62	1160.91
396.81	1261.55
397.00	1322.40
397.19	1242.82
397.39	1310.70
397.58	1418.36
397.77	1479.22
397.97	1378.58
398.16	1528.37
398.35	1507.30
398.55	1420.71
398.74	1528.37
398.93	1589.22
399.12	1526.03
399.32	1530.71
399.51	1526.03
399.70	1692.21
399.90	1603.27
400.09	1624.33
400.28	1605.61
400.47	1659.44
400.67	1783.49
400.86	1621.99
401.05	1769.44
401.24	1743.70
401.44	1776.47
401.63	1785.83
401.82	1734.34
402.01	1792.85
402.21	1778.81
402.40	1750.72
402.59	1717.95
402.78	1727.32
402.97	1825.62
403.17	1856.04
403.36	1867.75
403.55	1839.66
403.74	1970.73
403.93	2012.86
404.13	1935.62
404.32	1952.01
404.51	1989.46
404.70	1914.56
404.89	2015.20
405.09	2038.61
405.28	1970.73
405.47	2125.21
405.66	1919.24
405.85	2045.63
406.05	2019.88
406.24	2052.65
406.43	2064.35
406.62	2193.08
406.81	2256.28
407.00	2076.06
407.20	2113.50
407.39	2087.76
407.58	2223.51
407.77	2195.42
407.96	2258.62
408.15	2352.24
408.34	2244.57
408.54	2389.69
408.73	2424.80
408.92	2459.90
409.11	2396.71
409.30	2443.52
409.49	2270.32
409.68	2399.05
409.87	2317.13
410.07	2289.04
410.26	2410.75
410.45	2544.16
410.64	2490.33
410.83	2516.08
411.02	2647.15
411.21	2588.63
411.40	2677.57
411.59	2588.63
411.78	2750.13
411.98	2686.94
412.17	2736.09
412.36	2794.60
412.55	2677.57
412.74	2686.94
412.93	2832.05
413.12	2864.82
413.31	3030.99
413.50	2899.92
413.69	2949.08
413.88	3014.61
414.07	2902.26
414.26	3028.65
414.45	3141.00
414.64	3112.91
414.83	3169.09
415.02	3124.62
415.22	3141.00
415.41	3108.23
415.60	3225.26
415.79	3269.73
415.98	3449.95
416.17	3386.76
416.36	3197.17
416.55	3258.03
416.74	3492.08
416.93	3368.03
417.12	3314.20
417.31	3440.59
417.50	3215.90
417.69	3648.90
417.88	3578.68
418.07	3445.27
418.26	3426.54
418.45	3487.40
418.64	3709.75
418.83	3641.87
419.02	3744.86
419.21	3679.32
419.39	3651.24
419.58	3616.13
419.77	3578.68
419.96	3655.92
420.15	3843.16
420.34	3826.78
420.53	3695.71
420.72	3908.69
420.91	3920.40
421.10	3920.40
421.29	4107.64
421.48	3943.80
421.67	3896.99
421.86	4009.34
422.05	3817.41
422.24	3861.88
422.43	3925.08
422.61	3985.93
422.80	3988.27
422.99	4039.76
423.18	3964.87
423.37	4093.60
423.56	3976.57
423.75	4088.92
423.94	3971.89
424.13	3871.25
424.32	3904.01
424.50	4084.23
424.69	4030.40
424.88	4166.15
425.07	3995.29
425.26	3913.38
425.45	3957.85
425.64	3997.64
425.83	4009.34
426.01	4154.45
426.20	4177.86
426.39	4201.26
426.58	3969.55
426.77	4023.38
426.96	4037.42
427.15	4189.56
427.33	4063.17
427.52	4152.11
427.71	4304.25
427.90	4337.01
428.09	4173.18
428.28	4278.50
428.46	4297.22
428.65	4126.36
428.84	4409.57
429.03	4463.40
429.22	4194.24
429.40	4184.88
429.59	4248.07
429.78	4126.36
429.97	3943.80
430.16	4152.11
430.34	4088.92
430.53	4201.26
430.72	4299.56
430.91	4227.01
431.10	4407.23
431.28	4629.58
431.47	4849.59
431.66	4873.00
431.85	4760.65
432.03	4568.73
432.22	4741.93
432.41	4734.90
432.60	4915.12
432.79	4912.78
432.97	4779.37
433.16	4814.48
433.35	4744.27
433.54	4643.62
433.72	4760.65
433.91	4681.07
434.10	4865.97
434.28	4931.51
434.47	4744.27
434.66	5025.13
434.85	4983.00
435.03	5181.95
435.22	4943.21
435.41	5224.08
435.59	5238.12
435.78	5205.35
435.97	5195.99
436.16	5247.48
436.34	5392.59
436.53	5172.58
436.72	5350.46
436.90	5135.14
437.09	5338.76
437.28	5231.10
437.46	5308.34
437.65	5203.01
437.84	5259.18
438.02	5338.76
438.21	5186.63
438.40	5331.74
438.58	5488.56
438.77	5504.94
438.96	5411.32
439.14	5774.10
439.33	5795.17
439.52	5825.59
439.70	5722.61
439.89	5820.91
440.08	5902.83
440.26	6073.69
440.45	5944.96
440.63	5912.19
440.82	6069.01
441.01	6036.24
441.19	6069.01
441.38	6209.44
441.57	6188.38
441.75	6195.40
441.94	6366.26
442.12	6448.18
442.31	6436.47
442.50	6377.96
442.68	6352.21
442.87	6504.35
443.05	6478.60
443.24	6494.99
443.43	6607.33
443.61	6649.46
443.80	6738.40
443.98	6569.88
444.17	6326.47
444.35	6541.80
444.54	6562.86
444.73	6719.68
444.91	6499.67
445.10	6604.99
445.28	6527.75
445.47	6612.01
445.65	6506.69
445.84	6871.81
446.02	6827.34
446.21	6724.36
446.39	6752.45
446.58	6782.87
446.77	6839.05
446.95	6764.15
447.14	6810.96
447.32	6869.47
447.51	6773.51
447.69	6703.29
447.88	6862.45
448.06	6944.37
448.25	6853.09
448.43	6927.99
448.62	6883.52
448.80	6916.28
448.99	7119.91
449.17	7124.59
449.36	6883.52
449.54	7262.68
449.73	7286.09
449.91	7403.11
450.10	7548.23
450.28	7405.46
450.46	7265.02
450.65	7489.71
450.83	7438.22
451.02	7339.92
451.20	7339.92
451.39	7255.66
451.57	7307.15
451.76	7463.97
451.94	7417.16
452.13	7316.51
452.31	7494.40
452.49	7232.26
452.68	7529.50
452.86	7344.60
453.05	7426.52
453.23	7672.28
453.42	7508.44
453.60	7510.78
453.78	7838.45
453.97	7449.93
454.15	7548.23
454.34	7524.82
454.52	7798.66
454.70	7632.49
454.89	7761.22
455.07	7744.83
455.26	7859.52
455.44	7985.91
455.62	8016.33
455.81	8049.10
455.99	8051.44
456.17	7960.16
456.36	8030.38
456.54	7962.50
456.73	8292.52
456.91	8388.48
457.09	8297.20
457.28	8557.00
457.46	8112.30
457.64	8451.67
457.83	8360.39
458.01	8191.88
458.19	8360.39
458.38	8187.19
458.56	8386.14
458.74	8376.78
458.93	8432.95
459.11	8484.44
459.29	8446.99
459.48	8594.45
459.66	8566.36
459.84	8655.30
460.03	8788.71
460.21	8585.08
460.39	8718.50
460.57	8713.81
460.76	8772.33
460.94	8842.54
461.12	8865.95
461.31	8854.25
461.49	8643.60
461.67	8767.65
461.85	9139.79
462.04	8952.55
462.22	9151.49
462.40	9312.99
462.59	9022.77
462.77	9179.58
462.95	9296.61
463.13	9294.27
463.32	9088.30
463.50	9233.41
463.68	9277.88
463.86	9343.42
464.05	9029.79
464.23	9287.25
464.41	9032.13
464.59	8992.34
464.78	9380.87
464.96	9472.15
465.14	9329.38
465.32	9376.19
465.50	9561.09
465.69	9673.43
465.87	9385.55
466.05	9418.32
466.23	9467.47
466.41	9298.95
466.60	9638.33
466.78	9277.88
466.96	9324.69
467.14	9446.40
467.32	9518.96
467.51	9799.82
467.69	9572.79
467.87	9628.96
468.05	9727.27
468.23	9760.03
468.41	9678.12
468.60	9921.53
468.78	9827.91
468.96	9645.35
469.14	10064.30
469.32	10003.45
469.50	9785.78
469.69	9851.31
469.87	10045.58
470.05	10108.77
470.23	9811.53
470.41	9951.96
470.59	10186.01
470.77	10171.97
470.95	10298.36
471.14	10380.28
471.32	10097.07
471.50	10607.31
471.68	10413.04
471.86	10621.35
472.04	10616.67
472.22	10857.75
472.40	10445.81
472.58	10740.72
472.77	10752.42
472.95	10766.46
473.13	11255.64
473.31	10939.66
473.49	10967.75
473.67	11040.31
473.85	10949.03
474.03	11379.68
474.21	11342.24
474.39	11138.61
474.57	11384.37
474.75	11410.11
474.93	11424.15
475.12	11246.27
475.30	11499.05
475.48	11632.46
475.66	11506.07
475.84	11559.91
476.02	11805.66
476.20	11573.95
476.38	11712.04
476.56	12386.12
476.74	12208.23
476.92	11939.07
477.10	12156.74
477.28	12542.93
477.46	12353.35
477.64	12634.21
477.82	12746.56
478.00	12702.09
478.18	12629.53
478.36	13011.04
478.54	12924.44
478.72	13041.46
478.90	13022.74
479.08	13287.22
479.26	13570.43
479.44	13493.19
479.62	13544.68
479.80	13668.73
479.98	13940.23
480.16	13984.70
480.34	13682.77
480.52	13902.78
480.70	13769.37
480.88	13877.04
481.06	14288.97
481.24	14230.46
481.41	14534.73
481.59	14902.19
481.77	14565.15
481.95	14829.63
482.13	14731.33
482.31	14986.45
482.49	15321.15
482.67	14988.79
482.85	15234.55
483.03	15515.41
483.21	15719.04
483.39	15693.29
483.57	15690.95
483.74	15962.45
483.92	16065.44
484.10	15667.55
484.28	16203.53
484.46	16388.43
484.64	16779.30
484.82	16339.28
485.00	16112.25
485.18	16748.87
485.35	16837.81
485.53	16568.65
485.71	16224.59
485.89	16812.07
486.07	16456.31
486.25	17060.16
486.43	17055.48
486.61	17518.91
486.78	17783.39
486.96	17767.01
487.14	18202.35
487.32	18417.68
487.50	18504.28
487.68	18492.57
487.85	18743.01
488.03	18890.46
488.21	19005.15
488.39	18827.27
488.57	18904.51
488.75	19264.95
488.92	19374.95
489.10	19824.34
489.28	19714.33
489.46	20327.55
489.64	20060.73
489.81	20278.40
489.99	20528.84
490.17	20702.04
490.35	20755.87
490.53	20624.80
490.70	20734.81
490.88	20737.15
491.06	21076.52
491.24	21195.89
491.41	21050.78
491.59	21284.83
491.77	21041.42
491.95	21399.52
492.13	21912.10
492.30	21596.12
492.48	22010.40
492.66	22209.34
492.84	22654.05
493.01	22534.68
493.19	22309.99
493.37	22724.26
493.54	23122.15
493.72	22764.05
493.90	23033.21
494.08	23222.80
494.25	23358.55
494.43	23683.88
494.61	23735.37
494.79	23840.70
494.96	23723.67
495.14	23950.70
495.32	24271.36
495.49	24077.09
495.67	24423.49
495.85	24596.69
496.02	24790.95
496.20	24814.36
496.38	24807.34
496.55	25032.03
496.73	25621.84
496.91	25591.42
497.09	25369.07
497.26	25752.91
497.44	25633.55
497.62	25785.68
497.79	25867.60
497.97	25649.93
498.14	25937.82
498.32	25900.37
498.50	26019.74
498.67	26469.12
498.85	26684.45
499.03	26780.41
499.20	26808.50
499.38	26661.04
499.56	26981.70
499.73	27033.19
499.91	26969.99
500.08	27070.64
500.26	27168.94
500.44	26918.50
500.61	27168.94
500.79	26733.60
500.97	27197.02
501.14	27644.07
501.32	27433.42
501.49	27651.09
501.67	27470.87
501.84	27857.06
502.02	27669.81
502.20	28144.94
502.37	28407.08
502.55	28222.18
502.72	28346.23
502.90	28652.84
503.07	28371.97
503.25	28830.72
503.43	28624.75
503.60	28910.30
503.78	28524.11
503.95	28456.23
504.13	28907.96
504.30	29200.52
504.48	29385.43
504.65	29443.94
504.83	29289.46
505.01	29844.17
505.18	29776.30
505.36	29813.74
505.53	29832.47
505.71	30487.82
505.88	30457.39
506.06	29893.32
506.23	30445.69
506.41	30057.16
506.58	30206.95
506.76	30380.15
506.93	30719.53
507.11	30735.92
507.28	30771.02
507.46	30401.22
507.63	30551.01
507.81	30646.97
507.98	30462.07
508.16	30906.77
508.33	31309.35
508.50	31232.11
508.68	31433.39
508.85	31842.99
509.03	31332.75
509.20	31555.10
509.38	31555.10
509.55	31702.56
509.73	32137.90
509.90	31847.67
510.08	31838.31
510.25	32205.77
510.42	32137.90
510.60	32378.97
510.77	32322.80
510.95	32706.65
511.12	32383.65
511.30	32809.63
511.47	32856.44
511.64	33104.54
511.82	33046.02
511.99	32842.40
512.17	33488.38
512.34	32776.86
512.51	32917.29
512.69	33528.17
512.86	33319.87
513.04	34024.37
513.21	33699.03
513.38	33701.37
513.56	33069.43
513.73	33347.95
513.90	33511.79
514.08	33453.28
514.25	33785.63
514.43	33567.96
514.60	34106.29
514.77	33881.60
514.95	34005.64
515.12	33944.79
515.29	33670.95
515.47	34595.46
515.64	34651.63
515.81	34345.02
515.99	34204.59
516.16	34246.72
516.33	34251.40
516.51	34202.25
516.68	34075.86
516.85	33853.51
517.03	34136.71
517.20	34197.57
517.37	34817.81
517.54	35218.04
517.72	34850.58
517.89	34345.02
518.06	34319.28
518.24	34555.67
518.41	34600.14
518.58	34941.86
518.75	35124.42
518.93	35494.22
519.10	35454.44
519.27	35763.39
519.45	35512.95
519.62	35896.80
519.79	35978.72
519.96	35873.39
520.14	36385.97
520.31	35597.21
520.48	36222.13
520.65	36041.91
520.83	36449.16
521.00	36446.82
521.17	36863.44
521.34	36774.50
521.52	36683.22
521.69	36552.15
521.86	36739.39
522.03	37354.95
522.20	36825.99
522.38	37013.23
522.55	36861.10
522.72	36933.65
522.89	37092.81
523.07	37258.99
523.24	37249.63
523.41	37359.63
523.58	37277.71
523.75	37916.68
523.92	38024.34
524.10	38031.36
524.27	37977.53
524.44	37902.64
524.61	38436.28
524.78	38377.76
524.96	37942.42
525.13	38115.62
525.30	38433.94
525.47	38211.59
525.64	38234.99
525.81	38146.05
525.98	38075.84
526.16	37937.74
526.33	37890.93
526.50	38052.43
526.67	37684.97
526.84	38087.54
527.01	38232.65
527.18	38199.88
527.36	38820.13
527.53	38993.32
527.70	39072.90
527.87	38880.98
528.04	38897.36
528.21	38588.41
528.38	38967.58
528.55	39271.85
528.72	39810.17
528.89	39885.07
529.07	39435.69
529.24	39566.76
529.41	39842.94
529.58	39236.74
529.75	39625.27
529.92	39744.64
530.09	39899.11
530.26	39739.96
530.43	40105.08
530.60	39997.41
530.77	39728.25
530.94	40154.23
531.11	40055.93
531.28	40247.85
531.46	40369.56
531.63	40257.21
531.80	40114.44
531.97	40392.97
532.14	40004.44
532.31	39627.61
532.48	40676.17
532.65	40694.89
532.82	40016.14
532.99	40105.08
533.16	40229.13
533.33	40219.77
533.50	40205.72
533.67	40701.92
533.84	40353.18
534.01	40460.84
534.18	40802.56
534.35	40966.40
534.52	40514.67
534.69	41092.79
534.86	41013.21
535.03	41387.69
535.20	41610.04
535.37	41633.45
535.54	41626.43
535.71	41170.02
535.88	41123.21
536.05	41158.32
536.22	41383.01
536.38	41500.04
536.55	41127.89
536.72	40596.59
536.89	41331.52
537.06	41008.53
537.23	41434.50
537.40	41553.87
537.57	41808.99
537.74	42281.78
537.91	42120.28
538.08	41839.42
538.25	41909.63
538.42	41914.31
538.59	41930.70
538.75	41661.54
538.92	41661.54
539.09	42071.13
539.26	42604.77
539.43	42178.79
539.60	42024.32
539.77	41935.38
539.94	42033.68
540.11	41766.86
540.28	41933.04
540.44	42164.75
540.61	42014.96
540.78	41647.49
540.95	42234.97
541.12	42363.70
541.29	42370.72
541.46	42249.01
541.62	42426.89
541.79	42770.95
541.96	42368.38
542.13	42110.92
542.30	42595.41
542.47	42363.70
542.63	42494.77
542.80	42904.36
542.97	43377.15
543.14	43447.36
543.31	43405.23
543.48	43201.61
543.64	43484.81
543.81	43260.12
543.98	43384.17
544.15	43342.04
544.32	43599.50
544.48	44041.86
544.65	43882.70
544.82	44027.82
544.99	43950.58
545.16	43789.08
545.32	43021.39
545.49	43669.72
545.66	43875.68
545.83	44133.14
546.00	44053.56
546.16	44170.59
546.33	43761.00
546.50	43494.18
546.67	43915.47
546.83	44123.78
547.00	44254.85
547.17	43920.15
547.34	43952.92
547.50	43995.05
547.67	44477.20
547.84	44296.98
548.00	44414.01
548.17	44364.85
548.34	44355.49
548.51	44451.45
548.67	44418.69
548.84	44598.91
549.01	43985.69
549.18	44282.94
549.34	44596.57
549.51	44519.33
549.68	44486.56
549.84	44163.57
550.01	44907.86
550.18	44704.23
550.34	44996.80
550.51	44369.54
550.68	44055.90
550.84	44308.68
551.01	45296.39
551.18	44360.17
551.34	44437.41
551.51	45141.91
551.68	44954.67
551.84	45289.37
552.01	44631.68
552.18	44655.08
552.34	44402.30
552.51	44418.69
552.68	44594.23
552.84	45198.09
553.01	44975.73
553.18	45027.23
553.34	44891.48
553.51	44711.25
553.67	45179.36
553.84	45565.55
554.01	45633.42
554.17	45031.91
554.34	45528.10
554.51	45603.00
554.67	45476.61
554.84	45280.00
555.00	45368.94
555.17	44926.58
555.33	45132.55
555.50	45331.50
555.67	45539.80
555.83	45045.95
556.00	45731.73
556.16	45832.37
556.33	45591.30
556.50	45523.42
556.66	44875.09
556.83	45287.03
556.99	45991.53
557.16	45448.52
557.32	45464.91
557.49	45656.83
557.65	45600.66
557.82	45500.01
557.98	45577.25
558.15	45380.65
558.32	45839.39
558.48	45401.71
558.65	45425.12
558.81	45848.75
558.98	45612.36
559.14	46176.43
559.31	45900.25
559.47	45694.28
559.64	45921.31
559.80	45743.43
559.97	45820.67
560.13	45642.79
560.30	45743.43
560.46	45216.81
560.63	45485.97
560.79	45867.48
560.96	46270.05
561.12	46066.42
561.29	45638.11
561.45	45755.13
561.61	45876.84
561.78	45731.73
561.94	46012.59
562.11	46171.75
562.27	45993.87
562.44	46082.81
562.60	46209.20
562.77	46370.69
562.93	45921.31
563.10	46106.21
563.26	45930.67
563.42	46220.90
563.59	46092.17
563.75	45947.06
563.92	46162.39
564.08	46206.86
564.24	46260.69
564.41	46031.32
564.57	46251.33
564.74	46167.07
564.90	46000.89
565.07	45858.12
565.23	46036.00
565.39	45998.55
565.56	46333.24
565.72	45811.31
565.88	45958.76
566.05	45916.63
566.21	46251.33
566.38	46036.00
566.54	46443.25
566.70	46653.90
566.87	46569.64
567.03	46564.96
567.19	46794.33
567.36	46333.24
567.52	46143.66
567.68	46595.38
567.85	46185.79
568.01	46562.62
568.17	46487.72
568.34	46440.91
568.50	46232.60
568.66	46394.10
568.83	46293.46
568.99	45947.06
569.15	46082.81
569.32	46087.49
569.48	45918.97
569.64	46784.97
569.81	46366.01
569.97	46005.57
570.13	46382.40
570.30	45874.50
570.46	45764.49
570.62	46057.06
570.78	46225.58
570.95	46026.63
571.11	46569.64
571.27	46440.91
571.43	46256.01
571.60	46513.47
571.76	46080.47
571.92	46450.27
572.09	46714.75
572.25	46239.62
572.41	46543.89
572.57	46801.35
572.74	46831.78
572.90	46667.94
573.06	46920.72
573.22	46747.52
573.38	46494.74
573.55	46504.10
573.71	46476.02
573.87	46717.09
574.03	46380.06
574.20	47016.68
574.36	46405.80
574.52	46714.75
574.68	46234.94
574.84	46721.77
575.01	46384.74
575.17	46024.29
575.33	46539.21
575.49	46452.61
575.65	46438.57
575.82	46597.73
575.98	46562.62
576.14	46525.17
576.30	46677.30
576.46	46649.22
576.62	46007.91
576.79	46525.17
576.95	46749.86
577.11	46906.68
577.27	46726.46
577.43	46419.84
577.59	46583.68
577.75	46267.71
577.92	46583.68
578.08	46176.43
578.24	46000.89
578.40	46527.51
578.56	46567.30
578.72	46707.73
578.88	46820.08
579.04	47040.09
579.21	46443.25
579.37	46401.12
579.53	46417.50
579.69	46424.53
579.85	45925.99
580.01	46335.59
580.17	46571.98
580.33	46681.98
580.49	46705.39
580.65	46981.57
580.82	46623.47
580.98	46546.23
581.14	46274.73
581.30	46656.24
581.46	46733.48
581.62	46717.09
581.78	46768.58
581.94	46885.61
582.10	47042.43
582.26	46525.17
582.42	46548.57
582.58	46932.42
582.74	46916.04
582.90	46511.13
583.06	46630.49
583.22	46429.21
583.38	47068.17
583.54	46869.23
583.70	46665.60
583.86	46777.95
584.02	46351.97
584.18	46953.49
584.34	46586.02
584.50	46696.03
584.66	46740.50
584.82	46869.23
584.98	47213.29
585.14	46944.12
585.30	46684.33
585.46	46780.29
585.62	46550.91
585.78	46473.68
585.94	46234.94
586.10	46667.94
586.26	46539.21
586.42	46850.50
586.58	46674.96
586.74	46848.16
586.90	46632.83
587.06	46740.50
587.22	46859.87
587.38	46789.65
587.54	46948.81
587.70	46768.58
587.86	46843.48
588.02	46651.56
588.18	46925.40
588.34	46120.26
588.49	46167.07
588.65	46150.68
588.81	45918.97
588.97	46506.44
589.13	46216.22
589.29	46185.79
589.45	46529.85
589.61	46410.48
589.77	46731.14
589.93	46990.94
590.08	46951.15
590.24	46965.19
590.40	47194.56
590.56	46941.78
590.72	46820.08
590.88	46749.86
591.04	46770.93
591.20	47093.92
591.35	46866.89
591.51	47037.75
591.67	46506.44
591.83	46466.66
591.99	46466.66
592.15	46740.50
592.31	47028.38
592.46	46602.41
592.62	46602.41
592.78	46735.82
592.94	46799.01
593.10	46944.12
593.26	47196.90
593.41	47082.22
593.57	46600.07
593.73	46705.39
593.89	46672.62
594.05	47122.01
594.20	46770.93
594.36	47274.14
594.52	46740.50
594.68	46848.16
594.84	46831.78
594.99	46782.63
595.15	46143.66
595.31	47232.01
595.47	46827.10
595.62	46920.72
595.78	46724.11
595.94	46637.51
596.10	47009.66
596.25	46885.61
596.41	46473.68
596.57	46529.85
596.73	46628.15
596.88	46735.82
597.04	46663.26
597.20	46777.95
597.36	46829.44
597.51	47110.30
597.67	46824.76
597.83	46986.25
597.99	47140.73
598.14	47019.02
598.30	47002.64
598.46	46820.08
598.61	46953.49
598.77	46845.82
598.93	46883.27
599.09	47124.35
599.24	47533.94
599.40	47173.50
599.56	47004.98
599.71	46721.77
599.87	46859.87
600.03	46923.06
600.18	46595.38
600.34	46461.97
600.50	47019.02
600.65	46745.18
600.81	46770.93
600.97	47058.81
601.12	47236.69
601.28	46773.27
601.44	46237.28
601.59	46902.00
601.75	46520.49
601.91	47002.64
602.06	46703.05
602.22	46738.16
602.37	46550.91
602.53	46808.37
602.69	46838.80
602.84	46576.66
603.00	46768.58
603.16	46960.51
603.31	46382.40
603.47	47077.54
603.62	46473.68
603.78	46651.56
603.94	46899.65
604.09	46787.31
604.25	47117.32
604.40	46515.81
604.56	46501.76
604.71	47000.30
604.87	46899.65
605.03	46808.37
605.18	46712.41
605.34	46536.87
605.49	46464.32
605.65	46600.07
605.80	46344.95
605.96	47276.48
606.12	46749.86
606.27	47166.48
606.43	46440.91
606.58	46810.71
606.74	46377.72
606.89	46363.67
607.05	46373.03
607.20	46574.32
607.36	46323.88
607.51	46398.78
607.67	46658.58
607.82	46637.51
607.98	47026.04
608.13	46178.77
608.29	46335.59
608.44	46326.22
608.60	46384.74
608.75	46483.04
608.91	46705.39
609.06	46244.30
609.22	46993.28
609.37	46199.83
609.53	46373.03
609.68	46422.19
609.84	45965.78
609.99	45813.65
610.15	46227.92
610.30	46064.08
610.46	45860.46
610.61	46323.88
610.76	46277.07
610.92	46377.72
611.07	46417.50
611.23	46403.46
611.38	46181.11
611.54	46298.14
611.69	45727.05
611.84	45848.75
612.00	45635.77
612.15	45214.47
612.31	46230.26
612.46	45825.35
612.62	46211.54
612.77	45907.27
612.92	45872.16
613.08	45895.56
613.23	46270.05
613.39	45282.34
613.54	45200.43
613.69	45649.81
613.85	45471.93
614.00	45778.54
614.15	45736.41
614.31	45450.86
614.46	45359.58
614.62	45595.98
614.77	45736.41
614.92	45588.95
615.08	45886.20
615.23	45844.07
615.38	45687.26
615.54	45179.36
615.69	45296.39
615.84	45572.57
616.00	45588.95
616.15	44996.80
616.30	45652.15
616.46	44961.69
616.61	44825.94
616.76	45202.77
616.92	45235.53
617.07	44884.45
617.22	44884.45
617.37	45375.97
617.53	45560.87
617.68	45654.49
617.83	45656.83
617.99	44722.96
618.14	44722.96
618.29	45074.04
618.45	44907.86
618.60	44708.91
618.75	44971.05
618.90	44388.26
619.06	45036.59
619.21	44753.38
619.36	45322.13
619.51	44835.30
619.67	45109.14
619.82	44285.28
619.97	44851.69
620.12	44196.34
620.28	44729.98
620.43	45003.82
620.58	44821.26
620.73	45104.46
620.89	44390.60
621.04	44495.92
621.19	44624.65
621.34	44732.32
621.49	44779.13
621.65	44580.18
621.80	44748.70
621.95	44217.40
622.10	44491.24
622.25	44432.73
622.41	44509.97
622.56	44275.91
622.71	44622.31
622.86	44442.09
623.01	44121.44
623.16	44102.71
623.32	43835.89
623.47	44186.97
623.62	44348.47
623.77	44435.07
623.92	44414.01
624.07	44013.77
624.23	43723.55
624.38	43997.39
624.53	43517.58
624.68	43873.34
624.83	44222.08
624.98	43945.90
625.13	43522.26
625.29	43969.30
625.44	43667.37
625.59	43386.51
625.74	43391.19
625.89	43107.99
626.04	43351.40
626.19	43203.95
626.34	43585.46
626.49	43697.80
626.65	43590.14
626.80	43639.29
626.95	43753.97
627.10	43585.46
627.25	43304.59
627.40	43229.69
627.55	42885.64
627.70	42763.93
627.85	42740.52
628.00	43164.16
628.15	43306.93
628.30	43103.31
628.45	43278.85
628.60	43255.44
628.76	42658.60
628.91	43185.22
629.06	42576.69
629.21	42644.56
629.36	42560.30
629.51	42707.76
629.66	42663.28
629.81	42770.95
629.96	42810.74
630.11	42979.26
630.26	42953.51
630.41	42848.19
630.56	42667.97
630.71	42742.86
630.86	42890.32
631.01	42763.93
631.16	42422.21
631.31	42256.03
631.46	41918.99
631.61	42373.06
631.76	42536.90
631.91	42520.51
632.06	42457.32
632.21	42789.67
632.36	42890.32
632.51	42359.02
632.66	42492.43
632.81	42082.83
632.96	42234.97
633.10	42356.67
633.25	41748.14
633.40	42359.02
633.55	42431.57
633.70	42057.09
633.85	41923.68
634.00	42281.78
634.15	42155.39
634.30	41799.63
634.45	41813.67
634.60	42246.67
634.75	41935.38
634.90	41846.44
635.05	42218.58
635.19	41881.55
635.34	42211.56
635.49	42047.72
635.64	41727.07
635.79	41706.01
635.94	41610.04
636.09	41593.66
636.24	41462.59
636.39	41240.24
636.53	41794.95
636.68	41453.23
636.83	41743.45
636.98	41457.91
637.13	41153.64
637.28	41759.84
637.43	41860.48
637.57	41862.82
637.72	41305.77
637.87	41703.67
638.02	41661.54
638.17	41338.54
638.32	41291.73
638.46	41394.71
638.61	40940.65
638.76	41528.13
638.91	41427.48
639.06	41095.13
639.20	41366.63
639.35	41935.38
639.50	41017.89
639.65	41397.06
639.80	41127.89
639.94	41205.13
640.09	41191.09
640.24	40793.20
640.39	41003.85
640.54	40802.56
640.68	41102.15
640.83	40921.93
640.98	40807.24
641.13	40437.44
641.27	40973.42
641.42	40582.55
641.57	40835.33
641.72	40746.39
641.86	40392.97
642.01	40535.74
642.16	40322.75
642.31	40369.56
642.45	40575.53
642.60	39959.97
642.75	40528.72
642.90	40563.82
643.04	39966.99
643.19	40758.09
643.34	40605.95
643.48	40608.29
643.63	40027.84
643.78	40240.83
643.93	39983.37
644.07	40088.70
644.22	40128.48
644.37	40149.55
644.51	39931.88
644.66	40322.75
644.81	39978.69
644.95	40322.75
645.10	40074.65
645.25	39948.26
645.39	39658.04
645.54	39721.23
645.69	40105.08
645.83	40245.51
645.98	39924.86
646.13	39651.02
646.27	40053.59
646.42	39988.05
646.57	39971.67
646.71	39564.42
646.86	39929.54
647.00	39821.87
647.15	39620.59
647.30	39545.69
647.44	39519.95
647.59	39328.02
647.74	39091.63
647.88	39594.84
648.03	39545.69
648.17	39337.38
648.32	39578.46
648.47	39754.00
648.61	38925.45
648.76	39475.48
648.90	39721.23
649.05	39358.45
649.20	39660.38
649.34	39564.42
649.49	39215.68
649.63	38899.70
649.78	39388.88
649.92	39316.32
650.07	39882.73
650.21	39009.71
650.36	39690.80
650.51	39171.21
650.65	39941.24
650.80	39526.97
650.94	39381.85
651.09	39360.79
651.23	38960.56
651.38	38754.59
651.52	38763.95
651.67	38998.01
651.81	38820.13
651.96	39037.80
652.10	39253.12
652.25	39159.50
652.39	38888.00
652.54	38918.43
652.68	38682.03
652.83	38707.78
652.97	39044.82
653.12	39000.35
653.26	38443.30
653.41	38328.61
653.55	38691.40
653.70	38527.56
653.84	38569.69
653.99	38113.28
654.13	38600.12
654.27	38181.16
654.42	38043.07
654.56	38452.66
654.71	38628.20
654.85	38124.99
655.00	38120.31
655.14	38232.65
655.29	38029.02
655.43	38452.66
655.57	37855.82
655.72	37865.19
655.86	37544.53
656.01	37663.90
656.15	37380.70
656.30	37762.20
656.44	37523.47
656.58	37771.57
656.73	37813.70
656.87	37324.52
657.01	37090.47
657.16	37684.97
657.30	37411.12
657.45	37233.24
657.59	37593.68
657.73	37544.53
657.88	37886.25
658.02	38066.47
658.16	37848.80
658.31	37879.23
658.45	37816.04
658.60	37436.87
658.74	37563.26
658.88	37483.68
659.03	37139.62
659.17	37064.72
659.31	36875.14
659.46	37029.62
659.60	37507.08
659.74	37263.67
659.89	36680.88
660.03	37088.13
660.17	37324.52
660.32	37324.52
660.46	37310.48
660.60	36907.91
660.74	36849.39
660.89	36971.10
661.03	36666.83
661.17	36924.29
661.32	36622.36
661.46	36407.03
661.60	36561.51
661.74	36645.77
661.89	36751.09
662.03	36357.88
662.17	36107.44
662.31	36252.56
662.46	37251.97
662.60	36364.90
662.74	36514.70
662.88	35847.64
663.03	35859.35
663.17	36175.32
663.31	36098.08
663.45	35859.35
663.60	35833.60
663.74	35681.47
663.88	35793.81
664.02	35735.30
664.17	35487.20
664.31	35562.10
664.45	35456.78
664.59	35550.40
664.73	35655.72
664.88	35545.72
665.02	35065.91
665.16	35374.86
665.30	35035.48
665.44	35047.18
665.59	34848.24
665.73	35075.27
665.87	34881.00
666.01	34962.92
666.15	34785.04
666.29	35187.61
666.44	35084.63
666.58	34600.14
666.72	35541.03
666.86	35084.63
667.00	34883.34
667.14	34347.36
667.28	34363.75
667.43	34230.33
667.57	34377.79
667.71	34611.84
667.85	34534.60
667.99	34494.82
668.13	34359.06
668.27	34342.68
668.41	34323.96
668.56	34288.85
668.70	33979.90
668.84	33993.94
668.98	33645.20
669.12	34209.27
669.26	33682.65
669.40	33610.09
669.54	33457.96
669.68	33900.32
669.82	33652.22
669.96	33350.29
670.10	33570.30
670.25	33612.43
670.39	33376.04
670.53	33376.04
670.67	33113.90
670.81	33319.87
670.95	33406.47
671.09	32973.47
671.23	32975.81
671.37	32608.34
671.51	32655.15
671.65	32711.33
671.79	32615.37
671.93	32884.53
672.07	32762.82
672.21	32634.09
672.35	32779.20
672.49	32458.55
672.63	32322.80
672.77	32685.58
672.91	32360.25
673.05	32140.24
673.19	32671.54
673.33	32100.45
673.47	31646.38
673.61	31634.68
673.75	31683.83
673.89	31709.58
674.03	31974.06
674.17	31494.25
674.31	31498.93
674.45	31627.66
674.59	31761.07
674.73	31955.33
674.87	31332.75
675.01	31552.76
675.15	31028.48
675.29	30799.11
675.43	31218.07
675.56	30953.58
675.70	30918.48
675.84	31012.10
675.98	30064.18
676.12	30494.84
676.26	30834.22
676.40	30630.59
676.54	30892.73
676.68	30476.12
676.82	29902.68
676.96	30141.42
677.10	29947.15
677.23	29872.26
677.37	29560.97
677.51	30036.09
677.65	29689.70
677.79	29298.83
677.93	29385.43
678.07	29151.37
678.21	28840.08
678.34	28950.09
678.48	29273.08
678.62	28847.10
678.76	28994.56
678.90	28737.10
679.04	28610.71
679.18	28666.88
679.31	28254.95
679.45	28168.35
679.59	28360.27
679.73	28364.95
679.87	28608.37
680.00	28081.75
680.14	28041.96
680.28	28194.09
680.42	27735.35
680.56	27641.73
680.70	27714.28
680.83	27597.26
680.97	27833.65
681.11	27431.08
681.25	27562.15
681.39	27300.01
681.52	27255.54
681.66	27161.92
681.80	27187.66
681.94	27115.11
682.07	27044.89
682.21	27136.17
682.35	26932.54
682.49	26988.72
682.62	26827.22
682.76	26555.72
682.90	26333.37
683.04	26602.53
683.17	26298.26
683.31	25912.07
683.45	25961.22
683.59	25916.75
683.72	25790.36
683.86	26134.42
684.00	26047.82
684.13	25563.33
684.27	25486.09
684.41	25359.70
684.55	25340.98
684.68	25469.71
684.82	25064.80
684.96	25238.00
685.09	25235.66
685.23	24769.89
685.37	25039.05
685.50	24615.41
685.64	24802.66
685.78	24746.48
685.91	24627.12
686.05	24278.38
686.19	24285.40
686.32	24074.75
686.46	23723.67
686.60	23236.84
686.73	23183.01
686.87	23133.86
687.01	23417.06
687.14	23400.68
687.28	22913.84
687.42	23009.81
687.55	23276.63
687.69	23236.84
687.82	23183.01
687.96	22988.74
688.10	23143.22
688.23	22953.63
688.37	22845.97
688.50	22876.40
688.64	22544.04
688.78	22279.56
688.91	22396.59
689.05	22291.26
689.18	22569.79
689.32	22487.87
689.46	22317.01
689.59	22342.75
689.73	22478.50
689.86	22134.45
690.00	22036.14
690.13	21991.67
690.27	21397.18
690.41	21762.30
690.54	21572.72
690.68	21245.04
690.81	21434.63
690.95	21537.61
691.08	21422.92
691.22	21167.80
691.35	21139.72
691.49	20999.29
691.62	21172.49
691.76	21025.03
691.89	20830.77
692.03	20760.55
692.16	20947.79
692.30	20439.90
692.43	20549.90
692.57	20315.85
692.70	20114.56
692.84	20451.60
692.97	20093.50
693.11	20264.36
693.24	19697.95
693.38	20088.82
693.51	19777.53
693.65	20084.14
693.78	19613.69
693.92	19822.00
694.05	19906.26
694.19	19419.42
694.32	19515.39
694.45	19332.82
694.59	19433.47
694.72	19066.00
694.86	18876.42
694.99	18738.33
695.13	19133.88
695.26	18775.78
695.39	18773.44
695.53	18906.85
695.66	18743.01
695.80	18764.07
695.93	18476.19
696.07	18349.80
696.20	18644.71
696.33	18387.25
696.47	18108.72
696.60	17926.16
696.73	17862.97
696.87	17977.65
697.00	17937.87
697.14	17600.83
697.27	17750.62
697.40	17364.43
697.54	17715.51
697.67	17748.28
697.80	17341.03
697.94	17111.66
698.07	17420.61
698.21	17212.30
698.34	17357.41
698.47	17364.43
698.61	16826.11
698.74	16877.60
698.87	16973.56
699.01	16578.01
699.14	16521.84
699.27	16255.02
699.40	16425.88
699.54	16519.50
699.67	16306.51
699.80	16304.17
699.94	16189.49
700.07	16088.84
700.20	16072.46
700.34	16128.63
700.47	15978.84
700.60	16091.18
700.73	15927.35
700.87	16051.39
701.00	15597.33
701.13	15627.76
701.26	15747.12
701.40	15447.54
701.53	15307.10
701.66	15276.68
701.79	15183.06
701.93	15243.91
702.06	14974.75
702.19	14843.68
702.32	15103.48
702.46	14867.08
702.59	14895.17
702.72	14689.20
702.85	14906.87
702.99	14703.25
703.12	14789.85
703.25	14658.78
703.38	14204.71
703.51	14431.74
703.65	14361.53
703.78	14335.78
703.91	14083.00
704.04	14078.32
704.17	14225.78
704.31	14078.32
704.44	13916.83
704.57	14066.62
704.70	13963.64
704.83	13757.67
704.96	13884.06
705.10	13933.21
705.23	13788.10
>>>>>End Processed Spectral Data<<<<<
