SpectraSuite Data File
++++++++++++++++++++++++++++++++++++
Date: Fri Oct 25 10:48:21 EDT 2013
User: price-jones
Dark Spectrum Present: No
Reference Spectrum Present: No
Number of Sampled Component Spectra: 1
Spectrometers: USB2+H05261
Integration Time (usec): 100000 (USB2+H05261)
Spectra Averaged: 1 (USB2+H05261)
Boxcar Smoothing: 0 (USB2+H05261)
Correct for Electrical Dark: No (USB2+H05261)
Strobe/Lamp Enabled: No (USB2+H05261)
Correct for Detector Non-linearity: No (USB2+H05261)
Correct for Stray Light: No (USB2+H05261)
Number of Pixels in Processed Spectrum: 2048
>>>>>Begin Processed Spectral Data<<<<<
365.73	142.77
365.92	142.77
366.12	142.77
366.32	105.32
366.52	16.38
366.72	18.72
366.91	18.72
367.11	58.51
367.31	2.34
367.51	49.15
367.70	32.77
367.90	25.75
368.10	124.05
368.30	65.54
368.49	102.98
368.69	100.64
368.89	65.54
369.09	46.81
369.28	30.43
369.48	49.15
369.68	37.45
369.87	156.82
370.07	114.69
370.27	42.13
370.47	210.65
370.66	428.32
370.86	510.24
371.06	538.32
371.25	528.96
371.45	479.81
371.65	470.45
371.84	531.30
372.04	475.13
372.24	505.56
372.44	531.30
372.63	521.94
372.83	416.62
373.03	589.82
373.22	533.64
373.42	566.41
373.62	580.45
373.81	552.37
374.01	578.11
374.21	498.53
374.40	578.11
374.60	596.84
374.79	571.09
374.99	683.44
375.19	713.86
375.38	613.22
375.58	650.67
375.78	641.31
375.97	580.45
376.17	613.22
376.37	599.18
376.56	613.22
376.76	641.31
376.95	678.76
377.15	678.76
377.35	688.12
377.54	641.31
377.74	631.94
377.93	720.88
378.13	692.80
378.33	713.86
378.52	685.78
378.72	620.24
378.91	667.05
379.11	671.73
379.31	713.86
379.50	657.69
379.70	774.72
379.89	791.10
380.09	718.54
380.28	763.01
380.48	767.70
380.68	767.70
380.87	758.33
381.07	755.99
381.26	727.91
381.46	713.86
381.65	741.95
381.85	690.46
382.04	741.95
382.24	786.42
382.43	851.96
382.63	767.70
382.83	737.27
383.02	826.21
383.22	821.53
383.41	739.61
383.61	814.51
383.80	856.64
384.00	685.78
384.19	748.97
384.39	835.57
384.58	795.78
384.78	870.68
384.97	830.89
385.17	894.08
385.36	833.23
385.56	880.04
385.75	823.87
385.95	823.87
386.14	880.04
386.34	861.32
386.53	863.66
386.72	849.61
386.92	896.43
387.11	929.19
387.31	901.11
387.50	910.47
387.70	985.37
387.89	861.32
388.09	929.19
388.28	842.59
388.48	940.90
388.67	1062.60
388.86	1001.75
389.06	931.53
389.25	1022.81
389.45	1018.13
389.64	947.92
389.84	1034.52
390.03	1043.88
390.22	966.64
390.42	978.34
390.61	1032.18
390.81	1039.20
391.00	1069.62
391.19	1036.86
391.39	1100.05
391.58	1137.50
391.78	1095.37
391.97	1064.94
392.16	1074.31
392.36	1050.90
392.55	1116.44
392.75	1125.80
392.94	1034.52
393.13	1125.80
393.33	1036.86
393.52	1034.52
393.71	1172.61
393.91	1181.97
394.10	1125.80
394.29	1256.87
394.49	1160.91
394.68	1249.85
394.88	1282.61
395.07	1238.14
395.26	1317.72
395.46	1238.14
395.65	1317.72
395.84	1282.61
396.04	1322.40
396.23	1203.04
396.42	1200.69
396.62	1266.23
396.81	1254.53
397.00	1320.06
397.19	1249.85
397.39	1291.98
397.58	1423.05
397.77	1383.26
397.97	1462.83
398.16	1430.07
398.35	1504.96
398.55	1476.88
398.74	1600.93
398.93	1607.95
399.12	1544.75
399.32	1558.80
399.51	1526.03
399.70	1593.90
399.90	1565.82
400.09	1671.14
400.28	1612.63
400.47	1643.06
400.67	1710.93
400.86	1696.89
401.05	1799.87
401.24	1734.34
401.44	1755.40
401.63	1741.36
401.82	1732.00
402.01	1771.79
402.21	1837.32
402.40	1750.72
402.59	1734.34
402.78	1722.63
402.97	1792.85
403.17	1919.24
403.36	1935.62
403.55	1865.41
403.74	1942.64
403.93	2040.95
404.13	1919.24
404.32	2036.27
404.51	1820.94
404.70	1996.48
404.89	1970.73
405.09	2118.18
405.28	2003.50
405.47	2024.56
405.66	1937.96
405.85	2003.50
406.05	2054.99
406.24	2069.03
406.43	2069.03
406.62	2139.25
406.81	2190.74
407.00	2101.80
407.20	1905.20
407.39	2017.54
407.58	2242.23
407.77	2298.41
407.96	2352.24
408.15	2370.96
408.34	2331.17
408.54	2277.34
408.73	2279.68
408.92	2408.41
409.11	2282.02
409.30	2455.22
409.49	2356.92
409.68	2373.30
409.87	2296.07
410.07	2448.20
410.26	2495.01
410.45	2427.14
410.64	2478.63
410.83	2551.18
411.02	2612.04
411.21	2597.99
411.40	2473.95
411.59	2700.98
411.78	2586.29
411.98	2551.18
412.17	2628.42
412.36	2663.53
412.55	2768.85
412.74	2759.49
412.93	2717.36
413.12	2633.10
413.31	2871.84
413.50	2892.90
413.69	2881.20
413.88	2949.08
414.07	2930.35
414.26	2897.58
414.45	3087.17
414.64	3061.42
414.83	3059.08
415.02	3129.30
415.22	3115.25
415.41	3180.79
415.60	3103.55
415.79	3307.18
415.98	3225.26
416.17	3407.82
416.36	3339.94
416.55	3279.09
416.74	3293.13
416.93	3311.86
417.12	3375.05
417.31	3440.59
417.50	3351.65
417.69	3604.42
417.88	3543.57
418.07	3414.84
418.26	3517.83
418.45	3660.60
418.64	3644.21
418.83	3588.04
419.02	3632.51
419.21	3786.99
419.39	3648.90
419.58	3583.36
419.77	3702.73
419.96	3604.42
420.15	3730.81
420.34	3808.05
420.53	3726.13
420.72	3838.48
420.91	3887.63
421.10	3967.21
421.29	4049.13
421.48	3911.04
421.67	3899.33
421.86	3941.46
422.05	3999.98
422.24	3882.95
422.43	3964.87
422.61	3875.93
422.80	4065.51
422.99	4060.83
423.18	4154.45
423.37	4117.00
423.56	4023.38
423.75	3967.21
423.94	3974.23
424.13	3569.32
424.32	3826.78
424.50	4032.74
424.69	4025.72
424.88	4159.13
425.07	3950.82
425.26	3932.10
425.45	4072.53
425.64	3964.87
425.83	4007.00
426.01	4105.30
426.20	4070.19
426.39	4100.62
426.58	3936.78
426.77	3955.51
426.96	3969.55
427.15	4030.40
427.33	4212.96
427.52	4222.33
427.71	4369.78
427.90	4229.35
428.09	4133.39
428.28	4224.67
428.46	4255.09
428.65	4205.94
428.84	4390.84
429.03	4372.12
429.22	4077.21
429.40	4369.78
429.59	4334.67
429.78	4070.19
429.97	4028.06
430.16	4023.38
430.34	4189.56
430.53	4229.35
430.72	4283.18
430.91	4271.48
431.10	4528.94
431.28	4667.03
431.47	4568.73
431.66	4840.23
431.85	4542.98
432.03	4638.94
432.22	4638.94
432.41	4765.33
432.60	4835.55
432.79	4915.12
432.97	4884.70
433.16	4849.59
433.35	4849.59
433.54	4786.40
433.72	4788.74
433.91	4643.62
434.10	4828.53
434.28	4901.08
434.47	4903.42
434.66	5006.41
434.85	5006.41
435.03	5067.26
435.22	5135.14
435.41	5050.88
435.59	5118.75
435.78	5224.08
435.97	5348.12
436.16	5018.11
436.34	5277.91
436.53	5273.23
436.72	5308.34
436.90	5083.64
437.09	5284.93
437.28	5263.86
437.46	5296.63
437.65	5139.82
437.84	5165.56
438.02	5392.59
438.21	5397.28
438.40	5224.08
438.58	5425.36
438.77	5495.58
438.96	5666.44
439.14	5617.29
439.33	5757.72
439.52	5647.71
439.70	5687.50
439.89	5762.40
440.08	5783.46
440.26	5881.77
440.45	5895.81
440.63	5921.56
440.82	6134.54
441.01	5909.85
441.19	6113.48
441.38	6293.70
441.57	6076.03
441.75	6307.74
441.94	6434.13
442.12	6525.41
442.31	6586.27
442.50	6532.44
442.68	6340.51
442.87	6431.79
443.05	6534.78
443.24	6555.84
443.43	6480.94
443.61	6593.29
443.80	6614.35
443.98	6471.58
444.17	6141.57
444.35	6548.82
444.54	6799.26
444.73	6661.16
444.91	6459.88
445.10	6588.61
445.28	6677.55
445.47	6595.63
445.65	6565.20
445.84	6567.54
446.02	6717.34
446.21	6705.63
446.39	6691.59
446.58	7150.34
446.77	6670.53
446.95	6672.87
447.14	6836.70
447.32	6897.56
447.51	6867.13
447.69	6544.14
447.88	6661.16
448.06	6911.60
448.25	6796.92
448.43	6806.28
448.62	6846.07
448.80	6738.40
448.99	6857.77
449.17	6892.88
449.36	6883.52
449.54	6853.09
449.73	7180.76
449.91	7227.57
450.10	7169.06
450.28	7382.05
450.46	7300.13
450.65	7377.37
450.83	7276.73
451.02	7269.70
451.20	7365.67
451.39	7487.37
451.57	7419.50
451.76	7330.56
451.94	7349.28
452.13	7218.21
452.31	7307.15
452.49	7157.36
452.68	7236.94
452.86	7379.71
453.05	7421.84
453.23	7499.08
453.42	7140.97
453.60	7368.01
453.78	7768.24
453.97	7283.75
454.15	7515.46
454.34	7503.76
454.52	7658.23
454.70	7634.83
454.89	7686.32
455.07	7864.20
455.26	7665.25
455.44	7854.84
455.62	8013.99
455.81	7934.42
455.99	7777.60
456.17	8145.06
456.36	8170.81
456.54	7805.69
456.73	8058.46
456.91	8318.26
457.09	8297.20
457.28	8388.48
457.46	8142.72
457.64	8280.82
457.83	8348.69
458.01	8189.53
458.19	8528.91
458.38	8280.82
458.56	8367.42
458.74	8498.49
458.93	8329.97
459.11	8477.42
459.29	8259.75
459.48	8421.25
459.66	8287.84
459.84	8720.84
460.03	8692.75
460.21	8594.45
460.39	8809.78
460.57	8709.13
460.76	8706.79
460.94	8816.80
461.12	8837.86
461.31	8767.65
461.49	8711.47
461.67	8655.30
461.85	8990.00
462.04	8936.17
462.22	9298.95
462.40	9069.58
462.59	9039.15
462.77	8997.02
462.95	9097.66
463.13	9071.92
463.32	9085.96
463.50	9291.93
463.68	9114.05
463.86	9392.57
464.05	8865.95
464.23	8999.36
464.41	9261.50
464.59	9102.34
464.78	9242.78
464.96	9523.64
465.14	9095.32
465.32	9357.46
465.50	9390.23
465.69	9542.36
465.87	9198.31
466.05	9575.13
466.23	9242.78
466.41	9598.54
466.60	9500.23
466.78	9427.68
466.96	9312.99
467.14	9563.43
467.32	9657.05
467.51	9626.62
467.69	9245.12
467.87	9472.15
468.05	9607.90
468.23	9617.26
468.41	9652.37
468.60	9860.68
468.78	9832.59
468.96	9549.39
469.14	9703.86
469.32	9937.91
469.50	9640.67
469.69	10005.79
469.87	9870.04
470.05	9973.02
470.23	9966.00
470.41	9907.49
470.59	10256.23
470.77	10139.20
470.95	10017.49
471.14	10251.55
471.32	10087.71
471.50	10363.89
471.68	10595.61
471.86	10537.09
472.04	10520.71
472.22	10698.59
472.40	10399.00
472.58	10443.47
472.77	10490.28
472.95	10635.39
473.13	11016.90
473.31	10761.78
473.49	10874.13
473.67	10899.87
473.85	10892.85
474.03	11346.92
474.21	11101.16
474.39	11180.74
474.57	11517.78
474.75	11232.23
474.93	11536.50
475.12	11492.03
475.30	11562.25
475.48	11391.39
475.66	11311.81
475.84	11449.90
476.02	11513.10
476.20	11698.00
476.38	11796.30
476.56	12173.13
476.74	11976.52
476.92	12028.01
477.10	12058.44
477.28	12517.18
477.46	12255.04
477.64	12346.33
477.82	12512.50
478.00	12645.91
478.18	13001.68
478.36	12753.58
478.54	13018.06
478.72	13046.15
478.90	12975.93
479.08	13327.01
479.26	13270.84
479.44	13458.08
479.62	13345.73
479.80	13357.44
479.98	13736.60
480.16	14019.81
480.34	13720.22
480.52	13949.59
480.70	13788.10
480.88	13682.77
481.06	13973.00
481.24	14122.79
481.41	14265.57
481.59	14628.35
481.77	14679.84
481.95	14789.85
482.13	14885.81
482.31	14829.63
482.49	14941.98
482.67	15040.28
482.85	15124.54
483.03	15541.16
483.21	15620.74
483.39	15384.34
483.57	15709.68
483.74	15892.24
483.92	15641.80
484.10	15927.35
484.28	15861.81
484.46	16381.41
484.64	16531.20
484.82	16369.71
485.00	16372.05
485.18	16617.80
485.35	16697.38
485.53	16397.79
485.71	16552.27
485.89	16535.88
486.07	16816.75
486.25	16973.56
486.43	16910.37
486.61	17235.70
486.78	17654.66
486.96	17792.75
487.14	17972.97
487.32	18200.01
487.50	18118.09
487.68	18436.40
487.85	18679.82
488.03	18698.54
488.21	19023.87
488.39	18981.74
488.57	18757.05
488.75	19096.43
488.92	19276.65
489.10	19733.06
489.28	19407.72
489.46	20336.91
489.64	19995.20
489.81	20400.11
489.99	20418.83
490.17	20395.43
490.35	21104.61
490.53	20500.75
490.70	21223.98
490.88	21111.63
491.06	21380.79
491.24	21090.57
491.41	21036.74
491.59	21174.83
491.77	21350.37
491.95	21399.52
492.13	21371.43
492.30	22092.32
492.48	22050.19
492.66	22359.14
492.84	22143.81
493.01	22375.52
493.19	22501.91
493.37	22836.61
493.54	23030.87
493.72	23082.36
493.90	23108.11
494.08	23187.69
494.25	23529.41
494.43	23651.11
494.61	23880.49
494.79	23754.10
494.96	23826.65
495.14	24060.71
495.32	23880.49
495.49	24357.96
495.67	24079.43
495.85	24254.97
496.02	24650.52
496.20	25036.71
496.38	25071.82
496.55	24905.64
496.73	25420.56
496.91	25146.72
497.09	25462.69
497.26	25179.48
497.44	25713.13
497.62	25633.55
497.79	25699.08
497.97	25598.44
498.14	26073.57
498.32	25930.80
498.50	26045.48
498.67	26483.16
498.85	26623.59
499.03	26712.53
499.20	26525.29
499.38	26827.22
499.56	26932.54
499.73	27014.46
499.91	26808.50
500.08	27126.81
500.26	26848.29
500.44	26845.94
500.61	27461.51
500.79	27292.99
500.97	27391.29
501.14	27559.81
501.32	27391.29
501.49	27749.39
501.67	28065.36
501.84	28130.90
502.02	28070.04
502.20	28538.15
502.37	28077.07
502.55	28135.58
502.72	28056.00
502.90	29029.66
503.07	28486.66
503.25	28936.04
503.43	28456.23
503.60	28599.01
503.78	28458.57
503.95	28606.03
504.13	29322.23
504.30	29392.45
504.48	28886.89
504.65	29472.03
504.83	29542.24
505.01	29612.46
505.18	29511.81
505.36	29839.49
505.53	29813.74
505.71	30398.88
505.88	30513.56
506.06	30101.63
506.23	30209.29
506.41	29989.28
506.58	30106.31
506.76	30340.36
506.93	30609.53
507.11	30614.21
507.28	31065.93
507.46	30801.45
507.63	30597.82
507.81	30649.32
507.98	30562.72
508.16	30962.95
508.33	30874.01
508.50	31211.04
508.68	31250.83
508.85	31756.39
509.03	31519.99
509.20	31557.44
509.38	31901.50
509.55	31873.42
509.73	31613.62
509.90	31850.01
510.08	31833.63
510.25	31924.91
510.42	32175.34
510.60	32472.59
510.77	32514.72
510.95	32526.42
511.12	32355.57
511.30	32762.82
511.47	33230.93
511.64	33081.13
511.82	33088.15
511.99	32547.49
512.17	32921.98
512.34	32875.16
512.51	32795.59
512.69	33366.68
512.86	33364.34
513.04	33645.20
513.21	33467.32
513.38	33109.22
513.56	33516.47
513.73	33277.74
513.90	33624.14
514.08	33411.15
514.25	33773.93
514.43	33670.95
514.60	33729.46
514.77	33909.68
514.95	34213.95
515.12	34286.51
515.29	34246.72
515.47	34616.52
515.64	34911.43
515.81	34178.84
515.99	34731.21
516.16	34293.53
516.33	34017.35
516.51	34403.53
516.68	33996.28
516.85	33773.93
517.03	34057.14
517.20	34574.39
517.37	34834.19
517.54	34864.62
517.72	34918.45
517.89	34469.07
518.06	34572.05
518.24	34677.38
518.41	34988.67
518.58	35019.10
518.75	34813.13
518.93	35791.47
519.10	35838.28
519.27	35674.45
519.45	35758.70
519.62	36009.14
519.79	35754.02
519.96	36503.00
520.14	36219.79
520.31	35929.56
520.48	36290.01
520.65	36540.44
520.83	36549.81
521.00	36421.08
521.17	36458.52
521.34	36898.55
521.52	36807.26
521.69	37153.66
521.86	36935.99
522.03	36856.42
522.20	37088.13
522.38	37273.03
522.55	36900.89
522.72	37219.20
522.89	36673.85
523.07	37200.47
523.24	37415.80
523.41	37298.78
523.58	37331.54
523.75	37647.52
523.92	37715.39
524.10	37724.75
524.27	37846.46
524.44	37811.35
524.61	37879.23
524.78	38305.21
524.96	38305.21
525.13	38307.55
525.30	38387.13
525.47	38206.90
525.64	38693.74
525.81	38319.25
525.98	38387.13
526.16	38244.35
526.33	37743.48
526.50	38225.63
526.67	37804.33
526.84	38471.39
527.01	38206.90
527.18	38506.49
527.36	38911.41
527.53	38911.41
527.70	39299.94
527.87	39234.40
528.04	38974.60
528.21	39007.37
528.38	39199.29
528.55	39466.11
528.72	39845.28
528.89	39880.39
529.07	39899.11
529.24	39133.76
529.41	39868.69
529.58	39501.22
529.75	39374.83
529.92	39761.02
530.09	39992.73
530.26	40058.27
530.43	39929.54
530.60	39728.25
530.77	39835.92
530.94	40046.57
531.11	40348.50
531.28	40076.99
531.46	40727.66
531.63	40109.76
531.80	40231.47
531.97	40308.71
532.14	40364.88
532.31	40369.56
532.48	40203.38
532.65	40432.75
532.82	40435.10
532.99	40760.43
533.16	40048.91
533.33	40570.85
533.50	41118.53
533.67	40842.35
533.84	40278.28
534.01	40561.48
534.18	41163.00
534.35	41331.52
534.52	41188.75
534.69	40950.01
534.86	41420.46
535.03	41418.12
535.20	41715.37
535.37	41698.98
535.54	41483.66
535.71	41631.11
535.88	41448.55
536.05	41900.27
536.22	41471.95
536.38	41521.10
536.55	41588.98
536.72	41261.30
536.89	41366.63
537.06	41532.81
537.23	41603.02
537.40	41673.24
537.57	42000.91
537.74	41783.24
537.91	42122.62
538.08	41762.18
538.25	41954.10
538.42	42377.74
538.59	42202.20
538.75	41509.40
538.92	42031.34
539.09	41890.91
539.26	42354.33
539.43	42195.18
539.60	42068.79
539.77	42167.09
539.94	42492.43
540.11	42141.35
540.28	42139.00
540.44	41823.03
540.61	41935.38
540.78	42288.80
540.95	42419.87
541.12	42195.18
541.29	42527.53
541.46	42630.52
541.62	42323.91
541.79	43253.10
541.96	42380.08
542.13	43093.94
542.30	43267.14
542.47	42253.69
542.63	43065.86
542.80	42953.51
542.97	43337.36
543.14	43599.50
543.31	43473.11
543.48	43346.72
543.64	43997.39
543.81	43938.88
543.98	43667.37
544.15	43468.43
544.32	43524.60
544.48	43878.02
544.65	43941.22
544.82	43658.01
544.99	43360.76
545.16	43498.86
545.32	43824.19
545.49	44095.69
545.66	43665.03
545.83	44128.46
546.00	44238.47
546.16	44037.18
546.33	44119.10
546.50	43746.95
546.67	44254.85
546.83	43508.22
547.00	43620.56
547.17	43861.64
547.34	43676.74
547.50	44336.77
547.67	44453.79
547.84	44076.97
548.00	44301.66
548.17	44549.76
548.34	44343.79
548.51	44648.06
548.67	44516.99
548.84	44559.12
549.01	44610.61
549.18	44786.15
549.34	44271.23
549.51	44781.47
549.68	45059.99
549.84	44491.24
550.01	45045.95
550.18	44516.99
550.34	44662.10
550.51	45010.84
550.68	44605.93
550.84	44472.52
551.01	44327.41
551.18	44500.61
551.34	45265.96
551.51	45146.59
551.68	44879.77
551.84	45104.46
552.01	44739.34
552.18	44896.16
552.34	44776.79
552.51	45394.69
552.68	44933.60
552.84	45268.30
553.01	45411.07
553.18	45081.06
553.34	44851.69
553.51	45067.02
553.67	45254.26
553.84	45621.72
554.01	45469.59
554.17	45703.64
554.34	45757.47
554.51	46068.76
554.67	45874.50
554.84	45434.48
555.00	45329.16
555.17	45500.01
555.33	45790.24
555.50	45698.96
555.67	45766.84
555.83	45645.13
556.00	45741.09
556.16	46436.23
556.33	45862.80
556.50	45530.44
556.66	45329.16
556.83	45525.76
556.99	45713.00
557.16	46021.95
557.32	46052.38
557.49	45979.82
557.65	45038.93
557.82	45675.55
557.98	45785.56
558.15	45703.64
558.32	46068.76
558.48	45815.99
558.65	45858.12
558.81	45797.26
558.98	45963.44
559.14	46146.00
559.31	45991.53
559.47	45691.94
559.64	46096.85
559.80	45963.44
559.97	46171.75
560.13	46138.98
560.30	46024.29
560.46	46433.89
560.63	46122.60
560.79	46206.86
560.96	46387.08
561.12	46106.21
561.29	46513.47
561.45	46162.39
561.61	46457.29
561.78	46192.81
561.94	46291.12
562.11	46267.71
562.27	46377.72
562.44	46410.48
562.60	46466.66
562.77	46735.82
562.93	45680.24
563.10	46621.13
563.26	46450.27
563.42	46590.70
563.59	46246.65
563.75	46143.66
563.92	46555.60
564.08	46267.71
564.24	46487.72
564.41	46284.09
564.57	46609.43
564.74	46670.28
564.90	46796.67
565.07	46883.27
565.23	46721.77
565.39	46782.63
565.56	46920.72
565.72	46464.32
565.88	46326.22
566.05	46309.84
566.21	46408.14
566.38	46859.87
566.54	46946.47
566.70	46740.50
566.87	47040.09
567.03	46829.44
567.19	46897.31
567.36	46831.78
567.52	46150.68
567.68	46639.86
567.85	46611.77
568.01	46866.89
568.17	46227.92
568.34	46501.76
568.50	46611.77
568.66	46574.32
568.83	46787.31
568.99	46380.06
569.15	46827.10
569.32	46508.79
569.48	46550.91
569.64	46628.15
569.81	46817.74
569.97	46663.26
570.13	46429.21
570.30	46473.68
570.46	46326.22
570.62	46562.62
570.78	46396.44
570.95	46560.28
571.11	46726.46
571.27	46618.79
571.43	46541.55
571.60	46883.27
571.76	47023.70
571.92	46902.00
572.09	46794.33
572.25	46539.21
572.41	47143.07
572.57	46993.28
572.74	47592.45
572.90	47002.64
573.06	46595.38
573.22	46857.52
573.38	46824.76
573.55	46515.81
573.71	47049.45
573.87	47033.07
574.03	46412.82
574.20	46855.18
574.36	46920.72
574.52	47061.15
574.68	47166.48
574.84	46820.08
575.01	46995.62
575.17	46644.54
575.33	46546.23
575.49	46190.47
575.65	46995.62
575.82	47332.65
575.98	46953.49
576.14	47070.51
576.30	47033.07
576.46	47033.07
576.62	46649.22
576.79	47065.83
576.95	46429.21
577.11	46749.86
577.27	46965.19
577.43	47100.94
577.59	47082.22
577.75	46623.47
577.92	46300.48
578.08	46684.33
578.24	46511.13
578.40	47098.60
578.56	46576.66
578.72	46831.78
578.88	47028.38
579.04	47306.91
579.21	46997.96
579.37	46546.23
579.53	47077.54
579.69	46506.44
579.85	46813.05
580.01	46810.71
580.17	46927.74
580.33	47021.36
580.49	46871.57
580.65	47044.77
580.82	47124.35
580.98	46930.08
581.14	47002.64
581.30	47625.22
581.46	46930.08
581.62	47346.70
581.78	46864.55
581.94	47524.58
582.10	47290.52
582.26	47180.52
582.42	47260.10
582.58	46902.00
582.74	47040.09
582.90	47260.10
583.06	47487.13
583.22	47353.72
583.38	47302.23
583.54	47147.75
583.70	47217.97
583.86	46731.14
584.02	47044.77
584.18	47126.69
584.34	47145.41
584.50	47250.74
584.66	47189.88
584.82	47042.43
584.98	47330.31
585.14	47332.65
585.30	46576.66
585.46	47026.04
585.62	46782.63
585.78	46628.15
585.94	46665.60
586.10	46923.06
586.26	46536.87
586.42	47047.11
586.58	47089.24
586.74	47349.04
586.90	46834.12
587.06	47051.79
587.22	46967.53
587.38	46630.49
587.54	47023.70
587.70	47437.98
587.86	47239.03
588.02	47327.97
588.18	47019.02
588.34	46780.29
588.49	46571.98
588.65	46459.63
588.81	46824.76
588.97	46703.05
589.13	46543.89
589.29	46452.61
589.45	47157.11
589.61	46738.16
589.77	47192.22
589.93	47072.85
590.08	47449.68
590.24	47131.37
590.40	47412.23
590.56	47379.46
590.72	47213.29
590.88	46913.70
591.04	47089.24
591.20	47437.98
591.35	47290.52
591.51	47470.75
591.67	47131.37
591.83	47395.85
591.99	46628.15
592.15	47037.75
592.31	47042.43
592.46	46777.95
592.62	47070.51
592.78	47339.68
592.94	47517.56
593.10	47063.49
593.26	47730.54
593.41	47473.09
593.57	46941.78
593.73	47100.94
593.89	47473.09
594.05	46782.63
594.20	46934.76
594.36	47351.38
594.52	47241.37
594.68	47473.09
594.84	47349.04
594.99	47400.53
595.15	46878.59
595.31	47430.96
595.47	46983.91
595.62	46923.06
595.78	47110.30
595.94	47290.52
596.10	47667.35
596.25	47459.04
596.41	47412.23
596.57	47199.24
596.73	47232.01
596.88	47325.63
597.04	47353.72
597.20	47232.01
597.36	47358.40
597.51	47250.74
597.67	47470.75
597.83	46951.15
597.99	47590.11
598.14	47098.60
598.30	47421.59
598.46	46958.17
598.61	46782.63
598.77	46939.44
598.93	47002.64
599.09	47075.19
599.24	47679.05
599.40	47309.25
599.56	47126.69
599.71	47098.60
599.87	47452.02
600.03	47344.36
600.18	47140.73
600.34	47789.06
600.50	47136.05
600.65	47084.56
600.81	47253.08
600.97	47636.92
601.12	47702.46
601.28	47241.37
601.44	47292.86
601.59	47377.12
601.75	46581.34
601.91	47344.36
602.06	46981.57
602.22	47629.90
602.37	47201.58
602.53	46808.37
602.69	47917.79
602.84	46890.29
603.00	47224.99
603.16	46857.52
603.31	47044.77
603.47	47091.58
603.62	47171.16
603.78	47271.80
603.94	47346.70
604.09	47608.84
604.25	47271.80
604.40	46934.76
604.56	47379.46
604.71	47564.37
604.87	47632.24
605.03	47342.02
605.18	47189.88
605.34	47079.88
605.49	46698.37
605.65	47227.33
605.80	47161.79
605.96	47110.30
606.12	47171.16
606.27	47079.88
606.43	47035.41
606.58	47089.24
606.74	46862.21
606.89	46960.51
607.05	47065.83
607.20	46911.36
607.36	46831.78
607.51	47367.76
607.67	47117.32
607.82	47061.15
607.98	47199.24
608.13	47236.69
608.29	47000.30
608.44	46852.84
608.60	46543.89
608.75	46667.94
608.91	46948.81
609.06	46939.44
609.22	46967.53
609.37	46567.30
609.53	46787.31
609.68	46946.47
609.84	46876.25
609.99	46611.77
610.15	46873.91
610.30	46885.61
610.46	46651.56
610.61	46288.77
610.76	46738.16
610.92	46581.34
611.07	46602.41
611.23	46246.65
611.38	46483.04
611.54	46298.14
611.69	46188.13
611.84	46363.67
612.00	46532.19
612.15	46515.81
612.31	46363.67
612.46	46506.44
612.62	46438.57
612.77	46143.66
612.92	46892.63
613.08	46265.37
613.23	46464.32
613.39	46382.40
613.54	45876.84
613.69	46263.03
613.85	46321.54
614.00	46253.67
614.15	46576.66
614.31	46433.89
614.46	46452.61
614.62	46497.08
614.77	45947.06
614.92	46459.63
615.08	46036.00
615.23	46054.72
615.38	46150.68
615.54	45565.55
615.69	46005.57
615.84	45553.85
616.00	45933.01
616.15	46068.76
616.30	45682.58
616.46	45619.38
616.61	45394.69
616.76	45862.80
616.92	45806.62
617.07	45535.12
617.22	45710.66
617.37	45392.35
617.53	46204.52
617.68	45834.71
617.83	45837.05
617.99	45839.39
618.14	46010.25
618.29	45617.04
618.45	45502.35
618.60	45886.20
618.75	45380.65
618.90	45567.89
619.06	45844.07
619.21	45158.30
619.36	45659.17
619.51	45986.85
619.67	45434.48
619.82	45427.46
619.97	45780.88
620.12	44870.41
620.28	44945.31
620.43	44877.43
620.58	45144.25
620.73	45258.94
620.89	44645.72
621.04	45205.11
621.19	44732.32
621.34	44994.46
621.49	44837.64
621.65	44851.69
621.80	44992.12
621.95	44575.50
622.10	45212.13
622.25	44610.61
622.41	44556.78
622.56	45214.47
622.71	44999.14
622.86	44786.15
623.01	45350.22
623.16	45174.68
623.32	44935.95
623.47	44949.99
623.62	44772.11
623.77	44999.14
623.92	44734.66
624.07	44348.47
624.23	44299.32
624.38	44051.22
624.53	44067.61
624.68	44577.84
624.83	44360.17
624.98	44531.03
625.13	44318.04
625.29	44149.53
625.44	44371.88
625.59	43948.24
625.74	43669.72
625.89	43597.16
626.04	43922.49
626.19	44399.96
626.34	44095.69
626.49	43835.89
626.65	44151.87
626.80	43997.39
626.95	43988.03
627.10	43721.21
627.25	43765.68
627.40	43379.49
627.55	43590.14
627.70	43217.99
627.85	43962.28
628.00	43309.27
628.15	43840.57
628.30	43611.20
628.45	43454.39
628.60	43318.64
628.76	43981.01
628.91	44041.86
629.06	44032.50
629.21	43386.51
629.36	43477.79
629.51	43257.78
629.66	43035.43
629.81	43124.37
629.96	43629.93
630.11	43540.99
630.26	43615.88
630.41	43625.25
630.56	43316.29
630.71	43328.00
630.86	43255.44
631.01	43182.88
631.16	43676.74
631.31	42569.66
631.46	42857.55
631.61	43466.09
631.76	42817.76
631.91	43131.39
632.06	43339.70
632.21	43318.64
632.36	43049.47
632.51	42515.83
632.66	43524.60
632.81	42314.55
632.96	43014.37
633.10	42548.60
633.25	42710.10
633.40	42862.23
633.55	42981.60
633.70	42623.50
633.85	42520.51
634.00	42719.46
634.15	42602.43
634.30	42401.14
634.45	42897.34
634.60	42644.56
634.75	42403.49
634.90	42525.19
635.05	42710.10
635.19	42651.58
635.34	42682.01
635.49	42721.80
635.64	42504.13
635.79	42305.18
635.94	42284.12
636.09	42415.19
636.24	41998.57
636.39	42326.25
636.53	42197.52
636.68	41816.01
636.83	41923.68
636.98	42305.18
637.13	41830.05
637.28	42351.99
637.43	42466.68
637.57	42003.25
637.72	42192.84
637.87	42464.34
638.02	42066.45
638.17	42258.37
638.32	41752.82
638.46	41783.24
638.61	42131.98
638.76	41909.63
638.91	41750.48
639.06	41626.43
639.20	41963.46
639.35	42213.90
639.50	41546.85
639.65	42113.26
639.80	41649.83
639.94	41612.38
640.09	41741.11
640.24	41579.62
640.39	40989.80
640.54	41429.82
640.68	41099.81
640.83	41523.44
640.98	41624.09
641.13	41329.18
641.27	41413.44
641.42	41418.12
641.57	41706.01
641.72	41284.71
641.86	40872.78
642.01	41226.20
642.16	40816.60
642.31	40631.70
642.45	41244.92
642.60	40818.94
642.75	40772.13
642.90	41055.34
643.04	41099.81
643.19	40627.02
643.34	41127.89
643.48	40807.24
643.63	41200.45
643.78	40847.03
643.93	40502.97
644.07	40715.96
644.22	40713.62
644.37	40254.87
644.51	40854.05
644.66	40730.00
644.81	40598.93
644.95	40566.16
645.10	40521.69
645.25	40793.20
645.39	40582.55
645.54	40835.33
645.69	40568.51
645.83	40552.12
645.98	40238.49
646.13	40526.38
646.27	40371.90
646.42	40217.43
646.57	40563.82
646.71	40334.45
646.86	40311.05
647.00	40596.59
647.15	40322.75
647.30	40378.92
647.44	40161.25
647.59	40240.83
647.74	40177.64
647.88	39580.80
648.03	40201.04
648.17	40177.64
648.32	39997.41
648.47	39821.87
648.61	39723.57
648.76	40643.40
648.90	39793.79
649.05	40147.21
649.20	39541.01
649.34	40065.29
649.49	40065.29
649.63	39810.17
649.78	39803.15
649.92	39721.23
650.07	40252.53
650.21	39512.92
650.36	39611.23
650.51	39817.19
650.65	40278.28
650.80	40189.34
650.94	40086.36
651.09	39957.63
651.23	39732.93
651.38	39555.05
651.52	39290.57
651.67	39723.57
651.81	39821.87
651.96	39131.42
652.10	39138.44
652.25	39433.35
652.39	39229.72
652.54	39482.50
652.68	39475.48
652.83	39140.78
652.97	39353.77
653.12	39208.65
653.26	39103.33
653.41	39040.14
653.55	39220.36
653.70	38815.44
653.84	39253.12
653.99	39182.91
654.13	39138.44
654.27	39409.94
654.42	39241.42
654.56	38880.98
654.71	39257.81
654.85	38983.96
655.00	38785.02
655.14	38609.48
655.29	38366.06
655.43	38525.22
655.57	38391.81
655.72	38029.02
655.86	38560.33
656.01	38361.38
656.15	38127.33
656.30	38340.32
656.44	37968.17
656.58	37975.19
656.73	38192.86
656.87	38663.31
657.01	38242.01
657.16	38394.15
657.30	38066.47
657.45	38169.46
657.59	38129.67
657.73	37949.45
657.88	38094.56
658.02	38026.68
658.16	38595.43
658.31	38478.41
658.45	38309.89
658.60	38176.48
658.74	38323.93
658.88	38057.11
659.03	37991.58
659.17	37675.60
659.31	37963.49
659.46	37638.15
659.60	37567.94
659.74	37696.67
659.89	37127.92
660.03	37535.17
660.17	37771.57
660.32	37387.72
660.46	37970.51
660.60	38022.00
660.74	37469.64
660.89	37581.98
661.03	36926.63
661.17	37579.64
661.32	36690.24
661.46	37291.76
661.60	36964.08
661.74	36851.73
661.89	37413.46
662.03	36994.51
662.17	36928.97
662.31	37120.90
662.46	36928.97
662.60	37036.64
662.74	36751.09
662.88	36697.26
663.03	36376.61
663.17	36807.26
663.31	36364.90
663.45	36589.59
663.60	36605.98
663.74	36477.25
663.88	36105.10
664.02	36165.96
664.17	36414.05
664.31	36243.20
664.45	36114.47
664.59	36449.16
664.73	36273.62
664.88	36130.85
665.02	35730.62
665.16	36334.48
665.30	35398.26
665.44	36172.98
665.59	35683.81
665.73	35913.18
665.87	35372.52
666.01	35489.54
666.15	35501.25
666.29	36037.23
666.44	35714.23
666.58	35264.85
666.72	35669.76
666.86	35716.58
667.00	35608.91
667.14	35447.41
667.28	35314.00
667.43	34888.03
667.57	35498.91
667.71	34906.75
667.85	35079.95
667.99	34356.72
668.13	34895.05
668.27	34820.15
668.41	34492.47
668.56	34778.02
668.70	34644.61
668.84	34387.15
668.98	34204.59
669.12	34691.42
669.26	34719.51
669.40	34045.43
669.54	34560.35
669.68	34352.04
669.82	33937.77
669.96	34052.45
670.10	34033.73
670.25	34295.87
670.39	33860.53
670.53	33362.00
670.67	33455.62
670.81	33797.34
670.95	34113.31
671.09	33998.62
671.23	33804.36
671.37	33434.55
671.51	33266.03
671.65	33642.86
671.79	33509.45
671.93	33556.26
672.07	33338.59
672.21	33404.13
672.35	32718.35
672.49	32694.94
672.63	33275.40
672.77	32652.81
672.91	33102.20
673.05	32851.76
673.19	32655.15
673.33	32643.45
673.47	32690.26
673.61	32512.38
673.75	32444.51
673.89	32261.94
674.03	32205.77
674.17	32315.78
674.31	31873.42
674.45	32095.77
674.59	31688.51
674.73	32381.31
674.87	32247.90
675.01	31871.07
675.15	32067.68
675.29	31810.22
675.43	31683.83
675.56	31604.25
675.70	31510.63
675.84	31332.75
675.98	30424.62
676.12	31126.78
676.26	30927.84
676.40	31145.51
676.54	30735.92
676.68	31159.55
676.82	30536.97
676.96	30857.62
677.10	30780.39
677.23	30483.14
677.37	30225.68
677.51	30721.87
677.65	30448.03
677.79	30125.04
677.93	30132.06
678.07	30073.54
678.21	29549.26
678.34	29888.64
678.48	29757.57
678.62	29778.64
678.76	29401.81
678.90	29790.34
679.04	29244.99
679.18	29371.38
679.31	28971.15
679.45	28868.17
679.59	28746.46
679.73	28671.56
679.87	29067.11
680.00	28833.06
680.14	28720.71
680.28	28470.28
680.42	28240.90
680.56	28425.81
680.70	28311.12
680.83	28184.73
680.97	28332.18
681.11	27910.89
681.25	28020.89
681.39	27889.82
681.52	27828.97
681.66	28030.26
681.80	27438.10
681.94	27372.57
682.07	27435.76
682.21	27159.58
682.35	27323.41
682.49	27250.86
682.62	27398.31
682.76	26991.06
682.90	26721.90
683.04	27147.87
683.17	27030.85
683.31	26754.66
683.45	26857.65
683.59	26483.16
683.72	26242.09
683.86	26232.72
684.00	26033.78
684.13	26527.63
684.27	26033.78
684.41	25858.24
684.55	25947.18
684.68	25900.37
684.82	25687.38
684.96	25748.23
685.09	25326.94
685.23	25453.33
685.37	25097.56
685.50	25006.28
685.64	25303.53
685.78	25219.27
685.91	24945.43
686.05	25048.41
686.19	24797.98
686.32	24631.80
686.46	24467.96
686.60	24044.32
686.73	24023.26
686.87	24058.37
687.01	23403.02
687.14	23786.86
687.28	23538.77
687.42	23660.48
687.55	23562.17
687.69	23381.95
687.82	23168.96
687.96	23669.84
688.10	23632.39
688.23	23110.45
688.37	23166.62
688.50	23211.09
688.64	23049.60
688.78	22824.90
688.91	22628.30
689.05	22782.77
689.18	22930.23
689.32	22492.55
689.46	22534.68
689.59	22710.22
689.73	22679.79
689.86	22132.11
690.00	22326.37
690.13	22441.06
690.27	22443.40
690.41	22071.25
690.54	21979.97
690.68	21869.97
690.81	21881.67
690.95	21642.93
691.08	21570.38
691.22	21380.79
691.35	21813.79
691.49	21556.33
691.62	21479.10
691.76	21565.70
691.89	21762.30
692.03	21177.17
692.16	21235.68
692.30	21612.51
692.43	21172.49
692.57	20975.88
692.70	20788.64
692.84	20566.29
692.97	20528.84
693.11	20486.71
693.24	20346.28
693.38	20222.23
693.51	20074.77
693.65	20123.93
693.78	20168.40
693.92	20149.67
694.05	19789.23
694.19	19824.34
694.32	19496.66
694.45	19639.44
694.59	19798.59
694.72	19276.65
694.86	19377.30
694.99	19042.60
695.13	19346.87
695.26	19140.90
695.39	19105.79
695.53	19098.77
695.66	19314.10
695.80	18888.12
695.93	18581.51
696.07	18796.84
696.20	18806.20
696.33	18581.51
696.47	18487.89
696.60	18635.35
696.73	18239.79
696.87	18352.14
697.00	18621.30
697.14	18108.72
697.27	17944.89
697.40	18232.77
697.54	17755.30
697.67	17659.34
697.80	17722.54
697.94	17919.14
698.07	17846.58
698.21	17397.20
698.34	17362.09
698.47	17568.06
698.61	17099.95
698.74	17429.97
698.87	17025.06
699.01	16922.07
699.14	16982.93
699.27	16610.78
699.40	16893.99
699.54	16727.81
699.67	16498.44
699.80	16547.59
699.94	16498.44
700.07	16491.41
700.20	16145.02
700.34	16262.04
700.47	16320.56
700.60	16294.81
700.73	16355.66
700.87	16098.20
701.00	16053.73
701.13	16236.30
701.26	15983.52
701.40	15859.47
701.53	15885.22
701.66	15716.70
701.79	15618.39
701.93	15602.01
702.06	15339.87
702.19	15513.07
702.32	15445.20
702.46	15309.44
702.59	15171.35
702.72	15372.64
702.85	15435.83
702.99	15222.84
703.12	15110.50
703.25	15129.22
703.38	15073.05
703.51	14806.23
703.65	14913.89
703.78	14909.21
703.91	14527.71
704.04	14572.18
704.17	14487.92
704.31	14462.17
704.44	14146.20
704.57	14218.75
704.70	14111.09
704.83	14017.47
704.96	13951.93
705.10	14249.18
705.23	14223.44
>>>>>End Processed Spectral Data<<<<<
