SpectraSuite Data File
++++++++++++++++++++++++++++++++++++
Date: Fri Oct 25 10:48:34 EDT 2013
User: price-jones
Dark Spectrum Present: No
Reference Spectrum Present: No
Number of Sampled Component Spectra: 1
Spectrometers: USB2+H05261
Integration Time (usec): 100000 (USB2+H05261)
Spectra Averaged: 1 (USB2+H05261)
Boxcar Smoothing: 0 (USB2+H05261)
Correct for Electrical Dark: No (USB2+H05261)
Strobe/Lamp Enabled: No (USB2+H05261)
Correct for Detector Non-linearity: No (USB2+H05261)
Correct for Stray Light: No (USB2+H05261)
Number of Pixels in Processed Spectrum: 2048
>>>>>Begin Processed Spectral Data<<<<<
365.73	161.50
365.92	161.50
366.12	161.50
366.32	77.24
366.52	39.79
366.72	72.56
366.91	7.02
367.11	0.00
367.31	30.43
367.51	112.35
367.70	9.36
367.90	70.22
368.10	44.47
368.30	86.60
368.49	39.79
368.69	77.24
368.89	70.22
369.09	16.38
369.28	67.88
369.48	126.39
369.68	102.98
369.87	128.73
370.07	23.41
370.27	177.88
370.47	175.54
370.66	407.25
370.86	531.30
371.06	498.53
371.25	475.13
371.45	447.04
371.65	470.45
371.84	486.83
372.04	465.77
372.24	561.73
372.44	592.16
372.63	603.86
372.83	449.38
373.03	585.13
373.22	557.05
373.42	615.56
373.62	634.29
373.81	599.18
374.01	608.54
374.21	585.13
374.40	606.20
374.60	587.47
374.79	613.22
374.99	573.43
375.19	594.50
375.38	566.41
375.58	592.16
375.78	676.41
375.97	667.05
376.17	594.50
376.37	664.71
376.56	613.22
376.76	613.22
376.95	617.90
377.15	685.78
377.35	674.07
377.54	664.71
377.74	671.73
377.93	667.05
378.13	667.05
378.33	720.88
378.52	685.78
378.72	805.14
378.91	739.61
379.11	697.48
379.31	772.38
379.50	772.38
379.70	704.50
379.89	786.42
380.09	751.31
380.28	765.36
380.48	809.83
380.68	763.01
380.87	767.70
381.07	711.52
381.26	720.88
381.46	723.23
381.65	823.87
381.85	812.17
382.04	774.72
382.24	760.67
382.43	828.55
382.63	732.59
382.83	791.10
383.02	711.52
383.22	807.48
383.41	770.04
383.61	863.66
383.80	854.30
384.00	898.77
384.19	821.53
384.39	844.93
384.58	880.04
384.78	905.79
384.97	908.13
385.17	763.01
385.36	926.85
385.56	837.91
385.75	814.51
385.95	807.48
386.14	901.11
386.34	837.91
386.53	814.51
386.72	898.77
386.92	896.43
387.11	957.28
387.31	945.58
387.50	931.53
387.70	931.53
387.89	910.47
388.09	936.21
388.28	924.51
388.48	915.15
388.67	1013.45
388.86	901.11
389.06	1011.11
389.25	1029.84
389.45	1062.60
389.64	1041.54
389.84	983.02
390.03	999.41
390.22	1078.99
390.42	1118.78
390.61	1046.22
390.81	1130.48
391.00	1128.14
391.19	1041.54
391.39	1160.91
391.58	1214.74
391.78	1111.75
391.97	1128.14
392.16	1179.63
392.36	1172.61
392.55	1064.94
392.75	1074.31
392.94	1046.22
393.13	1074.31
393.33	1027.50
393.52	1123.46
393.71	1181.97
393.91	1184.31
394.10	1142.18
394.29	1210.06
394.49	1233.46
394.68	1231.12
394.88	1277.93
395.07	1373.89
395.26	1338.79
395.46	1228.78
395.65	1256.87
395.84	1345.81
396.04	1397.30
396.23	1338.79
396.42	1158.57
396.62	1268.57
396.81	1291.98
397.00	1322.40
397.19	1448.79
397.39	1341.13
397.58	1444.11
397.77	1376.24
397.97	1455.81
398.16	1490.92
398.35	1528.37
398.55	1514.33
398.74	1507.30
398.93	1551.78
399.12	1458.15
399.32	1528.37
399.51	1598.59
399.70	1706.25
399.90	1703.91
400.09	1659.44
400.28	1727.32
400.47	1736.68
400.67	1746.04
400.86	1792.85
401.05	1783.49
401.24	1724.97
401.44	1739.02
401.63	1853.70
401.82	1753.06
402.01	1867.75
402.21	1827.96
402.40	1820.94
402.59	1832.64
402.78	1947.33
402.97	1818.60
403.17	1921.58
403.36	1963.71
403.55	1842.00
403.74	2017.54
403.93	1893.49
404.13	1893.49
404.32	1984.77
404.51	1991.80
404.70	2054.99
404.89	1961.37
405.09	1987.11
405.28	2076.06
405.47	2001.16
405.66	2040.95
405.85	2157.97
406.05	2153.29
406.24	2108.82
406.43	2099.46
406.62	2087.76
406.81	2305.43
407.00	2253.94
407.20	2139.25
407.39	2211.81
407.58	2293.72
407.77	2401.39
407.96	2249.25
408.15	2340.54
408.34	2335.85
408.54	2413.09
408.73	2401.39
408.92	2385.01
409.11	2349.90
409.30	2399.05
409.49	2396.71
409.68	2345.22
409.87	2375.64
410.07	2476.29
410.26	2448.20
410.45	2471.61
410.64	2469.27
410.83	2705.66
411.02	2640.12
411.21	2773.53
411.40	2628.42
411.59	2782.90
411.78	2672.89
411.98	2663.53
412.17	2857.79
412.36	2867.16
412.55	2696.30
412.74	2782.90
412.93	2897.58
413.12	2836.73
413.31	2970.14
413.50	2958.44
413.69	3068.44
413.88	3096.53
414.07	2935.03
414.26	3028.65
414.45	3045.04
414.64	3028.65
414.83	3201.85
415.02	3138.66
415.22	3133.98
415.41	3290.79
415.60	3316.54
415.79	3171.43
415.98	3361.01
416.17	3316.54
416.36	3426.54
416.55	3361.01
416.74	3323.56
416.93	3323.56
417.12	3344.63
417.31	3576.34
417.50	3566.98
417.69	3639.53
417.88	3517.83
418.07	3583.36
418.26	3660.60
418.45	3660.60
418.64	3716.77
418.83	3744.86
419.02	3716.77
419.21	3777.62
419.39	3751.88
419.58	3691.02
419.77	3721.45
419.96	3674.64
420.15	3873.59
420.34	3770.60
420.53	3857.20
420.72	4037.42
420.91	3894.65
421.10	3852.52
421.29	4060.83
421.48	3904.01
421.67	3927.42
421.86	3922.74
422.05	4028.06
422.24	3957.85
422.43	3950.82
422.61	3866.56
422.80	4147.43
422.99	4035.08
423.18	4119.34
423.37	4198.92
423.56	4163.81
423.75	4189.56
423.94	3934.44
424.13	3815.07
424.32	3953.16
424.50	4252.75
424.69	4210.62
424.88	4161.47
425.07	4084.23
425.26	4091.26
425.45	3990.61
425.64	3978.91
425.83	4131.05
426.01	4166.15
426.20	4241.05
426.39	4306.59
426.58	4187.22
426.77	4124.02
426.96	4138.07
427.15	4147.43
427.33	4212.96
427.52	4168.49
427.71	4292.54
427.90	4383.82
428.09	4287.86
428.28	4273.82
428.46	4404.89
428.65	4339.35
428.84	4491.49
429.03	4538.30
429.22	4299.56
429.40	4444.68
429.59	4283.18
429.78	4208.28
429.97	4049.13
430.16	4229.35
430.34	4358.08
430.53	4341.69
430.72	4339.35
430.91	4428.29
431.10	4484.47
431.28	4697.46
431.47	4739.58
431.66	4880.02
431.85	4737.24
432.03	4652.98
432.22	4760.65
432.41	4770.01
432.60	4851.93
432.79	4966.62
432.97	4924.49
433.16	4858.95
433.35	4905.76
433.54	4840.23
433.72	4870.65
433.91	4812.14
434.10	5207.69
434.28	4905.76
434.47	5107.05
434.66	5095.35
434.85	5097.69
435.03	5156.20
435.22	5025.13
435.41	5315.36
435.59	5266.21
435.78	5397.28
435.97	5420.68
436.16	5350.46
436.34	5373.87
436.53	5266.21
436.72	5369.19
436.90	5156.20
437.09	5390.25
437.28	5413.66
437.46	5282.59
437.65	5259.18
437.84	5320.04
438.02	5462.81
438.21	5352.81
438.40	5376.21
438.58	5441.75
438.77	5495.58
438.96	5678.14
439.14	5790.49
439.33	5827.93
439.52	5849.00
439.70	5659.42
439.89	6022.20
440.08	5900.49
440.26	6003.47
440.45	5856.02
440.63	6057.31
440.82	6197.74
441.01	6244.55
441.19	6291.36
441.38	6424.77
441.57	6331.15
441.75	6420.09
441.94	6494.99
442.12	6696.27
442.31	6628.40
442.50	6504.35
442.68	6520.73
442.87	6490.31
443.05	6633.08
443.24	6768.83
443.43	6670.53
443.61	6691.59
443.80	6998.20
443.98	6562.86
444.17	6438.81
444.35	6672.87
444.54	7035.65
444.73	6661.16
444.91	6878.83
445.10	6717.34
445.28	6733.72
445.47	6588.61
445.65	6590.95
445.84	6829.68
446.02	6848.41
446.21	7012.24
446.39	6759.47
446.58	6972.46
446.77	6970.12
446.95	7000.54
447.14	6911.60
447.32	6956.07
447.51	6799.26
447.69	6750.10
447.88	7009.90
448.06	7059.06
448.25	7176.08
448.43	7117.57
448.62	6974.80
448.80	6927.99
448.99	7056.72
449.17	7049.69
449.36	7009.90
449.54	7148.00
449.73	7417.16
449.91	7410.14
450.10	7314.17
450.28	7400.77
450.46	7442.90
450.65	7543.55
450.83	7524.82
451.02	7470.99
451.20	7695.68
451.39	7426.52
451.57	7466.31
451.76	7536.52
451.94	7522.48
452.13	7447.58
452.31	7676.96
452.49	7332.90
452.68	7625.47
452.86	7426.52
453.05	7529.50
453.23	7761.22
453.42	7506.10
453.60	7506.10
453.78	7878.24
453.97	7707.38
454.15	7726.11
454.34	7850.16
454.52	7850.16
454.70	7803.35
454.89	7873.56
455.07	7784.62
455.26	7941.44
455.44	8067.83
455.62	7887.61
455.81	8081.87
455.99	8135.70
456.17	8191.88
456.36	8114.64
456.54	8217.62
456.73	8159.11
456.91	8475.08
457.09	8446.99
457.28	8388.48
457.46	8439.97
457.64	8517.21
457.83	8234.00
458.01	8252.73
458.19	8514.87
458.38	8416.57
458.56	8589.77
458.74	8582.74
458.93	8554.66
459.11	8533.59
459.29	8667.00
459.48	8718.50
459.66	8688.07
459.84	8723.18
460.03	9034.47
460.21	8753.60
460.39	8842.54
460.57	8870.63
460.76	8922.12
460.94	8872.97
461.12	8823.82
461.31	8912.76
461.49	9006.38
461.67	9004.04
461.85	9064.89
462.04	9125.75
462.22	9767.06
462.40	9249.80
462.59	9233.41
462.77	9198.31
462.95	9144.47
463.13	9142.13
463.32	9266.18
463.50	9221.71
463.68	9399.59
463.86	9212.35
464.05	9060.21
464.23	9291.93
464.41	9584.49
464.59	9263.84
464.78	9518.96
464.96	9521.30
465.14	9514.28
465.32	9612.58
465.50	9757.69
465.69	9504.92
465.87	9509.60
466.05	9483.85
466.23	9696.84
466.41	9437.04
466.60	9631.30
466.78	9619.60
466.96	9614.92
467.14	9696.84
467.32	9682.80
467.51	9856.00
467.69	9537.68
467.87	9820.89
468.05	10066.64
468.23	9774.08
468.41	9848.97
468.60	9689.82
468.78	9879.40
468.96	9839.61
469.14	10101.75
469.32	10235.16
469.50	9736.63
469.69	9907.49
469.87	10139.20
470.05	10085.37
470.23	10101.75
470.41	10258.57
470.59	10239.84
470.77	10258.57
470.95	10427.09
471.14	10569.86
471.32	10373.25
471.50	10511.35
471.68	10548.79
471.86	10827.32
472.04	10890.51
472.22	11136.27
472.40	10576.88
472.58	10787.53
472.77	10785.19
472.95	10878.81
473.13	11213.51
473.31	10853.06
473.49	10930.30
473.67	10986.47
473.85	10911.58
474.03	11330.53
474.21	11438.20
474.39	11379.68
474.57	11325.85
474.75	11407.77
474.93	11613.74
475.12	11506.07
475.30	11611.40
475.48	11634.80
475.66	11714.38
475.84	11653.53
476.02	11922.69
476.20	11735.45
476.38	11962.48
476.56	12264.41
476.74	12224.62
476.92	11962.48
477.10	12133.34
477.28	12327.60
477.46	12365.05
477.64	12617.83
477.82	12847.20
478.00	13055.51
478.18	12798.05
478.36	13022.74
478.54	13191.26
478.72	12994.65
478.90	13380.84
479.08	13282.54
479.26	13523.62
479.44	13682.77
479.62	13532.98
479.80	13919.17
479.98	14207.05
480.16	14134.50
480.34	14195.35
480.52	14298.33
480.70	14328.76
480.88	14193.01
481.06	14155.56
481.24	14450.47
481.41	14705.59
481.59	15042.62
481.77	14764.10
481.95	15091.77
482.13	15159.65
482.31	15199.44
482.49	15482.64
482.67	15318.81
482.85	15709.68
483.03	15854.79
483.21	15875.85
483.39	15747.12
483.57	15955.43
483.74	16006.92
483.92	16159.06
484.10	16086.50
484.28	16624.83
484.46	16908.03
484.64	16610.78
484.82	16650.57
485.00	16905.69
485.18	17153.79
485.35	17118.68
485.53	16772.28
485.71	17006.33
485.89	17053.14
486.07	17111.66
486.25	17034.42
486.43	17209.96
486.61	17776.37
486.78	17947.23
486.96	18064.25
487.14	18242.14
487.32	18387.25
487.50	18551.09
487.68	18768.76
487.85	18827.27
488.03	19030.90
488.21	19213.46
488.39	19033.24
488.57	19365.59
488.75	19700.29
488.92	19824.34
489.10	20032.65
489.28	19976.47
489.46	20280.74
489.64	20030.30
489.81	20837.79
489.99	20776.94
490.17	20863.54
490.35	21010.99
490.53	21359.73
490.70	21568.04
490.88	21268.45
491.06	21186.53
491.24	21469.73
491.41	21509.52
491.59	21385.47
491.77	21692.08
491.95	21661.66
492.13	22129.77
492.30	21968.27
492.48	22380.20
492.66	22602.55
492.84	22590.85
493.01	22750.01
493.19	22672.77
493.37	23145.56
493.54	23049.60
493.72	23115.13
493.90	23234.50
494.08	23667.50
494.25	23779.84
494.43	24137.94
494.61	24163.69
494.79	24086.45
494.96	24308.80
495.14	24203.48
495.32	24493.71
495.49	24299.44
495.67	24547.54
495.85	25034.37
496.02	25137.35
496.20	25085.86
496.38	25397.15
496.55	25118.63
496.73	26029.10
496.91	25635.89
497.09	25621.84
497.26	25827.81
497.44	26286.56
497.62	26216.34
497.79	26073.57
497.97	26078.25
498.14	26501.89
498.32	26710.19
498.50	26649.34
498.67	27122.13
498.85	27005.10
499.03	27227.45
499.20	27166.60
499.38	27201.71
499.56	27520.02
499.73	27346.82
499.91	27311.71
500.08	27674.49
500.26	27381.93
500.44	27803.22
500.61	27852.38
500.79	27768.12
500.97	27747.05
501.14	27789.18
501.32	27784.50
501.49	27997.49
501.67	27910.89
501.84	28210.48
502.02	28500.70
502.20	28589.64
502.37	28734.76
502.55	28835.40
502.72	28811.99
502.90	28886.89
503.07	28917.32
503.25	28975.83
503.43	29060.09
503.60	29167.76
503.78	29113.92
503.95	29298.83
504.13	29465.00
504.30	29673.31
504.48	29404.15
504.65	29928.43
504.83	29729.48
505.01	30319.30
505.18	30181.21
505.36	30529.95
505.53	30431.65
505.71	30831.88
505.88	30373.13
506.06	30735.92
506.23	30871.67
506.41	30677.40
506.58	30927.84
506.76	30761.66
506.93	30962.95
507.11	31157.21
507.28	31201.68
507.46	30899.75
507.63	30911.46
507.81	31323.39
507.98	31299.98
508.16	31578.51
508.33	31381.90
508.50	31304.67
508.68	31908.52
508.85	32219.81
509.03	31962.36
509.20	32168.32
509.38	32327.48
509.55	32449.19
509.73	32414.08
509.90	32378.97
510.08	32407.06
510.25	32271.31
510.42	32538.13
510.60	32884.53
510.77	33043.68
510.95	33015.60
511.12	32994.53
511.30	33380.72
511.47	33387.74
511.64	33605.41
511.82	33532.86
511.99	33415.83
512.17	33359.66
512.34	33305.82
512.51	33544.56
512.69	33563.28
512.86	33858.19
513.04	34043.09
513.21	33991.60
513.38	33710.74
513.56	33577.33
513.73	33839.47
513.90	34078.20
514.08	33584.35
514.25	34232.68
514.43	34295.87
514.60	34103.95
514.77	34164.80
514.95	34890.37
515.12	34857.60
515.29	34494.82
515.47	35276.55
515.64	34930.16
515.81	34920.79
515.99	34913.77
516.16	35026.12
516.33	34419.92
516.51	34546.31
516.68	34497.16
516.85	34345.02
517.03	34621.20
517.20	34937.18
517.37	35204.00
517.54	35089.31
517.72	34988.67
517.89	35351.45
518.06	35325.71
518.24	35309.32
518.41	35262.51
518.58	35927.22
518.75	35871.05
518.93	36051.27
519.10	35943.61
519.27	36088.72
519.45	36081.70
519.62	36048.93
519.79	36912.59
519.96	36418.74
520.14	36940.68
520.31	36409.37
520.48	36697.26
520.65	36575.55
520.83	37268.35
521.00	36601.30
521.17	37266.01
521.34	37013.23
521.52	37170.05
521.69	37476.66
521.86	37368.99
522.03	37191.11
522.20	37172.39
522.38	37591.34
522.55	37933.06
522.72	37652.20
522.89	37284.73
523.07	37942.42
523.24	37661.56
523.41	38038.39
523.58	37930.72
523.75	38361.38
523.92	38436.28
524.10	38263.08
524.27	38607.14
524.44	38382.45
524.61	38597.77
524.78	38801.40
524.96	38902.04
525.13	38712.46
525.30	38780.34
525.47	39091.63
525.64	38677.35
525.81	38707.78
525.98	38548.62
526.16	38349.68
526.33	38525.22
526.50	38466.70
526.67	38576.71
526.84	38969.92
527.01	38831.83
527.18	39283.55
527.36	39262.49
527.53	39405.26
527.70	39316.32
527.87	39723.57
528.04	39564.42
528.21	39723.57
528.38	39655.70
528.55	40559.14
528.72	39990.39
528.89	40634.04
529.07	39796.13
529.24	39793.79
529.41	40123.80
529.58	39456.75
529.75	39995.07
529.92	40154.23
530.09	39985.71
530.26	40287.64
530.43	40402.33
530.60	40257.21
530.77	40844.69
530.94	40664.47
531.11	40858.73
531.28	40549.78
531.46	40526.38
531.63	40699.58
531.80	40739.36
531.97	40479.57
532.14	40521.69
532.31	40509.99
532.48	40938.31
532.65	40828.30
532.82	40741.71
532.99	41148.96
533.16	41006.19
533.33	41120.87
533.50	41787.92
533.67	41095.13
533.84	41078.74
534.01	41165.34
534.18	41422.80
534.35	41780.90
534.52	41366.63
534.69	41523.44
534.86	41673.24
535.03	41427.48
535.20	41951.76
535.37	42176.45
535.54	42754.57
535.71	41783.24
535.88	41605.36
536.05	41909.63
536.22	42143.69
536.38	42017.30
536.55	41883.89
536.72	42054.75
536.89	42050.06
537.06	41869.84
537.23	42459.66
537.40	42272.42
537.57	42146.03
537.74	42188.16
537.91	42665.63
538.08	42628.18
538.25	42040.70
538.42	42054.75
538.59	42742.86
538.75	42176.45
538.92	42464.34
539.09	42813.08
539.26	42555.62
539.43	42719.46
539.60	42508.81
539.77	42384.76
539.94	42637.54
540.11	42967.55
540.28	42890.32
540.44	42843.51
540.61	42419.87
540.78	42698.39
540.95	42426.89
541.12	42621.16
541.29	42864.57
541.46	43096.28
541.62	43014.37
541.79	43646.31
541.96	42918.40
542.13	43093.94
542.30	43503.54
542.47	42995.64
542.63	43065.86
542.80	43730.57
542.97	43629.93
543.14	44053.56
543.31	43784.40
543.48	44102.71
543.64	44215.06
543.81	43983.35
543.98	43945.90
544.15	43236.72
544.32	44509.97
544.48	44683.17
544.65	44367.20
544.82	44259.53
544.99	43718.87
545.16	44069.95
545.32	43906.11
545.49	44549.76
545.66	44069.95
545.83	44823.60
546.00	44835.30
546.16	44666.78
546.33	44439.75
546.50	44013.77
546.67	44334.43
546.83	43913.13
547.00	44484.22
547.17	44034.84
547.34	43964.62
547.50	44680.83
547.67	44729.98
547.84	44406.98
548.00	45067.02
548.17	45209.79
548.34	44568.48
548.51	45280.00
548.67	45235.53
548.84	45085.74
549.01	45139.57
549.18	44835.30
549.34	44865.73
549.51	45230.85
549.68	45315.11
549.84	45031.91
550.01	45298.73
550.18	45179.36
550.34	45315.11
550.51	45305.75
550.68	44978.07
550.84	45111.49
551.01	45104.46
551.18	45085.74
551.34	45102.12
551.51	45134.89
551.68	45764.49
551.84	45722.37
552.01	45415.76
552.18	45310.43
552.34	45401.71
552.51	45574.91
552.68	45450.86
552.84	45521.08
553.01	45794.92
553.18	45546.82
553.34	45797.26
553.51	45757.47
553.67	45659.17
553.84	45982.16
554.01	45804.28
554.17	45670.87
554.34	45935.35
554.51	46010.25
554.67	45841.73
554.84	45837.05
555.00	46101.53
555.17	46129.62
555.33	46216.22
555.50	46117.92
555.67	45663.85
555.83	46178.77
556.00	45464.91
556.16	46375.37
556.33	46146.00
556.50	46433.89
556.66	46024.29
556.83	46422.19
556.99	46326.22
557.16	46515.81
557.32	46202.18
557.49	46223.24
557.65	45759.81
557.82	46438.57
557.98	46183.45
558.15	46213.88
558.32	46499.42
558.48	45748.11
558.65	45895.56
558.81	46263.03
558.98	46373.03
559.14	46307.50
559.31	46298.14
559.47	46487.72
559.64	46389.42
559.80	46691.35
559.97	46916.04
560.13	46632.83
560.30	46686.67
560.46	46396.44
560.63	46328.56
560.79	46316.86
560.96	47133.71
561.12	47147.75
561.29	46794.33
561.45	46862.21
561.61	46794.33
561.78	46986.25
561.94	46487.72
562.11	46672.62
562.27	46422.19
562.44	46728.80
562.60	46726.46
562.77	46972.21
562.93	47098.60
563.10	46803.69
563.26	47028.38
563.42	46855.18
563.59	46693.69
563.75	46801.35
563.92	46946.47
564.08	47386.49
564.24	46897.31
564.41	46967.53
564.57	46972.21
564.74	47281.16
564.90	47136.05
565.07	46824.76
565.23	46756.88
565.39	47058.81
565.56	47246.05
565.72	46918.38
565.88	46749.86
566.05	47224.99
566.21	47147.75
566.38	46955.83
566.54	47054.13
566.70	46913.70
566.87	47407.55
567.03	47309.25
567.19	47379.46
567.36	47248.39
567.52	47016.68
567.68	47054.13
567.85	47136.05
568.01	47192.22
568.17	46930.08
568.34	47363.08
568.50	46880.93
568.66	46918.38
568.83	47243.71
568.99	46862.21
569.15	47096.26
569.32	46726.46
569.48	46962.85
569.64	47297.55
569.81	47100.94
569.97	47000.30
570.13	47026.04
570.30	46733.48
570.46	46948.81
570.62	46672.62
570.78	46806.03
570.95	47210.95
571.11	47512.88
571.27	46848.16
571.43	47166.48
571.60	47002.64
571.76	47009.66
571.92	47372.44
572.09	47201.58
572.25	47150.09
572.41	47098.60
572.57	47271.80
572.74	47611.18
572.90	47430.96
573.06	46775.61
573.22	47344.36
573.38	47379.46
573.55	47196.90
573.71	47498.83
573.87	47442.66
574.03	47437.98
574.20	47327.97
574.36	47182.86
574.52	47627.56
574.68	47391.17
574.84	47473.09
575.01	47000.30
575.17	47089.24
575.33	47023.70
575.49	47119.66
575.65	47512.88
575.82	47203.92
575.98	47136.05
576.14	47763.31
576.30	47782.04
576.46	46958.17
576.62	47604.16
576.79	46920.72
576.95	46925.40
577.11	46930.08
577.27	47416.91
577.43	47690.76
577.59	47119.66
577.75	47187.54
577.92	46808.37
578.08	46997.96
578.24	46988.60
578.40	47236.69
578.56	46899.65
578.72	47246.05
578.88	47423.93
579.04	47377.12
579.21	46965.19
579.37	47042.43
579.53	47311.59
579.69	47119.66
579.85	47412.23
580.01	47583.09
580.17	47707.14
580.33	47260.10
580.49	47330.31
580.65	47388.83
580.82	47583.09
580.98	47344.36
581.14	47161.79
581.30	47189.88
581.46	47267.12
581.62	47236.69
581.78	47522.24
581.94	47667.35
582.10	47461.38
582.26	47466.06
582.42	47442.66
582.58	47449.68
582.74	47452.02
582.90	47969.28
583.06	47445.00
583.22	47641.60
583.38	47892.04
583.54	47138.39
583.70	47842.89
583.86	47423.93
584.02	46609.43
584.18	47248.39
584.34	47665.01
584.50	47346.70
584.66	47316.27
584.82	47126.69
584.98	47442.66
585.14	47412.23
585.30	46911.36
585.46	47143.07
585.62	47475.43
585.78	47447.34
585.94	47332.65
586.10	47702.46
586.26	46918.38
586.42	47461.38
586.58	47885.02
586.74	47557.35
586.90	47405.21
587.06	47381.80
587.22	47466.06
587.38	47196.90
587.54	47487.13
587.70	47482.45
587.86	47435.64
588.02	47278.82
588.18	47910.77
588.34	47356.06
588.49	46782.63
588.65	46745.18
588.81	46918.38
588.97	46852.84
589.13	46602.41
589.29	46667.94
589.45	46925.40
589.61	47224.99
589.77	47246.05
589.93	47536.28
590.08	47784.38
590.24	47512.88
590.40	47709.48
590.56	47304.57
590.72	47505.85
590.88	47311.59
591.04	47405.21
591.20	47826.51
591.35	47690.76
591.51	47789.06
591.67	47665.01
591.83	47442.66
591.99	47346.70
592.15	47246.05
592.31	47587.77
592.46	47461.38
592.62	47915.45
592.78	47262.44
592.94	47533.94
593.10	47613.52
593.26	47686.07
593.41	47873.32
593.57	47569.05
593.73	47402.87
593.89	47323.29
594.05	47026.04
594.20	47459.04
594.36	47814.80
594.52	47559.69
594.68	47281.16
594.84	47826.51
594.99	47938.85
595.15	47459.04
595.31	47711.82
595.47	47737.57
595.62	47969.28
595.78	47625.22
595.94	47636.92
596.10	47700.12
596.25	47571.39
596.41	47875.66
596.57	47646.29
596.73	47941.19
596.88	47519.90
597.04	47597.13
597.20	47538.62
597.36	47700.12
597.51	47674.37
597.67	47632.24
597.83	47798.42
597.99	47959.92
598.14	48044.18
598.30	47590.11
598.46	47421.59
598.61	47604.16
598.77	47311.59
598.93	47283.50
599.09	47557.35
599.24	47997.37
599.40	47845.23
599.56	47772.67
599.71	47849.91
599.87	47938.85
600.03	47725.86
600.18	47386.49
600.34	47814.80
600.50	47627.56
600.65	47847.57
600.81	47700.12
600.97	47704.80
601.12	47863.96
601.28	47697.78
601.44	47681.39
601.59	47812.46
601.75	47583.09
601.91	47594.79
602.06	47299.89
602.22	47463.72
602.37	47131.37
602.53	47166.48
602.69	47817.14
602.84	47325.63
603.00	47531.60
603.16	47110.30
603.31	47489.47
603.47	47346.70
603.62	47496.49
603.78	47760.97
603.94	47566.71
604.09	47639.26
604.25	47980.98
604.40	48147.16
604.56	47679.05
604.71	47430.96
604.87	47604.16
605.03	47412.23
605.18	47192.22
605.34	47592.45
605.49	47377.12
605.65	47835.87
605.80	47522.24
605.96	47580.75
606.12	47480.11
606.27	47665.01
606.43	47166.48
606.58	47758.63
606.74	47290.52
606.89	46927.74
607.05	47454.36
607.20	47381.80
607.36	47566.71
607.51	47798.42
607.67	47604.16
607.82	47562.03
607.98	47381.80
608.13	47409.89
608.29	47304.57
608.44	47068.17
608.60	46387.08
608.75	46836.46
608.91	46670.28
609.06	46941.78
609.22	47475.43
609.37	46653.90
609.53	47110.30
609.68	47140.73
609.84	47021.36
609.99	46815.40
610.15	46724.11
610.30	46948.81
610.46	46787.31
610.61	46726.46
610.76	46754.54
610.92	46696.03
611.07	46880.93
611.23	46880.93
611.38	46913.70
611.54	46766.24
611.69	46522.83
611.84	46700.71
612.00	46923.06
612.15	46710.07
612.31	47096.26
612.46	46733.48
612.62	46843.48
612.77	46527.51
612.92	46784.97
613.08	46857.52
613.23	46490.06
613.39	46253.67
613.54	46167.07
613.69	46188.13
613.85	46377.72
614.00	46464.32
614.15	46878.59
614.31	46326.22
614.46	46754.54
614.62	46548.57
614.77	46251.33
614.92	46384.74
615.08	46038.34
615.23	46045.36
615.38	46330.90
615.54	46101.53
615.69	46185.79
615.84	45944.72
616.00	45991.53
616.15	46323.88
616.30	46607.09
616.46	45790.24
616.61	45862.80
616.76	45925.99
616.92	45998.55
617.07	46171.75
617.22	45591.30
617.37	45705.98
617.53	46525.17
617.68	46138.98
617.83	45956.42
617.99	46183.45
618.14	46136.64
618.29	46110.89
618.45	45656.83
618.60	45670.87
618.75	45481.29
618.90	45558.53
619.06	45694.28
619.21	45521.08
619.36	45977.48
619.51	45621.72
619.67	45841.73
619.82	45628.74
619.97	46188.13
620.12	45099.78
620.28	45949.40
620.43	45504.70
620.58	45303.41
620.73	45556.19
620.89	45450.86
621.04	45144.25
621.19	45244.90
621.34	45141.91
621.49	45439.16
621.65	45191.06
621.80	45490.65
621.95	45207.45
622.10	45603.00
622.25	44882.11
622.41	44835.30
622.56	44980.42
622.71	45523.42
622.86	45258.94
623.01	45013.18
623.16	45029.57
623.32	44903.18
623.47	45048.29
623.62	44779.13
623.77	44931.26
623.92	44748.70
624.07	44376.56
624.23	44839.98
624.38	44952.33
624.53	44753.38
624.68	44837.64
624.83	44622.31
624.98	44788.49
625.13	44573.16
625.29	44343.79
625.44	44388.26
625.59	44788.49
625.74	44275.91
625.89	44069.95
626.04	44079.31
626.19	44112.08
626.34	44474.86
626.49	44680.83
626.65	43973.98
626.80	44238.47
626.95	44322.72
627.10	44046.54
627.25	43887.39
627.40	43772.70
627.55	44285.28
627.70	43573.75
627.85	43512.90
628.00	44165.91
628.15	44311.02
628.30	44201.02
628.45	43824.19
628.60	43978.67
628.76	43856.96
628.91	43777.38
629.06	43615.88
629.21	43419.28
629.36	43508.22
629.51	43262.46
629.66	43447.36
629.81	43199.27
629.96	43274.16
630.11	43433.32
630.26	43641.63
630.41	43112.67
630.56	43145.44
630.71	43730.57
630.86	43910.79
631.01	43545.67
631.16	43562.05
631.31	43548.01
631.46	42843.51
631.61	43468.43
631.76	43210.97
631.91	43332.68
632.06	43145.44
632.21	43580.78
632.36	43395.87
632.51	43419.28
632.66	43475.45
632.81	42775.63
632.96	42834.14
633.10	42890.32
633.25	42660.94
633.40	43225.01
633.55	43285.87
633.70	43147.78
633.85	43070.54
634.00	43276.51
634.15	43435.66
634.30	42993.30
634.45	43030.75
634.60	42410.51
634.75	43217.99
634.90	42997.98
635.05	42993.30
635.19	42993.30
635.34	43093.94
635.49	42880.95
635.64	42763.93
635.79	42501.79
635.94	42443.27
636.09	42721.80
636.24	42288.80
636.39	42305.18
636.53	42916.06
636.68	42646.90
636.83	42391.78
636.98	42246.67
637.13	41790.27
637.28	42141.35
637.43	42597.75
637.57	42478.38
637.72	42424.55
637.87	41986.87
638.02	42188.16
638.17	42064.11
638.32	42059.43
638.46	42174.11
638.61	41736.43
638.76	41771.54
638.91	41993.89
639.06	42211.56
639.20	42274.76
639.35	42611.79
639.50	42419.87
639.65	42064.11
639.80	42199.86
639.94	41993.89
640.09	41869.84
640.24	41535.15
640.39	41792.61
640.54	41706.01
640.68	41422.80
640.83	41462.59
640.98	41642.81
641.13	41497.70
641.27	42131.98
641.42	41481.31
641.57	41570.25
641.72	42078.15
641.86	41640.47
642.01	41144.28
642.16	41357.27
642.31	41254.28
642.45	41530.47
642.60	41137.26
642.75	41223.86
642.90	41338.54
643.04	41144.28
643.19	41343.22
643.34	41715.37
643.48	41287.05
643.63	41310.46
643.78	41172.36
643.93	40889.16
644.07	40868.09
644.22	40818.94
644.37	40620.00
644.51	40774.47
644.66	40912.56
644.81	40940.65
644.95	40889.16
645.10	40542.76
645.25	41104.49
645.39	41413.44
645.54	41088.10
645.69	41081.08
645.83	41111.51
645.98	40697.24
646.13	40631.70
646.27	40587.23
646.42	40697.24
646.57	40727.66
646.71	40907.88
646.86	40868.09
647.00	40765.11
647.15	40704.26
647.30	40928.95
647.44	40474.88
647.59	40556.80
647.74	40425.73
647.88	40231.47
648.03	40231.47
648.17	40416.37
648.32	40212.74
648.47	39887.41
648.61	39915.50
648.76	40821.28
648.90	40020.82
649.05	39791.45
649.20	40252.53
649.34	40411.69
649.49	40168.27
649.63	40133.17
649.78	39716.55
649.92	39800.81
650.07	40404.67
650.21	40165.93
650.36	39824.22
650.51	39627.61
650.65	40046.57
650.80	40268.92
650.94	39847.62
651.09	39674.42
651.23	39723.57
651.38	39533.99
651.52	39786.77
651.67	39941.24
651.81	39522.29
651.96	39447.39
652.10	39672.08
652.25	39564.42
652.39	39618.25
652.54	39786.77
652.68	39646.33
652.83	39662.72
652.97	39950.60
653.12	39316.32
653.26	39969.33
653.41	39522.29
653.55	39337.38
653.70	39285.89
653.84	39292.91
653.99	39550.37
654.13	39702.51
654.27	38747.57
654.42	39297.59
654.56	39112.69
654.71	39147.80
654.85	38834.17
655.00	39105.67
655.14	39115.03
655.29	38459.68
655.43	38195.20
655.57	38728.84
655.72	38820.13
655.86	38670.33
656.01	38342.66
656.15	38234.99
656.30	38277.12
656.44	38333.29
656.58	38127.33
656.73	38639.90
656.87	38267.76
657.01	38143.71
657.16	37883.91
657.30	38326.27
657.45	38279.46
657.59	38347.34
657.73	38059.45
657.88	38239.67
658.02	38445.64
658.16	38398.83
658.31	38567.35
658.45	38459.68
658.60	38326.27
658.74	38738.21
658.88	38452.66
659.03	37949.45
659.17	37680.28
659.31	37832.42
659.46	37706.03
659.60	38012.64
659.74	38050.09
659.89	37801.99
660.03	38185.84
660.17	37935.40
660.32	37581.98
660.46	38134.35
660.60	37783.27
660.74	37968.17
660.89	37706.03
661.03	37621.77
661.17	37111.53
661.32	37418.14
661.46	37319.84
661.60	37593.68
661.74	37586.66
661.89	37242.60
662.03	37263.67
662.17	37090.47
662.31	36844.71
662.46	37127.92
662.60	37029.62
662.74	37441.55
662.88	37373.67
663.03	36776.84
663.17	36935.99
663.31	36762.79
663.45	36774.50
663.60	36708.96
663.74	36304.05
663.88	36652.79
664.02	36172.98
664.17	36622.36
664.31	35793.81
664.45	36142.55
664.59	36683.22
664.73	36219.79
664.88	36465.55
665.02	36140.21
665.16	36767.48
665.30	36400.01
665.44	35948.29
665.59	35737.64
665.73	35510.61
665.87	35814.88
666.01	36107.44
666.15	35447.41
666.29	35515.29
666.44	35669.76
666.58	35578.48
666.72	35637.00
666.86	35962.33
667.00	35459.12
667.14	35253.15
667.28	35330.39
667.43	35321.02
667.57	35152.51
667.71	34869.30
667.85	35086.97
667.99	34859.94
668.13	34857.60
668.27	34902.07
668.41	35379.54
668.56	34897.39
668.70	34993.35
668.84	34778.02
668.98	34918.45
669.12	34574.39
669.26	34876.32
669.40	34323.96
669.54	34108.63
669.68	34417.58
669.82	33787.97
669.96	34129.69
670.10	33998.62
670.25	34258.42
670.39	34459.71
670.53	34043.09
670.67	34075.86
670.81	34291.19
670.95	33928.41
671.09	34033.73
671.23	33928.41
671.37	33921.38
671.51	33467.32
671.65	33542.22
671.79	33727.12
671.93	33294.12
672.07	33425.19
672.21	33127.94
672.35	33441.57
672.49	32968.79
672.63	32840.06
672.77	32835.38
672.91	33090.49
673.05	33149.01
673.19	32744.09
673.33	32746.44
673.47	32870.48
673.61	32205.77
673.75	32526.42
673.89	32128.53
674.03	32322.80
674.17	32524.08
674.31	32173.00
674.45	32184.71
674.59	31882.78
674.73	32212.79
674.87	32095.77
675.01	32121.51
675.15	32322.80
675.29	32252.58
675.43	31938.95
675.56	31391.26
675.70	31667.45
675.84	31770.43
675.98	30817.83
676.12	31304.67
676.26	31208.70
676.40	31140.83
676.54	30927.84
676.68	30953.58
676.82	30546.33
676.96	30511.22
677.10	30700.81
677.23	30707.83
677.37	30796.77
677.51	30312.28
677.65	29944.81
677.79	29860.55
677.93	30150.78
678.07	30080.56
678.21	29755.23
678.34	29392.45
678.48	29383.09
678.62	29528.20
678.76	29563.31
678.90	29680.33
679.04	29532.88
679.18	29603.10
679.31	29097.54
679.45	28884.55
679.59	28734.76
679.73	29170.10
679.87	28903.28
680.00	29130.31
680.14	28580.28
680.28	28856.46
680.42	28486.66
680.56	28582.62
680.70	28425.81
680.83	28224.52
680.97	28334.53
681.11	27981.10
681.25	27768.12
681.39	27770.46
681.52	27929.61
681.66	27871.10
681.80	27534.06
681.94	27695.56
682.07	27695.56
682.21	27222.77
682.35	27300.01
682.49	27250.86
682.62	27278.94
682.76	27487.25
682.90	27140.85
683.04	27197.02
683.17	27250.86
683.31	27091.70
683.45	27168.94
683.59	26536.99
683.72	26616.57
683.86	26452.73
684.00	26064.21
684.13	26434.01
684.27	26169.53
684.41	25914.41
684.55	25720.15
684.68	25614.82
684.82	25607.80
684.96	25528.22
685.09	25448.64
685.23	25420.56
685.37	25310.55
685.50	25191.19
685.64	25359.70
685.78	25490.77
685.91	25373.75
686.05	25216.93
686.19	24655.20
686.32	25207.57
686.46	24535.84
686.60	24049.00
686.73	24269.01
686.87	23936.66
687.01	23866.44
687.14	23470.89
687.28	23587.92
687.42	23786.86
687.55	23861.76
687.69	23695.58
687.82	23651.11
687.96	23424.08
688.10	23819.63
688.23	23475.57
688.37	23204.07
688.50	22927.89
688.64	23211.09
688.78	22944.27
688.91	22686.81
689.05	23239.18
689.18	22508.93
689.32	22717.24
689.46	22665.75
689.59	22703.20
689.73	22930.23
689.86	22750.01
690.00	22499.57
690.13	22616.60
690.27	22459.78
690.41	22464.46
690.54	22019.76
690.68	22022.10
690.81	21926.14
690.95	21940.18
691.08	21799.75
691.22	22024.44
691.35	21724.85
691.49	21596.12
691.62	21579.74
691.76	21458.03
691.89	21518.89
692.03	21280.15
692.16	21097.59
692.30	21001.63
692.43	20765.23
692.57	20751.19
692.70	20884.60
692.84	20741.83
692.97	20418.83
693.11	20809.70
693.24	20184.78
693.38	20341.60
693.51	20252.66
693.65	20475.01
693.78	20587.35
693.92	20320.53
694.05	19969.45
694.19	19735.40
694.32	20049.03
694.45	19960.09
694.59	19850.08
694.72	19693.27
694.86	19747.10
694.99	19042.60
695.13	19288.35
695.26	19264.95
695.39	18897.49
695.53	19168.99
695.66	19042.60
695.80	19047.28
695.93	18883.44
696.07	18986.43
696.20	18693.86
696.33	18878.76
696.47	18899.83
696.60	18567.47
696.73	18518.32
696.87	18342.78
697.00	18403.63
697.14	18340.44
697.27	18326.39
697.40	18237.45
697.54	17745.94
697.67	17813.82
697.80	17951.91
697.94	17628.92
698.07	17710.83
698.21	17226.34
698.34	17364.43
698.47	17818.50
698.61	17509.55
698.74	17476.78
698.87	17453.37
699.01	16975.91
699.14	16931.44
699.27	17018.04
699.40	17390.18
699.54	16652.91
699.67	16732.49
699.80	16889.31
699.94	16475.03
700.07	16510.14
700.20	16697.38
700.34	16367.37
700.47	16283.11
700.60	16526.52
700.73	16238.64
700.87	16142.67
701.00	15971.82
701.13	16002.24
701.26	16020.97
701.40	15962.45
701.53	15737.76
701.66	15733.08
701.79	15770.53
701.93	15412.43
702.06	15548.18
702.19	15257.95
702.32	15274.34
702.46	15508.39
702.59	15548.18
702.72	15016.88
702.85	15075.39
702.99	15026.24
703.12	15080.07
703.25	15073.05
703.38	14899.85
703.51	14993.47
703.65	14820.27
703.78	14656.43
703.91	14609.62
704.04	14799.21
704.17	14363.87
704.31	14345.14
704.44	14288.97
704.57	14291.31
704.70	14104.07
704.83	14293.65
704.96	14113.43
705.10	14052.58
705.23	14113.43
>>>>>End Processed Spectral Data<<<<<
