SpectraSuite Data File
++++++++++++++++++++++++++++++++++++
Date: Fri Oct 25 10:44:44 EDT 2013
User: price-jones
Dark Spectrum Present: No
Reference Spectrum Present: No
Number of Sampled Component Spectra: 1
Spectrometers: USB2+H05261
Integration Time (usec): 100000 (USB2+H05261)
Spectra Averaged: 1 (USB2+H05261)
Boxcar Smoothing: 0 (USB2+H05261)
Correct for Electrical Dark: No (USB2+H05261)
Strobe/Lamp Enabled: No (USB2+H05261)
Correct for Detector Non-linearity: No (USB2+H05261)
Correct for Stray Light: No (USB2+H05261)
Number of Pixels in Processed Spectrum: 2048
>>>>>Begin Processed Spectral Data<<<<<
365.73	110.01
365.92	110.01
366.12	110.01
366.32	65.54
366.52	2.34
366.72	98.30
366.91	28.09
367.11	44.47
367.31	0.00
367.51	25.75
367.70	46.81
367.90	56.17
368.10	14.04
368.30	32.77
368.49	37.45
368.69	18.72
368.89	18.72
369.09	0.00
369.28	14.04
369.48	49.15
369.68	93.62
369.87	126.39
370.07	51.49
370.27	100.64
370.47	189.58
370.66	353.42
370.86	482.15
371.06	442.36
371.25	421.30
371.45	433.00
371.65	400.23
371.84	353.42
372.04	404.91
372.24	491.51
372.44	472.79
372.63	514.92
372.83	517.26
373.03	498.53
373.22	491.51
373.42	552.37
373.62	603.86
373.81	489.17
374.01	582.79
374.21	493.85
374.40	477.47
374.60	547.69
374.79	468.11
374.99	592.16
375.19	512.58
375.38	535.98
375.58	507.90
375.78	653.01
375.97	653.01
376.17	557.05
376.37	561.73
376.56	552.37
376.76	594.50
376.95	596.84
377.15	571.09
377.35	599.18
377.54	613.22
377.74	585.13
377.93	613.22
378.13	559.39
378.33	580.45
378.52	575.77
378.72	601.52
378.91	585.13
379.11	678.76
379.31	648.33
379.50	585.13
379.70	613.22
379.89	702.16
380.09	653.01
380.28	678.76
380.48	678.76
380.68	608.54
380.87	660.03
381.07	620.24
381.26	699.82
381.46	716.20
381.65	660.03
381.85	629.60
382.04	702.16
382.24	730.25
382.43	678.76
382.63	641.31
382.83	657.69
383.02	667.05
383.22	770.04
383.41	674.07
383.61	683.44
383.80	755.99
384.00	617.90
384.19	774.72
384.39	727.91
384.58	706.84
384.78	758.33
384.97	737.27
385.17	751.31
385.36	793.44
385.56	763.01
385.75	727.91
385.95	760.67
386.14	746.63
386.34	725.57
386.53	835.57
386.72	786.42
386.92	828.55
387.11	919.83
387.31	828.55
387.50	814.51
387.70	868.34
387.89	835.57
388.09	854.30
388.28	802.80
388.48	844.93
388.67	844.93
388.86	837.91
389.06	903.45
389.25	908.13
389.45	933.87
389.64	938.55
389.84	889.40
390.03	945.58
390.22	990.05
390.42	896.43
390.61	849.61
390.81	940.90
391.00	922.17
391.19	952.60
391.39	992.39
391.58	1006.43
391.78	976.00
391.97	1074.31
392.16	990.05
392.36	1034.52
392.55	922.17
392.75	905.79
392.94	985.37
393.13	964.30
393.33	976.00
393.52	980.68
393.71	1025.15
393.91	1011.11
394.10	1074.31
394.29	1086.01
394.49	1069.62
394.68	1090.69
394.88	1132.82
395.07	1055.58
395.26	1083.67
395.46	1181.97
395.65	1153.88
395.84	1001.75
396.04	1086.01
396.23	1090.69
396.42	1116.44
396.62	1121.12
396.81	1210.06
397.00	1137.50
397.19	1233.46
397.39	1235.80
397.58	1277.93
397.77	1217.08
397.97	1275.59
398.16	1245.16
398.35	1242.82
398.55	1270.91
398.74	1352.83
398.93	1336.45
399.12	1254.53
399.32	1317.72
399.51	1373.89
399.70	1420.71
399.90	1434.75
400.09	1448.79
400.28	1366.87
400.47	1483.90
400.67	1509.65
400.86	1430.07
401.05	1558.80
401.24	1519.01
401.44	1493.26
401.63	1561.14
401.82	1504.96
402.01	1465.18
402.21	1600.93
402.40	1537.73
402.59	1619.65
402.78	1481.56
402.97	1612.63
403.17	1668.80
403.36	1633.69
403.55	1582.20
403.74	1584.54
403.93	1647.74
404.13	1584.54
404.32	1633.69
404.51	1732.00
404.70	1699.23
404.89	1650.08
405.09	1799.87
405.28	1781.15
405.47	1802.21
405.66	1760.08
405.85	1870.09
406.05	1860.73
406.24	1806.89
406.43	1746.04
406.62	1818.60
406.81	1884.13
407.00	1816.26
407.20	1834.98
407.39	1881.79
407.58	1949.67
407.77	1961.37
407.96	2008.18
408.15	1935.62
408.34	1952.01
408.54	1994.14
408.73	1996.48
408.92	2108.82
409.11	2113.50
409.30	2066.69
409.49	2024.56
409.68	2094.78
409.87	2099.46
410.07	2097.12
410.26	2143.93
410.45	2214.15
410.64	2186.06
410.83	2239.89
411.02	2286.70
411.21	2303.09
411.40	2237.55
411.59	2298.41
411.78	2431.82
411.98	2345.22
412.17	2331.17
412.36	2422.45
412.55	2389.69
412.74	2406.07
412.93	2464.58
413.12	2312.45
413.31	2597.99
413.50	2506.71
413.69	2443.52
413.88	2668.21
414.07	2600.34
414.26	2551.18
414.45	2616.72
414.64	2745.45
414.83	2656.51
415.02	2796.94
415.22	2715.02
415.41	2827.37
415.60	2937.37
415.79	2818.00
415.98	2806.30
416.17	2871.84
416.36	3056.74
416.55	2909.29
416.74	2951.42
416.93	2937.37
417.12	2899.92
417.31	3068.44
417.50	2953.76
417.69	3307.18
417.88	3143.34
418.07	3197.17
418.26	3056.74
418.45	3009.93
418.64	3169.09
418.83	3185.47
419.02	3164.40
419.21	3155.04
419.39	3220.58
419.58	3166.74
419.77	3225.26
419.96	3391.44
420.15	3332.92
420.34	3337.60
420.53	3510.80
420.72	3452.29
420.91	3442.93
421.10	3480.38
421.29	3482.72
421.48	3377.39
421.67	3480.38
421.86	3478.04
422.05	3471.01
422.24	3325.90
422.43	3506.12
422.61	3478.04
422.80	3611.45
422.99	3618.47
423.18	3552.93
423.37	3754.22
423.56	3599.74
423.75	3592.72
423.94	3566.98
424.13	3445.27
424.32	3468.67
424.50	3536.55
424.69	3648.90
424.88	3623.15
425.07	3541.23
425.26	3545.91
425.45	3456.97
425.64	3597.40
425.83	3510.80
426.01	3658.26
426.20	3676.98
426.39	3728.47
426.58	3588.04
426.77	3679.32
426.96	3705.07
427.15	3714.43
427.33	3709.75
427.52	3707.41
427.71	3667.62
427.90	3791.67
428.09	3756.56
428.28	3758.90
428.46	3836.14
428.65	3805.71
428.84	3927.42
429.03	3815.07
429.22	3751.88
429.40	3829.12
429.59	3847.84
429.78	3686.34
429.97	3709.75
430.16	3768.26
430.34	3887.63
430.53	3861.88
430.72	3875.93
430.91	3950.82
431.10	3906.35
431.28	4241.05
431.47	4313.61
431.66	4208.28
431.85	4131.05
432.03	4175.52
432.22	4306.59
432.41	4304.25
432.60	4313.61
432.79	4280.84
432.97	4423.61
433.16	4219.99
433.35	4191.90
433.54	4322.97
433.72	4273.82
433.91	4367.44
434.10	4489.15
434.28	4294.88
434.47	4374.46
434.66	4542.98
434.85	4575.75
435.03	4496.17
435.22	4491.49
435.41	4697.46
435.59	4477.44
435.78	4547.66
435.97	4636.60
436.16	4594.47
436.34	4617.88
436.53	4648.30
436.72	4819.16
436.90	4578.09
437.09	4723.20
437.28	4748.95
437.46	4702.14
437.65	4650.64
437.84	4758.31
438.02	4809.80
438.21	4882.36
438.40	4631.92
438.58	4891.72
438.77	4999.38
438.96	4924.49
439.14	5025.13
439.33	5212.37
439.52	5343.44
439.70	5198.33
439.89	5179.61
440.08	5224.08
440.26	5259.18
440.45	5163.22
440.63	5357.49
440.82	5376.21
441.01	5427.70
441.19	5373.87
441.38	5600.90
441.57	5710.91
441.75	5476.85
441.94	5734.31
442.12	5675.80
442.31	5746.02
442.50	5851.34
442.68	5659.42
442.87	5636.01
443.05	5809.21
443.24	5783.46
443.43	5823.25
443.61	5980.07
443.80	6059.65
443.98	5724.95
444.17	5589.20
444.35	6057.31
444.54	5970.71
444.73	5989.43
444.91	5865.38
445.10	5818.57
445.28	5874.74
445.47	5891.13
445.65	5853.68
445.84	6008.16
446.02	6019.86
446.21	5914.53
446.39	6125.18
446.58	6031.56
446.77	6069.01
446.95	5916.87
447.14	6176.67
447.32	6253.91
447.51	6071.35
447.69	6015.18
447.88	6069.01
448.06	6115.82
448.25	6134.54
448.43	6136.88
448.62	6066.67
448.80	6059.65
448.99	6148.59
449.17	6186.04
449.36	6251.57
449.54	6279.66
449.73	6263.27
449.91	6583.93
450.10	6373.28
450.28	6654.14
450.46	6590.95
450.65	6551.16
450.83	6459.88
451.02	6464.56
451.20	6602.65
451.39	6623.72
451.57	6581.59
451.76	6487.96
451.94	6609.67
452.13	6572.22
452.31	6560.52
452.49	6534.78
452.68	6698.61
452.86	6567.54
453.05	6649.46
453.23	6661.16
453.42	6768.83
453.60	6626.06
453.78	6829.68
453.97	6712.66
454.15	6825.00
454.34	6693.93
454.52	6991.18
454.70	6846.07
454.89	6827.34
455.07	6967.77
455.26	7052.03
455.44	7084.80
455.62	7030.97
455.81	6963.09
455.99	6988.84
456.17	7229.91
456.36	7131.61
456.54	7258.00
456.73	7330.56
456.91	7152.68
457.09	7389.07
457.28	7538.87
457.46	7258.00
457.64	7492.05
457.83	7456.95
458.01	7389.07
458.19	7480.35
458.38	7419.50
458.56	7585.68
458.74	7564.61
458.93	7405.46
459.11	7683.98
459.29	7595.04
459.48	7583.34
459.66	7620.78
459.84	7604.40
460.03	7852.50
460.21	7683.98
460.39	7871.22
460.57	7770.58
460.76	7768.24
460.94	7985.91
461.12	8109.96
461.31	7847.82
461.49	7859.52
461.67	7864.20
461.85	7974.21
462.04	7903.99
462.22	8262.09
462.40	8140.38
462.59	8177.83
462.77	7922.71
462.95	8084.21
463.13	8210.60
463.32	8152.09
463.50	8273.79
463.68	8154.43
463.86	8381.46
464.05	8088.89
464.23	8187.19
464.41	8449.33
464.59	8124.00
464.78	8393.16
464.96	8416.57
465.14	8280.82
465.32	8573.38
465.50	8276.13
465.69	8468.06
465.87	8507.85
466.05	8439.97
466.23	8418.91
466.41	8463.38
466.60	8669.34
466.78	8362.73
466.96	8430.61
467.14	8606.15
467.32	8613.17
467.51	8751.26
467.69	8423.59
467.87	8664.66
468.05	8802.75
468.23	8711.47
468.41	8847.22
468.60	8840.20
468.78	8929.14
468.96	8692.75
469.14	8788.71
469.32	8931.48
469.50	8725.52
469.69	8875.31
469.87	9074.26
470.05	9029.79
470.23	9020.42
470.41	9238.09
470.59	9179.58
470.77	9226.39
470.95	9383.21
471.14	9249.80
471.32	9170.22
471.50	9453.42
471.68	9523.64
471.86	9572.79
472.04	9619.60
472.22	9628.96
472.40	9502.58
472.58	9591.52
472.77	9767.06
472.95	9731.95
473.13	9856.00
473.31	9692.16
473.49	9713.22
473.67	9514.28
473.85	9778.76
474.03	10029.20
474.21	9989.41
474.39	10122.82
474.57	10232.82
474.75	10232.82
474.93	10293.68
475.12	10340.49
475.30	10366.23
475.48	10391.98
475.66	10448.15
475.84	10431.77
476.02	10513.69
476.20	10609.65
476.38	10668.16
476.56	11131.59
476.74	10843.70
476.92	11040.31
477.10	10855.40
477.28	11367.98
477.46	11131.59
477.64	11300.11
477.82	11269.68
478.00	11618.42
478.18	11721.40
478.36	11669.91
478.54	11534.16
478.72	11688.64
478.90	11927.37
479.08	11918.01
479.26	12191.85
479.44	12018.65
479.62	12255.04
479.80	12346.33
479.98	12348.67
480.16	12482.08
480.34	12453.99
480.52	12723.15
480.70	12894.01
480.88	12659.96
481.06	12776.98
481.24	12924.44
481.41	13177.22
481.59	13422.97
481.77	13357.44
481.95	13408.93
482.13	13469.78
482.31	13146.79
482.49	13699.16
482.67	13713.20
482.85	14085.34
483.03	14223.44
483.21	14218.75
483.39	14284.29
483.57	14230.46
483.74	14136.84
483.92	14293.65
484.10	14293.65
484.28	14642.39
484.46	15105.82
484.64	15279.02
484.82	14733.67
485.00	14834.32
485.18	14925.60
485.35	15541.16
485.53	15204.12
485.71	14949.00
485.89	15379.66
486.07	15447.54
486.25	15740.10
486.43	15688.61
486.61	15695.63
486.78	15957.77
486.96	16341.62
487.14	16458.65
487.32	16519.50
487.50	16849.52
487.68	16800.37
487.85	17282.52
488.03	17055.48
488.21	17394.86
488.39	17256.77
488.57	17465.08
488.75	17575.08
488.92	17818.50
489.10	18080.64
489.28	18008.08
489.46	18132.13
489.64	18342.78
489.81	18611.94
489.99	18778.12
490.17	18658.75
490.35	18831.95
490.53	18953.66
490.70	18679.82
490.88	19138.56
491.06	19311.76
491.24	19344.53
491.41	19590.28
491.59	19358.57
491.77	19452.19
491.95	19555.18
492.13	19765.82
492.30	19983.49
492.48	20283.08
492.66	20042.01
492.84	20320.53
493.01	20327.55
493.19	20196.48
493.37	20711.40
493.54	20893.96
493.72	21172.49
493.90	21163.12
494.08	21076.52
494.25	21757.62
494.43	21495.48
494.61	21741.24
494.79	21703.79
494.96	21717.83
495.14	21724.85
495.32	22300.62
495.49	22050.19
495.67	21947.20
495.85	22122.74
496.02	22373.18
496.20	22129.77
496.38	22445.74
496.55	22796.82
496.73	23185.35
496.91	23023.85
497.09	23264.92
497.26	23494.30
497.44	23168.96
497.62	23388.97
497.79	23875.80
497.97	23557.49
498.14	23487.28
498.32	23859.42
498.50	23997.51
498.67	24364.98
498.85	24292.42
499.03	24472.64
499.20	24390.72
499.38	24531.15
499.56	24505.41
499.73	24669.25
499.91	24816.70
500.08	25057.78
500.26	24783.93
500.44	24875.21
500.61	25025.01
500.79	24863.51
500.97	25270.76
501.14	25720.15
501.32	25195.87
501.49	25514.18
501.67	25252.04
501.84	25853.56
502.02	25722.49
502.20	26218.68
502.37	26073.57
502.55	25759.94
502.72	25827.81
502.90	26008.03
503.07	26153.15
503.25	26595.51
503.43	26185.91
503.60	26742.96
503.78	26363.79
503.95	26623.59
504.13	26675.09
504.30	27077.66
504.48	26845.94
504.65	27098.72
504.83	27054.25
505.01	27227.45
505.18	27096.38
505.36	27697.90
505.53	27386.61
505.71	28105.15
505.88	27653.43
506.06	27386.61
506.23	27934.29
506.41	27789.18
506.58	27791.52
506.76	27721.30
506.93	28290.06
507.11	28107.49
507.28	28053.66
507.46	28205.80
507.63	28503.04
507.81	28257.29
507.98	28252.61
508.16	28739.44
508.33	28481.98
508.50	28716.03
508.68	29053.07
508.85	29502.45
509.03	29205.20
509.20	29317.55
509.38	29411.17
509.55	29652.25
509.73	29221.59
509.90	29418.19
510.08	29567.99
510.25	29579.69
510.42	29420.53
510.60	29729.48
510.77	30113.33
510.95	30326.32
511.12	29968.22
511.30	30003.33
511.47	30113.33
511.64	30506.54
511.82	30433.99
511.99	30331.00
512.17	30663.36
512.34	30415.26
512.51	30590.80
512.69	31297.64
512.86	30560.37
513.04	31072.95
513.21	30930.18
513.38	31084.65
513.56	30593.14
513.73	30845.92
513.90	31370.20
514.08	31417.01
514.25	30831.88
514.43	31194.66
514.60	31545.74
514.77	31152.53
514.95	31648.72
515.12	31573.83
515.29	31749.37
515.47	31632.34
515.64	32158.96
515.81	31318.71
515.99	32039.59
516.16	32273.65
516.33	31800.86
516.51	32039.59
516.68	31882.78
516.85	31735.32
517.03	32023.21
517.20	32107.47
517.37	32751.12
517.54	32608.34
517.72	32596.64
517.89	32224.50
518.06	32184.71
518.24	32458.55
518.41	32807.29
518.58	32959.42
518.75	32821.33
518.93	33205.18
519.10	32690.26
519.27	32877.51
519.45	32989.85
519.62	33366.68
519.79	33118.58
519.96	33596.05
520.14	33352.63
520.31	33642.86
520.48	33596.05
520.65	33785.63
520.83	33687.33
521.00	34059.48
521.17	33731.80
521.34	33776.27
521.52	34288.85
521.69	34424.60
521.86	34464.39
522.03	33921.38
522.20	34600.14
522.38	34637.59
522.55	34192.89
522.72	34623.54
522.89	34773.34
523.07	34581.42
523.24	34890.37
523.41	34871.64
523.58	34857.60
523.75	35145.48
523.92	35360.81
524.10	35402.94
524.27	35522.31
524.44	35456.78
524.61	35421.67
524.78	35503.59
524.96	35543.38
525.13	35658.06
525.30	35461.46
525.47	35882.75
525.64	35833.60
525.81	35875.73
525.98	35391.24
526.16	35739.98
526.33	35859.35
526.50	35747.00
526.67	35346.77
526.84	35594.87
527.01	35552.74
527.18	36051.27
527.36	36486.61
527.53	36400.01
527.70	36507.68
527.87	36636.41
528.04	36479.59
528.21	36549.81
528.38	36453.84
528.55	37034.30
528.72	37029.62
528.89	36982.80
529.07	36781.52
529.24	36210.43
529.41	36751.09
529.58	36687.90
529.75	36917.27
529.92	37397.08
530.09	36900.89
530.26	37434.53
530.43	37193.45
530.60	37120.90
530.77	37258.99
530.94	37481.34
531.11	37123.24
531.28	37703.69
531.46	37673.26
531.63	37464.96
531.80	37570.28
531.97	37708.37
532.14	37799.65
532.31	37642.84
532.48	37867.53
532.65	37722.41
532.82	37691.99
532.99	38209.25
533.16	37406.44
533.33	37841.78
533.50	38445.64
533.67	38380.10
533.84	37684.97
534.01	37825.40
534.18	38253.72
534.35	38663.31
534.52	38178.82
534.69	38375.42
534.86	38803.74
535.03	38108.60
535.20	38546.28
535.37	38897.36
535.54	38998.01
535.71	38794.38
535.88	38939.49
536.05	38628.20
536.22	38691.40
536.38	38897.36
536.55	38649.27
536.72	39084.61
536.89	38462.02
537.06	38789.70
537.23	39643.99
537.40	39012.05
537.57	39115.03
537.74	38983.96
537.91	39377.17
538.08	39299.94
538.25	39313.98
538.42	39129.08
538.59	40116.78
538.75	39021.41
538.92	39290.57
539.09	39545.69
539.26	39466.11
539.43	39269.51
539.60	40081.67
539.77	39468.45
539.94	39489.52
540.11	39522.29
540.28	39557.39
540.44	39262.49
540.61	39805.49
540.78	39339.72
540.95	39739.96
541.12	39487.18
541.29	39892.09
541.46	39917.84
541.62	40170.61
541.79	40390.62
541.96	39679.10
542.13	39922.52
542.30	40006.78
542.47	40268.92
542.63	40271.26
542.80	40685.53
542.97	40945.33
543.14	41123.21
543.31	40790.86
543.48	40765.11
543.64	41074.06
543.81	41305.77
543.98	41364.29
544.15	40517.01
544.32	41209.81
544.48	41516.42
544.65	40828.30
544.82	41502.38
544.99	40659.79
545.16	41717.71
545.32	40891.50
545.49	41715.37
545.66	42017.30
545.83	41352.58
546.00	41546.85
546.16	41462.59
546.33	40591.91
546.50	40968.74
546.67	41558.55
546.83	40905.54
547.00	41467.27
547.17	41083.42
547.34	41624.09
547.50	41481.31
547.67	41663.88
547.84	41607.70
548.00	41860.48
548.17	42225.60
548.34	41738.77
548.51	41904.95
548.67	42284.12
548.84	42209.22
549.01	41736.43
549.18	41752.82
549.34	42007.94
549.51	42241.99
549.68	42227.95
549.84	41958.78
550.01	41935.38
550.18	42019.64
550.34	41881.55
550.51	41975.17
550.68	41860.48
550.84	41542.17
551.01	42363.70
551.18	42157.73
551.34	42267.73
551.51	42672.65
551.68	42064.11
551.84	42564.98
552.01	42232.63
552.18	42508.81
552.34	42277.10
552.51	42443.27
552.68	42162.41
552.84	42820.10
553.01	42827.12
553.18	43194.59
553.34	42443.27
553.51	42267.73
553.67	42375.40
553.84	43058.84
554.01	42471.36
554.17	43278.85
554.34	42799.04
554.51	42930.11
554.67	43407.58
554.84	43019.05
555.00	43283.53
555.17	42974.58
555.33	42927.77
555.50	42738.18
555.67	42969.90
555.83	43000.32
556.00	43566.73
556.16	43335.02
556.33	43028.41
556.50	43035.43
556.66	43510.56
556.83	43208.63
556.99	43271.82
557.16	43430.98
557.32	43569.07
557.49	43550.35
557.65	43480.13
557.82	43498.86
557.98	43629.93
558.15	43313.95
558.32	43433.32
558.48	43526.94
558.65	43285.87
558.81	43215.65
558.98	43051.81
559.14	43601.84
559.31	43700.14
559.47	43807.81
559.64	44156.55
559.80	43791.42
559.97	43555.03
560.13	43702.48
560.30	43526.94
560.46	43835.89
560.63	43756.32
560.79	43868.66
560.96	44268.89
561.12	43531.62
561.29	43805.47
561.45	43714.19
561.61	43295.23
561.78	43931.86
561.94	43496.52
562.11	43676.74
562.27	43849.94
562.44	43786.74
562.60	44266.55
562.77	44168.25
562.93	44247.83
563.10	44516.99
563.26	43648.65
563.42	43742.27
563.59	43793.76
563.75	43782.06
563.92	44060.58
564.08	43751.63
564.24	44421.03
564.41	44039.52
564.57	44051.22
564.74	44280.60
564.90	44030.16
565.07	44053.56
565.23	43906.11
565.39	44264.21
565.56	43683.76
565.72	43674.40
565.88	44254.85
566.05	44388.26
566.21	44224.42
566.38	44299.32
566.54	44013.77
566.70	44648.06
566.87	44374.22
567.03	44072.29
567.19	44776.79
567.36	44245.49
567.52	44135.48
567.68	44744.02
567.85	44140.16
568.01	43824.19
568.17	43763.34
568.34	44273.57
568.50	43866.32
568.66	44025.48
568.83	44467.84
568.99	44229.10
569.15	43859.30
569.32	44149.53
569.48	44254.85
569.64	44832.96
569.81	44832.96
569.97	44456.14
570.13	44566.14
570.30	44196.34
570.46	43948.24
570.62	44179.95
570.78	44486.56
570.95	44259.53
571.11	44198.68
571.27	44460.82
571.43	43945.90
571.60	44376.56
571.76	44467.84
571.92	44371.88
572.09	43999.73
572.25	44264.21
572.41	44409.32
572.57	44322.72
572.74	44762.75
572.90	44327.41
573.06	44734.66
573.22	44706.57
573.38	44477.20
573.55	44292.30
573.71	44847.00
573.87	44659.76
574.03	44378.90
574.20	44854.03
574.36	44467.84
574.52	44612.95
574.68	44308.68
574.84	44477.20
575.01	44177.61
575.17	44942.97
575.33	44643.38
575.49	44535.71
575.65	44779.13
575.82	44346.13
575.98	44643.38
576.14	44467.84
576.30	45069.36
576.46	44980.42
576.62	44423.37
576.79	44790.83
576.95	44311.02
577.11	44142.50
577.27	44697.21
577.43	44626.99
577.59	44680.83
577.75	44844.66
577.92	44046.54
578.08	44542.74
578.24	44339.11
578.40	44556.78
578.56	44641.04
578.72	44364.85
578.88	44655.08
579.04	44781.47
579.21	44643.38
579.37	45036.59
579.53	44708.91
579.69	44762.75
579.85	44741.68
580.01	44971.05
580.17	44814.24
580.33	44926.58
580.49	45043.61
580.65	44914.88
580.82	44694.87
580.98	44498.26
581.14	44547.42
581.30	44910.20
581.46	44772.11
581.62	45076.38
581.78	44608.27
581.94	45134.89
582.10	44786.15
582.26	44526.35
582.42	44612.95
582.58	44776.79
582.74	45038.93
582.90	44734.66
583.06	44779.13
583.22	45146.59
583.38	44832.96
583.54	44921.90
583.70	44942.97
583.86	44720.62
584.02	44673.81
584.18	44779.13
584.34	44463.16
584.50	44781.47
584.66	44734.66
584.82	44746.36
584.98	44687.85
585.14	45202.77
585.30	44814.24
585.46	44949.99
585.62	44507.63
585.78	44842.32
585.94	44280.60
586.10	44563.80
586.26	44273.57
586.42	44903.18
586.58	45193.40
586.74	44835.30
586.90	44725.30
587.06	44325.07
587.22	45031.91
587.38	44655.08
587.54	44669.12
587.70	45188.72
587.86	44949.99
588.02	45017.86
588.18	44772.11
588.34	44648.06
588.49	44425.71
588.65	43917.81
588.81	44519.33
588.97	44362.51
589.13	44641.04
589.29	44563.80
589.45	44643.38
589.61	44999.14
589.77	44800.19
589.93	44928.92
590.08	44900.84
590.24	44914.88
590.40	45408.73
590.56	45298.73
590.72	44849.35
590.88	44788.49
591.04	45081.06
591.20	45532.78
591.35	45125.53
591.51	45127.87
591.67	45167.66
591.83	45074.04
591.99	44994.46
592.15	45305.75
592.31	45057.65
592.46	44940.63
592.62	45228.51
592.78	45357.24
592.94	44912.54
593.10	44797.85
593.26	45038.93
593.41	45116.17
593.57	45172.34
593.73	45284.68
593.89	45359.58
594.05	45406.39
594.20	45336.18
594.36	45598.32
594.52	45097.44
594.68	45352.56
594.84	44917.22
594.99	45455.54
595.15	44814.24
595.31	44931.26
595.47	45130.21
595.62	45436.82
595.78	45029.57
595.94	45104.46
596.10	45258.94
596.25	45530.44
596.41	45352.56
596.57	45069.36
596.73	45233.19
596.88	45041.27
597.04	45174.68
597.20	45254.26
597.36	45001.48
597.51	45429.80
597.67	45160.64
597.83	45151.27
597.99	45752.79
598.14	45078.72
598.30	45317.45
598.46	45244.90
598.61	44882.11
598.77	44795.51
598.93	44830.62
599.09	45095.10
599.24	45752.79
599.40	45638.11
599.56	45076.38
599.71	45031.91
599.87	45090.42
600.03	45315.11
600.18	45048.29
600.34	45263.62
600.50	44942.97
600.65	44954.67
600.81	45542.14
600.97	45715.34
601.12	45411.07
601.28	45272.98
601.44	45062.33
601.59	45497.67
601.75	44884.45
601.91	45216.81
602.06	44907.86
602.22	44830.62
602.37	45272.98
602.53	45406.39
602.69	45350.22
602.84	45434.48
603.00	44842.32
603.16	45088.08
603.31	45366.60
603.47	44830.62
603.62	45029.57
603.78	45453.20
603.94	45099.78
604.09	45116.17
604.25	45174.68
604.40	44842.32
604.56	45254.26
604.71	45062.33
604.87	44882.11
605.03	45228.51
605.18	44753.38
605.34	45240.21
605.49	44807.22
605.65	45034.25
605.80	44987.44
605.96	44830.62
606.12	44926.58
606.27	45350.22
606.43	44741.68
606.58	45256.60
606.74	44772.11
606.89	44926.58
607.05	45027.23
607.20	45022.54
607.36	45134.89
607.51	45120.85
607.67	44858.71
607.82	44816.58
607.98	45132.55
608.13	44451.45
608.29	44657.42
608.44	44432.73
608.60	44294.64
608.75	44811.90
608.91	44701.89
609.06	44818.92
609.22	44790.83
609.37	44453.79
609.53	44458.48
609.68	44481.88
609.84	44186.97
609.99	44926.58
610.15	44648.06
610.30	44498.26
610.46	44364.85
610.61	44439.75
610.76	44896.16
610.92	44615.29
611.07	44821.26
611.23	45113.83
611.38	44737.00
611.54	44502.95
611.69	44830.62
611.84	44641.04
612.00	44514.65
612.15	44636.36
612.31	44708.91
612.46	44254.85
612.62	44507.63
612.77	44350.81
612.92	44781.47
613.08	44275.91
613.23	44446.77
613.39	44100.37
613.54	44065.27
613.69	44266.55
613.85	44360.17
614.00	44418.69
614.15	44978.07
614.31	44055.90
614.46	44147.18
614.62	44460.82
614.77	43908.45
614.92	44706.57
615.08	44381.24
615.23	44130.80
615.38	43983.35
615.54	43658.01
615.69	43473.11
615.84	43924.83
616.00	43983.35
616.15	44055.90
616.30	43983.35
616.46	43730.57
616.61	43688.44
616.76	43805.47
616.92	43210.97
617.07	43538.65
617.22	43255.44
617.37	43636.95
617.53	43559.71
617.68	44130.80
617.83	43723.55
617.99	43978.67
618.14	44229.10
618.29	44025.48
618.45	43339.70
618.60	43260.12
618.75	43548.01
618.90	43569.07
619.06	43335.02
619.21	43704.82
619.36	43966.96
619.51	43538.65
619.67	43367.79
619.82	43498.86
619.97	43480.13
620.12	43351.40
620.28	43309.27
620.43	43210.97
620.58	42810.74
620.73	43309.27
620.89	43140.75
621.04	43339.70
621.19	42848.19
621.34	43110.33
621.49	43351.40
621.65	42604.77
621.80	43159.48
621.95	42569.66
622.10	42564.98
622.25	42232.63
622.41	43119.69
622.56	42492.43
622.71	43419.28
622.86	42923.08
623.01	42997.98
623.16	43014.37
623.32	42782.65
623.47	42887.98
623.62	42754.57
623.77	42628.18
623.92	42604.77
624.07	42965.21
624.23	42443.27
624.38	42586.05
624.53	42000.91
624.68	42518.17
624.83	42539.24
624.98	42431.57
625.13	42199.86
625.29	42382.42
625.44	42426.89
625.59	42188.16
625.74	41883.89
625.89	41860.48
626.04	41855.80
626.19	42092.19
626.34	42497.11
626.49	42361.36
626.65	42361.36
626.80	42609.45
626.95	42045.38
627.10	42117.94
627.25	42117.94
627.40	41993.89
627.55	41698.98
627.70	41834.74
627.85	41790.27
628.00	41397.06
628.15	41930.70
628.30	41675.58
628.45	42253.69
628.60	41797.29
628.76	41785.58
628.91	41897.93
629.06	42164.75
629.21	41682.60
629.36	41596.00
629.51	41450.89
629.66	41460.25
629.81	41139.60
629.96	41549.19
630.11	42064.11
630.26	41757.50
630.41	41617.07
630.56	41764.52
630.71	41848.78
630.86	41163.00
631.01	41088.10
631.16	41535.15
631.31	41099.81
631.46	41010.87
631.61	41656.85
631.76	41514.08
631.91	41226.20
632.06	41659.20
632.21	41544.51
632.36	41158.32
632.51	41235.56
632.66	41228.54
632.81	40713.62
632.96	40994.48
633.10	40938.31
633.25	41116.19
633.40	41205.13
633.55	41167.68
633.70	41167.68
633.85	40720.64
634.00	41048.32
634.15	40680.85
634.30	40755.75
634.45	40889.16
634.60	40950.01
634.75	40732.34
634.90	40964.06
635.05	40673.83
635.19	40467.86
635.34	40835.33
635.49	40287.64
635.64	40910.22
635.79	40596.59
635.94	40620.00
636.09	40627.02
636.24	40172.96
636.39	40350.84
636.53	40114.44
636.68	40325.09
636.83	40453.82
636.98	40165.93
637.13	40086.36
637.28	40495.95
637.43	40423.39
637.57	40355.52
637.72	40465.52
637.87	40460.84
638.02	40095.72
638.17	40201.04
638.32	40364.88
638.46	40079.33
638.61	40170.61
638.76	39798.47
638.91	40273.60
639.06	40247.85
639.20	39587.82
639.35	40301.68
639.50	40020.82
639.65	40224.45
639.80	40474.88
639.94	39962.31
640.09	39812.51
640.24	39922.52
640.39	39606.55
640.54	39646.33
640.68	39826.56
640.83	39789.11
640.98	39812.51
641.13	39290.57
641.27	39751.66
641.42	39536.33
641.57	39239.08
641.72	39704.85
641.86	39084.61
642.01	39236.74
642.16	39157.16
642.31	39105.67
642.45	39541.01
642.60	39185.25
642.75	39302.28
642.90	39618.25
643.04	39374.83
643.19	39349.09
643.34	38981.62
643.48	39000.35
643.63	38888.00
643.78	38869.28
643.93	38841.19
644.07	38684.37
644.22	39330.36
644.37	38761.61
644.51	38696.08
644.66	39215.68
644.81	39159.50
644.95	39009.71
645.10	38834.17
645.25	39093.97
645.39	38780.34
645.54	38773.31
645.69	38923.11
645.83	38604.80
645.98	38885.66
646.13	38815.44
646.27	38890.34
646.42	39140.78
646.57	38778.00
646.71	38464.36
646.86	38873.96
647.00	38775.66
647.15	38895.02
647.30	38628.20
647.44	38499.47
647.59	38302.87
647.74	38377.76
647.88	38462.02
648.03	38756.93
648.17	38387.13
648.32	38197.54
648.47	38611.82
648.61	38384.79
648.76	38251.38
648.90	38520.54
649.05	38246.69
649.20	38731.18
649.34	38284.14
649.49	38043.07
649.63	38089.88
649.78	37790.29
649.92	37965.83
650.07	38007.96
650.21	38148.39
650.36	38115.62
650.51	38253.72
650.65	38410.53
650.80	38347.34
650.94	38590.75
651.09	38375.42
651.23	37617.09
651.38	37965.83
651.52	38227.97
651.67	37825.40
651.81	37703.69
651.96	37439.21
652.10	37539.85
652.25	37193.45
652.39	37982.21
652.54	37607.73
652.68	37961.15
652.83	38185.84
652.97	37816.04
653.12	37816.04
653.26	37462.61
653.41	37532.83
653.55	37488.36
653.70	37179.41
653.84	38000.94
653.99	37689.65
654.13	37446.23
654.27	37282.39
654.42	37275.37
654.56	36720.66
654.71	37387.72
654.85	37804.33
655.00	37163.03
655.14	37006.21
655.29	36926.63
655.43	37027.28
655.57	37294.10
655.72	36875.14
655.86	36463.21
656.01	37022.59
656.15	36584.91
656.30	36971.10
656.44	36943.02
656.58	36369.58
656.73	36856.42
656.87	36828.33
657.01	36781.52
657.16	36907.91
657.30	36935.99
657.45	36360.22
657.59	36409.37
657.73	36713.64
657.88	37001.53
658.02	36893.86
658.16	37141.96
658.31	36804.92
658.45	36549.81
658.60	36266.60
658.74	36343.84
658.88	36659.81
659.03	36268.94
659.17	36385.97
659.31	35995.10
659.46	35920.20
659.60	36329.80
659.74	36648.11
659.89	35849.99
660.03	35894.46
660.17	36519.38
660.32	36018.50
660.46	36175.32
660.60	35971.69
660.74	36355.54
660.89	36170.64
661.03	35875.73
661.17	35819.56
661.32	35126.76
661.46	35847.64
661.60	35442.73
661.74	35819.56
661.89	35519.97
662.03	35477.84
662.17	35276.55
662.31	35475.50
662.46	35477.84
662.60	35620.61
662.74	35281.24
662.88	35070.59
663.03	34927.81
663.17	35105.70
663.31	34841.21
663.45	34869.30
663.60	34995.69
663.74	34305.23
663.88	35103.35
664.02	34663.33
664.17	34862.28
664.31	34731.21
664.45	34953.56
664.59	34583.76
664.73	34445.66
664.88	34911.43
665.02	34380.13
665.16	34558.01
665.30	34457.37
665.44	34031.39
665.59	34164.80
665.73	34216.29
665.87	34237.36
666.01	34417.58
666.15	33963.51
666.29	34033.73
666.44	34251.40
666.58	33710.74
666.72	34066.50
666.86	34457.37
667.00	33984.58
667.14	33738.82
667.28	33642.86
667.43	33565.62
667.57	33989.26
667.71	33249.65
667.85	33572.64
667.99	33125.60
668.13	32985.17
668.27	33432.21
668.41	33228.59
668.56	33099.86
668.70	33778.61
668.84	33181.77
668.98	33039.00
669.12	32694.94
669.26	33214.54
669.40	32730.05
669.54	33062.41
669.68	32467.91
669.82	32961.76
669.96	32648.13
670.10	32505.36
670.25	32952.40
670.39	32233.86
670.53	32521.74
670.67	32552.17
670.81	32613.02
670.95	32334.50
671.09	32299.39
671.23	32051.30
671.37	32243.22
671.51	32512.38
671.65	31861.71
671.79	31690.85
671.93	31761.07
672.07	31927.25
672.21	31826.60
672.35	31632.34
672.49	32018.53
672.63	31957.67
672.77	31653.40
672.91	31580.85
673.05	31419.35
673.19	31330.41
673.33	31409.99
673.47	31091.68
673.61	31220.41
673.75	31122.10
673.89	31023.80
674.03	30651.66
674.17	31030.82
674.31	30859.96
674.45	30646.97
674.59	30761.66
674.73	31035.50
674.87	30239.72
675.01	30375.47
675.15	30623.57
675.29	30309.94
675.43	30249.08
675.56	30508.88
675.70	30160.14
675.84	30038.44
675.98	29404.15
676.12	30150.78
676.26	30052.48
676.40	29687.36
676.54	29919.07
676.68	29954.18
676.82	29457.98
676.96	29717.78
677.10	29448.62
677.23	29237.97
677.37	29549.26
677.51	29465.00
677.65	29177.12
677.79	29039.03
677.93	29390.11
678.07	28706.67
678.21	28666.88
678.34	28479.64
678.48	28512.41
678.62	28390.70
678.76	27962.38
678.90	28238.56
679.04	27873.44
679.18	28070.04
679.31	27672.15
679.45	27585.55
679.59	27288.31
679.73	27384.27
679.87	27166.60
680.00	27414.69
680.14	27068.30
680.28	27592.58
680.42	27363.20
680.56	27370.22
680.70	27353.84
680.83	27414.69
680.97	27110.43
681.11	27112.77
681.25	26647.00
681.39	26604.87
681.52	26665.72
681.66	26649.34
681.80	26441.03
681.94	26398.90
682.07	26363.79
682.21	26602.53
682.35	26122.72
682.49	25982.29
682.62	26061.87
682.76	25855.90
682.90	25720.15
683.04	25888.67
683.17	25317.57
683.31	25392.47
683.45	25390.13
683.59	25371.41
683.72	25338.64
683.86	25160.76
684.00	25261.40
684.13	25511.84
684.27	24826.06
684.41	24910.32
684.55	24861.17
684.68	24807.34
684.82	24533.50
684.96	24762.87
685.09	24788.61
685.23	24603.71
685.37	24238.59
685.50	24451.58
685.64	24170.71
685.78	23896.87
685.91	23978.79
686.05	23784.52
686.19	23800.91
686.32	23379.61
686.46	23300.03
686.60	23129.17
686.73	23468.55
686.87	23264.92
687.01	23040.23
687.14	23096.41
687.28	22705.54
687.42	22878.74
687.55	23000.44
687.69	22892.78
687.82	22721.92
687.96	22537.02
688.10	22632.98
688.23	22539.36
688.37	22265.52
688.50	22277.22
688.64	22075.93
688.78	22050.19
688.91	22417.65
689.05	22209.34
689.18	22352.12
689.32	21593.78
689.46	21961.25
689.59	21752.94
689.73	21701.45
689.86	21797.41
690.00	21699.11
690.13	21357.39
690.27	21628.89
690.41	21488.46
690.54	21064.82
690.68	21135.04
690.81	20922.05
690.95	20826.09
691.08	20786.30
691.22	20788.64
691.35	20718.42
691.49	20849.49
691.62	20795.66
691.76	20758.21
691.89	20545.22
692.03	20264.36
692.16	20510.11
692.30	20236.27
692.43	20086.48
692.57	20276.06
692.70	20013.92
692.84	20077.12
692.97	19651.14
693.11	19594.96
693.24	19475.60
693.38	19468.58
693.51	19480.28
693.65	19225.16
693.78	19278.99
693.92	19236.86
694.05	19386.66
694.19	19136.22
694.32	18932.59
694.45	18759.39
694.59	18726.63
694.72	18462.15
694.86	18958.34
694.99	18487.89
695.13	18443.42
695.26	18590.88
695.39	18415.34
695.53	18527.68
695.66	18574.49
695.80	18040.85
695.93	18181.28
696.07	18202.35
696.20	18169.58
696.33	18099.36
696.47	17823.18
696.60	17642.96
696.73	17764.67
696.87	17731.90
697.00	17488.48
697.14	17411.25
697.27	17343.37
697.40	17624.23
697.54	17268.47
697.67	17172.51
697.80	17191.23
697.94	17083.57
698.07	16835.47
698.21	16608.44
698.34	16943.14
698.47	17207.62
698.61	16549.93
698.74	16390.77
698.87	16545.25
699.01	16229.27
699.14	16215.23
699.27	16133.31
699.40	16301.83
699.54	16460.99
699.67	15782.23
699.80	15859.47
699.94	15672.23
700.07	15822.02
700.20	15754.15
700.34	15447.54
700.47	15653.50
700.60	15735.42
700.73	15852.45
700.87	15714.36
701.00	15438.17
701.13	15648.82
701.26	15370.30
701.40	15225.18
701.53	15211.14
701.66	14934.96
701.79	14916.23
701.93	14834.32
702.06	14913.89
702.19	14965.39
702.32	15000.49
702.46	14485.58
702.59	14590.90
702.72	14831.97
702.85	14532.39
702.99	14602.60
703.12	14569.83
703.25	14246.84
703.38	14246.84
703.51	13895.76
703.65	14141.52
703.78	14115.77
703.91	14104.07
704.04	14132.15
704.17	13937.89
704.31	14073.64
704.44	13706.18
704.57	13654.69
704.70	13834.91
704.83	13767.03
704.96	13642.98
705.10	13502.55
705.23	13511.91
>>>>>End Processed Spectral Data<<<<<
