SpectraSuite Data File
++++++++++++++++++++++++++++++++++++
Date: Fri Oct 25 10:48:25 EDT 2013
User: price-jones
Dark Spectrum Present: No
Reference Spectrum Present: No
Number of Sampled Component Spectra: 1
Spectrometers: USB2+H05261
Integration Time (usec): 100000 (USB2+H05261)
Spectra Averaged: 1 (USB2+H05261)
Boxcar Smoothing: 0 (USB2+H05261)
Correct for Electrical Dark: No (USB2+H05261)
Strobe/Lamp Enabled: No (USB2+H05261)
Correct for Detector Non-linearity: No (USB2+H05261)
Correct for Stray Light: No (USB2+H05261)
Number of Pixels in Processed Spectrum: 2048
>>>>>Begin Processed Spectral Data<<<<<
365.73	133.41
365.92	133.41
366.12	133.41
366.32	65.54
366.52	42.13
366.72	70.22
366.91	0.00
367.11	35.11
367.31	0.00
367.51	9.36
367.70	16.38
367.90	102.98
368.10	60.85
368.30	4.68
368.49	56.17
368.69	30.43
368.89	42.13
369.09	46.81
369.28	93.62
369.48	0.00
369.68	124.05
369.87	145.11
370.07	117.03
370.27	105.32
370.47	220.01
370.66	339.38
370.86	472.79
371.06	465.77
371.25	465.77
371.45	454.06
371.65	428.32
371.84	414.27
372.04	491.51
372.24	477.47
372.44	540.66
372.63	517.26
372.83	573.43
373.03	538.32
373.22	491.51
373.42	554.71
373.62	505.56
373.81	538.32
374.01	585.13
374.21	535.98
374.40	564.07
374.60	627.26
374.79	592.16
374.99	603.86
375.19	573.43
375.38	629.60
375.58	592.16
375.78	564.07
375.97	580.45
376.17	730.25
376.37	566.41
376.56	587.47
376.76	554.71
376.95	662.37
377.15	664.71
377.35	587.47
377.54	617.90
377.74	585.13
377.93	664.71
378.13	641.31
378.33	671.73
378.52	690.46
378.72	629.60
378.91	744.29
379.11	662.37
379.31	690.46
379.50	627.26
379.70	653.01
379.89	774.72
380.09	697.48
380.28	746.63
380.48	704.50
380.68	676.41
380.87	617.90
381.07	643.65
381.26	814.51
381.46	669.39
381.65	734.93
381.85	760.67
382.04	730.25
382.24	723.23
382.43	697.48
382.63	723.23
382.83	748.97
383.02	704.50
383.22	800.46
383.41	711.52
383.61	748.97
383.80	802.80
384.00	812.17
384.19	774.72
384.39	856.64
384.58	814.51
384.78	795.78
384.97	751.31
385.17	840.25
385.36	791.10
385.56	753.65
385.75	645.99
385.95	798.12
386.14	812.17
386.34	828.55
386.53	786.42
386.72	800.46
386.92	887.06
387.11	835.57
387.31	830.89
387.50	924.51
387.70	772.38
387.89	866.00
388.09	903.45
388.28	870.68
388.48	954.94
388.67	954.94
388.86	985.37
389.06	940.90
389.25	1004.09
389.45	945.58
389.64	1011.11
389.84	966.64
390.03	978.34
390.22	980.68
390.42	940.90
390.61	957.28
390.81	1060.26
391.00	1048.56
391.19	1107.07
391.39	1020.47
391.58	931.53
391.78	1001.75
391.97	1048.56
392.16	990.05
392.36	1071.97
392.55	1015.79
392.75	924.51
392.94	954.94
393.13	990.05
393.33	931.53
393.52	1008.77
393.71	1125.80
393.91	1111.75
394.10	1128.14
394.29	1149.20
394.49	1165.59
394.68	1125.80
394.88	1226.44
395.07	1205.38
395.26	1240.48
395.46	1172.61
395.65	1196.01
395.84	1165.59
396.04	1210.06
396.23	1210.06
396.42	1135.16
396.62	1214.74
396.81	1270.91
397.00	1219.42
397.19	1259.21
397.39	1299.00
397.58	1343.47
397.77	1416.02
397.97	1371.55
398.16	1357.51
398.35	1348.15
398.55	1364.53
398.74	1427.73
398.93	1514.33
399.12	1444.11
399.32	1462.83
399.51	1359.85
399.70	1549.43
399.90	1516.67
400.09	1516.67
400.28	1549.43
400.47	1467.52
400.67	1514.33
400.86	1593.90
401.05	1605.61
401.24	1577.52
401.44	1624.33
401.63	1565.82
401.82	1706.25
402.01	1575.18
402.21	1629.01
402.40	1694.55
402.59	1678.16
402.78	1685.19
402.97	1743.70
403.17	1748.38
403.36	1760.08
403.55	1673.48
403.74	1764.76
403.93	1790.51
404.13	1760.08
404.32	1849.02
404.51	1694.55
404.70	1863.07
404.89	1811.57
405.09	1942.64
405.28	1895.83
405.47	1926.26
405.66	1811.57
405.85	1837.32
406.05	1886.47
406.24	2005.84
406.43	1968.39
406.62	2001.16
406.81	2054.99
407.00	1966.05
407.20	1905.20
407.39	1949.67
407.58	2120.53
407.77	2036.27
407.96	2087.76
408.15	2207.13
408.34	2104.14
408.54	2179.04
408.73	2167.34
408.92	2225.85
409.11	2076.06
409.30	2225.85
409.49	2186.06
409.68	2193.08
409.87	2244.57
410.07	2225.85
410.26	2207.13
410.45	2307.77
410.64	2260.96
410.83	2396.71
411.02	2424.80
411.21	2558.21
411.40	2347.56
411.59	2438.84
411.78	2490.33
411.98	2513.74
412.17	2525.44
412.36	2448.20
412.55	2506.71
412.74	2651.83
412.93	2787.58
413.12	2583.95
413.31	2635.44
413.50	2569.91
413.69	2719.70
413.88	2691.62
414.07	2754.81
414.26	2902.26
414.45	2806.30
414.64	2862.48
414.83	2923.33
415.02	2956.10
415.22	3028.65
415.41	3047.38
415.60	2963.12
415.79	3084.83
415.98	3035.67
416.17	3082.49
416.36	3052.06
416.55	3089.51
416.74	3143.34
416.93	3239.30
417.12	3080.14
417.31	3171.43
417.50	3208.87
417.69	3363.35
417.88	3389.10
418.07	3363.35
418.26	3346.97
418.45	3382.07
418.64	3559.95
418.83	3393.78
419.02	3382.07
419.21	3456.97
419.39	3433.57
419.58	3300.16
419.77	3454.63
419.96	3566.98
420.15	3576.34
420.34	3543.57
420.53	3646.55
420.72	3726.13
420.91	3611.45
421.10	3782.31
421.29	3756.56
421.48	3545.91
421.67	3632.51
421.86	3637.19
422.05	3590.38
422.24	3555.27
422.43	3574.00
422.61	3756.56
422.80	3815.07
422.99	3632.51
423.18	3637.19
423.37	3927.42
423.56	3735.50
423.75	3838.48
423.94	3871.25
424.13	3667.62
424.32	3763.58
424.50	3815.07
424.69	3983.59
424.88	3927.42
425.07	3789.33
425.26	3779.97
425.45	3777.62
425.64	3777.62
425.83	3805.71
426.01	3936.78
426.20	3653.58
426.39	3955.51
426.58	3889.97
426.77	3730.81
426.96	3866.56
427.15	3831.46
427.33	3854.86
427.52	3960.19
427.71	4044.45
427.90	3920.40
428.09	3976.57
428.28	4196.58
428.46	3974.23
428.65	3936.78
428.84	4117.00
429.03	4299.56
429.22	3976.57
429.40	3866.56
429.59	4135.73
429.78	3871.25
429.97	3623.15
430.16	3985.93
430.34	3885.29
430.53	4117.00
430.72	4102.96
430.91	4025.72
431.10	4198.92
431.28	4489.15
431.47	4388.50
431.66	4451.70
431.85	4428.29
432.03	4454.04
432.22	4585.11
432.41	4348.72
432.60	4491.49
432.79	4545.32
432.97	4662.35
433.16	4617.88
433.35	4397.87
433.54	4685.75
433.72	4615.54
433.91	4510.21
434.10	4573.41
434.28	4692.77
434.47	4760.65
434.66	4767.67
434.85	4702.14
435.03	4699.80
435.22	4748.95
435.41	4891.72
435.59	4926.83
435.78	4910.44
435.97	4896.40
436.16	4931.51
436.34	4889.38
436.53	4954.91
436.72	5032.15
436.90	4837.89
437.09	4987.68
437.28	4873.00
437.46	4833.21
437.65	4947.89
437.84	5067.26
438.02	5018.11
438.21	4924.49
438.40	5046.20
438.58	5165.56
438.77	5366.85
438.96	5198.33
439.14	5416.00
439.33	5453.45
439.52	5430.04
439.70	5481.53
439.89	5460.47
440.08	5476.85
440.26	5575.16
440.45	5540.05
440.63	5748.36
440.82	5685.16
441.01	5668.78
441.19	5769.42
441.38	5937.94
441.57	5928.58
441.75	5980.07
441.94	5998.79
442.12	6047.94
442.31	6092.41
442.50	6132.20
442.68	6157.95
442.87	6122.84
443.05	6127.52
443.24	6321.79
443.43	6052.63
443.61	6169.65
443.80	6417.75
443.98	6214.12
444.17	6146.25
444.35	6176.67
444.54	6457.54
444.73	6427.11
444.91	6132.20
445.10	6141.57
445.28	6230.51
445.47	6083.05
445.65	6164.97
445.84	6200.08
446.02	6377.96
446.21	6183.70
446.39	6335.83
446.58	6490.31
446.77	6286.68
446.95	6457.54
447.14	6473.92
447.32	6410.73
447.51	6361.58
447.69	6368.60
447.88	6588.61
448.06	6473.92
448.25	6466.90
448.43	6494.99
448.62	6429.45
448.80	6532.44
448.99	6516.05
449.17	6506.69
449.36	6492.65
449.54	6623.72
449.73	6724.36
449.91	7026.29
450.10	6951.39
450.28	7019.27
450.46	6974.80
450.65	7033.31
450.83	6869.47
451.02	6918.62
451.20	7016.93
451.39	6918.62
451.57	6843.73
451.76	7007.56
451.94	7045.01
452.13	6932.67
452.31	6850.75
452.49	6792.23
452.68	7056.72
452.86	6841.39
453.05	6986.50
453.23	7124.59
453.42	6946.71
453.60	7070.76
453.78	7335.24
453.97	7059.06
454.15	7089.48
454.34	6972.46
454.52	7253.32
454.70	7344.60
454.89	7295.45
455.07	7318.86
455.26	7307.15
455.44	7356.30
455.62	7557.59
455.81	7562.27
455.99	7571.63
456.17	7578.65
456.36	7365.67
456.54	7588.02
456.73	7742.49
456.91	7946.12
457.09	7712.07
457.28	7878.24
457.46	7714.41
457.64	7782.28
457.83	7695.68
458.01	7793.98
458.19	7915.69
458.38	7705.04
458.56	7967.18
458.74	7976.55
458.93	8131.02
459.11	7922.71
459.29	7988.25
459.48	8304.22
459.66	7995.27
459.84	8159.11
460.03	8166.13
460.21	8294.86
460.39	8318.26
460.57	8152.09
460.76	8425.93
460.94	8402.52
461.12	8315.92
461.31	8374.44
461.49	8381.46
461.67	8278.47
461.85	8449.33
462.04	8461.04
462.22	8922.12
462.40	8746.58
462.59	8339.33
462.77	8547.64
462.95	8589.77
463.13	8667.00
463.32	8629.56
463.50	8601.47
463.68	8741.90
463.86	8762.97
464.05	8861.27
464.23	8678.71
464.41	8697.43
464.59	8678.71
464.78	8919.78
464.96	8830.84
465.14	8936.17
465.32	8865.95
465.50	8851.91
465.69	8863.61
465.87	9036.81
466.05	8912.76
466.23	8718.50
466.41	9081.28
466.60	9111.71
466.78	9071.92
466.96	8821.48
467.14	9081.28
467.32	9015.74
467.51	8999.36
467.69	8882.33
467.87	9032.13
468.05	9441.72
468.23	9238.09
468.41	9130.43
468.60	9233.41
468.78	9357.46
468.96	9291.93
469.14	9373.85
469.32	9413.63
469.50	9439.38
469.69	9467.47
469.87	9481.51
470.05	9715.56
470.23	9582.15
470.41	9423.00
470.59	9617.26
470.77	9533.00
470.95	9607.90
471.14	9760.03
471.32	9317.67
471.50	9907.49
471.68	9881.74
471.86	9851.31
472.04	10080.69
472.22	10314.74
472.40	9937.91
472.58	10186.01
472.77	9980.04
472.95	10193.03
473.13	10558.16
473.31	10377.94
473.49	10064.30
473.67	10249.21
473.85	10422.41
474.03	10663.48
474.21	10574.54
474.39	10469.22
474.57	10544.11
474.75	10773.49
474.93	10874.13
475.12	10679.86
475.30	10778.17
475.48	10885.83
475.66	11061.37
475.84	10965.41
476.02	11173.72
476.20	11023.92
476.38	11360.96
476.56	11414.79
476.74	11524.80
476.92	11489.69
477.10	11454.58
477.28	11545.86
477.46	11487.35
477.64	11744.81
477.82	12074.82
478.00	12016.31
478.18	11896.94
478.36	12238.66
478.54	12297.17
478.72	12458.67
478.90	12329.94
479.08	12484.42
479.26	12627.19
479.44	12692.73
479.62	12793.37
479.80	12961.89
479.98	12901.03
480.16	13130.41
480.34	13085.94
480.52	13633.62
480.70	13268.50
480.88	13362.12
481.06	13420.63
481.24	13537.66
481.41	13881.72
481.59	13947.25
481.77	14045.55
481.95	14010.45
482.13	14274.93
482.31	14197.69
482.49	14242.16
482.67	14270.25
482.85	14754.74
483.03	14752.40
483.21	14726.65
483.39	15063.69
483.57	14885.81
483.74	15346.89
483.92	15112.84
484.10	15234.55
484.28	15442.85
484.46	15508.39
484.64	15690.95
484.82	15557.54
485.00	15686.27
485.18	15875.85
485.35	16334.60
485.53	15639.46
485.71	15669.89
485.89	16112.25
486.07	16276.09
486.25	16463.33
486.43	16365.03
486.61	16681.00
486.78	16683.34
486.96	17273.15
487.14	17369.12
487.32	17256.77
487.50	17303.58
487.68	17640.62
487.85	17965.95
488.03	18036.17
488.21	18249.16
488.39	18043.19
488.57	18295.97
488.75	18071.28
488.92	18462.15
489.10	18820.25
489.28	19026.21
489.46	19218.14
489.64	18960.68
489.81	19721.35
489.99	19571.56
490.17	19833.70
490.35	19810.29
490.53	20009.24
490.70	20107.54
490.88	19744.76
491.06	20283.08
491.24	19995.20
491.41	20065.41
491.59	20109.88
491.77	20311.17
491.95	20505.43
492.13	20938.43
492.30	21132.70
492.48	21085.89
492.66	21273.13
492.84	21174.83
493.01	21390.16
493.19	21785.71
493.37	21778.68
493.54	21930.82
493.72	22082.95
493.90	22185.94
494.08	22235.09
494.25	22792.14
494.43	22597.87
494.61	22848.31
494.79	22855.33
494.96	22817.88
495.14	22817.88
495.32	22906.82
495.49	23159.60
495.67	23218.11
495.85	23700.26
496.02	23569.19
496.20	23414.72
496.38	23761.12
496.55	23896.87
496.73	24716.06
496.91	24243.27
497.09	24112.20
497.26	24601.37
497.44	24781.59
497.62	24362.64
497.79	25036.71
497.97	24793.29
498.14	24718.40
498.32	24886.92
498.50	25111.61
498.67	25507.16
498.85	25275.45
499.03	25610.14
499.20	25647.59
499.38	25586.74
499.56	25792.70
499.73	26064.21
499.91	26146.12
500.08	26160.17
500.26	25837.17
500.44	26293.58
500.61	26022.08
500.79	26111.02
500.97	26656.36
501.14	26675.09
501.32	26771.05
501.49	26515.93
501.67	26349.75
501.84	26445.71
502.02	26918.50
502.20	27110.43
502.37	27536.40
502.55	27019.14
502.72	27297.67
502.90	27648.75
503.07	27510.66
503.25	27704.92
503.43	27751.73
503.60	27569.17
503.78	27653.43
503.95	27655.77
504.13	27835.99
504.30	27686.20
504.48	28210.48
504.65	28404.74
504.83	28348.57
505.01	28507.72
505.18	28306.44
505.36	28868.17
505.53	28671.56
505.71	29369.04
505.88	29127.97
506.06	28659.86
506.23	29144.35
506.41	28657.52
506.58	29043.71
506.76	29296.49
506.93	29404.15
507.11	29142.01
507.28	29589.05
507.46	29158.39
507.63	29448.62
507.81	29326.91
507.98	29537.56
508.16	29788.00
508.33	29888.64
508.50	30174.19
508.68	30036.09
508.85	30305.26
509.03	30614.21
509.20	30466.75
509.38	30597.82
509.55	30740.60
509.73	30834.22
509.90	30955.93
510.08	30492.50
510.25	30579.10
510.42	31014.44
510.60	30831.88
510.77	31260.20
510.95	31250.83
511.12	31180.62
511.30	31108.06
511.47	31800.86
511.64	31351.48
511.82	31775.11
511.99	31370.20
512.17	31798.52
512.34	31627.66
512.51	31819.58
512.69	32297.05
512.86	32098.11
513.04	32130.87
513.21	32378.97
513.38	32098.11
513.56	32304.07
513.73	31924.91
513.90	32531.11
514.08	32222.16
514.25	32694.94
514.43	32484.30
514.60	32692.60
514.77	32837.72
514.95	32882.19
515.12	32708.99
515.29	33193.48
515.47	33125.60
515.64	33720.10
515.81	33195.82
515.99	33401.79
516.16	33233.27
516.33	33081.13
516.51	33109.22
516.68	32826.01
516.85	32856.44
517.03	33266.03
517.20	33577.33
517.37	33516.47
517.54	33191.14
517.72	33937.77
517.89	33764.57
518.06	33565.62
518.24	33359.66
518.41	33659.24
518.58	33862.87
518.75	34260.76
518.93	34494.82
519.10	34415.24
519.27	34660.99
519.45	34593.12
519.62	34370.77
519.79	35150.17
519.96	34841.21
520.14	34782.70
520.31	34831.85
520.48	34822.49
520.65	35262.51
520.83	35108.04
521.00	35569.12
521.17	35304.64
521.34	35431.03
521.52	35534.01
521.69	35644.02
521.86	36032.55
522.03	35538.69
522.20	36004.46
522.38	35882.75
522.55	35730.62
522.72	35807.86
522.89	35915.52
523.07	35768.07
523.24	35945.95
523.41	36154.26
523.58	35983.40
523.75	36856.42
523.92	36442.14
524.10	36533.42
524.27	36659.81
524.44	36620.02
524.61	36720.66
524.78	36886.84
524.96	36952.38
525.13	36891.52
525.30	37411.12
525.47	37282.39
525.64	37050.68
525.81	36870.46
525.98	37113.87
526.16	37027.28
526.33	36734.71
526.50	37193.45
526.67	37038.98
526.84	37460.27
527.01	36769.82
527.18	37329.20
527.36	37731.78
527.53	37860.51
527.70	37668.58
527.87	37979.87
528.04	37663.90
528.21	37741.14
528.38	37647.52
528.55	38349.68
528.72	38174.14
528.89	38342.66
529.07	38382.45
529.24	37862.85
529.41	38375.42
529.58	37968.17
529.75	37979.87
529.92	38918.43
530.09	38703.10
530.26	38749.91
530.43	38930.13
530.60	38478.41
530.77	38649.27
530.94	38897.36
531.11	39321.00
531.28	38649.27
531.46	38787.36
531.63	39227.38
531.80	39023.75
531.97	39187.59
532.14	39105.67
532.31	38667.99
532.48	39056.52
532.65	39407.60
532.82	38792.04
532.99	39250.78
533.16	38958.22
533.33	39569.10
533.50	39613.57
533.67	39665.06
533.84	39021.41
534.01	39482.50
534.18	39344.41
534.35	39936.56
534.52	39655.70
534.69	39728.25
534.86	39978.69
535.03	39819.53
535.20	40184.66
535.37	40301.68
535.54	40502.97
535.71	39948.26
535.88	39779.74
536.05	39938.90
536.22	40140.19
536.38	40547.44
536.55	40577.87
536.72	40620.00
536.89	40343.81
537.06	40175.30
537.23	40399.99
537.40	40404.67
537.57	40648.08
537.74	40264.24
537.91	41333.86
538.08	41048.32
538.25	40772.13
538.42	40629.36
538.59	41357.27
538.75	40690.21
538.92	41223.86
539.09	40545.10
539.26	40870.43
539.43	40835.33
539.60	40907.88
539.77	40802.56
539.94	41038.95
540.11	40865.75
540.28	40889.16
540.44	41319.82
540.61	41191.09
540.78	41301.09
540.95	41109.17
541.12	40982.78
541.29	41223.86
541.46	41429.82
541.62	41228.54
541.79	41661.54
541.96	41247.26
542.13	41577.28
542.30	42017.30
542.47	41832.39
542.63	41776.22
542.80	41869.84
542.97	42335.61
543.14	42328.59
543.31	41862.82
543.48	42445.62
543.64	42831.80
543.81	42220.92
543.98	42513.49
544.15	42363.70
544.32	42368.38
544.48	43140.75
544.65	42518.17
544.82	42384.76
544.99	42541.58
545.16	42527.53
545.32	42660.94
545.49	42600.09
545.66	42513.49
545.83	42927.77
546.00	43320.98
546.16	42946.49
546.33	42838.83
546.50	42370.72
546.67	42651.58
546.83	42522.85
547.00	42616.47
547.17	42766.27
547.34	42932.45
547.50	42969.90
547.67	43358.42
547.84	43777.38
548.00	43232.04
548.17	43358.42
548.34	43365.45
548.51	43168.84
548.67	43264.80
548.84	43489.49
549.01	43550.35
549.18	43416.94
549.34	43243.74
549.51	43718.87
549.68	43620.56
549.84	43494.18
550.01	43786.74
550.18	43405.23
550.34	43573.75
550.51	43473.11
550.68	43419.28
550.84	43667.37
551.01	43487.15
551.18	43482.47
551.34	44027.82
551.51	43814.83
551.68	44233.78
551.84	43845.26
552.01	43758.66
552.18	43700.14
552.34	43868.66
552.51	44416.35
552.68	44025.48
552.84	44486.56
553.01	44182.29
553.18	44032.50
553.34	44037.18
553.51	44470.18
553.67	44383.58
553.84	44325.07
554.01	44538.05
554.17	44732.32
554.34	44830.62
554.51	44563.80
554.67	44598.91
554.84	44975.73
555.00	44563.80
555.17	44083.99
555.33	44634.02
555.50	44807.22
555.67	44711.25
555.83	44776.79
556.00	44601.25
556.16	45118.51
556.33	44687.85
556.50	44296.98
556.66	44758.06
556.83	44261.87
556.99	44886.79
557.16	44884.45
557.32	44811.90
557.49	44655.08
557.65	44589.55
557.82	44701.89
557.98	44610.61
558.15	44711.25
558.32	44868.07
558.48	44996.80
558.65	44711.25
558.81	44715.93
558.98	44954.67
559.14	44889.13
559.31	44648.06
559.47	44800.19
559.64	45113.83
559.80	45345.54
559.97	45258.94
560.13	44804.88
560.30	44945.31
560.46	45083.40
560.63	44978.07
560.79	45059.99
560.96	46082.81
561.12	45633.42
561.29	45153.62
561.45	45212.13
561.61	45427.46
561.78	45392.35
561.94	45092.76
562.11	45375.97
562.27	44889.13
562.44	44933.60
562.60	45794.92
562.77	45022.54
562.93	45453.20
563.10	45244.90
563.26	45104.46
563.42	45244.90
563.59	45617.04
563.75	45495.33
563.92	45408.73
564.08	45418.10
564.24	45366.60
564.41	45390.01
564.57	45661.51
564.74	45483.63
564.90	45797.26
565.07	45666.19
565.23	45584.27
565.39	45366.60
565.56	45694.28
565.72	45373.63
565.88	45830.03
566.05	45771.52
566.21	45420.44
566.38	45748.11
566.54	45455.54
566.70	45579.59
566.87	46124.94
567.03	46150.68
567.19	46003.23
567.36	45949.40
567.52	45525.76
567.68	46106.21
567.85	45724.71
568.01	45668.53
568.17	45736.41
568.34	46101.53
568.50	45645.13
568.66	45687.26
568.83	45888.54
568.99	45581.93
569.15	45713.00
569.32	45780.88
569.48	45193.40
569.64	45687.26
569.81	45801.94
569.97	45579.59
570.13	45867.48
570.30	45591.30
570.46	45617.04
570.62	45567.89
570.78	45530.44
570.95	45525.76
571.11	45989.19
571.27	45811.31
571.43	45642.79
571.60	45844.07
571.76	45691.94
571.92	46085.15
572.09	45453.20
572.25	45584.27
572.41	45872.16
572.57	45813.65
572.74	46155.36
572.90	45415.76
573.06	46291.12
573.22	45834.71
573.38	45595.98
573.55	45574.91
573.71	46110.89
573.87	45617.04
574.03	45565.55
574.20	46192.81
574.36	45713.00
574.52	45820.67
574.68	46019.61
574.84	46167.07
575.01	46138.98
575.17	45663.85
575.33	45621.72
575.49	45799.60
575.65	46108.55
575.82	46389.42
575.98	45785.56
576.14	46237.28
576.30	46169.41
576.46	45731.73
576.62	46101.53
576.79	46115.58
576.95	45783.22
577.11	45886.20
577.27	45659.17
577.43	46382.40
577.59	45588.95
577.75	46246.65
577.92	45125.53
578.08	45406.39
578.24	45640.45
578.40	45764.49
578.56	46087.49
578.72	45703.64
578.88	46124.94
579.04	46120.26
579.21	45612.36
579.37	46232.60
579.53	46143.66
579.69	45471.93
579.85	46068.76
580.01	46141.32
580.17	46183.45
580.33	46590.70
580.49	46749.86
580.65	46417.50
580.82	46122.60
580.98	46286.43
581.14	45542.14
581.30	46134.30
581.46	46054.72
581.62	46532.19
581.78	46007.91
581.94	46375.37
582.10	46373.03
582.26	46429.21
582.42	46033.66
582.58	46621.13
582.74	45837.05
582.90	46529.85
583.06	46731.14
583.22	46106.21
583.38	46426.87
583.54	45794.92
583.70	45738.75
583.86	46138.98
584.02	45886.20
584.18	45907.27
584.34	46316.86
584.50	46239.62
584.66	46064.08
584.82	45485.97
584.98	46438.57
585.14	46403.46
585.30	46260.69
585.46	45823.01
585.62	45867.48
585.78	46176.43
585.94	45755.13
586.10	46078.13
586.26	45837.05
586.42	46321.54
586.58	46232.60
586.74	46426.87
586.90	46019.61
587.06	46085.15
587.22	46211.54
587.38	45900.25
587.54	46382.40
587.70	46216.22
587.86	46307.50
588.02	46326.22
588.18	46337.93
588.34	46469.00
588.49	46036.00
588.65	45453.20
588.81	45340.86
588.97	45715.34
589.13	45701.30
589.29	45900.25
589.45	45694.28
589.61	46059.40
589.77	46288.77
589.93	46054.72
590.08	46391.76
590.24	46436.23
590.40	46571.98
590.56	46443.25
590.72	46438.57
590.88	45574.91
591.04	46274.73
591.20	46770.93
591.35	46450.27
591.51	46618.79
591.67	46478.36
591.83	46120.26
591.99	46267.71
592.15	46192.81
592.31	46279.41
592.46	46548.57
592.62	46183.45
592.78	46490.06
592.94	46672.62
593.10	46340.27
593.26	46515.81
593.41	46314.52
593.57	46536.87
593.73	46108.55
593.89	46422.19
594.05	46267.71
594.20	46342.61
594.36	46560.28
594.52	46766.24
594.68	46038.34
594.84	46717.09
594.99	46160.05
595.15	46057.06
595.31	46590.70
595.47	46323.88
595.62	46326.22
595.78	46251.33
595.94	46581.34
596.10	46721.77
596.25	46768.58
596.41	46649.22
596.57	46630.49
596.73	46962.85
596.88	45968.12
597.04	46728.80
597.20	46431.55
597.36	46461.97
597.51	46745.18
597.67	46471.34
597.83	46246.65
597.99	46731.14
598.14	46155.36
598.30	46602.41
598.46	46256.01
598.61	46195.15
598.77	45998.55
598.93	46092.17
599.09	46300.48
599.24	46967.53
599.40	46595.38
599.56	46387.08
599.71	46265.37
599.87	46916.04
600.03	46148.34
600.18	46614.11
600.34	46323.88
600.50	45998.55
600.65	46693.69
600.81	46848.16
600.97	46609.43
601.12	46717.09
601.28	46550.91
601.44	46583.68
601.59	46335.59
601.75	46244.30
601.91	46302.82
602.06	46190.47
602.22	46546.23
602.37	46644.54
602.53	46387.08
602.69	47026.04
602.84	46497.08
603.00	46337.93
603.16	46108.55
603.31	46050.04
603.47	46555.60
603.62	46043.02
603.78	46480.70
603.94	46134.30
604.09	46934.76
604.25	46454.95
604.40	46705.39
604.56	46241.96
604.71	46646.88
604.87	46396.44
605.03	46223.24
605.18	46625.81
605.34	46415.16
605.49	46281.75
605.65	46417.50
605.80	46689.01
605.96	46417.50
606.12	46380.06
606.27	46569.64
606.43	46398.78
606.58	46419.84
606.74	45975.14
606.89	46314.52
607.05	46674.96
607.20	46398.78
607.36	46270.05
607.51	46653.90
607.67	46363.67
607.82	46408.14
607.98	46050.04
608.13	46335.59
608.29	46218.56
608.44	46213.88
608.60	45375.97
608.75	45464.91
608.91	45635.77
609.06	45993.87
609.22	46082.81
609.37	45670.87
609.53	46227.92
609.68	45895.56
609.84	46183.45
609.99	45813.65
610.15	46007.91
610.30	46085.15
610.46	45485.97
610.61	45724.71
610.76	45925.99
610.92	45591.30
611.07	45799.60
611.23	45595.98
611.38	45696.62
611.54	45595.98
611.69	45628.74
611.84	45202.77
612.00	45813.65
612.15	45174.68
612.31	45956.42
612.46	45476.61
612.62	46258.35
612.77	45476.61
612.92	45888.54
613.08	45844.07
613.23	45352.56
613.39	45469.59
613.54	45514.06
613.69	45324.47
613.85	45125.53
614.00	45624.06
614.15	45689.60
614.31	45553.85
614.46	45642.79
614.62	45317.45
614.77	45074.04
614.92	45265.96
615.08	45081.06
615.23	45088.08
615.38	45408.73
615.54	44980.42
615.69	45148.93
615.84	44737.00
616.00	44914.88
616.15	45214.47
616.30	45123.19
616.46	45280.00
616.61	44879.77
616.76	44884.45
616.92	44914.88
617.07	45294.05
617.22	44905.52
617.37	44933.60
617.53	44802.53
617.68	45188.72
617.83	45268.30
617.99	45521.08
618.14	44868.07
618.29	44818.92
618.45	44626.99
618.60	44973.39
618.75	44594.23
618.90	44971.05
619.06	44961.69
619.21	44690.19
619.36	45500.01
619.51	44734.66
619.67	44664.44
619.82	45043.61
619.97	44715.93
620.12	44479.54
620.28	44210.38
620.43	44397.62
620.58	44154.21
620.73	44196.34
620.89	44318.04
621.04	44444.43
621.19	44596.57
621.34	44376.56
621.49	44189.31
621.65	44250.17
621.80	44327.41
621.95	44121.44
622.10	44788.49
622.25	43978.67
622.41	44135.48
622.56	43522.26
622.71	44608.27
622.86	44395.28
623.01	44140.16
623.16	44196.34
623.32	43976.33
623.47	44243.15
623.62	44353.15
623.77	44208.04
623.92	43601.84
624.07	43421.62
624.23	44039.52
624.38	43370.13
624.53	43833.55
624.68	43915.47
624.83	43789.08
624.98	44287.62
625.13	43573.75
625.29	44016.11
625.44	43543.33
625.59	43583.12
625.74	43484.81
625.89	43159.48
626.04	43042.45
626.19	43519.92
626.34	43515.24
626.49	43353.74
626.65	43328.00
626.80	43927.17
626.95	43512.90
627.10	43122.03
627.25	42705.41
627.40	42976.92
627.55	42845.85
627.70	42733.50
627.85	42916.06
628.00	43239.06
628.15	43302.25
628.30	42731.16
628.45	43098.62
628.60	42906.70
628.76	43501.20
628.91	43328.00
629.06	43187.56
629.21	42462.00
629.36	42958.19
629.51	42693.71
629.66	43112.67
629.81	42342.63
629.96	42586.05
630.11	42630.52
630.26	43440.34
630.41	42859.89
630.56	42721.80
630.71	42768.61
630.86	42564.98
631.01	42351.99
631.16	42859.89
631.31	42572.00
631.46	41703.67
631.61	42506.47
631.76	42024.32
631.91	42871.59
632.06	42288.80
632.21	42728.82
632.36	42794.36
632.51	42438.59
632.66	42583.71
632.81	41902.61
632.96	42447.96
633.10	41954.10
633.25	42007.94
633.40	41530.47
633.55	42239.65
633.70	42195.18
633.85	41713.03
634.00	42164.75
634.15	42312.20
634.30	41881.55
634.45	41846.44
634.60	41806.65
634.75	42043.04
634.90	41816.01
635.05	42014.96
635.19	42146.03
635.34	42167.09
635.49	42291.14
635.64	41478.97
635.79	41722.39
635.94	41911.97
636.09	41596.00
636.24	41673.24
636.39	41617.07
636.53	41345.56
636.68	41064.70
636.83	41301.09
636.98	41448.55
637.13	41530.47
637.28	42033.68
637.43	41806.65
637.57	41233.22
637.72	41684.94
637.87	41867.50
638.02	41497.70
638.17	41146.62
638.32	41413.44
638.46	41312.80
638.61	41125.55
638.76	40985.12
638.91	41514.08
639.06	41174.70
639.20	41104.49
639.35	41155.98
639.50	41088.10
639.65	41399.40
639.80	41361.95
639.94	41078.74
640.09	40975.76
640.24	41048.32
640.39	40912.56
640.54	40650.42
640.68	40807.24
640.83	40900.86
640.98	40797.88
641.13	40484.25
641.27	40917.25
641.42	40575.53
641.57	40662.13
641.72	40727.66
641.86	40381.26
642.01	40322.75
642.16	40456.16
642.31	40107.42
642.45	40402.33
642.60	39990.39
642.75	40313.39
642.90	40128.48
643.04	40383.60
643.19	40332.11
643.34	40418.71
643.48	40161.25
643.63	40247.85
643.78	39920.18
643.93	40093.38
644.07	40011.46
644.22	40201.04
644.37	40051.25
644.51	40098.06
644.66	40282.96
644.81	40488.93
644.95	40154.23
645.10	40437.44
645.25	40325.09
645.39	40058.27
645.54	40289.98
645.69	40135.51
645.83	39674.42
645.98	40030.18
646.13	40105.08
646.27	40006.78
646.42	40006.78
646.57	39505.90
646.71	39475.48
646.86	39889.75
647.00	39859.32
647.15	40275.94
647.30	40161.25
647.44	39789.11
647.59	39922.52
647.74	39536.33
647.88	39885.07
648.03	39374.83
648.17	39599.52
648.32	39225.04
648.47	38953.54
648.61	39721.23
648.76	39899.11
648.90	39690.80
649.05	39328.02
649.20	39419.30
649.34	39597.18
649.49	39002.69
649.63	39344.41
649.78	39459.09
649.92	38974.60
650.07	39288.23
650.21	39100.99
650.36	39185.25
650.51	39283.55
650.65	39512.92
650.80	39538.67
650.94	39665.06
651.09	39423.98
651.23	39131.42
651.38	38550.96
651.52	38878.64
651.67	38941.83
651.81	39014.39
651.96	38927.79
652.10	38616.50
652.25	38565.01
652.39	38686.71
652.54	38941.83
652.68	38995.67
652.83	38359.04
652.97	39019.07
653.12	38838.85
653.26	38738.21
653.41	38892.68
653.55	38391.81
653.70	38726.50
653.84	38469.04
653.99	38557.99
654.13	38946.51
654.27	38628.20
654.42	38213.93
654.56	38593.09
654.71	38457.34
654.85	38319.25
655.00	38735.87
655.14	38422.23
655.29	38183.50
655.43	37998.60
655.57	38106.26
655.72	37893.27
655.86	37778.59
656.01	38040.73
656.15	38218.61
656.30	38029.02
656.44	38101.58
656.58	37841.78
656.73	37888.59
656.87	37816.04
657.01	37706.03
657.16	37539.85
657.30	37926.04
657.45	37556.24
657.59	37874.55
657.73	37598.37
657.88	37670.92
658.02	37539.85
658.16	37638.15
658.31	37645.18
658.45	37785.61
658.60	37993.92
658.74	38022.00
658.88	38132.01
659.03	37095.15
659.17	37062.38
659.31	37357.29
659.46	37343.25
659.60	37223.88
659.74	36804.92
659.89	37181.75
660.03	37106.85
660.17	37237.92
660.32	36662.15
660.46	37216.86
660.60	37399.42
660.74	36978.12
660.89	37315.16
661.03	36657.47
661.17	36804.92
661.32	36638.75
661.46	36741.73
661.60	36568.53
661.74	36374.27
661.89	36828.33
662.03	36547.47
662.17	36414.05
662.31	36627.04
662.46	36732.37
662.60	36313.41
662.74	36280.64
662.88	36261.92
663.03	36456.18
663.17	36165.96
663.31	35976.37
663.45	36339.16
663.60	36004.46
663.74	35782.11
663.88	35508.27
664.02	35807.86
664.17	36058.29
664.31	35761.05
664.45	35494.22
664.59	35906.16
664.73	35456.78
664.88	35606.57
665.02	35335.07
665.16	35798.49
665.30	35538.69
665.44	35522.31
665.59	35306.98
665.73	35028.46
665.87	35063.57
666.01	35105.70
666.15	34974.63
666.29	35250.81
666.44	35400.60
666.58	34803.77
666.72	34628.23
666.86	35133.78
667.00	35267.19
667.14	34785.04
667.28	34696.10
667.43	34087.56
667.57	34478.43
667.71	34595.46
667.85	34574.39
667.99	34183.52
668.13	34389.49
668.27	34096.92
668.41	34366.09
668.56	34265.44
668.70	34508.86
668.84	33855.85
668.98	33752.87
669.12	34316.93
669.26	34190.55
669.40	33738.82
669.54	33743.50
669.68	34029.05
669.82	33879.25
669.96	33495.41
670.10	33268.37
670.25	33771.59
670.39	33551.58
670.53	33214.54
670.67	33352.63
670.81	33886.28
670.95	33172.41
671.09	33291.78
671.23	33832.44
671.37	33256.67
671.51	33069.43
671.65	32910.27
671.79	32613.02
671.93	32622.39
672.07	32816.65
672.21	32718.35
672.35	32900.91
672.49	32458.55
672.63	32472.59
672.77	32320.46
672.91	32217.47
673.05	32210.45
673.19	32336.84
673.33	31985.76
673.47	32718.35
673.61	32077.04
673.75	31906.18
673.89	31660.43
674.03	31555.10
674.17	31491.91
674.31	31524.68
674.45	31749.37
674.59	31475.52
674.73	31299.98
674.87	32020.87
675.01	31749.37
675.15	31763.41
675.29	31566.81
675.43	31702.56
675.56	31098.70
675.70	31592.55
675.84	30923.16
675.98	30604.84
676.12	31147.85
676.26	31152.53
676.40	30572.08
676.54	30543.99
676.68	30625.91
676.82	29834.81
676.96	30188.23
677.10	30211.64
677.23	29975.24
677.37	29841.83
677.51	30258.45
677.65	30370.79
677.79	29699.06
677.93	29799.70
678.07	29579.69
678.21	29001.58
678.34	29666.29
678.48	29177.12
678.62	29167.76
678.76	28952.43
678.90	28802.63
679.04	28980.51
679.18	28968.81
679.31	28603.69
679.45	28720.71
679.59	28582.62
679.73	27957.70
679.87	28610.71
680.00	28243.24
680.14	28215.16
680.28	28091.11
680.42	27817.27
680.56	28095.79
680.70	27655.77
680.83	28161.33
680.97	27463.85
681.11	27246.18
681.25	27585.55
681.39	27489.59
681.52	27456.82
681.66	27501.29
681.80	27449.80
681.94	27002.76
682.07	27353.84
682.21	26810.84
682.35	26925.52
682.49	26661.04
682.62	26916.16
682.76	26450.39
682.90	26651.68
683.04	26604.87
683.17	26225.70
683.31	26373.16
683.45	26735.94
683.59	25886.32
683.72	25860.58
683.86	25811.43
684.00	26031.44
684.13	26288.90
684.27	25834.83
684.41	26073.57
684.55	25507.16
684.68	25338.64
684.82	25277.79
684.96	25338.64
685.09	25336.30
685.23	24980.54
685.37	25249.70
685.50	25247.36
685.64	24776.91
685.78	25001.60
685.91	24751.17
686.05	24685.63
686.19	24790.95
686.32	24451.58
686.46	24449.24
686.60	23695.58
686.73	23735.37
686.87	23290.67
687.01	23700.26
687.14	23178.33
687.28	23475.57
687.42	23360.89
687.55	23391.31
687.69	23541.11
687.82	23164.28
687.96	23124.49
688.10	23080.02
688.23	23264.92
688.37	22965.34
688.50	22860.01
688.64	22764.05
688.78	22537.02
688.91	22438.72
689.05	22824.90
689.18	22284.24
689.32	22211.68
689.46	22265.52
689.59	22361.48
689.73	22300.62
689.86	22001.04
690.00	21865.28
690.13	22354.46
690.27	21724.85
690.41	21886.35
690.54	21371.43
690.68	21493.14
690.81	21729.53
690.95	21172.49
691.08	21298.88
691.22	21116.31
691.35	21427.60
691.49	21216.96
691.62	21546.97
691.76	21832.52
691.89	21280.15
692.03	20709.06
692.16	20828.43
692.30	20734.81
692.43	20645.87
692.57	20545.22
692.70	20379.04
692.84	20500.75
692.97	20299.47
693.11	20542.88
693.24	20374.36
693.38	20130.95
693.51	19941.36
693.65	19875.83
693.78	19646.46
693.92	19522.41
694.05	19520.07
694.19	19435.81
694.32	19573.90
694.45	19360.91
694.59	19522.41
694.72	19159.63
694.86	19232.18
694.99	18878.76
695.13	19073.03
695.26	19021.53
695.39	18785.14
695.53	19066.00
695.66	18827.27
695.80	18506.62
695.93	18574.49
696.07	18307.67
696.20	18373.21
696.33	18553.43
696.47	18335.76
696.60	18408.31
696.73	18347.46
696.87	17900.42
697.00	18136.81
697.14	18043.19
697.27	17757.64
697.40	17848.93
697.54	17561.04
697.67	17525.93
697.80	17682.75
697.94	17308.26
698.07	17130.38
698.21	17404.22
698.34	17252.09
698.47	17142.08
698.61	16748.87
698.74	16716.11
698.87	17074.21
699.01	16779.30
699.14	16695.04
699.27	16788.66
699.40	16592.06
699.54	16505.46
699.67	16517.16
699.80	16652.91
699.94	16430.56
700.07	16212.89
700.20	16306.51
700.34	15866.49
700.47	16023.31
700.60	16215.23
700.73	16102.89
700.87	15829.04
701.00	15712.02
701.13	16046.71
701.26	15988.20
701.40	15719.04
701.53	15506.05
701.66	15730.74
701.79	15531.80
701.93	15302.42
702.06	15140.93
702.19	15213.48
702.32	15157.31
702.46	14965.39
702.59	14956.02
702.72	14953.68
702.85	15087.09
702.99	15044.96
703.12	14977.09
703.25	14574.52
703.38	14588.56
703.51	14661.12
703.65	14609.62
703.78	14782.82
703.91	14427.06
704.04	14408.34
704.17	14342.80
704.31	14178.97
704.44	14071.30
704.57	14038.53
704.70	13851.29
704.83	14054.92
704.96	14050.24
705.10	14083.00
705.23	13907.46
>>>>>End Processed Spectral Data<<<<<
