SpectraSuite Data File
++++++++++++++++++++++++++++++++++++
Date: Fri Oct 25 11:34:34 EDT 2013
User: price-jones
Dark Spectrum Present: No
Reference Spectrum Present: No
Number of Sampled Component Spectra: 1
Spectrometers: USB2+H05261
Integration Time (usec): 100000 (USB2+H05261)
Spectra Averaged: 1 (USB2+H05261)
Boxcar Smoothing: 0 (USB2+H05261)
Correct for Electrical Dark: No (USB2+H05261)
Strobe/Lamp Enabled: No (USB2+H05261)
Correct for Detector Non-linearity: No (USB2+H05261)
Correct for Stray Light: No (USB2+H05261)
Number of Pixels in Processed Spectrum: 2048
>>>>>Begin Processed Spectral Data<<<<<
365.73	301.93
365.92	301.93
366.12	301.93
366.32	215.33
366.52	142.77
366.72	210.65
366.91	133.41
367.11	163.84
367.31	133.41
367.51	175.54
367.70	121.71
367.90	215.33
368.10	208.31
368.30	177.88
368.49	128.73
368.69	248.10
368.89	170.86
369.09	255.12
369.28	224.69
369.48	245.76
369.68	238.73
369.87	250.44
370.07	170.86
370.27	311.29
370.47	299.59
370.66	482.15
370.86	517.26
371.06	491.51
371.25	561.73
371.45	524.28
371.65	514.92
371.84	526.62
372.04	533.64
372.24	582.79
372.44	587.47
372.63	571.09
372.83	606.20
373.03	585.13
373.22	589.82
373.42	620.24
373.62	573.43
373.81	634.29
374.01	601.52
374.21	582.79
374.40	526.62
374.60	669.39
374.79	690.46
374.99	671.73
375.19	580.45
375.38	587.47
375.58	634.29
375.78	713.86
375.97	720.88
376.17	655.35
376.37	702.16
376.56	660.03
376.76	601.52
376.95	676.41
377.15	774.72
377.35	692.80
377.54	634.29
377.74	669.39
377.93	676.41
378.13	699.82
378.33	676.41
378.52	610.88
378.72	645.99
378.91	657.69
379.11	748.97
379.31	692.80
379.50	643.65
379.70	723.23
379.89	739.61
380.09	695.14
380.28	676.41
380.48	753.65
380.68	753.65
380.87	732.59
381.07	692.80
381.26	737.27
381.46	851.96
381.65	807.48
381.85	732.59
382.04	760.67
382.24	770.04
382.43	765.36
382.63	688.12
382.83	753.65
383.02	758.33
383.22	835.57
383.41	753.65
383.61	793.44
383.80	875.36
384.00	704.50
384.19	856.64
384.39	826.21
384.58	828.55
384.78	781.74
384.97	805.14
385.17	777.06
385.36	760.67
385.56	858.98
385.75	770.04
385.95	837.91
386.14	823.87
386.34	849.61
386.53	819.19
386.72	800.46
386.92	889.40
387.11	933.87
387.31	891.74
387.50	858.98
387.70	947.92
387.89	784.08
388.09	931.53
388.28	777.06
388.48	842.59
388.67	889.40
388.86	887.06
389.06	847.27
389.25	964.30
389.45	978.34
389.64	954.94
389.84	863.66
390.03	926.85
390.22	863.66
390.42	931.53
390.61	947.92
390.81	926.85
391.00	954.94
391.19	964.30
391.39	961.96
391.58	901.11
391.78	961.96
391.97	997.07
392.16	849.61
392.36	1069.62
392.55	1022.81
392.75	1039.20
392.94	1041.54
393.13	1067.28
393.33	1046.22
393.52	997.07
393.71	1053.24
393.91	1064.94
394.10	1032.18
394.29	1050.90
394.49	1034.52
394.68	1172.61
394.88	1071.97
395.07	1102.39
395.26	1135.16
395.46	1100.05
395.65	1174.95
395.84	1067.28
396.04	1184.31
396.23	1156.22
396.42	1144.52
396.62	1200.69
396.81	1174.95
397.00	1078.99
397.19	1102.39
397.39	1163.25
397.58	1221.76
397.77	1165.59
397.97	1238.14
398.16	1273.25
398.35	1263.89
398.55	1219.42
398.74	1284.95
398.93	1193.67
399.12	1275.59
399.32	1198.35
399.51	1245.16
399.70	1252.19
399.90	1322.40
400.09	1350.49
400.28	1362.19
400.47	1306.02
400.67	1387.94
400.86	1362.19
401.05	1392.62
401.24	1315.38
401.44	1366.87
401.63	1373.89
401.82	1453.47
402.01	1397.30
402.21	1472.20
402.40	1404.32
402.59	1343.47
402.78	1451.13
402.97	1437.09
403.17	1444.11
403.36	1486.24
403.55	1530.71
403.74	1509.65
403.93	1392.62
404.13	1535.39
404.32	1624.33
404.51	1586.88
404.70	1533.05
404.89	1528.37
405.09	1568.16
405.28	1514.33
405.47	1572.84
405.66	1568.16
405.85	1631.35
406.05	1715.61
406.24	1664.12
406.43	1774.13
406.62	1654.76
406.81	1713.27
407.00	1703.91
407.20	1830.30
407.39	1743.70
407.58	1659.44
407.77	1685.19
407.96	1788.17
408.15	1797.53
408.34	1788.17
408.54	1823.28
408.73	1788.17
408.92	1816.26
409.11	1944.99
409.30	1872.43
409.49	1975.41
409.68	1907.54
409.87	1923.92
410.07	1870.09
410.26	1980.09
410.45	1935.62
410.64	2010.52
410.83	1949.67
411.02	1989.46
411.21	2113.50
411.40	2155.63
411.59	2118.18
411.78	2078.40
411.98	2118.18
412.17	2097.12
412.36	2111.16
412.55	2174.36
412.74	2326.49
412.93	2258.62
413.12	2186.06
413.31	2305.43
413.50	2263.30
413.69	2387.35
413.88	2289.04
414.07	2375.64
414.26	2406.07
414.45	2401.39
414.64	2422.45
414.83	2530.12
415.02	2399.05
415.22	2504.37
415.41	2553.52
415.60	2579.27
415.79	2588.63
415.98	2703.32
416.17	2555.86
416.36	2588.63
416.55	2647.15
416.74	2766.51
416.93	2548.84
417.12	2715.02
417.31	2899.92
417.50	2855.45
417.69	2818.00
417.88	2759.49
418.07	2836.73
418.26	2841.41
418.45	2855.45
418.64	2953.76
418.83	3014.61
419.02	2881.20
419.21	2920.99
419.39	2942.05
419.58	3033.33
419.77	2846.09
419.96	2998.23
420.15	3030.99
420.34	3023.97
420.53	2958.44
420.72	3038.02
420.91	3173.77
421.10	3023.97
421.29	3091.85
421.48	3117.59
421.67	3169.09
421.86	3122.27
422.05	3192.49
422.24	3218.24
422.43	3108.23
422.61	3281.43
422.80	3321.22
422.99	3260.37
423.18	3190.15
423.37	3323.56
423.56	3258.03
423.75	3208.87
423.94	3145.68
424.13	2909.29
424.32	3129.30
424.50	3262.71
424.69	3361.01
424.88	3276.75
425.07	3241.64
425.26	3241.64
425.45	3236.96
425.64	3260.37
425.83	3253.34
426.01	3344.63
426.20	3314.20
426.39	3419.52
426.58	3337.60
426.77	3274.41
426.96	3349.31
427.15	3513.14
427.33	3417.18
427.52	3405.48
427.71	3482.72
427.90	3489.74
428.09	3576.34
428.28	3508.46
428.46	3524.85
428.65	3637.19
428.84	3506.12
429.03	3545.91
429.22	3569.32
429.40	3644.21
429.59	3524.85
429.78	3485.06
429.97	3372.71
430.16	3585.70
430.34	3658.26
430.53	3646.55
430.72	3588.04
430.91	3803.37
431.10	3569.32
431.28	3805.71
431.47	3784.65
431.66	3735.50
431.85	3681.66
432.03	3915.72
432.22	3875.93
432.41	3908.69
432.60	3946.14
432.79	4042.11
432.97	3911.04
433.16	4053.81
433.35	3964.87
433.54	3981.25
433.72	3974.23
433.91	3880.61
434.10	3908.69
434.28	3988.27
434.47	4032.74
434.66	4077.21
434.85	4060.83
435.03	4044.45
435.22	4095.94
435.41	4152.11
435.59	4187.22
435.78	4266.80
435.97	4283.18
436.16	4142.75
436.34	4248.07
436.53	4367.44
436.72	4362.76
436.90	4035.08
437.09	4290.20
437.28	4327.65
437.46	4241.05
437.65	4458.72
437.84	4379.14
438.02	4395.53
438.21	4409.57
438.40	4322.97
438.58	4465.74
438.77	4589.79
438.96	4372.12
439.14	4468.08
439.33	4580.43
439.52	4704.48
439.70	4746.61
439.89	4997.04
440.08	4940.87
440.26	4695.11
440.45	4964.28
440.63	4957.25
440.82	4765.33
441.01	4905.76
441.19	4919.81
441.38	5050.88
441.57	4933.85
441.75	5142.16
441.94	5102.37
442.12	5142.16
442.31	5163.22
442.50	5078.96
442.68	5179.61
442.87	5156.20
443.05	5093.01
443.24	5174.92
443.43	5228.76
443.61	5275.57
443.80	5467.49
443.98	5275.57
444.17	5116.41
444.35	5303.65
444.54	5303.65
444.73	5500.26
444.91	5385.57
445.10	5516.64
445.28	5413.66
445.47	5259.18
445.65	5441.75
445.84	5467.49
446.02	5397.28
446.21	5453.45
446.39	5434.72
446.58	5341.10
446.77	5542.39
446.95	5441.75
447.14	5427.70
447.32	5561.11
447.51	5413.66
447.69	5579.84
447.88	5476.85
448.06	5497.92
448.25	5481.53
448.43	5537.71
448.62	5617.29
448.80	5502.60
448.99	5528.35
449.17	5584.52
449.36	5610.26
449.54	5664.10
449.73	5650.05
449.91	5818.57
450.10	5757.72
450.28	5867.72
450.46	5949.64
450.65	5792.83
450.83	5893.47
451.02	5954.32
451.20	5921.56
451.39	6024.54
451.57	5973.05
451.76	5886.45
451.94	5977.73
452.13	5921.56
452.31	6052.63
452.49	5846.66
452.68	6146.25
452.86	6003.47
453.05	6078.37
453.23	6092.41
453.42	5975.39
453.60	5996.45
453.78	6083.05
453.97	6036.24
454.15	6274.98
454.34	6237.53
454.52	5973.05
454.70	6272.64
454.89	6202.42
455.07	6413.07
455.26	6424.77
455.44	6363.92
455.62	6389.66
455.81	6478.60
455.99	6361.58
456.17	6459.88
456.36	6422.43
456.54	6420.09
456.73	6490.31
456.91	6670.53
457.09	6759.47
457.28	6700.95
457.46	6520.73
457.64	6825.00
457.83	6827.34
458.01	6583.93
458.19	6717.34
458.38	6712.66
458.56	6953.73
458.74	6759.47
458.93	6883.52
459.11	6843.73
459.29	6736.06
459.48	6864.79
459.66	6850.75
459.84	7110.55
460.03	7007.56
460.21	7075.44
460.39	7145.66
460.57	6942.03
460.76	7162.04
460.94	7248.64
461.12	7199.49
461.31	7171.40
461.49	7009.90
461.67	7091.82
461.85	7375.03
462.04	7325.88
462.22	7672.28
462.40	7286.09
462.59	7328.22
462.77	7325.88
462.95	7356.30
463.13	7337.58
463.32	7529.50
463.50	7438.22
463.68	7360.98
463.86	7581.00
464.05	7309.49
464.23	7559.93
464.41	7391.41
464.59	7414.82
464.78	7639.51
464.96	7702.70
465.14	7424.18
465.32	7679.30
465.50	7611.42
465.69	7747.17
465.87	7733.13
466.05	7693.34
466.23	7749.51
466.41	7934.42
466.60	7985.91
466.78	7756.54
466.96	7808.03
467.14	7801.01
467.32	7793.98
467.51	7892.29
467.69	7796.32
467.87	7819.73
468.05	8131.02
468.23	7882.92
468.41	8032.72
468.60	8025.70
468.78	7997.61
468.96	8032.72
469.14	8322.94
469.32	8095.91
469.50	7918.03
469.69	8358.05
469.87	8184.85
470.05	8297.20
470.23	8243.37
470.41	8191.88
470.59	8554.66
470.77	8547.64
470.95	8610.83
471.14	8444.65
471.32	8507.85
471.50	8652.96
471.68	8659.98
471.86	8861.27
472.04	8788.71
472.22	8980.64
472.40	8678.71
472.58	8631.90
472.77	8809.78
472.95	8830.84
473.13	9167.88
473.31	8861.27
473.49	9004.04
473.67	8978.30
473.85	9277.88
474.03	9081.28
474.21	9359.80
474.39	9366.82
474.57	9432.36
474.75	9523.64
474.93	9502.58
475.12	9343.42
475.30	9533.00
475.48	9350.44
475.66	9668.75
475.84	9626.62
476.02	9460.45
476.20	9720.24
476.38	9912.17
476.56	9989.41
476.74	9891.10
476.92	10108.77
477.10	9813.87
477.28	10132.18
477.46	10195.37
477.64	10211.76
477.82	10366.23
478.00	10574.54
478.18	10597.95
478.36	10576.88
478.54	10801.57
478.72	10808.59
478.90	10892.85
479.08	10944.34
479.26	11150.31
479.44	10974.77
479.62	11140.95
479.80	11389.05
479.98	11405.43
480.16	11857.15
480.34	11466.28
480.52	11726.08
480.70	11667.57
480.88	11538.84
481.06	11793.96
481.24	11686.29
481.41	12077.16
481.59	12163.76
481.77	12196.53
481.95	12100.57
482.13	12465.69
482.31	12184.83
482.49	12821.45
482.67	12484.42
482.85	12964.23
483.03	13050.83
483.21	13029.76
483.39	13048.49
483.57	13259.13
483.74	12947.84
483.92	13404.25
484.10	13266.16
484.28	13500.21
484.46	13792.78
484.64	13984.70
484.82	13509.57
485.00	14174.28
485.18	14073.64
485.35	14242.16
485.53	14441.11
485.71	14347.48
485.89	14597.92
486.07	14572.18
486.25	14492.60
486.43	14679.84
486.61	14909.21
486.78	15087.09
486.96	15117.52
487.14	15403.07
487.32	15208.80
487.50	15431.15
487.68	15379.66
487.85	15772.87
488.03	15833.72
488.21	16093.52
488.39	16070.12
488.57	16322.90
488.75	16446.94
488.92	16425.88
489.10	16737.17
489.28	16711.42
489.46	16767.60
489.64	16783.98
489.81	17268.47
489.99	17268.47
490.17	16980.59
490.35	17425.29
490.53	17514.23
490.70	17827.86
490.88	17523.59
491.06	17965.95
491.24	17687.43
491.41	18349.80
491.59	18368.52
491.77	18352.14
491.95	18469.17
492.13	18335.76
492.30	18597.90
492.48	18698.54
492.66	18668.11
492.84	18796.84
493.01	19213.46
493.19	18946.64
493.37	19421.77
493.54	19089.41
493.72	19501.34
493.90	19580.92
494.08	19761.14
494.25	19798.59
494.43	19887.53
494.61	20023.28
494.79	19742.42
494.96	19985.83
495.14	20439.90
495.32	20505.43
495.49	20573.31
495.67	20798.00
495.85	21167.80
496.02	20865.88
496.20	21130.36
496.38	21137.38
496.55	21252.06
496.73	21542.29
496.91	21521.23
497.09	21451.01
497.26	21818.47
497.44	22047.85
497.62	21935.50
497.79	21844.22
497.97	21965.93
498.14	22104.02
498.32	22555.74
498.50	22717.24
498.67	22518.29
498.85	22345.09
499.03	23037.89
499.20	22813.20
499.38	22766.39
499.56	22946.61
499.73	23122.15
499.91	23150.24
500.08	23522.38
500.26	23309.40
500.44	23531.75
500.61	23351.52
500.79	23440.47
500.97	23971.77
501.14	23889.85
501.32	24201.14
501.49	23681.54
501.67	24084.11
501.84	24257.31
502.02	24304.12
502.20	24123.90
502.37	24580.31
502.55	24559.24
502.72	24797.98
502.90	24779.25
503.07	24706.70
503.25	25022.67
503.43	24575.62
503.60	25287.15
503.78	25034.37
503.95	24968.84
504.13	25214.59
504.30	25294.17
504.48	25142.03
504.65	25186.50
504.83	25605.46
505.01	26188.25
505.18	25891.01
505.36	25914.41
505.53	25743.55
505.71	26033.78
505.88	26202.30
506.06	25942.50
506.23	26143.78
506.41	26232.72
506.58	26192.94
506.76	26455.08
506.93	26426.99
507.11	26644.66
507.28	26494.86
507.46	26752.32
507.63	26799.13
507.81	26799.13
507.98	26981.70
508.16	26658.70
508.33	27225.11
508.50	27206.39
508.68	27145.53
508.85	27852.38
509.03	27168.94
509.20	27398.31
509.38	27828.97
509.55	27924.93
509.73	27742.37
509.90	27604.28
510.08	27744.71
510.25	27920.25
510.42	28219.84
510.60	28058.34
510.77	28435.17
510.95	28648.16
511.12	28456.23
511.30	28095.79
511.47	28606.03
511.64	28297.08
511.82	28914.98
511.99	28847.10
512.17	28774.55
512.34	28732.42
512.51	29216.91
512.69	29160.73
512.86	29142.01
513.04	29624.16
513.21	29420.53
513.38	29518.84
513.56	29504.79
513.73	29338.62
513.90	29453.30
514.08	29436.92
514.25	29640.54
514.43	29930.77
514.60	30284.19
514.77	30211.64
514.95	30129.72
515.12	29780.98
515.29	30150.78
515.47	30473.78
515.64	30309.94
515.81	30555.69
515.99	30094.61
516.16	31063.59
516.33	30621.23
516.51	30675.06
516.68	30944.22
516.85	30546.33
517.03	30834.22
517.20	31180.62
517.37	31173.60
517.54	30981.67
517.72	31243.81
517.89	31225.09
518.06	31412.33
518.24	31433.39
518.41	31590.21
518.58	31007.42
518.75	31309.35
518.93	31552.76
519.10	31901.50
519.27	32105.13
519.45	31995.12
519.62	32198.75
519.79	31922.57
519.96	31814.90
520.14	32275.99
520.31	32175.34
520.48	32594.30
520.65	32507.70
520.83	32598.98
521.00	32783.88
521.17	32528.77
521.34	32538.13
521.52	32858.78
521.69	32669.20
521.86	32741.75
522.03	32903.25
522.20	33097.52
522.38	33359.66
522.55	33404.13
522.72	32919.63
522.89	33345.61
523.07	33687.33
523.24	33336.25
523.41	33790.31
523.58	33645.20
523.75	33507.11
523.92	33432.21
524.10	33729.46
524.27	33591.37
524.44	33954.15
524.61	33993.94
524.78	33745.84
524.96	33975.22
525.13	34368.43
525.30	34394.17
525.47	34462.05
525.64	34410.56
525.81	34026.71
525.98	34546.31
526.16	34497.16
526.33	34487.79
526.50	34600.14
526.67	34417.58
526.84	34871.64
527.01	34787.38
527.18	34550.99
527.36	34822.49
527.53	35161.87
527.70	35599.55
527.87	35419.33
528.04	34864.62
528.21	35246.13
528.38	35049.52
528.55	35204.00
528.72	35075.27
528.89	35819.56
529.07	35201.66
529.24	35309.32
529.41	35641.68
529.58	35377.20
529.75	35288.26
529.92	35999.78
530.09	35592.53
530.26	35512.95
530.43	35931.90
530.60	35842.96
530.77	35880.41
530.94	36114.47
531.11	35988.08
531.28	36072.34
531.46	36392.99
531.63	36247.88
531.80	36444.48
531.97	36189.36
532.14	36627.04
532.31	36617.68
532.48	36959.40
532.65	36842.37
532.82	36264.26
532.99	36659.81
533.16	36374.27
533.33	36814.29
533.50	36671.51
533.67	37034.30
533.84	36510.02
534.01	36715.98
534.18	36821.31
534.35	37471.98
534.52	37261.33
534.69	37156.00
534.86	37607.73
535.03	37057.70
535.20	37652.20
535.37	37446.23
535.54	37448.57
535.71	37322.18
535.88	37652.20
536.05	37748.16
536.22	37766.88
536.38	37961.15
536.55	37659.22
536.72	37474.32
536.89	37483.68
537.06	37750.50
537.23	38462.02
537.40	38078.18
537.57	38382.45
537.74	38047.75
537.91	38242.01
538.08	38162.43
538.25	37972.85
538.42	38419.89
538.59	38487.77
538.75	37989.24
538.92	38220.95
539.09	38506.49
539.26	38651.61
539.43	38377.76
539.60	38567.35
539.77	38588.41
539.94	38988.64
540.11	38408.19
540.28	38916.09
540.44	38370.74
540.61	38583.73
540.78	38431.60
540.95	38731.18
541.12	39124.40
541.29	38749.91
541.46	39232.06
541.62	38658.63
541.79	38976.94
541.96	39007.37
542.13	38920.77
542.30	39365.47
542.47	39194.61
542.63	39800.81
542.80	39873.37
542.97	39463.77
543.14	39812.51
543.31	39737.62
543.48	39351.43
543.64	40182.32
543.81	39824.22
543.98	39936.56
544.15	40034.86
544.32	40566.16
544.48	40322.75
544.65	40299.34
544.82	40144.87
544.99	40233.81
545.16	40322.75
545.32	40282.96
545.49	40245.51
545.66	40634.04
545.83	40397.65
546.00	40793.20
546.16	40582.55
546.33	40430.41
546.50	40360.20
546.67	40889.16
546.83	40332.11
547.00	40451.48
547.17	40339.13
547.34	40287.64
547.50	40598.93
547.67	40772.13
547.84	40774.47
548.00	40645.74
548.17	41476.63
548.34	41001.50
548.51	41511.74
548.67	41085.76
548.84	41099.81
549.01	40807.24
549.18	41055.34
549.34	41111.51
549.51	41708.35
549.68	41240.24
549.84	41434.50
550.01	41588.98
550.18	41074.06
550.34	41240.24
550.51	41649.83
550.68	41970.49
550.84	41354.93
551.01	41586.64
551.18	41607.70
551.34	41551.53
551.51	41691.96
551.68	41397.06
551.84	41486.00
552.01	41895.59
552.18	41614.72
552.34	41560.89
552.51	41516.42
552.68	41771.54
552.84	42522.85
553.01	41687.28
553.18	41652.17
553.34	41469.61
553.51	42344.97
553.67	42333.27
553.84	42155.39
554.01	42323.91
554.17	42258.37
554.34	42602.43
554.51	42239.65
554.67	42471.36
554.84	42422.21
555.00	42401.14
555.17	42195.18
555.33	42763.93
555.50	42445.62
555.67	42932.45
555.83	42883.30
556.00	42462.00
556.16	42993.30
556.33	42799.04
556.50	42885.64
556.66	42864.57
556.83	42738.18
556.99	43239.06
557.16	42740.52
557.32	43138.41
557.49	43470.77
557.65	42122.62
557.82	42827.12
557.98	43161.82
558.15	42738.18
558.32	43044.79
558.48	42780.31
558.65	43072.88
558.81	43367.79
558.98	42712.44
559.14	43164.16
559.31	43028.41
559.47	43391.19
559.64	42728.82
559.80	43423.96
559.97	43117.35
560.13	43049.47
560.30	43697.80
560.46	43433.32
560.63	43655.67
560.79	43346.72
560.96	43159.48
561.12	43508.22
561.29	43318.64
561.45	43470.77
561.61	43342.04
561.78	43271.82
561.94	43576.09
562.11	43274.16
562.27	43566.73
562.44	43524.60
562.60	43758.66
562.77	43480.13
562.93	43328.00
563.10	43866.32
563.26	43302.25
563.42	44053.56
563.59	43690.78
563.75	43629.93
563.92	43770.36
564.08	43604.18
564.24	44179.95
564.41	43707.16
564.57	43873.34
564.74	43896.75
564.90	43725.89
565.07	43487.15
565.23	43807.81
565.39	44048.88
565.56	44395.28
565.72	43894.41
565.88	43852.28
566.05	43922.49
566.21	44322.72
566.38	43999.73
566.54	44062.93
566.70	43917.81
566.87	44456.14
567.03	43943.56
567.19	44376.56
567.36	44315.70
567.52	44020.80
567.68	44690.19
567.85	44367.20
568.01	44409.32
568.17	44247.83
568.34	44278.25
568.50	44222.08
568.66	43878.02
568.83	44083.99
568.99	44266.55
569.15	44189.31
569.32	44390.60
569.48	44201.02
569.64	44737.00
569.81	44336.77
569.97	44580.18
570.13	44168.25
570.30	44404.64
570.46	44343.79
570.62	44336.77
570.78	44210.38
570.95	44786.15
571.11	44952.33
571.27	44271.23
571.43	44509.97
571.60	44638.70
571.76	44030.16
571.92	44444.43
572.09	44182.29
572.25	44339.11
572.41	44561.46
572.57	44690.19
572.74	44734.66
572.90	44369.54
573.06	44362.51
573.22	44376.56
573.38	44643.38
573.55	44774.45
573.71	45167.66
573.87	44673.81
574.03	44556.78
574.20	44832.96
574.36	44648.06
574.52	44884.45
574.68	44931.26
574.84	44849.35
575.01	45155.96
575.17	44957.01
575.33	44807.22
575.49	44800.19
575.65	44790.83
575.82	44886.79
575.98	44470.18
576.14	45200.43
576.30	45275.32
576.46	45130.21
576.62	44795.51
576.79	44856.37
576.95	44746.36
577.11	44989.78
577.27	45071.70
577.43	44954.67
577.59	44685.51
577.75	44474.86
577.92	44252.51
578.08	44839.98
578.24	44680.83
578.40	45125.53
578.56	44870.41
578.72	44985.10
578.88	45162.98
579.04	45036.59
579.21	44964.03
579.37	45074.04
579.53	45294.05
579.69	44676.15
579.85	44898.50
580.01	44744.02
580.17	45029.57
580.33	45249.58
580.49	44800.19
580.65	45008.50
580.82	44985.10
580.98	44774.45
581.14	45102.12
581.30	44905.52
581.46	45059.99
581.62	45029.57
581.78	44924.24
581.94	45064.67
582.10	44814.24
582.26	45380.65
582.42	45013.18
582.58	45017.86
582.74	45071.70
582.90	44538.05
583.06	45427.46
583.22	44938.29
583.38	45132.55
583.54	44872.75
583.70	45347.88
583.86	45214.47
584.02	45209.79
584.18	45415.76
584.34	45422.78
584.50	45092.76
584.66	45158.30
584.82	44769.77
584.98	45621.72
585.14	45614.70
585.30	44807.22
585.46	45408.73
585.62	44832.96
585.78	44870.41
585.94	44556.78
586.10	45315.11
586.26	45240.21
586.42	45148.93
586.58	45106.80
586.74	45193.40
586.90	45038.93
587.06	45062.33
587.22	45228.51
587.38	45198.09
587.54	45502.35
587.70	45427.46
587.86	45656.83
588.02	45710.66
588.18	45027.23
588.34	45315.11
588.49	45312.77
588.65	45418.10
588.81	45212.13
588.97	45401.71
589.13	45305.75
589.29	45130.21
589.45	45780.88
589.61	45495.33
589.77	45504.70
589.93	45516.40
590.08	45783.22
590.24	45516.40
590.40	45872.16
590.56	45682.58
590.72	45207.45
590.88	45111.49
591.04	45518.74
591.20	45546.82
591.35	45911.95
591.51	45687.26
591.67	45670.87
591.83	45879.18
591.99	45792.58
592.15	45586.61
592.31	45291.71
592.46	45640.45
592.62	45586.61
592.78	45497.67
592.94	46117.92
593.10	45951.74
593.26	46113.23
593.41	45717.68
593.57	45916.63
593.73	45755.13
593.89	46356.65
594.05	45921.31
594.20	45820.67
594.36	45989.19
594.52	45977.48
594.68	45226.17
594.84	45867.48
594.99	46122.60
595.15	45879.18
595.31	46075.79
595.47	45666.19
595.62	45684.92
595.78	45661.51
595.94	46092.17
596.10	45635.77
596.25	46085.15
596.41	46141.32
596.57	45736.41
596.73	46281.75
596.88	46178.77
597.04	45663.85
597.20	45897.91
597.36	45785.56
597.51	45972.80
597.67	45949.40
597.83	45968.12
597.99	46036.00
598.14	46286.43
598.30	45741.09
598.46	45724.71
598.61	46202.18
598.77	45806.62
598.93	46036.00
599.09	45773.86
599.24	46677.30
599.40	45947.06
599.56	45984.51
599.71	46380.06
599.87	46838.80
600.03	46363.67
600.18	45858.12
600.34	45881.52
600.50	46099.19
600.65	46220.90
600.81	46436.23
600.97	46307.50
601.12	46108.55
601.28	45846.41
601.44	45911.95
601.59	46028.98
601.75	45865.14
601.91	46220.90
602.06	46014.93
602.22	46209.20
602.37	46380.06
602.53	46494.74
602.69	46438.57
602.84	46059.40
603.00	46085.15
603.16	46019.61
603.31	45954.08
603.47	46438.57
603.62	46000.89
603.78	46775.61
603.94	46038.34
604.09	45801.94
604.25	45928.33
604.40	45722.37
604.56	45647.47
604.71	46031.32
604.87	46007.91
605.03	46099.19
605.18	46307.50
605.34	45928.33
605.49	45544.48
605.65	45916.63
605.80	45607.68
605.96	46279.41
606.12	45635.77
606.27	46054.72
606.43	45345.54
606.58	45680.24
606.74	46150.68
606.89	45923.65
607.05	46103.87
607.20	46061.74
607.36	45755.13
607.51	45813.65
607.67	46122.60
607.82	46066.42
607.98	46461.97
608.13	45722.37
608.29	46143.66
608.44	45684.92
608.60	45603.00
608.75	46012.59
608.91	45839.39
609.06	45340.86
609.22	46253.67
609.37	45497.67
609.53	46148.34
609.68	46101.53
609.84	45521.08
609.99	45778.54
610.15	45717.68
610.30	45876.84
610.46	45710.66
610.61	45940.04
610.76	45930.67
610.92	45610.02
611.07	45560.87
611.23	45308.09
611.38	45649.81
611.54	45872.16
611.69	45881.52
611.84	46061.74
612.00	45595.98
612.15	45708.32
612.31	45691.94
612.46	45043.61
612.62	45635.77
612.77	45207.45
612.92	45577.25
613.08	45132.55
613.23	45579.59
613.39	45502.35
613.54	45263.62
613.69	45577.25
613.85	45298.73
614.00	45633.42
614.15	45701.30
614.31	45298.73
614.46	45408.73
614.62	45104.46
614.77	45418.10
614.92	45652.15
615.08	45097.44
615.23	45422.78
615.38	45507.04
615.54	45701.30
615.69	45209.79
615.84	45265.96
616.00	45556.19
616.15	45457.88
616.30	45254.26
616.46	44987.44
616.61	45132.55
616.76	45378.31
616.92	44720.62
617.07	45535.12
617.22	45167.66
617.37	44783.81
617.53	45212.13
617.68	44816.58
617.83	44713.59
617.99	44844.66
618.14	45017.86
618.29	44910.20
618.45	44699.55
618.60	44425.71
618.75	44573.16
618.90	44327.41
619.06	44985.10
619.21	44573.16
619.36	45214.47
619.51	44603.59
619.67	44147.18
619.82	44744.02
619.97	44968.71
620.12	44933.60
620.28	44304.00
620.43	44861.05
620.58	45010.84
620.73	44837.64
620.89	44800.19
621.04	44783.81
621.19	44542.74
621.34	44196.34
621.49	44243.15
621.65	44678.49
621.80	44856.37
621.95	44847.00
622.10	44540.39
622.25	44334.43
622.41	44619.97
622.56	44350.81
622.71	44470.18
622.86	44463.16
623.01	44238.47
623.16	44453.79
623.32	44182.29
623.47	44332.09
623.62	43924.83
623.77	44353.15
623.92	44126.12
624.07	44224.42
624.23	44236.12
624.38	44039.52
624.53	44442.09
624.68	44109.74
624.83	43854.62
624.98	44617.63
625.13	43597.16
625.29	43761.00
625.44	43889.73
625.59	44229.10
625.74	44170.59
625.89	43838.23
626.04	43838.23
626.19	43775.04
626.34	44140.16
626.49	43798.44
626.65	43510.56
626.80	43849.94
626.95	43697.80
627.10	43421.62
627.25	43957.60
627.40	43491.83
627.55	43384.17
627.70	43599.50
627.85	43681.42
628.00	43615.88
628.15	43842.92
628.30	43562.05
628.45	43138.41
628.60	43136.07
628.76	43110.33
628.91	43683.76
629.06	42794.36
629.21	43005.00
629.36	43199.27
629.51	43133.73
629.66	43505.88
629.81	42995.64
629.96	43185.22
630.11	43058.84
630.26	42955.85
630.41	43203.95
630.56	43262.46
630.71	43311.61
630.86	42981.60
631.01	42993.30
631.16	42658.60
631.31	42895.00
631.46	43026.07
631.61	42972.24
631.76	43112.67
631.91	43105.65
632.06	43323.32
632.21	42857.55
632.36	42899.68
632.51	42321.57
632.66	43365.45
632.81	42536.90
632.96	42948.83
633.10	42344.97
633.25	42256.03
633.40	42747.54
633.55	42738.18
633.70	42607.11
633.85	42167.09
634.00	42518.17
634.15	42457.32
634.30	42639.88
634.45	42494.77
634.60	42431.57
634.75	42445.62
634.90	42361.36
635.05	42679.67
635.19	42464.34
635.34	42443.27
635.49	42548.60
635.64	42330.93
635.79	42546.26
635.94	42279.44
636.09	42796.70
636.24	42071.13
636.39	42403.49
636.53	42508.81
636.68	42003.25
636.83	42419.87
636.98	42050.06
637.13	41816.01
637.28	42110.92
637.43	42302.84
637.57	41862.82
637.72	41170.02
637.87	42073.47
638.02	42284.12
638.17	42050.06
638.32	41848.78
638.46	41495.36
638.61	41605.36
638.76	41523.44
638.91	41823.03
639.06	41567.91
639.20	41347.90
639.35	41823.03
639.50	41563.23
639.65	41673.24
639.80	41560.89
639.94	41724.73
640.09	42007.94
640.24	41607.70
640.39	41443.87
640.54	41315.14
640.68	41766.86
640.83	41406.42
640.98	41392.37
641.13	41722.39
641.27	41493.02
641.42	41691.96
641.57	41305.77
641.72	41614.72
641.86	41483.66
642.01	40748.73
642.16	41053.00
642.31	40732.34
642.45	41420.46
642.60	41542.17
642.75	41139.60
642.90	41387.69
643.04	41092.79
643.19	40926.61
643.34	41193.43
643.48	40762.77
643.63	41139.60
643.78	41125.55
643.93	41177.04
644.07	41542.17
644.22	41092.79
644.37	40865.75
644.51	41081.08
644.66	41120.87
644.81	40945.33
644.95	41368.97
645.10	40568.51
645.25	40383.60
645.39	40465.52
645.54	40034.86
645.69	40289.98
645.83	40589.57
645.98	40470.20
646.13	40388.28
646.27	40311.05
646.42	40020.82
646.57	40416.37
646.71	40732.34
646.86	40610.64
647.00	40453.82
647.15	40502.97
647.30	40414.03
647.44	40449.14
647.59	40133.17
647.74	40439.78
647.88	40369.56
648.03	40634.04
648.17	40554.46
648.32	40416.37
648.47	40463.18
648.61	40130.83
648.76	40187.00
648.90	40196.36
649.05	40374.24
649.20	40278.28
649.34	39864.00
649.49	40439.78
649.63	40084.01
649.78	40158.91
649.92	39945.92
650.07	40549.78
650.21	40275.94
650.36	40184.66
650.51	40027.84
650.65	40341.47
650.80	40168.27
650.94	39868.69
651.09	39969.33
651.23	39482.50
651.38	39585.48
651.52	39592.50
651.67	39807.83
651.81	39723.57
651.96	39730.59
652.10	39438.03
652.25	39555.05
652.39	39906.13
652.54	40161.25
652.68	39599.52
652.83	39402.92
652.97	39435.69
653.12	39562.08
653.26	39459.09
653.41	39899.11
653.55	39260.15
653.70	39674.42
653.84	39541.01
653.99	39372.49
654.13	39452.07
654.27	39182.91
654.42	39112.69
654.56	39328.02
654.71	39634.63
654.85	39800.81
655.00	39138.44
655.14	39821.87
655.29	39335.04
655.43	39611.23
655.57	39175.89
655.72	38787.36
655.86	38976.94
656.01	38787.36
656.15	38822.47
656.30	39299.94
656.44	39061.20
656.58	39239.08
656.73	38820.13
656.87	38511.17
657.01	38630.54
657.16	38902.04
657.30	38253.72
657.45	38534.58
657.59	38403.51
657.73	38246.69
657.88	38974.60
658.02	38555.64
658.16	38672.67
658.31	38642.24
658.45	38560.33
658.60	38192.86
658.74	38377.76
658.88	38515.86
659.03	38122.65
659.17	38017.32
659.31	38302.87
659.46	38242.01
659.60	38518.20
659.74	38391.81
659.89	37879.23
660.03	37284.73
660.17	38014.98
660.32	38068.81
660.46	38106.26
660.60	37701.35
660.74	37699.01
660.89	37954.13
661.03	37701.35
661.17	37399.42
661.32	37022.59
661.46	37855.82
661.60	37394.74
661.74	37350.27
661.89	37542.19
662.03	37301.12
662.17	37600.71
662.31	37088.13
662.46	37525.81
662.60	37193.45
662.74	37003.87
662.88	36505.34
663.03	36460.87
663.17	36926.63
663.31	36809.61
663.45	36971.10
663.60	37294.10
663.74	37022.59
663.88	37148.98
664.02	36503.00
664.17	37010.89
664.31	36690.24
664.45	36306.39
664.59	36467.89
664.73	36144.89
664.88	36271.28
665.02	36088.72
665.16	36411.71
665.30	36418.74
665.44	36208.09
665.59	35922.54
665.73	36018.50
665.87	35606.57
666.01	36191.70
666.15	35875.73
666.29	35800.83
666.44	36161.28
666.58	35920.20
666.72	35934.24
666.86	35555.08
667.00	35632.32
667.14	35505.93
667.28	35459.12
667.43	35662.74
667.57	35597.21
667.71	35555.08
667.85	35807.86
667.99	35138.46
668.13	35379.54
668.27	35044.84
668.41	35138.46
668.56	34534.60
668.70	34824.83
668.84	34836.53
668.98	34583.76
669.12	34883.34
669.26	34483.11
669.40	34558.01
669.54	34735.89
669.68	34307.57
669.82	34579.07
669.96	34211.61
670.10	34368.43
670.25	34457.37
670.39	34169.48
670.53	34363.75
670.67	34246.72
670.81	34267.78
670.95	34328.64
671.09	33816.06
671.23	34164.80
671.37	33942.45
671.51	33839.47
671.65	33785.63
671.79	33586.69
671.93	33771.59
672.07	33958.83
672.21	33294.12
672.35	32978.15
672.49	33528.17
672.63	33591.37
672.77	33134.96
672.91	33071.77
673.05	33249.65
673.19	32484.30
673.33	32664.52
673.47	32870.48
673.61	32774.52
673.75	32456.21
673.89	32622.39
674.03	32261.94
674.17	32350.88
674.31	32168.32
674.45	31812.56
674.59	32039.59
674.73	32133.21
674.87	31913.20
675.01	31817.24
675.15	31674.47
675.29	31417.01
675.43	31569.15
675.56	32177.68
675.70	31543.40
675.84	31248.49
675.98	30338.02
676.12	31084.65
676.26	31501.27
676.40	31398.29
676.54	31112.74
676.68	30682.08
676.82	30216.32
676.96	30843.58
677.10	30768.68
677.23	30562.72
677.37	30827.20
677.51	30726.55
677.65	30714.85
677.79	30305.26
677.93	30003.33
678.07	30284.19
678.21	29977.58
678.34	29949.50
678.48	29734.17
678.62	29970.56
678.76	29759.91
678.90	29528.20
679.04	29490.75
679.18	29689.70
679.31	29134.99
679.45	28783.91
679.59	29177.12
679.73	28659.86
679.87	28868.17
680.00	28741.78
680.14	28533.47
680.28	28746.46
680.42	28521.77
680.56	28624.75
680.70	28489.00
680.83	28273.67
680.97	28287.71
681.11	28456.23
681.25	28292.40
681.39	27838.33
681.52	27892.16
681.66	27473.21
681.80	27190.00
681.94	26986.38
682.07	27442.78
682.21	27168.94
682.35	27091.70
682.49	27154.90
682.62	27180.64
682.76	27211.07
682.90	26874.03
683.04	26986.38
683.17	26792.11
683.31	26286.56
683.45	26452.73
683.59	26061.87
683.72	26068.89
683.86	25827.81
684.00	25830.15
684.13	26249.11
684.27	25692.06
684.41	25900.37
684.55	25848.88
684.68	25991.65
684.82	25123.31
684.96	25266.08
685.09	25348.00
685.23	25280.13
685.37	25605.46
685.50	25549.29
685.64	25406.52
685.78	24947.77
685.91	25067.14
686.05	24650.52
686.19	24482.00
686.32	24613.07
686.46	24058.37
686.60	24343.91
686.73	24540.52
686.87	23723.67
687.01	24091.13
687.14	24311.14
687.28	24119.22
687.42	23784.52
687.55	23445.15
687.69	24070.07
687.82	23513.02
687.96	23555.15
688.10	23470.89
688.23	23744.73
688.37	23377.27
688.50	23300.03
688.64	23520.04
688.78	22841.29
688.91	22911.50
689.05	23023.85
689.18	22576.81
689.32	22373.18
689.46	22405.95
689.59	22532.34
689.73	22775.75
689.86	22792.14
690.00	22207.00
690.13	22349.78
690.27	22263.18
690.41	22305.31
690.54	21769.32
690.68	21706.13
690.81	21717.83
690.95	21598.46
691.08	21467.39
691.22	21268.45
691.35	21144.40
691.49	21434.63
691.62	21256.75
691.76	20994.61
691.89	20849.49
692.03	20561.61
692.16	20372.02
692.30	20833.11
692.43	20585.01
692.57	20409.47
692.70	20210.53
692.84	20343.94
692.97	20130.95
693.11	20098.18
693.24	19976.47
693.38	19807.95
693.51	19894.55
693.65	19868.81
693.78	19777.53
693.92	19625.39
694.05	19503.68
694.19	19461.55
694.32	19346.87
694.45	19936.68
694.59	19115.16
694.72	19819.66
694.86	19124.52
694.99	18806.20
695.13	18827.27
695.26	18689.18
695.39	18342.78
695.53	18675.13
695.66	18707.90
695.80	18647.05
695.93	18483.21
696.07	18047.87
696.20	18237.45
696.33	17928.50
696.47	18029.15
696.60	17825.52
696.73	18061.91
696.87	17577.42
697.00	18005.74
697.14	17682.75
697.27	17432.31
697.40	17654.66
697.54	17664.02
697.67	17659.34
697.80	17174.85
697.94	17224.00
698.07	17095.27
698.21	17104.64
698.34	17015.69
698.47	16610.78
698.61	16414.18
698.74	16688.02
698.87	16774.62
699.01	16484.39
699.14	16421.20
699.27	16629.51
699.40	16573.33
699.54	16196.51
699.67	16262.04
699.80	16257.36
699.94	15871.17
700.07	15976.50
700.20	15817.34
700.34	15721.38
700.47	16027.99
700.60	16166.08
700.73	15693.29
700.87	15358.60
701.00	15332.85
701.13	15044.96
701.26	15105.82
701.40	15204.12
701.53	15080.07
701.66	15094.11
701.79	15094.11
701.93	14768.78
702.06	14761.76
702.19	14525.36
702.32	15014.54
702.46	14843.68
702.59	14785.16
702.72	15012.20
702.85	14768.78
702.99	14427.06
703.12	13949.59
703.25	14195.35
703.38	14139.18
703.51	14125.13
703.65	14122.79
703.78	13998.74
703.91	13687.45
704.04	13872.36
704.17	13668.73
704.31	13661.71
704.44	13785.76
704.57	13385.52
704.70	13476.80
704.83	13275.52
704.96	13228.71
705.10	13212.32
705.23	13107.00
>>>>>End Processed Spectral Data<<<<<
