SpectraSuite Data File
++++++++++++++++++++++++++++++++++++
Date: Fri Oct 25 11:33:18 EDT 2013
User: price-jones
Dark Spectrum Present: No
Reference Spectrum Present: No
Number of Sampled Component Spectra: 1
Spectrometers: USB2+H05261
Integration Time (usec): 100000 (USB2+H05261)
Spectra Averaged: 1 (USB2+H05261)
Boxcar Smoothing: 0 (USB2+H05261)
Correct for Electrical Dark: No (USB2+H05261)
Strobe/Lamp Enabled: No (USB2+H05261)
Correct for Detector Non-linearity: No (USB2+H05261)
Correct for Stray Light: No (USB2+H05261)
Number of Pixels in Processed Spectrum: 2048
>>>>>Begin Processed Spectral Data<<<<<
365.73	255.12
365.92	255.12
366.12	255.12
366.32	135.75
366.52	187.24
366.72	182.56
366.91	182.56
367.11	93.62
367.31	173.20
367.51	203.63
367.70	117.03
367.90	170.86
368.10	205.97
368.30	229.37
368.49	161.50
368.69	205.97
368.89	203.63
369.09	243.42
369.28	208.31
369.48	135.75
369.68	301.93
369.87	278.52
370.07	184.90
370.27	297.25
370.47	304.27
370.66	517.26
370.86	521.94
371.06	512.58
371.25	547.69
371.45	587.47
371.65	538.32
371.84	486.83
372.04	578.11
372.24	634.29
372.44	622.58
372.63	608.54
372.83	603.86
373.03	594.50
373.22	564.07
373.42	645.99
373.62	526.62
373.81	660.03
374.01	599.18
374.21	512.58
374.40	655.35
374.60	589.82
374.79	683.44
374.99	629.60
375.19	660.03
375.38	697.48
375.58	655.35
375.78	669.39
375.97	744.29
376.17	678.76
376.37	627.26
376.56	697.48
376.76	645.99
376.95	681.10
377.15	631.94
377.35	704.50
377.54	692.80
377.74	685.78
377.93	641.31
378.13	662.37
378.33	765.36
378.52	667.05
378.72	695.14
378.91	674.07
379.11	688.12
379.31	648.33
379.50	662.37
379.70	725.57
379.89	662.37
380.09	739.61
380.28	596.84
380.48	741.95
380.68	702.16
380.87	760.67
381.07	788.76
381.26	840.25
381.46	873.02
381.65	858.98
381.85	767.70
382.04	758.33
382.24	826.21
382.43	816.85
382.63	777.06
382.83	819.19
383.02	873.02
383.22	844.93
383.41	910.47
383.61	863.66
383.80	781.74
384.00	779.40
384.19	821.53
384.39	854.30
384.58	821.53
384.78	875.36
384.97	779.40
385.17	912.81
385.36	837.91
385.56	772.38
385.75	835.57
385.95	798.12
386.14	847.27
386.34	791.10
386.53	898.77
386.72	844.93
386.92	884.72
387.11	917.49
387.31	922.17
387.50	840.25
387.70	910.47
387.89	903.45
388.09	938.55
388.28	924.51
388.48	1095.37
388.67	1046.22
388.86	938.55
389.06	929.19
389.25	917.49
389.45	894.08
389.64	980.68
389.84	971.32
390.03	976.00
390.22	1001.75
390.42	917.49
390.61	973.66
390.81	983.02
391.00	997.07
391.19	973.66
391.39	985.37
391.58	1074.31
391.78	999.41
391.97	1088.35
392.16	985.37
392.36	1109.41
392.55	1025.15
392.75	1048.56
392.94	1083.67
393.13	1083.67
393.33	1048.56
393.52	1055.58
393.71	1090.69
393.91	1046.22
394.10	1074.31
394.29	1144.52
394.49	1118.78
394.68	1111.75
394.88	1074.31
395.07	1219.42
395.26	1188.99
395.46	1142.18
395.65	1153.88
395.84	1235.80
396.04	1331.76
396.23	1254.53
396.42	1210.06
396.62	1233.46
396.81	1280.27
397.00	1221.76
397.19	1217.08
397.39	1207.72
397.58	1205.38
397.77	1193.67
397.97	1322.40
398.16	1205.38
398.35	1327.08
398.55	1240.48
398.74	1301.34
398.93	1364.53
399.12	1320.06
399.32	1338.79
399.51	1217.08
399.70	1380.92
399.90	1324.74
400.09	1313.04
400.28	1387.94
400.47	1390.28
400.67	1462.83
400.86	1488.58
401.05	1378.58
401.24	1448.79
401.44	1453.47
401.63	1455.81
401.82	1486.24
402.01	1392.62
402.21	1598.59
402.40	1383.26
402.59	1481.56
402.78	1488.58
402.97	1476.88
403.17	1565.82
403.36	1561.14
403.55	1561.14
403.74	1605.61
403.93	1535.39
404.13	1617.31
404.32	1591.56
404.51	1671.14
404.70	1762.42
404.89	1638.38
405.09	1739.02
405.28	1619.65
405.47	1570.50
405.66	1795.19
405.85	1680.50
406.05	1699.23
406.24	1675.82
406.43	1673.48
406.62	1713.27
406.81	1788.17
407.00	1757.74
407.20	1846.68
407.39	1865.41
407.58	1820.94
407.77	1834.98
407.96	1912.22
408.15	1930.94
408.34	1870.09
408.54	1975.41
408.73	1886.47
408.92	1937.96
409.11	1996.48
409.30	2010.52
409.49	2026.90
409.68	1970.73
409.87	2050.31
410.07	2043.29
410.26	2069.03
410.45	1977.75
410.64	1987.11
410.83	2083.08
411.02	2108.82
411.21	2190.74
411.40	2155.63
411.59	2204.78
411.78	2113.50
411.98	2211.81
412.17	2214.15
412.36	2347.56
412.55	2298.41
412.74	2377.98
412.93	2300.75
413.12	2328.83
413.31	2480.97
413.50	2300.75
413.69	2370.96
413.88	2551.18
414.07	2417.77
414.26	2532.46
414.45	2532.46
414.64	2555.86
414.83	2560.55
415.02	2635.44
415.22	2661.19
415.41	2569.91
415.60	2757.15
415.79	2630.76
415.98	2773.53
416.17	2743.11
416.36	2747.79
416.55	2708.00
416.74	2836.73
416.93	2773.53
417.12	2904.60
417.31	2848.43
417.50	2874.18
417.69	2843.75
417.88	3023.97
418.07	2925.67
418.26	2930.35
418.45	2946.73
418.64	3110.57
418.83	3014.61
419.02	3026.31
419.21	3138.66
419.39	3084.83
419.58	3035.67
419.77	3110.57
419.96	3304.84
420.15	3164.40
420.34	3077.80
420.53	3157.38
420.72	3239.30
420.91	3190.15
421.10	3218.24
421.29	3290.79
421.48	3227.60
421.67	3197.17
421.86	3307.18
422.05	3339.94
422.24	3337.60
422.43	3351.65
422.61	3368.03
422.80	3492.08
422.99	3382.07
423.18	3478.04
423.37	3435.91
423.56	3332.92
423.75	3386.76
423.94	3293.13
424.13	3185.47
424.32	3267.39
424.50	3353.99
424.69	3503.78
424.88	3405.48
425.07	3552.93
425.26	3438.25
425.45	3414.84
425.64	3424.20
425.83	3361.01
426.01	3407.82
426.20	3485.06
426.39	3447.61
426.58	3435.91
426.77	3501.44
426.96	3485.06
427.15	3676.98
427.33	3555.27
427.52	3510.80
427.71	3709.75
427.90	3660.60
428.09	3597.40
428.28	3775.28
428.46	3749.54
428.65	3667.62
428.84	3796.35
429.03	3960.19
429.22	3644.21
429.40	3829.12
429.59	3747.20
429.78	3627.83
429.97	3716.77
430.16	3826.78
430.34	3836.14
430.53	3957.85
430.72	3957.85
430.91	3896.99
431.10	3843.16
431.28	3857.20
431.47	3978.91
431.66	4201.26
431.85	3985.93
432.03	4058.49
432.22	4177.86
432.41	4124.02
432.60	4079.55
432.79	3981.25
432.97	3985.93
433.16	4227.01
433.35	4002.32
433.54	4348.72
433.72	4215.30
433.91	4128.70
434.10	4229.35
434.28	4173.18
434.47	4414.25
434.66	4266.80
434.85	4407.23
435.03	4241.05
435.22	4264.46
435.41	4510.21
435.59	4381.48
435.78	4416.59
435.97	4545.32
436.16	4451.70
436.34	4444.68
436.53	4432.97
436.72	4521.92
436.90	4430.63
437.09	4641.28
437.28	4325.31
437.46	4608.51
437.65	4444.68
437.84	4685.75
438.02	4561.70
438.21	4706.82
438.40	4662.35
438.58	4706.82
438.77	4842.57
438.96	4781.71
439.14	4800.44
439.33	4793.42
439.52	4894.06
439.70	4999.38
439.89	5081.30
440.08	5032.15
440.26	5015.77
440.45	5015.77
440.63	4978.32
440.82	5315.36
441.01	5076.62
441.19	5226.42
441.38	5238.12
441.57	5294.29
441.75	5224.08
441.94	5437.06
442.12	5406.64
442.31	5430.04
442.50	5486.22
442.68	5469.83
442.87	5413.66
443.05	5446.43
443.24	5652.39
443.43	5570.48
443.61	5708.57
443.80	5748.36
443.98	5383.23
444.17	5509.62
444.35	5547.07
444.54	5699.20
444.73	5664.10
444.91	5710.91
445.10	5659.42
445.28	5668.78
445.47	5605.58
445.65	5750.70
445.84	5827.93
446.02	5823.25
446.21	5776.44
446.39	5614.95
446.58	5764.74
446.77	5640.69
446.95	5582.18
447.14	5621.97
447.32	5853.68
447.51	5834.96
447.69	5701.54
447.88	5949.64
448.06	5710.91
448.25	5795.17
448.43	5715.59
448.62	5921.56
448.80	5923.90
448.99	6050.28
449.17	6017.52
449.36	5935.60
449.54	6064.33
449.73	6033.90
449.91	6122.84
450.10	6069.01
450.28	6097.10
450.46	6270.30
450.65	6026.88
450.83	6099.44
451.02	6008.16
451.20	6354.55
451.39	6307.74
451.57	6387.32
451.76	6150.93
451.94	6274.98
452.13	6183.70
452.31	6466.90
452.49	6188.38
452.68	6207.10
452.86	6317.11
453.05	6298.38
453.23	6429.45
453.42	6513.71
453.60	6289.02
453.78	6586.27
453.97	6328.81
454.15	6497.33
454.34	6342.85
454.52	6464.56
454.70	6513.71
454.89	6478.60
455.07	6623.72
455.26	6612.01
455.44	6703.29
455.62	6757.13
455.81	6825.00
455.99	6792.23
456.17	6705.63
456.36	6766.49
456.54	6956.07
456.73	6946.71
456.91	7283.75
457.09	6970.12
457.28	7199.49
457.46	7087.14
457.64	7119.91
457.83	7246.30
458.01	7080.12
458.19	7286.09
458.38	7225.23
458.56	7222.89
458.74	7375.03
458.93	7325.88
459.11	7318.86
459.29	7269.70
459.48	7222.89
459.66	7447.58
459.84	7655.89
460.03	7447.58
460.21	7585.68
460.39	7414.82
460.57	7421.84
460.76	7592.70
460.94	7730.79
461.12	7548.23
461.31	7573.97
461.49	7428.86
461.67	7648.87
461.85	7613.76
462.04	7559.93
462.22	8273.79
462.40	7847.82
462.59	7737.81
462.77	7864.20
462.95	7988.25
463.13	7793.98
463.32	7903.99
463.50	7714.41
463.68	7864.20
463.86	7749.51
464.05	7714.41
464.23	7758.88
464.41	7960.16
464.59	7733.13
464.78	8255.07
464.96	8184.85
465.14	8044.42
465.32	8060.80
465.50	8149.75
465.69	8271.45
465.87	8386.14
466.05	8032.72
466.23	7939.10
466.41	8126.34
466.60	8524.23
466.78	8231.66
466.96	8184.85
467.14	8255.07
467.32	8318.26
467.51	8252.73
467.69	8269.11
467.87	8327.63
468.05	8615.51
468.23	8369.76
468.41	8432.95
468.60	8365.07
468.78	8512.53
468.96	8479.76
469.14	8753.60
469.32	8676.37
469.50	8486.78
469.69	8723.18
469.87	8889.35
470.05	8882.33
470.23	8898.72
470.41	9076.60
470.59	9001.70
470.77	8912.76
470.95	8994.68
471.14	9195.96
471.32	8744.24
471.50	8922.12
471.68	9060.21
471.86	9055.53
472.04	9179.58
472.22	9404.27
472.40	8924.46
472.58	9338.74
472.77	9533.00
472.95	9657.05
473.13	9888.76
473.31	9408.95
473.49	9500.23
473.67	9444.06
473.85	9640.67
474.03	9689.82
474.21	9731.95
474.39	9830.25
474.57	9970.68
474.75	9928.55
474.93	10073.67
475.12	10059.62
475.30	10108.77
475.48	10071.33
475.66	10139.20
475.84	10197.71
476.02	10279.63
476.20	10239.84
476.38	10583.90
476.56	10808.59
476.74	10497.30
476.92	10733.70
477.10	10633.05
477.28	10848.38
477.46	10960.73
477.64	10953.71
477.82	11075.42
478.00	11288.40
478.18	11178.40
478.36	11297.77
478.54	11613.74
478.72	11426.50
478.90	11742.47
479.08	11709.70
479.26	11620.76
479.44	11686.29
479.62	11929.71
479.80	12037.38
479.98	12152.06
480.16	12278.45
480.34	12233.98
480.52	12638.89
480.70	12428.24
480.88	12362.71
481.06	12250.36
481.24	12468.03
481.41	12446.97
481.59	12638.89
481.77	12973.59
481.95	13128.06
482.13	13088.28
482.31	12985.29
482.49	13495.53
482.67	13261.48
482.85	13659.37
483.03	13762.35
483.21	13729.58
483.39	13961.30
483.57	13951.93
483.74	13881.72
483.92	14260.88
484.10	14099.39
484.28	14558.13
484.46	14462.17
484.64	14792.19
484.82	14492.60
485.00	14705.59
485.18	15000.49
485.35	15208.80
485.53	15166.67
485.71	15103.48
485.89	15665.21
486.07	15461.58
486.25	15480.30
486.43	15763.51
486.61	15964.79
486.78	15990.54
486.96	15861.81
487.14	16166.08
487.32	16388.43
487.50	16355.66
487.68	16786.32
487.85	16791.00
488.03	16854.20
488.21	17130.38
488.39	17139.74
488.57	17432.31
488.75	17448.69
488.92	17385.50
489.10	17654.66
489.28	17776.37
489.46	18059.57
489.64	17914.46
489.81	18403.63
489.99	18377.89
490.17	18511.30
490.35	18757.05
490.53	18415.34
490.70	18815.57
490.88	18771.10
491.06	19321.12
491.24	18918.55
491.41	19246.23
491.59	19332.82
491.77	19234.52
491.95	19541.13
492.13	19793.91
492.30	19683.91
492.48	19859.45
492.66	20053.71
492.84	20004.56
493.01	20456.28
493.19	20140.31
493.37	20320.53
493.54	20725.44
493.72	20479.69
493.90	20746.51
494.08	21064.82
494.25	21025.03
494.43	21120.99
494.61	21289.51
494.79	21500.16
494.96	21242.70
495.14	21310.58
495.32	21879.33
495.49	22207.00
495.67	22192.96
495.85	22256.15
496.02	22324.03
496.20	22829.59
496.38	22443.40
496.55	22593.19
496.73	22810.86
496.91	22916.19
497.09	22993.42
497.26	23508.34
497.44	23304.71
497.62	23269.61
497.79	24013.90
497.97	23576.22
498.14	23730.69
498.32	24128.58
498.50	23733.03
498.67	23943.68
498.85	24219.86
499.03	24004.53
499.20	24203.48
499.38	24283.06
499.56	24896.28
499.73	24905.64
499.91	24809.68
500.08	24692.65
500.26	24526.47
500.44	25015.65
500.61	25111.61
500.79	25228.63
500.97	25275.45
501.14	25558.65
501.32	25579.71
501.49	25142.03
501.67	25495.46
501.84	25671.00
502.02	25539.93
502.20	25881.64
502.37	25867.60
502.55	26141.44
502.72	25909.73
502.90	26146.12
503.07	25954.20
503.25	26277.19
503.43	26239.75
503.60	26251.45
503.78	26738.28
503.95	26696.15
504.13	26726.58
504.30	26780.41
504.48	26955.95
504.65	26955.95
504.83	26948.93
505.01	27166.60
505.18	27192.34
505.36	27716.62
505.53	27302.35
505.71	27297.67
505.88	27931.95
506.06	27391.29
506.23	27454.48
506.41	27330.44
506.58	27665.13
506.76	28467.94
506.93	28128.56
507.11	28002.17
507.28	28175.37
507.46	28549.85
507.63	28493.68
507.81	28746.46
507.98	28271.33
508.16	28725.39
508.33	28938.38
508.50	28807.31
508.68	28847.10
508.85	28940.72
509.03	29326.91
509.20	29200.52
509.38	29806.72
509.55	29411.17
509.73	29865.24
509.90	29977.58
510.08	29827.79
510.25	29788.00
510.42	29797.36
510.60	29996.31
510.77	30080.56
510.95	30548.67
511.12	29984.60
511.30	29961.20
511.47	30232.70
511.64	30314.62
511.82	30225.68
511.99	30429.30
512.17	30450.37
512.34	30228.02
512.51	31000.40
512.69	31096.36
512.86	30904.43
513.04	31222.75
513.21	31019.12
513.38	31391.26
513.56	31510.63
513.73	31318.71
513.90	31391.26
514.08	31496.59
514.25	31648.72
514.43	31538.72
514.60	31477.86
514.77	31934.27
514.95	32011.51
515.12	32247.90
515.29	32009.17
515.47	32067.68
515.64	32280.67
515.81	32264.28
515.99	32594.30
516.16	32716.01
516.33	32664.52
516.51	32407.06
516.68	32510.04
516.85	32783.88
517.03	32657.49
517.20	33151.35
517.37	32996.87
517.54	33174.75
517.72	33034.32
517.89	33284.76
518.06	33202.84
518.24	32676.22
518.41	33586.69
518.58	33525.83
518.75	33160.71
518.93	33532.86
519.10	33586.69
519.27	33741.16
519.45	33216.88
519.62	33696.69
519.79	34099.26
519.96	34274.80
520.14	34094.58
520.31	33624.14
520.48	34256.08
520.65	34330.98
520.83	34967.60
521.00	35058.88
521.17	34820.15
521.34	34602.48
521.52	34888.03
521.69	34691.42
521.86	34899.73
522.03	34787.38
522.20	35564.44
522.38	35180.59
522.55	35416.99
522.72	35213.36
522.89	35700.19
523.07	35629.98
523.24	35519.97
523.41	35658.06
523.58	35314.00
523.75	35665.08
523.92	35618.27
524.10	35732.96
524.27	35732.96
524.44	36545.12
524.61	36011.48
524.78	36180.00
524.96	36435.12
525.13	36460.87
525.30	36163.62
525.47	36245.54
525.64	36240.86
525.81	36552.15
525.98	36711.30
526.16	36851.73
526.33	36678.54
526.50	36627.04
526.67	36538.10
526.84	36692.58
527.01	36704.28
527.18	36980.46
527.36	37390.06
527.53	37600.71
527.70	37223.88
527.87	37589.00
528.04	37275.37
528.21	37385.38
528.38	37359.63
528.55	37305.80
528.72	37521.13
528.89	37801.99
529.07	37202.82
529.24	37694.33
529.41	38026.68
529.58	37710.71
529.75	37614.75
529.92	38024.34
530.09	37839.44
530.26	37591.34
530.43	38249.03
530.60	37909.66
530.77	38014.98
530.94	38258.40
531.11	38162.43
531.28	38321.59
531.46	38546.28
531.63	38520.54
531.80	38450.32
531.97	38426.92
532.14	38572.03
532.31	38618.84
532.48	38852.89
532.65	38876.30
532.82	38232.65
532.99	38778.00
533.16	38815.44
533.33	39335.04
533.50	39281.21
533.67	39367.81
533.84	38686.71
534.01	39367.81
534.18	38895.02
534.35	39803.15
534.52	39557.39
534.69	39646.33
534.86	39959.97
535.03	39201.63
535.20	39309.30
535.37	39817.19
535.54	39929.54
535.71	39222.70
535.88	40069.97
536.05	39910.82
536.22	40184.66
536.38	40409.35
536.55	39931.88
536.72	40044.23
536.89	40102.74
537.06	40332.11
537.23	40184.66
537.40	40245.51
537.57	40327.43
537.74	39903.79
537.91	40432.75
538.08	40362.54
538.25	40519.35
538.42	40767.45
538.59	41134.92
538.75	40524.04
538.92	40809.58
539.09	41102.15
539.26	40931.29
539.43	40863.41
539.60	41329.18
539.77	41151.30
539.94	41331.52
540.11	40879.80
540.28	41296.41
540.44	41310.46
540.61	41233.22
540.78	40818.94
540.95	41001.50
541.12	41219.17
541.29	41434.50
541.46	41371.31
541.62	41408.76
541.79	41909.63
541.96	41137.26
542.13	41455.57
542.30	41331.52
542.47	41610.04
542.63	41708.35
542.80	41558.55
542.97	41827.71
543.14	42239.65
543.31	42007.94
543.48	41935.38
543.64	42307.52
543.81	42602.43
543.98	42815.42
544.15	42178.79
544.32	42576.69
544.48	42948.83
544.65	42649.24
544.82	42932.45
544.99	42663.28
545.16	42972.24
545.32	42630.52
545.49	43164.16
545.66	42855.21
545.83	43091.60
546.00	43381.83
546.16	43189.91
546.33	43012.02
546.50	42948.83
546.67	43196.93
546.83	42572.00
547.00	42703.07
547.17	42794.36
547.34	42878.61
547.50	43716.53
547.67	43452.05
547.84	43091.60
548.00	43339.70
548.17	43807.81
548.34	43498.86
548.51	43679.08
548.67	43688.44
548.84	43430.98
549.01	43749.29
549.18	43725.89
549.34	43643.97
549.51	43915.47
549.68	43746.95
549.84	43756.32
550.01	43756.32
550.18	43438.00
550.34	44088.67
550.51	44116.76
550.68	44170.59
550.84	43669.72
551.01	44147.18
551.18	43583.12
551.34	44332.09
551.51	43976.33
551.68	44196.34
551.84	44123.78
552.01	43796.10
552.18	44299.32
552.34	43866.32
552.51	44596.57
552.68	44172.93
552.84	44355.49
553.01	44678.49
553.18	44538.05
553.34	44706.57
553.51	44069.95
553.67	44582.52
553.84	44617.63
554.01	44968.71
554.17	44643.38
554.34	44823.60
554.51	45258.94
554.67	45181.70
554.84	44945.31
555.00	44472.52
555.17	44776.79
555.33	45113.83
555.50	44999.14
555.67	45308.09
555.83	44971.05
556.00	45034.25
556.16	45720.02
556.33	45343.20
556.50	45280.00
556.66	45188.72
556.83	44725.30
556.99	45773.86
557.16	45607.68
557.32	45982.16
557.49	45661.51
557.65	45153.62
557.82	45228.51
557.98	45542.14
558.15	45476.61
558.32	45661.51
558.48	45240.21
558.65	45500.01
558.81	45876.84
558.98	45455.54
559.14	45518.74
559.31	45567.89
559.47	45467.25
559.64	45343.20
559.80	45523.42
559.97	45846.41
560.13	45818.33
560.30	45874.50
560.46	45975.14
560.63	46057.06
560.79	45851.09
560.96	46354.31
561.12	46185.79
561.29	46017.27
561.45	46068.76
561.61	45844.07
561.78	46141.32
561.94	45937.69
562.11	46113.23
562.27	46061.74
562.44	46244.30
562.60	46363.67
562.77	46370.69
562.93	45579.59
563.10	46071.10
563.26	46101.53
563.42	46590.70
563.59	46260.69
563.75	46295.80
563.92	45991.53
564.08	46026.63
564.24	46691.35
564.41	46120.26
564.57	46548.57
564.74	45958.76
564.90	45991.53
565.07	46316.86
565.23	46459.63
565.39	46452.61
565.56	46775.61
565.72	46333.24
565.88	46710.07
566.05	46351.97
566.21	46791.99
566.38	46064.08
566.54	46298.14
566.70	46506.44
566.87	46600.07
567.03	46183.45
567.19	46579.00
567.36	46892.63
567.52	46447.93
567.68	46876.25
567.85	46948.81
568.01	46581.34
568.17	46499.42
568.34	46761.56
568.50	46494.74
568.66	46710.07
568.83	46646.88
568.99	46806.03
569.15	46733.48
569.32	46651.56
569.48	47100.94
569.64	47093.92
569.81	46923.06
569.97	47253.08
570.13	47068.17
570.30	46663.26
570.46	46834.12
570.62	46852.84
570.78	47171.16
570.95	46426.87
571.11	46845.82
571.27	47131.37
571.43	47241.37
571.60	47250.74
571.76	46733.48
571.92	47161.79
572.09	47079.88
572.25	47122.01
572.41	46937.10
572.57	47433.30
572.74	47529.26
572.90	46979.23
573.06	47030.72
573.22	47330.31
573.38	47283.50
573.55	47000.30
573.71	47285.84
573.87	47239.03
574.03	47714.16
574.20	47622.88
574.36	47171.16
574.52	47145.41
574.68	47482.45
574.84	47657.99
575.01	47531.60
575.17	47351.38
575.33	47360.74
575.49	47276.48
575.65	47426.28
575.82	47285.84
575.98	47107.96
576.14	47653.31
576.30	47564.37
576.46	47482.45
576.62	47044.77
576.79	47344.36
576.95	47248.39
577.11	46951.15
577.27	47442.66
577.43	47208.61
577.59	47625.22
577.75	47477.77
577.92	47384.15
578.08	47569.05
578.24	47189.88
578.40	47599.47
578.56	47782.04
578.72	47510.53
578.88	47608.84
579.04	47234.35
579.21	47274.14
579.37	47454.36
579.53	47496.49
579.69	47140.73
579.85	47643.94
580.01	47524.58
580.17	47349.04
580.33	47622.88
580.49	47566.71
580.65	47466.06
580.82	47461.38
580.98	47222.65
581.14	47419.25
581.30	47482.45
581.46	47304.57
581.62	47531.60
581.78	47576.07
581.94	47613.52
582.10	47445.00
582.26	47767.99
582.42	47702.46
582.58	47821.83
582.74	47573.73
582.90	47957.58
583.06	47901.40
583.22	47540.96
583.38	47700.12
583.54	47459.04
583.70	47648.63
583.86	47657.99
584.02	47650.97
584.18	47732.89
584.34	47730.54
584.50	47796.08
584.66	47707.14
584.82	47564.37
584.98	47906.08
585.14	47859.27
585.30	47648.63
585.46	47599.47
585.62	47466.06
585.78	47730.54
585.94	47157.11
586.10	47714.16
586.26	47416.91
586.42	47536.28
586.58	47983.32
586.74	47758.63
586.90	47686.07
587.06	47594.79
587.22	47959.92
587.38	47503.51
587.54	47882.68
587.70	48156.52
587.86	47784.38
588.02	47772.67
588.18	47688.42
588.34	47831.19
588.49	47831.19
588.65	47597.13
588.81	47746.93
588.97	48243.12
589.13	47690.76
589.29	47590.11
589.45	48041.84
589.61	48240.78
589.77	48027.79
589.93	47943.53
590.08	48264.19
590.24	47931.83
590.40	48458.45
590.56	48385.89
590.72	48362.49
590.88	47590.11
591.04	48200.99
591.20	48329.72
591.35	48353.13
591.51	48311.00
591.67	48100.35
591.83	48531.01
591.99	48456.11
592.15	47873.32
592.31	48346.11
592.46	47854.59
592.62	47821.83
592.78	48512.28
592.94	48112.05
593.10	48561.44
593.26	48425.68
593.41	49013.16
593.57	48275.89
593.73	49043.59
593.89	48692.50
594.05	48545.05
594.20	48364.83
594.36	48643.35
594.52	48601.22
594.68	48662.08
594.84	48098.01
594.99	48591.86
595.15	48376.53
595.31	48212.70
595.47	48252.48
595.62	48474.84
595.78	48662.08
595.94	48301.64
596.10	48278.23
596.25	48170.57
596.41	48591.86
596.57	48238.44
596.73	48795.49
596.88	48339.08
597.04	48105.03
597.20	48657.40
597.36	48453.77
597.51	49010.82
597.67	48563.78
597.83	48514.62
597.99	48631.65
598.14	48519.31
598.30	48404.62
598.46	48666.76
598.61	49137.21
598.77	48484.20
598.93	48488.88
599.09	48470.15
599.24	48959.33
599.40	48793.15
599.56	48519.31
599.71	48804.85
599.87	48921.88
600.03	48931.24
600.18	48849.32
600.34	48477.18
600.50	48849.32
600.65	48388.24
600.81	48832.94
600.97	48383.55
601.12	48718.25
601.28	48774.42
601.44	48563.78
601.59	48800.17
601.75	48528.67
601.91	48746.34
602.06	48928.90
602.22	48416.32
602.37	48399.94
602.53	48392.92
602.69	48732.29
602.84	48189.29
603.00	48460.79
603.16	48727.61
603.31	48655.06
603.47	48842.30
603.62	48423.34
603.78	49450.84
603.94	48718.25
604.09	48760.38
604.25	48575.48
604.40	48584.84
604.56	48776.76
604.71	48921.88
604.87	48296.95
605.03	48472.49
605.18	47924.81
605.34	48563.78
605.49	48362.49
605.65	48713.57
605.80	48484.20
605.96	47950.56
606.12	48444.41
606.27	48662.08
606.43	48369.51
606.58	48624.63
606.74	48514.62
606.89	48767.40
607.05	48891.45
607.20	48748.68
607.36	48612.93
607.51	48678.46
607.67	48413.98
607.82	48315.68
607.98	48516.96
608.13	48500.58
608.29	48573.14
608.44	48545.05
608.60	48149.50
608.75	48212.70
608.91	48217.38
609.06	48093.33
609.22	48198.65
609.37	48378.87
609.53	48301.64
609.68	48484.20
609.84	48303.98
609.99	48657.40
610.15	48563.78
610.30	48561.44
610.46	48343.77
610.61	48182.27
610.76	48617.61
610.92	47995.03
611.07	48208.01
611.23	48231.42
611.38	48191.63
611.54	48144.82
611.69	48765.06
611.84	48631.65
612.00	48280.57
612.15	47870.98
612.31	48271.21
612.46	47983.32
612.62	47782.04
612.77	48348.45
612.92	48458.45
613.08	48030.13
613.23	48020.77
613.39	48219.72
613.54	47934.17
613.69	48229.08
613.85	47861.61
614.00	47938.85
614.15	48128.44
614.31	47828.85
614.46	47950.56
614.62	47798.42
614.77	47702.46
614.92	47760.97
615.08	47842.89
615.23	48348.45
615.38	47782.04
615.54	47636.92
615.69	47552.66
615.84	48023.11
616.00	47805.44
616.15	47941.19
616.30	47885.02
616.46	47618.20
616.61	47885.02
616.76	47976.30
616.92	47484.79
617.07	47955.24
617.22	47751.61
617.37	47580.75
617.53	47711.82
617.68	47590.11
617.83	47735.23
617.99	47992.68
618.14	48004.39
618.29	47512.88
618.45	47430.96
618.60	47320.95
618.75	46815.40
618.90	47636.92
619.06	47421.59
619.21	46955.83
619.36	47517.56
619.51	47203.92
619.67	47260.10
619.82	46965.19
619.97	47461.38
620.12	47381.80
620.28	47407.55
620.43	47861.61
620.58	47365.42
620.73	47346.70
620.89	47901.40
621.04	47414.57
621.19	47157.11
621.34	47271.80
621.49	47199.24
621.65	46923.06
621.80	47072.85
621.95	47452.02
622.10	47274.14
622.25	47084.56
622.41	47117.32
622.56	46892.63
622.71	46951.15
622.86	47063.49
623.01	47117.32
623.16	46932.42
623.32	46955.83
623.47	46696.03
623.62	47395.85
623.77	47147.75
623.92	47114.98
624.07	46794.33
624.23	47257.76
624.38	47297.55
624.53	46511.13
624.68	46628.15
624.83	46513.47
624.98	46726.46
625.13	46408.14
625.29	46593.04
625.44	46871.57
625.59	46211.54
625.74	46813.05
625.89	46602.41
626.04	46689.01
626.19	46204.52
626.34	46412.82
626.49	46241.96
626.65	46103.87
626.80	46040.68
626.95	46305.16
627.10	45631.08
627.25	46733.48
627.40	46398.78
627.55	46195.15
627.70	46028.98
627.85	46277.07
628.00	46094.51
628.15	46356.65
628.30	45944.72
628.45	45825.35
628.60	45399.37
628.76	46188.13
628.91	45855.78
629.06	45731.73
629.21	45860.46
629.36	46089.83
629.51	45820.67
629.66	46155.36
629.81	46050.04
629.96	45628.74
630.11	45918.97
630.26	45675.55
630.41	45549.17
630.56	45752.79
630.71	45933.01
630.86	45727.05
631.01	45261.28
631.16	45698.96
631.31	45436.82
631.46	45539.80
631.61	46206.86
631.76	45996.21
631.91	45390.01
632.06	45893.22
632.21	45865.14
632.36	46209.20
632.51	45361.92
632.66	45741.09
632.81	45268.30
632.96	45439.16
633.10	45387.67
633.25	45446.18
633.40	45734.07
633.55	45443.84
633.70	45258.94
633.85	44912.54
634.00	45291.71
634.15	45020.20
634.30	45130.21
634.45	45317.45
634.60	45329.16
634.75	45549.17
634.90	45223.83
635.05	45146.59
635.19	44879.77
635.34	45097.44
635.49	44917.22
635.64	45214.47
635.79	45230.85
635.94	45329.16
636.09	45010.84
636.24	45134.89
636.39	45137.23
636.53	45078.72
636.68	44783.81
636.83	44690.19
636.98	44474.86
637.13	44376.56
637.28	44437.41
637.43	44486.56
637.57	44690.19
637.72	44395.28
637.87	44509.97
638.02	44692.53
638.17	44332.09
638.32	44002.07
638.46	44259.53
638.61	44725.30
638.76	44514.65
638.91	44830.62
639.06	44194.00
639.20	44816.58
639.35	44336.77
639.50	44135.48
639.65	44130.80
639.80	44524.01
639.94	44617.63
640.09	44458.48
640.24	44856.37
640.39	43688.44
640.54	43875.68
640.68	43854.62
640.83	44594.23
640.98	44023.14
641.13	43716.53
641.27	44128.46
641.42	44048.88
641.57	43845.26
641.72	44402.30
641.86	43805.47
642.01	43913.13
642.16	43826.53
642.31	43363.11
642.45	44079.31
642.60	43835.89
642.75	43859.30
642.90	43929.51
643.04	44168.25
643.19	43409.92
643.34	43604.18
643.48	43402.89
643.63	43643.97
643.78	43643.97
643.93	43356.08
644.07	43597.16
644.22	43992.71
644.37	43531.62
644.51	43552.69
644.66	43709.50
644.81	43384.17
644.95	43402.89
645.10	43658.01
645.25	43222.67
645.39	43210.97
645.54	43328.00
645.69	42553.28
645.83	43288.21
645.98	42740.52
646.13	42934.79
646.27	43203.95
646.42	43119.69
646.57	42988.62
646.71	43718.87
646.86	43363.11
647.00	43318.64
647.15	43276.51
647.30	42827.12
647.44	42972.24
647.59	43363.11
647.74	42848.19
647.88	42841.17
648.03	43110.33
648.17	43269.48
648.32	43323.32
648.47	43402.89
648.61	42770.95
648.76	42965.21
648.90	42885.64
649.05	42394.12
649.20	42817.76
649.34	42583.71
649.49	42579.03
649.63	42873.93
649.78	43049.47
649.92	42667.97
650.07	42937.13
650.21	42770.95
650.36	42735.84
650.51	42602.43
650.65	43072.88
650.80	42703.07
650.94	42529.87
651.09	42777.97
651.23	42169.43
651.38	42422.21
651.52	42249.01
651.67	42043.04
651.81	42319.23
651.96	42314.55
652.10	42241.99
652.25	42658.60
652.39	41977.51
652.54	41904.95
652.68	42227.95
652.83	41897.93
652.97	42096.88
653.12	42244.33
653.26	41698.98
653.41	41970.49
653.55	42043.04
653.70	41691.96
653.84	42522.85
653.99	42010.28
654.13	42176.45
654.27	42061.77
654.42	41958.78
654.56	41453.23
654.71	41937.72
654.85	41993.89
655.00	41926.02
655.14	42024.32
655.29	42239.65
655.43	41715.37
655.57	41312.80
655.72	41120.87
655.86	41633.45
656.01	41535.15
656.15	41053.00
656.30	41205.13
656.44	41769.20
656.58	41490.68
656.73	41434.50
656.87	41216.83
657.01	41404.08
657.16	41668.56
657.30	41230.88
657.45	41237.90
657.59	41099.81
657.73	41132.57
657.88	41551.53
658.02	41532.81
658.16	41216.83
658.31	41626.43
658.45	41584.30
658.60	40666.81
658.74	41411.10
658.88	41277.69
659.03	40509.99
659.17	40390.62
659.31	40575.53
659.46	40601.27
659.60	40971.08
659.74	40694.89
659.89	40589.57
660.03	40484.25
660.17	40512.33
660.32	40608.29
660.46	40149.55
660.60	39807.83
660.74	40388.28
660.89	40495.95
661.03	39749.32
661.17	39992.73
661.32	40205.72
661.46	40289.98
661.60	40194.02
661.74	40102.74
661.89	40091.04
662.03	39835.92
662.17	39693.15
662.31	39529.31
662.46	39936.56
662.60	39335.04
662.74	39517.60
662.88	39491.86
663.03	38955.88
663.17	39126.74
663.31	39232.06
663.45	39744.64
663.60	39550.37
663.74	39615.91
663.88	39276.53
664.02	38920.77
664.17	39412.28
664.31	39002.69
664.45	39016.73
664.59	38745.23
664.73	38895.02
664.88	39250.78
665.02	38529.90
665.16	38595.43
665.30	38623.52
665.44	38295.85
665.59	37979.87
665.73	38700.76
665.87	38347.34
666.01	38377.76
666.15	38808.42
666.29	38403.51
666.44	38457.34
666.58	38389.47
666.72	38164.78
666.86	38234.99
667.00	38157.75
667.14	37956.47
667.28	38059.45
667.43	38012.64
667.57	37937.74
667.71	37764.54
667.85	38389.47
667.99	37703.69
668.13	37558.58
668.27	37581.98
668.41	37455.59
668.56	37031.96
668.70	37354.95
668.84	37057.70
668.98	36748.75
669.12	37336.23
669.26	36959.40
669.40	36910.25
669.54	37139.62
669.68	37160.69
669.82	37132.60
669.96	36825.99
670.10	36650.45
670.25	36678.54
670.39	36371.92
670.53	36795.56
670.67	36603.64
670.81	36762.79
670.95	36397.67
671.09	36275.96
671.23	36329.80
671.37	36418.74
671.51	35941.27
671.65	36018.50
671.79	35945.95
671.93	36142.55
672.07	36165.96
672.21	35852.33
672.35	35129.10
672.49	35407.62
672.63	35723.60
672.77	35323.36
672.91	35473.16
673.05	35608.91
673.19	35166.55
673.33	35082.29
673.47	34834.19
673.61	34771.00
673.75	34852.92
673.89	34747.59
674.03	34394.17
674.17	34553.33
674.31	34183.52
674.45	34653.97
674.59	34127.35
674.73	34424.60
674.87	34366.09
675.01	33745.84
675.15	33626.48
675.29	33638.18
675.43	33645.20
675.56	34031.39
675.70	33879.25
675.84	33392.42
675.98	32451.53
676.12	33362.00
676.26	33525.83
676.40	33280.08
676.54	33223.90
676.68	33118.58
676.82	32598.98
676.96	32933.68
677.10	33170.07
677.23	32732.39
677.37	33221.56
677.51	32814.31
677.65	32521.74
677.79	32706.65
677.93	32603.66
678.07	32673.88
678.21	32161.30
678.34	31873.42
678.48	32165.98
678.62	31527.02
678.76	31569.15
678.90	31292.96
679.04	31566.81
679.18	31658.09
679.31	31508.29
679.45	31124.44
679.59	31115.08
679.73	31260.20
679.87	30749.96
680.00	31077.63
680.14	30338.02
680.28	31035.50
680.42	30841.24
680.56	30504.20
680.70	30300.58
680.83	30574.42
680.97	29968.22
681.11	30223.34
681.25	29862.90
681.39	29310.53
681.52	29738.85
681.66	29092.86
681.80	29043.71
681.94	29027.32
682.07	29097.54
682.21	29329.25
682.35	28917.32
682.49	29127.97
682.62	29275.42
682.76	29095.20
682.90	28779.23
683.04	28528.79
683.17	28510.07
683.31	28421.13
683.45	28332.18
683.59	28126.22
683.72	28018.55
683.86	28147.28
684.00	27868.76
684.13	27742.37
684.27	27648.75
684.41	27573.85
684.55	27475.55
684.68	27538.74
684.82	27452.14
684.96	27395.97
685.09	27009.78
685.23	27328.10
685.37	27520.02
685.50	27377.25
685.64	27040.21
685.78	26937.23
685.91	26621.25
686.05	26544.02
686.19	26146.12
686.32	25912.07
686.46	26082.93
686.60	25919.09
686.73	25970.58
686.87	26120.38
687.01	26036.12
687.14	25682.70
687.28	25659.29
687.42	25556.31
687.55	25088.20
687.69	25324.60
687.82	25427.58
687.96	25298.85
688.10	25067.14
688.23	25364.39
688.37	25188.85
688.50	25137.35
688.64	25120.97
688.78	24570.94
688.91	24685.63
689.05	24491.37
689.18	24243.27
689.32	23988.15
689.46	23744.73
689.59	23700.26
689.73	24187.10
689.86	24112.20
690.00	23939.00
690.13	24217.52
690.27	23644.09
690.41	23683.88
690.54	23599.62
690.68	23110.45
690.81	23433.44
690.95	23197.05
691.08	22906.82
691.22	22918.53
691.35	22632.98
691.49	23332.80
691.62	22876.40
691.76	22171.89
691.89	22380.20
692.03	22033.80
692.16	22225.73
692.30	21781.03
692.43	22012.74
692.57	21759.96
692.70	21970.61
692.84	21884.01
692.97	21654.64
693.11	21469.73
693.24	21142.06
693.38	21441.65
693.51	21357.39
693.65	21219.30
693.78	21104.61
693.92	20788.64
694.05	20805.02
694.19	21020.35
694.32	20908.01
694.45	21029.71
694.59	20828.43
694.72	20872.90
694.86	20105.20
694.99	20683.31
695.13	20168.40
695.26	19943.70
695.39	20002.22
695.53	19950.73
695.66	19779.87
695.80	20025.62
695.93	19875.83
696.07	19374.95
696.20	19325.80
696.33	19255.59
696.47	19424.11
696.60	18984.09
696.73	19248.57
696.87	19290.70
697.00	19073.03
697.14	18899.83
697.27	18544.06
697.40	18623.64
697.54	18801.52
697.67	18328.74
697.80	18576.83
697.94	18403.63
698.07	18464.49
698.21	18455.12
698.34	18586.19
698.47	18164.90
698.61	17696.79
698.74	17958.93
698.87	17640.62
699.01	17713.17
699.14	17647.64
699.27	17453.37
699.40	17500.19
699.54	17235.70
699.67	17291.88
699.80	17378.48
699.94	17252.09
700.07	17132.72
700.20	16994.63
700.34	16858.88
700.47	16917.39
700.60	16964.20
700.73	16882.28
700.87	16318.22
701.00	16592.06
701.13	16594.40
701.26	16126.29
701.40	16568.65
701.53	16451.63
701.66	15985.86
701.79	16290.13
701.93	15740.10
702.06	15857.13
702.19	15693.29
702.32	15833.72
702.46	16027.99
702.59	15728.40
702.72	15873.51
702.85	15473.28
702.99	15552.86
703.12	15492.01
703.25	15190.08
703.38	15152.63
703.51	14941.98
703.65	14892.83
703.78	15005.17
703.91	14586.22
704.04	14621.33
704.17	14614.30
704.31	14736.01
704.44	14698.56
704.57	14272.59
704.70	14298.33
704.83	14113.43
704.96	14008.11
705.10	14270.25
705.23	13991.72
>>>>>End Processed Spectral Data<<<<<
