SpectraSuite Data File
++++++++++++++++++++++++++++++++++++
Date: Fri Oct 25 10:43:54 EDT 2013
User: price-jones
Dark Spectrum Present: No
Reference Spectrum Present: No
Number of Sampled Component Spectra: 1
Spectrometers: USB2+H05261
Integration Time (usec): 100000 (USB2+H05261)
Spectra Averaged: 1 (USB2+H05261)
Boxcar Smoothing: 0 (USB2+H05261)
Correct for Electrical Dark: No (USB2+H05261)
Strobe/Lamp Enabled: No (USB2+H05261)
Correct for Detector Non-linearity: No (USB2+H05261)
Correct for Stray Light: No (USB2+H05261)
Number of Pixels in Processed Spectrum: 2048
>>>>>Begin Processed Spectral Data<<<<<
365.73	135.75
365.92	135.75
366.12	135.75
366.32	30.43
366.52	0.00
366.72	39.79
366.91	35.11
367.11	114.69
367.31	25.75
367.51	32.77
367.70	0.00
367.90	49.15
368.10	81.92
368.30	0.00
368.49	49.15
368.69	0.00
368.89	65.54
369.09	0.00
369.28	117.03
369.48	63.19
369.68	88.94
369.87	0.00
370.07	98.30
370.27	180.22
370.47	175.54
370.66	400.23
370.86	456.40
371.06	531.30
371.25	503.22
371.45	390.87
371.65	498.53
371.84	528.96
372.04	433.00
372.24	461.09
372.44	491.51
372.63	482.15
372.83	519.60
373.03	454.06
373.22	528.96
373.42	498.53
373.62	451.72
373.81	540.66
374.01	582.79
374.21	627.26
374.40	543.00
374.60	582.79
374.79	554.71
374.99	645.99
375.19	613.22
375.38	603.86
375.58	554.71
375.78	608.54
375.97	575.77
376.17	641.31
376.37	596.84
376.56	638.97
376.76	557.05
376.95	638.97
377.15	655.35
377.35	634.29
377.54	706.84
377.74	664.71
377.93	688.12
378.13	748.97
378.33	786.42
378.52	697.48
378.72	802.80
378.91	664.71
379.11	674.07
379.31	692.80
379.50	755.99
379.70	709.18
379.89	690.46
380.09	681.10
380.28	772.38
380.48	763.01
380.68	758.33
380.87	638.97
381.07	730.25
381.26	784.08
381.46	748.97
381.65	711.52
381.85	753.65
382.04	657.69
382.24	791.10
382.43	791.10
382.63	727.91
382.83	786.42
383.02	788.76
383.22	823.87
383.41	683.44
383.61	807.48
383.80	770.04
384.00	802.80
384.19	784.08
384.39	791.10
384.58	821.53
384.78	774.72
384.97	842.59
385.17	828.55
385.36	830.89
385.56	957.28
385.75	851.96
385.95	868.34
386.14	863.66
386.34	842.59
386.53	828.55
386.72	940.90
386.92	908.13
387.11	919.83
387.31	828.55
387.50	875.36
387.70	884.72
387.89	861.32
388.09	901.11
388.28	940.90
388.48	898.77
388.67	915.15
388.86	910.47
389.06	1015.79
389.25	980.68
389.45	1013.45
389.64	1062.60
389.84	1025.15
390.03	1114.10
390.22	966.64
390.42	1015.79
390.61	1022.81
390.81	1088.35
391.00	1102.39
391.19	1109.41
391.39	1055.58
391.58	1137.50
391.78	1074.31
391.97	1146.86
392.16	1090.69
392.36	1057.92
392.55	1130.48
392.75	992.39
392.94	1055.58
393.13	1074.31
393.33	1071.97
393.52	1123.46
393.71	1036.86
393.91	1102.39
394.10	1118.78
394.29	1170.27
394.49	1172.61
394.68	1214.74
394.88	1231.12
395.07	1336.45
395.26	1315.38
395.46	1294.32
395.65	1306.02
395.84	1277.93
396.04	1329.42
396.23	1221.76
396.42	1256.87
396.62	1226.44
396.81	1287.29
397.00	1270.91
397.19	1401.98
397.39	1299.00
397.58	1341.13
397.77	1467.52
397.97	1409.00
398.16	1509.65
398.35	1514.33
398.55	1533.05
398.74	1582.20
398.93	1530.71
399.12	1636.03
399.32	1511.99
399.51	1647.74
399.70	1633.69
399.90	1633.69
400.09	1570.50
400.28	1710.93
400.47	1657.10
400.67	1654.76
400.86	1774.13
401.05	1724.97
401.24	1788.17
401.44	1767.10
401.63	1762.42
401.82	1839.66
402.01	1853.70
402.21	1895.83
402.40	1755.40
402.59	1851.36
402.78	1734.34
402.97	1739.02
403.17	1921.58
403.36	2094.78
403.55	1893.49
403.74	1989.46
403.93	1874.77
404.13	2062.01
404.32	1956.69
404.51	1982.43
404.70	2059.67
404.89	1998.82
405.09	2059.67
405.28	2031.58
405.47	2005.84
405.66	2019.88
405.85	2043.29
406.05	2108.82
406.24	2160.31
406.43	2221.17
406.62	2200.10
406.81	2232.87
407.00	2162.66
407.20	2115.84
407.39	2204.78
407.58	2218.83
407.77	2202.44
407.96	2352.24
408.15	2368.62
408.34	2394.37
408.54	2413.09
408.73	2366.28
408.92	2317.13
409.11	2399.05
409.30	2513.74
409.49	2375.64
409.68	2300.75
409.87	2464.58
410.07	2422.45
410.26	2572.25
410.45	2464.58
410.64	2476.29
410.83	2506.71
411.02	2658.85
411.21	2778.22
411.40	2626.08
411.59	2644.81
411.78	2693.96
411.98	2759.49
412.17	2780.56
412.36	2757.15
412.55	2832.05
412.74	2810.98
412.93	2970.14
413.12	2775.88
413.31	3063.76
413.50	3005.25
413.69	2946.73
413.88	3124.62
414.07	3124.62
414.26	2956.10
414.45	3110.57
414.64	3162.06
414.83	3155.04
415.02	3227.60
415.22	3197.17
415.41	3314.20
415.60	3363.35
415.79	3258.03
415.98	3541.23
416.17	3447.61
416.36	3445.27
416.55	3365.69
416.74	3494.42
416.93	3442.93
417.12	3375.05
417.31	3468.67
417.50	3419.52
417.69	3508.46
417.88	3637.19
418.07	3658.26
418.26	3489.74
418.45	3592.72
418.64	3770.60
418.83	3737.84
419.02	3693.37
419.21	3655.92
419.39	3756.56
419.58	3770.60
419.77	3613.79
419.96	3733.15
420.15	3906.35
420.34	3847.84
420.53	3971.89
420.72	3971.89
420.91	3892.31
421.10	3941.46
421.29	3934.44
421.48	3892.31
421.67	4009.34
421.86	3981.25
422.05	3904.01
422.24	3925.08
422.43	3953.16
422.61	4044.45
422.80	3992.95
422.99	4117.00
423.18	4079.55
423.37	4084.23
423.56	4037.42
423.75	4140.41
423.94	4060.83
424.13	3775.28
424.32	4058.49
424.50	4210.62
424.69	4224.67
424.88	4086.58
425.07	4053.81
425.26	4112.32
425.45	4095.94
425.64	4107.64
425.83	3976.57
426.01	4208.28
426.20	4161.47
426.39	4322.97
426.58	4145.09
426.77	4133.39
426.96	4128.70
427.15	4098.28
427.33	4102.96
427.52	4353.40
427.71	4339.35
427.90	4278.50
428.09	4369.78
428.28	4341.69
428.46	4269.14
428.65	4397.87
428.84	4447.02
429.03	4447.02
429.22	4138.07
429.40	4355.74
429.59	4177.86
429.78	4063.17
429.97	4004.66
430.16	4081.89
430.34	4175.52
430.53	4306.59
430.72	4346.37
430.91	4386.16
431.10	4449.36
431.28	4793.42
431.47	4791.08
431.66	4945.55
431.85	4762.99
432.03	4842.57
432.22	4854.27
432.41	4837.89
432.60	4922.15
432.79	4807.46
432.97	5043.85
433.16	5064.92
433.35	4873.00
433.54	5011.09
433.72	4840.23
433.91	4875.34
434.10	4837.89
434.28	4901.08
434.47	4858.95
434.66	4997.04
434.85	5226.42
435.03	5114.07
435.22	5139.82
435.41	5263.86
435.59	5294.29
435.78	5270.89
435.97	5350.46
436.16	5320.04
436.34	5310.68
436.53	5359.83
436.72	5472.17
436.90	5163.22
437.09	5378.55
437.28	5282.59
437.46	5259.18
437.65	5394.93
437.84	5343.44
438.02	5540.05
438.21	5383.23
438.40	5254.50
438.58	5624.31
438.77	5610.26
438.96	5664.10
439.14	5849.00
439.33	5816.23
439.52	6129.86
439.70	5909.85
439.89	5975.39
440.08	5951.98
440.26	5907.51
440.45	5870.06
440.63	6148.59
440.82	6244.55
441.01	6218.80
441.19	6260.93
441.38	6258.59
441.57	6272.64
441.75	6530.09
441.94	6546.48
442.12	6590.95
442.31	6616.69
442.50	6640.10
442.68	6665.85
442.87	6616.69
443.05	6480.94
443.24	6682.23
443.43	6761.81
443.61	6736.06
443.80	6927.99
443.98	6607.33
444.17	6492.65
444.35	6810.96
444.54	7000.54
444.73	6731.38
444.91	6759.47
445.10	6712.66
445.28	6663.51
445.47	6764.15
445.65	6740.74
445.84	6698.61
446.02	6773.51
446.21	6740.74
446.39	6745.42
446.58	6892.88
446.77	6925.65
446.95	6857.77
447.14	6986.50
447.32	7075.44
447.51	7035.65
447.69	6867.13
447.88	7005.22
448.06	7082.46
448.25	6876.49
448.43	7183.10
448.62	7115.23
448.80	7009.90
448.99	7133.95
449.17	7126.93
449.36	7059.06
449.54	7241.62
449.73	7412.48
449.91	7360.98
450.10	7311.83
450.28	7513.12
450.46	7447.58
450.65	7693.34
450.83	7819.73
451.02	7609.08
451.20	7531.84
451.39	7611.42
451.57	7466.31
451.76	7595.04
451.94	7515.46
452.13	7653.55
452.31	7609.08
452.49	7368.01
452.68	7396.09
452.86	7562.27
453.05	7545.89
453.23	7620.78
453.42	7529.50
453.60	7822.07
453.78	7655.89
453.97	7716.75
454.15	7674.62
454.34	7843.14
454.52	7740.15
454.70	7936.76
454.89	7669.94
455.07	7791.64
455.26	7976.55
455.44	8102.93
455.62	8098.25
455.81	8053.78
455.99	8177.83
456.17	8255.07
456.36	8278.47
456.54	8248.05
456.73	8411.89
456.91	8423.59
457.09	8643.60
457.28	8709.13
457.46	8374.44
457.64	8535.93
457.83	8229.32
458.01	8493.80
458.19	8664.66
458.38	8503.17
458.56	8524.23
458.74	8678.71
458.93	8629.56
459.11	8575.72
459.29	8585.08
459.48	8585.08
459.66	8645.94
459.84	8865.95
460.03	8896.38
460.21	8774.67
460.39	8919.78
460.57	8760.63
460.76	8926.80
460.94	8985.32
461.12	8950.21
461.31	9231.07
461.49	9029.79
461.67	8931.48
461.85	9055.53
462.04	9011.06
462.22	9348.10
462.40	9320.01
462.59	9078.94
462.77	9235.75
462.95	9221.71
463.13	9259.16
463.32	9359.80
463.50	9483.85
463.68	9530.66
463.86	9373.85
464.05	9177.24
464.23	9273.20
464.41	9394.91
464.59	9284.91
464.78	9549.39
464.96	9563.43
465.14	9425.34
465.32	9406.61
465.50	9600.88
465.69	9797.48
465.87	9507.26
466.05	9631.30
466.23	9544.70
466.41	9387.89
466.60	9699.18
466.78	9554.07
466.96	9657.05
467.14	9551.73
467.32	9771.74
467.51	9813.87
467.69	9671.09
467.87	9692.16
468.05	9912.17
468.23	9863.02
468.41	9785.78
468.60	9994.09
468.78	10298.36
468.96	10108.77
469.14	10038.56
469.32	10153.24
469.50	9745.99
469.69	10193.03
469.87	10033.88
470.05	10099.41
470.23	10047.92
470.41	10221.12
470.59	10092.39
470.77	10242.18
470.95	10424.75
471.14	10504.32
471.32	10429.43
471.50	10824.98
471.68	10764.12
471.86	10864.77
472.04	10874.13
472.22	10993.50
472.40	10677.52
472.58	10656.46
472.77	11075.42
472.95	10916.26
473.13	11314.15
473.31	10888.17
473.49	10967.75
473.67	10888.17
473.85	11019.24
474.03	11337.56
474.21	11391.39
474.39	11492.03
474.57	11531.82
474.75	11524.80
474.93	11618.42
475.12	11419.47
475.30	11653.53
475.48	11747.15
475.66	11667.57
475.84	11906.31
476.02	11969.50
476.20	11658.21
476.38	12058.44
476.56	12334.62
476.74	12315.90
476.92	12444.63
477.10	12299.52
477.28	12594.42
477.46	12505.48
477.64	12657.62
477.82	12784.01
478.00	13015.72
478.18	13118.70
478.36	12985.29
478.54	12992.31
478.72	13350.42
478.90	13437.02
479.08	13523.62
479.26	13722.56
479.44	13762.35
479.62	13767.03
479.80	13783.41
479.98	13956.61
480.16	14305.35
480.34	14059.60
480.52	14207.05
480.70	14068.96
480.88	14099.39
481.06	14291.31
481.24	14853.04
481.41	14705.59
481.59	14958.36
481.77	15007.52
481.95	15246.25
482.13	15122.20
482.31	15236.89
482.49	15456.90
482.67	15300.08
482.85	15730.74
483.03	15688.61
483.21	15953.09
483.39	15962.45
483.57	15964.79
483.74	16072.46
483.92	16219.91
484.10	16194.17
484.28	16460.99
484.46	16840.15
484.64	17202.94
484.82	16762.92
485.00	17039.10
485.18	16968.88
485.35	17139.74
485.53	16524.18
485.71	16896.33
485.89	17212.30
486.07	16849.52
486.25	17069.53
486.43	17359.75
486.61	17584.44
486.78	18052.55
486.96	17958.93
487.14	18511.30
487.32	18335.76
487.50	18679.82
487.68	19044.94
487.85	18960.68
488.03	19026.21
488.21	19208.78
488.39	19131.54
488.57	19276.65
488.75	19391.34
488.92	19791.57
489.10	20032.65
489.28	20102.86
489.46	20428.20
489.64	20463.30
489.81	21062.48
489.99	21174.83
490.17	21071.84
490.35	21036.74
490.53	21128.02
490.70	21160.78
490.88	20933.75
491.06	21776.34
491.24	21605.49
491.41	21586.76
491.59	21490.80
491.77	21460.37
491.95	21788.05
492.13	21951.88
492.30	22314.67
492.48	22745.33
492.66	22515.95
492.84	22466.80
493.01	22955.97
493.19	22970.02
493.37	22904.48
493.54	23152.58
493.72	23428.76
493.90	23206.41
494.08	23756.44
494.25	24168.37
494.43	24184.76
494.61	24170.71
494.79	24327.53
494.96	24252.63
495.14	24311.14
495.32	24566.26
495.49	24512.43
495.67	24856.49
495.85	24893.94
496.02	25172.46
496.20	25256.72
496.38	25221.61
496.55	25397.15
496.73	25701.42
496.91	25467.37
497.09	25736.53
497.26	25947.18
497.44	25900.37
497.62	26075.91
497.79	26485.50
497.97	25741.21
498.14	26326.35
498.32	26522.95
498.50	26852.97
498.67	26981.70
498.85	26859.99
499.03	27138.51
499.20	27119.79
499.38	27285.97
499.56	27220.43
499.73	27709.60
499.91	27658.11
500.08	27480.23
500.26	27292.99
500.44	27372.57
500.61	27721.30
500.79	27405.33
500.97	27604.28
501.14	27791.52
501.32	27828.97
501.49	28205.80
501.67	28037.28
501.84	28280.69
502.02	28081.75
502.20	28360.27
502.37	28772.21
502.55	28903.28
502.72	29212.23
502.90	29301.17
503.07	29060.09
503.25	29172.44
503.43	28788.59
503.60	29132.65
503.78	28814.34
503.95	28823.70
504.13	29277.76
504.30	29422.87
504.48	29523.52
504.65	30094.61
504.83	29776.30
505.01	29912.05
505.18	30047.80
505.36	30221.00
505.53	30146.10
505.71	30628.25
505.88	30593.14
506.06	30600.16
506.23	30527.61
506.41	30408.24
506.58	30347.39
506.76	30848.26
506.93	31164.23
507.11	30532.29
507.28	31171.25
507.46	30649.32
507.63	30712.51
507.81	31054.23
507.98	31222.75
508.16	31447.44
508.33	31847.67
508.50	31803.20
508.68	31658.09
508.85	31995.12
509.03	31964.70
509.20	32561.53
509.38	31878.10
509.55	32240.88
509.73	32236.20
509.90	32313.44
510.08	32095.77
510.25	32414.08
510.42	32636.43
510.60	32463.23
510.77	32687.92
510.95	32847.08
511.12	32924.32
511.30	33083.47
511.47	33579.67
511.64	33244.97
511.82	33640.52
511.99	33301.14
512.17	33411.15
512.34	33298.80
512.51	33380.72
512.69	33799.68
512.86	33397.10
513.04	33743.50
513.21	33919.04
513.38	34122.67
513.56	33703.71
513.73	33530.51
513.90	34291.19
514.08	33865.21
514.25	34022.03
514.43	34300.55
514.60	34026.71
514.77	34773.34
514.95	34836.53
515.12	34546.31
515.29	34445.66
515.47	34969.94
515.64	34703.12
515.81	34937.18
515.99	35189.95
516.16	34576.73
516.33	34291.19
516.51	34286.51
516.68	34204.59
516.85	34164.80
517.03	34644.61
517.20	34485.45
517.37	35262.51
517.54	35384.22
517.72	35491.88
517.89	34686.74
518.06	34991.01
518.24	34831.85
518.41	35407.62
518.58	35143.14
518.75	35454.44
518.93	35950.63
519.10	35796.15
519.27	36112.13
519.45	35665.08
519.62	36582.57
519.79	36114.47
519.96	36238.51
520.14	36381.29
520.31	36282.98
520.48	36460.87
520.65	36259.58
520.83	36479.59
521.00	36943.02
521.17	36809.61
521.34	36924.29
521.52	36921.95
521.69	37010.89
521.86	37525.81
522.03	37528.15
522.20	37453.25
522.38	37493.04
522.55	37287.07
522.72	37172.39
522.89	37443.89
523.07	37806.67
523.24	37851.14
523.41	37830.08
523.58	38211.59
523.75	38485.43
523.92	38110.94
524.10	38167.12
524.27	38202.22
524.44	38843.53
524.61	38768.63
524.78	38665.65
524.96	38487.77
525.13	38775.66
525.30	38810.76
525.47	38836.51
525.64	38579.05
525.81	38466.70
525.98	38557.99
526.16	38258.40
526.33	38356.70
526.50	38452.66
526.67	37858.17
526.84	38239.67
527.01	38799.06
527.18	38651.61
527.36	39302.28
527.53	39393.56
527.70	39496.54
527.87	39306.96
528.04	39428.66
528.21	39702.51
528.38	39562.08
528.55	40449.14
528.72	40247.85
528.89	39950.60
529.07	40074.65
529.24	39725.91
529.41	40002.10
529.58	39739.96
529.75	40046.57
529.92	40027.84
530.09	40341.47
530.26	40484.25
530.43	40479.57
530.60	40301.68
530.77	40357.86
530.94	40664.47
531.11	40481.91
531.28	40774.47
531.46	40858.73
531.63	40652.76
531.80	41102.15
531.97	40851.71
532.14	40479.57
532.31	39871.03
532.48	40238.49
532.65	40463.18
532.82	40570.85
532.99	40676.17
533.16	40547.44
533.33	41581.96
533.50	40744.05
533.67	41247.26
533.84	40994.48
534.01	41088.10
534.18	40896.18
534.35	41581.96
534.52	41310.46
534.69	41649.83
534.86	41687.28
535.03	41233.22
535.20	41837.08
535.37	42012.62
535.54	42134.32
535.71	41731.75
535.88	41612.38
536.05	41633.45
536.22	41691.96
536.38	41736.43
536.55	41528.13
536.72	41638.13
536.89	41682.60
537.06	41670.90
537.23	42188.16
537.40	41886.23
537.57	42412.85
537.74	42115.60
537.91	42328.59
538.08	42043.04
538.25	41982.19
538.42	42398.80
538.59	42181.13
538.75	42284.12
538.92	42375.40
539.09	42464.34
539.26	42106.24
539.43	42281.78
539.60	42557.96
539.77	42157.73
539.94	42483.06
540.11	42106.24
540.28	42644.56
540.44	42469.02
540.61	42508.81
540.78	41972.83
540.95	42593.07
541.12	42813.08
541.29	42377.74
541.46	42597.75
541.62	43164.16
541.79	42887.98
541.96	42375.40
542.13	42958.19
542.30	42951.17
542.47	42742.86
542.63	43012.02
542.80	43178.20
542.97	43569.07
543.14	43501.20
543.31	43473.11
543.48	43550.35
543.64	44060.58
543.81	43995.05
543.98	43700.14
544.15	43915.47
544.32	44093.35
544.48	44016.11
544.65	44397.62
544.82	44259.53
544.99	43892.07
545.16	44140.16
545.32	43810.15
545.49	44294.64
545.66	44392.94
545.83	44287.62
546.00	43997.39
546.16	44371.88
546.33	44296.98
546.50	43927.17
546.67	44456.14
546.83	44229.10
547.00	44055.90
547.17	44376.56
547.34	44327.41
547.50	44832.96
547.67	44680.83
547.84	44404.64
548.00	44729.98
548.17	44605.93
548.34	44837.64
548.51	45272.98
548.67	44552.10
548.84	44875.09
549.01	44355.49
549.18	44870.41
549.34	45067.02
549.51	45151.27
549.68	45010.84
549.84	44821.26
550.01	45134.89
550.18	44858.71
550.34	45153.62
550.51	44783.81
550.68	44243.15
550.84	44659.76
551.01	44975.73
551.18	44964.03
551.34	44971.05
551.51	45315.11
551.68	45455.54
551.84	45514.06
552.01	44879.77
552.18	45312.77
552.34	45013.18
552.51	45017.86
552.68	45504.70
552.84	45979.82
553.01	45289.37
553.18	45457.88
553.34	45713.00
553.51	45329.16
553.67	45399.37
553.84	46031.32
554.01	45787.90
554.17	45310.43
554.34	46087.49
554.51	45525.76
554.67	45808.96
554.84	45930.67
555.00	45588.95
555.17	45808.96
555.33	45485.97
555.50	45986.85
555.67	45759.81
555.83	45696.62
556.00	45404.05
556.16	45984.51
556.33	45734.07
556.50	45357.24
556.66	45925.99
556.83	45684.92
556.99	46021.95
557.16	46026.63
557.32	45806.62
557.49	46160.05
557.65	45750.45
557.82	46026.63
557.98	46127.28
558.15	46178.77
558.32	46183.45
558.48	45893.22
558.65	45928.33
558.81	45844.07
558.98	46080.47
559.14	46415.16
559.31	45876.84
559.47	46246.65
559.64	46337.93
559.80	46113.23
559.97	45780.88
560.13	45886.20
560.30	46497.08
560.46	46342.61
560.63	46274.73
560.79	46312.18
560.96	46461.97
561.12	46134.30
561.29	46026.63
561.45	46272.39
561.61	46665.60
561.78	46335.59
561.94	45895.56
562.11	46286.43
562.27	46061.74
562.44	46611.77
562.60	46349.63
562.77	46639.86
562.93	46031.32
563.10	46450.27
563.26	46337.93
563.42	46693.69
563.59	46127.28
563.75	46305.16
563.92	46813.05
564.08	46485.38
564.24	46511.13
564.41	46806.03
564.57	46473.68
564.74	46555.60
564.90	46696.03
565.07	46878.59
565.23	46651.56
565.39	46447.93
565.56	46611.77
565.72	46279.41
565.88	46366.01
566.05	46424.53
566.21	46609.43
566.38	46593.04
566.54	46536.87
566.70	46726.46
566.87	47016.68
567.03	46248.99
567.19	46665.60
567.36	46696.03
567.52	46789.65
567.68	46941.78
567.85	46389.42
568.01	46735.82
568.17	46696.03
568.34	47096.26
568.50	46567.30
568.66	46747.52
568.83	46902.00
568.99	46206.86
569.15	46796.67
569.32	46080.47
569.48	46415.16
569.64	47026.04
569.81	46330.90
569.97	46890.29
570.13	46686.67
570.30	46494.74
570.46	46068.76
570.62	46476.02
570.78	46361.33
570.95	46138.98
571.11	47047.11
571.27	46461.97
571.43	47004.98
571.60	46443.25
571.76	47028.38
571.92	46546.23
572.09	46813.05
572.25	46766.24
572.41	46763.90
572.57	46972.21
572.74	46892.63
572.90	46672.62
573.06	46670.28
573.22	46979.23
573.38	47136.05
573.55	46426.87
573.71	46651.56
573.87	46567.30
574.03	46721.77
574.20	47093.92
574.36	46630.49
574.52	47339.68
574.68	47012.00
574.84	46958.17
575.01	46277.07
575.17	46635.17
575.33	46607.09
575.49	46536.87
575.65	47154.77
575.82	47323.29
575.98	46721.77
576.14	46878.59
576.30	46712.41
576.46	46710.07
576.62	47175.84
576.79	46733.48
576.95	46763.90
577.11	46731.14
577.27	46845.82
577.43	47267.12
577.59	46628.15
577.75	46972.21
577.92	46651.56
578.08	46946.47
578.24	46653.90
578.40	46366.01
578.56	46918.38
578.72	46899.65
578.88	47430.96
579.04	47147.75
579.21	46829.44
579.37	46951.15
579.53	47114.98
579.69	46686.67
579.85	47035.41
580.01	46993.28
580.17	47056.47
580.33	46796.67
580.49	47019.02
580.65	47173.50
580.82	47229.67
580.98	46579.00
581.14	46616.45
581.30	47398.19
581.46	46679.64
581.62	47180.52
581.78	46930.08
581.94	47044.77
582.10	46925.40
582.26	46988.60
582.42	47075.19
582.58	46782.63
582.74	46986.25
582.90	47082.22
583.06	47302.23
583.22	47075.19
583.38	47400.53
583.54	47157.11
583.70	47398.19
583.86	47145.41
584.02	47004.98
584.18	46953.49
584.34	47100.94
584.50	46789.65
584.66	47246.05
584.82	46883.27
584.98	47140.73
585.14	47339.68
585.30	46541.55
585.46	46941.78
585.62	46660.92
585.78	46958.17
585.94	46469.00
586.10	46824.76
586.26	46731.14
586.42	47292.86
586.58	47480.11
586.74	47051.79
586.90	47117.32
587.06	47019.02
587.22	47019.02
587.38	47077.54
587.54	47103.28
587.70	47077.54
587.86	46871.57
588.02	46801.35
588.18	47248.39
588.34	46431.55
588.49	46527.51
588.65	46188.13
588.81	46033.66
588.97	46571.98
589.13	46248.99
589.29	46838.80
589.45	46834.12
589.61	46796.67
589.77	47014.34
589.93	46969.87
590.08	46892.63
590.24	47138.39
590.40	47496.49
590.56	47398.19
590.72	47007.32
590.88	47004.98
591.04	47159.45
591.20	47250.74
591.35	46906.68
591.51	47255.42
591.67	47065.83
591.83	47262.44
591.99	47026.04
592.15	47105.62
592.31	47318.61
592.46	47178.18
592.62	46717.09
592.78	47068.17
592.94	47316.27
593.10	47154.77
593.26	47089.24
593.41	47002.64
593.57	46890.29
593.73	46873.91
593.89	47398.19
594.05	46782.63
594.20	47143.07
594.36	47012.00
594.52	46660.92
594.68	46850.50
594.84	47180.52
594.99	47063.49
595.15	47093.92
595.31	47257.76
595.47	47234.35
595.62	47201.58
595.78	47047.11
595.94	47393.51
596.10	47386.49
596.25	47735.23
596.41	47459.04
596.57	46794.33
596.73	47044.77
596.88	47100.94
597.04	46981.57
597.20	47122.01
597.36	47187.54
597.51	47168.82
597.67	47168.82
597.83	47138.39
597.99	47480.11
598.14	47208.61
598.30	47138.39
598.46	47262.44
598.61	47243.71
598.77	46726.46
598.93	46824.76
599.09	46997.96
599.24	47547.98
599.40	47683.73
599.56	47185.20
599.71	47377.12
599.87	47388.83
600.03	47194.56
600.18	46944.12
600.34	46892.63
600.50	47552.66
600.65	47117.32
600.81	47241.37
600.97	46990.94
601.12	47423.93
601.28	47079.88
601.44	46913.70
601.59	46712.41
601.75	46506.44
601.91	47367.76
602.06	46927.74
602.22	47056.47
602.37	46899.65
602.53	46820.08
602.69	47360.74
602.84	46824.76
603.00	46710.07
603.16	46829.44
603.31	47454.36
603.47	47433.30
603.62	47346.70
603.78	47583.09
603.94	47063.49
604.09	47433.30
604.25	47079.88
604.40	46948.81
604.56	46997.96
604.71	46827.10
604.87	46806.03
605.03	47002.64
605.18	46628.15
605.34	46806.03
605.49	46511.13
605.65	46780.29
605.80	47065.83
605.96	46813.05
606.12	47281.16
606.27	47061.15
606.43	46761.56
606.58	46902.00
606.74	46724.11
606.89	46777.95
607.05	46628.15
607.20	46845.82
607.36	47016.68
607.51	46831.78
607.67	46848.16
607.82	46564.96
607.98	46288.77
608.13	46415.16
608.29	46628.15
608.44	46356.65
608.60	46080.47
608.75	46677.30
608.91	46649.22
609.06	46698.37
609.22	46635.17
609.37	46534.53
609.53	46731.14
609.68	46817.74
609.84	46398.78
609.99	46487.72
610.15	46043.02
610.30	46033.66
610.46	45820.67
610.61	46684.33
610.76	46602.41
610.92	46642.20
611.07	46574.32
611.23	46590.70
611.38	46497.08
611.54	46370.69
611.69	46532.19
611.84	46019.61
612.00	45633.42
612.15	46150.68
612.31	46045.36
612.46	46614.11
612.62	46473.68
612.77	46302.82
612.92	46501.76
613.08	46108.55
613.23	45893.22
613.39	46115.58
613.54	45378.31
613.69	45640.45
613.85	46047.70
614.00	45799.60
614.15	46277.07
614.31	46227.92
614.46	46045.36
614.62	45640.45
614.77	46174.09
614.92	45811.31
615.08	45741.09
615.23	45890.88
615.38	45963.44
615.54	45771.52
615.69	45710.66
615.84	45223.83
616.00	45668.53
616.15	45752.79
616.30	45670.87
616.46	45144.25
616.61	45488.31
616.76	45406.39
616.92	45223.83
617.07	44985.10
617.22	45324.47
617.37	45214.47
617.53	45535.12
617.68	45645.13
617.83	45734.07
617.99	45170.00
618.14	45195.74
618.29	45532.78
618.45	45067.02
618.60	45155.96
618.75	44680.83
618.90	45148.93
619.06	45076.38
619.21	45256.60
619.36	45270.64
619.51	44683.17
619.67	45113.83
619.82	44870.41
619.97	44872.75
620.12	44945.31
620.28	44793.17
620.43	44877.43
620.58	45104.46
620.73	44994.46
620.89	44641.04
621.04	44694.87
621.19	45219.15
621.34	44910.20
621.49	44800.19
621.65	44786.15
621.80	45083.40
621.95	44741.68
622.10	44678.49
622.25	44353.15
622.41	44065.27
622.56	44512.31
622.71	44479.54
622.86	44566.14
623.01	44690.19
623.16	44573.16
623.32	44231.44
623.47	44495.92
623.62	44502.95
623.77	44776.79
623.92	44636.36
624.07	44016.11
624.23	44322.72
624.38	44245.49
624.53	44112.08
624.68	44451.45
624.83	44205.70
624.98	44041.86
625.13	43826.53
625.29	43880.36
625.44	43927.17
625.59	43976.33
625.74	43569.07
625.89	43599.50
626.04	43597.16
626.19	43358.42
626.34	43849.94
626.49	44076.97
626.65	43374.81
626.80	44210.38
626.95	43555.03
627.10	43814.83
627.25	43744.61
627.40	43393.53
627.55	43105.65
627.70	43129.05
627.85	43222.67
628.00	43220.33
628.15	43643.97
628.30	43138.41
628.45	43704.82
628.60	43241.40
628.76	43576.09
628.91	43395.87
629.06	42885.64
629.21	43400.55
629.36	43255.44
629.51	43152.46
629.66	43257.78
629.81	42850.53
629.96	43435.66
630.11	43091.60
630.26	43318.64
630.41	43220.33
630.56	42775.63
630.71	43136.07
630.86	42747.54
631.01	42464.34
631.16	43187.56
631.31	42607.11
631.46	42670.31
631.61	42731.16
631.76	42761.59
631.91	42995.64
632.06	42850.53
632.21	42817.76
632.36	43100.97
632.51	42490.09
632.66	42873.93
632.81	42426.89
632.96	42892.66
633.10	42314.55
633.25	42569.66
633.40	42754.57
633.55	42223.26
633.70	42424.55
633.85	42274.76
634.00	42279.44
634.15	42579.03
634.30	42218.58
634.45	42103.90
634.60	42007.94
634.75	42033.68
634.90	42728.82
635.05	41930.70
635.19	41998.57
635.34	42789.67
635.49	42274.76
635.64	41797.29
635.79	42029.00
635.94	41797.29
636.09	41984.53
636.24	41998.57
636.39	41766.86
636.53	41727.07
636.68	41961.12
636.83	41514.08
636.98	41841.76
637.13	41710.69
637.28	41977.51
637.43	41731.75
637.57	41617.07
637.72	41902.61
637.87	41926.02
638.02	41343.22
638.17	41869.84
638.32	41525.78
638.46	41640.47
638.61	41460.25
638.76	41308.11
638.91	41673.24
639.06	41504.72
639.20	42026.66
639.35	41713.03
639.50	41308.11
639.65	41612.38
639.80	41359.61
639.94	41251.94
640.09	41198.11
640.24	41319.82
640.39	41282.37
640.54	40985.12
640.68	41109.17
640.83	40849.37
640.98	41411.10
641.13	40858.73
641.27	41237.90
641.42	41102.15
641.57	40999.16
641.72	40872.78
641.86	40816.60
642.01	40524.04
642.16	40840.01
642.31	40240.83
642.45	40765.11
642.60	40470.20
642.75	40926.61
642.90	40650.42
643.04	40484.25
643.19	40758.09
643.34	40844.69
643.48	40414.03
643.63	40725.32
643.78	40622.34
643.93	40734.68
644.07	40474.88
644.22	40355.52
644.37	40074.65
644.51	40587.23
644.66	40172.96
644.81	40683.19
644.95	40364.88
645.10	40416.37
645.25	40388.28
645.39	40093.38
645.54	40086.36
645.69	40189.34
645.83	40175.30
645.98	39737.62
646.13	40203.38
646.27	40643.40
646.42	39983.37
646.57	40357.86
646.71	39824.22
646.86	39997.41
647.00	40217.43
647.15	39875.71
647.30	39931.88
647.44	39835.92
647.59	39906.13
647.74	39826.56
647.88	39405.26
648.03	39337.38
648.17	39751.66
648.32	39590.16
648.47	39449.73
648.61	39290.57
648.76	39526.97
648.90	39454.41
649.05	39648.68
649.20	39131.42
649.34	39864.00
649.49	39089.29
649.63	38937.15
649.78	39388.88
649.92	39739.96
650.07	39643.99
650.21	39714.21
650.36	39681.44
650.51	39264.83
650.65	39693.15
650.80	39983.37
650.94	39484.84
651.09	38920.77
651.23	39220.36
651.38	39323.34
651.52	39021.41
651.67	39110.35
651.81	38813.10
651.96	39267.17
652.10	39288.23
652.25	39651.02
652.39	38955.88
652.54	39311.64
652.68	39203.97
652.83	39393.56
652.97	39220.36
653.12	38892.68
653.26	38972.26
653.41	38513.52
653.55	38625.86
653.70	38782.68
653.84	38679.69
653.99	38686.71
654.13	38366.06
654.27	38408.19
654.42	38581.39
654.56	38352.02
654.71	38630.54
654.85	38539.26
655.00	38211.59
655.14	38183.50
655.29	38108.60
655.43	38621.18
655.57	38270.10
655.72	37991.58
655.86	37872.21
656.01	37376.01
656.15	37244.94
656.30	37736.46
656.44	37509.43
656.58	38080.52
656.73	37869.87
656.87	37839.44
657.01	37998.60
657.16	37890.93
657.30	37429.85
657.45	37762.20
657.59	37500.06
657.73	37720.07
657.88	38162.43
658.02	37673.26
658.16	37956.47
658.31	38230.31
658.45	37895.61
658.60	37542.19
658.74	38389.47
658.88	37509.43
659.03	37745.82
659.17	37256.65
659.31	37467.30
659.46	36975.78
659.60	37872.21
659.74	37818.38
659.89	36992.17
660.03	37111.53
660.17	37406.44
660.32	37280.05
660.46	37418.14
660.60	37329.20
660.74	36833.01
660.89	37062.38
661.03	36690.24
661.17	36575.55
661.32	36961.74
661.46	36903.23
661.60	37003.87
661.74	36226.81
661.89	36786.20
662.03	37064.72
662.17	36800.24
662.31	36364.90
662.46	37144.30
662.60	36671.51
662.74	36701.94
662.88	36091.06
663.03	36261.92
663.17	36011.48
663.31	35828.92
663.45	36151.91
663.60	36217.45
663.74	35908.50
663.88	36086.38
664.02	35798.49
664.17	35974.03
664.31	35585.50
664.45	35665.08
664.59	35758.70
664.73	35735.30
664.88	35660.40
665.02	35594.87
665.16	35660.40
665.30	35143.14
665.44	35372.52
665.59	35140.80
665.73	35283.58
665.87	34948.88
666.01	35297.62
666.15	35178.25
666.29	35072.93
666.44	35501.25
666.58	35346.77
666.72	34890.37
666.86	35145.48
667.00	34998.03
667.14	34492.47
667.28	34625.89
667.43	34415.24
667.57	34646.95
667.71	34902.07
667.85	34675.04
667.99	34593.12
668.13	34464.39
668.27	34979.31
668.41	34106.29
668.56	33848.83
668.70	34593.12
668.84	34653.97
668.98	33879.25
669.12	34291.19
669.26	33773.93
669.40	34220.97
669.54	34071.18
669.68	33846.49
669.82	33710.74
669.96	33486.04
670.10	33577.33
670.25	33427.53
670.39	33364.34
670.53	33427.53
670.67	33090.49
670.81	33474.34
670.95	33282.42
671.09	33165.39
671.23	32987.51
671.37	33193.48
671.51	32746.44
671.65	33039.00
671.79	32891.55
671.93	32816.65
672.07	32818.99
672.21	32538.13
672.35	32533.45
672.49	33017.94
672.63	32987.51
672.77	32371.95
672.91	32615.37
673.05	32517.06
673.19	32393.01
673.33	31948.31
673.47	32114.49
673.61	31917.89
673.75	31934.27
673.89	31618.30
674.03	31924.91
674.17	31969.38
674.31	31765.75
674.45	31885.12
674.59	31749.37
674.73	31934.27
674.87	31555.10
675.01	31531.70
675.15	31398.29
675.29	30953.58
675.43	31227.43
675.56	31283.60
675.70	31021.46
675.84	31152.53
675.98	30312.28
676.12	30370.79
676.26	30998.06
676.40	31140.83
676.54	30834.22
676.68	30710.17
676.82	30340.36
676.96	30541.65
677.10	30143.76
677.23	30316.96
677.37	30263.13
677.51	30024.39
677.65	29996.31
677.79	29340.96
677.93	29596.07
678.07	29748.21
678.21	29050.73
678.34	29043.71
678.48	29057.75
678.62	28758.16
678.76	28872.85
678.90	28783.91
679.04	28917.32
679.18	28657.52
679.31	28538.15
679.45	28446.87
679.59	28453.89
679.73	28617.73
679.87	28369.63
680.00	27908.55
680.14	28467.94
680.28	28058.34
680.42	28093.45
680.56	27948.34
680.70	28093.45
680.83	27885.14
680.97	28020.89
681.11	27871.10
681.25	27814.93
681.39	27484.91
681.52	27646.41
681.66	27255.54
681.80	27421.72
681.94	26981.70
682.07	27248.52
682.21	26883.39
682.35	26962.97
682.49	27281.28
682.62	26733.60
682.76	26277.19
682.90	26281.88
683.04	26412.95
683.17	26401.24
683.31	26068.89
683.45	26094.63
683.59	25893.35
683.72	25996.33
683.86	26080.59
684.00	26185.91
684.13	26015.05
684.27	25596.10
684.41	25282.47
684.55	25113.95
684.68	25483.75
684.82	25216.93
684.96	25317.57
685.09	25579.71
685.23	24823.72
685.37	25106.93
685.50	25144.38
685.64	24910.32
685.78	24554.56
685.91	24524.13
686.05	24245.61
686.19	24051.34
686.32	24130.92
686.46	23814.95
686.60	23644.09
686.73	23262.58
686.87	23573.88
687.01	23211.09
687.14	23007.47
687.28	23119.81
687.42	23391.31
687.55	23351.52
687.69	23208.75
687.82	23063.64
687.96	23285.99
688.10	22808.52
688.23	23033.21
688.37	22546.38
688.50	22752.35
688.64	22647.02
688.78	22733.62
688.91	22412.97
689.05	22750.01
689.18	22356.80
689.32	22040.82
689.46	22036.14
689.59	22284.24
689.73	22609.58
689.86	22204.66
690.00	21872.31
690.13	22040.82
690.27	21617.19
690.41	21645.27
690.54	21280.15
690.68	21488.46
690.81	21432.29
690.95	21647.61
691.08	21303.56
691.22	21364.41
691.35	21373.77
691.49	21268.45
691.62	21268.45
691.76	21362.07
691.89	20877.58
692.03	20842.47
692.16	20795.66
692.30	20566.29
692.43	20456.28
692.57	20425.86
692.70	20503.09
692.84	20472.67
692.97	20056.05
693.11	20144.99
693.24	19894.55
693.38	19885.19
693.51	19833.70
693.65	20063.07
693.78	19864.13
693.92	19634.75
694.05	19857.10
694.19	19459.21
694.32	19800.93
694.45	19587.94
694.59	19204.10
694.72	19461.55
694.86	19290.70
694.99	19089.41
695.13	19161.97
695.26	19012.17
695.39	18782.80
695.53	18782.80
695.66	19161.97
695.80	18586.19
695.93	18546.40
696.07	18714.92
696.20	18548.75
696.33	18501.93
696.47	18567.47
696.60	18200.01
696.73	18466.83
696.87	18277.24
697.00	18228.09
697.14	17736.58
697.27	17919.14
697.40	17762.33
697.54	17724.88
697.67	17474.44
697.80	17680.41
697.94	17172.51
698.07	17184.21
698.21	17205.28
698.34	17268.47
698.47	17142.08
698.61	17078.89
698.74	16999.31
698.87	16856.54
699.01	16716.11
699.14	16706.74
699.27	16599.08
699.40	16566.31
699.54	16575.67
699.67	16613.12
699.80	16451.63
699.94	16030.33
700.07	16201.19
700.20	16262.04
700.34	16049.05
700.47	16304.17
700.60	16280.77
700.73	16039.69
700.87	15939.05
701.00	15765.85
701.13	15592.65
701.26	15374.98
701.40	15616.05
701.53	15503.71
701.66	15690.95
701.79	15496.69
701.93	14953.68
702.06	14902.19
702.19	15063.69
702.32	15400.72
702.46	14977.09
702.59	15204.12
702.72	14843.68
702.85	14981.77
702.99	14857.72
703.12	14960.70
703.25	14721.97
703.38	14588.56
703.51	14469.19
703.65	14618.99
703.78	14380.25
703.91	14193.01
704.04	14129.81
704.17	14221.10
704.31	13937.89
704.44	13811.50
704.57	14015.13
704.70	14169.60
704.83	13942.57
704.96	13923.85
705.10	13757.67
705.23	13741.29
>>>>>End Processed Spectral Data<<<<<
