SpectraSuite Data File
++++++++++++++++++++++++++++++++++++
Date: Fri Oct 25 10:46:55 EDT 2013
User: price-jones
Dark Spectrum Present: No
Reference Spectrum Present: No
Number of Sampled Component Spectra: 1
Spectrometers: USB2+H05261
Integration Time (usec): 100000 (USB2+H05261)
Spectra Averaged: 1 (USB2+H05261)
Boxcar Smoothing: 0 (USB2+H05261)
Correct for Electrical Dark: No (USB2+H05261)
Strobe/Lamp Enabled: No (USB2+H05261)
Correct for Detector Non-linearity: No (USB2+H05261)
Correct for Stray Light: No (USB2+H05261)
Number of Pixels in Processed Spectrum: 2048
>>>>>Begin Processed Spectral Data<<<<<
365.73	152.13
365.92	152.13
366.12	152.13
366.32	81.92
366.52	11.70
366.72	37.45
366.91	79.58
367.11	102.98
367.31	28.09
367.51	18.72
367.70	70.22
367.90	77.24
368.10	35.11
368.30	0.00
368.49	14.04
368.69	39.79
368.89	0.00
369.09	16.38
369.28	60.85
369.48	44.47
369.68	30.43
369.87	35.11
370.07	102.98
370.27	128.73
370.47	217.67
370.66	283.20
370.86	517.26
371.06	353.42
371.25	503.22
371.45	454.06
371.65	521.94
371.84	447.04
372.04	505.56
372.24	540.66
372.44	547.69
372.63	477.47
372.83	477.47
373.03	524.28
373.22	533.64
373.42	423.64
373.62	491.51
373.81	587.47
374.01	587.47
374.21	580.45
374.40	578.11
374.60	496.19
374.79	617.90
374.99	608.54
375.19	578.11
375.38	554.71
375.58	592.16
375.78	592.16
375.97	554.71
376.17	657.69
376.37	620.24
376.56	678.76
376.76	608.54
376.95	641.31
377.15	727.91
377.35	725.57
377.54	695.14
377.74	657.69
377.93	685.78
378.13	662.37
378.33	643.65
378.52	725.57
378.72	645.99
378.91	631.94
379.11	603.86
379.31	648.33
379.50	594.50
379.70	718.54
379.89	648.33
380.09	674.07
380.28	692.80
380.48	697.48
380.68	699.82
380.87	697.48
381.07	674.07
381.26	779.40
381.46	713.86
381.65	685.78
381.85	683.44
382.04	779.40
382.24	655.35
382.43	678.76
382.63	690.46
382.83	786.42
383.02	777.06
383.22	793.44
383.41	734.93
383.61	753.65
383.80	793.44
384.00	844.93
384.19	770.04
384.39	840.25
384.58	835.57
384.78	847.27
384.97	805.14
385.17	784.08
385.36	798.12
385.56	788.76
385.75	781.74
385.95	849.61
386.14	856.64
386.34	835.57
386.53	842.59
386.72	814.51
386.92	954.94
387.11	898.77
387.31	912.81
387.50	884.72
387.70	954.94
387.89	866.00
388.09	875.36
388.28	858.98
388.48	891.74
388.67	966.64
388.86	964.30
389.06	887.06
389.25	997.07
389.45	964.30
389.64	945.58
389.84	882.38
390.03	1020.47
390.22	1020.47
390.42	1027.50
390.61	973.66
390.81	1081.33
391.00	1041.54
391.19	1090.69
391.39	1015.79
391.58	1097.71
391.78	1076.65
391.97	1104.73
392.16	1071.97
392.36	1090.69
392.55	1004.09
392.75	1034.52
392.94	1064.94
393.13	1083.67
393.33	1022.81
393.52	1071.97
393.71	1114.10
393.91	1221.76
394.10	1163.25
394.29	1174.95
394.49	1071.97
394.68	1191.33
394.88	1184.31
395.07	1200.69
395.26	1273.25
395.46	1158.57
395.65	1329.42
395.84	1214.74
396.04	1228.78
396.23	1240.48
396.42	1128.14
396.62	1149.20
396.81	1179.63
397.00	1275.59
397.19	1287.29
397.39	1355.17
397.58	1409.00
397.77	1399.64
397.97	1483.90
398.16	1451.13
398.35	1460.49
398.55	1357.51
398.74	1493.26
398.93	1537.73
399.12	1467.52
399.32	1483.90
399.51	1514.33
399.70	1554.12
399.90	1533.05
400.09	1577.52
400.28	1544.75
400.47	1561.14
400.67	1652.42
400.86	1614.97
401.05	1619.65
401.24	1668.80
401.44	1654.76
401.63	1727.32
401.82	1603.27
402.01	1645.40
402.21	1647.74
402.40	1717.95
402.59	1647.74
402.78	1703.91
402.97	1682.85
403.17	1839.66
403.36	1809.23
403.55	1741.36
403.74	1806.89
403.93	1811.57
404.13	1921.58
404.32	1720.29
404.51	1790.51
404.70	1898.17
404.89	1921.58
405.09	1947.33
405.28	1949.67
405.47	1902.86
405.66	1966.05
405.85	1891.15
406.05	1888.81
406.24	1987.11
406.43	1886.47
406.62	2050.31
406.81	2071.37
407.00	1954.35
407.20	2059.67
407.39	2085.42
407.58	2097.12
407.77	2228.19
407.96	2277.34
408.15	2136.91
408.34	2260.96
408.54	2310.11
408.73	2260.96
408.92	2324.15
409.11	2370.96
409.30	2260.96
409.49	2356.92
409.68	2197.76
409.87	2392.03
410.07	2333.51
410.26	2331.17
410.45	2279.68
410.64	2420.11
410.83	2438.84
411.02	2544.16
411.21	2506.71
411.40	2516.08
411.59	2553.52
411.78	2630.76
411.98	2567.57
412.17	2609.70
412.36	2555.86
412.55	2672.89
412.74	2689.28
412.93	2808.64
413.12	2679.91
413.31	2918.65
413.50	2708.00
413.69	2801.62
413.88	2895.24
414.07	2867.16
414.26	2904.60
414.45	2822.69
414.64	2998.23
414.83	3038.02
415.02	2869.50
415.22	3176.11
415.41	3143.34
415.60	3187.81
415.79	3229.94
415.98	3077.80
416.17	3119.93
416.36	3222.92
416.55	3077.80
416.74	3164.40
416.93	3201.85
417.12	3229.94
417.31	3337.60
417.50	3372.71
417.69	3445.27
417.88	3379.73
418.07	3344.63
418.26	3372.71
418.45	3428.88
418.64	3531.87
418.83	3538.89
419.02	3412.50
419.21	3529.53
419.39	3414.84
419.58	3534.21
419.77	3438.25
419.96	3630.17
420.15	3726.13
420.34	3695.71
420.53	3709.75
420.72	3658.26
420.91	3707.41
421.10	3925.08
421.29	3791.67
421.48	3810.39
421.67	3859.54
421.86	3751.88
422.05	3730.81
422.24	3728.47
422.43	3782.31
422.61	3822.09
422.80	3880.61
422.99	3894.65
423.18	3805.71
423.37	3873.59
423.56	3868.91
423.75	3775.28
423.94	3857.20
424.13	3705.07
424.32	3829.12
424.50	3962.53
424.69	3948.48
424.88	4173.18
425.07	3824.44
425.26	3889.97
425.45	3878.27
425.64	3761.24
425.83	4081.89
426.01	3866.56
426.20	3911.04
426.39	4049.13
426.58	4002.32
426.77	3899.33
426.96	4002.32
427.15	3967.21
427.33	3852.52
427.52	3999.98
427.71	3978.91
427.90	4135.73
428.09	4114.66
428.28	4119.34
428.46	4102.96
428.65	4145.09
428.84	4166.15
429.03	4217.65
429.22	4091.26
429.40	4166.15
429.59	4203.60
429.78	3929.76
429.97	4058.49
430.16	4152.11
430.34	4091.26
430.53	4081.89
430.72	4210.62
430.91	4156.79
431.10	4210.62
431.28	4423.61
431.47	4580.43
431.66	4631.92
431.85	4468.08
432.03	4664.69
432.22	4526.60
432.41	4535.96
432.60	4641.28
432.79	4638.94
432.97	4603.83
433.16	4667.03
433.35	4629.58
433.54	4835.55
433.72	4720.86
433.91	4606.17
434.10	4662.35
434.28	4734.90
434.47	4802.78
434.66	4835.55
434.85	4863.63
435.03	4910.44
435.22	4830.87
435.41	5025.13
435.59	4978.32
435.78	5004.07
435.97	5048.54
436.16	5076.62
436.34	5057.90
436.53	4978.32
436.72	5193.65
436.90	4990.02
437.09	5291.95
437.28	5074.28
437.46	5221.74
437.65	5151.52
437.84	5069.60
438.02	5100.03
438.21	5177.26
438.40	5039.17
438.58	5266.21
438.77	5327.06
438.96	5355.15
439.14	5430.04
439.33	5607.92
439.52	5425.36
439.70	5416.00
439.89	5596.22
440.08	5664.10
440.26	5778.78
440.45	5619.63
440.63	5844.32
440.82	5935.60
441.01	5923.90
441.19	5870.06
441.38	5975.39
441.57	5944.96
441.75	6090.07
441.94	6277.32
442.12	6115.82
442.31	6401.37
442.50	6305.40
442.68	6214.12
442.87	6223.48
443.05	6422.43
443.24	6340.51
443.43	6438.81
443.61	6534.78
443.80	6609.67
443.98	6438.81
444.17	6204.76
444.35	6403.71
444.54	6417.75
444.73	6370.94
444.91	6483.28
445.10	6415.41
445.28	6375.62
445.47	6324.13
445.65	6382.64
445.84	6504.35
446.02	6471.58
446.21	6450.52
446.39	6293.70
446.58	6722.02
446.77	6677.55
446.95	6452.86
447.14	6408.39
447.32	6546.48
447.51	6658.82
447.69	6637.76
447.88	6630.74
448.06	6595.63
448.25	6715.00
448.43	6881.18
448.62	6565.20
448.80	6539.46
448.99	6729.04
449.17	6829.68
449.36	6595.63
449.54	6853.09
449.73	7000.54
449.91	6944.37
450.10	7077.78
450.28	7131.61
450.46	7096.50
450.65	7075.44
450.83	6993.52
451.02	7068.42
451.20	7218.21
451.39	7288.43
451.57	7105.87
451.76	7061.40
451.94	7218.21
452.13	7000.54
452.31	7007.56
452.49	6984.16
452.68	7152.68
452.86	7133.95
453.05	7197.15
453.23	7279.07
453.42	7152.68
453.60	7192.47
453.78	7351.62
453.97	7290.77
454.15	7323.54
454.34	7265.02
454.52	7417.16
454.70	7447.58
454.89	7482.69
455.07	7478.01
455.26	7407.80
455.44	7641.85
455.62	7648.87
455.81	7672.28
455.99	7651.21
456.17	7852.50
456.36	7779.94
456.54	7779.94
456.73	7803.35
456.91	7997.61
457.09	8013.99
457.28	8138.04
457.46	7749.51
457.64	8177.83
457.83	7911.01
458.01	7854.84
458.19	8079.53
458.38	8177.83
458.56	8196.56
458.74	8105.28
458.93	8098.25
459.11	8191.88
459.29	8084.21
459.48	8255.07
459.66	8400.18
459.84	8475.08
460.03	8346.35
460.21	8435.29
460.39	8409.54
460.57	8390.82
460.76	8737.22
460.94	8557.00
461.12	8505.51
461.31	8524.23
461.49	8388.48
461.67	8517.21
461.85	8582.74
462.04	8582.74
462.22	9048.51
462.40	8898.72
462.59	8856.59
462.77	8760.63
462.95	8755.94
463.13	8755.94
463.32	8933.82
463.50	9032.13
463.68	8879.99
463.86	8915.10
464.05	8788.71
464.23	8922.12
464.41	9022.77
464.59	8868.29
464.78	9050.85
464.96	8861.27
465.14	8959.57
465.32	9083.62
465.50	9212.35
465.69	9212.35
465.87	9121.07
466.05	9210.01
466.23	9235.75
466.41	8891.70
466.60	9298.95
466.78	9172.56
466.96	9221.71
467.14	9294.27
467.32	9331.72
467.51	9385.55
467.69	9064.89
467.87	9301.29
468.05	9507.26
468.23	9275.54
468.41	9462.79
468.60	9387.89
468.78	9509.60
468.96	9600.88
469.14	9579.81
469.32	9647.69
469.50	9252.14
469.69	9523.64
469.87	9860.68
470.05	9610.24
470.23	9692.16
470.41	9891.10
470.59	9940.26
470.77	9703.86
470.95	9827.91
471.14	10106.43
471.32	9839.61
471.50	10125.16
471.68	10235.16
471.86	10178.99
472.04	10401.34
472.22	10438.79
472.40	10197.71
472.58	10195.37
472.77	10436.45
472.95	10469.22
473.13	10703.27
473.31	10518.37
473.49	10551.14
473.67	10501.98
473.85	10424.75
474.03	10857.75
474.21	10820.30
474.39	11194.78
474.57	10925.62
474.75	10986.47
474.93	11059.03
475.12	10965.41
475.30	11243.93
475.48	11098.82
475.66	11129.25
475.84	11222.87
476.02	11349.26
476.20	11330.53
476.38	11440.54
476.56	11716.72
476.74	11763.53
476.92	11414.79
477.10	11777.58
477.28	12011.63
477.46	11960.14
477.64	12028.01
477.82	12446.97
478.00	12428.24
478.18	12510.16
478.36	12402.50
478.54	12594.42
478.72	12615.49
478.90	12575.70
479.08	12769.96
479.26	12996.99
479.44	13238.07
479.62	13308.29
479.80	13249.77
479.98	13242.75
480.16	13535.32
480.34	13392.55
480.52	13614.90
480.70	13837.25
480.88	13593.83
481.06	13778.73
481.24	13624.26
481.41	14031.51
481.59	14363.87
481.77	14438.76
481.95	14104.07
482.13	14696.22
482.31	14452.81
482.49	14824.95
482.67	14796.87
482.85	14974.75
483.03	14995.81
483.21	15220.50
483.39	15335.19
483.57	15449.88
483.74	15332.85
483.92	15454.56
484.10	15360.94
484.28	15838.41
484.46	15840.75
484.64	16414.18
484.82	16269.06
485.00	15953.09
485.18	16145.02
485.35	16465.67
485.53	16156.72
485.71	16065.44
485.89	16346.30
486.07	16489.07
486.25	16547.59
486.43	16835.47
486.61	16982.93
486.78	17439.33
486.96	17458.06
487.14	17666.36
487.32	17652.32
487.50	17710.83
487.68	18251.50
487.85	18111.07
488.03	18408.31
488.21	18434.06
488.39	18459.81
488.57	18581.51
488.75	18700.88
488.92	19154.94
489.10	19384.32
489.28	19115.16
489.46	19410.06
489.64	19550.49
489.81	20107.54
489.99	20320.53
490.17	20121.59
490.35	20512.46
490.53	20154.35
490.70	20526.50
490.88	20107.54
491.06	20713.74
491.24	20601.40
491.41	20594.37
491.59	20910.35
491.77	20676.29
491.95	21090.57
492.13	21277.81
492.30	21713.15
492.48	21745.92
492.66	21673.36
492.84	21443.99
493.01	22129.77
493.19	22033.80
493.37	22197.64
493.54	22237.43
493.72	22279.56
493.90	22157.85
494.08	22632.98
494.25	23063.64
494.43	22963.00
494.61	23234.50
494.79	23168.96
494.96	23037.89
495.14	23559.83
495.32	23372.59
495.49	23606.64
495.67	23667.50
495.85	23625.37
496.02	23864.10
496.20	24196.46
496.38	24238.59
496.55	24556.90
496.73	24987.56
496.91	24608.39
497.09	24526.47
497.26	24821.38
497.44	24884.58
497.62	24926.71
497.79	25326.94
497.97	25270.76
498.14	25493.12
498.32	25600.78
498.50	25474.39
498.67	26122.72
498.85	26256.13
499.03	26108.68
499.20	26230.38
499.38	26190.59
499.56	26345.07
499.73	26513.59
499.91	26457.42
500.08	26373.16
500.26	26485.50
500.44	26611.89
500.61	26899.78
500.79	26471.46
500.97	26668.06
501.14	27208.73
501.32	27388.95
501.49	26958.29
501.67	27131.49
501.84	27508.32
502.02	27339.80
502.20	27304.69
502.37	27564.49
502.55	27632.36
502.72	27882.80
502.90	27927.27
503.07	27887.48
503.25	28622.41
503.43	28009.19
503.60	28137.92
503.78	28140.26
503.95	28332.18
504.13	28758.16
504.30	28680.92
504.48	28397.72
504.65	28657.52
504.83	28711.35
505.01	28961.79
505.18	29015.62
505.36	28938.38
505.53	29432.24
505.71	29865.24
505.88	29649.91
506.06	29336.27
506.23	29589.05
506.41	29046.05
506.58	29392.45
506.76	29919.07
506.93	30047.80
507.11	30251.42
507.28	29930.77
507.46	29949.50
507.63	30036.09
507.81	30499.52
507.98	29851.19
508.16	30164.82
508.33	30185.89
508.50	30881.03
508.68	30747.62
508.85	31124.44
509.03	30810.81
509.20	31014.44
509.38	30946.56
509.55	31386.58
509.73	31417.01
509.90	31428.71
510.08	31023.80
510.25	31363.18
510.42	31632.34
510.60	31510.63
510.77	31630.00
510.95	31847.67
511.12	31908.52
511.30	32086.40
511.47	32084.06
511.64	32346.20
511.82	32144.92
511.99	32025.55
512.17	32217.47
512.34	32580.26
512.51	32779.20
512.69	32510.04
512.86	32622.39
513.04	33113.90
513.21	32844.74
513.38	32659.84
513.56	32804.95
513.73	32690.26
513.90	33120.92
514.08	33069.43
514.25	33219.22
514.43	33392.42
514.60	33242.63
514.77	33205.18
514.95	33380.72
515.12	33834.78
515.29	33387.74
515.47	33909.68
515.64	34015.01
515.81	33640.52
515.99	33975.22
516.16	33603.07
516.33	33790.31
516.51	33717.76
516.68	33195.82
516.85	33462.64
517.03	33844.15
517.20	34082.88
517.37	34164.80
517.54	34366.09
517.72	34108.63
517.89	34340.34
518.06	34356.72
518.24	34153.10
518.41	34162.46
518.58	34513.54
518.75	34850.58
518.93	34789.72
519.10	35091.65
519.27	35147.82
519.45	35143.14
519.62	35634.66
519.79	35227.40
519.96	35461.46
520.14	35426.35
520.31	35398.26
520.48	35875.73
520.65	35548.06
520.83	36025.53
521.00	35882.75
521.17	35941.27
521.34	35665.08
521.52	36006.80
521.69	36339.16
521.86	36383.63
522.03	36154.26
522.20	36327.45
522.38	36505.34
522.55	36304.05
522.72	36105.10
522.89	36423.42
523.07	36608.32
523.24	36465.55
523.41	36811.95
523.58	36507.68
523.75	37179.41
523.92	37247.29
524.10	37158.34
524.27	36999.19
524.44	37572.62
524.61	37479.00
524.78	37628.79
524.96	37963.49
525.13	37727.10
525.30	37935.40
525.47	38087.54
525.64	37769.22
525.81	37624.11
525.98	37666.24
526.16	37275.37
526.33	37638.15
526.50	37586.66
526.67	37308.14
526.84	37668.58
527.01	37759.86
527.18	38057.11
527.36	37413.46
527.53	38188.18
527.70	38600.12
527.87	38345.00
528.04	38513.52
528.21	38717.14
528.38	38389.47
528.55	39014.39
528.72	39016.73
528.89	38998.01
529.07	39065.88
529.24	38710.12
529.41	38925.45
529.58	38939.49
529.75	38543.94
529.92	39203.97
530.09	39175.89
530.26	39325.68
530.43	39147.80
530.60	38927.79
530.77	39599.52
530.94	39346.75
531.11	38911.41
531.28	39641.65
531.46	39566.76
531.63	39538.67
531.80	39234.40
531.97	39641.65
532.14	39526.97
532.31	39431.01
532.48	39590.16
532.65	39969.33
532.82	39709.53
532.99	39927.20
533.16	39636.97
533.33	39985.71
533.50	39899.11
533.67	40388.28
533.84	40151.89
534.01	39819.53
534.18	40407.01
534.35	40868.09
534.52	39966.99
534.69	40404.67
534.86	40643.40
535.03	40350.84
535.20	40708.94
535.37	40975.76
535.54	40938.31
535.71	40636.38
535.88	40858.73
536.05	41219.17
536.22	40804.90
536.38	40842.35
536.55	40755.75
536.72	41207.47
536.89	40708.94
537.06	40957.03
537.23	41139.60
537.40	40802.56
537.57	40797.88
537.74	41022.57
537.91	41759.84
538.08	41586.64
538.25	40786.18
538.42	41230.88
538.59	41167.68
538.75	41137.26
538.92	41457.91
539.09	41415.78
539.26	41354.93
539.43	41713.03
539.60	41464.93
539.77	41684.94
539.94	41881.55
540.11	41385.35
540.28	41488.34
540.44	41677.92
540.61	41956.44
540.78	41675.58
540.95	41858.14
541.12	41226.20
541.29	41638.13
541.46	41778.56
541.62	41839.42
541.79	41869.84
541.96	41783.24
542.13	41832.39
542.30	42307.52
542.47	41799.63
542.63	42359.02
542.80	42536.90
542.97	42607.11
543.14	42834.14
543.31	43100.97
543.48	42644.56
543.64	42817.76
543.81	42813.08
543.98	42976.92
544.15	42539.24
544.32	42857.55
544.48	43288.21
544.65	43414.60
544.82	42761.59
544.99	42754.57
545.16	43115.01
545.32	43217.99
545.49	43304.59
545.66	43222.67
545.83	43217.99
546.00	43782.06
546.16	43260.12
546.33	43229.69
546.50	42822.44
546.67	43309.27
546.83	43075.22
547.00	43515.24
547.17	43477.79
547.34	43140.75
547.50	43578.43
547.67	44130.80
547.84	43365.45
548.00	43732.91
548.17	44175.27
548.34	43817.17
548.51	44245.49
548.67	43789.08
548.84	43959.94
549.01	43655.67
549.18	43770.36
549.34	43648.65
549.51	43564.39
549.68	44013.77
549.84	44126.12
550.01	44072.29
550.18	44114.42
550.34	44165.91
550.51	43807.81
550.68	43489.49
550.84	43737.59
551.01	44112.08
551.18	44020.80
551.34	44163.57
551.51	44575.50
551.68	44816.58
551.84	44634.02
552.01	44289.96
552.18	44205.70
552.34	44182.29
552.51	44575.50
552.68	44437.41
552.84	44631.68
553.01	44856.37
553.18	44339.11
553.34	44774.45
553.51	44453.79
553.67	44685.51
553.84	44992.12
554.01	44430.39
554.17	45097.44
554.34	45081.06
554.51	44964.03
554.67	45123.19
554.84	45085.74
555.00	44741.68
555.17	44535.71
555.33	45015.52
555.50	44823.60
555.67	45230.85
555.83	44847.00
556.00	45301.07
556.16	45631.08
556.33	44886.79
556.50	45162.98
556.66	45394.69
556.83	45174.68
556.99	45294.05
557.16	45612.36
557.32	45184.04
557.49	45200.43
557.65	44994.46
557.82	45170.00
557.98	45516.40
558.15	45123.19
558.32	45361.92
558.48	45310.43
558.65	45188.72
558.81	45191.06
558.98	45570.23
559.14	45034.25
559.31	45097.44
559.47	45425.12
559.64	45713.00
559.80	45450.86
559.97	45490.65
560.13	45542.14
560.30	45249.58
560.46	45436.82
560.63	45851.09
560.79	45818.33
560.96	46101.53
561.12	45748.11
561.29	45909.61
561.45	45628.74
561.61	45860.46
561.78	46103.87
561.94	45228.51
562.11	45710.66
562.27	45701.30
562.44	45649.81
562.60	45792.58
562.77	45942.38
562.93	45567.89
563.10	45909.61
563.26	45514.06
563.42	45801.94
563.59	45626.40
563.75	45544.48
563.92	46138.98
564.08	46078.13
564.24	45844.07
564.41	45610.02
564.57	45904.93
564.74	45591.30
564.90	45916.63
565.07	46031.32
565.23	45813.65
565.39	45675.55
565.56	46066.42
565.72	45703.64
565.88	46171.75
566.05	45914.29
566.21	45752.79
566.38	46148.34
566.54	45881.52
566.70	46646.88
566.87	46593.04
567.03	46033.66
567.19	46511.13
567.36	46080.47
567.52	46176.43
567.68	46246.65
567.85	45799.60
568.01	45886.20
568.17	46129.62
568.34	46192.81
568.50	45970.46
568.66	46028.98
568.83	46298.14
568.99	45872.16
569.15	46417.50
569.32	46155.36
569.48	45989.19
569.64	46330.90
569.81	46639.86
569.97	45909.61
570.13	46101.53
570.30	46019.61
570.46	45610.02
570.62	45928.33
570.78	45741.09
570.95	45907.27
571.11	46101.53
571.27	45595.98
571.43	46052.38
571.60	46515.81
571.76	46197.49
571.92	46096.85
572.09	46344.95
572.25	46328.56
572.41	46040.68
572.57	46426.87
572.74	47262.44
572.90	46253.67
573.06	46232.60
573.22	46113.23
573.38	46101.53
573.55	46436.23
573.71	46234.94
573.87	46337.93
574.03	46227.92
574.20	46263.03
574.36	46375.37
574.52	46389.42
574.68	46094.51
574.84	46398.78
575.01	46302.82
575.17	46309.84
575.33	46176.43
575.49	46237.28
575.65	46791.99
575.82	46679.64
575.98	46162.39
576.14	46593.04
576.30	46597.73
576.46	45914.29
576.62	46106.21
576.79	46555.60
576.95	45794.92
577.11	46518.15
577.27	46293.46
577.43	46527.51
577.59	46253.67
577.75	46646.88
577.92	46134.30
578.08	46120.26
578.24	46216.22
578.40	46316.86
578.56	46211.54
578.72	46513.47
578.88	46817.74
579.04	46651.56
579.21	46309.84
579.37	46356.65
579.53	46426.87
579.69	46220.90
579.85	46316.86
580.01	46539.21
580.17	46567.30
580.33	46609.43
580.49	46384.74
580.65	46670.28
580.82	46705.39
580.98	46253.67
581.14	46312.18
581.30	46689.01
581.46	46471.34
581.62	46593.04
581.78	46621.13
581.94	46773.27
582.10	46260.69
582.26	46873.91
582.42	46667.94
582.58	46057.06
582.74	46330.90
582.90	46728.80
583.06	46754.54
583.22	46134.30
583.38	46946.47
583.54	46698.37
583.70	46597.73
583.86	46623.47
584.02	45860.46
584.18	46880.93
584.34	46536.87
584.50	46625.81
584.66	46438.57
584.82	46433.89
584.98	46766.24
585.14	46429.21
585.30	46483.04
585.46	46380.06
585.62	46209.20
585.78	46483.04
585.94	46031.32
586.10	46506.44
586.26	46733.48
586.42	46841.14
586.58	47089.24
586.74	46588.36
586.90	46766.24
587.06	46831.78
587.22	46848.16
587.38	46146.00
587.54	46962.85
587.70	46520.49
587.86	46616.45
588.02	46752.20
588.18	46864.55
588.34	46295.80
588.49	46061.74
588.65	45897.91
588.81	45872.16
588.97	46227.92
589.13	46120.26
589.29	45968.12
589.45	46267.71
589.61	46623.47
589.77	46808.37
589.93	46618.79
590.08	46988.60
590.24	46501.76
590.40	46932.42
590.56	46946.47
590.72	46607.09
590.88	46405.80
591.04	46506.44
591.20	46815.40
591.35	46951.15
591.51	47309.25
591.67	46745.18
591.83	46646.88
591.99	46539.21
592.15	46354.31
592.31	46801.35
592.46	46454.95
592.62	46770.93
592.78	46841.14
592.94	46747.52
593.10	46885.61
593.26	46553.26
593.41	46609.43
593.57	46916.04
593.73	46745.18
593.89	46899.65
594.05	46876.25
594.20	46263.03
594.36	46541.55
594.52	46625.81
594.68	46656.24
594.84	46873.91
594.99	46920.72
595.15	46747.52
595.31	47103.28
595.47	46979.23
595.62	46852.84
595.78	46899.65
595.94	47004.98
596.10	47154.77
596.25	46600.07
596.41	47274.14
596.57	46972.21
596.73	46960.51
596.88	47007.32
597.04	46506.44
597.20	46740.50
597.36	46616.45
597.51	46707.73
597.67	47091.58
597.83	47114.98
597.99	46782.63
598.14	46761.56
598.30	47058.81
598.46	46714.75
598.61	46834.12
598.77	46241.96
598.93	46740.50
599.09	46782.63
599.24	46990.94
599.40	47311.59
599.56	46710.07
599.71	47033.07
599.87	47065.83
600.03	47072.85
600.18	46773.27
600.34	46927.74
600.50	47035.41
600.65	46838.80
600.81	47051.79
600.97	47012.00
601.12	46927.74
601.28	46700.71
601.44	46494.74
601.59	46649.22
601.75	46667.94
601.91	46749.86
602.06	46630.49
602.22	46707.73
602.37	46366.01
602.53	46518.15
602.69	46850.50
602.84	46857.52
603.00	46731.14
603.16	46698.37
603.31	46642.20
603.47	46438.57
603.62	46213.88
603.78	46775.61
603.94	46370.69
604.09	47192.22
604.25	47131.37
604.40	46848.16
604.56	46665.60
604.71	46700.71
604.87	46763.90
605.03	47098.60
605.18	46759.22
605.34	46272.39
605.49	46497.08
605.65	46806.03
605.80	46344.95
605.96	46646.88
606.12	46707.73
606.27	46677.30
606.43	46623.47
606.58	47021.36
606.74	46452.61
606.89	46447.93
607.05	46422.19
607.20	46880.93
607.36	46618.79
607.51	46878.59
607.67	46700.71
607.82	46312.18
607.98	46567.30
608.13	45787.90
608.29	46188.13
608.44	46003.23
608.60	46176.43
608.75	46277.07
608.91	46256.01
609.06	45982.16
609.22	46459.63
609.37	45867.48
609.53	45986.85
609.68	46375.37
609.84	46375.37
609.99	46719.43
610.15	46377.72
610.30	45860.46
610.46	45984.51
610.61	46134.30
610.76	46452.61
610.92	45815.99
611.07	46284.09
611.23	45825.35
611.38	46216.22
611.54	45956.42
611.69	45872.16
611.84	45799.60
612.00	46368.35
612.15	46040.68
612.31	45947.06
612.46	46148.34
612.62	46131.96
612.77	46010.25
612.92	46260.69
613.08	46202.18
613.23	45846.41
613.39	46171.75
613.54	45593.64
613.69	45844.07
613.85	45820.67
614.00	45759.81
614.15	46073.45
614.31	45825.35
614.46	46096.85
614.62	45958.76
614.77	45495.33
614.92	45801.94
615.08	45530.44
615.23	45537.46
615.38	45546.82
615.54	45134.89
615.69	45698.96
615.84	44692.53
616.00	45743.43
616.15	45745.77
616.30	45460.23
616.46	44982.76
616.61	45052.97
616.76	45268.30
616.92	45301.07
617.07	44942.97
617.22	45071.70
617.37	45378.31
617.53	45099.78
617.68	45172.34
617.83	45118.51
617.99	45518.74
618.14	45394.69
618.29	45067.02
618.45	44900.84
618.60	45315.11
618.75	45361.92
618.90	45397.03
619.06	44882.11
619.21	45057.65
619.36	44994.46
619.51	45174.68
619.67	44739.34
619.82	45055.31
619.97	45074.04
620.12	44444.43
620.28	44591.89
620.43	44521.67
620.58	45057.65
620.73	44484.22
620.89	45284.68
621.04	44615.29
621.19	44327.41
621.34	44652.74
621.49	44254.85
621.65	44758.06
621.80	44655.08
621.95	44245.49
622.10	44598.91
622.25	44381.24
622.41	43852.28
622.56	44425.71
622.71	44683.17
622.86	44325.07
623.01	44577.84
623.16	44828.28
623.32	44516.99
623.47	44584.86
623.62	44254.85
623.77	44137.82
623.92	44289.96
624.07	44072.29
624.23	43714.19
624.38	43842.92
624.53	43669.72
624.68	44116.76
624.83	44011.43
624.98	43452.05
625.13	43807.81
625.29	44048.88
625.44	44067.61
625.59	43391.19
625.74	43587.80
625.89	43545.67
626.04	43988.03
626.19	43522.26
626.34	43634.61
626.49	43782.06
626.65	43578.43
626.80	43873.34
626.95	43381.83
627.10	43414.60
627.25	42967.55
627.40	43019.05
627.55	43150.12
627.70	42672.65
627.85	42965.21
628.00	43077.56
628.15	43489.49
628.30	43019.05
628.45	43496.52
628.60	43543.33
628.76	43290.55
628.91	43267.14
629.06	43316.29
629.21	43264.80
629.36	42869.25
629.51	43061.18
629.66	42586.05
629.81	42597.75
629.96	42892.66
630.11	42799.04
630.26	43166.50
630.41	43438.00
630.56	42817.76
630.71	43086.92
630.86	42663.28
631.01	42993.30
631.16	43002.66
631.31	42719.46
631.46	42131.98
631.61	42808.40
631.76	42911.38
631.91	42703.07
632.06	42520.51
632.21	42986.28
632.36	43234.38
632.51	42333.27
632.66	42581.37
632.81	42061.77
632.96	42230.29
633.10	42337.95
633.25	42375.40
633.40	42220.92
633.55	42749.88
633.70	42340.29
633.85	42241.99
634.00	42532.22
634.15	42508.81
634.30	42234.97
634.45	42263.05
634.60	42085.17
634.75	41989.21
634.90	42291.14
635.05	41883.89
635.19	41876.86
635.34	42274.76
635.49	42253.69
635.64	42033.68
635.79	42307.52
635.94	41907.29
636.09	42312.20
636.24	41553.87
636.39	41949.42
636.53	41986.87
636.68	41509.40
636.83	41762.18
636.98	41958.78
637.13	41853.46
637.28	41869.84
637.43	41633.45
637.57	41687.28
637.72	41879.21
637.87	42181.13
638.02	41825.37
638.17	41738.77
638.32	41801.97
638.46	41567.91
638.61	41476.63
638.76	41378.33
638.91	41261.30
639.06	41682.60
639.20	41851.12
639.35	41617.07
639.50	41495.36
639.65	41067.04
639.80	41546.85
639.94	41752.82
640.09	41509.40
640.24	41443.87
640.39	40964.06
640.54	41055.34
640.68	41289.39
640.83	41481.31
640.98	40722.98
641.13	40823.62
641.27	41282.37
641.42	41338.54
641.57	41392.37
641.72	40905.54
641.86	40617.66
642.01	40676.17
642.16	40451.48
642.31	40517.01
642.45	40437.44
642.60	40636.38
642.75	40512.33
642.90	40428.07
643.04	40362.54
643.19	40531.06
643.34	40767.45
643.48	40470.20
643.63	40509.99
643.78	40297.00
643.93	40048.91
644.07	40135.51
644.22	40388.28
644.37	40252.53
644.51	40540.42
644.66	40720.64
644.81	40491.27
644.95	40467.86
645.10	40739.36
645.25	40755.75
645.39	40587.23
645.54	40575.53
645.69	39931.88
645.83	40107.42
645.98	40311.05
646.13	40442.12
646.27	40076.99
646.42	40109.76
646.57	39959.97
646.71	40137.85
646.86	40142.53
647.00	39868.69
647.15	40285.30
647.30	39842.94
647.44	40226.79
647.59	39590.16
647.74	39386.54
647.88	39512.92
648.03	39660.38
648.17	39585.48
648.32	39665.06
648.47	39957.63
648.61	39945.92
648.76	39660.38
648.90	39442.71
649.05	39709.53
649.20	39732.93
649.34	40271.26
649.49	39880.39
649.63	39468.45
649.78	39470.79
649.92	39339.72
650.07	40231.47
650.21	39632.29
650.36	39496.54
650.51	39250.78
650.65	39463.77
650.80	39793.79
650.94	39571.44
651.09	39299.94
651.23	38883.32
651.38	39072.90
651.52	38693.74
651.67	39182.91
651.81	39412.28
651.96	39030.77
652.10	38920.77
652.25	38951.20
652.39	38888.00
652.54	38895.02
652.68	38745.23
652.83	38948.85
652.97	39562.08
653.12	39051.84
653.26	39108.01
653.41	38995.67
653.55	38763.95
653.70	38579.05
653.84	38993.32
653.99	38937.15
654.13	38745.23
654.27	39077.58
654.42	38511.17
654.56	38253.72
654.71	38892.68
654.85	38433.94
655.00	38478.41
655.14	38132.01
655.29	38232.65
655.43	38279.46
655.57	37844.12
655.72	38162.43
655.86	38246.69
656.01	37710.71
656.15	37832.42
656.30	38080.52
656.44	37736.46
656.58	37453.25
656.73	37755.18
656.87	38000.94
657.01	38073.49
657.16	37624.11
657.30	37357.29
657.45	37626.45
657.59	37425.17
657.73	37759.86
657.88	37823.06
658.02	37528.15
658.16	37965.83
658.31	38000.94
658.45	37785.61
658.60	37771.57
658.74	37598.37
658.88	37755.18
659.03	37525.81
659.17	37179.41
659.31	37404.10
659.46	37429.85
659.60	37619.43
659.74	37504.74
659.89	37027.28
660.03	36931.31
660.17	37251.97
660.32	37237.92
660.46	37420.48
660.60	37270.69
660.74	36638.75
660.89	37132.60
661.03	36493.63
661.17	36554.49
661.32	36868.12
661.46	36924.29
661.60	36992.17
661.74	36825.99
661.89	36727.69
662.03	36615.34
662.17	36825.99
662.31	36535.76
662.46	36582.57
662.60	36762.79
662.74	36194.04
662.88	36416.40
663.03	36673.85
663.17	36364.90
663.31	36095.74
663.45	36154.26
663.60	36371.92
663.74	36004.46
663.88	36091.06
664.02	36187.02
664.17	36203.41
664.31	35747.00
664.45	35981.06
664.59	35648.70
664.73	35552.74
664.88	35454.44
665.02	35702.53
665.16	35260.17
665.30	35985.74
665.44	35681.47
665.59	35379.54
665.73	35283.58
665.87	35290.60
666.01	35718.92
666.15	35613.59
666.29	35299.96
666.44	35531.67
666.58	34646.95
666.72	35068.25
666.86	35299.96
667.00	35168.89
667.14	35204.00
667.28	34611.84
667.43	34705.46
667.57	34768.66
667.71	34787.38
667.85	34672.70
667.99	34855.26
668.13	34866.96
668.27	34328.64
668.41	34340.34
668.56	34220.97
668.70	34359.06
668.84	33991.60
668.98	33895.64
669.12	34113.31
669.26	34396.51
669.40	34462.05
669.54	33916.70
669.68	34110.97
669.82	34164.80
669.96	33947.13
670.10	33816.06
670.25	34012.66
670.39	34087.56
670.53	33397.10
670.67	33584.35
670.81	33502.43
670.95	33717.76
671.09	33479.02
671.23	33684.99
671.37	33240.29
671.51	33186.46
671.65	33111.56
671.79	33055.39
671.93	33301.14
672.07	33074.11
672.21	32844.74
672.35	32755.80
672.49	33076.45
672.63	32601.32
672.77	32961.76
672.91	32985.17
673.05	32767.50
673.19	32568.55
673.33	32662.18
673.47	32142.58
673.61	32177.68
673.75	32072.36
673.89	31934.27
674.03	31821.92
674.17	31845.33
674.31	31704.90
674.45	31377.22
674.59	31934.27
674.73	31768.09
674.87	31847.67
675.01	31559.78
675.15	31337.43
675.29	31615.96
675.43	31150.19
675.56	31288.28
675.70	31363.18
675.84	31140.83
675.98	29993.97
676.12	31321.05
676.26	30838.90
676.40	30450.37
676.54	30541.65
676.68	30672.72
676.82	30003.33
676.96	30115.67
677.10	29998.65
677.23	30155.46
677.37	30148.44
677.51	29972.90
677.65	30089.93
677.79	29628.84
677.93	30110.99
678.07	29507.13
678.21	29336.27
678.34	29467.34
678.48	29717.78
678.62	29432.24
678.76	29050.73
678.90	29221.59
679.04	29310.53
679.18	29109.24
679.31	28690.29
679.45	28945.41
679.59	28692.63
679.73	28711.35
679.87	28622.41
680.00	28416.44
680.14	28142.60
680.28	28180.05
680.42	28322.82
680.56	28568.58
680.70	28086.43
680.83	28184.73
680.97	27922.59
681.11	28140.26
681.25	27889.82
681.39	27440.44
681.52	27730.67
681.66	27711.94
681.80	27386.61
681.94	27419.38
682.07	26951.27
682.21	27330.44
682.35	26831.90
682.49	26934.88
682.62	27096.38
682.76	26525.29
682.90	26492.52
683.04	26611.89
683.17	26101.65
683.31	26174.21
683.45	26551.04
683.59	26321.66
683.72	26342.73
683.86	25813.77
684.00	25603.12
684.13	25752.91
684.27	26010.37
684.41	25825.47
684.55	25614.82
684.68	25504.82
684.82	25591.42
684.96	25268.42
685.09	25277.79
685.23	25219.27
685.37	25017.99
685.50	24851.81
685.64	24875.21
685.78	25085.86
685.91	24999.26
686.05	24896.28
686.19	24334.55
686.32	24709.04
686.46	24320.51
686.60	24107.52
686.73	24093.47
686.87	23693.24
687.01	23749.42
687.14	23594.94
687.28	23293.01
687.42	23857.08
687.55	23330.46
687.69	23136.20
687.82	23215.77
687.96	23955.38
688.10	23084.70
688.23	23281.31
688.37	23143.22
688.50	22953.63
688.64	22658.73
688.78	22766.39
688.91	22501.91
689.05	22780.43
689.18	22647.02
689.32	22174.24
689.46	22513.61
689.59	22291.26
689.73	22520.63
689.86	22434.03
690.00	22099.34
690.13	22169.55
690.27	21748.26
690.41	21855.92
690.54	21413.56
690.68	21734.21
690.81	21568.04
690.95	21458.03
691.08	21490.80
691.22	21465.05
691.35	21570.38
691.49	21289.51
691.62	21504.84
691.76	21675.70
691.89	20982.90
692.03	21057.80
692.16	20671.61
692.30	20837.79
692.43	20833.11
692.57	20465.64
692.70	20601.40
692.84	20308.83
692.97	20531.18
693.11	20285.42
693.24	20130.95
693.38	20292.44
693.51	19971.79
693.65	20105.20
693.78	19906.26
693.92	20243.29
694.05	19941.36
694.19	19864.13
694.32	19466.24
694.45	19358.57
694.59	19740.08
694.72	19218.14
694.86	19379.64
694.99	18855.36
695.13	19400.70
695.26	18457.46
695.39	18995.79
695.53	19094.09
695.66	18967.70
695.80	18731.31
695.93	18476.19
696.07	18340.44
696.20	18761.73
696.33	18480.87
696.47	18387.25
696.60	18590.88
696.73	18214.05
696.87	18026.81
697.00	18171.92
697.14	18040.85
697.27	17853.61
697.40	18204.69
697.54	17970.63
697.67	17792.75
697.80	17657.00
697.94	17441.67
698.07	17626.57
698.21	17200.60
698.34	17631.26
698.47	17467.42
698.61	17055.48
698.74	17022.72
698.87	17188.89
699.01	16978.25
699.14	16725.47
699.27	16943.14
699.40	16475.03
699.54	16758.24
699.67	16535.88
699.80	16692.70
699.94	16613.12
700.07	16320.56
700.20	16208.21
700.34	16128.63
700.47	16379.07
700.60	16280.77
700.73	16372.05
700.87	15800.96
701.00	15950.75
701.13	15927.35
701.26	15943.73
701.40	15751.81
701.53	15653.50
701.66	15459.24
701.79	15384.34
701.93	15417.11
702.06	15417.11
702.19	15166.67
702.32	15363.28
702.46	15112.84
702.59	15353.91
702.72	14970.07
702.85	15075.39
702.99	15059.01
703.12	15246.25
703.25	14618.99
703.38	14874.10
703.51	14747.72
703.65	14712.61
703.78	14415.36
703.91	14359.19
704.04	14420.04
704.17	14398.98
704.31	14129.81
704.44	13870.01
704.57	13991.72
704.70	14090.02
704.83	13839.59
704.96	14073.64
705.10	14127.47
705.23	13991.72
>>>>>End Processed Spectral Data<<<<<
