SpectraSuite Data File
++++++++++++++++++++++++++++++++++++
Date: Fri Oct 25 10:47:41 EDT 2013
User: price-jones
Dark Spectrum Present: No
Reference Spectrum Present: No
Number of Sampled Component Spectra: 1
Spectrometers: USB2+H05261
Integration Time (usec): 100000 (USB2+H05261)
Spectra Averaged: 1 (USB2+H05261)
Boxcar Smoothing: 0 (USB2+H05261)
Correct for Electrical Dark: No (USB2+H05261)
Strobe/Lamp Enabled: No (USB2+H05261)
Correct for Detector Non-linearity: No (USB2+H05261)
Correct for Stray Light: No (USB2+H05261)
Number of Pixels in Processed Spectrum: 2048
>>>>>Begin Processed Spectral Data<<<<<
365.73	210.65
365.92	210.65
366.12	210.65
366.32	107.66
366.52	0.00
366.72	102.98
366.91	49.15
367.11	105.32
367.31	65.54
367.51	46.81
367.70	30.43
367.90	32.77
368.10	35.11
368.30	72.56
368.49	4.68
368.69	126.39
368.89	0.00
369.09	16.38
369.28	56.17
369.48	46.81
369.68	49.15
369.87	119.37
370.07	32.77
370.27	121.71
370.47	138.09
370.66	397.89
370.86	489.17
371.06	484.49
371.25	482.15
371.45	496.19
371.65	489.17
371.84	507.90
372.04	465.77
372.24	458.74
372.44	425.98
372.63	552.37
372.83	535.98
373.03	484.49
373.22	475.13
373.42	503.22
373.62	484.49
373.81	482.15
374.01	613.22
374.21	599.18
374.40	535.98
374.60	540.66
374.79	519.60
374.99	498.53
375.19	566.41
375.38	566.41
375.58	667.05
375.78	592.16
375.97	535.98
376.17	624.92
376.37	482.15
376.56	603.86
376.76	601.52
376.95	554.71
377.15	578.11
377.35	587.47
377.54	580.45
377.74	641.31
377.93	613.22
378.13	535.98
378.33	622.58
378.52	592.16
378.72	592.16
378.91	645.99
379.11	655.35
379.31	657.69
379.50	582.79
379.70	641.31
379.89	676.41
380.09	650.67
380.28	627.26
380.48	692.80
380.68	734.93
380.87	676.41
381.07	629.60
381.26	615.56
381.46	627.26
381.65	641.31
381.85	718.54
382.04	662.37
382.24	702.16
382.43	676.41
382.63	699.82
382.83	645.99
383.02	716.20
383.22	678.76
383.41	653.01
383.61	725.57
383.80	706.84
384.00	840.25
384.19	739.61
384.39	678.76
384.58	744.29
384.78	791.10
384.97	723.23
385.17	688.12
385.36	816.85
385.56	786.42
385.75	781.74
385.95	748.97
386.14	821.53
386.34	730.25
386.53	718.54
386.72	737.27
386.92	809.83
387.11	779.40
387.31	763.01
387.50	767.70
387.70	835.57
387.89	760.67
388.09	770.04
388.28	812.17
388.48	828.55
388.67	891.74
388.86	828.55
389.06	863.66
389.25	915.15
389.45	880.04
389.64	880.04
389.84	985.37
390.03	940.90
390.22	936.21
390.42	910.47
390.61	947.92
390.81	936.21
391.00	922.17
391.19	1022.81
391.39	994.73
391.58	1020.47
391.78	973.66
391.97	889.40
392.16	950.26
392.36	1062.60
392.55	1043.88
392.75	940.90
392.94	985.37
393.13	915.15
393.33	945.58
393.52	884.72
393.71	971.32
393.91	997.07
394.10	1057.92
394.29	1048.56
394.49	1076.65
394.68	1121.12
394.88	1043.88
395.07	1118.78
395.26	1219.42
395.46	1235.80
395.65	1060.26
395.84	1123.46
396.04	1130.48
396.23	1004.09
396.42	1146.86
396.62	1142.18
396.81	1086.01
397.00	1116.44
397.19	1062.60
397.39	1130.48
397.58	1114.10
397.77	1144.52
397.97	1249.85
398.16	1247.51
398.35	1289.64
398.55	1231.12
398.74	1287.29
398.93	1294.32
399.12	1341.13
399.32	1226.44
399.51	1366.87
399.70	1427.73
399.90	1287.29
400.09	1502.62
400.28	1479.22
400.47	1451.13
400.67	1399.64
400.86	1519.01
401.05	1406.66
401.24	1514.33
401.44	1542.41
401.63	1521.35
401.82	1495.60
402.01	1481.56
402.21	1509.65
402.40	1521.35
402.59	1493.26
402.78	1523.69
402.97	1493.26
403.17	1612.63
403.36	1561.14
403.55	1598.59
403.74	1633.69
403.93	1554.12
404.13	1617.31
404.32	1633.69
404.51	1647.74
404.70	1678.16
404.89	1804.55
405.09	1743.70
405.28	1720.29
405.47	1842.00
405.66	1703.91
405.85	1734.34
406.05	1664.12
406.24	1774.13
406.43	1783.49
406.62	1858.39
406.81	1870.09
407.00	1732.00
407.20	1837.32
407.39	1893.49
407.58	1893.49
407.77	1996.48
407.96	1984.77
408.15	1975.41
408.34	1830.30
408.54	2047.97
408.73	2003.50
408.92	1963.71
409.11	2005.84
409.30	2118.18
409.49	2073.71
409.68	2083.08
409.87	1989.46
410.07	2031.58
410.26	1987.11
410.45	2129.89
410.64	2064.35
410.83	2157.97
411.02	2204.78
411.21	2193.08
411.40	2244.57
411.59	2307.77
411.78	2214.15
411.98	2239.89
412.17	2310.11
412.36	2354.58
412.55	2427.14
412.74	2282.02
412.93	2408.41
413.12	2373.30
413.31	2466.92
413.50	2413.09
413.69	2553.52
413.88	2513.74
414.07	2644.81
414.26	2583.95
414.45	2626.08
414.64	2530.12
414.83	2789.92
415.02	2647.15
415.22	2708.00
415.41	2661.19
415.60	2750.13
415.79	2834.39
415.98	2897.58
416.17	2883.54
416.36	2789.92
416.55	2782.90
416.74	2892.90
416.93	2951.42
417.12	2818.00
417.31	2981.84
417.50	3000.57
417.69	3077.80
417.88	3028.65
418.07	3014.61
418.26	2958.44
418.45	3049.72
418.64	3166.74
418.83	3126.96
419.02	3101.21
419.21	3241.64
419.39	3262.71
419.58	3122.27
419.77	3152.70
419.96	3164.40
420.15	3215.90
420.34	3236.96
420.53	3246.32
420.72	3356.33
420.91	3372.71
421.10	3393.78
421.29	3459.31
421.48	3438.25
421.67	3471.01
421.86	3389.10
422.05	3503.78
422.24	3375.05
422.43	3424.20
422.61	3471.01
422.80	3506.12
422.99	3534.21
423.18	3417.18
423.37	3550.59
423.56	3581.02
423.75	3517.83
423.94	3480.38
424.13	3171.43
424.32	3426.54
424.50	3466.33
424.69	3536.55
424.88	3592.72
425.07	3478.04
425.26	3466.33
425.45	3564.64
425.64	3368.03
425.83	3592.72
426.01	3555.27
426.20	3658.26
426.39	3506.12
426.58	3527.19
426.77	3564.64
426.96	3583.36
427.15	3543.57
427.33	3536.55
427.52	3571.66
427.71	3681.66
427.90	3606.77
428.09	3726.13
428.28	3674.64
428.46	3742.52
428.65	3597.40
428.84	3847.84
429.03	3840.82
429.22	3775.28
429.40	3669.96
429.59	3744.86
429.78	3646.55
429.97	3632.51
430.16	3831.46
430.34	3779.97
430.53	3887.63
430.72	3756.56
430.91	3889.97
431.10	3915.72
431.28	4065.51
431.47	4117.00
431.66	4112.32
431.85	4133.39
432.03	4131.05
432.22	4184.88
432.41	4156.79
432.60	4269.14
432.79	4131.05
432.97	4180.20
433.16	4259.78
433.35	4147.43
433.54	4212.96
433.72	4182.54
433.91	4304.25
434.10	4308.93
434.28	4395.53
434.47	4257.43
434.66	4454.04
434.85	4369.78
435.03	4505.53
435.22	4341.69
435.41	4643.62
435.59	4477.44
435.78	4486.81
435.97	4566.39
436.16	4599.15
436.34	4528.94
436.53	4650.64
436.72	4732.56
436.90	4517.23
437.09	4507.87
437.28	4568.73
437.46	4578.09
437.65	4636.60
437.84	4699.80
438.02	4617.88
438.21	4641.28
438.40	4723.20
438.58	4840.23
438.77	4957.25
438.96	4821.50
439.14	4854.27
439.33	5097.69
439.52	5144.50
439.70	5100.03
439.89	5046.20
440.08	4966.62
440.26	5071.94
440.45	4997.04
440.63	5296.63
440.82	5345.78
441.01	5296.63
441.19	5439.40
441.38	5423.02
441.57	5338.76
441.75	5444.09
441.94	5645.37
442.12	5565.79
442.31	5605.58
442.50	5750.70
442.68	5511.96
442.87	5666.44
443.05	5717.93
443.24	5738.99
443.43	5771.76
443.61	5760.06
443.80	5998.79
443.98	5654.73
444.17	5575.16
444.35	5764.74
444.54	5879.43
444.73	5734.31
444.91	5767.08
445.10	5951.98
445.28	5806.87
445.47	5863.04
445.65	5755.38
445.84	5757.72
446.02	5975.39
446.21	5741.33
446.39	5825.59
446.58	5966.03
446.77	5961.34
446.95	5624.31
447.14	5898.15
447.32	6029.22
447.51	5959.00
447.69	5989.43
447.88	5970.71
448.06	5984.75
448.25	5970.71
448.43	6050.28
448.62	5867.72
448.80	6099.44
448.99	5966.03
449.17	6162.63
449.36	6015.18
449.54	6244.55
449.73	6328.81
449.91	6239.87
450.10	6424.77
450.28	6443.49
450.46	6511.37
450.65	6410.73
450.83	6427.11
451.02	6274.98
451.20	6366.26
451.39	6431.79
451.57	6413.07
451.76	6389.66
451.94	6427.11
452.13	6679.89
452.31	6464.56
452.49	6387.32
452.68	6483.28
452.86	6499.67
453.05	6478.60
453.23	6696.27
453.42	6476.26
453.60	6473.92
453.78	6546.48
453.97	6745.42
454.15	6722.02
454.34	6558.18
454.52	6661.16
454.70	6729.04
454.89	6633.08
455.07	6794.58
455.26	6724.36
455.44	6794.58
455.62	6864.79
455.81	6761.81
455.99	6892.88
456.17	7117.57
456.36	6808.62
456.54	7054.37
456.73	7009.90
456.91	7260.34
457.09	7140.97
457.28	7358.64
457.46	7229.91
457.64	7201.83
457.83	7211.19
458.01	7148.00
458.19	7438.22
458.38	7138.63
458.56	7440.56
458.74	7229.91
458.93	7382.05
459.11	7485.03
459.29	7253.32
459.48	7412.48
459.66	7480.35
459.84	7552.91
460.03	7655.89
460.21	7613.76
460.39	7826.75
460.57	7557.59
460.76	7597.38
460.94	7894.63
461.12	7667.60
461.31	7782.28
461.49	7747.17
461.67	7751.85
461.85	7873.56
462.04	7871.22
462.22	8411.89
462.40	7775.26
462.59	7964.84
462.77	7878.24
462.95	7983.57
463.13	7948.46
463.32	8063.15
463.50	7974.21
463.68	8030.38
463.86	8142.72
464.05	7995.27
464.23	7793.98
464.41	8205.92
464.59	8016.33
464.78	8161.45
464.96	8224.64
465.14	8238.69
465.32	8285.50
465.50	8620.19
465.69	8248.05
465.87	8322.94
466.05	8402.52
466.23	8287.84
466.41	8355.71
466.60	8554.66
466.78	8325.29
466.96	8308.90
467.14	8336.99
467.32	8400.18
467.51	8723.18
467.69	8367.42
467.87	8395.50
468.05	8774.67
468.23	8437.63
468.41	8416.57
468.60	8608.49
468.78	8643.60
468.96	8664.66
469.14	8826.16
469.32	8842.54
469.50	8734.88
469.69	8819.14
469.87	8809.78
470.05	8812.12
470.23	9050.85
470.41	8788.71
470.59	9015.74
470.77	9041.49
470.95	8912.76
471.14	8968.93
471.32	8894.04
471.50	9200.65
471.68	9195.96
471.86	9322.35
472.04	9465.13
472.22	9401.93
472.40	9135.11
472.58	9444.06
472.77	9280.22
472.95	9408.95
473.13	9879.40
473.31	9413.63
473.49	9750.67
473.67	9657.05
473.85	9675.77
474.03	9748.33
474.21	10005.79
474.39	9795.14
474.57	10090.05
474.75	10113.45
474.93	9975.36
475.12	10068.98
475.30	10127.50
475.48	10150.90
475.66	10244.52
475.84	10008.13
476.02	10171.97
476.20	10272.61
476.38	10537.09
476.56	10834.34
476.74	10621.35
476.92	10544.11
477.10	10590.92
477.28	10827.32
477.46	10710.29
477.64	10911.58
477.82	11094.14
478.00	11314.15
478.18	11318.83
478.36	11288.40
478.54	11314.15
478.72	11639.48
478.90	11793.96
479.08	11768.21
479.26	11831.41
479.44	11836.09
479.62	11723.74
479.80	12126.32
479.98	12348.67
480.16	12353.35
480.34	12210.57
480.52	12257.39
480.70	12383.77
480.88	12264.41
481.06	12446.97
481.24	12500.80
481.41	12835.50
481.59	13193.60
481.77	13006.36
481.95	13212.32
482.13	12975.93
482.31	13085.94
482.49	13362.12
482.67	13479.15
482.85	13734.26
483.03	13650.00
483.21	13785.76
483.39	14190.67
483.57	14038.53
483.74	14230.46
483.92	14022.15
484.10	14202.37
484.28	14445.79
484.46	14586.22
484.64	14981.77
484.82	14593.24
485.00	14850.70
485.18	15070.71
485.35	14981.77
485.53	14911.55
485.71	15089.43
485.89	15215.82
486.07	15297.74
486.25	15360.94
486.43	15660.52
486.61	15456.90
486.78	15800.96
486.96	16002.24
487.14	15885.22
487.32	16086.50
487.50	16315.87
487.68	16592.06
487.85	16662.27
488.03	16936.12
488.21	17224.00
488.39	16891.65
488.57	17078.89
488.75	17132.72
488.92	17537.63
489.10	17626.57
489.28	17877.01
489.46	18029.15
489.64	17923.82
489.81	18099.36
489.99	18223.41
490.17	18483.21
490.35	18618.96
490.53	18190.64
490.70	18511.30
490.88	18642.37
491.06	19033.24
491.24	19019.19
491.41	19075.37
491.59	19077.71
491.77	18906.85
491.95	19101.11
492.13	19702.63
492.30	19845.40
492.48	20020.94
492.66	19889.87
492.84	20137.97
493.01	20088.82
493.19	20212.87
493.37	20313.51
493.54	20463.30
493.72	20624.80
493.90	20741.83
494.08	20929.07
494.25	21256.75
494.43	21266.11
494.61	21020.35
494.79	21392.50
494.96	21212.28
495.14	21460.37
495.32	21483.78
495.49	21673.36
495.67	21905.07
495.85	22010.40
496.02	21979.97
496.20	22340.41
496.38	22237.43
496.55	22497.23
496.73	22764.05
496.91	22544.04
497.09	22384.88
497.26	22869.37
497.44	22672.77
497.62	23267.27
497.79	23152.58
497.97	23019.17
498.14	23232.16
498.32	23639.41
498.50	23339.82
498.67	23740.05
498.85	23807.93
499.03	24041.98
499.20	23854.74
499.38	23798.57
499.56	24451.58
499.73	24720.74
499.91	24276.04
500.08	24491.37
500.26	24018.58
500.44	24854.15
500.61	24797.98
500.79	24341.57
500.97	24790.95
501.14	25158.42
501.32	24826.06
501.49	24907.98
501.67	25186.50
501.84	25081.18
502.02	25043.73
502.20	25488.43
502.37	25825.47
502.55	25399.49
502.72	25572.69
502.90	25603.12
503.07	26040.80
503.25	25869.94
503.43	26265.49
503.60	26277.19
503.78	25975.27
503.95	25991.65
504.13	26291.24
504.30	26485.50
504.48	26298.26
504.65	26909.14
504.83	26792.11
505.01	27115.11
505.18	26925.52
505.36	27456.82
505.53	27300.01
505.71	27285.97
505.88	27271.92
506.06	27143.19
506.23	27246.18
506.41	27204.05
506.58	27489.59
506.76	27164.26
506.93	27831.31
507.11	27620.66
507.28	28116.86
507.46	27744.71
507.63	27676.83
507.81	28067.70
507.98	28114.52
508.16	28287.71
508.33	28046.64
508.50	28184.73
508.68	28503.04
508.85	28460.91
509.03	28439.85
509.20	28620.07
509.38	29067.11
509.55	28809.65
509.73	29380.74
509.90	29032.00
510.08	28947.75
510.25	29099.88
510.42	28926.68
510.60	29247.33
510.77	29497.77
510.95	29362.02
511.12	29572.67
511.30	29532.88
511.47	29647.57
511.64	30087.59
511.82	29764.59
511.99	29795.02
512.17	29696.72
512.34	29851.19
512.51	30543.99
512.69	30085.25
512.86	30368.45
513.04	30644.63
513.21	30302.92
513.38	30639.95
513.56	30431.65
513.73	30614.21
513.90	30623.57
514.08	30984.01
514.25	30876.35
514.43	31192.32
514.60	30848.26
514.77	31152.53
514.95	31316.37
515.12	31065.93
515.29	31283.60
515.47	31391.26
515.64	31260.20
515.81	31271.90
515.99	31835.97
516.16	31632.34
516.33	31531.70
516.51	31742.35
516.68	31564.46
516.85	31620.64
517.03	31693.19
517.20	31931.93
517.37	32149.60
517.54	32385.99
517.72	32093.43
517.89	31782.13
518.06	32219.81
518.24	32163.64
518.41	31838.31
518.58	32002.14
518.75	32105.13
518.93	32573.24
519.10	32545.15
519.27	32840.06
519.45	32907.93
519.62	32912.61
519.79	32835.38
519.96	33029.64
520.14	33582.01
520.31	32863.46
520.48	33376.04
520.65	33511.79
520.83	33235.61
521.00	33460.30
521.17	33734.14
521.34	33706.05
521.52	33909.68
521.69	33783.29
521.86	34080.54
522.03	33881.60
522.20	34085.22
522.38	33759.89
522.55	33935.43
522.72	33827.76
522.89	34113.31
523.07	34258.42
523.24	34153.10
523.41	34478.43
523.58	34206.93
523.75	34925.47
523.92	34663.33
524.10	34719.51
524.27	34738.23
524.44	34541.63
524.61	34913.77
524.78	35119.74
524.96	35098.67
525.13	34962.92
525.30	35552.74
525.47	35332.73
525.64	35569.12
525.81	35119.74
525.98	35250.81
526.16	35400.60
526.33	35257.83
526.50	35629.98
526.67	34988.67
526.84	35463.80
527.01	35384.22
527.18	35510.61
527.36	35606.57
527.53	35655.72
527.70	36039.57
527.87	35962.33
528.04	35866.37
528.21	36306.39
528.38	35737.64
528.55	36222.13
528.72	36442.14
528.89	36498.31
529.07	36151.91
529.24	36360.22
529.41	36123.83
529.58	36671.51
529.75	36369.58
529.92	36678.54
530.09	36526.40
530.26	36811.95
530.43	36933.65
530.60	36868.12
530.77	36833.01
530.94	36938.33
531.11	36816.63
531.28	36879.82
531.46	37205.16
531.63	37163.03
531.80	37141.96
531.97	37500.06
532.14	37010.89
532.31	37010.89
532.48	37031.96
532.65	37624.11
532.82	37589.00
532.99	37750.50
533.16	37212.18
533.33	37319.84
533.50	37858.17
533.67	37577.30
533.84	37256.65
534.01	37591.34
534.18	37619.43
534.35	37991.58
534.52	38094.56
534.69	37563.26
534.86	38033.71
535.03	37752.84
535.20	37771.57
535.37	38246.69
535.54	38253.72
535.71	38117.96
535.88	38424.57
536.05	38050.09
536.22	38281.80
536.38	38438.62
536.55	38464.36
536.72	38476.07
536.89	38347.34
537.06	38124.99
537.23	38742.89
537.40	38478.41
537.57	38480.75
537.74	38677.35
537.91	39124.40
538.08	38806.08
538.25	38667.99
538.42	38763.95
538.59	39016.73
538.75	38712.46
538.92	39054.18
539.09	39175.89
539.26	39150.14
539.43	39484.84
539.60	38880.98
539.77	38955.88
539.94	38937.15
540.11	39328.02
540.28	39178.23
540.44	38990.98
540.61	39152.48
540.78	39318.66
540.95	39522.29
541.12	39505.90
541.29	39372.49
541.46	39346.75
541.62	39983.37
541.79	39665.06
541.96	39470.79
542.13	39529.31
542.30	39702.51
542.47	40135.51
542.63	39861.66
542.80	39934.22
542.97	40601.27
543.14	40081.67
543.31	40006.78
543.48	40264.24
543.64	40776.81
543.81	40559.14
543.98	40556.80
544.15	40280.62
544.32	40732.34
544.48	40999.16
544.65	40554.46
544.82	40507.65
544.99	40287.64
545.16	40437.44
545.32	40304.02
545.49	41181.73
545.66	41160.66
545.83	40662.13
546.00	40828.30
546.16	41060.02
546.33	40968.74
546.50	40617.66
546.67	41067.04
546.83	40404.67
547.00	40865.75
547.17	41322.16
547.34	40896.18
547.50	41273.01
547.67	41497.70
547.84	41022.57
548.00	41406.42
548.17	41617.07
548.34	41352.58
548.51	41607.70
548.67	41535.15
548.84	41542.17
549.01	41432.16
549.18	41326.84
549.34	41778.56
549.51	42136.66
549.68	42206.88
549.84	41806.65
550.01	42230.29
550.18	41481.31
550.34	42129.64
550.51	41687.28
550.68	41720.05
550.84	41270.67
551.01	41883.89
551.18	41907.29
551.34	41818.35
551.51	42092.19
551.68	41769.20
551.84	42199.86
552.01	42106.24
552.18	42036.02
552.34	42230.29
552.51	42094.53
552.68	42321.57
552.84	42555.62
553.01	42911.38
553.18	42040.70
553.34	42576.69
553.51	42005.59
553.67	42031.34
553.84	42733.50
554.01	42597.75
554.17	42759.25
554.34	42429.23
554.51	42789.67
554.67	42801.38
554.84	42473.70
555.00	42366.04
555.17	42653.92
555.33	42443.27
555.50	42354.33
555.67	42344.97
555.83	42646.90
556.00	42796.70
556.16	42792.01
556.33	43030.75
556.50	42834.14
556.66	42784.99
556.83	42944.15
556.99	42923.08
557.16	43016.71
557.32	42806.06
557.49	43302.25
557.65	42817.76
557.82	42787.33
557.98	42674.99
558.15	43203.95
558.32	43318.64
558.48	43171.18
558.65	43100.97
558.81	43147.78
558.98	43140.75
559.14	43395.87
559.31	43023.73
559.47	43290.55
559.64	43430.98
559.80	43650.99
559.97	43402.89
560.13	42990.96
560.30	43037.77
560.46	43477.79
560.63	43178.20
560.79	43503.54
560.96	43538.65
561.12	43222.67
561.29	43571.41
561.45	43217.99
561.61	43353.74
561.78	43243.74
561.94	42974.58
562.11	43641.63
562.27	43845.26
562.44	43672.06
562.60	43590.14
562.77	43863.98
562.93	43501.20
563.10	43868.66
563.26	43445.02
563.42	43189.91
563.59	43267.14
563.75	43442.68
563.92	43943.56
564.08	43716.53
564.24	44095.69
564.41	43704.82
564.57	43838.23
564.74	43768.02
564.90	43742.27
565.07	44032.50
565.23	43985.69
565.39	44130.80
565.56	43700.14
565.72	43592.48
565.88	43566.73
566.05	43660.35
566.21	43730.57
566.38	44275.91
566.54	44095.69
566.70	44034.84
566.87	44308.68
567.03	43929.51
567.19	44339.11
567.36	43768.02
567.52	43676.74
567.68	44657.42
567.85	44053.56
568.01	44126.12
568.17	43763.34
568.34	44484.22
568.50	43896.75
568.66	43606.52
568.83	44219.74
568.99	44194.00
569.15	44088.67
569.32	43995.05
569.48	43482.47
569.64	44502.95
569.81	44133.14
569.97	43784.40
570.13	44076.97
570.30	43941.22
570.46	44013.77
570.62	44186.97
570.78	44100.37
570.95	44076.97
571.11	44472.52
571.27	43992.71
571.43	44142.50
571.60	44332.09
571.76	44069.95
571.92	44158.89
572.09	44002.07
572.25	44322.72
572.41	44107.40
572.57	44683.17
572.74	44753.38
572.90	44296.98
573.06	44339.11
573.22	44130.80
573.38	44428.05
573.55	44184.63
573.71	44285.28
573.87	44184.63
574.03	44243.15
574.20	44439.75
574.36	44083.99
574.52	44474.86
574.68	44596.57
574.84	44224.42
575.01	44222.08
575.17	44718.28
575.33	44186.97
575.49	44512.31
575.65	44538.05
575.82	44919.56
575.98	44582.52
576.14	45052.97
576.30	44849.35
576.46	44217.40
576.62	44336.77
576.79	44617.63
576.95	44203.36
577.11	44402.30
577.27	44404.64
577.43	44664.44
577.59	44360.17
577.75	44343.79
577.92	44594.23
578.08	44123.78
578.24	44041.86
578.40	44870.41
578.56	44563.80
578.72	44622.31
578.88	44552.10
579.04	44818.92
579.21	44271.23
579.37	44215.06
579.53	44439.75
579.69	44432.73
579.85	44783.81
580.01	44388.26
580.17	44783.81
580.33	44769.77
580.49	44402.30
580.65	44650.40
580.82	44652.74
580.98	44233.78
581.14	44547.42
581.30	44641.04
581.46	44596.57
581.62	44425.71
581.78	44472.52
581.94	44765.09
582.10	44638.70
582.26	44720.62
582.42	44179.95
582.58	44729.98
582.74	44292.30
582.90	44444.43
583.06	44430.39
583.22	44734.66
583.38	44643.38
583.54	44673.81
583.70	44278.25
583.86	44758.06
584.02	44032.50
584.18	44355.49
584.34	44807.22
584.50	44598.91
584.66	44545.08
584.82	44395.28
584.98	44493.58
585.14	44821.26
585.30	44446.77
585.46	44421.03
585.62	44172.93
585.78	44383.58
585.94	44245.49
586.10	44308.68
586.26	44371.88
586.42	44573.16
586.58	44491.24
586.74	44884.45
586.90	44538.05
587.06	44559.12
587.22	44641.04
587.38	44219.74
587.54	44563.80
587.70	44952.33
587.86	44619.97
588.02	44100.37
588.18	45015.52
588.34	44488.90
588.49	44222.08
588.65	44608.27
588.81	44100.37
588.97	44371.88
589.13	44411.67
589.29	44378.90
589.45	44552.10
589.61	44650.40
589.77	44912.54
589.93	44304.00
590.08	45043.61
590.24	44694.87
590.40	45202.77
590.56	44704.23
590.72	44889.13
590.88	44549.76
591.04	44807.22
591.20	45350.22
591.35	45214.47
591.51	45296.39
591.67	45141.91
591.83	45001.48
591.99	44334.43
592.15	44828.28
592.31	44701.89
592.46	44732.32
592.62	44938.29
592.78	44849.35
592.94	44884.45
593.10	44957.01
593.26	45076.38
593.41	45144.25
593.57	45076.38
593.73	44755.72
593.89	45099.78
594.05	44570.82
594.20	45106.80
594.36	44919.56
594.52	44921.90
594.68	45326.81
594.84	44610.61
594.99	45132.55
595.15	44692.53
595.31	45223.83
595.47	44727.64
595.62	45359.58
595.78	45308.09
595.94	45432.14
596.10	44968.71
596.25	44879.77
596.41	45059.99
596.57	45139.57
596.73	45041.27
596.88	44596.57
597.04	45174.68
597.20	44861.05
597.36	45015.52
597.51	45155.96
597.67	45116.17
597.83	45134.89
597.99	45347.88
598.14	45207.45
598.30	45097.44
598.46	44905.52
598.61	44739.34
598.77	44542.74
598.93	44692.53
599.09	45282.34
599.24	45130.21
599.40	45083.40
599.56	45078.72
599.71	44964.03
599.87	45343.20
600.03	45015.52
600.18	44903.18
600.34	45052.97
600.50	44898.50
600.65	45172.34
600.81	45340.86
600.97	45446.18
601.12	45404.05
601.28	45212.13
601.44	44933.60
601.59	44905.52
601.75	45205.11
601.91	45258.94
602.06	44971.05
602.22	44921.90
602.37	44893.82
602.53	44938.29
602.69	45404.05
602.84	44638.70
603.00	44823.60
603.16	45036.59
603.31	44942.97
603.47	44624.65
603.62	44797.85
603.78	44678.49
603.94	45200.43
604.09	45272.98
604.25	44694.87
604.40	45240.21
604.56	44933.60
604.71	44966.37
604.87	44294.64
605.03	45104.46
605.18	44694.87
605.34	44856.37
605.49	44428.05
605.65	45249.58
605.80	44861.05
605.96	44961.69
606.12	45125.53
606.27	44992.12
606.43	45092.76
606.58	44973.39
606.74	45015.52
606.89	44727.64
607.05	44872.75
607.20	44725.30
607.36	44825.94
607.51	45139.57
607.67	44739.34
607.82	44430.39
607.98	45017.86
608.13	44772.11
608.29	44687.85
608.44	44362.51
608.60	44446.77
608.75	45052.97
608.91	44334.43
609.06	44453.79
609.22	45104.46
609.37	44474.86
609.53	44257.19
609.68	44687.85
609.84	44875.09
609.99	45280.00
610.15	44273.57
610.30	44334.43
610.46	44383.58
610.61	44374.22
610.76	44889.13
610.92	44163.57
611.07	44385.92
611.23	43981.01
611.38	44177.61
611.54	43976.33
611.69	44226.76
611.84	44034.84
612.00	44488.90
612.15	44336.77
612.31	43892.07
612.46	44196.34
612.62	44725.30
612.77	44126.12
612.92	44304.00
613.08	44023.14
613.23	44313.36
613.39	43868.66
613.54	43688.44
613.69	43402.89
613.85	44512.31
614.00	44186.97
614.15	44325.07
614.31	44311.02
614.46	44505.29
614.62	44081.65
614.77	44102.71
614.92	43969.30
615.08	43854.62
615.23	44016.11
615.38	44074.63
615.54	43613.54
615.69	43796.10
615.84	43690.78
616.00	43220.33
616.15	43721.21
616.30	44133.14
616.46	43512.90
616.61	43519.92
616.76	43833.55
616.92	43515.24
617.07	43653.33
617.22	43407.58
617.37	44086.33
617.53	43917.81
617.68	43835.89
617.83	43456.73
617.99	44088.67
618.14	43473.11
618.29	43445.02
618.45	43508.22
618.60	43711.84
618.75	43332.68
618.90	43454.39
619.06	43566.73
619.21	43096.28
619.36	43370.13
619.51	43505.88
619.67	43519.92
619.82	43356.08
619.97	43372.47
620.12	42983.94
620.28	42742.86
620.43	42979.26
620.58	43199.27
620.73	43304.59
620.89	42724.14
621.04	42827.12
621.19	43201.61
621.34	43239.06
621.49	42719.46
621.65	42581.37
621.80	43253.10
621.95	42831.80
622.10	42862.23
622.25	42775.63
622.41	42548.60
622.56	42600.09
622.71	42824.78
622.86	42876.27
623.01	42960.53
623.16	42916.06
623.32	42974.58
623.47	42960.53
623.62	43248.42
623.77	42588.39
623.92	42623.50
624.07	42359.02
624.23	42387.10
624.38	42251.35
624.53	42103.90
624.68	42749.88
624.83	42780.31
624.98	42391.78
625.13	42712.44
625.29	42607.11
625.44	42405.83
625.59	42424.55
625.74	42471.36
625.89	41907.29
626.04	41766.86
626.19	42129.64
626.34	42368.38
626.49	42003.25
626.65	42082.83
626.80	41942.40
626.95	41986.87
627.10	42036.02
627.25	42113.26
627.40	42106.24
627.55	41647.49
627.70	41539.83
627.85	41701.32
628.00	41743.45
628.15	41893.25
628.30	41923.68
628.45	41755.16
628.60	41764.52
628.76	42335.61
628.91	41764.52
629.06	41977.51
629.21	41497.70
629.36	41525.78
629.51	41698.98
629.66	41326.84
629.81	41354.93
629.96	41610.04
630.11	41619.41
630.26	41879.21
630.41	41663.88
630.56	41528.13
630.71	41799.63
630.86	41691.96
631.01	41078.74
631.16	41797.29
631.31	41326.84
631.46	41146.62
631.61	41633.45
631.76	41640.47
631.91	41668.56
632.06	41322.16
632.21	41446.21
632.36	41481.31
632.51	41034.27
632.66	40950.01
632.81	40554.46
632.96	41083.42
633.10	40875.12
633.25	40849.37
633.40	40514.67
633.55	41607.70
633.70	41109.17
633.85	40903.20
634.00	40854.05
634.15	40914.90
634.30	40404.67
634.45	40835.33
634.60	40928.95
634.75	40423.39
634.90	41329.18
635.05	40577.87
635.19	40987.46
635.34	40804.90
635.49	40566.16
635.64	40163.59
635.79	40591.91
635.94	40512.33
636.09	40563.82
636.24	40343.81
636.39	40219.77
636.53	40573.19
636.68	40210.40
636.83	40217.43
636.98	40713.62
637.13	39955.29
637.28	40428.07
637.43	40610.64
637.57	40685.53
637.72	40299.34
637.87	40411.69
638.02	40343.81
638.17	40404.67
638.32	40126.14
638.46	39723.57
638.61	40238.49
638.76	39798.47
638.91	39812.51
639.06	40091.04
639.20	40194.02
639.35	39849.96
639.50	39782.09
639.65	40474.88
639.80	40282.96
639.94	39845.28
640.09	39908.47
640.24	39798.47
640.39	39662.72
640.54	39578.46
640.68	39735.27
640.83	40060.61
640.98	39512.92
641.13	39959.97
641.27	39723.57
641.42	39622.93
641.57	39512.92
641.72	39515.26
641.86	39297.59
642.01	39288.23
642.16	39253.12
642.31	38869.28
642.45	39370.15
642.60	38834.17
642.75	38946.51
642.90	39042.48
643.04	39232.06
643.19	39093.97
643.34	39328.02
643.48	39091.63
643.63	39096.31
643.78	38768.63
643.93	38770.97
644.07	38990.98
644.22	39014.39
644.37	38883.32
644.51	39051.84
644.66	38953.54
644.81	38979.28
644.95	38925.45
645.10	38918.43
645.25	38902.04
645.39	39246.10
645.54	39388.88
645.69	39108.01
645.83	39175.89
645.98	38698.42
646.13	39358.45
646.27	38714.80
646.42	38820.13
646.57	38876.30
646.71	39030.77
646.86	38965.24
647.00	38169.46
647.15	38831.83
647.30	38866.94
647.44	38691.40
647.59	38649.27
647.74	38206.90
647.88	38333.29
648.03	38824.81
648.17	37993.92
648.32	38391.81
648.47	38546.28
648.61	38160.09
648.76	38878.64
648.90	38590.75
649.05	38349.68
649.20	38396.49
649.34	38429.26
649.49	38424.57
649.63	38295.85
649.78	38579.05
649.92	38263.08
650.07	38232.65
650.21	37776.25
650.36	38197.54
650.51	38181.16
650.65	38576.71
650.80	38178.82
650.94	38541.60
651.09	38029.02
651.23	38068.81
651.38	38101.58
651.52	37572.62
651.67	37809.01
651.81	37912.00
651.96	38052.43
652.10	37773.91
652.25	37378.36
652.39	37586.66
652.54	38003.28
652.68	37818.38
652.83	37483.68
652.97	38064.13
653.12	37727.10
653.26	37710.71
653.41	37706.03
653.55	37399.42
653.70	37598.37
653.84	37523.47
653.99	37605.39
654.13	37258.99
654.27	37724.75
654.42	37418.14
654.56	37558.58
654.71	37287.07
654.85	37216.86
655.00	37287.07
655.14	37507.08
655.29	37174.73
655.43	37614.75
655.57	36982.80
655.72	36863.44
655.86	36697.26
656.01	37141.96
656.15	36704.28
656.30	37109.19
656.44	36807.26
656.58	36933.65
656.73	36652.79
656.87	36414.05
657.01	36692.58
657.16	36531.08
657.30	36648.11
657.45	36292.35
657.59	36528.74
657.73	36381.29
657.88	36685.56
658.02	36460.87
658.16	36172.98
658.31	36598.96
658.45	36416.40
658.60	36793.22
658.74	37071.75
658.88	36694.92
659.03	36554.49
659.17	36524.06
659.31	36182.34
659.46	36271.28
659.60	36114.47
659.74	36168.30
659.89	35983.40
660.03	35749.34
660.17	36154.26
660.32	36203.41
660.46	36739.39
660.60	36348.52
660.74	36306.39
660.89	36126.17
661.03	35885.09
661.17	35660.40
661.32	35597.21
661.46	35611.25
661.60	35093.99
661.74	35641.68
661.89	35470.82
662.03	35438.05
662.17	35409.96
662.31	35243.79
662.46	35569.12
662.60	35517.63
662.74	35119.74
662.88	35232.08
663.03	35281.24
663.17	35070.59
663.31	35115.06
663.45	35466.14
663.60	35278.89
663.74	34429.28
663.88	35049.52
664.02	34672.70
664.17	35239.11
664.31	35061.22
664.45	34850.58
664.59	34869.30
664.73	34628.23
664.88	34625.89
665.02	34433.96
665.16	34476.09
665.30	34410.56
665.44	34316.93
665.59	33972.88
665.73	33935.43
665.87	33897.98
666.01	34349.70
666.15	33731.80
666.29	34391.83
666.44	34206.93
666.58	34272.46
666.72	34096.92
666.86	34300.55
667.00	34284.17
667.14	33797.34
667.28	33493.07
667.43	33259.01
667.57	33577.33
667.71	33453.28
667.85	33867.55
667.99	33483.70
668.13	33460.30
668.27	33464.98
668.41	33511.79
668.56	33214.54
668.70	33249.65
668.84	33181.77
668.98	32802.61
669.12	33631.16
669.26	33104.54
669.40	32842.40
669.54	33261.35
669.68	33251.99
669.82	32531.11
669.96	32758.14
670.10	32336.84
670.25	33092.83
670.39	32687.92
670.53	32671.54
670.67	32311.10
670.81	32425.78
670.95	32596.64
671.09	32671.54
671.23	32505.36
671.37	32416.42
671.51	32280.67
671.65	32086.40
671.79	31805.54
671.93	31850.01
672.07	32109.81
672.21	31941.29
672.35	31981.08
672.49	31938.95
672.63	31817.24
672.77	31608.93
672.91	31929.59
673.05	31527.02
673.19	31522.34
673.33	31489.57
673.47	31035.50
673.61	31115.08
673.75	31199.34
673.89	30878.69
674.03	30789.75
674.17	30665.70
674.31	31037.84
674.45	30480.80
674.59	30834.22
674.73	31028.48
674.87	30958.27
675.01	31049.55
675.15	30480.80
675.29	30579.10
675.43	30396.54
675.56	30939.54
675.70	30546.33
675.84	29954.18
675.98	29111.58
676.12	30106.31
676.26	30043.12
676.40	29729.48
676.54	29804.38
676.68	29947.15
676.82	29043.71
676.96	29638.20
677.10	29369.04
677.23	29633.52
677.37	29340.96
677.51	29142.01
677.65	29212.23
677.79	28835.40
677.93	28912.64
678.07	28847.10
678.21	28505.38
678.34	28893.91
678.48	28383.68
678.62	28397.72
678.76	28231.54
678.90	28261.97
679.04	28198.77
679.18	28425.81
679.31	27946.00
679.45	27910.89
679.59	27641.73
679.73	27557.47
679.87	27585.55
680.00	27515.34
680.14	27428.74
680.28	27241.50
680.42	27419.38
680.56	27358.52
680.70	27384.27
680.83	27037.87
680.97	26775.73
681.11	26742.96
681.25	26768.71
681.39	26955.95
681.52	26684.45
681.66	26665.72
681.80	26876.37
681.94	26513.59
682.07	26363.79
682.21	26412.95
682.35	25937.82
682.49	26347.41
682.62	26352.09
682.76	25876.96
682.90	25991.65
683.04	25956.54
683.17	25703.76
683.31	25902.71
683.45	25720.15
683.59	25671.00
683.72	25486.09
683.86	25053.09
684.00	24982.88
684.13	25572.69
684.27	25460.35
684.41	25095.22
684.55	24912.66
684.68	24774.57
684.82	24615.41
684.96	24786.27
685.09	24709.04
685.23	24107.52
685.37	24273.70
685.50	24320.51
685.64	24510.09
685.78	24240.93
685.91	24208.16
686.05	23784.52
686.19	23868.78
686.32	23800.91
686.46	23550.47
686.60	23878.15
686.73	23548.13
686.87	23077.68
687.01	23381.95
687.14	23049.60
687.28	23091.73
687.42	22955.97
687.55	23026.19
687.69	23009.81
687.82	22963.00
687.96	22955.97
688.10	22593.19
688.23	22373.18
688.37	22508.93
688.50	22235.09
688.64	22370.84
688.78	22185.94
688.91	22040.82
689.05	22412.97
689.18	22427.01
689.32	21680.38
689.46	21834.86
689.59	21958.91
689.73	22064.23
689.86	21715.49
690.00	21731.87
690.13	21757.62
690.27	21511.86
690.41	21181.85
690.54	21055.46
690.68	20865.88
690.81	21013.33
690.95	21235.68
691.08	20568.63
691.22	20812.04
691.35	20891.62
691.49	21233.34
691.62	20713.74
691.76	20568.63
691.89	20812.04
692.03	20119.24
692.16	20037.33
692.30	20168.40
692.43	20327.55
692.57	20102.86
692.70	20318.19
692.84	19796.25
692.97	19662.84
693.11	19545.81
693.24	19742.42
693.38	19693.27
693.51	19360.91
693.65	19660.50
693.78	19185.37
693.92	19302.40
694.05	19297.72
694.19	19124.52
694.32	19166.65
694.45	19058.98
694.59	18869.40
694.72	18878.76
694.86	19077.71
694.99	18625.98
695.13	18836.63
695.26	18398.95
695.39	18307.67
695.53	18338.10
695.66	18401.29
695.80	18546.40
695.93	18403.63
696.07	18017.44
696.20	18148.51
696.33	17916.80
696.47	17839.56
696.60	17809.14
696.73	17834.88
696.87	17654.66
697.00	17727.22
697.14	17502.53
697.27	17109.32
697.40	17413.59
697.54	17397.20
697.67	17376.14
697.80	17153.79
697.94	17132.72
698.07	17060.16
698.21	16901.01
698.34	16879.94
698.47	16816.75
698.61	16645.89
698.74	16425.88
698.87	16638.87
699.01	16430.56
699.14	16676.32
699.27	16051.39
699.40	16149.70
699.54	16020.97
699.67	15997.56
699.80	15908.62
699.94	16145.02
700.07	15903.94
700.20	15852.45
700.34	15587.97
700.47	15976.50
700.60	15735.42
700.73	15943.73
700.87	15704.99
701.00	15410.09
701.13	15335.19
701.26	15349.23
701.40	15382.00
701.53	15147.95
701.66	15339.87
701.79	14920.92
701.93	15051.99
702.06	14597.92
702.19	14724.31
702.32	14782.82
702.46	14920.92
702.59	14588.56
702.72	14626.01
702.85	14431.74
702.99	14733.67
703.12	14604.94
703.25	14300.67
703.38	14588.56
703.51	14232.80
703.65	14626.01
703.78	14207.05
703.91	14080.66
704.04	13886.40
704.17	14047.90
704.31	13813.84
704.44	13455.74
704.57	13593.83
704.70	13633.62
704.83	13598.51
704.96	13760.01
705.10	13682.77
705.23	13809.16
>>>>>End Processed Spectral Data<<<<<
