SpectraSuite Data File
++++++++++++++++++++++++++++++++++++
Date: Fri Oct 25 11:34:26 EDT 2013
User: price-jones
Dark Spectrum Present: No
Reference Spectrum Present: No
Number of Sampled Component Spectra: 1
Spectrometers: USB2+H05261
Integration Time (usec): 100000 (USB2+H05261)
Spectra Averaged: 1 (USB2+H05261)
Boxcar Smoothing: 0 (USB2+H05261)
Correct for Electrical Dark: No (USB2+H05261)
Strobe/Lamp Enabled: No (USB2+H05261)
Correct for Detector Non-linearity: No (USB2+H05261)
Correct for Stray Light: No (USB2+H05261)
Number of Pixels in Processed Spectrum: 2048
>>>>>Begin Processed Spectral Data<<<<<
365.73	280.86
365.92	280.86
366.12	280.86
366.32	161.50
366.52	227.03
366.72	124.05
366.91	170.86
367.11	191.92
367.31	217.67
367.51	208.31
367.70	98.30
367.90	205.97
368.10	128.73
368.30	180.22
368.49	217.67
368.69	187.24
368.89	191.92
369.09	124.05
369.28	177.88
369.48	187.24
369.68	205.97
369.87	292.57
370.07	222.35
370.27	334.70
370.47	313.63
370.66	454.06
370.86	505.56
371.06	552.37
371.25	582.79
371.45	402.57
371.65	472.79
371.84	559.39
372.04	521.94
372.24	641.31
372.44	706.84
372.63	564.07
372.83	660.03
373.03	596.84
373.22	592.16
373.42	620.24
373.62	540.66
373.81	615.56
374.01	681.10
374.21	657.69
374.40	580.45
374.60	645.99
374.79	599.18
374.99	615.56
375.19	730.25
375.38	620.24
375.58	589.82
375.78	643.65
375.97	662.37
376.17	763.01
376.37	681.10
376.56	688.12
376.76	730.25
376.95	585.13
377.15	723.23
377.35	723.23
377.54	697.48
377.74	664.71
377.93	638.97
378.13	697.48
378.33	725.57
378.52	683.44
378.72	716.20
378.91	657.69
379.11	732.59
379.31	629.60
379.50	657.69
379.70	812.17
379.89	763.01
380.09	685.78
380.28	788.76
380.48	732.59
380.68	741.95
380.87	720.88
381.07	748.97
381.26	812.17
381.46	760.67
381.65	786.42
381.85	727.91
382.04	802.80
382.24	699.82
382.43	819.19
382.63	798.12
382.83	744.29
383.02	786.42
383.22	767.70
383.41	765.36
383.61	709.18
383.80	861.32
384.00	774.72
384.19	755.99
384.39	821.53
384.58	833.23
384.78	851.96
384.97	819.19
385.17	809.83
385.36	847.27
385.56	772.38
385.75	821.53
385.95	788.76
386.14	954.94
386.34	758.33
386.53	840.25
386.72	828.55
386.92	887.06
387.11	917.49
387.31	809.83
387.50	835.57
387.70	793.44
387.89	957.28
388.09	903.45
388.28	873.02
388.48	863.66
388.67	917.49
388.86	950.26
389.06	905.79
389.25	880.04
389.45	922.17
389.64	936.21
389.84	992.39
390.03	924.51
390.22	887.06
390.42	912.81
390.61	926.85
390.81	896.43
391.00	966.64
391.19	999.41
391.39	997.07
391.58	1041.54
391.78	954.94
391.97	997.07
392.16	1015.79
392.36	1046.22
392.55	973.66
392.75	1001.75
392.94	1046.22
393.13	1053.24
393.33	1055.58
393.52	1097.71
393.71	1062.60
393.91	1048.56
394.10	1088.35
394.29	1090.69
394.49	1102.39
394.68	1135.16
394.88	1069.62
395.07	1128.14
395.26	1228.78
395.46	1151.54
395.65	1144.52
395.84	1020.47
396.04	1198.35
396.23	1088.35
396.42	1074.31
396.62	1200.69
396.81	1151.54
397.00	1130.48
397.19	1153.88
397.39	1212.40
397.58	1177.29
397.77	1139.84
397.97	1263.89
398.16	1181.97
398.35	1151.54
398.55	1226.44
398.74	1207.72
398.93	1245.16
399.12	1266.23
399.32	1331.76
399.51	1252.19
399.70	1284.95
399.90	1301.34
400.09	1373.89
400.28	1345.81
400.47	1310.70
400.67	1334.11
400.86	1413.68
401.05	1441.77
401.24	1362.19
401.44	1352.83
401.63	1299.00
401.82	1352.83
402.01	1406.66
402.21	1416.02
402.40	1409.00
402.59	1469.86
402.78	1497.94
402.97	1390.28
403.17	1554.12
403.36	1547.09
403.55	1495.60
403.74	1542.41
403.93	1458.15
404.13	1530.71
404.32	1558.80
404.51	1458.15
404.70	1621.99
404.89	1614.97
405.09	1643.06
405.28	1689.87
405.47	1661.78
405.66	1685.19
405.85	1614.97
406.05	1561.14
406.24	1647.74
406.43	1598.59
406.62	1727.32
406.81	1750.72
407.00	1689.87
407.20	1610.29
407.39	1732.00
407.58	1760.08
407.77	1884.13
407.96	1881.79
408.15	1877.11
408.34	1916.90
408.54	1856.04
408.73	1874.77
408.92	1785.83
409.11	1959.03
409.30	1956.69
409.49	1851.36
409.68	1842.00
409.87	1935.62
410.07	2052.65
410.26	1968.39
410.45	2033.93
410.64	2031.58
410.83	2080.74
411.02	2045.63
411.21	2085.42
411.40	2062.01
411.59	2122.87
411.78	1998.82
411.98	2038.61
412.17	2132.23
412.36	2186.06
412.55	2258.62
412.74	2232.87
412.93	2317.13
413.12	2251.60
413.31	2317.13
413.50	2356.92
413.69	2321.81
413.88	2443.52
414.07	2368.62
414.26	2476.29
414.45	2413.09
414.64	2483.31
414.83	2553.52
415.02	2499.69
415.22	2553.52
415.41	2511.39
415.60	2532.46
415.79	2581.61
415.98	2614.38
416.17	2663.53
416.36	2736.09
416.55	2658.85
416.74	2703.32
416.93	2649.49
417.12	2867.16
417.31	2768.85
417.50	2731.41
417.69	2911.63
417.88	2773.53
418.07	2796.94
418.26	2743.11
418.45	3021.63
418.64	3009.93
418.83	2949.08
419.02	2946.73
419.21	3028.65
419.39	2956.10
419.58	2965.46
419.77	2932.69
419.96	2825.03
420.15	3047.38
420.34	2995.89
420.53	3138.66
420.72	3171.43
420.91	3119.93
421.10	3061.42
421.29	3157.38
421.48	3129.30
421.67	3164.40
421.86	3199.51
422.05	3342.28
422.24	3103.55
422.43	3112.91
422.61	3295.47
422.80	3344.63
422.99	3208.87
423.18	3265.05
423.37	3258.03
423.56	3281.43
423.75	3248.66
423.94	3232.28
424.13	3068.44
424.32	3243.98
424.50	3323.56
424.69	3424.20
424.88	3344.63
425.07	3377.39
425.26	3178.45
425.45	3323.56
425.64	3265.05
425.83	3220.58
426.01	3279.09
426.20	3309.52
426.39	3325.90
426.58	3370.37
426.77	3290.79
426.96	3400.80
427.15	3349.31
427.33	3485.06
427.52	3456.97
427.71	3454.63
427.90	3346.97
428.09	3639.53
428.28	3552.93
428.46	3541.23
428.65	3644.21
428.84	3655.92
429.03	3597.40
429.22	3494.42
429.40	3721.45
429.59	3545.91
429.78	3386.76
429.97	3550.59
430.16	3634.85
430.34	3599.74
430.53	3864.22
430.72	3721.45
430.91	3712.09
431.10	3602.08
431.28	3822.09
431.47	3822.09
431.66	3817.41
431.85	3885.29
432.03	3847.84
432.22	4084.23
432.41	4002.32
432.60	3964.87
432.79	3894.65
432.97	4102.96
433.16	4049.13
433.35	4081.89
433.54	4030.40
433.72	4046.79
433.91	4095.94
434.10	4002.32
434.28	4051.47
434.47	4077.21
434.66	4002.32
434.85	4222.33
435.03	4255.09
435.22	4229.35
435.41	4205.94
435.59	4201.26
435.78	4229.35
435.97	4306.59
436.16	4177.86
436.34	4093.60
436.53	4283.18
436.72	4411.91
436.90	4245.73
437.09	4493.83
437.28	4409.57
437.46	4325.31
437.65	4381.48
437.84	4379.14
438.02	4526.60
438.21	4421.27
438.40	4428.29
438.58	4564.04
438.77	4505.53
438.96	4510.21
439.14	4526.60
439.33	4709.16
439.52	4751.29
439.70	4868.31
439.89	4929.17
440.08	4690.43
440.26	4683.41
440.45	4894.06
440.63	4891.72
440.82	4929.17
441.01	4919.81
441.19	5074.28
441.38	5025.13
441.57	5062.58
441.75	5097.69
441.94	5102.37
442.12	5188.97
442.31	5212.37
442.50	5181.95
442.68	5198.33
442.87	5416.00
443.05	5542.39
443.24	5434.72
443.43	5298.97
443.61	5317.70
443.80	5689.84
443.98	5214.71
444.17	5179.61
444.35	5366.85
444.54	5294.29
444.73	5439.40
444.91	5376.21
445.10	5364.51
445.28	5518.98
445.47	5303.65
445.65	5392.59
445.84	5523.66
446.02	5486.22
446.21	5631.33
446.39	5444.09
446.58	5589.20
446.77	5444.09
446.95	5366.85
447.14	5500.26
447.32	5645.37
447.51	5474.51
447.69	5338.76
447.88	5659.42
448.06	5568.13
448.25	5451.11
448.43	5643.03
448.62	5647.71
448.80	5764.74
448.99	5631.33
449.17	5640.69
449.36	5795.17
449.54	5760.06
449.73	5877.09
449.91	5788.14
450.10	5797.51
450.28	5825.59
450.46	5937.94
450.65	5799.85
450.83	5856.02
451.02	5961.34
451.20	5970.71
451.39	5879.43
451.57	5818.57
451.76	5792.83
451.94	5919.21
452.13	5968.37
452.31	5961.34
452.49	5954.32
452.68	6054.97
452.86	6029.22
453.05	6120.50
453.23	6186.04
453.42	6143.91
453.60	6040.92
453.78	6162.63
453.97	6160.29
454.15	6047.94
454.34	6127.52
454.52	6265.61
454.70	6349.87
454.89	6274.98
455.07	6221.14
455.26	6387.32
455.44	6551.16
455.62	6518.39
455.81	6504.35
455.99	6567.54
456.17	6502.01
456.36	6511.37
456.54	6612.01
456.73	6715.00
456.91	6747.76
457.09	6733.72
457.28	6813.30
457.46	6595.63
457.64	6780.53
457.83	6965.43
458.01	6623.72
458.19	6949.05
458.38	6817.98
458.56	6843.73
458.74	6691.59
458.93	6862.45
459.11	6981.82
459.29	6944.37
459.48	7077.78
459.66	7110.55
459.84	7215.87
460.03	7176.08
460.21	7089.48
460.39	7075.44
460.57	7241.62
460.76	7119.91
460.94	7225.23
461.12	7192.47
461.31	7197.15
461.49	7288.43
461.67	7222.89
461.85	7440.56
462.04	7229.91
462.22	7681.64
462.40	7496.74
462.59	7332.90
462.77	7428.86
462.95	7410.14
463.13	7466.31
463.32	7508.44
463.50	7524.82
463.68	7536.52
463.86	7737.81
464.05	7398.43
464.23	7719.09
464.41	7644.19
464.59	7517.80
464.78	7864.20
464.96	7847.82
465.14	7576.31
465.32	7705.04
465.50	7810.37
465.69	7810.37
465.87	7864.20
466.05	7779.94
466.23	7747.17
466.41	8009.31
466.60	7927.39
466.78	7932.08
466.96	8025.70
467.14	7981.23
467.32	7817.39
467.51	8278.47
467.69	7936.76
467.87	7927.39
468.05	8133.36
468.23	8058.46
468.41	7932.08
468.60	7962.50
468.78	8196.56
468.96	8140.38
469.14	8072.51
469.32	8313.58
469.50	8208.26
469.69	8379.12
469.87	8454.02
470.05	8496.14
470.23	8304.22
470.41	8269.11
470.59	8360.39
470.77	8430.61
470.95	8428.27
471.14	8629.56
471.32	8400.18
471.50	8690.41
471.68	8699.77
471.86	8877.65
472.04	8704.45
472.22	8821.48
472.40	8692.75
472.58	8816.80
472.77	8844.88
472.95	8961.91
473.13	9315.33
473.31	9011.06
473.49	9114.05
473.67	9032.13
473.85	9118.73
474.03	9345.76
474.21	9366.82
474.39	9357.46
474.57	9390.23
474.75	9610.24
474.93	9472.15
475.12	9544.70
475.30	9558.75
475.48	9462.79
475.66	9788.12
475.84	9638.33
476.02	9994.09
476.20	9928.55
476.38	9856.00
476.56	10190.69
476.74	10263.25
476.92	10059.62
477.10	10071.33
477.28	10384.96
477.46	10200.05
477.64	10387.30
477.82	10485.60
478.00	10850.72
478.18	10733.70
478.36	10820.30
478.54	10684.55
478.72	10829.66
478.90	11096.48
479.08	10932.64
479.26	11040.31
479.44	11227.55
479.62	10934.98
479.80	11435.86
479.98	11611.40
480.16	11583.31
480.34	11470.97
480.52	11342.24
480.70	11894.60
480.88	11557.57
481.06	11847.79
481.24	11957.80
481.41	12020.99
481.59	12194.19
481.77	12154.40
481.95	12231.64
482.13	12461.01
482.31	12486.76
482.49	12833.16
482.67	12690.38
482.85	12917.42
483.03	13027.42
483.21	13242.75
483.39	13397.23
483.57	13231.05
483.74	13273.18
483.92	13371.48
484.10	13486.17
484.28	13650.00
484.46	13701.50
484.64	13825.54
484.82	13722.56
485.00	13991.72
485.18	14099.39
485.35	14420.04
485.53	14448.13
485.71	14675.16
485.89	15033.26
486.07	14881.13
486.25	14806.23
486.43	14993.47
486.61	15016.88
486.78	15274.34
486.96	15115.18
487.14	15407.75
487.32	15580.95
487.50	15793.94
487.68	15761.17
487.85	15719.04
488.03	16119.27
488.21	16280.77
488.39	16311.19
488.57	16332.26
488.75	16315.87
488.92	16304.17
489.10	16765.26
489.28	16861.22
489.46	17102.29
489.64	17041.44
489.81	17612.53
489.99	17371.46
490.17	17399.54
490.35	17652.32
490.53	17741.26
490.70	18160.22
490.88	17869.99
491.06	18209.37
491.24	17816.16
491.41	18302.99
491.59	18527.68
491.77	18127.45
491.95	18761.73
492.13	18576.83
492.30	18775.78
492.48	18939.62
492.66	19058.98
492.84	18857.70
493.01	19236.86
493.19	19328.14
493.37	19318.78
493.54	19389.00
493.72	19946.05
493.90	19775.19
494.08	19880.51
494.25	19936.68
494.43	19854.76
494.61	20400.11
494.79	20294.79
494.96	20432.88
495.14	20519.48
495.32	20519.48
495.49	20695.02
495.67	20648.21
495.85	20566.29
496.02	21160.78
496.20	21214.62
496.38	21158.44
496.55	21502.50
496.73	21994.01
496.91	21673.36
497.09	22061.89
497.26	22033.80
497.44	21752.94
497.62	22064.23
497.79	22345.09
497.97	22246.79
498.14	22576.81
498.32	22560.42
498.50	22534.68
498.67	22642.34
498.85	22827.24
499.03	22792.14
499.20	22932.57
499.38	23098.75
499.56	23056.62
499.73	23414.72
499.91	23412.38
500.08	23536.43
500.26	23274.29
500.44	23630.05
500.61	23974.11
500.79	23473.23
500.97	24311.14
501.14	24180.07
501.32	24308.80
501.49	24135.60
501.67	24247.95
501.84	24283.06
502.02	24720.74
502.20	24453.92
502.37	24540.52
502.55	24622.44
502.72	24835.42
502.90	25078.84
503.07	24849.47
503.25	25198.21
503.43	24989.90
503.60	25202.89
503.78	25394.81
503.95	25692.06
504.13	24980.54
504.30	25813.77
504.48	25525.88
504.65	25200.55
504.83	26059.52
505.01	25523.54
505.18	25947.18
505.36	26075.91
505.53	25865.26
505.71	26096.97
505.88	26375.50
506.06	26370.82
506.23	26450.39
506.41	26235.06
506.58	26513.59
506.76	26485.50
506.93	26827.22
507.11	26555.72
507.28	26986.38
507.46	26850.63
507.63	27206.39
507.81	27143.19
507.98	27089.36
508.16	27175.96
508.33	27835.99
508.50	27637.05
508.68	27693.22
508.85	27859.40
509.03	27660.45
509.20	27843.01
509.38	27981.10
509.55	28257.29
509.73	28191.75
509.90	28180.05
510.08	28376.66
510.25	28311.12
510.42	28180.05
510.60	28362.61
510.77	28458.57
510.95	29118.60
511.12	28325.16
511.30	28933.70
511.47	29071.79
511.64	28498.36
511.82	28875.19
511.99	29081.16
512.17	29050.73
512.34	29230.95
512.51	29511.81
512.69	29612.46
512.86	29694.38
513.04	29680.33
513.21	29736.51
513.38	29600.76
513.56	29961.20
513.73	29771.61
513.90	29991.62
514.08	30005.67
514.25	30258.45
514.43	30235.04
514.60	30213.98
514.77	30328.66
514.95	30431.65
515.12	30157.80
515.29	30476.12
515.47	30862.30
515.64	30670.38
515.81	30328.66
515.99	30600.16
516.16	31489.57
516.33	30974.65
516.51	30962.95
516.68	31009.76
516.85	31253.17
517.03	31145.51
517.20	31299.98
517.37	31534.04
517.54	31761.07
517.72	31267.22
517.89	31482.55
518.06	31697.88
518.24	31637.02
518.41	31737.66
518.58	31695.53
518.75	31686.17
518.93	31840.65
519.10	32098.11
519.27	32137.90
519.45	32154.28
519.62	32135.56
519.79	32362.59
519.96	32329.82
520.14	32437.48
520.31	32154.28
520.48	32645.79
520.65	32840.06
520.83	32968.79
521.00	33350.29
521.17	32797.93
521.34	32704.31
521.52	33177.09
521.69	33109.22
521.86	33198.16
522.03	33443.91
522.20	33244.97
522.38	33448.60
522.55	33614.77
522.72	33413.49
522.89	33532.86
523.07	33989.26
523.24	33383.06
523.41	34286.51
523.58	33525.83
523.75	34050.11
523.92	34096.92
524.10	34024.37
524.27	34277.15
524.44	34216.29
524.61	33816.06
524.78	34225.65
524.96	34492.47
525.13	34548.65
525.30	34700.78
525.47	34646.95
525.64	34876.32
525.81	34993.35
525.98	34754.61
526.16	35182.93
526.33	35023.78
526.50	35068.25
526.67	35002.71
526.84	35164.21
527.01	34881.00
527.18	35239.11
527.36	35023.78
527.53	35421.67
527.70	35651.04
527.87	35503.59
528.04	35491.88
528.21	35948.29
528.38	35454.44
528.55	35468.48
528.72	36107.44
528.89	35817.22
529.07	35828.92
529.24	35744.66
529.41	36128.51
529.58	35789.13
529.75	36072.34
529.92	36037.23
530.09	35875.73
530.26	36020.84
530.43	36252.56
530.60	35660.40
530.77	36151.91
530.94	35847.64
531.11	36694.92
531.28	36208.09
531.46	36098.08
531.63	36718.32
531.80	36601.30
531.97	36650.45
532.14	36341.50
532.31	36273.62
532.48	36964.08
532.65	36755.77
532.82	36950.04
532.99	36833.01
533.16	36964.08
533.33	36935.99
533.50	37067.06
533.67	37354.95
533.84	36645.77
534.01	36926.63
534.18	37249.63
534.35	37837.10
534.52	37509.43
534.69	37574.96
534.86	37598.37
535.03	37476.66
535.20	37738.80
535.37	37909.66
535.54	38375.42
535.71	37640.50
535.88	37883.91
536.05	37865.19
536.22	37993.92
536.38	38377.76
536.55	38560.33
536.72	38230.31
536.89	37970.51
537.06	37954.13
537.23	38433.94
537.40	38108.60
537.57	38092.22
537.74	38328.61
537.91	38801.40
538.08	38923.11
538.25	38349.68
538.42	38485.43
538.59	38770.97
538.75	38555.64
538.92	38831.83
539.09	39075.24
539.26	38424.57
539.43	38775.66
539.60	39161.84
539.77	38759.27
539.94	39374.83
540.11	38899.70
540.28	39246.10
540.44	39218.02
540.61	38859.91
540.78	39306.96
540.95	38967.58
541.12	39274.19
541.29	39166.52
541.46	39358.45
541.62	39681.44
541.79	39662.72
541.96	38953.54
542.13	38993.32
542.30	39360.79
542.47	39819.53
542.63	39737.62
542.80	39674.42
542.97	40369.56
543.14	40451.48
543.31	39864.00
543.48	40172.96
543.64	40327.43
543.81	40322.75
543.98	39964.65
544.15	40156.57
544.32	40758.09
544.48	41013.21
544.65	40245.51
544.82	40533.40
544.99	40442.12
545.16	40840.01
545.32	40591.91
545.49	41137.26
545.66	41083.42
545.83	40776.81
546.00	41006.19
546.16	40931.29
546.33	40765.11
546.50	40765.11
546.67	40666.81
546.83	40460.84
547.00	41125.55
547.17	40648.08
547.34	40832.99
547.50	41144.28
547.67	41209.81
547.84	41350.24
548.00	41219.17
548.17	41450.89
548.34	41591.32
548.51	41656.85
548.67	41387.69
548.84	41343.22
549.01	41350.24
549.18	41605.36
549.34	41347.90
549.51	41509.40
549.68	41471.95
549.84	41780.90
550.01	42146.03
550.18	41607.70
550.34	41750.48
550.51	41806.65
550.68	41560.89
550.84	41647.49
551.01	41806.65
551.18	41544.51
551.34	42094.53
551.51	41904.95
551.68	41998.57
551.84	41930.70
552.01	42017.30
552.18	42005.59
552.34	41675.58
552.51	41752.82
552.68	42232.63
552.84	42337.95
553.01	42047.72
553.18	42241.99
553.34	42576.69
553.51	42124.96
553.67	42712.44
553.84	42684.35
554.01	42642.22
554.17	42667.97
554.34	42827.12
554.51	43023.73
554.67	42766.27
554.84	42326.25
555.00	43084.58
555.17	42529.87
555.33	42902.02
555.50	42567.32
555.67	42897.34
555.83	42960.53
556.00	43416.94
556.16	43693.12
556.33	43089.26
556.50	42815.42
556.66	43290.55
556.83	42958.19
556.99	43175.86
557.16	43709.50
557.32	43632.27
557.49	43374.81
557.65	43173.52
557.82	43023.73
557.98	43688.44
558.15	43257.78
558.32	43407.58
558.48	43126.71
558.65	43475.45
558.81	43700.14
558.98	43077.56
559.14	43562.05
559.31	43236.72
559.47	43498.86
559.64	43924.83
559.80	43681.42
559.97	43793.76
560.13	43613.54
560.30	43096.28
560.46	43908.45
560.63	44245.49
560.79	44086.33
560.96	44224.42
561.12	43962.28
561.29	44060.58
561.45	44463.16
561.61	43681.42
561.78	43688.44
561.94	44371.88
562.11	43824.19
562.27	43667.37
562.44	43885.04
562.60	44112.08
562.77	44074.63
562.93	44156.55
563.10	44409.32
563.26	43761.00
563.42	44198.68
563.59	44205.70
563.75	43924.83
563.92	44126.12
564.08	44318.04
564.24	44093.35
564.41	43962.28
564.57	44163.57
564.74	44177.61
564.90	44037.18
565.07	43985.69
565.23	44226.76
565.39	44285.28
565.56	44641.04
565.72	44161.23
565.88	44257.19
566.05	44275.91
566.21	44198.68
566.38	44369.54
566.54	44294.64
566.70	44322.72
566.87	44409.32
567.03	44275.91
567.19	44823.60
567.36	44114.42
567.52	44587.21
567.68	44421.03
567.85	44795.51
568.01	44732.32
568.17	43973.98
568.34	45181.70
568.50	44360.17
568.66	44390.60
568.83	44397.62
568.99	44629.34
569.15	44568.48
569.32	44624.65
569.48	44683.17
569.64	44608.27
569.81	44847.00
569.97	44928.92
570.13	44748.70
570.30	44355.49
570.46	44893.82
570.62	45146.59
570.78	44027.82
570.95	44968.71
571.11	45083.40
571.27	44994.46
571.43	44971.05
571.60	44690.19
571.76	44678.49
571.92	44933.60
572.09	44889.13
572.25	45029.57
572.41	44442.09
572.57	44924.24
572.74	45151.27
572.90	45102.12
573.06	45258.94
573.22	45146.59
573.38	44964.03
573.55	45027.23
573.71	45764.49
573.87	45296.39
574.03	44844.66
574.20	44945.31
574.36	45258.94
574.52	44954.67
574.68	44879.77
574.84	45265.96
575.01	45214.47
575.17	45523.42
575.33	44603.59
575.49	45160.64
575.65	45088.08
575.82	45385.33
575.98	45226.17
576.14	45343.20
576.30	45453.20
576.46	45270.64
576.62	45223.83
576.79	45200.43
576.95	45186.38
577.11	45085.74
577.27	45198.09
577.43	45102.12
577.59	45586.61
577.75	44828.28
577.92	44985.10
578.08	45045.95
578.24	45265.96
578.40	45359.58
578.56	45450.86
578.72	45406.39
578.88	45366.60
579.04	45146.59
579.21	45200.43
579.37	45434.48
579.53	45315.11
579.69	44994.46
579.85	45514.06
580.01	45031.91
580.17	45350.22
580.33	45612.36
580.49	45272.98
580.65	45272.98
580.82	45134.89
580.98	45305.75
581.14	45474.27
581.30	45406.39
581.46	45303.41
581.62	45572.57
581.78	44910.20
581.94	45567.89
582.10	45432.14
582.26	45340.86
582.42	45731.73
582.58	45670.87
582.74	45724.71
582.90	45296.39
583.06	45792.58
583.22	45331.50
583.38	45867.48
583.54	45635.77
583.70	45256.60
583.86	45867.48
584.02	45413.41
584.18	45455.54
584.34	45289.37
584.50	45956.42
584.66	45750.45
584.82	45883.86
584.98	46052.38
585.14	45773.86
585.30	45485.97
585.46	45443.84
585.62	45439.16
585.78	45661.51
585.94	45291.71
586.10	45588.95
586.26	45092.76
586.42	45710.66
586.58	45773.86
586.74	45492.99
586.90	45446.18
587.06	45495.33
587.22	45614.70
587.38	45256.60
587.54	45645.13
587.70	46052.38
587.86	45872.16
588.02	45617.04
588.18	45310.43
588.34	45734.07
588.49	45539.80
588.65	45668.53
588.81	45598.32
588.97	46010.25
589.13	45350.22
589.29	45614.70
589.45	46169.41
589.61	45743.43
589.77	45701.30
589.93	45661.51
590.08	45921.31
590.24	46043.02
590.40	46103.87
590.56	46419.84
590.72	46220.90
590.88	45663.85
591.04	45553.85
591.20	46012.59
591.35	46026.63
591.51	46017.27
591.67	46202.18
591.83	46555.60
591.99	46160.05
592.15	45731.73
592.31	45911.95
592.46	45928.33
592.62	46347.29
592.78	45940.04
592.94	46344.95
593.10	46532.19
593.26	46162.39
593.41	46597.73
593.57	46419.84
593.73	46211.54
593.89	46443.25
594.05	46714.75
594.20	45895.56
594.36	46382.40
594.52	46593.04
594.68	46279.41
594.84	45998.55
594.99	46579.00
595.15	46131.96
595.31	46412.82
595.47	46211.54
595.62	46677.30
595.78	46096.85
595.94	46211.54
596.10	46354.31
596.25	46066.42
596.41	46658.58
596.57	46340.27
596.73	46703.05
596.88	46436.23
597.04	46295.80
597.20	46387.08
597.36	46487.72
597.51	46492.40
597.67	46075.79
597.83	46398.78
597.99	46721.77
598.14	45785.56
598.30	46398.78
598.46	46445.59
598.61	46738.16
598.77	46344.95
598.93	45830.03
599.09	46712.41
599.24	46925.40
599.40	46181.11
599.56	46370.69
599.71	46473.68
599.87	46724.11
600.03	46368.35
600.18	46227.92
600.34	46415.16
600.50	46445.59
600.65	46562.62
600.81	46520.49
600.97	46628.15
601.12	46302.82
601.28	46356.65
601.44	46541.55
601.59	46454.95
601.75	46426.87
601.91	46679.64
602.06	46504.10
602.22	46843.48
602.37	46637.51
602.53	46389.42
602.69	46328.56
602.84	46480.70
603.00	46361.33
603.16	46782.63
603.31	46630.49
603.47	46745.18
603.62	46272.39
603.78	46976.89
603.94	46625.81
604.09	46312.18
604.25	46625.81
604.40	46564.96
604.56	46728.80
604.71	46976.89
604.87	46464.32
605.03	46064.08
605.18	46265.37
605.34	45993.87
605.49	46136.64
605.65	46677.30
605.80	45886.20
605.96	46220.90
606.12	45972.80
606.27	46520.49
606.43	46019.61
606.58	46691.35
606.74	46075.79
606.89	46380.06
607.05	46415.16
607.20	46473.68
607.36	46436.23
607.51	46536.87
607.67	46078.13
607.82	46017.27
607.98	46398.78
608.13	46021.95
608.29	46209.20
608.44	46698.37
608.60	46195.15
608.75	46272.39
608.91	46258.35
609.06	46019.61
609.22	46445.59
609.37	45785.56
609.53	46539.21
609.68	46293.46
609.84	46085.15
609.99	46293.46
610.15	46293.46
610.30	46321.54
610.46	46340.27
610.61	46106.21
610.76	46293.46
610.92	46157.70
611.07	46108.55
611.23	46445.59
611.38	45986.85
611.54	46160.05
611.69	45996.21
611.84	46241.96
612.00	45975.14
612.15	45918.97
612.31	46321.54
612.46	45687.26
612.62	45860.46
612.77	45844.07
612.92	46188.13
613.08	45741.09
613.23	45909.61
613.39	45595.98
613.54	45698.96
613.69	45818.33
613.85	46211.54
614.00	45839.39
614.15	46024.29
614.31	45553.85
614.46	45422.78
614.62	45296.39
614.77	45542.14
614.92	45780.88
615.08	45799.60
615.23	45925.99
615.38	45626.40
615.54	45399.37
615.69	45661.51
615.84	45352.56
616.00	45771.52
616.15	45701.30
616.30	46157.70
616.46	45752.79
616.61	45799.60
616.76	45467.25
616.92	45392.35
617.07	45883.86
617.22	45750.45
617.37	45127.87
617.53	45591.30
617.68	45563.21
617.83	45750.45
617.99	45998.55
618.14	45352.56
618.29	45272.98
618.45	44917.22
618.60	45095.10
618.75	44870.41
618.90	45165.32
619.06	44994.46
619.21	45390.01
619.36	45565.55
619.51	45184.04
619.67	44692.53
619.82	45277.66
619.97	45085.74
620.12	45134.89
620.28	45036.59
620.43	45780.88
620.58	45095.10
620.73	45020.20
620.89	45141.91
621.04	45425.12
621.19	45010.84
621.34	45109.14
621.49	45022.54
621.65	44706.57
621.80	45228.51
621.95	45001.48
622.10	45095.10
622.25	44594.23
622.41	44598.91
622.56	44851.69
622.71	45013.18
622.86	44971.05
623.01	45020.20
623.16	44744.02
623.32	44186.97
623.47	44926.58
623.62	44685.51
623.77	45191.06
623.92	44917.22
624.07	44350.81
624.23	44868.07
624.38	44816.58
624.53	44758.06
624.68	44182.29
624.83	44634.02
624.98	44554.44
625.13	44430.39
625.29	43985.69
625.44	44748.70
625.59	44402.30
625.74	44580.18
625.89	44491.24
626.04	44238.47
626.19	44322.72
626.34	43999.73
626.49	44402.30
626.65	44172.93
626.80	44280.60
626.95	43849.94
627.10	43648.65
627.25	44168.25
627.40	44088.67
627.55	44074.63
627.70	44013.77
627.85	44212.72
628.00	43852.28
628.15	44236.12
628.30	43611.20
628.45	43594.82
628.60	43105.65
628.76	43557.37
628.91	44128.46
629.06	43187.56
629.21	43878.02
629.36	43594.82
629.51	43753.97
629.66	43770.36
629.81	43718.87
629.96	43648.65
630.11	43536.30
630.26	43648.65
630.41	43122.03
630.56	43505.88
630.71	43838.23
630.86	43344.38
631.01	43320.98
631.16	43311.61
631.31	43152.46
631.46	43302.25
631.61	43672.06
631.76	43456.73
631.91	43461.41
632.06	43576.09
632.21	43892.07
632.36	43648.65
632.51	43416.94
632.66	43337.36
632.81	43353.74
632.96	43569.07
633.10	42904.36
633.25	43225.01
633.40	43182.88
633.55	43475.45
633.70	43002.66
633.85	42700.73
634.00	42958.19
634.15	43037.77
634.30	43049.47
634.45	42693.71
634.60	42965.21
634.75	42995.64
634.90	42951.17
635.05	43105.65
635.19	42740.52
635.34	42932.45
635.49	42873.93
635.64	42656.26
635.79	42983.94
635.94	42494.77
636.09	43093.94
636.24	42342.63
636.39	42609.45
636.53	42623.50
636.68	42436.25
636.83	42417.53
636.98	42394.12
637.13	42096.88
637.28	42253.69
637.43	42604.77
637.57	42820.10
637.72	42312.20
637.87	42305.18
638.02	42412.85
638.17	42061.77
638.32	42110.92
638.46	41783.24
638.61	42017.30
638.76	41818.35
638.91	42199.86
639.06	42319.23
639.20	41923.68
639.35	41586.64
639.50	42089.85
639.65	41900.27
639.80	42017.30
639.94	42157.73
640.09	41991.55
640.24	42424.55
640.39	41378.33
640.54	41860.48
640.68	41937.72
640.83	41947.08
640.98	41808.99
641.13	41214.49
641.27	42270.08
641.42	42010.28
641.57	41923.68
641.72	41921.34
641.86	41710.69
642.01	41434.50
642.16	41448.55
642.31	41137.26
642.45	41563.23
642.60	41174.70
642.75	41291.73
642.90	41504.72
643.04	41680.26
643.19	41591.32
643.34	41338.54
643.48	40629.36
643.63	41378.33
643.78	41392.37
643.93	41525.78
644.07	41549.19
644.22	41338.54
644.37	41282.37
644.51	41532.81
644.66	41090.44
644.81	41317.48
644.95	41413.44
645.10	41022.57
645.25	41099.81
645.39	40882.14
645.54	40933.63
645.69	40872.78
645.83	40781.49
645.98	40898.52
646.13	40893.84
646.27	40748.73
646.42	40669.15
646.57	41078.74
646.71	41043.63
646.86	41268.33
647.00	40889.16
647.15	40732.34
647.30	40865.75
647.44	41078.74
647.59	41029.59
647.74	41081.08
647.88	40898.52
648.03	41076.40
648.17	41148.96
648.32	40399.99
648.47	40900.86
648.61	40514.67
648.76	40428.07
648.90	40247.85
649.05	39964.65
649.20	40671.49
649.34	40861.07
649.49	40762.77
649.63	40638.72
649.78	40725.32
649.92	40577.87
650.07	40641.06
650.21	40924.27
650.36	40657.45
650.51	40374.24
650.65	40706.60
650.80	40495.95
650.94	40603.61
651.09	39943.58
651.23	40072.31
651.38	39892.09
651.52	39906.13
651.67	40095.72
651.81	40273.60
651.96	40226.79
652.10	39922.52
652.25	39962.31
652.39	39618.25
652.54	39988.05
652.68	40105.08
652.83	40069.97
652.97	40135.51
653.12	39580.80
653.26	39728.25
653.41	39948.26
653.55	39758.68
653.70	39789.11
653.84	40095.72
653.99	39672.08
654.13	39772.72
654.27	39772.72
654.42	39938.90
654.56	39288.23
654.71	39548.03
654.85	39861.66
655.00	39791.45
655.14	39903.79
655.29	39807.83
655.43	40107.42
655.57	39367.81
655.72	39328.02
655.86	39583.14
656.01	39065.88
656.15	39115.03
656.30	39337.38
656.44	39835.92
656.58	39438.03
656.73	39243.76
656.87	38897.36
657.01	38990.98
657.16	39068.22
657.30	39215.68
657.45	39524.63
657.59	39178.23
657.73	39000.35
657.88	39007.37
658.02	39524.63
658.16	39475.48
658.31	39119.71
658.45	39257.81
658.60	38590.75
658.74	39129.08
658.88	39096.31
659.03	39030.77
659.17	38672.67
659.31	39007.37
659.46	38445.64
659.60	38665.65
659.74	38738.21
659.89	37879.23
660.03	38258.40
660.17	38565.01
660.32	38459.68
660.46	38164.78
660.60	37752.84
660.74	38139.03
660.89	38295.85
661.03	37900.29
661.17	37516.45
661.32	38043.07
661.46	37710.71
661.60	37869.87
661.74	37752.84
661.89	38085.20
662.03	38094.56
662.17	37696.67
662.31	37106.85
662.46	37603.05
662.60	37570.28
662.74	37474.32
662.88	36933.65
663.03	37460.27
663.17	37202.82
663.31	36809.61
663.45	37607.73
663.60	37703.69
663.74	37275.37
663.88	37385.38
664.02	37060.04
664.17	37399.42
664.31	36795.56
664.45	36741.73
664.59	36844.71
664.73	36603.64
664.88	36870.46
665.02	36851.73
665.16	36673.85
665.30	36772.16
665.44	36683.22
665.59	36201.07
665.73	35784.45
665.87	35742.32
666.01	36591.94
666.15	36554.49
666.29	36271.28
666.44	36631.72
666.58	36210.43
666.72	36093.40
666.86	35957.65
667.00	35709.55
667.14	35756.36
667.28	36002.12
667.43	35618.27
667.57	36079.36
667.71	35732.96
667.85	36044.25
667.99	36086.38
668.13	35295.28
668.27	35416.99
668.41	35494.22
668.56	34799.08
668.70	35042.50
668.84	34820.15
668.98	35026.12
669.12	35171.23
669.26	35009.73
669.40	35093.99
669.54	34941.86
669.68	35180.59
669.82	34993.35
669.96	34436.30
670.10	34815.47
670.25	34625.89
670.39	34438.64
670.53	34623.54
670.67	34473.75
670.81	34850.58
670.95	34450.35
671.09	34335.66
671.23	33956.49
671.37	34235.02
671.51	33809.04
671.65	33907.34
671.79	34281.83
671.93	34110.97
672.07	34003.30
672.21	33647.54
672.35	33481.36
672.49	34117.99
672.63	33624.14
672.77	33376.04
672.91	33841.81
673.05	33083.47
673.19	33041.34
673.33	33134.96
673.47	33057.73
673.61	33212.20
673.75	32708.99
673.89	32875.16
674.03	32664.52
674.17	32624.73
674.31	32133.21
674.45	32165.98
674.59	32474.93
674.73	32449.19
674.87	32163.64
675.01	32584.94
675.15	32257.26
675.29	31779.79
675.43	32023.21
675.56	32173.00
675.70	31824.26
675.84	31889.80
675.98	30668.04
676.12	31763.41
676.26	32032.57
676.40	31377.22
676.54	31133.81
676.68	31091.68
676.82	30551.01
676.96	31494.25
677.10	31180.62
677.23	30682.08
677.37	31026.14
677.51	30546.33
677.65	30836.56
677.79	30672.72
677.93	30551.01
678.07	30490.16
678.21	30642.29
678.34	30061.84
678.48	30157.80
678.62	30029.07
678.76	29919.07
678.90	29668.63
679.04	29907.37
679.18	30061.84
679.31	29551.60
679.45	29701.40
679.59	29350.32
679.73	29186.48
679.87	29184.14
680.00	29518.84
680.14	29818.42
680.28	28945.41
680.42	28753.48
680.56	28823.70
680.70	28528.79
680.83	28615.39
680.97	28259.63
681.11	28587.30
681.25	28046.64
681.39	27749.39
681.52	27931.95
681.66	27604.28
681.80	27594.92
681.94	27367.88
682.07	27667.47
682.21	27477.89
682.35	27124.47
682.49	27211.07
682.62	27433.42
682.76	27683.86
682.90	27257.88
683.04	27190.00
683.17	26836.58
683.31	26483.16
683.45	26609.55
683.59	26473.80
683.72	26663.38
683.86	26445.71
684.00	26398.90
684.13	26316.98
684.27	25940.16
684.41	25755.26
684.55	26162.51
684.68	25715.47
684.82	25565.67
684.96	25862.92
685.09	25645.25
685.23	25575.03
685.37	25991.65
685.50	25818.45
685.64	25671.00
685.78	25282.47
685.91	25118.63
686.05	24931.39
686.19	24563.92
686.32	24711.38
686.46	24444.56
686.60	24247.95
686.73	24451.58
686.87	24704.35
687.01	24407.11
687.14	24624.78
687.28	24128.58
687.42	24332.21
687.55	24137.94
687.69	23971.77
687.82	23983.47
687.96	23704.95
688.10	23899.21
688.23	23676.86
688.37	23859.42
688.50	23775.16
688.64	23501.32
688.78	23187.69
688.91	23274.29
689.05	23103.43
689.18	22981.72
689.32	22581.49
689.46	22452.76
689.59	22647.02
689.73	22955.97
689.86	22913.84
690.00	22717.24
690.13	22740.64
690.27	22427.01
690.41	22422.33
690.54	21867.63
690.68	22108.70
690.81	21781.03
690.95	21923.80
691.08	21781.03
691.22	21556.33
691.35	21788.05
691.49	21553.99
691.62	21687.40
691.76	21165.46
691.89	20954.82
692.03	20788.64
692.16	20699.70
692.30	20905.66
692.43	20697.36
692.57	20755.87
692.70	20465.64
692.84	20491.39
692.97	20479.69
693.11	20304.15
693.24	20217.55
693.38	20334.57
693.51	19875.83
693.65	19882.85
693.78	19824.34
693.92	19719.01
694.05	19508.37
694.19	19793.91
694.32	19590.28
694.45	19697.95
694.59	19651.14
694.72	19641.78
694.86	19342.19
694.99	19152.60
695.13	19056.64
695.26	19084.73
695.39	18649.39
695.53	18621.30
695.66	18810.89
695.80	19042.60
695.93	18841.31
696.07	18333.42
696.20	18305.33
696.33	18132.13
696.47	17811.48
696.60	17982.34
696.73	18223.41
696.87	18195.32
697.00	18225.75
697.14	17830.20
697.27	17715.51
697.40	17575.08
697.54	17675.73
697.67	17600.83
697.80	17582.10
697.94	17425.29
698.07	17472.10
698.21	17338.69
698.34	17146.76
698.47	16683.34
698.61	16753.55
698.74	16613.12
698.87	16645.89
699.01	16531.20
699.14	16765.26
699.27	16556.95
699.40	16465.67
699.54	16538.23
699.67	16559.29
699.80	16315.87
699.94	16086.50
700.07	16306.51
700.20	16290.13
700.34	16070.12
700.47	15974.16
700.60	16081.82
700.73	15943.73
700.87	15866.49
701.00	15545.84
701.13	15573.92
701.26	15489.67
701.40	15246.25
701.53	15218.16
701.66	15307.10
701.79	15192.42
701.93	15119.86
702.06	14588.56
702.19	14731.33
702.32	14939.64
702.46	14843.68
702.59	14897.51
702.72	14623.67
702.85	14881.13
702.99	14913.89
703.12	14602.60
703.25	14630.69
703.38	13947.25
703.51	14328.76
703.65	14185.99
703.78	14225.78
703.91	13961.30
704.04	13825.54
704.17	13834.91
704.31	13851.29
704.44	13668.73
704.57	13654.69
704.70	13743.63
704.83	13530.64
704.96	13495.53
705.10	13535.32
705.23	13401.91
>>>>>End Processed Spectral Data<<<<<
