SpectraSuite Data File
++++++++++++++++++++++++++++++++++++
Date: Fri Oct 25 11:33:44 EDT 2013
User: price-jones
Dark Spectrum Present: No
Reference Spectrum Present: No
Number of Sampled Component Spectra: 1
Spectrometers: USB2+H05261
Integration Time (usec): 100000 (USB2+H05261)
Spectra Averaged: 1 (USB2+H05261)
Boxcar Smoothing: 0 (USB2+H05261)
Correct for Electrical Dark: No (USB2+H05261)
Strobe/Lamp Enabled: No (USB2+H05261)
Correct for Detector Non-linearity: No (USB2+H05261)
Correct for Stray Light: No (USB2+H05261)
Number of Pixels in Processed Spectrum: 2048
>>>>>Begin Processed Spectral Data<<<<<
365.73	266.82
365.92	266.82
366.12	266.82
366.32	215.33
366.52	257.46
366.72	187.24
366.91	102.98
367.11	145.11
367.31	117.03
367.51	170.86
367.70	170.86
367.90	203.63
368.10	170.86
368.30	234.05
368.49	180.22
368.69	217.67
368.89	257.46
369.09	154.48
369.28	166.18
369.48	220.01
369.68	184.90
369.87	229.37
370.07	236.39
370.27	252.78
370.47	337.04
370.66	456.40
370.86	540.66
371.06	507.90
371.25	585.13
371.45	627.26
371.65	606.20
371.84	582.79
372.04	543.00
372.24	496.19
372.44	596.84
372.63	557.05
372.83	528.96
373.03	557.05
373.22	643.65
373.42	575.77
373.62	580.45
373.81	580.45
374.01	681.10
374.21	624.92
374.40	561.73
374.60	603.86
374.79	592.16
374.99	624.92
375.19	613.22
375.38	685.78
375.58	613.22
375.78	744.29
375.97	662.37
376.17	781.74
376.37	704.50
376.56	688.12
376.76	676.41
376.95	587.47
377.15	620.24
377.35	704.50
377.54	706.84
377.74	685.78
377.93	725.57
378.13	667.05
378.33	704.50
378.52	734.93
378.72	730.25
378.91	730.25
379.11	704.50
379.31	730.25
379.50	798.12
379.70	753.65
379.89	732.59
380.09	697.48
380.28	746.63
380.48	685.78
380.68	690.46
380.87	753.65
381.07	755.99
381.26	734.93
381.46	695.14
381.65	755.99
381.85	704.50
382.04	821.53
382.24	777.06
382.43	786.42
382.63	835.57
382.83	863.66
383.02	840.25
383.22	805.14
383.41	844.93
383.61	798.12
383.80	854.30
384.00	734.93
384.19	802.80
384.39	894.08
384.58	884.72
384.78	784.08
384.97	781.74
385.17	800.46
385.36	840.25
385.56	866.00
385.75	772.38
385.95	837.91
386.14	798.12
386.34	814.51
386.53	777.06
386.72	819.19
386.92	821.53
387.11	880.04
387.31	880.04
387.50	851.96
387.70	891.74
387.89	1001.75
388.09	856.64
388.28	910.47
388.48	877.70
388.67	894.08
388.86	854.30
389.06	938.55
389.25	889.40
389.45	929.19
389.64	924.51
389.84	976.00
390.03	992.39
390.22	992.39
390.42	901.11
390.61	924.51
390.81	884.72
391.00	980.68
391.19	1018.13
391.39	964.30
391.58	1043.88
391.78	1027.50
391.97	1011.11
392.16	978.34
392.36	1043.88
392.55	1018.13
392.75	1076.65
392.94	999.41
393.13	1139.84
393.33	952.60
393.52	1149.20
393.71	1015.79
393.91	1027.50
394.10	1090.69
394.29	1205.38
394.49	1095.37
394.68	992.39
394.88	1102.39
395.07	1172.61
395.26	1149.20
395.46	1069.62
395.65	1097.71
395.84	1170.27
396.04	1217.08
396.23	1198.35
396.42	1137.50
396.62	1191.33
396.81	1207.72
397.00	1249.85
397.19	1238.14
397.39	1242.82
397.58	1261.55
397.77	1198.35
397.97	1238.14
398.16	1273.25
398.35	1315.38
398.55	1280.27
398.74	1352.83
398.93	1299.00
399.12	1320.06
399.32	1261.55
399.51	1420.71
399.70	1343.47
399.90	1366.87
400.09	1366.87
400.28	1409.00
400.47	1359.85
400.67	1469.86
400.86	1399.64
401.05	1420.71
401.24	1387.94
401.44	1373.89
401.63	1469.86
401.82	1439.43
402.01	1437.09
402.21	1474.54
402.40	1509.65
402.59	1526.03
402.78	1551.78
402.97	1556.46
403.17	1460.49
403.36	1533.05
403.55	1593.90
403.74	1619.65
403.93	1626.67
404.13	1654.76
404.32	1657.10
404.51	1626.67
404.70	1533.05
404.89	1619.65
405.09	1650.08
405.28	1624.33
405.47	1633.69
405.66	1703.91
405.85	1654.76
406.05	1675.82
406.24	1736.68
406.43	1692.21
406.62	1874.77
406.81	1832.64
407.00	1764.76
407.20	1790.51
407.39	1783.49
407.58	1975.41
407.77	1867.75
407.96	1893.49
408.15	1867.75
408.34	1944.99
408.54	1888.81
408.73	1846.68
408.92	1952.01
409.11	2043.29
409.30	2054.99
409.49	1980.09
409.68	1928.60
409.87	2052.65
410.07	2031.58
410.26	2045.63
410.45	1956.69
410.64	2087.76
410.83	2111.16
411.02	2127.55
411.21	2162.66
411.40	2165.00
411.59	2188.40
411.78	2160.31
411.98	2186.06
412.17	2209.47
412.36	2284.36
412.55	2277.34
412.74	2370.96
412.93	2408.41
413.12	2221.17
413.31	2375.64
413.50	2422.45
413.69	2354.58
413.88	2534.80
414.07	2509.05
414.26	2441.18
414.45	2633.10
414.64	2506.71
414.83	2621.40
415.02	2525.44
415.22	2548.84
415.41	2700.98
415.60	2682.25
415.79	2752.47
415.98	2675.23
416.17	2663.53
416.36	2750.13
416.55	2778.22
416.74	2836.73
416.93	2773.53
417.12	2815.66
417.31	2813.32
417.50	2909.29
417.69	2970.14
417.88	2977.16
418.07	2911.63
418.26	3026.31
418.45	2916.31
418.64	3070.78
418.83	3026.31
419.02	3084.83
419.21	3101.21
419.39	3136.32
419.58	3084.83
419.77	3136.32
419.96	3211.22
420.15	3236.96
420.34	3190.15
420.53	3173.77
420.72	3077.80
420.91	3201.85
421.10	3290.79
421.29	3295.47
421.48	3290.79
421.67	3293.13
421.86	3363.35
422.05	3311.86
422.24	3393.78
422.43	3353.99
422.61	3428.88
422.80	3449.95
422.99	3428.88
423.18	3379.73
423.37	3337.60
423.56	3368.03
423.75	3391.44
423.94	3283.77
424.13	3138.66
424.32	3255.69
424.50	3353.99
424.69	3492.08
424.88	3471.01
425.07	3489.74
425.26	3407.82
425.45	3412.50
425.64	3375.05
425.83	3407.82
426.01	3564.64
426.20	3478.04
426.39	3431.23
426.58	3424.20
426.77	3529.53
426.96	3658.26
427.15	3517.83
427.33	3534.21
427.52	3754.22
427.71	3646.55
427.90	3506.12
428.09	3679.32
428.28	3578.68
428.46	3691.02
428.65	3698.05
428.84	3805.71
429.03	3887.63
429.22	3716.77
429.40	3831.46
429.59	3784.65
429.78	3632.51
429.97	3709.75
430.16	3810.39
430.34	3864.22
430.53	3983.59
430.72	4004.66
430.91	3840.82
431.10	3878.27
431.28	3946.14
431.47	4119.34
431.66	4039.76
431.85	4124.02
432.03	4049.13
432.22	4105.30
432.41	3978.91
432.60	4081.89
432.79	4114.66
432.97	4124.02
433.16	4039.76
433.35	4147.43
433.54	4044.45
433.72	4149.77
433.91	4072.53
434.10	4210.62
434.28	4152.11
434.47	4308.93
434.66	4332.33
434.85	4278.50
435.03	4348.72
435.22	4404.89
435.41	4400.21
435.59	4442.34
435.78	4531.28
435.97	4418.93
436.16	4512.55
436.34	4322.97
436.53	4449.36
436.72	4550.00
436.90	4358.08
437.09	4624.90
437.28	4407.23
437.46	4575.75
437.65	4479.79
437.84	4601.49
438.02	4554.68
438.21	4624.90
438.40	4524.26
438.58	4826.18
438.77	4922.15
438.96	4823.84
439.14	4870.65
439.33	4952.57
439.52	4875.34
439.70	4880.02
439.89	4968.96
440.08	4798.10
440.26	4922.15
440.45	5057.90
440.63	5111.73
440.82	5329.40
441.01	5228.76
441.19	5135.14
441.38	5343.44
441.57	5320.04
441.75	5263.86
441.94	5397.28
442.12	5423.02
442.31	5343.44
442.50	5469.83
442.68	5291.95
442.87	5420.68
443.05	5467.49
443.24	5643.03
443.43	5654.73
443.61	5631.33
443.80	5764.74
443.98	5554.09
444.17	5455.79
444.35	5551.75
444.54	5905.17
444.73	5596.22
444.91	5631.33
445.10	5666.44
445.28	5514.30
445.47	5680.48
445.65	5467.49
445.84	5650.05
446.02	5729.63
446.21	5647.71
446.39	5619.63
446.58	5846.66
446.77	5738.99
446.95	5689.84
447.14	5633.67
447.32	5734.31
447.51	5717.93
447.69	5820.91
447.88	5870.06
448.06	5987.09
448.25	5891.13
448.43	5736.65
448.62	5884.11
448.80	5750.70
448.99	5996.45
449.17	5921.56
449.36	5998.79
449.54	5935.60
449.73	6195.40
449.91	6029.22
450.10	6052.63
450.28	6097.10
450.46	6296.04
450.65	6113.48
450.83	6024.54
451.02	6092.41
451.20	6164.97
451.39	6230.51
451.57	6204.76
451.76	6059.65
451.94	6274.98
452.13	6375.62
452.31	6356.90
452.49	6214.12
452.68	6223.48
452.86	6239.87
453.05	6274.98
453.23	6382.64
453.42	6335.83
453.60	6420.09
453.78	6377.96
453.97	6537.12
454.15	6284.34
454.34	6399.02
454.52	6455.20
454.70	6623.72
454.89	6558.18
455.07	6647.12
455.26	6595.63
455.44	6869.47
455.62	6637.76
455.81	6698.61
455.99	6820.32
456.17	6597.97
456.36	6792.23
456.54	6677.55
456.73	6918.62
456.91	7126.93
457.09	6988.84
457.28	7140.97
457.46	7023.95
457.64	6998.20
457.83	7101.19
458.01	7042.67
458.19	7272.04
458.38	7045.01
458.56	7234.60
458.74	7126.93
458.93	7176.08
459.11	7267.36
459.29	7225.23
459.48	7332.90
459.66	7258.00
459.84	7389.07
460.03	7419.50
460.21	7503.76
460.39	7368.01
460.57	7405.46
460.76	7524.82
460.94	7403.11
461.12	7623.12
461.31	7562.27
461.49	7658.23
461.67	7648.87
461.85	7728.45
462.04	7644.19
462.22	8021.02
462.40	7763.56
462.59	7749.51
462.77	7836.11
462.95	7691.00
463.13	7838.45
463.32	7815.05
463.50	7761.22
463.68	7882.92
463.86	7964.84
464.05	7922.71
464.23	7845.48
464.41	8004.63
464.59	8035.06
464.78	8198.90
464.96	8201.24
465.14	7932.08
465.32	7901.65
465.50	8152.09
465.69	8234.00
465.87	8152.09
466.05	8138.04
466.23	8173.15
466.41	8065.49
466.60	8388.48
466.78	8189.53
466.96	8250.39
467.14	8273.79
467.32	8245.71
467.51	8374.44
467.69	8336.99
467.87	8355.71
468.05	8318.26
468.23	8306.56
468.41	8255.07
468.60	8498.49
468.78	8589.77
468.96	8510.19
469.14	8615.51
469.32	8753.60
469.50	8451.67
469.69	8564.02
469.87	8875.31
470.05	8896.38
470.23	8692.75
470.41	8814.46
470.59	9039.15
470.77	8730.20
470.95	8769.99
471.14	9132.77
471.32	8861.27
471.50	8975.95
471.68	9202.99
471.86	9090.64
472.04	9032.13
472.22	9427.68
472.40	9111.71
472.58	9287.25
472.77	9296.61
472.95	9446.40
473.13	9685.14
473.31	9348.10
473.49	9582.15
473.67	9542.36
473.85	9668.75
474.03	9937.91
474.21	9783.44
474.39	9954.30
474.57	9956.64
474.75	9912.17
474.93	10076.01
475.12	9940.26
475.30	10090.05
475.48	9980.04
475.66	10083.03
475.84	10125.16
476.02	10242.18
476.20	10324.10
476.38	10441.13
476.56	10656.46
476.74	10462.19
476.92	10331.12
477.10	10434.11
477.28	10562.84
477.46	10494.96
477.64	10810.93
477.82	11028.60
478.00	11393.73
478.18	11218.19
478.36	11267.34
478.54	11243.93
478.72	11590.33
478.90	11557.57
479.08	11672.25
479.26	11857.15
479.44	11798.64
479.62	11690.98
479.80	11915.67
479.98	12039.72
480.16	12266.75
480.34	12161.42
480.52	12383.77
480.70	12416.54
480.88	12159.08
481.06	12400.16
481.24	12627.19
481.41	12814.43
481.59	12725.49
481.77	12814.43
481.95	12978.27
482.13	13008.70
482.31	12919.76
482.49	13497.87
482.67	13294.24
482.85	13621.92
483.03	13680.43
483.21	13650.00
483.39	13729.58
483.57	13605.53
483.74	14216.41
483.92	14097.05
484.10	13832.57
484.28	14396.64
484.46	14544.09
484.64	14511.32
484.82	14604.94
485.00	14743.03
485.18	14794.53
485.35	15154.97
485.53	15215.82
485.71	15119.86
485.89	15477.96
486.07	15510.73
486.25	15606.69
486.43	15585.63
486.61	15606.69
486.78	15826.70
486.96	15838.41
487.14	16152.04
487.32	16308.85
487.50	16493.76
487.68	16477.37
487.85	16744.19
488.03	16673.98
488.21	16861.22
488.39	16994.63
488.57	17383.16
488.75	17092.93
488.92	17692.11
489.10	17862.97
489.28	17827.86
489.46	17689.77
489.64	17469.76
489.81	18272.56
489.99	18307.67
490.17	18422.36
490.35	18462.15
490.53	18462.15
490.70	19044.94
490.88	18663.43
491.06	18944.30
491.24	18831.95
491.41	19082.39
491.59	19501.34
491.77	19276.65
491.95	19501.34
492.13	19770.51
492.30	19686.25
492.48	19461.55
492.66	19854.76
492.84	19932.00
493.01	20453.94
493.19	20287.76
493.37	20568.63
493.54	20128.61
493.72	20669.27
493.90	20472.67
494.08	20790.98
494.25	21135.04
494.43	21120.99
494.61	21357.39
494.79	21451.01
494.96	21561.02
495.14	21944.86
495.32	21656.98
495.49	21893.37
495.67	21928.48
495.85	21965.93
496.02	22132.11
496.20	22436.38
496.38	22396.59
496.55	22759.37
496.73	23035.55
496.91	22782.77
497.09	22794.48
497.26	23065.98
497.44	22637.66
497.62	23119.81
497.79	23339.82
497.97	23562.17
498.14	23482.59
498.32	24049.00
498.50	23555.15
498.67	24041.98
498.85	23587.92
499.03	24304.12
499.20	23646.43
499.38	24467.96
499.56	24414.13
499.73	24421.15
499.91	24584.99
500.08	25097.56
500.26	24407.11
500.44	24844.79
500.61	24704.35
500.79	24786.27
500.97	24980.54
501.14	25406.52
501.32	25357.36
501.49	25397.15
501.67	25631.21
501.84	25764.62
502.02	25366.73
502.20	25565.67
502.37	25912.07
502.55	25792.70
502.72	25979.95
502.90	25752.91
503.07	25954.20
503.25	26291.24
503.43	26174.21
503.60	26295.92
503.78	26639.98
503.95	26452.73
504.13	26785.09
504.30	26565.08
504.48	26862.33
504.65	27204.05
504.83	27407.67
505.01	27529.38
505.18	27087.02
505.36	27342.14
505.53	27541.08
505.71	27564.49
505.88	27515.34
506.06	27496.61
506.23	27601.94
506.41	27751.73
506.58	27714.28
506.76	27929.61
506.93	28123.88
507.11	27821.95
507.28	28233.88
507.46	28545.17
507.63	28093.45
507.81	28521.77
507.98	28327.50
508.16	28701.99
508.33	28519.43
508.50	28683.27
508.68	28613.05
508.85	28982.85
509.03	28931.36
509.20	29193.50
509.38	29509.47
509.55	29371.38
509.73	29340.96
509.90	29612.46
510.08	29504.79
510.25	29493.09
510.42	29921.41
510.60	30008.01
510.77	30033.75
510.95	30279.51
511.12	30314.62
511.30	29907.37
511.47	30438.67
511.64	30426.96
511.82	30176.53
511.99	30352.07
512.17	30298.23
512.34	30492.50
512.51	31075.29
512.69	30822.51
512.86	30656.34
513.04	30916.14
513.21	31012.10
513.38	31496.59
513.56	31342.11
513.73	31482.55
513.90	31346.79
514.08	31503.61
514.25	31810.22
514.43	31370.20
514.60	32058.32
514.77	31711.92
514.95	31938.95
515.12	31660.43
515.29	31494.25
515.47	31938.95
515.64	32198.75
515.81	31477.86
515.99	32540.47
516.16	32760.48
516.33	32617.71
516.51	32666.86
516.68	32299.39
516.85	32273.65
517.03	32996.87
517.20	32776.86
517.37	32978.15
517.54	32638.77
517.72	32814.31
517.89	32914.95
518.06	33163.05
518.24	33436.89
518.41	32811.97
518.58	32938.36
518.75	33390.08
518.93	33493.07
519.10	33518.81
519.27	33303.48
519.45	33755.21
519.62	33804.36
519.79	33909.68
519.96	33970.54
520.14	33869.89
520.31	33722.44
520.48	34230.33
520.65	34387.15
520.83	34550.99
521.00	34869.30
521.17	34188.21
521.34	34728.87
521.52	34387.15
521.69	34440.98
521.86	34983.99
522.03	34796.74
522.20	34855.26
522.38	35208.68
522.55	35531.67
522.72	35070.59
522.89	34625.89
523.07	35707.21
523.24	34969.94
523.41	35480.18
523.58	35122.08
523.75	35842.96
523.92	35360.81
524.10	36093.40
524.27	35744.66
524.44	35999.78
524.61	36180.00
524.78	35683.81
524.96	36219.79
525.13	36170.64
525.30	36191.70
525.47	36060.63
525.64	36481.93
525.81	36797.90
525.98	36540.44
526.16	36753.43
526.33	36378.95
526.50	36868.12
526.67	36533.42
526.84	36580.23
527.01	36844.71
527.18	36680.88
527.36	37125.58
527.53	37041.32
527.70	37401.76
527.87	37193.45
528.04	36781.52
528.21	37055.36
528.38	37097.49
528.55	37523.47
528.72	37376.01
528.89	37436.87
529.07	37532.83
529.24	37177.07
529.41	37759.86
529.58	37591.34
529.75	37462.61
529.92	37734.12
530.09	37638.15
530.26	37811.35
530.43	37656.88
530.60	37991.58
530.77	37745.82
530.94	38075.84
531.11	38108.60
531.28	38057.11
531.46	37865.19
531.63	38335.63
531.80	38513.52
531.97	38483.09
532.14	38569.69
532.31	38162.43
532.48	38389.47
532.65	39086.95
532.82	38281.80
532.99	38557.99
533.16	38731.18
533.33	38857.57
533.50	39047.16
533.67	38944.17
533.84	38714.80
534.01	38436.28
534.18	38464.36
534.35	39386.54
534.52	39522.29
534.69	39613.57
534.86	39545.69
535.03	39337.38
535.20	39866.34
535.37	39676.76
535.54	39445.05
535.71	39805.49
535.88	39962.31
536.05	39503.56
536.22	39665.06
536.38	39913.16
536.55	39784.43
536.72	39658.04
536.89	40041.88
537.06	40243.17
537.23	40161.25
537.40	39899.11
537.57	39648.68
537.74	40247.85
537.91	40353.18
538.08	40048.91
538.25	40226.79
538.42	40701.92
538.59	40282.96
538.75	40107.42
538.92	40643.40
539.09	41024.91
539.26	40737.02
539.43	40353.18
539.60	40751.07
539.77	40823.62
539.94	40985.12
540.11	40821.28
540.28	41015.55
540.44	40999.16
540.61	40942.99
540.78	40835.33
540.95	40982.78
541.12	41083.42
541.29	40992.14
541.46	41057.68
541.62	41315.14
541.79	41418.12
541.96	40868.09
542.13	40769.79
542.30	41212.15
542.47	41563.23
542.63	41858.14
542.80	41570.25
542.97	41612.38
543.14	42087.51
543.31	41949.42
543.48	41832.39
543.64	42277.10
543.81	42021.98
543.98	41961.12
544.15	42071.13
544.32	42216.24
544.48	42328.59
544.65	42859.89
544.82	42284.12
544.99	42178.79
545.16	42096.88
545.32	42419.87
545.49	42773.29
545.66	42532.22
545.83	42454.98
546.00	43217.99
546.16	42674.99
546.33	43426.30
546.50	42328.59
546.67	43367.79
546.83	42239.65
547.00	42471.36
547.17	42740.52
547.34	43145.44
547.50	43262.46
547.67	43461.41
547.84	42813.08
548.00	43100.97
548.17	43562.05
548.34	43253.10
548.51	43225.01
548.67	43533.96
548.84	42918.40
549.01	43147.78
549.18	43278.85
549.34	43196.93
549.51	43538.65
549.68	43522.26
549.84	43510.56
550.01	43573.75
550.18	43763.34
550.34	43686.10
550.51	43658.01
550.68	44046.54
550.84	43531.62
551.01	44072.29
551.18	43601.84
551.34	43653.33
551.51	43856.96
551.68	43531.62
551.84	43917.81
552.01	43889.73
552.18	44037.18
552.34	43732.91
552.51	43903.77
552.68	44247.83
552.84	44037.18
553.01	44282.94
553.18	44378.90
553.34	44336.77
553.51	43955.26
553.67	44048.88
553.84	44240.81
554.01	44385.92
554.17	44123.78
554.34	44767.43
554.51	44687.85
554.67	44678.49
554.84	44821.26
555.00	44549.76
555.17	44634.02
555.33	44500.61
555.50	44790.83
555.67	44704.23
555.83	44809.56
556.00	44821.26
556.16	45429.80
556.33	45207.45
556.50	44879.77
556.66	44851.69
556.83	44978.07
556.99	45371.28
557.16	44994.46
557.32	45109.14
557.49	45621.72
557.65	45127.87
557.82	45399.37
557.98	45617.04
558.15	45476.61
558.32	45645.13
558.48	45305.75
558.65	45193.40
558.81	45315.11
558.98	45228.51
559.14	45031.91
559.31	45689.60
559.47	45715.34
559.64	45549.17
559.80	45425.12
559.97	45558.53
560.13	45160.64
560.30	45310.43
560.46	45649.81
560.63	45626.40
560.79	45738.75
560.96	46040.68
561.12	45869.82
561.29	46019.61
561.45	46085.15
561.61	45586.61
561.78	45649.81
561.94	45500.01
562.11	45792.58
562.27	45769.18
562.44	45450.86
562.60	45925.99
562.77	45890.88
562.93	45563.21
563.10	46480.70
563.26	46155.36
563.42	46560.28
563.59	45635.77
563.75	45638.11
563.92	45965.78
564.08	46045.36
564.24	45996.21
564.41	45881.52
564.57	46188.13
564.74	46335.59
564.90	46415.16
565.07	46356.65
565.23	46148.34
565.39	46174.09
565.56	46447.93
565.72	46497.08
565.88	46373.03
566.05	46609.43
566.21	46333.24
566.38	46183.45
566.54	46681.98
566.70	46461.97
566.87	46473.68
567.03	46553.26
567.19	46632.83
567.36	46281.75
567.52	46487.72
567.68	46794.33
567.85	46574.32
568.01	46878.59
568.17	46424.53
568.34	46518.15
568.50	46410.48
568.66	46564.96
568.83	46197.49
568.99	46766.24
569.15	46630.49
569.32	46244.30
569.48	46300.48
569.64	46684.33
569.81	46918.38
569.97	46630.49
570.13	47004.98
570.30	46244.30
570.46	46766.24
570.62	46927.74
570.78	46890.29
570.95	46497.08
571.11	46597.73
571.27	46752.20
571.43	46770.93
571.60	46909.02
571.76	46632.83
571.92	46820.08
572.09	46754.54
572.25	46787.31
572.41	46909.02
572.57	46941.78
572.74	47365.42
572.90	46656.24
573.06	47012.00
573.22	47227.33
573.38	47114.98
573.55	46932.42
573.71	47129.03
573.87	46951.15
574.03	47023.70
574.20	47136.05
574.36	47068.17
574.52	47419.25
574.68	46892.63
574.84	47159.45
575.01	47555.00
575.17	47374.78
575.33	47398.19
575.49	47175.84
575.65	47215.63
575.82	47122.01
575.98	46646.88
576.14	47241.37
576.30	47475.43
576.46	47365.42
576.62	47091.58
576.79	47236.69
576.95	47168.82
577.11	47187.54
577.27	47054.13
577.43	47419.25
577.59	47264.78
577.75	47004.98
577.92	46796.67
578.08	47384.15
578.24	47147.75
578.40	47562.03
578.56	47260.10
578.72	47082.22
578.88	47117.32
579.04	46979.23
579.21	46937.10
579.37	47573.73
579.53	47384.15
579.69	47112.64
579.85	47171.16
580.01	47262.44
580.17	46993.28
580.33	47538.62
580.49	47028.38
580.65	47285.84
580.82	46862.21
580.98	47379.46
581.14	47028.38
581.30	47566.71
581.46	47393.51
581.62	47571.39
581.78	47096.26
581.94	47594.79
582.10	46756.88
582.26	47543.30
582.42	47035.41
582.58	47381.80
582.74	47468.40
582.90	47168.82
583.06	47880.34
583.22	47180.52
583.38	47199.24
583.54	47503.51
583.70	47065.83
583.86	47274.14
584.02	47356.06
584.18	47849.91
584.34	47896.72
584.50	47533.94
584.66	47477.77
584.82	47398.19
584.98	47819.49
585.14	47737.57
585.30	47428.62
585.46	47271.80
585.62	47606.50
585.78	47264.78
585.94	47297.55
586.10	47426.28
586.26	47480.11
586.42	47604.16
586.58	47505.85
586.74	47330.31
586.90	47482.45
587.06	47152.43
587.22	47604.16
587.38	47311.59
587.54	47817.14
587.70	47906.08
587.86	47786.72
588.02	47456.70
588.18	47395.85
588.34	47627.56
588.49	47320.95
588.65	47718.84
588.81	47648.63
588.97	47915.45
589.13	47775.02
589.29	48011.41
589.45	48013.75
589.61	47817.14
589.77	47810.12
589.93	47477.77
590.08	47714.16
590.24	47997.37
590.40	47908.43
590.56	47655.65
590.72	48107.37
590.88	47821.83
591.04	47943.53
591.20	48390.58
591.35	48116.73
591.51	48353.13
591.67	47861.61
591.83	48322.70
591.99	48292.27
592.15	47831.19
592.31	48076.94
592.46	48060.56
592.62	47873.32
592.78	48193.97
592.94	48081.63
593.10	48339.08
593.26	48296.95
593.41	47908.43
593.57	48465.47
593.73	48154.18
593.89	48472.49
594.05	48561.44
594.20	48231.42
594.36	48449.09
594.52	48189.29
594.68	48154.18
594.84	47721.18
594.99	48549.73
595.15	48236.10
595.31	48376.53
595.47	48121.41
595.62	48184.61
595.78	48158.86
595.94	48074.60
596.10	48329.72
596.25	48114.39
596.41	48292.27
596.57	48002.05
596.73	48439.73
596.88	47786.72
597.04	48486.54
597.20	48158.86
597.36	48406.96
597.51	48523.99
597.67	48018.43
597.83	48493.56
597.99	48720.59
598.14	47938.85
598.30	48030.13
598.46	48355.47
598.61	48481.86
598.77	48130.78
598.93	48339.08
599.09	48311.00
599.24	48814.21
599.40	48210.35
599.56	48839.96
599.71	48816.55
599.87	48516.96
600.03	48711.23
600.18	48318.02
600.34	48208.01
600.50	48388.24
600.65	48514.62
600.81	48832.94
600.97	48596.54
601.12	48296.95
601.28	48612.93
601.44	48243.12
601.59	48587.18
601.75	48179.93
601.91	48669.10
602.06	48641.01
602.22	48610.59
602.37	48303.98
602.53	48523.99
602.69	48030.13
602.84	48093.33
603.00	47997.37
603.16	48648.03
603.31	48488.88
603.47	48650.38
603.62	48655.06
603.78	48729.95
603.94	48636.33
604.09	48610.59
604.25	48568.46
604.40	48332.06
604.56	48725.27
604.71	48650.38
604.87	48514.62
605.03	48090.99
605.18	48123.75
605.34	48430.36
605.49	48147.16
605.65	48308.66
605.80	48102.69
605.96	47922.47
606.12	47908.43
606.27	48233.76
606.43	48151.84
606.58	48736.98
606.74	48018.43
606.89	48191.63
607.05	48435.05
607.20	48484.20
607.36	48329.72
607.51	48128.44
607.67	48222.06
607.82	48032.47
607.98	48243.12
608.13	48053.54
608.29	48177.59
608.44	48229.08
608.60	47732.89
608.75	48430.36
608.91	48121.41
609.06	47550.32
609.22	48280.57
609.37	48081.63
609.53	48105.03
609.68	48210.35
609.84	47964.60
609.99	47952.90
610.15	48109.71
610.30	48198.65
610.46	48039.50
610.61	48025.45
610.76	48268.87
610.92	47700.12
611.07	48093.33
611.23	48142.48
611.38	47798.42
611.54	47845.23
611.69	48098.01
611.84	48402.28
612.00	48023.11
612.15	48088.65
612.31	47892.04
612.46	47508.19
612.62	47782.04
612.77	47957.58
612.92	47878.00
613.08	48039.50
613.23	47601.82
613.39	47791.40
613.54	47697.78
613.69	48226.74
613.85	47501.17
614.00	47543.30
614.15	48030.13
614.31	47627.56
614.46	47379.46
614.62	47477.77
614.77	47477.77
614.92	47639.26
615.08	47487.13
615.23	47622.88
615.38	47894.38
615.54	47667.35
615.69	47276.48
615.84	47482.45
616.00	47845.23
616.15	47744.59
616.30	47627.56
616.46	47557.35
616.61	47051.79
616.76	47536.28
616.92	47178.18
617.07	47351.38
617.22	47569.05
617.37	47065.83
617.53	47796.08
617.68	47428.62
617.83	47650.97
617.99	47772.67
618.14	47257.76
618.29	47416.91
618.45	46822.42
618.60	47019.02
618.75	47051.79
618.90	47035.41
619.06	47290.52
619.21	47166.48
619.36	47650.97
619.51	47016.68
619.67	47269.46
619.82	46983.91
619.97	47892.04
620.12	47054.13
620.28	46969.87
620.43	47466.06
620.58	47089.24
620.73	47297.55
620.89	47297.55
621.04	47573.73
621.19	46951.15
621.34	46960.51
621.49	46581.34
621.65	47166.48
621.80	46670.28
621.95	47117.32
622.10	47054.13
622.25	46693.69
622.41	46630.49
622.56	46660.92
622.71	46899.65
622.86	46543.89
623.01	47189.88
623.16	46813.05
623.32	46831.78
623.47	46466.66
623.62	46663.26
623.77	46600.07
623.92	46642.20
624.07	46937.10
624.23	46410.48
624.38	46894.97
624.53	46773.27
624.68	46358.99
624.83	46628.15
624.98	46731.14
625.13	46127.28
625.29	46071.10
625.44	46110.89
625.59	46026.63
625.74	46059.40
625.89	46164.73
626.04	46302.82
626.19	46424.53
626.34	45918.97
626.49	45773.86
626.65	45975.14
626.80	46202.18
626.95	45925.99
627.10	45691.94
627.25	46005.57
627.40	45961.10
627.55	46052.38
627.70	45869.82
627.85	46153.02
628.00	46108.55
628.15	45965.78
628.30	45645.13
628.45	45680.24
628.60	45586.61
628.76	45769.18
628.91	45567.89
629.06	45228.51
629.21	45532.78
629.36	45808.96
629.51	45455.54
629.66	45911.95
629.81	45846.41
629.96	45390.01
630.11	45579.59
630.26	45539.80
630.41	45345.54
630.56	45408.73
630.71	45347.88
630.86	45198.09
631.01	45029.57
631.16	45249.58
631.31	45485.97
631.46	45656.83
631.61	45495.33
631.76	45738.75
631.91	45603.00
632.06	45361.92
632.21	45827.69
632.36	46073.45
632.51	44940.63
632.66	45125.53
632.81	45139.57
632.96	45329.16
633.10	45123.19
633.25	45317.45
633.40	44807.22
633.55	45504.70
633.70	45151.27
633.85	45048.29
634.00	44732.32
634.15	44783.81
634.30	45132.55
634.45	44673.81
634.60	44701.89
634.75	44971.05
634.90	44423.37
635.05	45556.19
635.19	44603.59
635.34	44744.02
635.49	45181.70
635.64	44935.95
635.79	44896.16
635.94	44919.56
636.09	45177.02
636.24	44624.65
636.39	44900.84
636.53	44477.20
636.68	44109.74
636.83	44334.43
636.98	44201.02
637.13	43943.56
637.28	44526.35
637.43	44292.30
637.57	44648.06
637.72	44144.84
637.87	44194.00
638.02	44067.61
638.17	44030.16
638.32	44154.21
638.46	43906.11
638.61	43941.22
638.76	44458.48
638.91	43943.56
639.06	44044.20
639.20	43606.52
639.35	43983.35
639.50	43730.57
639.65	43934.20
639.80	44037.18
639.94	44350.81
640.09	44116.76
640.24	44416.35
640.39	43426.30
640.54	43494.18
640.68	43966.96
640.83	44121.44
640.98	43517.58
641.13	43758.66
641.27	43814.83
641.42	44051.22
641.57	43704.82
641.72	43800.79
641.86	43351.40
642.01	43608.86
642.16	43505.88
642.31	42990.96
642.45	43669.72
642.60	42983.94
642.75	43707.16
642.90	43665.03
643.04	43440.34
643.19	43344.38
643.34	43517.58
643.48	42740.52
643.63	43019.05
643.78	43885.04
643.93	43772.70
644.07	43426.30
644.22	43365.45
644.37	42806.06
644.51	43398.21
644.66	42803.72
644.81	43175.86
644.95	43320.98
645.10	43124.37
645.25	42789.67
645.39	42955.85
645.54	43189.91
645.69	42534.56
645.83	42291.14
645.98	42391.78
646.13	42885.64
646.27	42850.53
646.42	42550.94
646.57	42948.83
646.71	43161.82
646.86	42934.79
647.00	43044.79
647.15	42529.87
647.30	42773.29
647.44	43180.54
647.59	42534.56
647.74	42827.12
647.88	42878.61
648.03	42843.51
648.17	43164.16
648.32	42766.27
648.47	43112.67
648.61	42590.73
648.76	42581.37
648.90	42433.91
649.05	42476.04
649.20	42892.66
649.34	42572.00
649.49	42148.37
649.63	42436.25
649.78	42504.13
649.92	42459.66
650.07	43030.75
650.21	42625.84
650.36	42511.15
650.51	42396.46
650.65	42604.77
650.80	42801.38
650.94	42380.08
651.09	42251.35
651.23	42176.45
651.38	41965.81
651.52	41771.54
651.67	41907.29
651.81	42014.96
651.96	41949.42
652.10	41586.64
652.25	41284.71
652.39	41684.94
652.54	41888.57
652.68	41764.52
652.83	41759.84
652.97	42024.32
653.12	41661.54
653.26	41825.37
653.41	41727.07
653.55	41797.29
653.70	41818.35
653.84	42171.77
653.99	41886.23
654.13	41874.52
654.27	41567.91
654.42	41773.88
654.56	41783.24
654.71	41684.94
654.85	41731.75
655.00	41610.04
655.14	41528.13
655.29	41727.07
655.43	41703.67
655.57	41345.56
655.72	41003.85
655.86	41680.26
656.01	41214.49
656.15	41273.01
656.30	41254.28
656.44	41500.04
656.58	41233.22
656.73	41762.18
656.87	41099.81
657.01	40690.21
657.16	40828.30
657.30	41521.10
657.45	40975.76
657.59	40727.66
657.73	40739.36
657.88	40861.07
658.02	41139.60
658.16	41486.00
658.31	40804.90
658.45	40849.37
658.60	40615.32
658.74	40664.47
658.88	40755.75
659.03	40643.40
659.17	40685.53
659.31	40009.12
659.46	40062.95
659.60	40821.28
659.74	40353.18
659.89	39761.02
660.03	40137.85
660.17	40502.97
660.32	39948.26
660.46	40081.67
660.60	39964.65
660.74	39992.73
660.89	40013.80
661.03	39742.30
661.17	39489.52
661.32	39590.16
661.46	39714.21
661.60	39758.68
661.74	39672.08
661.89	39697.83
662.03	39842.94
662.17	39744.64
662.31	39337.38
662.46	39342.06
662.60	39145.46
662.74	39370.15
662.88	39133.76
663.03	39051.84
663.17	39075.24
663.31	38529.90
663.45	39239.08
663.60	39604.20
663.74	39201.63
663.88	39072.90
664.02	38756.93
664.17	39491.86
664.31	38543.94
664.45	38710.12
664.59	38272.44
664.73	38778.00
664.88	38721.82
665.02	38398.83
665.16	38696.08
665.30	38309.89
665.44	38513.52
665.59	38389.47
665.73	38225.63
665.87	37530.49
666.01	38206.90
666.15	37827.74
666.29	38176.48
666.44	38101.58
666.58	38157.75
666.72	37621.77
666.86	37940.08
667.00	37659.22
667.14	38024.34
667.28	37537.51
667.43	37085.79
667.57	37825.40
667.71	37846.46
667.85	37565.60
667.99	37516.45
668.13	37340.91
668.27	37429.85
668.41	37188.77
668.56	36751.09
668.70	36982.80
668.84	36680.88
668.98	36835.35
669.12	36924.29
669.26	36521.72
669.40	36587.25
669.54	37446.23
669.68	36666.83
669.82	36643.43
669.96	36264.26
670.10	35845.30
670.25	36219.79
670.39	36521.72
670.53	36481.93
670.67	36282.98
670.81	36556.83
670.95	36350.86
671.09	36205.75
671.23	35969.35
671.37	36081.70
671.51	35971.69
671.65	35180.59
671.79	35381.88
671.93	35550.40
672.07	35882.75
672.21	35541.03
672.35	34888.03
672.49	35503.59
672.63	35295.28
672.77	34857.60
672.91	35365.49
673.05	35461.46
673.19	35042.50
673.33	34749.93
673.47	34869.30
673.61	34752.27
673.75	34724.19
673.89	34841.21
674.03	34216.29
674.17	34192.89
674.31	34265.44
674.45	34092.24
674.59	34005.64
674.73	34094.58
674.87	33841.81
675.01	34010.32
675.15	33486.04
675.29	33071.77
675.43	33586.69
675.56	33986.92
675.70	33488.38
675.84	33446.26
675.98	32708.99
676.12	33247.31
676.26	33212.20
676.40	32917.29
676.54	32914.95
676.68	32306.41
676.82	32304.07
676.96	32872.82
677.10	32662.18
677.23	32561.53
677.37	32657.49
677.51	32290.03
677.65	32339.18
677.79	31859.37
677.93	32383.65
678.07	32006.83
678.21	32027.89
678.34	31723.62
678.48	31639.36
678.62	31119.76
678.76	31206.36
678.90	31229.77
679.04	31550.42
679.18	31484.89
679.31	31225.09
679.45	30834.22
679.59	30857.62
679.73	30831.88
679.87	30785.07
680.00	30586.12
680.14	30546.33
680.28	30424.62
680.42	30471.43
680.56	30015.03
680.70	29823.11
680.83	30061.84
680.97	29827.79
681.11	30040.78
681.25	30068.86
681.39	29357.34
681.52	29614.80
681.66	29270.74
681.80	29006.26
681.94	28559.22
682.07	29048.39
682.21	28786.25
682.35	28732.42
682.49	29020.30
682.62	28865.83
682.76	28945.41
682.90	28669.22
683.04	28379.00
683.17	28517.09
683.31	28474.96
683.45	28070.04
683.59	27885.14
683.72	27571.51
683.86	27997.49
684.00	27480.23
684.13	27852.38
684.27	27227.45
684.41	27454.48
684.55	27606.62
684.68	27161.92
684.82	27541.08
684.96	26995.74
685.09	27014.46
685.23	27246.18
685.37	27489.59
685.50	27363.20
685.64	26742.96
685.78	26838.92
685.91	26522.95
686.05	26143.78
686.19	25788.02
686.32	26111.02
686.46	25436.94
686.60	25640.57
686.73	25589.08
686.87	25717.81
687.01	25472.05
687.14	25619.50
687.28	25343.32
687.42	25488.43
687.55	25252.04
687.69	25156.08
687.82	24929.05
687.96	24774.57
688.10	25081.18
688.23	25043.73
688.37	25158.42
688.50	25008.62
688.64	24350.93
688.78	24491.37
688.91	24608.39
689.05	24332.21
689.18	24147.31
689.32	23583.24
689.46	23791.55
689.59	23983.47
689.73	23646.43
689.86	24374.34
690.00	23726.01
690.13	23377.27
690.27	23393.65
690.41	23648.77
690.54	23087.04
690.68	23405.36
690.81	22820.22
690.95	23007.47
691.08	22672.77
691.22	22569.79
691.35	22600.21
691.49	22955.97
691.62	22764.05
691.76	22309.99
691.89	21984.65
692.03	21947.20
692.16	21991.67
692.30	22036.14
692.43	21937.84
692.57	21448.67
692.70	21937.84
692.84	21605.49
692.97	21483.78
693.11	21362.07
693.24	21102.27
693.38	21076.52
693.51	20917.37
693.65	21219.30
693.78	21032.05
693.92	20805.02
694.05	20751.19
694.19	20629.48
694.32	20732.47
694.45	20814.38
694.59	20718.42
694.72	20669.27
694.86	20329.89
694.99	20154.35
695.13	20023.28
695.26	19723.69
695.39	19688.59
695.53	19552.84
695.66	19702.63
695.80	19941.36
695.93	19814.98
696.07	19173.67
696.20	19007.49
696.33	19190.05
696.47	18862.38
696.60	19213.46
696.73	18984.09
696.87	19215.80
697.00	18960.68
697.14	18469.17
697.27	18719.60
697.40	18724.29
697.54	18267.88
697.67	18735.99
697.80	18635.35
697.94	18429.38
698.07	18391.93
698.21	18092.34
698.34	18197.67
698.47	17809.14
698.61	17745.94
698.74	17865.31
698.87	17497.84
699.01	17479.12
699.14	17603.17
699.27	17436.99
699.40	17376.14
699.54	17273.15
699.67	17160.81
699.80	17102.29
699.94	17401.88
700.07	16931.44
700.20	16720.79
700.34	16765.26
700.47	16936.12
700.60	16999.31
700.73	16994.63
700.87	16566.31
701.00	16638.87
701.13	16311.19
701.26	16245.66
701.40	16266.72
701.53	15859.47
701.66	15976.50
701.79	15723.72
701.93	15653.50
702.06	15733.08
702.19	15515.41
702.32	15786.91
702.46	15749.46
702.59	15901.60
702.72	15833.72
702.85	15494.35
702.99	15325.83
703.12	15353.91
703.25	15363.28
703.38	14920.92
703.51	14839.00
703.65	14822.61
703.78	14895.17
703.91	14792.19
704.04	14614.30
704.17	14368.55
704.31	14504.30
704.44	14560.47
704.57	14487.92
704.70	14382.59
704.83	14476.21
704.96	14207.05
705.10	14001.08
705.23	14111.09
>>>>>End Processed Spectral Data<<<<<
