SpectraSuite Data File
++++++++++++++++++++++++++++++++++++
Date: Fri Oct 25 10:43:17 EDT 2013
User: price-jones
Dark Spectrum Present: No
Reference Spectrum Present: No
Number of Sampled Component Spectra: 1
Spectrometers: USB2+H05261
Integration Time (usec): 100000 (USB2+H05261)
Spectra Averaged: 1 (USB2+H05261)
Boxcar Smoothing: 0 (USB2+H05261)
Correct for Electrical Dark: No (USB2+H05261)
Strobe/Lamp Enabled: No (USB2+H05261)
Correct for Detector Non-linearity: No (USB2+H05261)
Correct for Stray Light: No (USB2+H05261)
Number of Pixels in Processed Spectrum: 2048
>>>>>Begin Processed Spectral Data<<<<<
365.73	72.56
365.92	72.56
366.12	72.56
366.32	81.92
366.52	51.49
366.72	88.94
366.91	7.02
367.11	37.45
367.31	0.00
367.51	0.00
367.70	11.70
367.90	30.43
368.10	0.00
368.30	67.88
368.49	25.75
368.69	35.11
368.89	58.51
369.09	30.43
369.28	81.92
369.48	65.54
369.68	88.94
369.87	77.24
370.07	91.28
370.27	142.77
370.47	203.63
370.66	351.08
370.86	463.43
371.06	440.02
371.25	500.87
371.45	454.06
371.65	517.26
371.84	531.30
372.04	440.02
372.24	458.74
372.44	489.17
372.63	505.56
372.83	531.30
373.03	425.98
373.22	430.66
373.42	575.77
373.62	535.98
373.81	503.22
374.01	594.50
374.21	554.71
374.40	512.58
374.60	444.70
374.79	596.84
374.99	484.49
375.19	601.52
375.38	585.13
375.58	550.03
375.78	580.45
375.97	613.22
376.17	674.07
376.37	594.50
376.56	587.47
376.76	589.82
376.95	547.69
377.15	629.60
377.35	592.16
377.54	685.78
377.74	664.71
377.93	671.73
378.13	660.03
378.33	695.14
378.52	568.75
378.72	653.01
378.91	662.37
379.11	692.80
379.31	706.84
379.50	657.69
379.70	704.50
379.89	678.76
380.09	620.24
380.28	615.56
380.48	676.41
380.68	641.31
380.87	648.33
381.07	653.01
381.26	753.65
381.46	716.20
381.65	734.93
381.85	669.39
382.04	716.20
382.24	660.03
382.43	685.78
382.63	552.37
382.83	695.14
383.02	774.72
383.22	791.10
383.41	622.58
383.61	734.93
383.80	795.78
384.00	786.42
384.19	774.72
384.39	807.48
384.58	779.40
384.78	767.70
384.97	643.65
385.17	725.57
385.36	812.17
385.56	884.72
385.75	763.01
385.95	840.25
386.14	987.71
386.34	798.12
386.53	908.13
386.72	748.97
386.92	847.27
387.11	884.72
387.31	858.98
387.50	767.70
387.70	882.38
387.89	952.60
388.09	990.05
388.28	863.66
388.48	877.70
388.67	933.87
388.86	910.47
389.06	908.13
389.25	1064.94
389.45	954.94
389.64	901.11
389.84	1001.75
390.03	1032.18
390.22	1048.56
390.42	1048.56
390.61	1022.81
390.81	1011.11
391.00	1041.54
391.19	983.02
391.39	1015.79
391.58	1060.26
391.78	1050.90
391.97	1069.62
392.16	1004.09
392.36	1034.52
392.55	926.85
392.75	976.00
392.94	919.83
393.13	966.64
393.33	1039.20
393.52	1090.69
393.71	1032.18
393.91	1107.07
394.10	1125.80
394.29	1053.24
394.49	1137.50
394.68	1132.82
394.88	1224.10
395.07	1210.06
395.26	1252.19
395.46	1266.23
395.65	1268.57
395.84	1261.55
396.04	1210.06
396.23	1210.06
396.42	1158.57
396.62	1207.72
396.81	1146.86
397.00	1198.35
397.19	1299.00
397.39	1291.98
397.58	1390.28
397.77	1277.93
397.97	1373.89
398.16	1465.18
398.35	1486.24
398.55	1373.89
398.74	1547.09
398.93	1643.06
399.12	1521.35
399.32	1369.21
399.51	1490.92
399.70	1614.97
399.90	1600.93
400.09	1554.12
400.28	1645.40
400.47	1640.72
400.67	1591.56
400.86	1717.95
401.05	1612.63
401.24	1668.80
401.44	1596.25
401.63	1666.46
401.82	1657.10
402.01	1760.08
402.21	1856.04
402.40	1811.57
402.59	1652.42
402.78	1687.53
402.97	1839.66
403.17	1811.57
403.36	1799.87
403.55	1893.49
403.74	1785.83
403.93	1865.41
404.13	1839.66
404.32	1790.51
404.51	1858.39
404.70	2022.22
404.89	1842.00
405.09	2015.20
405.28	1959.03
405.47	1963.71
405.66	1916.90
405.85	1961.37
406.05	2071.37
406.24	2076.06
406.43	2108.82
406.62	2113.50
406.81	2085.42
407.00	1956.69
407.20	2031.58
407.39	2076.06
407.58	2111.16
407.77	2225.85
407.96	2136.91
408.15	2232.87
408.34	2263.30
408.54	2310.11
408.73	2223.51
408.92	2246.91
409.11	2289.04
409.30	2239.89
409.49	2303.09
409.68	2258.62
409.87	2188.40
410.07	2279.68
410.26	2246.91
410.45	2251.60
410.64	2471.61
410.83	2520.76
411.02	2520.76
411.21	2466.92
411.40	2506.71
411.59	2621.40
411.78	2565.23
411.98	2710.34
412.17	2724.38
412.36	2534.80
412.55	2722.04
412.74	2658.85
412.93	2630.76
413.12	2796.94
413.31	2853.11
413.50	2752.47
413.69	2803.96
413.88	2810.98
414.07	2796.94
414.26	2970.14
414.45	2967.80
414.64	2810.98
414.83	2991.20
415.02	3014.61
415.22	3038.02
415.41	3075.46
415.60	3187.81
415.79	3075.46
415.98	3318.88
416.17	3241.64
416.36	3321.22
416.55	3173.77
416.74	3339.94
416.93	3180.79
417.12	3316.54
417.31	3428.88
417.50	3311.86
417.69	3517.83
417.88	3499.10
418.07	3424.20
418.26	3468.67
418.45	3438.25
418.64	3552.93
418.83	3578.68
419.02	3581.02
419.21	3698.05
419.39	3536.55
419.58	3616.13
419.77	3592.72
419.96	3452.29
420.15	3765.92
420.34	3658.26
420.53	3564.64
420.72	3866.56
420.91	3918.06
421.10	3887.63
421.29	3854.86
421.48	3784.65
421.67	3705.07
421.86	3749.54
422.05	3758.90
422.24	3714.43
422.43	3798.69
422.61	3852.52
422.80	3850.18
422.99	3908.69
423.18	3892.31
423.37	3988.27
423.56	3955.51
423.75	3999.98
423.94	3836.14
424.13	3646.55
424.32	3838.48
424.50	4100.62
424.69	4016.36
424.88	3960.19
425.07	4051.47
425.26	3960.19
425.45	3836.14
425.64	3946.14
425.83	4053.81
426.01	4086.58
426.20	3885.29
426.39	3955.51
426.58	3962.53
426.77	3992.95
426.96	3969.55
427.15	4119.34
427.33	3920.40
427.52	4053.81
427.71	4053.81
427.90	4053.81
428.09	4128.70
428.28	4142.75
428.46	4102.96
428.65	4028.06
428.84	4194.24
429.03	4266.80
429.22	3936.78
429.40	4191.90
429.59	4234.03
429.78	3868.91
429.97	3808.05
430.16	3939.12
430.34	4070.19
430.53	4051.47
430.72	4222.33
430.91	4107.64
431.10	4334.67
431.28	4418.93
431.47	4606.17
431.66	4688.09
431.85	4690.43
432.03	4631.92
432.22	4718.52
432.41	4662.35
432.60	4664.69
432.79	4636.60
432.97	4723.20
433.16	4711.50
433.35	4578.09
433.54	4594.47
433.72	4660.01
433.91	4669.37
434.10	4744.27
434.28	4711.50
434.47	4674.05
434.66	4926.83
434.85	4947.89
435.03	4945.55
435.22	4868.31
435.41	5191.31
435.59	4938.53
435.78	5163.22
435.97	5142.16
436.16	5102.37
436.34	5114.07
436.53	5053.22
436.72	5198.33
436.90	5022.79
437.09	5214.71
437.28	5111.73
437.46	5135.14
437.65	5104.71
437.84	5107.05
438.02	5275.57
438.21	5036.83
438.40	5013.43
438.58	5238.12
438.77	5343.44
438.96	5413.66
439.14	5432.38
439.33	5535.37
439.52	5483.88
439.70	5584.52
439.89	5612.60
440.08	5617.29
440.26	5778.78
440.45	5687.50
440.63	5849.00
440.82	5790.49
441.01	5996.45
441.19	6052.63
441.38	6059.65
441.57	6171.99
441.75	6125.18
441.94	6118.16
442.12	6218.80
442.31	6258.59
442.50	6244.55
442.68	6370.94
442.87	6232.85
443.05	6359.24
443.24	6413.07
443.43	6448.18
443.61	6483.28
443.80	6581.59
443.98	6293.70
444.17	6122.84
444.35	6417.75
444.54	6665.85
444.73	6502.01
444.91	6469.24
445.10	6534.78
445.28	6494.99
445.47	6314.77
445.65	6389.66
445.84	6455.20
446.02	6532.44
446.21	6520.73
446.39	6548.82
446.58	6569.88
446.77	6576.91
446.95	6597.97
447.14	6693.93
447.32	6710.32
447.51	6736.06
447.69	6476.26
447.88	6644.78
448.06	6918.62
448.25	6530.09
448.43	6665.85
448.62	6703.29
448.80	6661.16
448.99	6722.02
449.17	6787.55
449.36	6937.35
449.54	7026.29
449.73	7246.30
449.91	7138.63
450.10	6979.48
450.28	7159.70
450.46	7171.40
450.65	7126.93
450.83	7286.09
451.02	7014.59
451.20	7283.75
451.39	7164.38
451.57	7145.66
451.76	7178.42
451.94	7389.07
452.13	7194.81
452.31	7098.84
452.49	6998.20
452.68	7267.36
452.86	7110.55
453.05	7330.56
453.23	7279.07
453.42	7286.09
453.60	7393.75
453.78	7520.14
453.97	7293.11
454.15	7396.09
454.34	7295.45
454.52	7613.76
454.70	7562.27
454.89	7522.48
455.07	7620.78
455.26	7583.34
455.44	7716.75
455.62	7714.41
455.81	7463.97
455.99	7840.79
456.17	7630.15
456.36	7786.96
456.54	8037.40
456.73	7873.56
456.91	7950.80
457.09	8058.46
457.28	8182.51
457.46	8049.10
457.64	8088.89
457.83	7903.99
458.01	7831.43
458.19	8351.03
458.38	7983.57
458.56	8327.63
458.74	8278.47
458.93	8299.54
459.11	8234.00
459.29	8170.81
459.48	8304.22
459.66	8468.06
459.84	8280.82
460.03	8500.83
460.21	8411.89
460.39	8407.20
460.57	8557.00
460.76	8416.57
460.94	8603.81
461.12	8505.51
461.31	8528.91
461.49	8798.07
461.67	8671.68
461.85	8833.18
462.04	8479.76
462.22	9130.43
462.40	8814.46
462.59	8772.33
462.77	8585.08
462.95	8908.08
463.13	8791.05
463.32	8830.84
463.50	9083.62
463.68	9036.81
463.86	8809.78
464.05	8767.65
464.23	8798.07
464.41	8947.87
464.59	8905.74
464.78	9259.16
464.96	8961.91
465.14	9245.12
465.32	9289.59
465.50	9312.99
465.69	9231.07
465.87	9226.39
466.05	9202.99
466.23	8987.66
466.41	8877.65
466.60	9268.52
466.78	9289.59
466.96	9303.63
467.14	9350.44
467.32	9228.73
467.51	9465.13
467.69	9224.05
467.87	9376.19
468.05	9521.30
468.23	9523.64
468.41	9357.46
468.60	9516.62
468.78	9540.02
468.96	9582.15
469.14	9767.06
469.32	9696.84
469.50	9493.21
469.69	9472.15
469.87	9863.02
470.05	9916.85
470.23	9907.49
470.41	9928.55
470.59	9963.66
470.77	9856.00
470.95	9919.19
471.14	10054.94
471.32	10029.20
471.50	10410.70
471.68	10422.41
471.86	10345.17
472.04	10253.89
472.22	10452.83
472.40	10153.24
472.58	10291.34
472.77	10415.38
472.95	10642.42
473.13	10778.17
473.31	10249.21
473.49	10324.10
473.67	10494.96
473.85	10642.42
474.03	10986.47
474.21	10897.53
474.39	10934.98
474.57	10998.18
474.75	11372.66
474.93	11335.21
475.12	11185.42
475.30	11367.98
475.48	11206.48
475.66	11112.86
475.84	11110.52
476.02	11140.95
476.20	11370.32
476.38	11693.32
476.56	11667.57
476.74	11562.25
476.92	11681.61
477.10	11838.43
477.28	12107.59
477.46	11950.78
477.64	11995.25
477.82	12163.76
478.00	12395.48
478.18	12362.71
478.36	12491.44
478.54	12837.84
478.72	12503.14
478.90	12760.60
479.08	12985.29
479.26	13317.65
479.44	13022.74
479.62	13277.86
479.80	13334.03
479.98	13315.31
480.16	13914.48
480.34	13315.31
480.52	13675.75
480.70	13664.05
480.88	13589.15
481.06	14115.77
481.24	13900.44
481.41	14181.31
481.59	14398.98
481.77	14303.01
481.95	14473.87
482.13	14728.99
482.31	14595.58
482.49	14621.33
482.67	14771.12
482.85	15026.24
483.03	14977.09
483.21	15426.47
483.39	15372.64
483.57	15529.45
483.74	15161.99
483.92	15449.88
484.10	15332.85
484.28	15882.88
484.46	16245.66
484.64	16044.37
484.82	15932.03
485.00	15873.51
485.18	16358.00
485.35	16472.69
485.53	16156.72
485.71	16238.64
485.89	16374.39
486.07	16498.44
486.25	16573.33
486.43	16732.49
486.61	16917.39
486.78	17050.80
486.96	17378.48
487.14	17481.46
487.32	17642.96
487.50	17832.54
487.68	18036.17
487.85	18298.31
488.03	18478.53
488.21	18445.76
488.39	18246.82
488.57	18712.58
488.75	18827.27
488.92	18829.61
489.10	18834.29
489.28	19288.35
489.46	19597.31
489.64	19648.80
489.81	19943.70
489.99	19889.87
490.17	20168.40
490.35	20353.30
490.53	20177.76
490.70	20269.04
490.88	20334.57
491.06	20685.65
491.24	20608.42
491.41	20592.03
491.59	20795.66
491.77	20755.87
491.95	21027.37
492.13	21055.46
492.30	21509.52
492.48	21649.96
492.66	21727.19
492.84	21612.51
493.01	21998.70
493.19	22132.11
493.37	22188.28
493.54	21947.20
493.72	22319.35
493.90	22583.83
494.08	22539.36
494.25	23246.20
494.43	23168.96
494.61	23442.81
494.79	23351.52
494.96	23330.46
495.14	23288.33
495.32	23800.91
495.49	23616.01
495.67	23953.04
495.85	23924.96
496.02	23983.47
496.20	24341.57
496.38	24041.98
496.55	24542.86
496.73	24683.29
496.91	24547.54
497.09	24907.98
497.26	24769.89
497.44	24690.31
497.62	25223.95
497.79	25324.60
497.97	25364.39
498.14	25209.91
498.32	25366.73
498.50	25509.50
498.67	26057.18
498.85	26061.87
499.03	26202.30
499.20	26094.63
499.38	25926.11
499.56	26089.95
499.73	26405.92
499.91	26384.86
500.08	26316.98
500.26	26302.94
500.44	26536.99
500.61	26759.34
500.79	26492.52
500.97	26752.32
501.14	27070.64
501.32	27080.00
501.49	27332.78
501.67	26979.36
501.84	27178.30
502.02	27283.62
502.20	27405.33
502.37	27435.76
502.55	27459.16
502.72	27740.03
502.90	28039.62
503.07	27906.21
503.25	28079.41
503.43	27782.16
503.60	27920.25
503.78	28060.68
503.95	27953.02
504.13	28430.49
504.30	28360.27
504.48	28437.51
504.65	28790.93
504.83	28863.49
505.01	29074.13
505.18	28868.17
505.36	29413.51
505.53	29303.51
505.71	29474.37
505.88	29872.26
506.06	29209.89
506.23	29785.66
506.41	29539.90
506.58	29399.47
506.76	29570.33
506.93	29553.94
507.11	30066.52
507.28	29916.73
507.46	29673.31
507.63	29776.30
507.81	30335.68
507.98	29942.47
508.16	29979.92
508.33	30181.21
508.50	30747.62
508.68	30677.40
508.85	30749.96
509.03	31068.27
509.20	31222.75
509.38	31311.69
509.55	31131.47
509.73	31255.51
509.90	31342.11
510.08	31323.39
510.25	31218.07
510.42	31365.52
510.60	31419.35
510.77	31871.07
510.95	31908.52
511.12	31651.06
511.30	31936.61
511.47	32121.51
511.64	32304.07
511.82	32261.94
511.99	31948.31
512.17	32037.25
512.34	32329.82
512.51	32334.50
512.69	32060.66
512.86	32517.06
513.04	33149.01
513.21	32671.54
513.38	32947.72
513.56	32790.91
513.73	32631.75
513.90	32919.63
514.08	32811.97
514.25	33149.01
514.43	33013.26
514.60	32762.82
514.77	33053.05
514.95	33167.73
515.12	33869.89
515.29	33383.06
515.47	33610.09
515.64	33656.90
515.81	33251.99
515.99	33493.07
516.16	33612.43
516.33	33277.74
516.51	33352.63
516.68	33331.57
516.85	32779.20
517.03	33102.20
517.20	33874.57
517.37	33963.51
517.54	34511.20
517.72	34085.22
517.89	33851.17
518.06	33778.61
518.24	34047.77
518.41	33802.02
518.58	34466.73
518.75	34499.50
518.93	34230.33
519.10	34600.14
519.27	34534.60
519.45	35201.66
519.62	35180.59
519.79	35058.88
519.96	35246.13
520.14	35171.23
520.31	35290.60
520.48	35187.61
520.65	35332.73
520.83	35721.26
521.00	35695.51
521.17	35536.35
521.34	35805.52
521.52	35962.33
521.69	35969.35
521.86	35821.90
522.03	36383.63
522.20	36390.65
522.38	36245.54
522.55	36596.62
522.72	36325.11
522.89	36095.74
523.07	36369.58
523.24	36346.18
523.41	36858.76
523.58	36617.68
523.75	37141.96
523.92	36835.35
524.10	37277.71
524.27	36914.93
524.44	37319.84
524.61	36811.95
524.78	36999.19
524.96	36985.15
525.13	37055.36
525.30	37256.65
525.47	37289.42
525.64	37684.97
525.81	37228.56
525.98	37336.23
526.16	37237.92
526.33	37184.09
526.50	37450.91
526.67	36624.70
526.84	37029.62
527.01	37069.40
527.18	37577.30
527.36	37769.22
527.53	37783.27
527.70	38019.66
527.87	38068.81
528.04	38103.92
528.21	38204.56
528.38	38134.35
528.55	38724.16
528.72	38501.81
528.89	38569.69
529.07	38700.76
529.24	38452.66
529.41	38827.15
529.58	38473.73
529.75	38778.00
529.92	38850.55
530.09	39178.23
530.26	38876.30
530.43	39030.77
530.60	38651.61
530.77	39143.12
530.94	39124.40
531.11	39009.71
531.28	39398.24
531.46	38990.98
531.63	39381.85
531.80	38962.90
531.97	39395.90
532.14	39283.55
532.31	39126.74
532.48	39136.10
532.65	39566.76
532.82	39648.68
532.99	39529.31
533.16	39283.55
533.33	39629.95
533.50	39751.66
533.67	39943.58
533.84	39325.68
534.01	40112.10
534.18	39166.52
534.35	40268.92
534.52	39990.39
534.69	40037.20
534.86	39903.79
535.03	40168.27
535.20	40388.28
535.37	40655.11
535.54	40807.24
535.71	40727.66
535.88	40580.21
536.05	40264.24
536.22	40364.88
536.38	40648.08
536.55	40498.29
536.72	40112.10
536.89	40311.05
537.06	40409.35
537.23	41130.23
537.40	40954.69
537.57	40935.97
537.74	40627.02
537.91	41010.87
538.08	40999.16
538.25	40868.09
538.42	40697.24
538.59	41144.28
538.75	40935.97
538.92	41088.10
539.09	41177.04
539.26	41455.57
539.43	41134.92
539.60	41387.69
539.77	41383.01
539.94	41134.92
540.11	40769.79
540.28	41511.74
540.44	40982.78
540.61	41158.32
540.78	41631.11
540.95	41570.25
541.12	41258.96
541.29	41680.26
541.46	41453.23
541.62	41338.54
541.79	41926.02
541.96	41387.69
542.13	41448.55
542.30	41984.53
542.47	41502.38
542.63	41188.75
542.80	41947.08
542.97	41930.70
543.14	42263.05
543.31	42047.72
543.48	42204.54
543.64	42410.51
543.81	42550.94
543.98	42560.30
544.15	42267.73
544.32	42597.75
544.48	43077.56
544.65	42677.33
544.82	42483.06
544.99	42342.63
545.16	42611.79
545.32	42265.39
545.49	42913.72
545.66	42817.76
545.83	43370.13
546.00	42604.77
546.16	43119.69
546.33	43100.97
546.50	42426.89
546.67	42869.25
546.83	42756.91
547.00	42401.14
547.17	42878.61
547.34	43026.07
547.50	42939.47
547.67	43557.37
547.84	43213.31
548.00	43388.85
548.17	43356.08
548.34	43601.84
548.51	43768.02
548.67	43543.33
548.84	43487.15
549.01	43386.51
549.18	43110.33
549.34	43459.07
549.51	43737.59
549.68	43662.69
549.84	43948.24
550.01	43831.21
550.18	43672.06
550.34	44025.48
550.51	43192.25
550.68	43798.44
550.84	42834.14
551.01	43707.16
551.18	43791.42
551.34	43611.20
551.51	43871.00
551.68	43812.49
551.84	43770.36
552.01	43969.30
552.18	43894.41
552.34	43704.82
552.51	44201.02
552.68	43913.13
552.84	44095.69
553.01	44020.80
553.18	44313.36
553.34	44446.77
553.51	44339.11
553.67	44561.46
553.84	44809.56
554.01	44615.29
554.17	44617.63
554.34	44215.06
554.51	44610.61
554.67	44575.50
554.84	44488.90
555.00	44072.29
555.17	44470.18
555.33	44996.80
555.50	44409.32
555.67	44715.93
555.83	44570.82
556.00	44519.33
556.16	44392.94
556.33	44430.39
556.50	44669.12
556.66	44137.82
556.83	44282.94
556.99	44350.81
557.16	44591.89
557.32	44594.23
557.49	44701.89
557.65	44865.73
557.82	44828.28
557.98	45104.46
558.15	44964.03
558.32	44978.07
558.48	44392.94
558.65	44802.53
558.81	44612.95
558.98	44659.76
559.14	44942.97
559.31	44484.22
559.47	44823.60
559.64	44758.06
559.80	45088.08
559.97	44938.29
560.13	44849.35
560.30	44896.16
560.46	45158.30
560.63	45104.46
560.79	45429.80
560.96	45064.67
561.12	44807.22
561.29	45022.54
561.45	44734.66
561.61	45151.27
561.78	44882.11
561.94	45265.96
562.11	45134.89
562.27	45155.96
562.44	45242.56
562.60	45247.24
562.77	44964.03
562.93	45258.94
563.10	45436.82
563.26	45069.36
563.42	45897.91
563.59	45074.04
563.75	45478.95
563.92	45977.48
564.08	45123.19
564.24	45530.44
564.41	45439.16
564.57	45563.21
564.74	45535.12
564.90	45099.78
565.07	45776.20
565.23	45280.00
565.39	45343.20
565.56	45532.78
565.72	45649.81
565.88	45420.44
566.05	45158.30
566.21	45055.31
566.38	45048.29
566.54	45387.67
566.70	45911.95
566.87	45991.53
567.03	45698.96
567.19	45907.27
567.36	45811.31
567.52	45888.54
567.68	45525.76
567.85	45352.56
568.01	45420.44
568.17	45535.12
568.34	45661.51
568.50	45368.94
568.66	45633.42
568.83	45338.52
568.99	45413.41
569.15	45528.10
569.32	45490.65
569.48	45104.46
569.64	45895.56
569.81	45745.77
569.97	45696.62
570.13	45670.87
570.30	45221.49
570.46	45333.84
570.62	45242.56
570.78	45219.15
570.95	45127.87
571.11	45771.52
571.27	45446.18
571.43	45542.14
571.60	45514.06
571.76	45399.37
571.92	45764.49
572.09	45860.46
572.25	45956.42
572.41	45813.65
572.57	45792.58
572.74	45902.59
572.90	45752.79
573.06	46103.87
573.22	45956.42
573.38	45588.95
573.55	45560.87
573.71	45724.71
573.87	45631.08
574.03	45059.99
574.20	45675.55
574.36	45530.44
574.52	45713.00
574.68	45811.31
574.84	45727.05
575.01	45862.80
575.17	45514.06
575.33	45642.79
575.49	45825.35
575.65	46127.28
575.82	45638.11
575.98	45925.99
576.14	45738.75
576.30	45879.18
576.46	45694.28
576.62	45989.19
576.79	45617.04
576.95	45694.28
577.11	45219.15
577.27	45799.60
577.43	45551.51
577.59	45343.20
577.75	45780.88
577.92	45298.73
578.08	45607.68
578.24	45872.16
578.40	45610.02
578.56	46071.10
578.72	45591.30
578.88	45668.53
579.04	45420.44
579.21	45549.17
579.37	45542.14
579.53	45785.56
579.69	45694.28
579.85	45652.15
580.01	45380.65
580.17	45832.37
580.33	45993.87
580.49	46073.45
580.65	45677.90
580.82	45682.58
580.98	45516.40
581.14	45511.72
581.30	46127.28
581.46	45663.85
581.62	46106.21
581.78	46120.26
581.94	45818.33
582.10	46075.79
582.26	46307.50
582.42	45907.27
582.58	46150.68
582.74	45567.89
582.90	45581.93
583.06	46153.02
583.22	45968.12
583.38	46103.87
583.54	45970.46
583.70	46260.69
583.86	46279.41
584.02	45492.99
584.18	46003.23
584.34	46068.76
584.50	45984.51
584.66	45801.94
584.82	45750.45
584.98	45736.41
585.14	45876.84
585.30	45390.01
585.46	45776.20
585.62	45382.99
585.78	45787.90
585.94	45539.80
586.10	45837.05
586.26	45792.58
586.42	46066.42
586.58	46094.51
586.74	45865.14
586.90	45958.76
587.06	45998.55
587.22	46066.42
587.38	45766.84
587.54	46043.02
587.70	46391.76
587.86	46106.21
588.02	45525.76
588.18	45801.94
588.34	45443.84
588.49	45490.65
588.65	45350.22
588.81	45549.17
588.97	45242.56
589.13	45296.39
589.29	45366.60
589.45	45155.96
589.61	45844.07
589.77	46344.95
589.93	45806.62
590.08	45759.81
590.24	45848.75
590.40	46354.31
590.56	46089.83
590.72	46085.15
590.88	45682.58
591.04	46059.40
591.20	46391.76
591.35	46321.54
591.51	46230.26
591.67	46174.09
591.83	45411.07
591.99	45633.42
592.15	45670.87
592.31	46089.83
592.46	45815.99
592.62	45776.20
592.78	45961.10
592.94	46174.09
593.10	46075.79
593.26	46274.73
593.41	46281.75
593.57	45855.78
593.73	45638.11
593.89	46085.15
594.05	46092.17
594.20	45968.12
594.36	46115.58
594.52	46066.42
594.68	45815.99
594.84	45624.06
594.99	45837.05
595.15	46136.64
595.31	46326.22
595.47	45867.48
595.62	46218.56
595.78	46012.59
595.94	46209.20
596.10	46405.80
596.25	46117.92
596.41	46115.58
596.57	45944.72
596.73	46092.17
596.88	46141.32
597.04	45677.90
597.20	45972.80
597.36	46096.85
597.51	46408.14
597.67	45832.37
597.83	45736.41
597.99	46480.70
598.14	45970.46
598.30	45881.52
598.46	46021.95
598.61	46422.19
598.77	45876.84
598.93	45921.31
599.09	46000.89
599.24	46333.24
599.40	46176.43
599.56	46382.40
599.71	45801.94
599.87	46508.79
600.03	46326.22
600.18	45977.48
600.34	45907.27
600.50	46157.70
600.65	45879.18
600.81	45944.72
600.97	46274.73
601.12	46405.80
601.28	45965.78
601.44	45514.06
601.59	45998.55
601.75	45736.41
601.91	45897.91
602.06	45577.25
602.22	46279.41
602.37	46391.76
602.53	46501.76
602.69	46192.81
602.84	46241.96
603.00	46005.57
603.16	45970.46
603.31	45785.56
603.47	45631.08
603.62	45675.55
603.78	46122.60
603.94	46026.63
604.09	46024.29
604.25	46047.70
604.40	46050.04
604.56	46450.27
604.71	46295.80
604.87	46302.82
605.03	46120.26
605.18	45832.37
605.34	46057.06
605.49	45867.48
605.65	46293.46
605.80	45858.12
605.96	45937.69
606.12	45780.88
606.27	46256.01
606.43	45844.07
606.58	46019.61
606.74	46028.98
606.89	45553.85
607.05	45591.30
607.20	45776.20
607.36	46155.36
607.51	46007.91
607.67	45497.67
607.82	45612.36
607.98	45698.96
608.13	45890.88
608.29	45762.15
608.44	45645.13
608.60	45633.42
608.75	45942.38
608.91	45565.55
609.06	45542.14
609.22	45759.81
609.37	44788.49
609.53	45771.52
609.68	45834.71
609.84	45563.21
609.99	45453.20
610.15	45158.30
610.30	45411.07
610.46	45418.10
610.61	45591.30
610.76	45373.63
610.92	45600.66
611.07	45390.01
611.23	45343.20
611.38	45687.26
611.54	45441.50
611.69	45539.80
611.84	45069.36
612.00	45305.75
612.15	45106.80
612.31	45518.74
612.46	44706.57
612.62	45333.84
612.77	45455.54
612.92	45441.50
613.08	45113.83
613.23	45141.91
613.39	44725.30
613.54	44575.50
613.69	44811.90
613.85	44877.43
614.00	45109.14
614.15	44708.91
614.31	44804.88
614.46	45081.06
614.62	45146.59
614.77	44587.21
614.92	44598.91
615.08	44692.53
615.23	45038.93
615.38	44528.69
615.54	44456.14
615.69	44381.24
615.84	44385.92
616.00	44505.29
616.15	44428.05
616.30	44835.30
616.46	44790.83
616.61	44465.50
616.76	44388.26
616.92	44158.89
617.07	44315.70
617.22	44432.73
617.37	44474.86
617.53	44142.50
617.68	44472.52
617.83	44472.52
617.99	44439.75
618.14	43924.83
618.29	44343.79
618.45	44158.89
618.60	44067.61
618.75	44091.01
618.90	43636.95
619.06	44044.20
619.21	43917.81
619.36	44238.47
619.51	43871.00
619.67	44018.46
619.82	43948.24
619.97	44095.69
620.12	43969.30
620.28	43320.98
620.43	43487.15
620.58	43990.37
620.73	43866.32
620.89	43866.32
621.04	43536.30
621.19	43821.85
621.34	44046.54
621.49	43428.64
621.65	43964.62
621.80	44074.63
621.95	43430.98
622.10	43791.42
622.25	44194.00
622.41	43632.27
622.56	43482.47
622.71	43959.94
622.86	43292.89
623.01	43061.18
623.16	43517.58
623.32	43178.20
623.47	43217.99
623.62	43667.37
623.77	42883.30
623.92	43447.36
624.07	43100.97
624.23	43084.58
624.38	43735.25
624.53	42728.82
624.68	43229.69
624.83	43152.46
624.98	43428.64
625.13	42820.10
625.29	43210.97
625.44	43234.38
625.59	42595.41
625.74	42777.97
625.89	42930.11
626.04	42756.91
626.19	42852.87
626.34	43145.44
626.49	43171.18
626.65	42691.37
626.80	43075.22
626.95	42724.14
627.10	42667.97
627.25	42555.62
627.40	42803.72
627.55	42731.16
627.70	42548.60
627.85	42412.85
628.00	42569.66
628.15	42344.97
628.30	42471.36
628.45	42567.32
628.60	42188.16
628.76	42398.80
628.91	42485.40
629.06	41977.51
629.21	42337.95
629.36	42007.94
629.51	42333.27
629.66	42178.79
629.81	41759.84
629.96	42169.43
630.11	41984.53
630.26	42527.53
630.41	42124.96
630.56	42096.88
630.71	41979.85
630.86	42052.41
631.01	41944.74
631.16	41923.68
631.31	41841.76
631.46	41542.17
631.61	41984.53
631.76	41930.70
631.91	42033.68
632.06	42314.55
632.21	41872.18
632.36	41560.89
632.51	41514.08
632.66	41607.70
632.81	41359.61
632.96	41916.65
633.10	41654.51
633.25	41825.37
633.40	41343.22
633.55	41605.36
633.70	41598.34
633.85	41572.60
634.00	41404.08
634.15	41701.32
634.30	41476.63
634.45	41324.50
634.60	41221.52
634.75	41284.71
634.90	40968.74
635.05	41228.54
635.19	40711.28
635.34	41640.47
635.49	41546.85
635.64	40910.22
635.79	41254.28
635.94	40711.28
636.09	41502.38
636.24	40952.35
636.39	40512.33
636.53	40685.53
636.68	40666.81
636.83	40760.43
636.98	41083.42
637.13	41041.29
637.28	41394.71
637.43	41319.82
637.57	40783.83
637.72	40849.37
637.87	41160.66
638.02	40858.73
638.17	41170.02
638.32	40788.52
638.46	40605.95
638.61	40463.18
638.76	40823.62
638.91	40722.98
639.06	40751.07
639.20	40680.85
639.35	40732.34
639.50	40917.25
639.65	40715.96
639.80	40587.23
639.94	40383.60
640.09	40545.10
640.24	40713.62
640.39	39754.00
640.54	40154.23
640.68	40273.60
640.83	39817.19
640.98	40151.89
641.13	39756.34
641.27	40341.47
641.42	40278.28
641.57	40109.76
641.72	40360.20
641.86	39840.60
642.01	39512.92
642.16	40058.27
642.31	39866.34
642.45	39756.34
642.60	39487.18
642.75	39728.25
642.90	39962.31
643.04	39948.26
643.19	40278.28
643.34	39887.41
643.48	39824.22
643.63	39625.27
643.78	39517.60
643.93	39416.96
644.07	39395.90
644.22	39295.25
644.37	39608.89
644.51	39548.03
644.66	39772.72
644.81	39585.48
644.95	39573.78
645.10	39108.01
645.25	39316.32
645.39	39438.03
645.54	39489.52
645.69	39229.72
645.83	39044.82
645.98	38834.17
646.13	39159.50
646.27	39194.61
646.42	38710.12
646.57	39393.56
646.71	39489.52
646.86	39676.76
647.00	39002.69
647.15	39115.03
647.30	39225.04
647.44	38707.78
647.59	38913.75
647.74	38333.29
647.88	38880.98
648.03	39056.52
648.17	38752.25
648.32	38803.74
648.47	38845.87
648.61	38408.19
648.76	39171.21
648.90	39100.99
649.05	38789.70
649.20	38822.47
649.34	38548.62
649.49	38244.35
649.63	38525.22
649.78	38618.84
649.92	38663.31
650.07	38525.22
650.21	38506.49
650.36	38050.09
650.51	38616.50
650.65	38834.17
650.80	39070.56
650.94	38752.25
651.09	38497.13
651.23	38267.76
651.38	38480.75
651.52	38225.63
651.67	37940.08
651.81	38000.94
651.96	38134.35
652.10	37933.06
652.25	38223.29
652.39	38354.36
652.54	38258.40
652.68	38213.93
652.83	38234.99
652.97	38567.35
653.12	38132.01
653.26	37586.66
653.41	38232.65
653.55	38132.01
653.70	37773.91
653.84	38141.37
653.99	37598.37
654.13	37813.70
654.27	37745.82
654.42	38047.75
654.56	38085.20
654.71	37787.95
654.85	37584.32
655.00	37677.94
655.14	37139.62
655.29	37205.16
655.43	37013.23
655.57	36910.25
655.72	37312.82
655.86	36723.01
656.01	36999.19
656.15	36767.48
656.30	37095.15
656.44	37151.32
656.58	37268.35
656.73	37191.11
656.87	37104.51
657.01	36999.19
657.16	36837.69
657.30	36732.37
657.45	36727.69
657.59	37081.11
657.73	36928.97
657.88	37170.05
658.02	37062.38
658.16	37249.63
658.31	36961.74
658.45	37242.60
658.60	36854.08
658.74	37097.49
658.88	36917.27
659.03	36638.75
659.17	36521.72
659.31	36201.07
659.46	36493.63
659.60	36727.69
659.74	36364.90
659.89	36250.22
660.03	36430.44
660.17	36744.07
660.32	36715.98
660.46	36701.94
660.60	36011.48
660.74	36180.00
660.89	36369.58
661.03	35833.60
661.17	36149.57
661.32	35770.41
661.46	35629.98
661.60	35861.69
661.74	36105.10
661.89	36114.47
662.03	36144.89
662.17	35983.40
662.31	35941.27
662.46	36121.49
662.60	35873.39
662.74	36273.62
662.88	35250.81
663.03	35526.99
663.17	35658.06
663.31	35337.41
663.45	35562.10
663.60	35075.27
663.74	34988.67
663.88	35388.90
664.02	35552.74
664.17	35157.19
664.31	35213.36
664.45	34801.43
664.59	34913.77
664.73	35386.56
664.88	34782.70
665.02	34473.75
665.16	34747.59
665.30	34029.05
665.44	34232.68
665.59	34242.04
665.73	34700.78
665.87	34286.51
666.01	34445.66
666.15	34300.55
666.29	34312.25
666.44	34452.69
666.58	34366.09
666.72	34237.36
666.86	34419.92
667.00	34218.63
667.14	34064.16
667.28	33965.85
667.43	33823.08
667.57	33949.47
667.71	33851.17
667.85	33848.83
667.99	34239.70
668.13	34167.14
668.27	33694.35
668.41	34000.96
668.56	33560.94
668.70	33289.44
668.84	33191.14
668.98	33490.73
669.12	33507.11
669.26	33731.80
669.40	33127.94
669.54	32940.70
669.68	33277.74
669.82	32329.82
669.96	32917.29
670.10	32905.59
670.25	32641.11
670.39	32898.57
670.53	32535.79
670.67	32217.47
670.81	32828.35
670.95	32175.34
671.09	32559.19
671.23	32304.07
671.37	32554.51
671.51	32091.09
671.65	32371.95
671.79	31945.97
671.93	31892.14
672.07	31971.72
672.21	31878.10
672.35	32173.00
672.49	31887.46
672.63	31915.54
672.77	31477.86
672.91	31894.48
673.05	31754.05
673.19	31672.13
673.33	31449.78
673.47	31297.64
673.61	30991.03
673.75	31386.58
673.89	30972.31
674.03	31138.49
674.17	31393.61
674.31	30675.06
674.45	31414.67
674.59	30822.51
674.73	31309.35
674.87	30794.43
675.01	30628.25
675.15	30754.64
675.29	30976.99
675.43	30569.74
675.56	30792.09
675.70	30263.13
675.84	30686.76
675.98	29256.70
676.12	30244.40
676.26	30419.94
676.40	30326.32
676.54	30174.19
676.68	29687.36
676.82	29633.52
676.96	29825.45
677.10	29797.36
677.23	29560.97
677.37	29635.86
677.51	29600.76
677.65	29298.83
677.79	28709.01
677.93	28795.61
678.07	28648.16
678.21	28407.08
678.34	28666.88
678.48	28540.49
678.62	28402.40
678.76	28533.47
678.90	28149.62
679.04	28184.73
679.18	28376.66
679.31	28030.26
679.45	27906.21
679.59	27648.75
679.73	27653.43
679.87	28034.94
680.00	28135.58
680.14	27601.94
680.28	27824.29
680.42	27346.82
680.56	27339.80
680.70	27344.48
680.83	27627.68
680.97	27262.56
681.11	27023.83
681.25	27194.68
681.39	26916.16
681.52	26838.92
681.66	26876.37
681.80	26766.37
681.94	26806.16
682.07	26574.44
682.21	26178.89
682.35	26366.13
682.49	26005.69
682.62	25745.89
682.76	25724.83
682.90	25720.15
683.04	26087.61
683.17	25830.15
683.31	25710.78
683.45	25563.33
683.59	25750.57
683.72	25373.75
683.86	25256.72
684.00	25127.99
684.13	25017.99
684.27	24711.38
684.41	25017.99
684.55	24741.80
684.68	24840.11
684.82	24849.47
684.96	24826.06
685.09	24360.30
685.23	24177.73
685.37	24594.35
685.50	24669.25
685.64	24386.04
685.78	24109.86
685.91	23946.02
686.05	24081.77
686.19	23498.98
686.32	23850.06
686.46	23346.84
686.60	22895.12
686.73	23360.89
686.87	23002.78
687.01	22923.21
687.14	22698.52
687.28	22932.57
687.42	22537.02
687.55	22726.60
687.69	22724.26
687.82	22909.16
687.96	22780.43
688.10	22663.41
688.23	22396.59
688.37	22492.55
688.50	22478.50
688.64	22445.74
688.78	22368.50
688.91	22043.17
689.05	21862.94
689.18	21930.82
689.32	21549.31
689.46	21809.11
689.59	21888.69
689.73	21619.53
689.86	21710.81
690.00	21479.10
690.13	21575.06
690.27	21317.60
690.41	21118.65
690.54	20968.86
690.68	21453.35
690.81	21088.23
690.95	20842.47
691.08	20989.92
691.22	20821.41
691.35	20790.98
691.49	20477.35
691.62	21055.46
691.76	20596.71
691.89	20671.61
692.03	20353.30
692.16	20367.34
692.30	20123.93
692.43	20280.74
692.57	19896.89
692.70	19826.68
692.84	19559.86
692.97	19604.33
693.11	19714.33
693.24	19356.23
693.38	19154.94
693.51	19339.85
693.65	19381.98
693.78	19396.02
693.92	19545.81
694.05	19379.64
694.19	19452.19
694.32	19552.84
694.45	18853.02
694.59	19096.43
694.72	18815.57
694.86	18696.20
694.99	18871.74
695.13	18682.16
695.26	18363.84
695.39	18698.54
695.53	18747.69
695.66	18420.02
695.80	18188.30
695.93	18288.95
696.07	18169.58
696.20	18003.40
696.33	18071.28
696.47	17671.04
696.60	17947.23
696.73	17544.66
696.87	17577.42
697.00	17373.80
697.14	17458.06
697.27	17193.58
697.40	16961.86
697.54	17224.00
697.67	17097.61
697.80	17411.25
697.94	17123.36
698.07	17109.32
698.21	17315.28
698.34	17081.23
698.47	16917.39
698.61	16676.32
698.74	16814.41
698.87	16477.37
699.01	16271.40
699.14	16262.04
699.27	16315.87
699.40	16250.34
699.54	16032.67
699.67	16177.78
699.80	15784.57
699.94	15819.68
700.07	16264.38
700.20	15953.09
700.34	15882.88
700.47	15864.15
700.60	15957.77
700.73	15573.92
700.87	15812.66
701.00	15552.86
701.13	15302.42
701.26	15208.80
701.40	15241.57
701.53	15257.95
701.66	15279.02
701.79	14867.08
701.93	15016.88
702.06	15131.56
702.19	14920.92
702.32	14787.50
702.46	14871.76
702.59	14977.09
702.72	14670.48
702.85	14846.02
702.99	14422.38
703.12	14370.89
703.25	14408.34
703.38	14473.87
703.51	14230.46
703.65	13898.10
703.78	14038.53
703.91	13989.38
704.04	13935.55
704.17	13799.80
704.31	13535.32
704.44	13687.45
704.57	13359.78
704.70	13547.02
704.83	13544.68
704.96	13593.83
705.10	13387.86
705.23	13371.48
>>>>>End Processed Spectral Data<<<<<
