SpectraSuite Data File
++++++++++++++++++++++++++++++++++++
Date: Fri Oct 25 11:33:45 EDT 2013
User: price-jones
Dark Spectrum Present: No
Reference Spectrum Present: No
Number of Sampled Component Spectra: 1
Spectrometers: USB2+H05261
Integration Time (usec): 100000 (USB2+H05261)
Spectra Averaged: 1 (USB2+H05261)
Boxcar Smoothing: 0 (USB2+H05261)
Correct for Electrical Dark: No (USB2+H05261)
Strobe/Lamp Enabled: No (USB2+H05261)
Correct for Detector Non-linearity: No (USB2+H05261)
Correct for Stray Light: No (USB2+H05261)
Number of Pixels in Processed Spectrum: 2048
>>>>>Begin Processed Spectral Data<<<<<
365.73	297.25
365.92	297.25
366.12	297.25
366.32	224.69
366.52	135.75
366.72	170.86
366.91	100.64
367.11	163.84
367.31	224.69
367.51	142.77
367.70	210.65
367.90	208.31
368.10	152.13
368.30	121.71
368.49	212.99
368.69	187.24
368.89	156.82
369.09	231.71
369.28	194.26
369.48	252.78
369.68	220.01
369.87	332.36
370.07	264.48
370.27	262.14
370.47	269.16
370.66	421.30
370.86	528.96
371.06	561.73
371.25	528.96
371.45	531.30
371.65	503.22
371.84	559.39
372.04	627.26
372.24	528.96
372.44	547.69
372.63	664.71
372.83	657.69
373.03	596.84
373.22	638.97
373.42	585.13
373.62	601.52
373.81	601.52
374.01	650.67
374.21	603.86
374.40	697.48
374.60	594.50
374.79	653.01
374.99	608.54
375.19	671.73
375.38	688.12
375.58	695.14
375.78	664.71
375.97	690.46
376.17	681.10
376.37	784.08
376.56	667.05
376.76	662.37
376.95	641.31
377.15	746.63
377.35	678.76
377.54	748.97
377.74	657.69
377.93	629.60
378.13	638.97
378.33	753.65
378.52	685.78
378.72	699.82
378.91	760.67
379.11	648.33
379.31	725.57
379.50	725.57
379.70	786.42
379.89	716.20
380.09	667.05
380.28	683.44
380.48	706.84
380.68	699.82
380.87	669.39
381.07	720.88
381.26	816.85
381.46	793.44
381.65	800.46
381.85	849.61
382.04	809.83
382.24	807.48
382.43	802.80
382.63	809.83
382.83	751.31
383.02	793.44
383.22	884.72
383.41	821.53
383.61	779.40
383.80	772.38
384.00	812.17
384.19	802.80
384.39	849.61
384.58	791.10
384.78	795.78
384.97	788.76
385.17	844.93
385.36	823.87
385.56	901.11
385.75	814.51
385.95	812.17
386.14	819.19
386.34	854.30
386.53	903.45
386.72	844.93
386.92	837.91
387.11	880.04
387.31	976.00
387.50	901.11
387.70	894.08
387.89	891.74
388.09	854.30
388.28	947.92
388.48	863.66
388.67	929.19
388.86	936.21
389.06	968.98
389.25	964.30
389.45	957.28
389.64	919.83
389.84	1011.11
390.03	917.49
390.22	938.55
390.42	966.64
390.61	1004.09
390.81	938.55
391.00	990.05
391.19	997.07
391.39	1036.86
391.58	1071.97
391.78	1015.79
391.97	1025.15
392.16	1069.62
392.36	1025.15
392.55	1013.45
392.75	1128.14
392.94	1086.01
393.13	1039.20
393.33	1076.65
393.52	1027.50
393.71	1118.78
393.91	1109.41
394.10	1057.92
394.29	1184.31
394.49	1142.18
394.68	1170.27
394.88	1167.93
395.07	1116.44
395.26	1067.28
395.46	1238.14
395.65	1163.25
395.84	1245.16
396.04	1188.99
396.23	1160.91
396.42	1102.39
396.62	1200.69
396.81	1296.66
397.00	1179.63
397.19	1249.85
397.39	1181.97
397.58	1214.74
397.77	1249.85
397.97	1266.23
398.16	1212.40
398.35	1254.53
398.55	1205.38
398.74	1348.15
398.93	1284.95
399.12	1310.70
399.32	1296.66
399.51	1259.21
399.70	1355.17
399.90	1451.13
400.09	1352.83
400.28	1420.71
400.47	1394.96
400.67	1317.72
400.86	1336.45
401.05	1387.94
401.24	1455.81
401.44	1420.71
401.63	1549.43
401.82	1519.01
402.01	1514.33
402.21	1425.39
402.40	1423.05
402.59	1565.82
402.78	1448.79
402.97	1652.42
403.17	1551.78
403.36	1547.09
403.55	1530.71
403.74	1563.48
403.93	1586.88
404.13	1617.31
404.32	1607.95
404.51	1626.67
404.70	1696.89
404.89	1626.67
405.09	1699.23
405.28	1673.48
405.47	1703.91
405.66	1802.21
405.85	1820.94
406.05	1720.29
406.24	1757.74
406.43	1743.70
406.62	1778.81
406.81	1863.07
407.00	1757.74
407.20	1797.53
407.39	1736.68
407.58	1870.09
407.77	1881.79
407.96	1753.06
408.15	1842.00
408.34	1818.60
408.54	1870.09
408.73	1980.09
408.92	2001.16
409.11	2022.22
409.30	2059.67
409.49	1959.03
409.68	1998.82
409.87	2008.18
410.07	2085.42
410.26	2132.23
410.45	2054.99
410.64	2165.00
410.83	2080.74
411.02	2136.91
411.21	2172.02
411.40	2176.70
411.59	2256.28
411.78	2172.02
411.98	2235.21
412.17	2094.78
412.36	2207.13
412.55	2469.27
412.74	2396.71
412.93	2258.62
413.12	2328.83
413.31	2471.61
413.50	2389.69
413.69	2317.13
413.88	2410.75
414.07	2506.71
414.26	2595.65
414.45	2544.16
414.64	2511.39
414.83	2509.05
415.02	2649.49
415.22	2593.31
415.41	2637.78
415.60	2572.25
415.79	2626.08
415.98	2686.94
416.17	2754.81
416.36	2733.75
416.55	2726.72
416.74	2719.70
416.93	2757.15
417.12	2841.41
417.31	2913.97
417.50	2766.51
417.69	2935.03
417.88	2920.99
418.07	2974.82
418.26	2951.42
418.45	2937.37
418.64	3098.87
418.83	3035.67
419.02	3129.30
419.21	3145.68
419.39	3150.36
419.58	3131.64
419.77	3105.89
419.96	3159.72
420.15	3162.06
420.34	3019.29
420.53	3002.91
420.72	3199.51
420.91	3400.80
421.10	3190.15
421.29	3316.54
421.48	3183.13
421.67	3279.09
421.86	3267.39
422.05	3389.10
422.24	3377.39
422.43	3311.86
422.61	3396.12
422.80	3389.10
422.99	3365.69
423.18	3424.20
423.37	3480.38
423.56	3290.79
423.75	3405.48
423.94	3295.47
424.13	3213.56
424.32	3456.97
424.50	3400.80
424.69	3510.80
424.88	3534.21
425.07	3396.12
425.26	3485.06
425.45	3349.31
425.64	3325.90
425.83	3414.84
426.01	3461.65
426.20	3613.79
426.39	3569.32
426.58	3506.12
426.77	3552.93
426.96	3693.37
427.15	3667.62
427.33	3398.46
427.52	3517.83
427.71	3695.71
427.90	3595.06
428.09	3590.38
428.28	3765.92
428.46	3712.09
428.65	3688.68
428.84	3810.39
429.03	3786.99
429.22	3744.86
429.40	3655.92
429.59	3730.81
429.78	3660.60
429.97	3742.52
430.16	3744.86
430.34	3899.33
430.53	3901.67
430.72	3861.88
430.91	3918.06
431.10	3925.08
431.28	4004.66
431.47	4002.32
431.66	4093.60
431.85	4025.72
432.03	4023.38
432.22	4077.21
432.41	4124.02
432.60	4077.21
432.79	4018.70
432.97	4149.77
433.16	4189.56
433.35	4205.94
433.54	4138.07
433.72	4215.30
433.91	4210.62
434.10	4102.96
434.28	4313.61
434.47	4465.74
434.66	4229.35
434.85	4353.40
435.03	4358.08
435.22	4215.30
435.41	4573.41
435.59	4444.68
435.78	4414.25
435.97	4292.54
436.16	4404.89
436.34	4311.27
436.53	4367.44
436.72	4606.17
436.90	4397.87
437.09	4566.39
437.28	4493.83
437.46	4545.32
437.65	4535.96
437.84	4678.73
438.02	4669.37
438.21	4573.41
438.40	4582.77
438.58	4660.01
438.77	4704.48
438.96	4741.93
439.14	4706.82
439.33	4851.93
439.52	4943.21
439.70	5041.51
439.89	5015.77
440.08	4947.89
440.26	4959.60
440.45	5146.84
440.63	5118.75
440.82	5076.62
441.01	5043.85
441.19	5242.80
441.38	5303.65
441.57	5217.05
441.75	5404.30
441.94	5373.87
442.12	5397.28
442.31	5547.07
442.50	5432.38
442.68	5465.15
442.87	5399.62
443.05	5413.66
443.24	5537.71
443.43	5380.89
443.61	5638.35
443.80	5783.46
443.98	5441.75
444.17	5329.40
444.35	5483.88
444.54	5804.53
444.73	5540.05
444.91	5694.52
445.10	5696.86
445.28	5708.57
445.47	5633.67
445.65	5563.45
445.84	5834.96
446.02	5760.06
446.21	5699.20
446.39	5844.32
446.58	5879.43
446.77	5858.36
446.95	5776.44
447.14	5902.83
447.32	5792.83
447.51	5827.93
447.69	5870.06
447.88	5860.70
448.06	5607.92
448.25	5785.80
448.43	5867.72
448.62	5919.21
448.80	5884.11
448.99	5928.58
449.17	5870.06
449.36	5818.57
449.54	5930.92
449.73	6052.63
449.91	6193.06
450.10	6164.97
450.28	6057.31
450.46	6104.12
450.65	6298.38
450.83	6223.48
451.02	6129.86
451.20	6347.53
451.39	6193.06
451.57	6169.65
451.76	6267.95
451.94	6176.67
452.13	6225.82
452.31	6235.19
452.49	6277.32
452.68	6218.80
452.86	6389.66
453.05	6457.54
453.23	6480.94
453.42	6265.61
453.60	6335.83
453.78	6476.26
453.97	6289.02
454.15	6260.93
454.34	6457.54
454.52	6607.33
454.70	6553.50
454.89	6565.20
455.07	6642.44
455.26	6766.49
455.44	6731.38
455.62	6677.55
455.81	6700.95
455.99	6899.90
456.17	6813.30
456.36	6864.79
456.54	6691.59
456.73	6792.23
456.91	7023.95
457.09	6960.75
457.28	7155.02
457.46	6897.56
457.64	6995.86
457.83	7073.10
458.01	7096.50
458.19	7396.09
458.38	7157.36
458.56	7059.06
458.74	7087.14
458.93	7112.89
459.11	7232.26
459.29	7379.71
459.48	7250.98
459.66	7269.70
459.84	7403.11
460.03	7604.40
460.21	7365.67
460.39	7480.35
460.57	7648.87
460.76	7573.97
460.94	7414.82
461.12	7545.89
461.31	7702.70
461.49	7510.78
461.67	7517.80
461.85	7676.96
462.04	7564.61
462.22	8255.07
462.40	7747.17
462.59	7723.77
462.77	7817.39
462.95	7950.80
463.13	7730.79
463.32	7850.16
463.50	7805.69
463.68	7922.71
463.86	7896.97
464.05	7868.88
464.23	7770.58
464.41	8152.09
464.59	8032.72
464.78	8056.12
464.96	7922.71
465.14	7791.64
465.32	7978.89
465.50	8156.77
465.69	8252.73
465.87	8306.56
466.05	8353.37
466.23	8341.67
466.41	8135.70
466.60	8547.64
466.78	8262.09
466.96	8224.64
467.14	8325.29
467.32	8336.99
467.51	8454.02
467.69	8313.58
467.87	8311.24
468.05	8353.37
468.23	8402.52
468.41	8386.14
468.60	8491.46
468.78	8552.32
468.96	8552.32
469.14	8524.23
469.32	8510.19
469.50	8486.78
469.69	8884.67
469.87	8739.56
470.05	8638.92
470.23	8821.48
470.41	8830.84
470.59	8814.46
470.77	8917.44
470.95	8975.95
471.14	8975.95
471.32	8828.50
471.50	9095.32
471.68	8992.34
471.86	9221.71
472.04	9315.33
472.22	9444.06
472.40	9200.65
472.58	9210.01
472.77	9575.13
472.95	9376.19
473.13	9790.46
473.31	9202.99
473.49	9666.41
473.67	9366.82
473.85	9530.66
474.03	9708.54
474.21	9827.91
474.39	9877.06
474.57	9795.14
474.75	9797.48
474.93	9994.09
475.12	9659.39
475.30	10061.96
475.48	10143.88
475.66	9916.85
475.84	9935.57
476.02	10197.71
476.20	10422.41
476.38	10569.86
476.56	10611.99
476.74	10487.94
476.92	10335.81
477.10	10415.38
477.28	10743.06
477.46	10511.35
477.64	10796.89
477.82	10904.56
478.00	11229.89
478.18	11098.82
478.36	11218.19
478.54	11234.57
478.72	11356.28
478.90	11527.14
479.08	11751.83
479.26	11742.47
479.44	11829.07
479.62	11742.47
479.80	11903.96
479.98	11852.47
480.16	12168.45
480.34	12140.36
480.52	12182.49
480.70	12238.66
480.88	12241.00
481.06	12259.73
481.24	12477.40
481.41	12671.66
481.59	12727.83
481.77	12681.02
481.95	12865.92
482.13	13118.70
482.31	12901.03
482.49	13343.39
482.67	13324.67
482.85	13469.78
483.03	13762.35
483.21	13689.79
483.39	13830.23
483.57	13823.20
483.74	13855.97
483.92	13888.74
484.10	13760.01
484.28	14324.08
484.46	14558.13
484.64	14839.00
484.82	14326.42
485.00	14752.40
485.18	14897.51
485.35	15164.33
485.53	14993.47
485.71	14981.77
485.89	15433.49
486.07	15330.51
486.25	15403.07
486.43	15641.80
486.61	15866.49
486.78	15957.77
486.96	15744.78
487.14	15906.28
487.32	16025.65
487.50	16659.93
487.68	16255.02
487.85	16769.94
488.03	16484.39
488.21	17179.53
488.39	16805.05
488.57	17158.47
488.75	17111.66
488.92	17542.32
489.10	17596.15
489.28	17397.20
489.46	17984.68
489.64	17591.47
489.81	18345.12
489.99	18235.11
490.17	18319.37
490.35	18480.87
490.53	18820.25
490.70	18469.17
490.88	18340.44
491.06	18719.60
491.24	19241.54
491.41	19183.03
491.59	19236.86
491.77	19225.16
491.95	19800.93
492.13	19623.05
492.30	19714.33
492.48	19913.28
492.66	19939.02
492.84	19981.15
493.01	20159.03
493.19	20292.44
493.37	20367.34
493.54	20620.12
493.72	20559.27
493.90	20533.52
494.08	20556.93
494.25	20875.24
494.43	21006.31
494.61	21233.34
494.79	21298.88
494.96	21280.15
495.14	21465.05
495.32	21448.67
495.49	21757.62
495.67	21888.69
495.85	22356.80
496.02	22089.98
496.20	22408.29
496.38	22181.26
496.55	22195.30
496.73	22920.87
496.91	22801.50
497.09	23058.96
497.26	22799.16
497.44	22700.86
497.62	23044.91
497.79	23824.31
497.97	23129.17
498.14	23616.01
498.32	24051.34
498.50	23632.39
498.67	24018.58
498.85	24053.69
499.03	24240.93
499.20	23946.02
499.38	24393.06
499.56	24613.07
499.73	24547.54
499.91	24823.72
500.08	24643.50
500.26	24676.27
500.44	24606.05
500.61	24952.45
500.79	24950.11
500.97	25268.42
501.14	25418.22
501.32	25479.07
501.49	25743.55
501.67	25446.30
501.84	25743.55
502.02	25776.32
502.20	25750.57
502.37	26017.40
502.55	25788.02
502.72	26270.17
502.90	26026.76
503.07	25919.09
503.25	25935.48
503.43	25876.96
503.60	26347.41
503.78	26419.97
503.95	26441.03
504.13	26878.71
504.30	26525.29
504.48	27012.12
504.65	26752.32
504.83	27154.90
505.01	27339.80
505.18	27255.54
505.36	27412.35
505.53	27119.79
505.71	27360.86
505.88	27627.68
506.06	27281.28
506.23	27475.55
506.41	27498.95
506.58	27590.24
506.76	27924.93
506.93	28109.83
507.11	28077.07
507.28	28126.22
507.46	28348.57
507.63	28704.33
507.81	28622.41
507.98	28762.84
508.16	28547.51
508.33	28549.85
508.50	28914.98
508.68	28744.12
508.85	29116.26
509.03	28748.80
509.20	29301.17
509.38	29130.31
509.55	28978.17
509.73	29605.44
509.90	29404.15
510.08	29785.66
510.25	29497.77
510.42	29600.76
510.60	29956.52
510.77	30134.40
510.95	30635.27
511.12	29701.40
511.30	29912.05
511.47	30183.55
511.64	29956.52
511.82	30541.65
511.99	30558.03
512.17	31000.40
512.34	30270.15
512.51	30852.94
512.69	31061.25
512.86	30946.56
513.04	31103.38
513.21	31309.35
513.38	31461.48
513.56	31180.62
513.73	31271.90
513.90	31124.44
514.08	31445.10
514.25	31559.78
514.43	31805.54
514.60	31349.14
514.77	31714.26
514.95	31548.08
515.12	31730.64
515.29	31704.90
515.47	31910.86
515.64	32116.83
515.81	32290.03
515.99	32519.40
516.16	32184.71
516.33	32512.38
516.51	32589.62
516.68	32177.68
516.85	32542.81
517.03	32774.52
517.20	32833.04
517.37	32833.04
517.54	32783.88
517.72	33006.23
517.89	32907.93
518.06	33266.03
518.24	33069.43
518.41	33149.01
518.58	33127.94
518.75	32933.68
518.93	33628.82
519.10	33486.04
519.27	33259.01
519.45	33553.92
519.62	33919.04
519.79	34019.69
519.96	34190.55
520.14	33818.40
520.31	33923.72
520.48	34232.68
520.65	34223.31
520.83	34188.21
521.00	34637.59
521.17	34082.88
521.34	34754.61
521.52	34588.44
521.69	34583.76
521.86	34801.43
522.03	34979.31
522.20	34747.59
522.38	35302.30
522.55	35229.74
522.72	35314.00
522.89	35175.91
523.07	35622.95
523.24	35234.42
523.41	35515.29
523.58	35208.68
523.75	35517.63
523.92	35714.23
524.10	35580.82
524.27	35440.39
524.44	35653.38
524.61	35920.20
524.78	35611.25
524.96	36170.64
525.13	35917.86
525.30	36194.04
525.47	36055.95
525.64	36346.18
525.81	36400.01
525.98	36318.09
526.16	36657.47
526.33	35974.03
526.50	36575.55
526.67	36135.53
526.84	36793.22
527.01	36252.56
527.18	36458.52
527.36	36783.86
527.53	37092.81
527.70	37219.20
527.87	37425.17
528.04	37006.21
528.21	37310.48
528.38	36975.78
528.55	37486.02
528.72	37446.23
528.89	37195.79
529.07	37067.06
529.24	37230.90
529.41	37502.40
529.58	37820.72
529.75	37193.45
529.92	37617.09
530.09	37853.48
530.26	37928.38
530.43	37699.01
530.60	37645.18
530.77	37642.84
530.94	38014.98
531.11	37949.45
531.28	38162.43
531.46	38230.31
531.63	38312.23
531.80	38387.13
531.97	38394.15
532.14	38134.35
532.31	38352.02
532.48	38904.38
532.65	38747.57
532.82	38490.11
532.99	38464.36
533.16	38600.12
533.33	38923.11
533.50	38630.54
533.67	38817.78
533.84	38583.73
534.01	39220.36
534.18	39428.66
534.35	39541.01
534.52	39213.34
534.69	39681.44
534.86	39880.39
535.03	39543.35
535.20	39131.42
535.37	39431.01
535.54	39936.56
535.71	39632.29
535.88	39810.17
536.05	39473.13
536.22	40069.97
536.38	39686.12
536.55	40084.01
536.72	39562.08
536.89	39700.17
537.06	39903.79
537.23	40411.69
537.40	39751.66
537.57	39852.30
537.74	39791.45
537.91	40451.48
538.08	40325.09
538.25	39821.87
538.42	40175.30
538.59	40573.19
538.75	40947.67
538.92	40725.32
539.09	40479.57
539.26	40685.53
539.43	40631.70
539.60	40823.62
539.77	41120.87
539.94	40877.46
540.11	40933.63
540.28	40905.54
540.44	40947.67
540.61	40924.27
540.78	40509.99
540.95	41146.62
541.12	41027.25
541.29	40718.30
541.46	41436.84
541.62	41406.42
541.79	41193.43
541.96	40919.59
542.13	41106.83
542.30	40980.44
542.47	41752.82
542.63	41614.72
542.80	41893.25
542.97	41706.01
543.14	41839.42
543.31	41631.11
543.48	41778.56
543.64	42347.31
543.81	42183.48
543.98	42375.40
544.15	41958.78
544.32	42040.70
544.48	42396.46
544.65	42405.83
544.82	42253.69
544.99	41661.54
545.16	42506.47
545.32	42103.90
545.49	42761.59
545.66	42843.51
545.83	42377.74
546.00	43267.14
546.16	42560.30
546.33	42623.50
546.50	42721.80
546.67	42768.61
546.83	42480.72
547.00	42806.06
547.17	43035.43
547.34	42635.20
547.50	43255.44
547.67	43421.62
547.84	42934.79
548.00	43182.88
548.17	43208.63
548.34	43463.75
548.51	43168.84
548.67	43714.19
548.84	43477.79
549.01	43662.69
549.18	43292.89
549.34	43456.73
549.51	43707.16
549.68	43543.33
549.84	43452.05
550.01	44348.47
550.18	43367.79
550.34	44058.24
550.51	43920.15
550.68	43679.08
550.84	43482.47
551.01	44053.56
551.18	43210.97
551.34	43711.84
551.51	43917.81
551.68	43812.49
551.84	43913.13
552.01	44079.31
552.18	44074.63
552.34	44072.29
552.51	44093.35
552.68	44191.65
552.84	44428.05
553.01	44236.12
553.18	43899.09
553.34	44191.65
553.51	44002.07
553.67	44280.60
553.84	44477.20
554.01	44631.68
554.17	44512.31
554.34	44554.44
554.51	44531.03
554.67	44727.64
554.84	45141.91
555.00	44870.41
555.17	44470.18
555.33	44942.97
555.50	44744.02
555.67	44786.15
555.83	45254.26
556.00	44767.43
556.16	45193.40
556.33	45090.42
556.50	44910.20
556.66	44912.54
556.83	45027.23
556.99	45588.95
557.16	45247.24
557.32	45230.85
557.49	45605.34
557.65	44985.10
557.82	45137.23
557.98	45207.45
558.15	45228.51
558.32	45336.18
558.48	44978.07
558.65	45202.77
558.81	45219.15
558.98	45284.68
559.14	45570.23
559.31	45296.39
559.47	45408.73
559.64	45340.86
559.80	45495.33
559.97	45453.20
560.13	45336.18
560.30	45151.27
560.46	45827.69
560.63	45652.15
560.79	45968.12
560.96	46000.89
561.12	45684.92
561.29	45408.73
561.45	45998.55
561.61	45769.18
561.78	45476.61
561.94	45399.37
562.11	45794.92
562.27	45848.75
562.44	45617.04
562.60	45876.84
562.77	46059.40
562.93	45640.45
563.10	46366.01
563.26	46031.32
563.42	46412.82
563.59	46375.37
563.75	45741.09
563.92	45797.26
564.08	46178.77
564.24	46382.40
564.41	46021.95
564.57	46398.78
564.74	46452.61
564.90	45804.28
565.07	46024.29
565.23	45823.01
565.39	45759.81
565.56	46595.38
565.72	46309.84
565.88	46518.15
566.05	46307.50
566.21	46260.69
566.38	46396.44
566.54	46445.59
566.70	46286.43
566.87	46569.64
567.03	45586.61
567.19	46679.64
567.36	46555.60
567.52	46583.68
567.68	47051.79
567.85	46466.66
568.01	46681.98
568.17	46293.46
568.34	46476.02
568.50	46562.62
568.66	46160.05
568.83	46363.67
568.99	46351.97
569.15	46550.91
569.32	46623.47
569.48	46667.94
569.64	46887.95
569.81	46916.04
569.97	46679.64
570.13	46916.04
570.30	46571.98
570.46	46796.67
570.62	47058.81
570.78	46672.62
570.95	46642.20
571.11	46953.49
571.27	46604.75
571.43	46693.69
571.60	46801.35
571.76	46368.35
571.92	46513.47
572.09	46911.36
572.25	46932.42
572.41	46595.38
572.57	46787.31
572.74	47299.89
572.90	46838.80
573.06	46916.04
573.22	46923.06
573.38	46944.12
573.55	46693.69
573.71	46941.78
573.87	46990.94
574.03	46909.02
574.20	47529.26
574.36	47107.96
574.52	47021.36
574.68	46897.31
574.84	47103.28
575.01	47096.26
575.17	47096.26
575.33	47133.71
575.49	46677.30
575.65	47175.84
575.82	47533.94
575.98	46967.53
576.14	47143.07
576.30	47356.06
576.46	47026.04
576.62	46969.87
576.79	46681.98
576.95	46857.52
577.11	47152.43
577.27	47175.84
577.43	47065.83
577.59	47239.03
577.75	47290.52
577.92	46974.55
578.08	47084.56
578.24	47040.09
578.40	47552.66
578.56	47246.05
578.72	47304.57
578.88	47110.30
579.04	47145.41
579.21	47002.64
579.37	47119.66
579.53	47482.45
579.69	47044.77
579.85	46979.23
580.01	47152.43
580.17	46866.89
580.33	47182.86
580.49	47494.15
580.65	47210.95
580.82	47445.00
580.98	47234.35
581.14	46595.38
581.30	47281.16
581.46	46983.91
581.62	47051.79
581.78	47323.29
581.94	47461.38
582.10	47466.06
582.26	47391.17
582.42	47267.12
582.58	47129.03
582.74	47327.97
582.90	47356.06
583.06	47473.09
583.22	46911.36
583.38	47292.86
583.54	46916.04
583.70	47091.58
583.86	47721.18
584.02	47311.59
584.18	47753.95
584.34	47526.92
584.50	47648.63
584.66	47690.76
584.82	47505.85
584.98	47922.47
585.14	47667.35
585.30	47311.59
585.46	47334.99
585.62	46902.00
585.78	47662.67
585.94	47189.88
586.10	47477.77
586.26	47182.86
586.42	47433.30
586.58	47920.13
586.74	47480.11
586.90	47423.93
587.06	47700.12
587.22	47557.35
587.38	47608.84
587.54	47859.27
587.70	47775.02
587.86	47459.04
588.02	47161.79
588.18	47459.04
588.34	47566.71
588.49	47583.09
588.65	47318.61
588.81	47634.58
588.97	47653.31
589.13	47828.85
589.29	47746.93
589.45	47643.94
589.61	47517.56
589.77	47875.66
589.93	47620.54
590.08	47629.90
590.24	47894.38
590.40	47767.99
590.56	48083.97
590.72	47962.26
590.88	47351.38
591.04	47725.86
591.20	48226.74
591.35	48446.75
591.51	48069.92
591.67	47959.92
591.83	48105.03
591.99	47889.70
592.15	47636.92
592.31	47594.79
592.46	47775.02
592.62	47838.21
592.78	48254.82
592.94	48088.65
593.10	48142.48
593.26	48175.25
593.41	48292.27
593.57	48196.31
593.73	48060.56
593.89	48229.08
594.05	48545.05
594.20	47847.57
594.36	48385.89
594.52	48224.40
594.68	48411.64
594.84	48196.31
594.99	48191.63
595.15	48002.05
595.31	48362.49
595.47	48224.40
595.62	47941.19
595.78	48390.58
595.94	48423.34
596.10	48231.42
596.25	48432.71
596.41	48002.05
596.57	48198.65
596.73	48275.89
596.88	47856.93
597.04	48264.19
597.20	48130.78
597.36	48086.31
597.51	48442.07
597.67	48332.06
597.83	47894.38
597.99	48264.19
598.14	48362.49
598.30	48128.44
598.46	48271.21
598.61	49006.14
598.77	48140.14
598.93	48631.65
599.09	48327.38
599.24	48720.59
599.40	48222.06
599.56	48706.55
599.71	48430.36
599.87	49020.18
600.03	48563.78
600.18	48371.85
600.34	48037.16
600.50	48348.45
600.65	48296.95
600.81	48301.64
600.97	48521.65
601.12	48727.61
601.28	48215.04
601.44	48322.70
601.59	48381.21
601.75	48580.16
601.91	48643.35
602.06	48137.80
602.22	48491.22
602.37	48189.29
602.53	48208.01
602.69	48788.47
602.84	48306.32
603.00	48678.46
603.16	48397.60
603.31	48788.47
603.47	48870.39
603.62	48278.23
603.78	48350.79
603.94	48343.77
604.09	48329.72
604.25	48177.59
604.40	48280.57
604.56	48605.91
604.71	48409.30
604.87	48289.93
605.03	48123.75
605.18	48659.74
605.34	48554.41
605.49	48442.07
605.65	48336.74
605.80	47870.98
605.96	48479.52
606.12	48346.11
606.27	48465.47
606.43	48004.39
606.58	48486.54
606.74	48355.47
606.89	48151.84
607.05	48418.66
607.20	48165.88
607.36	48067.58
607.51	48456.11
607.67	48268.87
607.82	47990.34
607.98	48397.60
608.13	47721.18
608.29	48126.10
608.44	48423.34
608.60	47819.49
608.75	48215.04
608.91	48243.12
609.06	47796.08
609.22	48435.05
609.37	47983.32
609.53	48392.92
609.68	48367.17
609.84	48053.54
609.99	47948.21
610.15	47913.11
610.30	48193.97
610.46	48144.82
610.61	47908.43
610.76	47873.32
610.92	47449.68
611.07	47833.53
611.23	47812.46
611.38	47995.03
611.54	48208.01
611.69	48222.06
611.84	47896.72
612.00	47473.09
612.15	48051.20
612.31	47824.17
612.46	47842.89
612.62	47760.97
612.77	47744.59
612.92	47908.43
613.08	47873.32
613.23	47854.59
613.39	47999.71
613.54	48016.09
613.69	48240.78
613.85	47702.46
614.00	47824.17
614.15	47894.38
614.31	47751.61
614.46	47234.35
614.62	47629.90
614.77	46976.89
614.92	47681.39
615.08	47552.66
615.23	47423.93
615.38	47760.97
615.54	47683.73
615.69	47557.35
615.84	47253.08
616.00	47793.74
616.15	47681.39
616.30	47831.19
616.46	47643.94
616.61	47065.83
616.76	48020.77
616.92	47302.23
617.07	47482.45
617.22	47569.05
617.37	46752.20
617.53	47452.02
617.68	47657.99
617.83	47400.53
617.99	47540.96
618.14	47735.23
618.29	46990.94
618.45	46806.03
618.60	47014.34
618.75	46749.86
618.90	47346.70
619.06	46763.90
619.21	47292.86
619.36	46927.74
619.51	47138.39
619.67	47012.00
619.82	46941.78
619.97	47147.75
620.12	47019.02
620.28	47040.09
620.43	47267.12
620.58	47182.86
620.73	46586.02
620.89	47260.10
621.04	47269.46
621.19	46752.20
621.34	46899.65
621.49	46852.84
621.65	47026.04
621.80	46932.42
621.95	46632.83
622.10	46979.23
622.25	46831.78
622.41	46972.21
622.56	46611.77
622.71	46937.10
622.86	46239.62
623.01	46691.35
623.16	46731.14
623.32	46806.03
623.47	46824.76
623.62	46637.51
623.77	46752.20
623.92	46979.23
624.07	46548.57
624.23	46827.10
624.38	47016.68
624.53	46298.14
624.68	46309.84
624.83	46422.19
624.98	46555.60
625.13	45991.53
625.29	46136.64
625.44	46529.85
625.59	46319.20
625.74	46476.02
625.89	46162.39
626.04	46036.00
626.19	46040.68
626.34	46277.07
626.49	45635.77
626.65	46092.17
626.80	45900.25
626.95	45815.99
627.10	45638.11
627.25	45921.31
627.40	46188.13
627.55	46021.95
627.70	45930.67
627.85	46080.47
628.00	46021.95
628.15	45986.85
628.30	45366.60
628.45	45521.08
628.60	45626.40
628.76	45815.99
628.91	45750.45
629.06	45429.80
629.21	45193.40
629.36	45776.20
629.51	45518.74
629.66	45839.39
629.81	46047.70
629.96	45614.70
630.11	45125.53
630.26	45556.19
630.41	45394.69
630.56	45291.71
630.71	45408.73
630.86	45530.44
631.01	45588.95
631.16	45485.97
631.31	45439.16
631.46	45591.30
631.61	45364.26
631.76	45670.87
631.91	45303.41
632.06	45687.26
632.21	45148.93
632.36	45418.10
632.51	45301.07
632.66	45305.75
632.81	45123.19
632.96	45340.86
633.10	45305.75
633.25	45179.36
633.40	45212.13
633.55	45563.21
633.70	44793.17
633.85	44996.80
634.00	44891.48
634.15	44804.88
634.30	44942.97
634.45	44919.56
634.60	45153.62
634.75	45272.98
634.90	44863.39
635.05	45074.04
635.19	45015.52
635.34	45081.06
635.49	44580.18
635.64	44727.64
635.79	44921.90
635.94	44713.59
636.09	45015.52
636.24	44856.37
636.39	44641.04
636.53	44271.23
636.68	44575.50
636.83	44381.24
636.98	44280.60
637.13	44385.92
637.28	44004.41
637.43	44348.47
637.57	44608.27
637.72	44027.82
637.87	44364.85
638.02	44247.83
638.17	44409.32
638.32	43915.47
638.46	44027.82
638.61	43978.67
638.76	44245.49
638.91	44683.17
639.06	43952.92
639.20	43856.96
639.35	43732.91
639.50	43913.13
639.65	44027.82
639.80	43922.49
639.94	43922.49
640.09	44456.14
640.24	44083.99
640.39	43636.95
640.54	43430.98
640.68	43524.60
640.83	44453.79
640.98	43952.92
641.13	43552.69
641.27	44102.71
641.42	44343.79
641.57	43643.97
641.72	43559.71
641.86	43693.12
642.01	43438.00
642.16	43484.81
642.31	42731.16
642.45	43906.11
642.60	43309.27
642.75	43150.12
642.90	43459.07
643.04	43344.38
643.19	43138.41
643.34	43281.19
643.48	43070.54
643.63	43161.82
643.78	43466.09
643.93	43473.11
644.07	43533.96
644.22	43524.60
644.37	43402.89
644.51	42958.19
644.66	43236.72
644.81	43014.37
644.95	43505.88
645.10	43021.39
645.25	42930.11
645.39	42415.19
645.54	42625.84
645.69	42979.26
645.83	43143.09
645.98	42904.36
646.13	42693.71
646.27	42855.21
646.42	42574.34
646.57	42831.80
646.71	43215.65
646.86	42560.30
647.00	42787.33
647.15	42693.71
647.30	43033.09
647.44	42955.85
647.59	42745.20
647.74	42590.73
647.88	42974.58
648.03	43351.40
648.17	43105.65
648.32	42660.94
648.47	42782.65
648.61	42525.19
648.76	42417.53
648.90	42340.29
649.05	42426.89
649.20	42895.00
649.34	42445.62
649.49	42630.52
649.63	42546.26
649.78	42344.97
649.92	42532.22
650.07	43208.63
650.21	42738.18
650.36	42567.32
650.51	42445.62
650.65	42773.29
650.80	42323.91
650.94	42113.26
651.09	41937.72
651.23	41982.19
651.38	41574.94
651.52	42021.98
651.67	42176.45
651.81	41965.81
651.96	42148.37
652.10	41525.78
652.25	41811.33
652.39	41958.78
652.54	42490.09
652.68	41949.42
652.83	41869.84
652.97	42146.03
653.12	42190.50
653.26	41867.50
653.41	41563.23
653.55	41834.74
653.70	42148.37
653.84	41879.21
653.99	42033.68
654.13	41797.29
654.27	41455.57
654.42	41670.90
654.56	41586.64
654.71	41806.65
654.85	41612.38
655.00	41710.69
655.14	41736.43
655.29	41869.84
655.43	41663.88
655.57	41001.50
655.72	41329.18
655.86	41261.30
656.01	41364.29
656.15	40884.48
656.30	41340.88
656.44	41041.29
656.58	41219.17
656.73	41436.84
656.87	40608.29
657.01	41120.87
657.16	41226.20
657.30	41006.19
657.45	41251.94
657.59	40905.54
657.73	40795.54
657.88	41069.38
658.02	41008.53
658.16	41823.03
658.31	41141.94
658.45	40652.76
658.60	40737.02
658.74	40671.49
658.88	41074.06
659.03	40474.88
659.17	40399.99
659.31	40528.72
659.46	40421.05
659.60	40755.75
659.74	40598.93
659.89	40168.27
660.03	40095.72
660.17	40423.39
660.32	40020.82
660.46	40194.02
660.60	40018.48
660.74	40076.99
660.89	40226.79
661.03	39826.56
661.17	39805.49
661.32	39562.08
661.46	39845.28
661.60	39393.56
661.74	39789.11
661.89	39487.18
662.03	40198.70
662.17	39716.55
662.31	39129.08
662.46	39711.87
662.60	39306.96
662.74	39435.69
662.88	39014.39
663.03	38646.93
663.17	39243.76
663.31	38642.24
663.45	39412.28
663.60	39416.96
663.74	39093.97
663.88	38890.34
664.02	38738.21
664.17	39199.29
664.31	38787.36
664.45	38721.82
664.59	38747.57
664.73	38616.50
664.88	38497.13
665.02	38883.32
665.16	38607.14
665.30	38541.60
665.44	38455.00
665.59	38256.06
665.73	38218.61
665.87	37689.65
666.01	38349.68
666.15	38277.12
666.29	38220.95
666.44	38052.43
666.58	37570.28
666.72	37916.68
666.86	38190.52
667.00	37570.28
667.14	37916.68
667.28	37425.17
667.43	37827.74
667.57	37715.39
667.71	37490.70
667.85	37577.30
667.99	37645.18
668.13	37551.56
668.27	36837.69
668.41	37106.85
668.56	36404.69
668.70	37076.43
668.84	36545.12
668.98	36774.50
669.12	36715.98
669.26	36825.99
669.40	36840.03
669.54	36952.38
669.68	36685.56
669.82	36830.67
669.96	36292.35
670.10	36109.78
670.25	36325.11
670.39	36556.83
670.53	36378.95
670.67	36355.54
670.81	36671.51
670.95	36381.29
671.09	35922.54
671.23	35882.75
671.37	36158.94
671.51	35676.79
671.65	35690.83
671.79	35424.01
671.93	35662.74
672.07	36084.04
672.21	35756.36
672.35	35161.87
672.49	35569.12
672.63	35534.01
672.77	35161.87
672.91	35545.72
673.05	35171.23
673.19	34677.38
673.33	34782.70
673.47	34820.15
673.61	34405.88
673.75	34328.64
673.89	34738.23
674.03	34469.07
674.17	34258.42
674.31	34293.53
674.45	34132.03
674.59	33947.13
674.73	34043.09
674.87	33975.22
675.01	34181.18
675.15	33977.56
675.29	33574.98
675.43	33312.84
675.56	33717.76
675.70	33560.94
675.84	33266.03
675.98	32376.63
676.12	33242.63
676.26	33521.15
676.40	32762.82
676.54	32659.84
676.68	32790.91
676.82	32208.11
676.96	32713.67
677.10	32765.16
677.23	33027.30
677.37	32638.77
677.51	32224.50
677.65	32531.11
677.79	32154.28
677.93	32418.76
678.07	32290.03
678.21	32004.49
678.34	31639.36
678.48	31358.50
678.62	31391.26
678.76	31435.74
678.90	31435.74
679.04	31381.90
679.18	31639.36
679.31	30995.71
679.45	30864.64
679.59	30764.00
679.73	30600.16
679.87	30806.13
680.00	30375.47
680.14	30176.53
680.28	30768.68
680.42	30202.27
680.56	30335.68
680.70	30272.49
680.83	29898.00
680.97	29699.06
681.11	29954.18
681.25	29710.76
681.39	29598.41
681.52	29392.45
681.66	29317.55
681.80	29214.57
681.94	28589.64
682.07	28938.38
682.21	28914.98
682.35	28767.52
682.49	28395.38
682.62	28811.99
682.76	28477.30
682.90	28816.68
683.04	28332.18
683.17	28297.08
683.31	28280.69
683.45	27971.74
683.59	27913.23
683.72	27683.86
683.86	27765.78
684.00	27681.52
684.13	27613.64
684.27	27405.33
684.41	27253.20
684.55	27370.22
684.68	26878.71
684.82	27318.73
684.96	27136.17
685.09	26892.76
685.23	27112.77
685.37	27543.42
685.50	27285.97
685.64	26897.44
685.78	26621.25
685.91	26506.57
686.05	26125.06
686.19	25640.57
686.32	26359.11
686.46	25820.79
686.60	25549.29
686.73	25914.41
686.87	25916.75
687.01	25380.77
687.14	26087.61
687.28	25181.82
687.42	25467.37
687.55	24903.30
687.69	25200.55
687.82	24961.81
687.96	24797.98
688.10	25064.80
688.23	24985.22
688.37	24917.34
688.50	25144.38
688.64	24830.74
688.78	24484.34
688.91	24376.68
689.05	24313.48
689.18	23910.91
689.32	23814.95
689.46	23627.71
689.59	23515.36
689.73	23880.49
689.86	24086.45
690.00	23604.30
690.13	23639.41
690.27	23545.79
690.41	23548.13
690.54	22967.68
690.68	23047.26
690.81	23161.94
690.95	22902.14
691.08	22785.12
691.22	22703.20
691.35	22537.02
691.49	22628.30
691.62	22761.71
691.76	22579.15
691.89	21979.97
692.03	21860.60
692.16	22043.17
692.30	21841.88
692.43	22207.00
692.57	21490.80
692.70	21654.64
692.84	21715.49
692.97	21649.96
693.11	21291.85
693.24	21298.88
693.38	21362.07
693.51	20905.66
693.65	21179.51
693.78	21235.68
693.92	20765.23
694.05	20432.88
694.19	20589.69
694.32	20739.49
694.45	21123.33
694.59	20779.28
694.72	20814.38
694.86	20070.09
694.99	20018.60
695.13	19906.26
695.26	20074.77
695.39	19894.55
695.53	19814.98
695.66	19857.10
695.80	20039.67
695.93	19601.99
696.07	19225.16
696.20	19138.56
696.33	19133.88
696.47	18920.89
696.60	19094.09
696.73	18927.91
696.87	19150.26
697.00	18806.20
697.14	18700.88
697.27	18548.75
697.40	18649.39
697.54	18265.54
697.67	18565.13
697.80	18412.99
697.94	18136.81
698.07	18324.05
698.21	17951.91
698.34	17940.21
698.47	18132.13
698.61	17326.99
698.74	17701.47
698.87	17729.56
699.01	17380.82
699.14	17408.90
699.27	17404.22
699.40	17331.67
699.54	17069.53
699.67	17294.22
699.80	17146.76
699.94	16765.26
700.07	17153.79
700.20	17200.60
700.34	16765.26
700.47	16936.12
700.60	16690.36
700.73	16957.18
700.87	16498.44
701.00	16306.51
701.13	16332.26
701.26	16154.38
701.40	16079.48
701.53	16236.30
701.66	15988.20
701.79	16086.50
701.93	15637.12
702.06	15697.97
702.19	15576.27
702.32	15693.29
702.46	15552.86
702.59	15552.86
702.72	15686.27
702.85	15585.63
702.99	15466.26
703.12	15192.42
703.25	15059.01
703.38	15073.05
703.51	15304.76
703.65	14841.34
703.78	15056.67
703.91	14525.36
704.04	14665.80
704.17	14766.44
704.31	14427.06
704.44	14576.86
704.57	14427.06
704.70	14448.13
704.83	14155.56
704.96	14012.79
705.10	13900.44
705.23	13715.54
>>>>>End Processed Spectral Data<<<<<
