SpectraSuite Data File
++++++++++++++++++++++++++++++++++++
Date: Fri Oct 25 10:44:07 EDT 2013
User: price-jones
Dark Spectrum Present: No
Reference Spectrum Present: No
Number of Sampled Component Spectra: 1
Spectrometers: USB2+H05261
Integration Time (usec): 100000 (USB2+H05261)
Spectra Averaged: 1 (USB2+H05261)
Boxcar Smoothing: 0 (USB2+H05261)
Correct for Electrical Dark: No (USB2+H05261)
Strobe/Lamp Enabled: No (USB2+H05261)
Correct for Detector Non-linearity: No (USB2+H05261)
Correct for Stray Light: No (USB2+H05261)
Number of Pixels in Processed Spectrum: 2048
>>>>>Begin Processed Spectral Data<<<<<
365.73	166.18
365.92	166.18
366.12	166.18
366.32	0.00
366.52	39.79
366.72	72.56
366.91	14.04
367.11	67.88
367.31	14.04
367.51	11.70
367.70	49.15
367.90	2.34
368.10	67.88
368.30	0.00
368.49	4.68
368.69	14.04
368.89	0.00
369.09	58.51
369.28	51.49
369.48	88.94
369.68	0.00
369.87	56.17
370.07	88.94
370.27	77.24
370.47	222.35
370.66	409.59
370.86	435.34
371.06	463.43
371.25	493.85
371.45	411.93
371.65	454.06
371.84	388.53
372.04	463.43
372.24	477.47
372.44	543.00
372.63	503.22
372.83	456.40
373.03	498.53
373.22	437.68
373.42	479.81
373.62	552.37
373.81	613.22
374.01	585.13
374.21	554.71
374.40	475.13
374.60	627.26
374.79	571.09
374.99	645.99
375.19	667.05
375.38	631.94
375.58	648.33
375.78	660.03
375.97	550.03
376.17	704.50
376.37	606.20
376.56	643.65
376.76	613.22
376.95	676.41
377.15	641.31
377.35	645.99
377.54	706.84
377.74	660.03
377.93	624.92
378.13	648.33
378.33	683.44
378.52	674.07
378.72	695.14
378.91	664.71
379.11	648.33
379.31	559.39
379.50	648.33
379.70	709.18
379.89	657.69
380.09	674.07
380.28	676.41
380.48	777.06
380.68	627.26
380.87	671.73
381.07	653.01
381.26	695.14
381.46	732.59
381.65	711.52
381.85	692.80
382.04	711.52
382.24	758.33
382.43	737.27
382.63	734.93
382.83	678.76
383.02	716.20
383.22	706.84
383.41	777.06
383.61	767.70
383.80	814.51
384.00	695.14
384.19	819.19
384.39	798.12
384.58	767.70
384.78	737.27
384.97	823.87
385.17	720.88
385.36	835.57
385.56	746.63
385.75	767.70
385.95	805.14
386.14	830.89
386.34	868.34
386.53	823.87
386.72	835.57
386.92	795.78
387.11	877.70
387.31	844.93
387.50	819.19
387.70	777.06
387.89	814.51
388.09	835.57
388.28	809.83
388.48	884.72
388.67	983.02
388.86	994.73
389.06	954.94
389.25	908.13
389.45	994.73
389.64	931.53
389.84	1008.77
390.03	917.49
390.22	1022.81
390.42	978.34
390.61	1011.11
390.81	1011.11
391.00	1097.71
391.19	1034.52
391.39	1083.67
391.58	1011.11
391.78	1100.05
391.97	997.07
392.16	1011.11
392.36	973.66
392.55	1015.79
392.75	1013.45
392.94	978.34
393.13	1008.77
393.33	1001.75
393.52	1071.97
393.71	1125.80
393.91	1093.03
394.10	1153.88
394.29	1163.25
394.49	1142.18
394.68	1188.99
394.88	1317.72
395.07	1259.21
395.26	1193.67
395.46	1153.88
395.65	1261.55
395.84	1203.04
396.04	1306.02
396.23	1114.10
396.42	1095.37
396.62	1217.08
396.81	1191.33
397.00	1219.42
397.19	1191.33
397.39	1299.00
397.58	1392.62
397.77	1306.02
397.97	1467.52
398.16	1425.39
398.35	1406.66
398.55	1409.00
398.74	1472.20
398.93	1526.03
399.12	1519.01
399.32	1528.37
399.51	1584.54
399.70	1544.75
399.90	1472.20
400.09	1554.12
400.28	1657.10
400.47	1610.29
400.67	1645.40
400.86	1537.73
401.05	1519.01
401.24	1727.32
401.44	1680.50
401.63	1722.63
401.82	1640.72
402.01	1692.21
402.21	1701.57
402.40	1678.16
402.59	1753.06
402.78	1799.87
402.97	1692.21
403.17	1710.93
403.36	1844.34
403.55	1722.63
403.74	1818.60
403.93	1755.40
404.13	1818.60
404.32	1884.13
404.51	1820.94
404.70	1909.88
404.89	1879.45
405.09	1909.88
405.28	1928.60
405.47	2015.20
405.66	1961.37
405.85	1954.35
406.05	1947.33
406.24	1968.39
406.43	2045.63
406.62	2148.61
406.81	2157.97
407.00	2064.35
407.20	2043.29
407.39	2078.40
407.58	2036.27
407.77	2134.57
407.96	2115.84
408.15	2167.34
408.34	2132.23
408.54	2246.91
408.73	2204.78
408.92	2214.15
409.11	2249.25
409.30	2363.94
409.49	2228.19
409.68	2289.04
409.87	2310.11
410.07	2221.17
410.26	2366.28
410.45	2452.88
410.64	2473.95
410.83	2415.43
411.02	2469.27
411.21	2506.71
411.40	2649.49
411.59	2546.50
411.78	2544.16
411.98	2539.48
412.17	2722.04
412.36	2555.86
412.55	2726.72
412.74	2616.72
412.93	2708.00
413.12	2619.06
413.31	2881.20
413.50	2663.53
413.69	2825.03
413.88	2808.64
414.07	2850.77
414.26	2995.89
414.45	2946.73
414.64	2806.30
414.83	3021.63
415.02	3068.44
415.22	3068.44
415.41	3101.21
415.60	3068.44
415.79	3033.33
415.98	3187.81
416.17	3262.71
416.36	3194.83
416.55	3309.52
416.74	3229.94
416.93	3295.47
417.12	3330.58
417.31	3438.25
417.50	3272.07
417.69	3328.24
417.88	3417.18
418.07	3311.86
418.26	3403.14
418.45	3527.19
418.64	3492.08
418.83	3562.30
419.02	3407.82
419.21	3449.95
419.39	3674.64
419.58	3559.95
419.77	3410.16
419.96	3688.68
420.15	3817.41
420.34	3681.66
420.53	3719.11
420.72	3749.54
420.91	3749.54
421.10	3833.80
421.29	3920.40
421.48	3824.44
421.67	3887.63
421.86	3791.67
422.05	3845.50
422.24	3630.17
422.43	3747.20
422.61	3826.78
422.80	3899.33
422.99	3971.89
423.18	3852.52
423.37	3861.88
423.56	3873.59
423.75	3873.59
423.94	3786.99
424.13	3730.81
424.32	3749.54
424.50	3866.56
424.69	3927.42
424.88	3892.31
425.07	3873.59
425.26	3805.71
425.45	3850.18
425.64	3969.55
425.83	3925.08
426.01	4079.55
426.20	3929.76
426.39	4009.34
426.58	3957.85
426.77	3880.61
426.96	4124.02
427.15	4046.79
427.33	4007.00
427.52	3974.23
427.71	4084.23
427.90	4053.81
428.09	4283.18
428.28	4234.03
428.46	3955.51
428.65	4152.11
428.84	4269.14
429.03	4334.67
429.22	4051.47
429.40	4191.90
429.59	4124.02
429.78	3960.19
429.97	3925.08
430.16	4077.21
430.34	4079.55
430.53	4107.64
430.72	4105.30
430.91	4210.62
431.10	4421.27
431.28	4430.63
431.47	4550.00
431.66	4547.66
431.85	4454.04
432.03	4449.36
432.22	4798.10
432.41	4564.04
432.60	4603.83
432.79	4592.13
432.97	4734.90
433.16	4608.51
433.35	4568.73
433.54	4772.35
433.72	4554.68
433.91	4704.48
434.10	4760.65
434.28	4758.31
434.47	4779.37
434.66	4901.08
434.85	4826.18
435.03	4924.49
435.22	5013.43
435.41	5186.63
435.59	5114.07
435.78	5118.75
435.97	5076.62
436.16	5121.09
436.34	5064.92
436.53	4922.15
436.72	5298.97
436.90	4973.64
437.09	5165.56
437.28	4975.98
437.46	5097.69
437.65	4994.70
437.84	5303.65
438.02	5153.86
438.21	4978.32
438.40	4910.44
438.58	5303.65
438.77	5298.97
438.96	5507.28
439.14	5675.80
439.33	5577.50
439.52	5476.85
439.70	5565.79
439.89	5568.13
440.08	5666.44
440.26	5715.59
440.45	5713.25
440.63	5804.53
440.82	5905.17
441.01	5977.73
441.19	5937.94
441.38	6010.50
441.57	6232.85
441.75	6160.29
441.94	6244.55
442.12	6139.23
442.31	6183.70
442.50	6169.65
442.68	6370.94
442.87	6183.70
443.05	6197.74
443.24	6380.30
443.43	6443.49
443.61	6525.41
443.80	6700.95
443.98	6450.52
444.17	6211.78
444.35	6487.96
444.54	6640.10
444.73	6579.25
444.91	6518.39
445.10	6265.61
445.28	6429.45
445.47	6202.42
445.65	6317.11
445.84	6331.15
446.02	6623.72
446.21	6420.09
446.39	6497.33
446.58	6476.26
446.77	6583.93
446.95	6623.72
447.14	6626.06
447.32	6794.58
447.51	6640.10
447.69	6619.04
447.88	6651.80
448.06	6719.68
448.25	6691.59
448.43	6803.94
448.62	6712.66
448.80	6628.40
448.99	6642.44
449.17	6724.36
449.36	6710.32
449.54	6794.58
449.73	7089.48
449.91	7124.59
450.10	7133.95
450.28	7045.01
450.46	7208.85
450.65	7185.44
450.83	7243.96
451.02	7103.53
451.20	7309.49
451.39	7157.36
451.57	7138.63
451.76	7288.43
451.94	7267.36
452.13	7187.79
452.31	7276.73
452.49	7148.00
452.68	7089.48
452.86	7077.78
453.05	7283.75
453.23	7213.53
453.42	7260.34
453.60	7349.28
453.78	7363.33
453.97	7398.43
454.15	7304.81
454.34	7386.73
454.52	7665.25
454.70	7339.92
454.89	7480.35
455.07	7466.31
455.26	7648.87
455.44	7868.88
455.62	7639.51
455.81	7599.72
455.99	7655.89
456.17	7801.01
456.36	7934.42
456.54	7817.39
456.73	7911.01
456.91	8154.43
457.09	7903.99
457.28	8262.09
457.46	7957.82
457.64	8074.85
457.83	7981.23
458.01	7838.45
458.19	8098.25
458.38	8056.12
458.56	8177.83
458.74	8264.43
458.93	8044.42
459.11	8042.08
459.29	8004.63
459.48	8196.56
459.66	8168.47
459.84	8243.37
460.03	8566.36
460.21	8517.21
460.39	8421.25
460.57	8287.84
460.76	8564.02
460.94	8535.93
461.12	8580.40
461.31	8486.78
461.49	8599.13
461.67	8493.80
461.85	8587.43
462.04	8627.21
462.22	9231.07
462.40	9071.92
462.59	8767.65
462.77	8833.18
462.95	8812.12
463.13	8868.29
463.32	8980.64
463.50	8882.33
463.68	8952.55
463.86	8978.30
464.05	8842.54
464.23	8849.57
464.41	9130.43
464.59	8844.88
464.78	9160.86
464.96	9186.60
465.14	8910.42
465.32	9097.66
465.50	9198.31
465.69	9298.95
465.87	9245.12
466.05	9001.70
466.23	9076.60
466.41	9109.36
466.60	9193.62
466.78	9074.26
466.96	9329.38
467.14	9132.77
467.32	9341.08
467.51	9528.32
467.69	9008.72
467.87	9163.20
468.05	9507.26
468.23	9535.34
468.41	9460.45
468.60	9479.17
468.78	9542.36
468.96	9427.68
469.14	9652.37
469.32	9834.93
469.50	9462.79
469.69	9727.27
469.87	9856.00
470.05	9692.16
470.23	9685.14
470.41	9767.06
470.59	9919.19
470.77	9626.62
470.95	9696.84
471.14	10134.52
471.32	10068.98
471.50	10157.92
471.68	10188.35
471.86	10218.78
472.04	10092.39
472.22	10478.58
472.40	10122.82
472.58	10286.65
472.77	10223.46
472.95	10548.79
473.13	10834.34
473.31	10534.75
473.49	10523.05
473.67	10525.39
473.85	10506.66
474.03	10902.22
474.21	10864.77
474.39	11016.90
474.57	11000.52
474.75	10916.26
474.93	11129.25
475.12	10946.69
475.30	11047.33
475.48	11080.10
475.66	11089.46
475.84	11358.62
476.02	11424.15
476.20	11321.17
476.38	11400.75
476.56	11866.52
476.74	11899.28
476.92	11894.60
477.10	11829.07
477.28	12114.61
477.46	11967.16
477.64	12035.03
477.82	12346.33
478.00	12795.71
478.18	12453.99
478.36	12470.37
478.54	12578.04
478.72	12688.04
478.90	12606.13
479.08	12868.27
479.26	13029.76
479.44	13060.19
479.62	13146.79
479.80	13083.59
479.98	13446.38
480.16	13731.92
480.34	13502.55
480.52	13657.03
480.70	13579.79
480.88	13668.73
481.06	13755.33
481.24	13750.65
481.41	14223.44
481.59	14286.63
481.77	14494.94
481.95	14354.51
482.13	14544.09
482.31	14693.88
482.49	14850.70
482.67	14796.87
482.85	15035.60
483.03	15037.94
483.21	15044.96
483.39	15431.15
483.57	14937.30
483.74	15286.04
483.92	15513.07
484.10	15346.89
484.28	15925.00
484.46	15889.90
484.64	16292.47
484.82	15962.45
485.00	16112.25
485.18	16531.20
485.35	16365.03
485.53	16067.78
485.71	16276.09
485.89	16468.01
486.07	16266.72
486.25	16599.08
486.43	16741.85
486.61	16575.67
486.78	17053.14
486.96	17359.75
487.14	17820.84
487.32	17345.71
487.50	17867.65
487.68	17720.20
487.85	18169.58
488.03	18450.44
488.21	18452.78
488.39	18202.35
488.57	18583.85
488.75	18511.30
488.92	18960.68
489.10	19133.88
489.28	19300.06
489.46	19648.80
489.64	19672.20
489.81	19948.39
489.99	19793.91
490.17	20395.43
490.35	20250.32
490.53	20240.95
490.70	20269.04
490.88	20236.27
491.06	20575.65
491.24	20477.35
491.41	20596.71
491.59	20685.65
491.77	20496.07
491.95	20992.26
492.13	21142.06
492.30	21240.36
492.48	21427.60
492.66	21362.07
492.84	21631.23
493.01	21715.49
493.19	21734.21
493.37	21888.69
493.54	22099.34
493.72	22544.04
493.90	22515.95
494.08	22705.54
494.25	23131.51
494.43	23414.72
494.61	23316.42
494.79	23470.89
494.96	23225.14
495.14	22953.63
495.32	23744.73
495.49	23449.83
495.67	23515.36
495.85	23854.74
496.02	24128.58
496.20	24252.63
496.38	24643.50
496.55	24580.31
496.73	25331.62
496.91	24622.44
497.09	25113.95
497.26	25298.85
497.44	24826.06
497.62	25429.92
497.79	25298.85
497.97	24999.26
498.14	25397.15
498.32	25507.16
498.50	25565.67
498.67	26045.48
498.85	26015.05
499.03	25979.95
499.20	25975.27
499.38	26085.27
499.56	26693.81
499.73	26579.12
499.91	26195.28
500.08	26480.82
500.26	25996.33
500.44	26209.32
500.61	26588.49
500.79	26202.30
500.97	26742.96
501.14	27084.68
501.32	26712.53
501.49	26916.16
501.67	27206.39
501.84	27618.32
502.02	27175.96
502.20	27606.62
502.37	27190.00
502.55	27585.55
502.72	27955.36
502.90	27777.48
503.07	27906.21
503.25	28163.67
503.43	27913.23
503.60	28137.92
503.78	27749.39
503.95	28184.73
504.13	28421.13
504.30	28690.29
504.48	28559.22
504.65	28620.07
504.83	29156.05
505.01	28980.51
505.18	29289.46
505.36	28922.00
505.53	29153.71
505.71	29514.16
505.88	29605.44
506.06	29308.19
506.23	29916.73
506.41	29352.66
506.58	29965.88
506.76	29455.64
506.93	29888.64
507.11	30059.50
507.28	29855.87
507.46	30040.78
507.63	30412.92
507.81	30223.34
507.98	30141.42
508.16	30228.02
508.33	30403.56
508.50	30579.10
508.68	30635.27
508.85	30717.19
509.03	30625.91
509.20	31089.34
509.38	31154.87
509.55	31129.12
509.73	31204.02
509.90	30941.88
510.08	31367.86
510.25	31115.08
510.42	31590.21
510.60	31927.25
510.77	31482.55
510.95	31819.58
511.12	31690.85
511.30	32151.94
511.47	32474.93
511.64	32079.38
511.82	32299.39
511.99	32121.51
512.17	32402.38
512.34	31845.33
512.51	32519.40
512.69	32304.07
512.86	32439.82
513.04	32648.13
513.21	32608.34
513.38	32577.92
513.56	32978.15
513.73	32437.48
513.90	32858.78
514.08	32716.01
514.25	32994.53
514.43	33331.57
514.60	32851.76
514.77	33563.28
514.95	33701.37
515.12	33511.79
515.29	33329.23
515.47	33944.79
515.64	33832.44
515.81	33846.49
515.99	33399.44
516.16	33818.40
516.33	33635.84
516.51	33605.41
516.68	33209.86
516.85	33069.43
517.03	33457.96
517.20	33797.34
517.37	33949.47
517.54	34408.22
517.72	34150.76
517.89	33965.85
518.06	33757.55
518.24	33818.40
518.41	33921.38
518.58	34242.04
518.75	34174.16
518.93	34483.11
519.10	34583.76
519.27	34724.19
519.45	34747.59
519.62	34988.67
519.79	35393.58
519.96	34885.68
520.14	35332.73
520.31	35124.42
520.48	35241.45
520.65	35599.55
520.83	35391.24
521.00	35889.77
521.17	35351.45
521.34	36060.63
521.52	36105.10
521.69	36037.23
521.86	36006.80
522.03	36397.67
522.20	36011.48
522.38	36320.43
522.55	36208.09
522.72	36364.90
522.89	36123.83
523.07	36928.97
523.24	36184.68
523.41	36725.35
523.58	36535.76
523.75	37109.19
523.92	37099.83
524.10	37471.98
524.27	37270.69
524.44	37254.31
524.61	37528.15
524.78	37394.74
524.96	37333.89
525.13	37378.36
525.30	37167.71
525.47	38012.64
525.64	37289.42
525.81	37097.49
525.98	37156.00
526.16	37383.04
526.33	37050.68
526.50	37717.73
526.67	36893.86
526.84	37247.29
527.01	37212.18
527.18	37886.25
527.36	38314.57
527.53	37909.66
527.70	37895.61
527.87	38096.90
528.04	37965.83
528.21	38380.10
528.38	38359.04
528.55	38632.88
528.72	38799.06
528.89	39166.52
529.07	38742.89
529.24	38171.80
529.41	39019.07
529.58	38394.15
529.75	38291.16
529.92	38848.21
530.09	38972.26
530.26	39068.22
530.43	38916.09
530.60	39033.11
530.77	39316.32
530.94	39161.84
531.11	39147.80
531.28	39304.62
531.46	38981.62
531.63	39276.53
531.80	39440.37
531.97	39196.95
532.14	39358.45
532.31	39377.17
532.48	39386.54
532.65	39744.64
532.82	39349.09
532.99	39697.83
533.16	39662.72
533.33	39992.73
533.50	39903.79
533.67	40053.59
533.84	39985.71
534.01	39702.51
534.18	39880.39
534.35	39931.88
534.52	40231.47
534.69	40217.43
534.86	40453.82
535.03	40535.74
535.20	41048.32
535.37	40456.16
535.54	40947.67
535.71	40601.27
535.88	40561.48
536.05	40002.10
536.22	41153.64
536.38	40671.49
536.55	41198.11
536.72	40900.86
536.89	40243.17
537.06	40690.21
537.23	40875.12
537.40	41029.59
537.57	40746.39
537.74	40989.80
537.91	41532.81
538.08	41273.01
538.25	40519.35
538.42	40996.82
538.59	41291.73
538.75	40968.74
538.92	41001.50
539.09	40968.74
539.26	41200.45
539.43	41118.53
539.60	41263.64
539.77	41708.35
539.94	41069.38
540.11	41237.90
540.28	40971.08
540.44	41642.81
540.61	41120.87
540.78	41240.24
540.95	41446.21
541.12	41221.52
541.29	41628.77
541.46	42211.56
541.62	41759.84
541.79	41670.90
541.96	41530.47
542.13	42206.88
542.30	41841.76
542.47	41970.49
542.63	41617.07
542.80	41942.40
542.97	42485.40
543.14	42398.80
543.31	42422.21
543.48	42534.56
543.64	43201.61
543.81	42644.56
543.98	42890.32
544.15	42768.61
544.32	42450.30
544.48	43271.82
544.65	43007.34
544.82	42972.24
544.99	42913.72
545.16	43002.66
545.32	42995.64
545.49	43372.47
545.66	43342.04
545.83	43311.61
546.00	42997.98
546.16	43126.71
546.33	43309.27
546.50	42536.90
546.67	42703.07
546.83	42948.83
547.00	43161.82
547.17	43068.20
547.34	43185.22
547.50	43470.77
547.67	43079.90
547.84	43297.57
548.00	43744.61
548.17	43807.81
548.34	43814.83
548.51	43732.91
548.67	43854.62
548.84	43763.34
549.01	44016.11
549.18	43498.86
549.34	43824.19
549.51	43641.63
549.68	44055.90
549.84	44062.93
550.01	43800.79
550.18	43578.43
550.34	43510.56
550.51	43480.13
550.68	44325.07
550.84	43548.01
551.01	43945.90
551.18	43803.13
551.34	43910.79
551.51	44287.62
551.68	44521.67
551.84	44423.37
552.01	44041.86
552.18	44266.55
552.34	43529.28
552.51	43952.92
552.68	44231.44
552.84	44009.09
553.01	44671.46
553.18	44484.22
553.34	44140.16
553.51	44186.97
553.67	44889.13
553.84	44498.26
554.01	44797.85
554.17	44505.29
554.34	44671.46
554.51	44837.64
554.67	44687.85
554.84	44985.10
555.00	44175.27
555.17	44746.36
555.33	44612.95
555.50	44708.91
555.67	44744.02
555.83	44823.60
556.00	44830.62
556.16	44893.82
556.33	44861.05
556.50	44708.91
556.66	44975.73
556.83	44935.95
556.99	44692.53
557.16	45095.10
557.32	44818.92
557.49	44884.45
557.65	44507.63
557.82	44996.80
557.98	45205.11
558.15	44959.35
558.32	44942.97
558.48	44903.18
558.65	44957.01
558.81	45099.78
558.98	44645.72
559.14	45153.62
559.31	45059.99
559.47	45429.80
559.64	44992.12
559.80	45076.38
559.97	45172.34
560.13	45336.18
560.30	45600.66
560.46	45441.50
560.63	45436.82
560.79	45394.69
560.96	45464.91
561.12	45275.32
561.29	45083.40
561.45	45242.56
561.61	45511.72
561.78	45443.84
561.94	45048.29
562.11	45104.46
562.27	45240.21
562.44	45539.80
562.60	45729.39
562.77	45584.27
562.93	45162.98
563.10	45694.28
563.26	45179.36
563.42	45818.33
563.59	45425.12
563.75	45495.33
563.92	45680.24
564.08	45382.99
564.24	45443.84
564.41	45614.70
564.57	45759.81
564.74	45460.23
564.90	45670.87
565.07	45670.87
565.23	45530.44
565.39	45336.18
565.56	45607.68
565.72	45619.38
565.88	45420.44
566.05	45654.49
566.21	45825.35
566.38	45769.18
566.54	45965.78
566.70	45581.93
566.87	46096.85
567.03	45766.84
567.19	46234.94
567.36	45684.92
567.52	45893.22
567.68	46141.32
567.85	45549.17
568.01	45851.09
568.17	45937.69
568.34	46000.89
568.50	45968.12
568.66	45911.95
568.83	45631.08
568.99	45705.98
569.15	45551.51
569.32	45490.65
569.48	45769.18
569.64	46103.87
569.81	45930.67
569.97	45916.63
570.13	46005.57
570.30	45492.99
570.46	45436.82
570.62	45308.09
570.78	45689.60
570.95	45673.21
571.11	45972.80
571.27	45799.60
571.43	45364.26
571.60	45565.55
571.76	45661.51
571.92	45801.94
572.09	45872.16
572.25	45811.31
572.41	45401.71
572.57	46120.26
572.74	46007.91
572.90	46529.85
573.06	46005.57
573.22	46270.05
573.38	45876.84
573.55	45743.43
573.71	46103.87
573.87	46157.70
574.03	45516.40
574.20	45612.36
574.36	45925.99
574.52	45808.96
574.68	45963.44
574.84	45778.54
575.01	45689.60
575.17	46195.15
575.33	45518.74
575.49	45518.74
575.65	46300.48
575.82	46326.22
575.98	46277.07
576.14	46405.80
576.30	46089.83
576.46	45872.16
576.62	45895.56
576.79	46106.21
576.95	46099.19
577.11	46031.32
577.27	45785.56
577.43	46555.60
577.59	46169.41
577.75	45787.90
577.92	45780.88
578.08	45872.16
578.24	45698.96
578.40	46017.27
578.56	46244.30
578.72	45935.35
578.88	46143.66
579.04	46239.62
579.21	45933.01
579.37	46054.72
579.53	46190.47
579.69	46136.64
579.85	45865.14
580.01	46064.08
580.17	45970.46
580.33	46052.38
580.49	46459.63
580.65	46354.31
580.82	45944.72
580.98	46148.34
581.14	46110.89
581.30	46532.19
581.46	45958.76
581.62	45862.80
581.78	46234.94
581.94	46478.36
582.10	45876.84
582.26	46419.84
582.42	46045.36
582.58	46471.34
582.74	46040.68
582.90	46323.88
583.06	46113.23
583.22	46131.96
583.38	46305.16
583.54	46564.96
583.70	46089.83
583.86	46440.91
584.02	45993.87
584.18	46174.09
584.34	46110.89
584.50	45844.07
584.66	46127.28
584.82	45862.80
584.98	46625.81
585.14	46600.07
585.30	45790.24
585.46	45930.67
585.62	46403.46
585.78	46199.83
585.94	45799.60
586.10	46024.29
586.26	46190.47
586.42	46251.33
586.58	46138.98
586.74	46295.80
586.90	46213.88
587.06	45804.28
587.22	46188.13
587.38	45860.46
587.54	46263.03
587.70	46344.95
587.86	45841.73
588.02	46412.82
588.18	46337.93
588.34	45977.48
588.49	45605.34
588.65	45289.37
588.81	45656.83
588.97	45574.91
589.13	45645.13
589.29	45993.87
589.45	45790.24
589.61	46066.42
589.77	46218.56
589.93	46237.28
590.08	46401.12
590.24	46373.03
590.40	46494.74
590.56	46588.36
590.72	46274.73
590.88	46057.06
591.04	46326.22
591.20	46899.65
591.35	46859.87
591.51	46653.90
591.67	46555.60
591.83	46412.82
591.99	45933.01
592.15	46342.61
592.31	45783.22
592.46	46422.19
592.62	46199.83
592.78	46319.20
592.94	46667.94
593.10	46450.27
593.26	46211.54
593.41	46061.74
593.57	46291.12
593.73	46113.23
593.89	46403.46
594.05	46218.56
594.20	46248.99
594.36	46190.47
594.52	45893.22
594.68	46024.29
594.84	46089.83
594.99	46735.82
595.15	45862.80
595.31	46490.06
595.47	46366.01
595.62	46225.58
595.78	46211.54
595.94	46534.53
596.10	46525.17
596.25	46483.04
596.41	46628.15
596.57	46557.94
596.73	46480.70
596.88	46052.38
597.04	46216.22
597.20	46319.20
597.36	46485.38
597.51	46887.95
597.67	47051.79
597.83	46431.55
597.99	47208.61
598.14	46546.23
598.30	46277.07
598.46	46082.81
598.61	46108.55
598.77	46134.30
598.93	46358.99
599.09	46569.64
599.24	46850.50
599.40	46974.55
599.56	46384.74
599.71	45956.42
599.87	46513.47
600.03	46609.43
600.18	46012.59
600.34	46106.21
600.50	46204.52
600.65	46036.00
600.81	46518.15
600.97	46443.25
601.12	46176.43
601.28	46583.68
601.44	46377.72
601.59	46370.69
601.75	46183.45
601.91	46040.68
602.06	46204.52
602.22	46143.66
602.37	46248.99
602.53	46260.69
602.69	46459.63
602.84	46260.69
603.00	46064.08
603.16	46454.95
603.31	46312.18
603.47	45855.78
603.62	46026.63
603.78	46415.16
603.94	46335.59
604.09	47093.92
604.25	46206.86
604.40	46024.29
604.56	46171.75
604.71	46138.98
604.87	46288.77
605.03	45830.03
605.18	45982.16
605.34	46265.37
605.49	46057.06
605.65	46354.31
605.80	45998.55
605.96	46377.72
606.12	46256.01
606.27	46548.57
606.43	46033.66
606.58	46330.90
606.74	46211.54
606.89	46075.79
607.05	46141.32
607.20	46260.69
607.36	46213.88
607.51	46267.71
607.67	45937.69
607.82	45694.28
607.98	45825.35
608.13	46024.29
608.29	45738.75
608.44	45776.20
608.60	45778.54
608.75	45441.50
608.91	45820.67
609.06	46181.11
609.22	45762.15
609.37	45792.58
609.53	46120.26
609.68	45799.60
609.84	45949.40
609.99	45844.07
610.15	45492.99
610.30	45720.02
610.46	45537.46
610.61	45689.60
610.76	45961.10
610.92	46026.63
611.07	46120.26
611.23	45801.94
611.38	45603.00
611.54	45675.55
611.69	45474.27
611.84	45270.64
612.00	44921.90
612.15	45359.58
612.31	45354.90
612.46	45813.65
612.62	45787.90
612.77	45333.84
612.92	45839.39
613.08	45481.29
613.23	45432.14
613.39	45516.40
613.54	45268.30
613.69	45308.09
613.85	45291.71
614.00	45064.67
614.15	45542.14
614.31	45268.30
614.46	45390.01
614.62	45366.60
614.77	45654.49
614.92	45748.11
615.08	44673.81
615.23	45127.87
615.38	44877.43
615.54	44863.39
615.69	44638.70
615.84	44898.50
616.00	44947.65
616.15	45214.47
616.30	45125.53
616.46	44601.25
616.61	44865.73
616.76	44797.85
616.92	44863.39
617.07	44500.61
617.22	44472.52
617.37	44540.39
617.53	45104.46
617.68	44547.42
617.83	45237.87
617.99	44947.65
618.14	44779.13
618.29	44863.39
618.45	44308.68
618.60	44231.44
618.75	44456.14
618.90	44369.54
619.06	44222.08
619.21	44395.28
619.36	44896.16
619.51	44800.19
619.67	44280.60
619.82	44259.53
619.97	44451.45
620.12	44610.61
620.28	43800.79
620.43	44236.12
620.58	44350.81
620.73	44065.27
620.89	43906.11
621.04	43861.64
621.19	44100.37
621.34	44430.39
621.49	44273.57
621.65	44095.69
621.80	44430.39
621.95	44177.61
622.10	44161.23
622.25	43248.42
622.41	43915.47
622.56	43557.37
622.71	44102.71
622.86	43976.33
623.01	43779.72
623.16	43749.29
623.32	43402.89
623.47	44102.71
623.62	43629.93
623.77	43758.66
623.92	43962.28
624.07	43278.85
624.23	43697.80
624.38	43395.87
624.53	43648.65
624.68	43618.22
624.83	43714.19
624.98	43653.33
625.13	43566.73
625.29	43210.97
625.44	43522.26
625.59	43075.22
625.74	43157.14
625.89	42817.76
626.04	43171.18
626.19	43730.57
626.34	43409.92
626.49	43363.11
626.65	43152.46
626.80	43276.51
626.95	42700.73
627.10	42738.18
627.25	43082.24
627.40	42567.32
627.55	42422.21
627.70	42450.30
627.85	42555.62
628.00	42621.16
628.15	42951.17
628.30	42632.86
628.45	43112.67
628.60	42866.91
628.76	42241.99
628.91	42841.17
629.06	42490.09
629.21	42263.05
629.36	42602.43
629.51	42370.72
629.66	42712.44
629.81	42122.62
629.96	42600.09
630.11	42859.89
630.26	42946.49
630.41	42742.86
630.56	42192.84
630.71	42213.90
630.86	42003.25
631.01	42075.81
631.16	42560.30
631.31	42078.15
631.46	41745.80
631.61	41741.11
631.76	42326.25
631.91	41907.29
632.06	42197.52
632.21	42143.69
632.36	42342.63
632.51	41759.84
632.66	41876.86
632.81	41467.27
632.96	41626.43
633.10	42204.54
633.25	41794.95
633.40	41858.14
633.55	42115.60
633.70	41619.41
633.85	41368.97
634.00	42036.02
634.15	41647.49
634.30	41546.85
634.45	41139.60
634.60	41680.26
634.75	41893.25
634.90	41511.74
635.05	41345.56
635.19	41184.07
635.34	41394.71
635.49	41588.98
635.64	41170.02
635.79	41361.95
635.94	41401.74
636.09	41249.60
636.24	41329.18
636.39	41099.81
636.53	41165.34
636.68	41177.04
636.83	41448.55
636.98	41340.88
637.13	40914.90
637.28	41385.35
637.43	41542.17
637.57	41247.26
637.72	41329.18
637.87	41127.89
638.02	40898.52
638.17	41113.85
638.32	41198.11
638.46	40989.80
638.61	40964.06
638.76	40802.56
638.91	40935.97
639.06	40961.72
639.20	41067.04
639.35	41610.04
639.50	41085.76
639.65	41010.87
639.80	40722.98
639.94	40603.61
640.09	40912.56
640.24	40687.87
640.39	40252.53
640.54	40453.82
640.68	40402.33
640.83	40491.27
640.98	40776.81
641.13	40493.61
641.27	40730.00
641.42	40161.25
641.57	40062.95
641.72	40163.59
641.86	40353.18
642.01	40369.56
642.16	40311.05
642.31	40201.04
642.45	40444.46
642.60	39976.35
642.75	40240.83
642.90	40144.87
643.04	40538.08
643.19	40416.37
643.34	40439.78
643.48	39344.41
643.63	40065.29
643.78	40044.23
643.93	39842.94
644.07	40055.93
644.22	39627.61
644.37	39688.46
644.51	39512.92
644.66	39505.90
644.81	39655.70
644.95	40259.55
645.10	39917.84
645.25	39700.17
645.39	39840.60
645.54	39512.92
645.69	39866.34
645.83	39578.46
645.98	39716.55
646.13	39931.88
646.27	39686.12
646.42	39894.43
646.57	39531.65
646.71	39454.41
646.86	39538.67
647.00	39316.32
647.15	40102.74
647.30	39409.94
647.44	39784.43
647.59	39323.34
647.74	38967.58
647.88	39026.09
648.03	39210.99
648.17	39295.25
648.32	39152.48
648.47	39203.97
648.61	39232.06
648.76	39763.36
648.90	39318.66
649.05	39192.27
649.20	39164.18
649.34	39180.57
649.49	38738.21
649.63	38988.64
649.78	38878.64
649.92	38653.95
650.07	39058.86
650.21	38754.59
650.36	38916.09
650.51	38682.03
650.65	39419.30
650.80	39089.29
650.94	39454.41
651.09	39143.12
651.23	38548.62
651.38	38843.53
651.52	38195.20
651.67	38714.80
651.81	38696.08
651.96	38789.70
652.10	38682.03
652.25	38682.03
652.39	38871.62
652.54	38483.09
652.68	38525.22
652.83	38623.52
652.97	38763.95
653.12	38401.17
653.26	38249.03
653.41	38347.34
653.55	38244.35
653.70	38209.25
653.84	38597.77
653.99	38321.59
654.13	38225.63
654.27	38155.41
654.42	37390.06
654.56	38082.86
654.71	38036.05
654.85	38007.96
655.00	38373.08
655.14	37860.51
655.29	37366.65
655.43	37448.57
655.57	37521.13
655.72	37254.31
655.86	37303.46
656.01	37177.07
656.15	37301.12
656.30	37703.69
656.44	37366.65
656.58	37783.27
656.73	37684.97
656.87	37495.38
657.01	37525.81
657.16	37294.10
657.30	37413.46
657.45	36727.69
657.59	37053.02
657.73	37024.93
657.88	37897.95
658.02	37631.13
658.16	37748.16
658.31	37801.99
658.45	37134.94
658.60	37008.55
658.74	36985.15
658.88	37015.57
659.03	37230.90
659.17	37078.77
659.31	37053.02
659.46	37373.67
659.60	37076.43
659.74	36940.68
659.89	36591.94
660.03	36746.41
660.17	36779.18
660.32	37228.56
660.46	37090.47
660.60	36758.11
660.74	36563.85
660.89	36453.84
661.03	36332.14
661.17	36594.28
661.32	36233.83
661.46	36327.45
661.60	36444.48
661.74	36067.66
661.89	36226.81
662.03	36458.52
662.17	36182.34
662.31	35959.99
662.46	36683.22
662.60	36245.54
662.74	36381.29
662.88	35913.18
663.03	35651.04
663.17	35976.37
663.31	35690.83
663.45	35693.17
663.60	35777.43
663.74	35236.77
663.88	35571.46
664.02	35295.28
664.17	35817.22
664.31	35103.35
664.45	35601.89
664.59	34983.99
664.73	35051.86
664.88	35723.60
665.02	34972.28
665.16	34979.31
665.30	34759.30
665.44	35065.91
665.59	34543.97
665.73	35063.57
665.87	34969.94
666.01	34707.80
666.15	34892.71
666.29	34712.49
666.44	35119.74
666.58	34316.93
666.72	34340.34
666.86	34754.61
667.00	34176.50
667.14	34078.20
667.28	34019.69
667.43	34359.06
667.57	34312.25
667.71	34394.17
667.85	34323.96
667.99	34445.66
668.13	33902.66
668.27	34022.03
668.41	34539.29
668.56	34132.03
668.70	33963.51
668.84	33900.32
668.98	33514.13
669.12	33684.99
669.26	33567.96
669.40	33163.05
669.54	33467.32
669.68	33516.47
669.82	33509.45
669.96	33261.35
670.10	33083.47
670.25	33472.00
670.39	32622.39
670.53	32580.26
670.67	32566.21
670.81	32765.16
670.95	32957.08
671.09	32929.00
671.23	32868.14
671.37	32865.80
671.51	32329.82
671.65	32210.45
671.79	32519.40
671.93	32402.38
672.07	32617.71
672.21	32011.51
672.35	32355.57
672.49	32299.39
672.63	32266.63
672.77	32215.13
672.91	32449.19
673.05	31969.38
673.19	32444.51
673.33	31889.80
673.47	31566.81
673.61	31608.93
673.75	31424.03
673.89	31309.35
674.03	31292.96
674.17	31276.58
674.31	31119.76
674.45	30932.52
674.59	31239.13
674.73	31337.43
674.87	31730.64
675.01	31154.87
675.15	31028.48
675.29	31021.46
675.43	31157.21
675.56	30644.63
675.70	30721.87
675.84	30539.31
675.98	29593.73
676.12	30576.76
676.26	30532.29
676.40	30792.09
676.54	30775.70
676.68	30363.77
676.82	29809.06
676.96	29762.25
677.10	30118.01
677.23	29813.74
677.37	29846.51
677.51	29502.45
677.65	29434.58
677.79	29109.24
677.93	29273.08
678.07	29179.46
678.21	28720.71
678.34	28837.74
678.48	28847.10
678.62	28889.23
678.76	28320.48
678.90	28435.17
679.04	28526.45
679.18	28423.47
679.31	28194.09
679.45	28308.78
679.59	28484.32
679.73	28231.54
679.87	27974.08
680.00	28023.23
680.14	27857.06
680.28	27920.25
680.42	27297.67
680.56	27857.06
680.70	27690.88
680.83	27679.18
680.97	27388.95
681.11	27475.55
681.25	27154.90
681.39	27302.35
681.52	27133.83
681.66	27321.07
681.80	27461.51
681.94	26747.64
682.07	26569.76
682.21	26831.90
682.35	26508.91
682.49	26490.18
682.62	26768.71
682.76	26326.35
682.90	26499.55
683.04	26169.53
683.17	25944.84
683.31	25954.20
683.45	25614.82
683.59	25841.85
683.72	25319.92
683.86	25584.40
684.00	25762.28
684.13	25493.12
684.27	25439.28
684.41	25160.76
684.55	25132.67
684.68	25301.19
684.82	24912.66
684.96	25254.38
685.09	25277.79
685.23	25043.73
685.37	24938.41
685.50	24730.10
685.64	24746.48
685.78	24531.15
685.91	24313.48
686.05	24430.51
686.19	24039.64
686.32	23693.24
686.46	23899.21
686.60	23506.00
686.73	23337.48
686.87	23084.70
687.01	23384.29
687.14	23243.86
687.28	22897.46
687.42	23206.41
687.55	23206.41
687.69	23218.11
687.82	23197.05
687.96	23197.05
688.10	22583.83
688.23	22948.95
688.37	22527.66
688.50	22312.33
688.64	22593.19
688.78	22714.90
688.91	22466.80
689.05	22419.99
689.18	22431.69
689.32	22242.11
689.46	21736.56
689.59	22244.45
689.73	21996.35
689.86	21661.66
690.00	21989.33
690.13	21891.03
690.27	21937.84
690.41	21846.56
690.54	21097.59
690.68	21284.83
690.81	21252.06
690.95	21245.04
691.08	20936.09
691.22	21472.07
691.35	21060.14
691.49	21223.98
691.62	20704.38
691.76	20989.92
691.89	20987.58
692.03	20397.77
692.16	20519.48
692.30	20458.62
692.43	20346.28
692.57	20247.97
692.70	20121.59
692.84	19953.07
692.97	19929.66
693.11	20102.86
693.24	19791.57
693.38	19686.25
693.51	19765.82
693.65	19857.10
693.78	19601.99
693.92	19419.42
694.05	19538.79
694.19	19590.28
694.32	19370.27
694.45	19096.43
694.59	18986.43
694.72	18956.00
694.86	19068.34
694.99	18654.07
695.13	18803.86
695.26	18862.38
695.39	18761.73
695.53	18700.88
695.66	18625.98
695.80	18497.25
695.93	18658.75
696.07	18118.09
696.20	18061.91
696.33	18340.44
696.47	18150.85
696.60	18036.17
696.73	18022.12
696.87	18045.53
697.00	17785.73
697.14	17790.41
697.27	17736.58
697.40	17467.42
697.54	17549.34
697.67	17469.76
697.80	17547.00
697.94	16957.18
698.07	16978.25
698.21	17114.00
698.34	17015.69
698.47	17067.19
698.61	16788.66
698.74	16760.58
698.87	16552.27
699.01	16493.76
699.14	16341.62
699.27	16531.20
699.40	16379.07
699.54	16322.90
699.67	16243.32
699.80	16315.87
699.94	15960.11
700.07	16025.65
700.20	16149.70
700.34	16065.44
700.47	16163.74
700.60	16030.33
700.73	16264.38
700.87	15602.01
701.00	15587.97
701.13	15770.53
701.26	15510.73
701.40	15534.14
701.53	15267.31
701.66	15192.42
701.79	15047.30
701.93	15183.06
702.06	15061.35
702.19	15047.30
702.32	15101.14
702.46	14761.76
702.59	14839.00
702.72	14937.30
702.85	14883.47
702.99	14410.68
703.12	14736.01
703.25	14595.58
703.38	14525.36
703.51	14223.44
703.65	14403.66
703.78	14190.67
703.91	14099.39
704.04	14047.90
704.17	14115.77
704.31	13977.68
704.44	14270.25
704.57	13935.55
704.70	13839.59
704.83	13830.23
704.96	13701.50
705.10	13448.72
705.23	13624.26
>>>>>End Processed Spectral Data<<<<<
