SpectraSuite Data File
++++++++++++++++++++++++++++++++++++
Date: Fri Oct 25 11:34:46 EDT 2013
User: price-jones
Dark Spectrum Present: No
Reference Spectrum Present: No
Number of Sampled Component Spectra: 1
Spectrometers: USB2+H05261
Integration Time (usec): 100000 (USB2+H05261)
Spectra Averaged: 1 (USB2+H05261)
Boxcar Smoothing: 0 (USB2+H05261)
Correct for Electrical Dark: No (USB2+H05261)
Strobe/Lamp Enabled: No (USB2+H05261)
Correct for Detector Non-linearity: No (USB2+H05261)
Correct for Stray Light: No (USB2+H05261)
Number of Pixels in Processed Spectrum: 2048
>>>>>Begin Processed Spectral Data<<<<<
365.73	337.04
365.92	337.04
366.12	337.04
366.32	196.60
366.52	166.18
366.72	154.48
366.91	227.03
367.11	208.31
367.31	189.58
367.51	208.31
367.70	177.88
367.90	156.82
368.10	180.22
368.30	154.48
368.49	107.66
368.69	255.12
368.89	234.05
369.09	170.86
369.28	215.33
369.48	271.50
369.68	234.05
369.87	320.65
370.07	259.80
370.27	290.23
370.47	369.80
370.66	449.38
370.86	531.30
371.06	524.28
371.25	512.58
371.45	507.90
371.65	641.31
371.84	512.58
372.04	550.03
372.24	517.26
372.44	493.85
372.63	594.50
372.83	582.79
373.03	587.47
373.22	592.16
373.42	667.05
373.62	655.35
373.81	711.52
374.01	667.05
374.21	653.01
374.40	660.03
374.60	664.71
374.79	641.31
374.99	631.94
375.19	620.24
375.38	648.33
375.58	690.46
375.78	732.59
375.97	699.82
376.17	697.48
376.37	758.33
376.56	697.48
376.76	629.60
376.95	702.16
377.15	706.84
377.35	674.07
377.54	650.67
377.74	739.61
377.93	718.54
378.13	702.16
378.33	643.65
378.52	664.71
378.72	657.69
378.91	784.08
379.11	711.52
379.31	683.44
379.50	645.99
379.70	748.97
379.89	713.86
380.09	732.59
380.28	641.31
380.48	709.18
380.68	695.14
380.87	643.65
381.07	737.27
381.26	746.63
381.46	755.99
381.65	699.82
381.85	690.46
382.04	741.95
382.24	770.04
382.43	767.70
382.63	741.95
382.83	730.25
383.02	805.14
383.22	784.08
383.41	777.06
383.61	767.70
383.80	786.42
384.00	800.46
384.19	788.76
384.39	812.17
384.58	851.96
384.78	861.32
384.97	791.10
385.17	800.46
385.36	830.89
385.56	821.53
385.75	826.21
385.95	788.76
386.14	854.30
386.34	819.19
386.53	837.91
386.72	924.51
386.92	870.68
387.11	851.96
387.31	875.36
387.50	887.06
387.70	891.74
387.89	891.74
388.09	891.74
388.28	882.38
388.48	870.68
388.67	858.98
388.86	842.59
389.06	849.61
389.25	856.64
389.45	971.32
389.64	905.79
389.84	877.70
390.03	961.96
390.22	922.17
390.42	976.00
390.61	978.34
390.81	947.92
391.00	877.70
391.19	1062.60
391.39	973.66
391.58	1048.56
391.78	1057.92
391.97	1008.77
392.16	924.51
392.36	1001.75
392.55	1060.26
392.75	1062.60
392.94	1034.52
393.13	1057.92
393.33	1032.18
393.52	1032.18
393.71	1093.03
393.91	1015.79
394.10	978.34
394.29	1074.31
394.49	1078.99
394.68	1076.65
394.88	1186.65
395.07	1032.18
395.26	1123.46
395.46	1093.03
395.65	1118.78
395.84	1193.67
396.04	1224.10
396.23	1130.48
396.42	1149.20
396.62	1104.73
396.81	1191.33
397.00	1125.80
397.19	1219.42
397.39	1191.33
397.58	1100.05
397.77	1053.24
397.97	1170.27
398.16	1282.61
398.35	1249.85
398.55	1224.10
398.74	1174.95
398.93	1233.46
399.12	1217.08
399.32	1336.45
399.51	1224.10
399.70	1242.82
399.90	1268.57
400.09	1322.40
400.28	1275.59
400.47	1313.04
400.67	1357.51
400.86	1310.70
401.05	1366.87
401.24	1373.89
401.44	1448.79
401.63	1338.79
401.82	1392.62
402.01	1261.55
402.21	1366.87
402.40	1423.05
402.59	1507.30
402.78	1371.55
402.97	1572.84
403.17	1465.18
403.36	1364.53
403.55	1416.02
403.74	1561.14
403.93	1469.86
404.13	1540.07
404.32	1582.20
404.51	1502.62
404.70	1533.05
404.89	1516.67
405.09	1591.56
405.28	1633.69
405.47	1664.12
405.66	1621.99
405.85	1680.50
406.05	1675.82
406.24	1638.38
406.43	1621.99
406.62	1715.61
406.81	1682.85
407.00	1701.57
407.20	1659.44
407.39	1755.40
407.58	1764.76
407.77	1825.62
407.96	1825.62
408.15	1781.15
408.34	1806.89
408.54	1790.51
408.73	1722.63
408.92	1863.07
409.11	1825.62
409.30	1834.98
409.49	1844.34
409.68	1963.71
409.87	1839.66
410.07	1954.35
410.26	1961.37
410.45	1942.64
410.64	1926.26
410.83	2029.24
411.02	2036.27
411.21	2071.37
411.40	2024.56
411.59	2106.48
411.78	2090.10
411.98	2069.03
412.17	2136.91
412.36	2143.93
412.55	2193.08
412.74	2242.23
412.93	2267.98
413.12	2204.78
413.31	2246.91
413.50	2260.96
413.69	2331.17
413.88	2298.41
414.07	2345.22
414.26	2373.30
414.45	2277.34
414.64	2361.60
414.83	2473.95
415.02	2478.63
415.22	2476.29
415.41	2567.57
415.60	2499.69
415.79	2607.36
415.98	2623.74
416.17	2581.61
416.36	2647.15
416.55	2476.29
416.74	2691.62
416.93	2586.29
417.12	2670.55
417.31	2658.85
417.50	2803.96
417.69	2829.71
417.88	2778.22
418.07	2808.64
418.26	2698.64
418.45	2832.05
418.64	2956.10
418.83	2892.90
419.02	2925.67
419.21	3047.38
419.39	2993.55
419.58	2876.52
419.77	2981.84
419.96	2995.89
420.15	3047.38
420.34	3009.93
420.53	3028.65
420.72	3054.40
420.91	3012.27
421.10	2986.52
421.29	3136.32
421.48	3166.74
421.67	3211.22
421.86	3236.96
422.05	3096.53
422.24	3110.57
422.43	3052.06
422.61	3187.81
422.80	3335.26
422.99	3342.28
423.18	3211.22
423.37	3279.09
423.56	3236.96
423.75	3300.16
423.94	3194.83
424.13	2899.92
424.32	3040.36
424.50	3311.86
424.69	3330.58
424.88	3281.43
425.07	3302.50
425.26	3187.81
425.45	3428.88
425.64	3351.65
425.83	3234.62
426.01	3339.94
426.20	3178.45
426.39	3361.01
426.58	3300.16
426.77	3398.46
426.96	3346.97
427.15	3410.16
427.33	3419.52
427.52	3487.40
427.71	3438.25
427.90	3468.67
428.09	3377.39
428.28	3468.67
428.46	3346.97
428.65	3522.51
428.84	3574.00
429.03	3651.24
429.22	3529.53
429.40	3599.74
429.59	3552.93
429.78	3475.70
429.97	3524.85
430.16	3578.68
430.34	3679.32
430.53	3648.90
430.72	3585.70
430.91	3562.30
431.10	3569.32
431.28	3709.75
431.47	3796.35
431.66	3737.84
431.85	3784.65
432.03	3894.65
432.22	4081.89
432.41	3953.16
432.60	3721.45
432.79	3885.29
432.97	3927.42
433.16	3847.84
433.35	3831.46
433.54	4016.36
433.72	3941.46
433.91	3995.29
434.10	3948.48
434.28	3999.98
434.47	3992.95
434.66	4100.62
434.85	4084.23
435.03	4166.15
435.22	4046.79
435.41	4248.07
435.59	4224.67
435.78	4170.83
435.97	4191.90
436.16	4234.03
436.34	4131.05
436.53	4147.43
436.72	4217.65
436.90	4138.07
437.09	4329.99
437.28	4198.92
437.46	4273.82
437.65	4430.63
437.84	4315.95
438.02	4416.59
438.21	4292.54
438.40	4285.52
438.58	4528.94
438.77	4512.55
438.96	4578.09
439.14	4608.51
439.33	4564.04
439.52	4594.47
439.70	4741.93
439.89	4615.54
440.08	4704.48
440.26	4622.56
440.45	4631.92
440.63	4730.22
440.82	5041.51
441.01	4772.35
441.19	4875.34
441.38	4837.89
441.57	4978.32
441.75	5156.20
441.94	4973.64
442.12	4929.17
442.31	5050.88
442.50	5193.65
442.68	5186.63
442.87	5053.22
443.05	5151.52
443.24	5277.91
443.43	5317.70
443.61	5303.65
443.80	5359.83
443.98	5088.32
444.17	5022.79
444.35	5359.83
444.54	5366.85
444.73	5160.88
444.91	5221.74
445.10	5357.49
445.28	5373.87
445.47	5392.59
445.65	5298.97
445.84	5497.92
446.02	5303.65
446.21	5327.06
446.39	5275.57
446.58	5465.15
446.77	5514.30
446.95	5280.25
447.14	5394.93
447.32	5535.37
447.51	5624.31
447.69	5275.57
447.88	5490.90
448.06	5423.02
448.25	5561.11
448.43	5479.19
448.62	5549.41
448.80	5502.60
448.99	5743.67
449.17	5495.58
449.36	5399.62
449.54	5659.42
449.73	5771.76
449.91	5659.42
450.10	5856.02
450.28	5900.49
450.46	5886.45
450.65	5680.48
450.83	5877.09
451.02	5820.91
451.20	5959.00
451.39	5851.34
451.57	5937.94
451.76	5753.04
451.94	5790.49
452.13	6045.60
452.31	5959.00
452.49	5834.96
452.68	5923.90
452.86	5795.17
453.05	6031.56
453.23	6071.35
453.42	5753.04
453.60	5867.72
453.78	5996.45
453.97	6176.67
454.15	6211.78
454.34	5949.64
454.52	6214.12
454.70	6129.86
454.89	6392.00
455.07	6132.20
455.26	6204.76
455.44	6155.61
455.62	6282.00
455.81	6335.83
455.99	6408.39
456.17	6368.60
456.36	6401.37
456.54	6417.75
456.73	6527.75
456.91	6740.74
457.09	6677.55
457.28	6715.00
457.46	6609.67
457.64	6651.80
457.83	6740.74
458.01	6647.12
458.19	6668.19
458.38	6626.06
458.56	6761.81
458.74	6796.92
458.93	6927.99
459.11	6939.69
459.29	6927.99
459.48	6843.73
459.66	6761.81
459.84	6988.84
460.03	7021.61
460.21	7054.37
460.39	7023.95
460.57	7005.22
460.76	7007.56
460.94	7014.59
461.12	7220.55
461.31	7241.62
461.49	6960.75
461.67	7091.82
461.85	7185.44
462.04	7290.77
462.22	7377.37
462.40	7276.73
462.59	7300.13
462.77	7213.53
462.95	7562.27
463.13	7473.33
463.32	7321.20
463.50	7566.95
463.68	7559.93
463.86	7634.83
464.05	7456.95
464.23	7470.99
464.41	7646.53
464.59	7463.97
464.78	7770.58
464.96	7412.48
465.14	7480.35
465.32	7592.70
465.50	7805.69
465.69	7730.79
465.87	7740.15
466.05	7751.85
466.23	7414.82
466.41	7588.02
466.60	7885.26
466.78	7805.69
466.96	7672.28
467.14	7702.70
467.32	7845.48
467.51	7908.67
467.69	7779.94
467.87	7850.16
468.05	7840.79
468.23	7754.19
468.41	7808.03
468.60	7925.05
468.78	8025.70
468.96	7927.39
469.14	8205.92
469.32	8159.11
469.50	8074.85
469.69	8238.69
469.87	8376.78
470.05	8149.75
470.23	8149.75
470.41	8339.33
470.59	8339.33
470.77	8252.73
470.95	8528.91
471.14	8484.44
471.32	8365.07
471.50	8491.46
471.68	8512.53
471.86	8456.36
472.04	8645.94
472.22	8795.73
472.40	8784.03
472.58	8762.97
472.77	8732.54
472.95	8903.40
473.13	9170.22
473.31	8741.90
473.49	8767.65
473.67	8814.46
473.85	8950.21
474.03	9043.83
474.21	9088.30
474.39	9266.18
474.57	9423.00
474.75	9291.93
474.93	9551.73
475.12	9336.40
475.30	9336.40
475.48	9488.53
475.66	9486.19
475.84	9533.00
476.02	9722.59
476.20	9682.80
476.38	9694.50
476.56	10033.88
476.74	9982.38
476.92	9764.72
477.10	9762.37
477.28	9980.04
477.46	10108.77
477.64	10164.95
477.82	10384.96
478.00	10614.33
478.18	10597.95
478.36	10736.04
478.54	10647.10
478.72	10780.51
478.90	10832.00
479.08	10780.51
479.26	11110.52
479.44	11005.20
479.62	10970.09
479.80	11222.87
479.98	11225.21
480.16	11587.99
480.34	11477.99
480.52	11463.94
480.70	11602.04
480.88	11438.20
481.06	11674.59
481.24	11845.45
481.41	11808.00
481.59	11903.96
481.77	12294.83
481.95	11992.90
482.13	12187.17
482.31	12294.83
482.49	12697.41
482.67	12496.12
482.85	12793.37
483.03	12931.46
483.21	12905.71
483.39	13266.16
483.57	12964.23
483.74	13172.54
483.92	13233.39
484.10	13036.78
484.28	13717.88
484.46	13682.77
484.64	14057.26
484.82	13453.40
485.00	13745.97
485.18	14347.48
485.35	14513.66
485.53	14071.30
485.71	14420.04
485.89	14485.58
486.07	14707.93
486.25	14520.68
486.43	14497.28
486.61	14764.10
486.78	14817.93
486.96	15108.16
487.14	15101.14
487.32	15248.59
487.50	15494.35
487.68	15735.42
487.85	15793.94
488.03	15852.45
488.21	15915.64
488.39	15896.92
488.57	16428.22
488.75	16116.93
488.92	16276.09
489.10	16360.34
489.28	16535.88
489.46	16809.73
489.64	16929.09
489.81	16996.97
489.99	16943.14
490.17	17088.25
490.35	17511.89
490.53	17268.47
490.70	17408.90
490.88	17710.83
491.06	18181.28
491.24	18059.57
491.41	17841.90
491.59	18176.60
491.77	18003.40
491.95	18398.95
492.13	18258.52
492.30	18541.72
492.48	18602.58
492.66	18462.15
492.84	18558.11
493.01	18888.12
493.19	19295.38
493.37	19021.53
493.54	19269.63
493.72	19424.11
493.90	19513.05
494.08	19782.21
494.25	19625.39
494.43	19772.85
494.61	19716.67
494.79	20198.82
494.96	19850.08
495.14	20006.90
495.32	20475.01
495.49	20327.55
495.67	20577.99
495.85	20510.11
496.02	20671.61
496.20	21060.14
496.38	21125.68
496.55	20814.38
496.73	21724.85
496.91	21270.79
497.09	21605.49
497.26	21891.03
497.44	21308.24
497.62	21624.21
497.79	22008.06
497.97	21935.50
498.14	22176.58
498.32	22057.21
498.50	22263.18
498.67	22710.22
498.85	22625.96
499.03	22960.66
499.20	22981.72
499.38	22857.67
499.56	22979.38
499.73	23206.41
499.91	22843.63
500.08	23087.04
500.26	23040.23
500.44	23477.91
500.61	23346.84
500.79	23234.50
500.97	23426.42
501.14	24041.98
501.32	23889.85
501.49	23747.08
501.67	23704.95
501.84	24006.87
502.02	23761.12
502.20	24208.16
502.37	24159.01
502.55	24212.84
502.72	24163.69
502.90	24379.02
503.07	24561.58
503.25	24465.62
503.43	24716.06
503.60	24713.72
503.78	24896.28
503.95	24631.80
504.13	25022.67
504.30	25111.61
504.48	24896.28
504.65	25331.62
504.83	25427.58
505.01	25919.09
505.18	25549.29
505.36	25715.47
505.53	25790.36
505.71	25727.17
505.88	26457.42
506.06	25869.94
506.23	25937.82
506.41	25802.07
506.58	25984.63
506.76	26274.85
506.93	26324.01
507.11	26232.72
507.28	26775.73
507.46	26445.71
507.63	26637.64
507.81	26740.62
507.98	26078.25
508.16	26766.37
508.33	26850.63
508.50	26876.37
508.68	27005.10
508.85	27669.81
509.03	27253.20
509.20	26792.11
509.38	27459.16
509.55	27730.67
509.73	27735.35
509.90	27896.85
510.08	27529.38
510.25	27524.70
510.42	27800.88
510.60	28098.13
510.77	27906.21
510.95	28547.51
511.12	28390.70
511.30	28142.60
511.47	28126.22
511.64	28430.49
511.82	28175.37
511.99	28371.97
512.17	28559.22
512.34	28648.16
512.51	29074.13
512.69	28849.44
512.86	29125.63
513.04	29188.82
513.21	29008.60
513.38	29202.86
513.56	29134.99
513.73	29493.09
513.90	29364.36
514.08	29628.84
514.25	29633.52
514.43	29757.57
514.60	29818.42
514.77	29642.88
514.95	29979.92
515.12	29434.58
515.29	30197.59
515.47	30171.85
515.64	30064.18
515.81	30185.89
515.99	30410.58
516.16	30146.10
516.33	30834.22
516.51	30979.33
516.68	30501.86
516.85	30424.62
517.03	30768.68
517.20	30862.30
517.37	30490.16
517.54	30682.08
517.72	31122.10
517.89	30735.92
518.06	30675.06
518.24	31007.42
518.41	31068.27
518.58	30916.14
518.75	30869.33
518.93	31400.63
519.10	31316.37
519.27	31761.07
519.45	31721.28
519.62	31913.20
519.79	31817.24
519.96	31693.19
520.14	31824.26
520.31	31948.31
520.48	32025.55
520.65	31674.47
520.83	32336.84
521.00	32383.65
521.17	31882.78
521.34	32526.42
521.52	32725.37
521.69	32734.73
521.86	32418.76
522.03	32458.55
522.20	32634.09
522.38	33127.94
522.55	32914.95
522.72	32870.48
522.89	32734.73
523.07	33118.58
523.24	32811.97
523.41	33429.87
523.58	33163.05
523.75	33518.81
523.92	32809.63
524.10	33769.25
524.27	33696.69
524.44	33745.84
524.61	33773.93
524.78	33956.49
524.96	33708.40
525.13	34078.20
525.30	33914.36
525.47	34167.14
525.64	33902.66
525.81	33949.47
525.98	34223.31
526.16	34113.31
526.33	34246.72
526.50	34555.67
526.67	34260.76
526.84	34515.88
527.01	34316.93
527.18	34464.39
527.36	34754.61
527.53	34483.11
527.70	35065.91
527.87	34747.59
528.04	34831.85
528.21	34632.91
528.38	34998.03
528.55	34988.67
528.72	34574.39
528.89	35241.45
529.07	34951.22
529.24	34754.61
529.41	35531.67
529.58	35115.06
529.75	35309.32
529.92	35395.92
530.09	35274.21
530.26	35367.84
530.43	35800.83
530.60	34974.63
530.77	35632.32
530.94	35892.12
531.11	35253.15
531.28	35660.40
531.46	36102.76
531.63	35552.74
531.80	35859.35
531.97	36308.73
532.14	36278.30
532.31	35751.68
532.48	36353.20
532.65	36378.95
532.82	36341.50
532.99	36236.17
533.16	36374.27
533.33	36315.75
533.50	36453.84
533.67	36524.06
533.84	36006.80
534.01	36430.44
534.18	36524.06
534.35	36596.62
534.52	36563.85
534.69	37134.94
534.86	36797.90
535.03	37315.16
535.20	37090.47
535.37	37361.97
535.54	36921.95
535.71	36603.64
535.88	36996.85
536.05	36837.69
536.22	37479.00
536.38	37460.27
536.55	37352.61
536.72	37085.79
536.89	37640.50
537.06	37378.36
537.23	37720.07
537.40	37429.85
537.57	37886.25
537.74	37631.13
537.91	37942.42
538.08	37731.78
538.25	37804.33
538.42	38132.01
538.59	38190.52
538.75	37720.07
538.92	38197.54
539.09	38153.07
539.26	38202.22
539.43	37759.86
539.60	38536.92
539.77	37860.51
539.94	38522.88
540.11	38124.99
540.28	38419.89
540.44	38260.74
540.61	38087.54
540.78	38183.50
540.95	38728.84
541.12	38590.75
541.29	38274.78
541.46	38653.95
541.62	38473.73
541.79	38469.04
541.96	38712.46
542.13	38693.74
542.30	39091.63
542.47	38848.21
542.63	38663.31
542.80	39063.54
542.97	39695.49
543.14	39653.36
543.31	39248.44
543.48	39299.94
543.64	40004.44
543.81	39878.05
543.98	39606.55
544.15	39931.88
544.32	39725.91
544.48	40018.48
544.65	39718.89
544.82	39971.67
544.99	39934.22
545.16	39896.77
545.32	39901.45
545.49	40151.89
545.66	39924.86
545.83	40348.50
546.00	39938.90
546.16	40634.04
546.33	39732.93
546.50	39955.29
546.67	40495.95
546.83	39585.48
547.00	40250.19
547.17	40215.08
547.34	40362.54
547.50	40362.54
547.67	40493.61
547.84	40566.16
548.00	40348.50
548.17	41235.56
548.34	41057.68
548.51	41048.32
548.67	40779.15
548.84	40718.30
549.01	40788.52
549.18	40601.27
549.34	40945.33
549.51	40950.01
549.68	40685.53
549.84	40903.20
550.01	40830.65
550.18	40987.46
550.34	40814.26
550.51	40924.27
550.68	41226.20
550.84	40835.33
551.01	41240.24
551.18	41099.81
551.34	41003.85
551.51	41240.24
551.68	41226.20
551.84	41509.40
552.01	40786.18
552.18	41432.16
552.34	41521.10
552.51	41518.76
552.68	41289.39
552.84	41511.74
553.01	41645.15
553.18	41701.32
553.34	41261.30
553.51	41956.44
553.67	41652.17
553.84	41947.08
554.01	41825.37
554.17	42192.84
554.34	42122.62
554.51	41813.67
554.67	41963.46
554.84	42038.36
555.00	41631.11
555.17	42045.38
555.33	42314.55
555.50	42031.34
555.67	42209.22
555.83	42349.65
556.00	42099.22
556.16	42408.17
556.33	42635.20
556.50	42555.62
556.66	42492.43
556.83	42066.45
556.99	42199.86
557.16	42469.02
557.32	42323.91
557.49	42632.86
557.65	42131.98
557.82	42412.85
557.98	42384.76
558.15	42658.60
558.32	42560.30
558.48	42576.69
558.65	42820.10
558.81	42930.11
558.98	42607.11
559.14	42735.84
559.31	42581.37
559.47	42763.93
559.64	42831.80
559.80	43056.50
559.97	42866.91
560.13	42808.40
560.30	42595.41
560.46	42972.24
560.63	42960.53
560.79	43037.77
560.96	43014.37
561.12	43159.48
561.29	43299.91
561.45	43042.45
561.61	43154.80
561.78	43016.71
561.94	43203.95
562.11	43217.99
562.27	42892.66
562.44	43590.14
562.60	43012.02
562.77	43400.55
562.93	43171.18
563.10	43571.41
563.26	43000.32
563.42	43592.48
563.59	43262.46
563.75	43213.31
563.92	43049.47
564.08	43283.53
564.24	43770.36
564.41	43428.64
564.57	43533.96
564.74	43145.44
564.90	43452.05
565.07	43255.44
565.23	43316.29
565.39	43402.89
565.56	43828.87
565.72	43716.53
565.88	43730.57
566.05	43938.88
566.21	43447.36
566.38	43496.52
566.54	43655.67
566.70	43597.16
566.87	43903.77
567.03	43489.49
567.19	44147.18
567.36	43573.75
567.52	43803.13
567.68	43569.07
567.85	43903.77
568.01	44488.90
568.17	43278.85
568.34	43999.73
568.50	44065.27
568.66	43728.23
568.83	43709.50
568.99	44030.16
569.15	44034.84
569.32	43681.42
569.48	43316.29
569.64	44336.77
569.81	44032.50
569.97	44058.24
570.13	44395.28
570.30	43910.79
570.46	44172.93
570.62	43950.58
570.78	43817.17
570.95	44301.66
571.11	44383.58
571.27	44069.95
571.43	43573.75
571.60	44011.43
571.76	43908.45
571.92	44165.91
572.09	44210.38
572.25	43913.13
572.41	43660.35
572.57	44114.42
572.74	44521.67
572.90	44257.19
573.06	44411.67
573.22	44495.92
573.38	44369.54
573.55	44486.56
573.71	44350.81
573.87	44030.16
574.03	44055.90
574.20	44589.55
574.36	44538.05
574.52	44336.77
574.68	44313.36
574.84	44589.55
575.01	44797.85
575.17	44516.99
575.33	44212.72
575.49	44294.64
575.65	44498.26
575.82	44102.71
575.98	44236.12
576.14	44493.58
576.30	44507.63
576.46	44093.35
576.62	44423.37
576.79	44514.65
576.95	44329.75
577.11	44039.52
577.27	44467.84
577.43	44306.34
577.59	44137.82
577.75	44252.51
577.92	44477.20
578.08	44034.84
578.24	44753.38
578.40	44776.79
578.56	44463.16
578.72	44685.51
578.88	44762.75
579.04	44589.55
579.21	44350.81
579.37	44818.92
579.53	45048.29
579.69	44006.75
579.85	44130.80
580.01	44854.03
580.17	44509.97
580.33	44868.07
580.49	44615.29
580.65	45008.50
580.82	44257.19
580.98	44748.70
581.14	44435.07
581.30	44514.65
581.46	44329.75
581.62	44512.31
581.78	44238.47
581.94	44921.90
582.10	44626.99
582.26	44889.13
582.42	44708.91
582.58	44409.32
582.74	44828.28
582.90	44645.72
583.06	44872.75
583.22	44645.72
583.38	44758.06
583.54	45118.51
583.70	44552.10
583.86	45244.90
584.02	44519.33
584.18	44676.15
584.34	45038.93
584.50	45160.64
584.66	45132.55
584.82	44847.00
584.98	44957.01
585.14	44814.24
585.30	44753.38
585.46	44886.79
585.62	44720.62
585.78	45036.59
585.94	44334.43
586.10	44748.70
586.26	44533.37
586.42	44486.56
586.58	45020.20
586.74	44559.12
586.90	44711.25
587.06	45034.25
587.22	44870.41
587.38	44999.14
587.54	45092.76
587.70	44816.58
587.86	45038.93
588.02	44825.94
588.18	44858.71
588.34	45659.17
588.49	44999.14
588.65	44830.62
588.81	44781.47
588.97	44823.60
589.13	44919.56
589.29	44776.79
589.45	45298.73
589.61	44790.83
589.77	44931.26
589.93	44788.49
590.08	44985.10
590.24	44940.63
590.40	45532.78
590.56	45621.72
590.72	45366.60
590.88	44879.77
591.04	45076.38
591.20	45450.86
591.35	45432.14
591.51	45874.50
591.67	45111.49
591.83	45448.52
591.99	45193.40
592.15	45198.09
592.31	45003.82
592.46	44933.60
592.62	45621.72
592.78	45263.62
592.94	45296.39
593.10	45820.67
593.26	45804.28
593.41	45394.69
593.57	45088.08
593.73	45549.17
593.89	46050.04
594.05	45509.38
594.20	45310.43
594.36	45815.99
594.52	45663.85
594.68	45640.45
594.84	44842.32
594.99	45481.29
595.15	45240.21
595.31	45492.99
595.47	45069.36
595.62	45443.84
595.78	45207.45
595.94	45731.73
596.10	45432.14
596.25	45874.50
596.41	45659.17
596.57	45401.71
596.73	45907.27
596.88	45621.72
597.04	45895.56
597.20	45734.07
597.36	45586.61
597.51	45734.07
597.67	45167.66
597.83	45921.31
597.99	46050.04
598.14	45331.50
598.30	45450.86
598.46	45528.10
598.61	46122.60
598.77	45387.67
598.93	45687.26
599.09	45502.35
599.24	45968.12
599.40	45607.68
599.56	45972.80
599.71	45851.09
599.87	46092.17
600.03	46094.51
600.18	45752.79
600.34	45792.58
600.50	45584.27
600.65	45804.28
600.81	46167.07
600.97	45656.83
601.12	45488.31
601.28	45600.66
601.44	45464.91
601.59	45635.77
601.75	45214.47
601.91	45804.28
602.06	45867.48
602.22	46129.62
602.37	45813.65
602.53	45595.98
602.69	45628.74
602.84	45588.95
603.00	45755.13
603.16	45633.42
603.31	45778.54
603.47	46162.39
603.62	45776.20
603.78	45631.08
603.94	45844.07
604.09	45439.16
604.25	45610.02
604.40	45542.14
604.56	45492.99
604.71	45560.87
604.87	45624.06
605.03	45722.37
605.18	45975.14
605.34	45551.51
605.49	45429.80
605.65	45600.66
605.80	45621.72
605.96	45326.81
606.12	45628.74
606.27	46274.73
606.43	45422.78
606.58	45160.64
606.74	45361.92
606.89	45553.85
607.05	45612.36
607.20	45507.04
607.36	45642.79
607.51	45539.80
607.67	45455.54
607.82	45698.96
607.98	45031.91
608.13	45209.79
608.29	45687.26
608.44	45588.95
608.60	45404.05
608.75	45144.25
608.91	45476.61
609.06	45530.44
609.22	45216.81
609.37	45530.44
609.53	45357.24
609.68	45481.29
609.84	45085.74
609.99	45186.38
610.15	45052.97
610.30	45422.78
610.46	45125.53
610.61	45652.15
610.76	45492.99
610.92	45102.12
611.07	44896.16
611.23	45139.57
611.38	45198.09
611.54	45144.25
611.69	45469.59
611.84	45523.42
612.00	45392.35
612.15	45478.95
612.31	45413.41
612.46	44685.51
612.62	45076.38
612.77	45155.96
612.92	45315.11
613.08	45354.90
613.23	44968.71
613.39	45088.08
613.54	45022.54
613.69	45354.90
613.85	45144.25
614.00	44935.95
614.15	45177.02
614.31	44715.93
614.46	45090.42
614.62	44786.15
614.77	45097.44
614.92	44737.00
615.08	45010.84
615.23	45151.27
615.38	44994.46
615.54	44947.65
615.69	45008.50
615.84	44837.64
616.00	45017.86
616.15	44828.28
616.30	45008.50
616.46	44837.64
616.61	44634.02
616.76	44861.05
616.92	44715.93
617.07	45141.91
617.22	44626.99
617.37	44306.34
617.53	44818.92
617.68	44554.44
617.83	44449.11
617.99	44802.53
618.14	44931.26
618.29	44439.75
618.45	44437.41
618.60	44182.29
618.75	44119.10
618.90	44257.19
619.06	44844.66
619.21	44540.39
619.36	44781.47
619.51	44203.36
619.67	44498.26
619.82	44198.68
619.97	44741.68
620.12	44484.22
620.28	43995.05
620.43	44751.04
620.58	44072.29
620.73	44289.96
620.89	44477.20
621.04	44491.24
621.19	44570.82
621.34	44563.80
621.49	43868.66
621.65	44142.50
621.80	44580.18
621.95	44268.89
622.10	44343.79
622.25	43971.64
622.41	43753.97
622.56	43681.42
622.71	43880.36
622.86	44060.58
623.01	44013.77
623.16	43992.71
623.32	44198.68
623.47	44191.65
623.62	43704.82
623.77	44079.31
623.92	44079.31
624.07	43739.93
624.23	44311.02
624.38	43728.23
624.53	44053.56
624.68	43330.34
624.83	43758.66
624.98	43803.13
625.13	43590.14
625.29	43320.98
625.44	43274.16
625.59	43805.47
625.74	43540.99
625.89	43402.89
626.04	43344.38
626.19	43295.23
626.34	43356.08
626.49	43033.09
626.65	42628.18
626.80	43545.67
626.95	43096.28
627.10	42852.87
627.25	43618.22
627.40	43257.78
627.55	43578.43
627.70	43414.60
627.85	43206.29
628.00	42738.18
628.15	42979.26
628.30	42550.94
628.45	42923.08
628.60	42501.79
628.76	42836.48
628.91	42850.53
629.06	42843.51
629.21	42883.30
629.36	42700.73
629.51	43030.75
629.66	42951.17
629.81	42864.57
629.96	42724.14
630.11	42628.18
630.26	42469.02
630.41	43040.11
630.56	42660.94
630.71	42689.03
630.86	42721.80
631.01	42422.21
631.16	42492.43
631.31	42473.70
631.46	42059.43
631.61	43285.87
631.76	42644.56
631.91	42712.44
632.06	42429.23
632.21	42511.15
632.36	42993.30
632.51	42426.89
632.66	42265.39
632.81	42391.78
632.96	42518.17
633.10	42450.30
633.25	42202.20
633.40	42134.32
633.55	42206.88
633.70	42373.06
633.85	42391.78
634.00	41811.33
634.15	42459.66
634.30	41918.99
634.45	42251.35
634.60	42059.43
634.75	42216.24
634.90	42199.86
635.05	41986.87
635.19	42040.70
635.34	42342.63
635.49	41652.17
635.64	41816.01
635.79	42141.35
635.94	41872.18
636.09	42150.71
636.24	42293.48
636.39	41848.78
636.53	41785.58
636.68	41579.62
636.83	41425.14
636.98	41397.06
637.13	41532.81
637.28	41495.36
637.43	41237.90
637.57	41766.86
637.72	41790.27
637.87	41418.12
638.02	41642.81
638.17	41666.22
638.32	41399.40
638.46	41113.85
638.61	41141.94
638.76	41354.93
638.91	41654.51
639.06	41186.41
639.20	41017.89
639.35	41060.02
639.50	41053.00
639.65	41619.41
639.80	41586.64
639.94	41436.84
640.09	40966.40
640.24	41518.76
640.39	40964.06
640.54	41006.19
640.68	40926.61
640.83	41549.19
640.98	41134.92
641.13	40844.69
641.27	41457.91
641.42	40545.10
641.57	40708.94
641.72	41090.44
641.86	40659.79
642.01	40329.77
642.16	40669.15
642.31	40533.40
642.45	40828.30
642.60	40353.18
642.75	40772.13
642.90	40762.77
643.04	40481.91
643.19	40659.79
643.34	40107.42
643.48	40575.53
643.63	40456.16
643.78	40407.01
643.93	40722.98
644.07	40568.51
644.22	40671.49
644.37	40481.91
644.51	40465.52
644.66	40800.22
644.81	40472.54
644.95	40727.66
645.10	40203.38
645.25	40343.81
645.39	40088.70
645.54	40030.18
645.69	40084.01
645.83	39772.72
645.98	40107.42
646.13	40044.23
646.27	40196.36
646.42	39971.67
646.57	40383.60
646.71	40006.78
646.86	40692.55
647.00	39695.49
647.15	40081.67
647.30	40292.32
647.44	40081.67
647.59	40163.59
647.74	39873.37
647.88	39924.86
648.03	39950.60
648.17	40079.33
648.32	40198.70
648.47	39768.04
648.61	39810.17
648.76	40341.47
648.90	39646.33
649.05	39749.32
649.20	39622.93
649.34	39800.81
649.49	39735.27
649.63	39948.26
649.78	39716.55
649.92	39917.84
650.07	39915.50
650.21	39658.04
650.36	39896.77
650.51	39313.98
650.65	40210.40
650.80	39658.04
650.94	39718.89
651.09	39782.09
651.23	38920.77
651.38	39447.39
651.52	39133.76
651.67	39548.03
651.81	39662.72
651.96	39175.89
652.10	39384.19
652.25	38888.00
652.39	39442.71
652.54	39091.63
652.68	39199.29
652.83	39232.06
652.97	39037.80
653.12	39222.70
653.26	38941.83
653.41	38565.01
653.55	39054.18
653.70	39173.55
653.84	39388.88
653.99	39086.95
654.13	38951.20
654.27	38747.57
654.42	39077.58
654.56	38852.89
654.71	39187.59
654.85	39505.90
655.00	39058.86
655.14	39072.90
655.29	39313.98
655.43	38972.26
655.57	38778.00
655.72	38192.86
655.86	38417.55
656.01	38476.07
656.15	38487.77
656.30	38572.03
656.44	38813.10
656.58	38630.54
656.73	38263.08
656.87	37914.34
657.01	38279.46
657.16	38263.08
657.30	38532.24
657.45	38188.18
657.59	38335.63
657.73	38003.28
657.88	38342.66
658.02	38038.39
658.16	38471.39
658.31	38251.38
658.45	38450.32
658.60	38557.99
658.74	38305.21
658.88	38321.59
659.03	38171.80
659.17	38274.78
659.31	37855.82
659.46	37846.46
659.60	37801.99
659.74	37895.61
659.89	37591.34
660.03	37251.97
660.17	37703.69
660.32	37968.17
660.46	37408.78
660.60	37502.40
660.74	37589.00
660.89	37361.97
661.03	36708.96
661.17	37071.75
661.32	37312.82
661.46	37088.13
661.60	36999.19
661.74	37076.43
661.89	37141.96
662.03	36690.24
662.17	36957.06
662.31	36531.08
662.46	36779.18
662.60	36610.66
662.74	36381.29
662.88	36320.43
663.03	36400.01
663.17	36449.16
663.31	36137.87
663.45	36479.59
663.60	36715.98
663.74	36704.28
663.88	36133.19
664.02	36318.09
664.17	36818.97
664.31	36175.32
664.45	36435.12
664.59	35889.77
664.73	35697.85
664.88	36299.37
665.02	35906.16
665.16	36271.28
665.30	35695.51
665.44	35725.94
665.59	35468.48
665.73	35496.56
665.87	35213.36
666.01	35452.09
666.15	36020.84
666.29	35543.38
666.44	35632.32
666.58	35665.08
666.72	35445.07
666.86	35637.00
667.00	35292.94
667.14	35070.59
667.28	34789.72
667.43	35349.11
667.57	35290.60
667.71	34981.65
667.85	35133.78
667.99	34923.13
668.13	34700.78
668.27	34749.93
668.41	35084.63
668.56	34401.19
668.70	34558.01
668.84	34703.12
668.98	33951.81
669.12	34148.42
669.26	34469.07
669.40	34082.88
669.54	34298.21
669.68	34345.02
669.82	34305.23
669.96	33776.27
670.10	33626.48
670.25	33982.24
670.39	33680.31
670.53	33762.23
670.67	33855.85
670.81	33624.14
670.95	33729.46
671.09	33757.55
671.23	33933.09
671.37	33642.86
671.51	33656.90
671.65	33439.23
671.79	33226.24
671.93	32992.19
672.07	33383.06
672.21	32811.97
672.35	32716.01
672.49	33207.52
672.63	33275.40
672.77	32629.41
672.91	32900.91
673.05	32524.08
673.19	32760.48
673.33	32381.31
673.47	32367.27
673.61	32116.83
673.75	31988.10
673.89	32142.58
674.03	31833.63
674.17	32128.53
674.31	31723.62
674.45	31770.43
674.59	31885.12
674.73	31775.11
674.87	31431.05
675.01	31653.40
675.15	31466.16
675.29	31517.65
675.43	31065.93
675.56	31194.66
675.70	31145.51
675.84	31154.87
675.98	30153.12
676.12	31143.17
676.26	31351.48
676.40	30525.27
676.54	30417.60
676.68	30764.00
676.82	30209.29
676.96	30438.67
677.10	30448.03
677.23	30536.97
677.37	30323.98
677.51	30469.09
677.65	30323.98
677.79	29795.02
677.93	30047.80
678.07	29577.35
678.21	29537.56
678.34	29724.80
678.48	29266.06
678.62	29242.65
678.76	29537.56
678.90	29230.95
679.04	29298.83
679.18	28999.24
679.31	28978.17
679.45	28503.04
679.59	28538.15
679.73	28837.74
679.87	28699.65
680.00	28446.87
680.14	28418.78
680.28	28252.61
680.42	28276.01
680.56	28287.71
680.70	27796.20
680.83	27660.45
680.97	28201.11
681.11	27889.82
681.25	27470.87
681.39	27669.81
681.52	27321.07
681.66	27314.05
681.80	26932.54
681.94	26691.47
682.07	26705.51
682.21	26979.36
682.35	26735.94
682.49	27051.91
682.62	26869.35
682.76	26785.09
682.90	26656.36
683.04	26698.49
683.17	26527.63
683.31	26305.28
683.45	26298.26
683.59	25544.61
683.72	25446.30
683.86	25745.89
684.00	25982.29
684.13	25748.23
684.27	25249.70
684.41	25610.14
684.55	25425.24
684.68	25640.57
684.82	25207.57
684.96	25099.90
685.09	25376.09
685.23	25041.39
685.37	25191.19
685.50	25130.33
685.64	24886.92
685.78	24861.17
685.91	24858.83
686.05	24348.59
686.19	24357.96
686.32	24229.23
686.46	24112.20
686.60	23508.34
686.73	24250.29
686.87	24002.19
687.01	24065.39
687.14	23906.23
687.28	23697.92
687.42	23709.63
687.55	23545.79
687.69	23559.83
687.82	23316.42
687.96	23014.49
688.10	23271.95
688.23	23133.86
688.37	23351.52
688.50	23388.97
688.64	23173.64
688.78	22773.41
688.91	22572.13
689.05	22869.37
689.18	22347.44
689.32	22108.70
689.46	22113.38
689.59	22307.65
689.73	22331.05
689.86	22424.67
690.00	22356.80
690.13	21940.18
690.27	21727.19
690.41	21572.72
690.54	21500.16
690.68	21659.32
690.81	21621.87
690.95	21186.53
691.08	21322.28
691.22	20933.75
691.35	20896.30
691.49	20989.92
691.62	21156.10
691.76	20751.19
691.89	20610.76
692.03	20744.17
692.16	20315.85
692.30	20421.17
692.43	20056.05
692.57	20294.79
692.70	20212.87
692.84	20070.09
692.97	19714.33
693.11	19424.11
693.24	19669.86
693.38	19449.85
693.51	19609.01
693.65	19985.83
693.78	19456.87
693.92	19391.34
694.05	19248.57
694.19	19566.88
694.32	19117.50
694.45	19211.12
694.59	19164.31
694.72	19309.42
694.86	18815.57
694.99	18829.61
695.13	18649.39
695.26	18185.96
695.39	18551.09
695.53	18523.00
695.66	18263.20
695.80	18450.44
695.93	18211.71
696.07	18043.19
696.20	17827.86
696.33	17923.82
696.47	17645.30
696.60	17425.29
696.73	18050.21
696.87	17804.46
697.00	17563.38
697.14	17420.61
697.27	17427.63
697.40	17418.27
697.54	17018.04
697.67	17167.83
697.80	17158.47
697.94	17212.30
698.07	16924.41
698.21	16943.14
698.34	16816.75
698.47	16407.16
698.61	16322.90
698.74	16582.70
698.87	16517.16
699.01	16128.63
699.14	16442.26
699.27	16465.67
699.40	16056.08
699.54	15953.09
699.67	16093.52
699.80	16105.23
699.94	15871.17
700.07	15822.02
700.20	15634.78
700.34	15382.00
700.47	15531.80
700.60	15700.31
700.73	15480.30
700.87	15213.48
701.00	15154.97
701.13	15201.78
701.26	15286.04
701.40	15239.23
701.53	14993.47
701.66	15070.71
701.79	15183.06
701.93	14614.30
702.06	14389.61
702.19	14497.28
702.32	14581.54
702.46	14635.37
702.59	14705.59
702.72	14539.41
702.85	14642.39
702.99	14197.69
703.12	14530.05
703.25	14066.62
703.38	13996.40
703.51	14024.49
703.65	13771.71
703.78	13729.58
703.91	13736.60
704.04	13467.44
704.17	13355.10
704.31	13390.20
704.44	13364.46
704.57	13584.47
704.70	13352.76
704.83	13149.13
704.96	13146.79
705.10	12982.95
705.23	12891.67
>>>>>End Processed Spectral Data<<<<<
