SpectraSuite Data File
++++++++++++++++++++++++++++++++++++
Date: Fri Oct 25 11:34:42 EDT 2013
User: price-jones
Dark Spectrum Present: No
Reference Spectrum Present: No
Number of Sampled Component Spectra: 1
Spectrometers: USB2+H05261
Integration Time (usec): 100000 (USB2+H05261)
Spectra Averaged: 1 (USB2+H05261)
Boxcar Smoothing: 0 (USB2+H05261)
Correct for Electrical Dark: No (USB2+H05261)
Strobe/Lamp Enabled: No (USB2+H05261)
Correct for Detector Non-linearity: No (USB2+H05261)
Correct for Stray Light: No (USB2+H05261)
Number of Pixels in Processed Spectrum: 2048
>>>>>Begin Processed Spectral Data<<<<<
365.73	330.02
365.92	330.02
366.12	330.02
366.32	217.67
366.52	205.97
366.72	231.71
366.91	187.24
367.11	215.33
367.31	196.60
367.51	102.98
367.70	154.48
367.90	189.58
368.10	149.79
368.30	175.54
368.49	173.20
368.69	180.22
368.89	182.56
369.09	187.24
369.28	241.08
369.48	229.37
369.68	201.29
369.87	248.10
370.07	297.25
370.27	285.55
370.47	348.74
370.66	437.68
370.86	533.64
371.06	554.71
371.25	519.60
371.45	528.96
371.65	557.05
371.84	533.64
372.04	507.90
372.24	543.00
372.44	538.32
372.63	578.11
372.83	589.82
373.03	531.30
373.22	547.69
373.42	519.60
373.62	559.39
373.81	580.45
374.01	627.26
374.21	718.54
374.40	580.45
374.60	561.73
374.79	678.76
374.99	589.82
375.19	599.18
375.38	592.16
375.58	627.26
375.78	671.73
375.97	734.93
376.17	692.80
376.37	725.57
376.56	685.78
376.76	653.01
376.95	660.03
377.15	667.05
377.35	643.65
377.54	718.54
377.74	704.50
377.93	657.69
378.13	697.48
378.33	683.44
378.52	669.39
378.72	690.46
378.91	699.82
379.11	727.91
379.31	720.88
379.50	695.14
379.70	741.95
379.89	748.97
380.09	690.46
380.28	669.39
380.48	734.93
380.68	671.73
380.87	685.78
381.07	695.14
381.26	720.88
381.46	753.65
381.65	713.86
381.85	760.67
382.04	711.52
382.24	748.97
382.43	704.50
382.63	739.61
382.83	833.23
383.02	737.27
383.22	744.29
383.41	833.23
383.61	779.40
383.80	748.97
384.00	837.91
384.19	795.78
384.39	856.64
384.58	786.42
384.78	709.18
384.97	837.91
385.17	840.25
385.36	898.77
385.56	772.38
385.75	842.59
385.95	863.66
386.14	851.96
386.34	823.87
386.53	774.72
386.72	812.17
386.92	908.13
387.11	840.25
387.31	898.77
387.50	800.46
387.70	861.32
387.89	866.00
388.09	915.15
388.28	828.55
388.48	840.25
388.67	922.17
388.86	891.74
389.06	938.55
389.25	936.21
389.45	940.90
389.64	917.49
389.84	922.17
390.03	976.00
390.22	1008.77
390.42	950.26
390.61	931.53
390.81	973.66
391.00	959.62
391.19	1004.09
391.39	1018.13
391.58	952.60
391.78	990.05
391.97	968.98
392.16	980.68
392.36	1008.77
392.55	1006.43
392.75	959.62
392.94	1053.24
393.13	1088.35
393.33	1036.86
393.52	1125.80
393.71	1081.33
393.91	1018.13
394.10	1055.58
394.29	980.68
394.49	1057.92
394.68	1100.05
394.88	1130.48
395.07	1095.37
395.26	1100.05
395.46	1064.94
395.65	1128.14
395.84	1104.73
396.04	1198.35
396.23	1144.52
396.42	1111.75
396.62	1170.27
396.81	1219.42
397.00	1198.35
397.19	1142.18
397.39	1193.67
397.58	1238.14
397.77	1151.54
397.97	1228.78
398.16	1196.01
398.35	1181.97
398.55	1198.35
398.74	1273.25
398.93	1238.14
399.12	1268.57
399.32	1273.25
399.51	1362.19
399.70	1284.95
399.90	1249.85
400.09	1299.00
400.28	1249.85
400.47	1327.08
400.67	1299.00
400.86	1399.64
401.05	1317.72
401.24	1380.92
401.44	1291.98
401.63	1418.36
401.82	1460.49
402.01	1329.42
402.21	1348.15
402.40	1427.73
402.59	1425.39
402.78	1453.47
402.97	1420.71
403.17	1511.99
403.36	1614.97
403.55	1549.43
403.74	1547.09
403.93	1603.27
404.13	1556.46
404.32	1675.82
404.51	1504.96
404.70	1563.48
404.89	1558.80
405.09	1589.22
405.28	1551.78
405.47	1617.31
405.66	1603.27
405.85	1584.54
406.05	1624.33
406.24	1533.05
406.43	1727.32
406.62	1657.10
406.81	1760.08
407.00	1781.15
407.20	1710.93
407.39	1724.97
407.58	1696.89
407.77	1696.89
407.96	1717.95
408.15	1827.96
408.34	1774.13
408.54	1743.70
408.73	1853.70
408.92	1827.96
409.11	1849.02
409.30	1879.45
409.49	1898.17
409.68	1944.99
409.87	2036.27
410.07	1998.82
410.26	1919.24
410.45	2003.50
410.64	2059.67
410.83	1963.71
411.02	2050.31
411.21	2073.71
411.40	2033.93
411.59	2214.15
411.78	2176.70
411.98	2160.31
412.17	2143.93
412.36	2087.76
412.55	2165.00
412.74	2197.76
412.93	2265.64
413.12	2174.36
413.31	2338.20
413.50	2282.02
413.69	2377.98
413.88	2436.50
414.07	2284.36
414.26	2441.18
414.45	2314.79
414.64	2396.71
414.83	2431.82
415.02	2569.91
415.22	2422.45
415.41	2438.84
415.60	2443.52
415.79	2677.57
415.98	2619.06
416.17	2626.08
416.36	2733.75
416.55	2698.64
416.74	2656.51
416.93	2490.33
417.12	2794.60
417.31	2668.21
417.50	2712.68
417.69	2839.07
417.88	2752.47
418.07	2733.75
418.26	2700.98
418.45	2726.72
418.64	2967.80
418.83	2902.26
419.02	2883.54
419.21	2906.95
419.39	2930.35
419.58	2951.42
419.77	2981.84
419.96	2963.12
420.15	2953.76
420.34	3038.02
420.53	3033.33
420.72	3155.04
420.91	3180.79
421.10	3021.63
421.29	3145.68
421.48	3103.55
421.67	3077.80
421.86	3110.57
422.05	3105.89
422.24	3145.68
422.43	3215.90
422.61	3141.00
422.80	3339.94
422.99	3229.94
423.18	3204.19
423.37	3330.58
423.56	3288.45
423.75	3143.34
423.94	3105.89
424.13	3091.85
424.32	3180.79
424.50	3248.66
424.69	3330.58
424.88	3403.14
425.07	3124.62
425.26	3105.89
425.45	3234.62
425.64	3300.16
425.83	3330.58
426.01	3370.37
426.20	3234.62
426.39	3222.92
426.58	3197.17
426.77	3243.98
426.96	3309.52
427.15	3339.94
427.33	3375.05
427.52	3269.73
427.71	3433.57
427.90	3318.88
428.09	3660.60
428.28	3499.10
428.46	3538.89
428.65	3468.67
428.84	3620.81
429.03	3506.12
429.22	3564.64
429.40	3529.53
429.59	3613.79
429.78	3508.46
429.97	3309.52
430.16	3641.87
430.34	3810.39
430.53	3712.09
430.72	3716.77
430.91	3646.55
431.10	3684.00
431.28	3847.84
431.47	3892.31
431.66	3786.99
431.85	3911.04
432.03	3782.31
432.22	3946.14
432.41	3871.25
432.60	3866.56
432.79	3826.78
432.97	3962.53
433.16	3936.78
433.35	3803.37
433.54	3978.91
433.72	3861.88
433.91	4028.06
434.10	3997.64
434.28	3992.95
434.47	4072.53
434.66	3969.55
434.85	4028.06
435.03	4077.21
435.22	4166.15
435.41	4163.81
435.59	4208.28
435.78	4131.05
435.97	4180.20
436.16	4194.24
436.34	4140.41
436.53	4227.01
436.72	4322.97
436.90	4231.69
437.09	4346.37
437.28	4231.69
437.46	4334.67
437.65	4292.54
437.84	4409.57
438.02	4425.95
438.21	4339.35
438.40	4486.81
438.58	4449.36
438.77	4559.36
438.96	4486.81
439.14	4557.02
439.33	4643.62
439.52	4582.77
439.70	4720.86
439.89	4711.50
440.08	4788.74
440.26	4748.95
440.45	4676.39
440.63	4765.33
440.82	4912.78
441.01	4709.16
441.19	4788.74
441.38	5043.85
441.57	4973.64
441.75	4999.38
441.94	5048.54
442.12	5172.58
442.31	5210.03
442.50	5242.80
442.68	5085.98
442.87	5104.71
443.05	5261.52
443.24	5284.93
443.43	5165.56
443.61	5305.99
443.80	5387.91
443.98	5132.79
444.17	5181.95
444.35	5476.85
444.54	5181.95
444.73	5364.51
444.91	5322.38
445.10	5411.32
445.28	5416.00
445.47	5287.27
445.65	5327.06
445.84	5366.85
446.02	5338.76
446.21	5483.88
446.39	5423.02
446.58	5371.53
446.77	5493.24
446.95	5343.44
447.14	5308.34
447.32	5472.17
447.51	5504.94
447.69	5460.47
447.88	5329.40
448.06	5284.93
448.25	5359.83
448.43	5439.40
448.62	5371.53
448.80	5511.96
448.99	5628.99
449.17	5619.63
449.36	5530.69
449.54	5610.26
449.73	5612.60
449.91	5659.42
450.10	5731.97
450.28	5994.11
450.46	5820.91
450.65	5860.70
450.83	5746.02
451.02	5760.06
451.20	5863.04
451.39	5907.51
451.57	5877.09
451.76	5804.53
451.94	5853.68
452.13	5841.98
452.31	5863.04
452.49	5846.66
452.68	5863.04
452.86	5928.58
453.05	6010.50
453.23	6104.12
453.42	5984.75
453.60	5895.81
453.78	6104.12
453.97	6115.82
454.15	6127.52
454.34	6148.59
454.52	6228.17
454.70	6244.55
454.89	6139.23
455.07	6260.93
455.26	6289.02
455.44	6375.62
455.62	6375.62
455.81	6352.21
455.99	6420.09
456.17	6445.84
456.36	6424.77
456.54	6420.09
456.73	6600.31
456.91	6586.27
457.09	6682.23
457.28	6541.80
457.46	6590.95
457.64	6614.35
457.83	6754.79
458.01	6511.37
458.19	6820.32
458.38	6626.06
458.56	6722.02
458.74	6768.83
458.93	6663.51
459.11	6752.45
459.29	6750.10
459.48	7091.82
459.66	6944.37
459.84	6885.86
460.03	7143.32
460.21	7054.37
460.39	6991.18
460.57	7176.08
460.76	7073.10
460.94	6977.14
461.12	7166.72
461.31	7169.06
461.49	7129.27
461.67	7049.69
461.85	7323.54
462.04	7140.97
462.22	7246.30
462.40	7243.96
462.59	7276.73
462.77	7323.54
462.95	7318.86
463.13	7396.09
463.32	7463.97
463.50	7499.08
463.68	7522.48
463.86	7564.61
464.05	7360.98
464.23	7218.21
464.41	7625.47
464.59	7386.73
464.78	7468.65
464.96	7679.30
465.14	7541.21
465.32	7648.87
465.50	7669.94
465.69	7667.60
465.87	7747.17
466.05	7719.09
466.23	7686.32
466.41	7655.89
466.60	8039.74
466.78	7653.55
466.96	7723.77
467.14	7726.11
467.32	7992.93
467.51	7843.14
467.69	7651.21
467.87	7730.79
468.05	7962.50
468.23	7857.18
468.41	7913.35
468.60	8170.81
468.78	8009.31
468.96	8016.33
469.14	8133.36
469.32	8222.30
469.50	7964.84
469.69	8161.45
469.87	8362.73
470.05	8210.60
470.23	8468.06
470.41	8173.15
470.59	8463.38
470.77	8329.97
470.95	8266.77
471.14	8421.25
471.32	8145.06
471.50	8592.11
471.68	8608.49
471.86	8641.26
472.04	8662.32
472.22	8997.02
472.40	8641.26
472.58	8791.05
472.77	8849.57
472.95	8823.82
473.13	9303.63
473.31	8847.22
473.49	8835.52
473.67	8858.93
473.85	8987.66
474.03	9247.46
474.21	9114.05
474.39	9188.94
474.57	9343.42
474.75	9263.84
474.93	9390.23
475.12	9310.65
475.30	9387.89
475.48	9376.19
475.66	9394.91
475.84	9352.78
476.02	9767.06
476.20	9680.46
476.38	10024.51
476.56	9914.51
476.74	9966.00
476.92	9987.07
477.10	9886.42
477.28	10209.42
477.46	9975.36
477.64	10277.29
477.82	10363.89
478.00	10740.72
478.18	10445.81
478.36	10539.43
478.54	10576.88
478.72	10422.41
478.90	10857.75
479.08	11089.46
479.26	11070.73
479.44	11021.58
479.62	10972.43
479.80	11187.76
479.98	11311.81
480.16	11510.75
480.34	11452.24
480.52	11564.59
480.70	11616.08
480.88	11690.98
481.06	11714.38
481.24	11838.43
481.41	11988.22
481.59	12070.14
481.77	12035.03
481.95	12191.85
482.13	12138.02
482.31	12252.70
482.49	12812.09
482.67	12610.81
482.85	12695.07
483.03	12727.83
483.21	12919.76
483.39	13092.96
483.57	13050.83
483.74	13167.85
483.92	13104.66
484.10	13310.63
484.28	13635.96
484.46	13675.75
484.64	13862.99
484.82	13696.82
485.00	13958.96
485.18	14143.86
485.35	14169.60
485.53	14387.27
485.71	14059.60
485.89	14340.46
486.07	14314.72
486.25	14541.75
486.43	14406.00
486.61	14668.14
486.78	14876.44
486.96	14789.85
487.14	15206.46
487.32	15262.63
487.50	15410.09
487.68	15508.39
487.85	15468.60
488.03	15847.77
488.21	15955.43
488.39	15925.00
488.57	16037.35
488.75	16128.63
488.92	16493.76
489.10	16388.43
489.28	16585.04
489.46	16573.33
489.64	16624.83
489.81	17053.14
489.99	17371.46
490.17	17053.14
490.35	17703.81
490.53	17429.97
490.70	17771.69
490.88	17284.86
491.06	17621.89
491.24	17610.19
491.41	18162.56
491.59	18141.49
491.77	18022.12
491.95	18305.33
492.13	18553.43
492.30	18469.17
492.48	18448.10
492.66	18427.04
492.84	18808.54
493.01	18944.30
493.19	18820.25
493.37	18974.72
493.54	19269.63
493.72	19386.66
493.90	19433.47
494.08	19714.33
494.25	20011.58
494.43	20016.26
494.61	20095.84
494.79	20236.27
494.96	20074.77
495.14	20063.07
495.32	20650.55
495.49	20535.86
495.67	20547.56
495.85	20769.91
496.02	20886.94
496.20	20854.17
496.38	21003.97
496.55	20980.56
496.73	21462.71
496.91	21333.98
497.09	21546.97
497.26	21282.49
497.44	21261.43
497.62	21872.31
497.79	21816.13
497.97	21991.67
498.14	22398.93
498.32	22380.20
498.50	22249.13
498.67	22513.61
498.85	22483.19
499.03	22717.24
499.20	22724.26
499.38	22831.93
499.56	23058.96
499.73	22967.68
499.91	22899.80
500.08	23019.17
500.26	22845.97
500.44	23276.63
500.61	23302.37
500.79	23271.95
500.97	23484.94
501.14	23892.19
501.32	23960.06
501.49	23803.25
501.67	23625.37
501.84	24084.11
502.02	23955.38
502.20	24257.31
502.37	24144.97
502.55	24079.43
502.72	24634.14
502.90	24283.06
503.07	24212.84
503.25	24718.40
503.43	24297.10
503.60	24533.50
503.78	24554.56
503.95	24767.55
504.13	25006.28
504.30	24872.87
504.48	25174.80
504.65	25326.94
504.83	25528.22
505.01	25682.70
505.18	25518.86
505.36	26148.46
505.53	25708.44
505.71	25907.39
505.88	25654.61
506.06	25809.09
506.23	26005.69
506.41	25680.36
506.58	26106.34
506.76	26230.38
506.93	26181.23
507.11	26609.55
507.28	26426.99
507.46	26693.81
507.63	26426.99
507.81	26909.14
507.98	26644.66
508.16	27054.25
508.33	26735.94
508.50	26944.25
508.68	27005.10
508.85	27316.39
509.03	26955.95
509.20	27428.74
509.38	27522.36
509.55	27513.00
509.73	27630.02
509.90	27740.03
510.08	27697.90
510.25	27426.40
510.42	27840.67
510.60	28020.89
510.77	28428.15
510.95	28158.99
511.12	27613.64
511.30	28105.15
511.47	27824.29
511.64	28390.70
511.82	28624.75
511.99	28524.11
512.17	28849.44
512.34	28608.37
512.51	28737.10
512.69	28943.06
512.86	29137.33
513.04	29034.35
513.21	29160.73
513.38	29153.71
513.56	29429.90
513.73	29057.75
513.90	28938.38
514.08	29495.43
514.25	29546.92
514.43	29823.11
514.60	29553.94
514.77	29663.95
514.95	29692.04
515.12	29797.36
515.29	29942.47
515.47	30031.41
515.64	29729.48
515.81	30059.50
515.99	30258.45
516.16	30831.88
516.33	30560.37
516.51	30677.40
516.68	30164.82
516.85	30717.19
517.03	31208.70
517.20	30813.15
517.37	30834.22
517.54	30913.80
517.72	31119.76
517.89	30925.50
518.06	30986.35
518.24	31077.63
518.41	31133.81
518.58	31615.96
518.75	31208.70
518.93	31201.68
519.10	31243.81
519.27	31522.34
519.45	31522.34
519.62	31601.91
519.79	31716.60
519.96	32238.54
520.14	31955.33
520.31	31842.99
520.48	31824.26
520.65	31997.46
520.83	32477.27
521.00	32350.88
521.17	32119.17
521.34	32163.64
521.52	32741.75
521.69	32631.75
521.86	32697.28
522.03	32685.58
522.20	32999.21
522.38	32896.23
522.55	32882.19
522.72	32886.87
522.89	32856.44
523.07	33486.04
523.24	33198.16
523.41	33123.26
523.58	32680.90
523.75	33448.60
523.92	33287.10
524.10	33530.51
524.27	33572.64
524.44	33703.71
524.61	33867.55
524.78	33684.99
524.96	33750.52
525.13	34012.66
525.30	34396.51
525.47	33907.34
525.64	34160.12
525.81	34038.41
525.98	34106.29
526.16	34045.43
526.33	34036.07
526.50	34440.98
526.67	34520.56
526.84	34298.21
527.01	34494.82
527.18	34462.05
527.36	35061.22
527.53	34583.76
527.70	35093.99
527.87	34799.08
528.04	34899.73
528.21	35021.44
528.38	34878.66
528.55	35154.85
528.72	34925.47
528.89	35187.61
529.07	34878.66
529.24	34738.23
529.41	35407.62
529.58	35807.86
529.75	35211.02
529.92	35695.51
530.09	35283.58
530.26	35964.67
530.43	35309.32
530.60	35398.26
530.77	35473.16
530.94	35915.52
531.11	35409.96
531.28	35763.39
531.46	35819.56
531.63	35639.34
531.80	36109.78
531.97	36245.54
532.14	36032.55
532.31	35875.73
532.48	36231.49
532.65	36292.35
532.82	36278.30
532.99	36418.74
533.16	36355.54
533.33	36575.55
533.50	36687.90
533.67	36231.49
533.84	36210.43
534.01	36739.39
534.18	36589.59
534.35	36933.65
534.52	37345.59
534.69	36730.03
534.86	37144.30
535.03	37294.10
535.20	37167.71
535.37	37085.79
535.54	37198.13
535.71	37273.03
535.88	37376.01
536.05	37443.89
536.22	37226.22
536.38	37715.39
536.55	37425.17
536.72	37090.47
536.89	37553.90
537.06	37879.23
537.23	37603.05
537.40	37212.18
537.57	37383.04
537.74	37177.07
537.91	38099.24
538.08	37816.04
538.25	37890.93
538.42	37975.19
538.59	37947.11
538.75	37577.30
538.92	38349.68
539.09	38113.28
539.26	38082.86
539.43	38433.94
539.60	38204.56
539.77	38223.29
539.94	38293.50
540.11	39009.71
540.28	38342.66
540.44	38522.88
540.61	38419.89
540.78	38319.25
540.95	38408.19
541.12	38763.95
541.29	38450.32
541.46	38960.56
541.62	38838.85
541.79	38691.40
541.96	38651.61
542.13	38698.42
542.30	38707.78
542.47	38803.74
542.63	39262.49
542.80	39456.75
542.97	39412.28
543.14	39405.26
543.31	38831.83
543.48	39562.08
543.64	39672.08
543.81	39742.30
543.98	39274.19
544.15	39592.50
544.32	39653.36
544.48	39978.69
544.65	39723.57
544.82	39562.08
544.99	39793.79
545.16	40053.59
545.32	39718.89
545.49	40266.58
545.66	40318.07
545.83	40130.83
546.00	40259.55
546.16	39931.88
546.33	39756.34
546.50	40084.01
546.67	40259.55
546.83	39854.64
547.00	40311.05
547.17	40020.82
547.34	40074.65
547.50	40215.08
547.67	40786.18
547.84	40526.38
548.00	40739.36
548.17	40669.15
548.34	40882.14
548.51	40933.63
548.67	40938.31
548.84	40531.06
549.01	40664.47
549.18	40683.19
549.34	41092.79
549.51	41490.68
549.68	40924.27
549.84	40926.61
550.01	41216.83
550.18	40912.56
550.34	40484.25
550.51	41120.87
550.68	41151.30
550.84	41240.24
551.01	41326.84
551.18	41315.14
551.34	41198.11
551.51	41574.94
551.68	41170.02
551.84	41366.63
552.01	41434.50
552.18	41879.21
552.34	41434.50
552.51	41792.61
552.68	41563.23
552.84	41677.92
553.01	41736.43
553.18	41656.85
553.34	41794.95
553.51	41563.23
553.67	41591.32
553.84	41848.78
554.01	42230.29
554.17	42040.70
554.34	42199.86
554.51	42007.94
554.67	42174.11
554.84	41944.74
555.00	41968.15
555.17	42087.51
555.33	42040.70
555.50	42075.81
555.67	42389.44
555.83	42094.53
556.00	42019.64
556.16	42911.38
556.33	42316.89
556.50	42206.88
556.66	42562.64
556.83	42043.04
556.99	42354.33
557.16	42550.94
557.32	42330.93
557.49	42773.29
557.65	42209.22
557.82	42689.03
557.98	42674.99
558.15	42689.03
558.32	42600.09
558.48	42382.42
558.65	42920.74
558.81	42717.12
558.98	42705.41
559.14	42637.54
559.31	42714.78
559.47	42740.52
559.64	43040.11
559.80	43122.03
559.97	42738.18
560.13	42611.79
560.30	42635.20
560.46	43234.38
560.63	43257.78
560.79	42913.72
560.96	43248.42
561.12	43271.82
561.29	43381.83
561.45	43138.41
561.61	43147.78
561.78	42808.40
561.94	43250.76
562.11	43262.46
562.27	43306.93
562.44	43199.27
562.60	42902.02
562.77	43531.62
562.93	43199.27
563.10	43562.05
563.26	43049.47
563.42	43763.34
563.59	43363.11
563.75	43278.85
563.92	43278.85
564.08	43217.99
564.24	43782.06
564.41	43459.07
564.57	43285.87
564.74	43313.95
564.90	43447.36
565.07	43489.49
565.23	43508.22
565.39	42927.77
565.56	43601.84
565.72	43442.68
565.88	43115.01
566.05	43407.58
566.21	43821.85
566.38	44009.09
566.54	43503.54
566.70	44081.65
566.87	43988.03
567.03	43332.68
567.19	43990.37
567.36	43985.69
567.52	43824.19
567.68	43650.99
567.85	44135.48
568.01	44147.18
568.17	43791.42
568.34	43880.36
568.50	43997.39
568.66	43817.17
568.83	44341.45
568.99	43470.77
569.15	43576.09
569.32	44154.21
569.48	43901.43
569.64	44292.30
569.81	43983.35
569.97	44116.76
570.13	44601.25
570.30	43718.87
570.46	44540.39
570.62	44055.90
570.78	43931.86
570.95	44048.88
571.11	44114.42
571.27	43959.94
571.43	44367.20
571.60	44189.31
571.76	44350.81
571.92	43924.83
572.09	44259.53
572.25	44069.95
572.41	44341.45
572.57	44191.65
572.74	44549.76
572.90	44083.99
573.06	44428.05
573.22	44411.67
573.38	44313.36
573.55	44540.39
573.71	44456.14
573.87	44325.07
574.03	44570.82
574.20	44437.41
574.36	44315.70
574.52	44179.95
574.68	44208.04
574.84	44350.81
575.01	44797.85
575.17	44402.30
575.33	44430.39
575.49	44470.18
575.65	44149.53
575.82	44390.60
575.98	44481.88
576.14	44739.34
576.30	44882.11
576.46	44741.68
576.62	44236.12
576.79	44292.30
576.95	44292.30
577.11	44189.31
577.27	44147.18
577.43	44610.61
577.59	44451.45
577.75	44395.28
577.92	43955.26
578.08	44514.65
578.24	44493.58
578.40	44631.68
578.56	44839.98
578.72	44655.08
578.88	44947.65
579.04	44411.67
579.21	44652.74
579.37	44715.93
579.53	44678.49
579.69	44540.39
579.85	44549.76
580.01	44327.41
580.17	44273.57
580.33	44807.22
580.49	44788.49
580.65	44360.17
580.82	44278.25
580.98	44360.17
581.14	44362.51
581.30	44634.02
581.46	44334.43
581.62	44421.03
581.78	44130.80
581.94	44968.71
582.10	44612.95
582.26	45006.16
582.42	44734.66
582.58	44561.46
582.74	44704.23
582.90	44746.36
583.06	44701.89
583.22	44341.45
583.38	44699.55
583.54	44856.37
583.70	44945.31
583.86	44797.85
584.02	44458.48
584.18	44989.78
584.34	45177.02
584.50	45434.48
584.66	44945.31
584.82	44959.35
584.98	44900.84
585.14	45137.23
585.30	44748.70
585.46	44704.23
585.62	44526.35
585.78	44839.98
585.94	44369.54
586.10	44500.61
586.26	44343.79
586.42	44556.78
586.58	45064.67
586.74	44582.52
586.90	44516.99
587.06	44786.15
587.22	44425.71
587.38	44547.42
587.54	45074.04
587.70	45284.68
587.86	44957.01
588.02	44755.72
588.18	44514.65
588.34	44858.71
588.49	44488.90
588.65	44465.50
588.81	44957.01
588.97	45230.85
589.13	44479.54
589.29	45064.67
589.45	45336.18
589.61	45106.80
589.77	45476.61
589.93	45106.80
590.08	45172.34
590.24	45525.76
590.40	45511.72
590.56	45244.90
590.72	45034.25
590.88	45050.63
591.04	45024.89
591.20	45291.71
591.35	44938.29
591.51	45869.82
591.67	45663.85
591.83	45385.33
591.99	45296.39
592.15	45209.79
592.31	45099.78
592.46	45069.36
592.62	45074.04
592.78	45633.42
592.94	45872.16
593.10	45546.82
593.26	46036.00
593.41	45801.94
593.57	45436.82
593.73	45572.57
593.89	45937.69
594.05	45862.80
594.20	45237.87
594.36	45947.06
594.52	45509.38
594.68	45656.83
594.84	45694.28
594.99	45481.29
595.15	45350.22
595.31	45415.76
595.47	45820.67
595.62	45921.31
595.78	45338.52
595.94	45881.52
596.10	45624.06
596.25	45916.63
596.41	45687.26
596.57	45441.50
596.73	45813.65
596.88	45537.46
597.04	45347.88
597.20	46272.39
597.36	45537.46
597.51	45603.00
597.67	45544.48
597.83	45436.82
597.99	45764.49
598.14	44980.42
598.30	45841.73
598.46	45282.34
598.61	46040.68
598.77	45481.29
598.93	45500.01
599.09	45448.52
599.24	45937.69
599.40	45415.76
599.56	45841.73
599.71	45865.14
599.87	46057.06
600.03	45900.25
600.18	45722.37
600.34	45696.62
600.50	46188.13
600.65	45507.04
600.81	45862.80
600.97	45982.16
601.12	45979.82
601.28	45411.07
601.44	45420.44
601.59	45614.70
601.75	45502.35
601.91	46073.45
602.06	45900.25
602.22	45820.67
602.37	45659.17
602.53	45567.89
602.69	46019.61
602.84	45893.22
603.00	46293.46
603.16	45956.42
603.31	45684.92
603.47	45813.65
603.62	45827.69
603.78	46178.77
603.94	45729.39
604.09	45558.53
604.25	45530.44
604.40	45460.23
604.56	45514.06
604.71	46124.94
604.87	45862.80
605.03	45310.43
605.18	45670.87
605.34	45925.99
605.49	45434.48
605.65	45720.02
605.80	45226.17
605.96	45296.39
606.12	45792.58
606.27	45865.14
606.43	45212.13
606.58	45933.01
606.74	45928.33
606.89	45694.28
607.05	45951.74
607.20	45516.40
607.36	45595.98
607.51	45537.46
607.67	45567.89
607.82	45471.93
607.98	45815.99
608.13	45464.91
608.29	45572.57
608.44	45675.55
608.60	45516.40
608.75	45694.28
608.91	45588.95
609.06	45579.59
609.22	45663.85
609.37	45588.95
609.53	45495.33
609.68	45226.17
609.84	45006.16
609.99	45771.52
610.15	45757.47
610.30	45408.73
610.46	45476.61
610.61	45500.01
610.76	45661.51
610.92	45434.48
611.07	45125.53
611.23	45497.67
611.38	45202.77
611.54	45317.45
611.69	45502.35
611.84	45216.81
612.00	45338.52
612.15	45177.02
612.31	45137.23
612.46	44912.54
612.62	45095.10
612.77	45303.41
612.92	44898.50
613.08	45160.64
613.23	45406.39
613.39	44769.77
613.54	44839.98
613.69	44903.18
613.85	45172.34
614.00	45177.02
614.15	45083.40
614.31	44949.99
614.46	45312.77
614.62	44589.55
614.77	45067.02
614.92	45106.80
615.08	44638.70
615.23	45137.23
615.38	45195.74
615.54	44905.52
615.69	44863.39
615.84	44524.01
616.00	44666.78
616.15	44704.23
616.30	45020.20
616.46	44928.92
616.61	44945.31
616.76	45041.27
616.92	44680.83
617.07	44603.59
617.22	44556.78
617.37	44259.53
617.53	44261.87
617.68	44406.98
617.83	44708.91
617.99	44931.26
618.14	45015.52
618.29	44399.96
618.45	44116.76
618.60	44346.13
618.75	44404.64
618.90	44039.52
619.06	44626.99
619.21	44399.96
619.36	44926.58
619.51	44399.96
619.67	44493.58
619.82	44198.68
619.97	44044.20
620.12	44495.92
620.28	44259.53
620.43	44493.58
620.58	44299.32
620.73	44540.39
620.89	44336.77
621.04	44533.37
621.19	44421.03
621.34	44465.50
621.49	43978.67
621.65	44107.40
621.80	44304.00
621.95	44018.46
622.10	44205.70
622.25	43753.97
622.41	44065.27
622.56	43999.73
622.71	44158.89
622.86	44067.61
623.01	44023.14
623.16	44329.75
623.32	44388.26
623.47	44128.46
623.62	43590.14
623.77	43929.51
623.92	43332.68
624.07	44453.79
624.23	43744.61
624.38	44289.96
624.53	43941.22
624.68	43906.11
624.83	43714.19
624.98	43915.47
625.13	43449.70
625.29	43709.50
625.44	43564.39
625.59	43753.97
625.74	43533.96
625.89	43725.89
626.04	43496.52
626.19	43285.87
626.34	43330.34
626.49	43461.41
626.65	42897.34
626.80	43524.60
626.95	43447.36
627.10	42806.06
627.25	43332.68
627.40	43503.54
627.55	43555.03
627.70	43126.71
627.85	43171.18
628.00	43332.68
628.15	43276.51
628.30	42976.92
628.45	43068.20
628.60	42831.80
628.76	42890.32
628.91	43175.86
629.06	42541.58
629.21	42890.32
629.36	42548.60
629.51	42710.10
629.66	43042.45
629.81	43049.47
629.96	43236.72
630.11	43124.37
630.26	43150.12
630.41	42766.27
630.56	42366.04
630.71	42824.78
630.86	42616.47
631.01	42230.29
631.16	42735.84
631.31	42375.40
631.46	42279.44
631.61	42319.23
631.76	42637.54
631.91	42686.69
632.06	42939.47
632.21	42852.87
632.36	42656.26
632.51	42237.31
632.66	42501.79
632.81	42770.95
632.96	42892.66
633.10	42314.55
633.25	42244.33
633.40	42375.40
633.55	42295.82
633.70	42478.38
633.85	42803.72
634.00	42234.97
634.15	41886.23
634.30	42244.33
634.45	42366.04
634.60	42293.48
634.75	42665.63
634.90	42127.30
635.05	42148.37
635.19	42171.77
635.34	42202.20
635.49	41949.42
635.64	42021.98
635.79	42267.73
635.94	42274.76
636.09	41773.88
636.24	42232.63
636.39	42195.18
636.53	42071.13
636.68	41544.51
636.83	41848.78
636.98	41258.96
637.13	41331.52
637.28	41652.17
637.43	41373.65
637.57	41567.91
637.72	41500.04
637.87	41415.78
638.02	41544.51
638.17	41619.41
638.32	41509.40
638.46	41401.74
638.61	40884.48
638.76	40966.40
638.91	41490.68
639.06	41385.35
639.20	40886.82
639.35	41296.41
639.50	40903.20
639.65	41111.51
639.80	40968.74
639.94	41125.55
640.09	41366.63
640.24	41612.38
640.39	41214.49
640.54	40624.68
640.68	41251.94
640.83	41097.47
640.98	41097.47
641.13	40931.29
641.27	41198.11
641.42	41034.27
641.57	41020.23
641.72	41237.90
641.86	40968.74
642.01	40715.96
642.16	40442.12
642.31	40751.07
642.45	41298.75
642.60	40629.36
642.75	40446.80
642.90	41050.66
643.04	40734.68
643.19	40849.37
643.34	41006.19
643.48	40123.80
643.63	40540.42
643.78	40856.39
643.93	40474.88
644.07	40907.88
644.22	40783.83
644.37	40573.19
644.51	40727.66
644.66	40502.97
644.81	40526.38
644.95	40921.93
645.10	40416.37
645.25	40481.91
645.39	40137.85
645.54	40095.72
645.69	39927.20
645.83	40322.75
645.98	40051.25
646.13	40053.59
646.27	40449.14
646.42	39903.79
646.57	40030.18
646.71	40381.26
646.86	40612.98
647.00	40369.56
647.15	40233.81
647.30	40222.11
647.44	39807.83
647.59	39934.22
647.74	39988.05
647.88	40598.93
648.03	40058.27
648.17	40184.66
648.32	40126.14
648.47	40294.66
648.61	40039.54
648.76	39725.91
648.90	39164.18
649.05	39421.64
649.20	39931.88
649.34	39737.62
649.49	39962.31
649.63	39690.80
649.78	39718.89
649.92	39676.76
650.07	39981.03
650.21	40287.64
650.36	39751.66
650.51	39533.99
650.65	40177.64
650.80	39955.29
650.94	39754.00
651.09	39735.27
651.23	39269.51
651.38	39276.53
651.52	39381.85
651.67	39927.20
651.81	39374.83
651.96	39344.41
652.10	38850.55
652.25	39152.48
652.39	39168.87
652.54	39548.03
652.68	39243.76
652.83	39318.66
652.97	39112.69
653.12	39161.84
653.26	39182.91
653.41	38457.34
653.55	38778.00
653.70	39182.91
653.84	39742.30
653.99	38972.26
654.13	38955.88
654.27	38607.14
654.42	38958.22
654.56	38820.13
654.71	39033.11
654.85	38609.48
655.00	39398.24
655.14	39164.18
655.29	39222.70
655.43	39395.90
655.57	38951.20
655.72	38541.60
655.86	38829.49
656.01	38686.71
656.15	38677.35
656.30	38756.93
656.44	38061.79
656.58	38637.56
656.73	38565.01
656.87	38445.64
657.01	38293.50
657.16	38646.93
657.30	38403.51
657.45	38550.96
657.59	37949.45
657.73	38197.54
657.88	38370.74
658.02	38621.18
658.16	38696.08
658.31	38550.96
658.45	37963.49
658.60	38265.42
658.74	38253.72
658.88	38195.20
659.03	38499.47
659.17	38010.30
659.31	37879.23
659.46	37656.88
659.60	37935.40
659.74	37542.19
659.89	37553.90
660.03	37422.83
660.17	37912.00
660.32	37769.22
660.46	37771.57
660.60	37202.82
660.74	37308.14
660.89	37750.50
661.03	37046.00
661.17	37364.31
661.32	37111.53
661.46	36868.12
661.60	37083.45
661.74	37116.22
661.89	37060.04
662.03	37530.49
662.17	36914.93
662.31	36947.70
662.46	37038.98
662.60	37050.68
662.74	36467.89
662.88	36680.88
663.03	36210.43
663.17	36407.03
663.31	36217.45
663.45	36552.15
663.60	37130.26
663.74	36477.25
663.88	36421.08
664.02	36484.27
664.17	36584.91
664.31	36297.03
664.45	36229.15
664.59	36172.98
664.73	36048.93
664.88	36353.20
665.02	35672.10
665.16	36058.29
665.30	35800.83
665.44	35777.43
665.59	35374.86
665.73	35461.46
665.87	35012.07
666.01	35754.02
666.15	36168.30
666.29	35761.05
666.44	35798.49
666.58	35660.40
666.72	35290.60
666.86	35339.75
667.00	35285.92
667.14	35672.10
667.28	35309.32
667.43	34831.85
667.57	34923.13
667.71	35173.57
667.85	35346.77
667.99	35248.47
668.13	34768.66
668.27	34754.61
668.41	34838.87
668.56	34284.17
668.70	34323.96
668.84	34541.63
668.98	34405.88
669.12	34499.50
669.26	34352.04
669.40	34066.50
669.54	34464.39
669.68	34436.30
669.82	34157.78
669.96	34057.14
670.10	33862.87
670.25	34117.99
670.39	33965.85
670.53	34106.29
670.67	33998.62
670.81	34162.46
670.95	34012.66
671.09	33830.10
671.23	33612.43
671.37	33574.98
671.51	33329.23
671.65	33427.53
671.79	33062.41
671.93	33219.22
672.07	33191.14
672.21	33057.73
672.35	32966.45
672.49	33008.58
672.63	33649.88
672.77	33123.26
672.91	33453.28
673.05	32744.09
673.19	32732.39
673.33	32582.60
673.47	32416.42
673.61	32334.50
673.75	32451.53
673.89	32446.85
674.03	32074.70
674.17	31957.67
674.31	31814.90
674.45	32121.51
674.59	32081.72
674.73	31850.01
674.87	31512.97
675.01	31660.43
675.15	31150.19
675.29	31711.92
675.43	31379.56
675.56	31632.34
675.70	31372.54
675.84	31449.78
675.98	30710.17
676.12	31068.27
676.26	31243.81
676.40	30965.29
676.54	30363.77
676.68	30787.41
676.82	30148.44
676.96	30515.90
677.10	30546.33
677.23	30307.60
677.37	30148.44
677.51	30211.64
677.65	30155.46
677.79	29919.07
677.93	30054.82
678.07	29771.61
678.21	29865.24
678.34	29631.18
678.48	29345.64
678.62	29076.48
678.76	29523.52
678.90	28929.02
679.04	28739.44
679.18	29495.43
679.31	28919.66
679.45	28802.63
679.59	28814.34
679.73	28617.73
679.87	29139.67
680.00	28589.64
680.14	28465.60
680.28	28627.09
680.42	28114.52
680.56	27999.83
680.70	28013.87
680.83	27824.29
680.97	28006.85
681.11	27779.82
681.25	28093.45
681.39	27473.21
681.52	27513.00
681.66	27503.64
681.80	26663.38
681.94	27178.30
682.07	27101.06
682.21	27012.12
682.35	27033.19
682.49	27285.97
682.62	26984.04
682.76	26684.45
682.90	26745.30
683.04	26490.18
683.17	26754.66
683.31	26047.82
683.45	26225.70
683.59	26064.21
683.72	26019.74
683.86	25930.80
684.00	25893.35
684.13	25769.30
684.27	25867.60
684.41	25291.83
684.55	25642.91
684.68	25483.75
684.82	25120.97
684.96	24903.30
685.09	25219.27
685.23	25020.33
685.37	25219.27
685.50	25497.80
685.64	25017.99
685.78	24823.72
685.91	24924.36
686.05	24294.76
686.19	24119.22
686.32	24184.76
686.46	24135.60
686.60	23669.84
686.73	23887.51
686.87	23793.89
687.01	24140.29
687.14	23885.17
687.28	23744.73
687.42	23604.30
687.55	23648.77
687.69	23360.89
687.82	23309.40
687.96	23623.03
688.10	23393.65
688.23	23515.36
688.37	23110.45
688.50	23068.32
688.64	22705.54
688.78	22979.38
688.91	22970.02
689.05	22803.84
689.18	22417.65
689.32	22270.20
689.46	22295.94
689.59	22246.79
689.73	22410.63
689.86	22221.05
690.00	22207.00
690.13	22298.28
690.27	22075.93
690.41	22066.57
690.54	21661.66
690.68	21497.82
690.81	21596.12
690.95	21413.56
691.08	21238.02
691.22	21275.47
691.35	21135.04
691.49	21231.00
691.62	20779.28
691.76	21015.67
691.89	20718.42
692.03	20533.52
692.16	20432.88
692.30	20388.41
692.43	20575.65
692.57	20393.09
692.70	20137.97
692.84	19964.77
692.97	19997.54
693.11	19939.02
693.24	19740.08
693.38	19613.69
693.51	19758.80
693.65	19756.46
693.78	19552.84
693.92	19611.35
694.05	19302.40
694.19	19393.68
694.32	19627.73
694.45	19613.69
694.59	19112.81
694.72	19143.24
694.86	19056.64
694.99	18803.86
695.13	18698.54
695.26	18487.89
695.39	18490.23
695.53	18607.26
695.66	18511.30
695.80	18391.93
695.93	18305.33
696.07	18099.36
696.20	17844.24
696.33	17933.18
696.47	17591.47
696.60	17401.88
696.73	17703.81
696.87	17790.41
697.00	17710.83
697.14	17326.99
697.27	17373.80
697.40	17336.35
697.54	16917.39
697.67	17312.94
697.80	17099.95
697.94	17167.83
698.07	17041.44
698.21	16723.13
698.34	17088.25
698.47	16737.17
698.61	16411.84
698.74	16643.55
698.87	16484.39
699.01	16180.12
699.14	16362.69
699.27	15955.43
699.40	16250.34
699.54	16107.57
699.67	16102.89
699.80	16030.33
699.94	15896.92
700.07	16020.97
700.20	15726.06
700.34	15777.55
700.47	15740.10
700.60	15683.93
700.73	15473.28
700.87	15829.04
701.00	15379.66
701.13	15105.82
701.26	15164.33
701.40	15094.11
701.53	14831.97
701.66	14986.45
701.79	14941.98
701.93	14986.45
702.06	14455.15
702.19	14864.74
702.32	14560.47
702.46	14728.99
702.59	14438.76
702.72	14640.05
702.85	14597.92
702.99	14476.21
703.12	14223.44
703.25	14249.18
703.38	14211.73
703.51	14143.86
703.65	13923.85
703.78	13738.94
703.91	13605.53
704.04	13745.97
704.17	13472.12
704.31	13647.66
704.44	13427.65
704.57	13429.99
704.70	13511.91
704.83	13160.83
704.96	13025.08
705.10	13060.19
705.23	13254.45
>>>>>End Processed Spectral Data<<<<<
