SpectraSuite Data File
++++++++++++++++++++++++++++++++++++
Date: Fri Oct 25 11:33:29 EDT 2013
User: price-jones
Dark Spectrum Present: No
Reference Spectrum Present: No
Number of Sampled Component Spectra: 1
Spectrometers: USB2+H05261
Integration Time (usec): 100000 (USB2+H05261)
Spectra Averaged: 1 (USB2+H05261)
Boxcar Smoothing: 0 (USB2+H05261)
Correct for Electrical Dark: No (USB2+H05261)
Strobe/Lamp Enabled: No (USB2+H05261)
Correct for Detector Non-linearity: No (USB2+H05261)
Correct for Stray Light: No (USB2+H05261)
Number of Pixels in Processed Spectrum: 2048
>>>>>Begin Processed Spectral Data<<<<<
365.73	229.37
365.92	229.37
366.12	229.37
366.32	210.65
366.52	177.88
366.72	217.67
366.91	168.52
367.11	203.63
367.31	152.13
367.51	177.88
367.70	184.90
367.90	140.43
368.10	184.90
368.30	220.01
368.49	175.54
368.69	154.48
368.89	224.69
369.09	177.88
369.28	149.79
369.48	220.01
369.68	245.76
369.87	231.71
370.07	222.35
370.27	266.82
370.47	353.42
370.66	477.47
370.86	580.45
371.06	524.28
371.25	603.86
371.45	617.90
371.65	615.56
371.84	521.94
372.04	550.03
372.24	561.73
372.44	568.75
372.63	554.71
372.83	559.39
373.03	596.84
373.22	573.43
373.42	571.09
373.62	610.88
373.81	594.50
374.01	741.95
374.21	704.50
374.40	650.67
374.60	622.58
374.79	564.07
374.99	643.65
375.19	702.16
375.38	674.07
375.58	650.67
375.78	709.18
375.97	648.33
376.17	704.50
376.37	641.31
376.56	650.67
376.76	713.86
376.95	690.46
377.15	744.29
377.35	678.76
377.54	716.20
377.74	664.71
377.93	653.01
378.13	664.71
378.33	744.29
378.52	669.39
378.72	653.01
378.91	784.08
379.11	690.46
379.31	685.78
379.50	653.01
379.70	727.91
379.89	744.29
380.09	650.67
380.28	674.07
380.48	685.78
380.68	737.27
380.87	730.25
381.07	755.99
381.26	814.51
381.46	716.20
381.65	718.54
381.85	685.78
382.04	786.42
382.24	826.21
382.43	744.29
382.63	746.63
382.83	753.65
383.02	770.04
383.22	723.23
383.41	774.72
383.61	784.08
383.80	821.53
384.00	777.06
384.19	793.44
384.39	851.96
384.58	814.51
384.78	826.21
384.97	849.61
385.17	814.51
385.36	884.72
385.56	809.83
385.75	837.91
385.95	933.87
386.14	873.02
386.34	875.36
386.53	908.13
386.72	908.13
386.92	863.66
387.11	950.26
387.31	882.38
387.50	898.77
387.70	866.00
387.89	880.04
388.09	863.66
388.28	887.06
388.48	966.64
388.67	891.74
388.86	873.02
389.06	889.40
389.25	997.07
389.45	1001.75
389.64	985.37
389.84	929.19
390.03	950.26
390.22	959.62
390.42	947.92
390.61	966.64
390.81	1027.50
391.00	966.64
391.19	1006.43
391.39	973.66
391.58	966.64
391.78	1025.15
391.97	1076.65
392.16	1013.45
392.36	1114.10
392.55	1067.28
392.75	1043.88
392.94	1050.90
393.13	1029.84
393.33	1125.80
393.52	1090.69
393.71	1013.45
393.91	1149.20
394.10	1074.31
394.29	1097.71
394.49	1067.28
394.68	1177.29
394.88	1078.99
395.07	1142.18
395.26	1186.65
395.46	1158.57
395.65	1184.31
395.84	1177.29
396.04	1207.72
396.23	1235.80
396.42	1097.71
396.62	1179.63
396.81	1170.27
397.00	1221.76
397.19	1219.42
397.39	1186.65
397.58	1334.11
397.77	1231.12
397.97	1221.76
398.16	1289.64
398.35	1310.70
398.55	1259.21
398.74	1266.23
398.93	1338.79
399.12	1270.91
399.32	1282.61
399.51	1317.72
399.70	1294.32
399.90	1364.53
400.09	1249.85
400.28	1383.26
400.47	1355.17
400.67	1453.47
400.86	1369.21
401.05	1369.21
401.24	1423.05
401.44	1490.92
401.63	1474.54
401.82	1483.90
402.01	1439.43
402.21	1476.88
402.40	1373.89
402.59	1519.01
402.78	1523.69
402.97	1526.03
403.17	1547.09
403.36	1540.07
403.55	1458.15
403.74	1589.22
403.93	1619.65
404.13	1694.55
404.32	1610.29
404.51	1593.90
404.70	1624.33
404.89	1619.65
405.09	1668.80
405.28	1607.95
405.47	1636.03
405.66	1694.55
405.85	1710.93
406.05	1757.74
406.24	1699.23
406.43	1685.19
406.62	1846.68
406.81	1788.17
407.00	1750.72
407.20	1795.19
407.39	1762.42
407.58	1757.74
407.77	1839.66
407.96	1886.47
408.15	1928.60
408.34	1877.11
408.54	1961.37
408.73	1916.90
408.92	1952.01
409.11	2012.86
409.30	1923.92
409.49	2085.42
409.68	2003.50
409.87	2040.95
410.07	2076.06
410.26	2052.65
410.45	2008.18
410.64	2150.95
410.83	2083.08
411.02	2071.37
411.21	2125.21
411.40	2139.25
411.59	2172.02
411.78	2188.40
411.98	2190.74
412.17	2249.25
412.36	2338.20
412.55	2265.64
412.74	2438.84
412.93	2296.07
413.12	2277.34
413.31	2511.39
413.50	2385.01
413.69	2438.84
413.88	2469.27
414.07	2434.16
414.26	2429.48
414.45	2523.10
414.64	2555.86
414.83	2530.12
415.02	2654.17
415.22	2691.62
415.41	2679.91
415.60	2597.99
415.79	2640.12
415.98	2754.81
416.17	2759.49
416.36	2679.91
416.55	2764.17
416.74	2708.00
416.93	2778.22
417.12	2759.49
417.31	2794.60
417.50	2867.16
417.69	2965.46
417.88	2986.52
418.07	2913.97
418.26	2958.44
418.45	2981.84
418.64	3103.55
418.83	3009.93
419.02	2972.48
419.21	3176.11
419.39	3117.59
419.58	3108.23
419.77	2977.16
419.96	3096.53
420.15	3112.91
420.34	3187.81
420.53	3056.74
420.72	3215.90
420.91	3307.18
421.10	3342.28
421.29	3304.84
421.48	3185.47
421.67	3419.52
421.86	3293.13
422.05	3314.20
422.24	3361.01
422.43	3351.65
422.61	3363.35
422.80	3311.86
422.99	3346.97
423.18	3346.97
423.37	3475.70
423.56	3410.16
423.75	3414.84
423.94	3463.99
424.13	3220.58
424.32	3218.24
424.50	3471.01
424.69	3499.10
424.88	3475.70
425.07	3412.50
425.26	3389.10
425.45	3417.18
425.64	3379.73
425.83	3384.41
426.01	3391.44
426.20	3419.52
426.39	3524.85
426.58	3557.61
426.77	3358.67
426.96	3414.84
427.15	3417.18
427.33	3562.30
427.52	3693.37
427.71	3641.87
427.90	3630.17
428.09	3662.94
428.28	3648.90
428.46	3641.87
428.65	3721.45
428.84	3691.02
429.03	3749.54
429.22	3658.26
429.40	3733.15
429.59	3815.07
429.78	3644.21
429.97	3630.17
430.16	3754.22
430.34	3798.69
430.53	3913.38
430.72	3887.63
430.91	3887.63
431.10	3810.39
431.28	3941.46
431.47	3936.78
431.66	4124.02
431.85	3941.46
432.03	4060.83
432.22	4007.00
432.41	4007.00
432.60	3983.59
432.79	4067.85
432.97	4095.94
433.16	4074.87
433.35	4109.98
433.54	4161.47
433.72	4360.42
433.91	4147.43
434.10	4159.13
434.28	4140.41
434.47	4210.62
434.66	4266.80
434.85	4156.79
435.03	4297.22
435.22	4219.99
435.41	4442.34
435.59	4402.55
435.78	4484.47
435.97	4416.59
436.16	4367.44
436.34	4416.59
436.53	4458.72
436.72	4500.85
436.90	4500.85
437.09	4521.92
437.28	4552.34
437.46	4613.20
437.65	4550.00
437.84	4486.81
438.02	4592.13
438.21	4507.87
438.40	4559.36
438.58	4762.99
438.77	4610.86
438.96	4795.76
439.14	4835.55
439.33	4990.02
439.52	4922.15
439.70	4961.94
439.89	4975.98
440.08	4931.51
440.26	4975.98
440.45	5036.83
440.63	5048.54
440.82	5170.24
441.01	5130.45
441.19	5142.16
441.38	5186.63
441.57	5369.19
441.75	5268.55
441.94	5472.17
442.12	5397.28
442.31	5369.19
442.50	5584.52
442.68	5521.32
442.87	5497.92
443.05	5380.89
443.24	5561.11
443.43	5413.66
443.61	5425.36
443.80	5729.63
443.98	5476.85
444.17	5303.65
444.35	5724.95
444.54	5792.83
444.73	5619.63
444.91	5624.31
445.10	5685.16
445.28	5586.86
445.47	5547.07
445.65	5633.67
445.84	5706.23
446.02	5841.98
446.21	5675.80
446.39	5750.70
446.58	5722.61
446.77	5636.01
446.95	5638.35
447.14	5844.32
447.32	5809.21
447.51	5844.32
447.69	5760.06
447.88	5703.89
448.06	5818.57
448.25	5870.06
448.43	5741.33
448.62	5774.10
448.80	5731.97
448.99	5959.00
449.17	5879.43
449.36	5703.89
449.54	5884.11
449.73	5846.66
449.91	6136.88
450.10	6265.61
450.28	6038.58
450.46	6211.78
450.65	6071.35
450.83	5970.71
451.02	6125.18
451.20	6354.55
451.39	6127.52
451.57	6279.66
451.76	6160.29
451.94	6251.57
452.13	6319.45
452.31	6485.62
452.49	6181.35
452.68	6324.13
452.86	6171.99
453.05	6363.92
453.23	6373.28
453.42	6258.59
453.60	6558.18
453.78	6356.90
453.97	6282.00
454.15	6296.04
454.34	6366.26
454.52	6497.33
454.70	6548.82
454.89	6572.22
455.07	6565.20
455.26	6532.44
455.44	6686.91
455.62	6654.14
455.81	6787.55
455.99	6665.85
456.17	6656.48
456.36	6761.81
456.54	6717.34
456.73	6909.26
456.91	7089.48
457.09	6848.41
457.28	7148.00
457.46	6979.48
457.64	7023.95
457.83	7133.95
458.01	6953.73
458.19	7176.08
458.38	7052.03
458.56	7239.28
458.74	7239.28
458.93	7148.00
459.11	7140.97
459.29	7164.38
459.48	7180.76
459.66	7314.17
459.84	7424.18
460.03	7431.20
460.21	7485.03
460.39	7482.69
460.57	7433.54
460.76	7494.40
460.94	7375.03
461.12	7452.27
461.31	7538.87
461.49	7470.99
461.67	7562.27
461.85	7744.83
462.04	7571.63
462.22	8070.17
462.40	7676.96
462.59	7707.38
462.77	7599.72
462.95	7669.94
463.13	7751.85
463.32	7749.51
463.50	7859.52
463.68	7941.44
463.86	8053.78
464.05	7826.75
464.23	7857.18
464.41	7995.27
464.59	7700.36
464.78	8203.58
464.96	8187.19
465.14	7705.04
465.32	8145.06
465.50	8037.40
465.69	8098.25
465.87	8056.12
466.05	8112.30
466.23	8189.53
466.41	8215.28
466.60	8402.52
466.78	8145.06
466.96	8156.77
467.14	8126.34
467.32	8355.71
467.51	8409.54
467.69	8341.67
467.87	8252.73
468.05	8290.18
468.23	8299.54
468.41	8531.25
468.60	8365.07
468.78	8496.14
468.96	8510.19
469.14	8535.93
469.32	8606.15
469.50	8248.05
469.69	8620.19
469.87	8788.71
470.05	8826.16
470.23	8828.50
470.41	8861.27
470.59	8814.46
470.77	8943.19
470.95	8961.91
471.14	8971.27
471.32	8945.53
471.50	8952.55
471.68	9114.05
471.86	9100.00
472.04	9142.13
472.22	9413.63
472.40	9315.33
472.58	9179.58
472.77	9373.85
472.95	9427.68
473.13	9785.78
473.31	9434.70
473.49	9467.47
473.67	9430.02
473.85	9493.21
474.03	9837.27
474.21	9767.06
474.39	9764.72
474.57	9825.57
474.75	9675.77
474.93	9731.95
475.12	10038.56
475.30	10178.99
475.48	10188.35
475.66	9898.13
475.84	10176.65
476.02	10296.02
476.20	10291.34
476.38	10321.76
476.56	10340.49
476.74	10485.60
476.92	10359.21
477.10	10787.53
477.28	10862.43
477.46	10747.74
477.64	10710.29
477.82	10995.84
478.00	11150.31
478.18	11007.54
478.36	11260.32
478.54	11267.34
478.72	11211.17
478.90	11611.40
479.08	11602.04
479.26	11583.31
479.44	11662.89
479.62	11763.53
479.80	11845.45
479.98	11800.98
480.16	12306.54
480.34	11999.93
480.52	12159.08
480.70	12346.33
480.88	11995.25
481.06	12512.50
481.24	12465.69
481.41	12566.34
481.59	12760.60
481.77	12599.10
481.95	12713.79
482.13	13107.00
482.31	12947.84
482.49	13319.99
482.67	13397.23
482.85	13462.76
483.03	13701.50
483.21	13626.60
483.39	13685.11
483.57	13891.08
483.74	13731.92
483.92	14008.11
484.10	13841.93
484.28	14338.12
484.46	14331.10
484.64	14698.56
484.82	14485.58
485.00	14740.69
485.18	14995.81
485.35	15236.89
485.53	15225.18
485.71	15131.56
485.89	15522.43
486.07	15176.03
486.25	15536.48
486.43	15693.29
486.61	15651.16
486.78	15669.89
486.96	15861.81
487.14	16245.66
487.32	16219.91
487.50	16255.02
487.68	16243.32
487.85	16795.68
488.03	16723.13
488.21	16875.26
488.39	16870.58
488.57	17128.04
488.75	16982.93
488.92	17392.52
489.10	17408.90
489.28	17516.57
489.46	17799.77
489.64	17603.17
489.81	18073.62
489.99	18349.80
490.17	18120.43
490.35	18405.97
490.53	18618.96
490.70	18583.85
490.88	18483.21
491.06	18764.07
491.24	18925.57
491.41	18813.23
491.59	19264.95
491.77	19220.48
491.95	19594.96
492.13	19494.32
492.30	19520.07
492.48	19700.29
492.66	19934.34
492.84	20112.22
493.01	20467.98
493.19	20173.08
493.37	20421.17
493.54	20446.92
493.72	20854.17
493.90	20444.58
494.08	20905.66
494.25	20987.58
494.43	21036.74
494.61	21287.17
494.79	21350.37
494.96	21256.75
495.14	21537.61
495.32	21631.23
495.49	21530.59
495.67	21806.77
495.85	21750.60
496.02	21830.18
496.20	22485.53
496.38	22256.15
496.55	22473.82
496.73	22698.52
496.91	22799.16
497.09	23037.89
497.26	22611.92
497.44	22899.80
497.62	23283.65
497.79	23367.91
497.97	23168.96
498.14	23864.10
498.32	23761.12
498.50	23929.64
498.67	24163.69
498.85	24081.77
499.03	23997.51
499.20	24025.60
499.38	24074.75
499.56	23971.77
499.73	24545.20
499.91	24535.84
500.08	24709.04
500.26	24198.80
500.44	24947.77
500.61	24917.34
500.79	24814.36
500.97	24968.84
501.14	25039.05
501.32	25551.63
501.49	25305.87
501.67	25343.32
501.84	25654.61
502.02	25575.03
502.20	25364.39
502.37	25542.27
502.55	25977.61
502.72	25865.26
502.90	26057.18
503.07	25879.30
503.25	26099.31
503.43	25919.09
503.60	26148.46
503.78	26705.51
503.95	26302.94
504.13	26920.84
504.30	26768.71
504.48	26293.58
504.65	26895.10
504.83	26974.67
505.01	26881.05
505.18	27285.97
505.36	27185.32
505.53	27618.32
505.71	27541.08
505.88	27618.32
506.06	27456.82
506.23	27529.38
506.41	27943.66
506.58	27857.06
506.76	27927.27
506.93	27826.63
507.11	28182.39
507.28	28388.36
507.46	28416.44
507.63	27997.49
507.81	28458.57
507.98	28680.92
508.16	28807.31
508.33	28549.85
508.50	28680.92
508.68	28809.65
508.85	29097.54
509.03	29010.94
509.20	29067.11
509.38	29364.36
509.55	28971.15
509.73	28982.85
509.90	29394.79
510.08	29228.61
510.25	29591.39
510.42	29708.42
510.60	29717.78
510.77	29757.57
510.95	29912.05
511.12	29825.45
511.30	29860.55
511.47	30024.39
511.64	30380.15
511.82	30534.63
511.99	30532.29
512.17	30457.39
512.34	30551.01
512.51	30539.31
512.69	30752.30
512.86	30541.65
513.04	30733.57
513.21	31061.25
513.38	31002.74
513.56	31243.81
513.73	31154.87
513.90	31056.57
514.08	31023.80
514.25	31505.95
514.43	31587.87
514.60	31505.95
514.77	31920.23
514.95	31791.50
515.12	31379.56
515.29	31622.98
515.47	31651.06
515.64	31929.59
515.81	31426.37
515.99	32299.39
516.16	32280.67
516.33	32170.66
516.51	32524.08
516.68	32208.11
516.85	32606.00
517.03	32830.69
517.20	32903.25
517.37	32517.06
517.54	32968.79
517.72	33046.02
517.89	33127.94
518.06	33125.60
518.24	32964.10
518.41	32662.18
518.58	33315.19
518.75	32680.90
518.93	33446.26
519.10	33427.53
519.27	33523.49
519.45	33593.71
519.62	33792.65
519.79	33436.89
519.96	33553.92
520.14	34125.01
520.31	33818.40
520.48	34064.16
520.65	34354.38
520.83	34087.56
521.00	34387.15
521.17	34110.97
521.34	34349.70
521.52	34440.98
521.69	34473.75
521.86	34731.21
522.03	35112.72
522.20	34878.66
522.38	35400.60
522.55	35140.80
522.72	34843.56
522.89	35096.33
523.07	35201.66
523.24	35372.52
523.41	35445.07
523.58	35196.98
523.75	35571.46
523.92	35220.38
524.10	35747.00
524.27	36072.34
524.44	35714.23
524.61	36086.38
524.78	36070.00
524.96	35697.85
525.13	36011.48
525.30	36203.41
525.47	36215.11
525.64	35889.77
525.81	36510.02
525.98	36287.67
526.16	36491.29
526.33	36385.97
526.50	36437.46
526.67	36121.49
526.84	36683.22
527.01	36449.16
527.18	36481.93
527.36	36474.91
527.53	36940.68
527.70	37233.24
527.87	36938.33
528.04	36898.55
528.21	36861.10
528.38	36896.20
528.55	37071.75
528.72	37425.17
528.89	37504.74
529.07	37373.67
529.24	37118.56
529.41	37684.97
529.58	37081.11
529.75	37345.59
529.92	37755.18
530.09	37481.34
530.26	37724.75
530.43	37741.14
530.60	37940.08
530.77	37886.25
530.94	37741.14
531.11	38094.56
531.28	37668.58
531.46	38087.54
531.63	38366.06
531.80	38431.60
531.97	38120.31
532.14	38684.37
532.31	38387.13
532.48	38646.93
532.65	38852.89
532.82	38543.94
532.99	38649.27
533.16	38534.58
533.33	38710.12
533.50	38873.96
533.67	38815.44
533.84	38440.96
534.01	38965.24
534.18	38714.80
534.35	39365.47
534.52	38719.48
534.69	39723.57
534.86	39278.87
535.03	39115.03
535.20	39248.44
535.37	39196.95
535.54	39693.15
535.71	39044.82
535.88	39782.09
536.05	39555.05
536.22	40177.64
536.38	39690.80
536.55	39793.79
536.72	39454.41
536.89	39559.73
537.06	39966.99
537.23	40114.44
537.40	40041.88
537.57	39828.90
537.74	39463.77
537.91	39566.76
538.08	40343.81
538.25	39688.46
538.42	40268.92
538.59	40664.47
538.75	40395.31
538.92	40301.68
539.09	40760.43
539.26	40722.98
539.43	40397.65
539.60	40641.06
539.77	40437.44
539.94	40751.07
540.11	40704.26
540.28	40900.86
540.44	40708.94
540.61	40734.68
540.78	40533.40
540.95	41151.30
541.12	40961.72
541.29	40884.48
541.46	41006.19
541.62	41195.77
541.79	41352.58
541.96	41200.45
542.13	41139.60
542.30	40954.69
542.47	41102.15
542.63	41113.85
542.80	41383.01
542.97	41574.94
543.14	42106.24
543.31	41762.18
543.48	42141.35
543.64	41780.90
543.81	42241.99
543.98	42267.73
544.15	42124.96
544.32	42377.74
544.48	42415.19
544.65	42260.71
544.82	42351.99
544.99	42101.56
545.16	42476.04
545.32	42155.39
545.49	42567.32
545.66	42916.06
545.83	42686.69
546.00	42946.49
546.16	42330.93
546.33	42684.35
546.50	42326.25
546.67	42646.90
546.83	42232.63
547.00	42663.28
547.17	42579.03
547.34	42981.60
547.50	43381.83
547.67	43196.93
547.84	42754.57
548.00	43182.88
548.17	43349.06
548.34	43335.02
548.51	43377.15
548.67	43257.78
548.84	43196.93
549.01	43194.59
549.18	43129.05
549.34	43632.27
549.51	43690.78
549.68	43669.72
549.84	43639.29
550.01	43779.72
550.18	43524.60
550.34	43454.39
550.51	43531.62
550.68	43863.98
550.84	43812.49
551.01	44088.67
551.18	43849.94
551.34	43679.08
551.51	43601.84
551.68	43840.57
551.84	43711.84
552.01	43594.82
552.18	43807.81
552.34	43938.88
552.51	43648.65
552.68	43978.67
552.84	43847.60
553.01	44617.63
553.18	44222.08
553.34	44325.07
553.51	44105.06
553.67	44442.09
553.84	44409.32
554.01	44484.22
554.17	44678.49
554.34	44704.23
554.51	44411.67
554.67	44524.01
554.84	44648.06
555.00	44765.09
555.17	44395.28
555.33	45034.25
555.50	45024.89
555.67	44816.58
555.83	44861.05
556.00	44814.24
556.16	45364.26
556.33	44783.81
556.50	44304.00
556.66	45118.51
556.83	44741.68
556.99	45263.62
557.16	45277.66
557.32	45319.79
557.49	45467.25
557.65	45406.39
557.82	45092.76
557.98	45343.20
558.15	45223.83
558.32	45385.33
558.48	44966.37
558.65	45521.08
558.81	45439.16
558.98	45113.83
559.14	45193.40
559.31	45228.51
559.47	45226.17
559.64	45291.71
559.80	45317.45
559.97	45748.11
560.13	45045.95
560.30	45380.65
560.46	45502.35
560.63	45914.29
560.79	45900.25
560.96	45954.08
561.12	45942.38
561.29	45872.16
561.45	45722.37
561.61	45605.34
561.78	45413.41
561.94	45757.47
562.11	45722.37
562.27	45752.79
562.44	45577.25
562.60	45977.48
562.77	46183.45
562.93	46047.70
563.10	45804.28
563.26	45689.60
563.42	46298.14
563.59	45940.04
563.75	45708.32
563.92	45762.15
564.08	45900.25
564.24	46277.07
564.41	45979.82
564.57	46185.79
564.74	46209.20
564.90	46024.29
565.07	45914.29
565.23	45940.04
565.39	46061.74
565.56	46394.10
565.72	46223.24
565.88	46169.41
566.05	45909.61
566.21	46515.81
566.38	46323.88
566.54	46223.24
566.70	46555.60
566.87	46279.41
567.03	46241.96
567.19	46354.31
567.36	46913.70
567.52	46068.76
567.68	46656.24
567.85	46454.95
568.01	46618.79
568.17	46288.77
568.34	46490.06
568.50	46550.91
568.66	46520.49
568.83	46707.73
568.99	46424.53
569.15	45930.67
569.32	46457.29
569.48	46450.27
569.64	46663.26
569.81	46525.17
569.97	46511.13
570.13	46916.04
570.30	46457.29
570.46	46873.91
570.62	46880.93
570.78	46677.30
570.95	46426.87
571.11	46735.82
571.27	46677.30
571.43	46616.45
571.60	46703.05
571.76	46293.46
571.92	46607.09
572.09	46887.95
572.25	46726.46
572.41	46499.42
572.57	46777.95
572.74	46920.72
572.90	46859.87
573.06	47091.58
573.22	47026.04
573.38	46960.51
573.55	47061.15
573.71	47288.18
573.87	47107.96
574.03	46707.73
574.20	47133.71
574.36	46962.85
574.52	47133.71
574.68	47136.05
574.84	47239.03
575.01	47178.18
575.17	47215.63
575.33	47159.45
575.49	46946.47
575.65	47019.02
575.82	47171.16
575.98	46777.95
576.14	47236.69
576.30	47133.71
576.46	47189.88
576.62	46983.91
576.79	47117.32
576.95	47260.10
577.11	46972.21
577.27	47292.86
577.43	47379.46
577.59	47232.01
577.75	47133.71
577.92	46923.06
578.08	46710.07
578.24	47189.88
578.40	47473.09
578.56	47613.52
578.72	47391.17
578.88	47145.41
579.04	46827.10
579.21	47161.79
579.37	47262.44
579.53	47767.99
579.69	47178.18
579.85	46740.50
580.01	47171.16
580.17	47267.12
580.33	47182.86
580.49	47302.23
580.65	47147.75
580.82	47026.04
580.98	47220.31
581.14	47075.19
581.30	47580.75
581.46	47480.11
581.62	47187.54
581.78	46909.02
581.94	47150.09
582.10	47662.67
582.26	47374.78
582.42	47416.91
582.58	47220.31
582.74	46789.65
582.90	47604.16
583.06	46995.62
583.22	47416.91
583.38	47203.92
583.54	47639.26
583.70	47552.66
583.86	47428.62
584.02	46876.25
584.18	47562.03
584.34	47608.84
584.50	47817.14
584.66	47412.23
584.82	47271.80
584.98	47709.48
585.14	47552.66
585.30	47751.61
585.46	47625.22
585.62	47454.36
585.78	47435.64
585.94	47206.26
586.10	47337.33
586.26	47533.94
586.42	47271.80
586.58	47828.85
586.74	47367.76
586.90	47447.34
587.06	47180.52
587.22	47735.23
587.38	47384.15
587.54	47861.61
587.70	48034.81
587.86	47627.56
588.02	47667.35
588.18	47700.12
588.34	47398.19
588.49	47416.91
588.65	47480.11
588.81	47388.83
588.97	47683.73
589.13	47477.77
589.29	47257.76
589.45	47622.88
589.61	47707.14
589.77	47863.96
589.93	47477.77
590.08	47892.04
590.24	47791.40
590.40	48189.29
590.56	48144.82
590.72	47889.70
590.88	47302.23
591.04	47452.02
591.20	48058.22
591.35	48280.57
591.51	48516.96
591.67	47763.31
591.83	47728.20
591.99	47943.53
592.15	47964.60
592.31	47838.21
592.46	48004.39
592.62	47959.92
592.78	48144.82
592.94	48369.51
593.10	47885.02
593.26	48519.31
593.41	47913.11
593.57	47718.84
593.73	48266.53
593.89	48278.23
594.05	48329.72
594.20	48282.91
594.36	48418.66
594.52	48446.75
594.68	48435.05
594.84	47922.47
594.99	48116.73
595.15	48271.21
595.31	48069.92
595.47	48123.75
595.62	47927.15
595.78	48135.46
595.94	47908.43
596.10	48121.41
596.25	48732.29
596.41	48224.40
596.57	47924.81
596.73	48404.62
596.88	48371.85
597.04	48472.49
597.20	48364.83
597.36	48296.95
597.51	48238.44
597.67	47948.21
597.83	47892.04
597.99	48184.61
598.14	48285.25
598.30	48121.41
598.46	48301.64
598.61	48526.33
598.77	48411.64
598.93	48549.73
599.09	48383.55
599.24	48685.48
599.40	48402.28
599.56	48355.47
599.71	48746.34
599.87	48538.03
600.03	48512.28
600.18	48470.15
600.34	48154.18
600.50	48479.52
600.65	48390.58
600.81	48722.93
600.97	48559.09
601.12	48165.88
601.28	48392.92
601.44	48430.36
601.59	48421.00
601.75	48402.28
601.91	48603.56
602.06	48287.59
602.22	48549.73
602.37	48336.74
602.53	48406.96
602.69	48322.70
602.84	48044.18
603.00	48236.10
603.16	48343.77
603.31	48289.93
603.47	48629.31
603.62	48652.72
603.78	48425.68
603.94	48423.34
604.09	48650.38
604.25	48289.93
604.40	48315.68
604.56	48472.49
604.71	48804.85
604.87	48451.43
605.03	47985.66
605.18	47973.96
605.34	48399.94
605.49	48032.47
605.65	48357.81
605.80	48121.41
605.96	48011.41
606.12	48362.49
606.27	48058.22
606.43	48465.47
606.58	48385.89
606.74	47962.26
606.89	48208.01
607.05	48243.12
607.20	48428.02
607.36	48116.73
607.51	48233.76
607.67	47887.36
607.82	48006.73
607.98	48147.16
608.13	48107.37
608.29	48243.12
608.44	48215.04
608.60	48041.84
608.75	48048.86
608.91	47971.62
609.06	47716.50
609.22	48631.65
609.37	48170.57
609.53	47917.79
609.68	48250.14
609.84	48062.90
609.99	48046.52
610.15	48268.87
610.30	48470.15
610.46	47995.03
610.61	47927.15
610.76	48137.80
610.92	47728.20
611.07	47744.59
611.23	47838.21
611.38	48023.11
611.54	48292.27
611.69	48268.87
611.84	48280.57
612.00	48093.33
612.15	47796.08
612.31	48318.02
612.46	47760.97
612.62	47983.32
612.77	47945.87
612.92	47882.68
613.08	47824.17
613.23	47873.32
613.39	47899.06
613.54	47377.12
613.69	47842.89
613.85	47510.53
614.00	47810.12
614.15	48060.56
614.31	47377.12
614.46	47779.70
614.62	47508.19
614.77	47487.13
614.92	47744.59
615.08	47613.52
615.23	47868.64
615.38	48011.41
615.54	47716.50
615.69	47667.35
615.84	47784.38
616.00	47681.39
616.15	47557.35
616.30	47601.82
616.46	47550.32
616.61	47405.21
616.76	47445.00
616.92	47051.79
617.07	47440.32
617.22	47112.64
617.37	47194.56
617.53	47569.05
617.68	47203.92
617.83	47192.22
617.99	47576.07
618.14	47466.06
618.29	47243.71
618.45	47164.14
618.60	47260.10
618.75	46642.20
618.90	46890.29
619.06	47140.73
619.21	46728.80
619.36	47690.76
619.51	47168.82
619.67	47124.35
619.82	46958.17
619.97	47370.10
620.12	47433.30
620.28	47056.47
620.43	47222.65
620.58	47313.93
620.73	47182.86
620.89	47262.44
621.04	46967.53
621.19	47199.24
621.34	47339.68
621.49	46770.93
621.65	46904.34
621.80	47112.64
621.95	46869.23
622.10	47131.37
622.25	46948.81
622.41	46754.54
622.56	46705.39
622.71	47337.33
622.86	47143.07
623.01	46438.57
623.16	46735.82
623.32	46646.88
623.47	46649.22
623.62	46916.04
623.77	46712.41
623.92	46857.52
624.07	46681.98
624.23	46644.54
624.38	46705.39
624.53	46497.08
624.68	46138.98
624.83	46579.00
624.98	46270.05
625.13	46314.52
625.29	46398.78
625.44	46541.55
625.59	46241.96
625.74	46583.68
625.89	46225.58
626.04	46171.75
626.19	45958.76
626.34	45949.40
626.49	45780.88
626.65	45928.33
626.80	45956.42
626.95	46256.01
627.10	46169.41
627.25	46033.66
627.40	46096.85
627.55	46197.49
627.70	46103.87
627.85	45778.54
628.00	45968.12
628.15	46155.36
628.30	45492.99
628.45	45387.67
628.60	45221.49
628.76	45890.88
628.91	45893.22
629.06	45317.45
629.21	45567.89
629.36	45563.21
629.51	45441.50
629.66	46092.17
629.81	45558.53
629.96	45535.12
630.11	45595.98
630.26	45593.64
630.41	45352.56
630.56	45888.54
630.71	45778.54
630.86	45275.32
631.01	45317.45
631.16	45729.39
631.31	45160.64
631.46	45439.16
631.61	45268.30
631.76	45368.94
631.91	45478.95
632.06	45799.60
632.21	45682.58
632.36	45551.51
632.51	44591.89
632.66	45233.19
632.81	44825.94
632.96	45223.83
633.10	44790.83
633.25	45034.25
633.40	45158.30
633.55	45244.90
633.70	44851.69
633.85	45132.55
634.00	44746.36
634.15	44800.19
634.30	45254.26
634.45	44919.56
634.60	45041.27
634.75	45284.68
634.90	44435.07
635.05	45170.00
635.19	44638.70
635.34	44767.43
635.49	44938.29
635.64	45099.78
635.79	44612.95
635.94	44954.67
636.09	44994.46
636.24	45132.55
636.39	44329.75
636.53	44376.56
636.68	44516.99
636.83	44219.74
636.98	44753.38
637.13	44069.95
637.28	44247.83
637.43	44231.44
637.57	44636.36
637.72	44411.67
637.87	44816.58
638.02	44418.69
638.17	44198.68
638.32	44329.75
638.46	43878.02
638.61	44102.71
638.76	44165.91
638.91	44411.67
639.06	44259.53
639.20	43835.89
639.35	43849.94
639.50	43398.21
639.65	43892.07
639.80	44741.68
639.94	44208.04
640.09	44236.12
640.24	44439.75
640.39	44048.88
640.54	43463.75
640.68	43718.87
640.83	44168.25
640.98	43655.67
641.13	43576.09
641.27	43835.89
641.42	44004.41
641.57	43618.22
641.72	43810.15
641.86	43536.30
642.01	43484.81
642.16	43220.33
642.31	43302.25
642.45	44065.27
642.60	43236.72
642.75	43323.32
642.90	43892.07
643.04	43416.94
643.19	43356.08
643.34	42955.85
643.48	42972.24
643.63	43033.09
643.78	43136.07
643.93	43562.05
644.07	43728.23
644.22	43267.14
644.37	42902.02
644.51	43297.57
644.66	43550.35
644.81	43475.45
644.95	43407.58
645.10	43079.90
645.25	42665.63
645.39	42801.38
645.54	42887.98
645.69	42766.27
645.83	42775.63
645.98	42792.01
646.13	42656.26
646.27	42775.63
646.42	42749.88
646.57	42951.17
646.71	43021.39
646.86	43304.59
647.00	42838.83
647.15	42892.66
647.30	42799.04
647.44	42887.98
647.59	42876.27
647.74	42733.50
647.88	43075.22
648.03	42806.06
648.17	42686.69
648.32	42848.19
648.47	42951.17
648.61	42405.83
648.76	42813.08
648.90	42375.40
649.05	42155.39
649.20	42520.51
649.34	42485.40
649.49	42609.45
649.63	42298.16
649.78	42447.96
649.92	42522.85
650.07	43096.28
650.21	42445.62
650.36	42892.66
650.51	42555.62
650.65	42223.26
650.80	42588.39
650.94	42115.60
651.09	41977.51
651.23	41474.29
651.38	41565.57
651.52	41338.54
651.67	42117.94
651.81	41890.91
651.96	42209.22
652.10	41626.43
652.25	41851.12
652.39	42183.48
652.54	41895.59
652.68	41972.83
652.83	42003.25
652.97	42227.95
653.12	41551.53
653.26	41918.99
653.41	41556.21
653.55	42043.04
653.70	42075.81
653.84	41827.71
653.99	42265.39
654.13	41750.48
654.27	41778.56
654.42	42141.35
654.56	41680.26
654.71	41696.64
654.85	41401.74
655.00	41794.95
655.14	41993.89
655.29	41982.19
655.43	41579.62
655.57	41567.91
655.72	41205.13
655.86	41478.97
656.01	41411.10
656.15	41139.60
656.30	41247.26
656.44	41200.45
656.58	41010.87
656.73	41647.49
656.87	41139.60
657.01	40797.88
657.16	40952.35
657.30	41214.49
657.45	41273.01
657.59	40786.18
657.73	40622.34
657.88	41228.54
658.02	40828.30
658.16	41385.35
658.31	41329.18
658.45	40746.39
658.60	40938.31
658.74	41083.42
658.88	40914.90
659.03	40797.88
659.17	40477.22
659.31	40074.65
659.46	40870.43
659.60	40601.27
659.74	40432.75
659.89	40161.25
660.03	39971.67
660.17	40142.53
660.32	40304.02
660.46	40179.98
660.60	40018.48
660.74	40182.32
660.89	40402.33
661.03	39721.23
661.17	40060.61
661.32	39789.11
661.46	39955.29
661.60	40037.20
661.74	39871.03
661.89	39770.38
662.03	39985.71
662.17	39482.50
662.31	39421.64
662.46	40030.18
662.60	39477.82
662.74	39037.80
662.88	38958.22
663.03	38960.56
663.17	39093.97
663.31	38717.14
663.45	38824.81
663.60	39468.45
663.74	39115.03
663.88	39030.77
664.02	38665.65
664.17	39021.41
664.31	38742.89
664.45	38607.14
664.59	39009.71
664.73	38574.37
664.88	38719.48
665.02	38616.50
665.16	38447.98
665.30	38433.94
665.44	38574.37
665.59	38342.66
665.73	38361.38
665.87	37809.01
666.01	38199.88
666.15	38347.34
666.29	38071.15
666.44	38052.43
666.58	38408.19
666.72	37699.01
666.86	38054.77
667.00	37907.32
667.14	37488.36
667.28	37448.57
667.43	37614.75
667.57	38115.62
667.71	37509.43
667.85	37361.97
667.99	37310.48
668.13	37170.05
668.27	37008.55
668.41	37156.00
668.56	36711.30
668.70	36676.19
668.84	36266.60
668.98	36732.37
669.12	36704.28
669.26	37240.26
669.40	36683.22
669.54	36870.46
669.68	37006.21
669.82	36348.52
669.96	36533.42
670.10	36154.26
670.25	36325.11
670.39	36105.10
670.53	35999.78
670.67	36086.38
670.81	36154.26
670.95	36240.86
671.09	35992.76
671.23	35653.38
671.37	36142.55
671.51	36070.00
671.65	35990.42
671.79	35669.76
671.93	35789.13
672.07	35784.45
672.21	35484.86
672.35	35459.12
672.49	35545.72
672.63	35522.31
672.77	35154.85
672.91	35248.47
673.05	35309.32
673.19	34539.29
673.33	35019.10
673.47	34937.18
673.61	34806.11
673.75	34256.08
673.89	34375.45
674.03	34256.08
674.17	34206.93
674.31	34188.21
674.45	34103.95
674.59	34087.56
674.73	34302.89
674.87	34005.64
675.01	33827.76
675.15	33645.20
675.29	33619.46
675.43	33905.00
675.56	33659.24
675.70	33834.78
675.84	33003.89
675.98	32378.97
676.12	33413.49
676.26	33565.62
676.40	33041.34
676.54	33235.61
676.68	32669.20
676.82	32617.71
676.96	32683.24
677.10	32772.18
677.23	32388.33
677.37	32430.46
677.51	32254.92
677.65	32479.61
677.79	31962.36
677.93	32006.83
678.07	31981.08
678.21	31562.12
678.34	31433.39
678.48	31580.85
678.62	31470.84
678.76	31232.11
678.90	31192.32
679.04	31400.63
679.18	31454.46
679.31	31042.53
679.45	30883.37
679.59	30838.90
679.73	31182.96
679.87	30988.69
680.00	30782.73
680.14	30368.45
680.28	30815.49
680.42	30178.87
680.56	30368.45
680.70	30174.19
680.83	30183.55
680.97	30085.25
681.11	29890.98
681.25	29645.23
681.39	29605.44
681.52	29371.38
681.66	29230.95
681.80	28751.14
681.94	29165.42
682.07	28470.28
682.21	28882.21
682.35	28589.64
682.49	28582.62
682.62	28755.82
682.76	28797.95
682.90	28954.77
683.04	28453.89
683.17	28456.23
683.31	28357.93
683.45	28063.02
683.59	27721.30
683.72	27615.98
683.86	27646.41
684.00	27761.09
684.13	27922.59
684.27	27756.41
684.41	27800.88
684.55	27374.91
684.68	27335.12
684.82	26738.28
684.96	27084.68
685.09	27346.82
685.23	27407.67
685.37	27243.84
685.50	27318.73
685.64	26916.16
685.78	26658.70
685.91	26321.66
686.05	26258.47
686.19	25818.45
686.32	26075.91
686.46	25715.47
686.60	25738.87
686.73	25986.97
686.87	26150.81
687.01	25706.10
687.14	25776.32
687.28	25572.69
687.42	25731.85
687.55	25198.21
687.69	25252.04
687.82	25247.36
687.96	24868.19
688.10	24800.32
688.23	24964.15
688.37	25195.87
688.50	25308.21
688.64	24762.87
688.78	24414.13
688.91	24390.72
689.05	24276.04
689.18	24009.22
689.32	24018.58
689.46	23630.05
689.59	24135.60
689.73	24210.50
689.86	23978.79
690.00	23934.32
690.13	23779.84
690.27	23613.66
690.41	23578.56
690.54	23173.64
690.68	23470.89
690.81	23117.47
690.95	23398.34
691.08	22476.16
691.22	22803.84
691.35	22714.90
691.49	22750.01
691.62	22864.69
691.76	22291.26
691.89	22267.86
692.03	21928.48
692.16	21727.19
692.30	21860.60
692.43	21862.94
692.57	21713.15
692.70	21427.60
692.84	21638.25
692.97	21542.29
693.11	21212.28
693.24	21235.68
693.38	21291.85
693.51	21013.33
693.65	21001.63
693.78	20606.08
693.92	20865.88
694.05	20739.49
694.19	20577.99
694.32	20769.91
694.45	21043.76
694.59	20776.94
694.72	20615.44
694.86	20201.16
694.99	20271.38
695.13	20114.56
695.26	20020.94
695.39	20070.09
695.53	19892.21
695.66	19969.45
695.80	19578.58
695.93	19653.48
696.07	19410.06
696.20	19218.14
696.33	19080.05
696.47	18941.96
696.60	18780.46
696.73	19054.30
696.87	18820.25
697.00	19012.17
697.14	19089.41
697.27	18831.95
697.40	18607.26
697.54	18356.82
697.67	18539.38
697.80	18412.99
697.94	18333.42
698.07	18349.80
698.21	18045.53
698.34	18064.25
698.47	18258.52
698.61	17415.93
698.74	17774.03
698.87	17785.73
699.01	17369.12
699.14	17785.73
699.27	17404.22
699.40	17296.56
699.54	17064.85
699.67	17184.21
699.80	17034.42
699.94	17109.32
700.07	16966.54
700.20	16992.29
700.34	16666.95
700.47	16774.62
700.60	17032.08
700.73	16711.42
700.87	16578.01
701.00	16397.79
701.13	16402.47
701.26	16339.28
701.40	16053.73
701.53	16114.59
701.66	15920.32
701.79	16208.21
701.93	15985.86
702.06	15754.15
702.19	15854.79
702.32	15770.53
702.46	15763.51
702.59	15679.25
702.72	15667.55
702.85	15630.10
702.99	15447.54
703.12	15147.95
703.25	15307.10
703.38	15005.17
703.51	14831.97
703.65	14906.87
703.78	14970.07
703.91	14473.87
704.04	14457.49
704.17	14375.57
704.31	14394.29
704.44	14567.49
704.57	14501.96
704.70	14452.81
704.83	14391.95
704.96	14120.45
705.10	14047.90
705.23	14022.15
>>>>>End Processed Spectral Data<<<<<
