SpectraSuite Data File
++++++++++++++++++++++++++++++++++++
Date: Fri Oct 25 10:48:28 EDT 2013
User: price-jones
Dark Spectrum Present: No
Reference Spectrum Present: No
Number of Sampled Component Spectra: 1
Spectrometers: USB2+H05261
Integration Time (usec): 100000 (USB2+H05261)
Spectra Averaged: 1 (USB2+H05261)
Boxcar Smoothing: 0 (USB2+H05261)
Correct for Electrical Dark: No (USB2+H05261)
Strobe/Lamp Enabled: No (USB2+H05261)
Correct for Detector Non-linearity: No (USB2+H05261)
Correct for Stray Light: No (USB2+H05261)
Number of Pixels in Processed Spectrum: 2048
>>>>>Begin Processed Spectral Data<<<<<
365.73	166.18
365.92	166.18
366.12	166.18
366.32	86.60
366.52	16.38
366.72	91.28
366.91	35.11
367.11	79.58
367.31	0.00
367.51	30.43
367.70	72.56
367.90	49.15
368.10	110.01
368.30	51.49
368.49	74.90
368.69	72.56
368.89	88.94
369.09	145.11
369.28	86.60
369.48	56.17
369.68	91.28
369.87	86.60
370.07	63.19
370.27	121.71
370.47	264.48
370.66	440.02
370.86	493.85
371.06	528.96
371.25	524.28
371.45	444.70
371.65	519.60
371.84	505.56
372.04	440.02
372.24	531.30
372.44	383.85
372.63	550.03
372.83	561.73
373.03	571.09
373.22	507.90
373.42	564.07
373.62	557.05
373.81	568.75
374.01	655.35
374.21	603.86
374.40	603.86
374.60	620.24
374.79	559.39
374.99	620.24
375.19	535.98
375.38	657.69
375.58	629.60
375.78	624.92
375.97	573.43
376.17	627.26
376.37	638.97
376.56	725.57
376.76	601.52
376.95	667.05
377.15	528.96
377.35	681.10
377.54	655.35
377.74	676.41
377.93	599.18
378.13	711.52
378.33	685.78
378.52	613.22
378.72	610.88
378.91	662.37
379.11	734.93
379.31	601.52
379.50	645.99
379.70	716.20
379.89	737.27
380.09	676.41
380.28	676.41
380.48	704.50
380.68	683.44
380.87	615.56
381.07	730.25
381.26	763.01
381.46	669.39
381.65	739.61
381.85	711.52
382.04	734.93
382.24	697.48
382.43	770.04
382.63	734.93
382.83	711.52
383.02	819.19
383.22	802.80
383.41	732.59
383.61	786.42
383.80	711.52
384.00	819.19
384.19	765.36
384.39	734.93
384.58	814.51
384.78	889.40
384.97	856.64
385.17	849.61
385.36	823.87
385.56	793.44
385.75	912.81
385.95	779.40
386.14	793.44
386.34	856.64
386.53	786.42
386.72	791.10
386.92	851.96
387.11	889.40
387.31	903.45
387.50	917.49
387.70	866.00
387.89	936.21
388.09	945.58
388.28	898.77
388.48	837.91
388.67	926.85
388.86	924.51
389.06	901.11
389.25	994.73
389.45	964.30
389.64	968.98
389.84	1022.81
390.03	985.37
390.22	1032.18
390.42	1046.22
390.61	1057.92
390.81	1029.84
391.00	992.39
391.19	1153.88
391.39	1116.44
391.58	1109.41
391.78	1055.58
391.97	1053.24
392.16	1057.92
392.36	1060.26
392.55	1060.26
392.75	1008.77
392.94	1029.84
393.13	1008.77
393.33	877.70
393.52	1088.35
393.71	1151.54
393.91	1097.71
394.10	1144.52
394.29	1130.48
394.49	1160.91
394.68	1144.52
394.88	1188.99
395.07	1249.85
395.26	1303.68
395.46	1212.40
395.65	1289.64
395.84	1249.85
396.04	1233.46
396.23	1132.82
396.42	1266.23
396.62	1151.54
396.81	1200.69
397.00	1299.00
397.19	1291.98
397.39	1310.70
397.58	1383.26
397.77	1366.87
397.97	1409.00
398.16	1418.36
398.35	1369.21
398.55	1441.77
398.74	1458.15
398.93	1556.46
399.12	1493.26
399.32	1516.67
399.51	1544.75
399.70	1572.84
399.90	1572.84
400.09	1598.59
400.28	1607.95
400.47	1589.22
400.67	1629.01
400.86	1612.63
401.05	1722.63
401.24	1687.53
401.44	1671.14
401.63	1715.61
401.82	1764.76
402.01	1811.57
402.21	1638.38
402.40	1771.79
402.59	1675.82
402.78	1746.04
402.97	1790.51
403.17	1732.00
403.36	1778.81
403.55	1811.57
403.74	1783.49
403.93	1755.40
404.13	1858.39
404.32	1813.92
404.51	1874.77
404.70	1949.67
404.89	1792.85
405.09	1987.11
405.28	1926.26
405.47	1975.41
405.66	2026.90
405.85	1940.30
406.05	1987.11
406.24	1912.22
406.43	2001.16
406.62	2080.74
406.81	2078.40
407.00	2003.50
407.20	2017.54
407.39	2038.61
407.58	2076.06
407.77	2150.95
407.96	2097.12
408.15	2267.98
408.34	2106.48
408.54	2277.34
408.73	2195.42
408.92	2204.78
409.11	2211.81
409.30	2270.32
409.49	2284.36
409.68	2225.85
409.87	2237.55
410.07	2389.69
410.26	2380.32
410.45	2394.37
410.64	2424.80
410.83	2473.95
411.02	2459.90
411.21	2504.37
411.40	2516.08
411.59	2590.97
411.78	2649.49
411.98	2499.69
412.17	2555.86
412.36	2619.06
412.55	2593.31
412.74	2780.56
412.93	2717.36
413.12	2768.85
413.31	2834.39
413.50	2832.05
413.69	2801.62
413.88	2782.90
414.07	2815.66
414.26	2876.52
414.45	2930.35
414.64	2885.88
414.83	2906.95
415.02	3061.42
415.22	3066.10
415.41	3052.06
415.60	2958.44
415.79	3063.76
415.98	3112.91
416.17	3119.93
416.36	3131.64
416.55	3157.38
416.74	3239.30
416.93	3098.87
417.12	3276.75
417.31	3353.99
417.50	3283.77
417.69	3527.19
417.88	3442.93
418.07	3459.31
418.26	3379.73
418.45	3419.52
418.64	3482.72
418.83	3534.21
419.02	3487.40
419.21	3581.02
419.39	3541.23
419.58	3431.23
419.77	3534.21
419.96	3569.32
420.15	3508.46
420.34	3538.89
420.53	3714.43
420.72	3765.92
420.91	3852.52
421.10	3765.92
421.29	3791.67
421.48	3838.48
421.67	3861.88
421.86	3672.30
422.05	3775.28
422.24	3721.45
422.43	3801.03
422.61	3770.60
422.80	3882.95
422.99	3815.07
423.18	3927.42
423.37	3918.06
423.56	4016.36
423.75	3960.19
423.94	3941.46
424.13	3639.53
424.32	3765.92
424.50	3925.08
424.69	3875.93
424.88	4016.36
425.07	3868.91
425.26	3967.21
425.45	3756.56
425.64	3896.99
425.83	3838.48
426.01	4084.23
426.20	3995.29
426.39	4081.89
426.58	3969.55
426.77	3885.29
426.96	3978.91
427.15	3939.12
427.33	3974.23
427.52	3943.80
427.71	4039.76
427.90	3999.98
428.09	4135.73
428.28	4109.98
428.46	4182.54
428.65	4149.77
428.84	4231.69
429.03	4102.96
429.22	4058.49
429.40	4393.19
429.59	4053.81
429.78	3871.25
429.97	3864.22
430.16	4067.85
430.34	4077.21
430.53	4243.39
430.72	4182.54
430.91	4201.26
431.10	4156.79
431.28	4568.73
431.47	4678.73
431.66	4648.30
431.85	4346.37
432.03	4655.33
432.22	4648.30
432.41	4538.30
432.60	4643.62
432.79	4540.64
432.97	4720.86
433.16	4685.75
433.35	4601.49
433.54	4631.92
433.72	4660.01
433.91	4699.80
434.10	4669.37
434.28	4727.88
434.47	4788.74
434.66	4657.67
434.85	4880.02
435.03	4830.87
435.22	4849.59
435.41	5088.32
435.59	5004.07
435.78	4936.19
435.97	5142.16
436.16	5018.11
436.34	5060.24
436.53	5111.73
436.72	5177.26
436.90	5020.45
437.09	5121.09
437.28	5088.32
437.46	5090.67
437.65	5156.20
437.84	5240.46
438.02	5284.93
438.21	5247.48
438.40	4964.28
438.58	5259.18
438.77	5406.64
438.96	5420.68
439.14	5465.15
439.33	5526.00
439.52	5507.28
439.70	5561.11
439.89	5767.08
440.08	5617.29
440.26	5659.42
440.45	5638.35
440.63	5806.87
440.82	6036.24
441.01	5884.11
441.19	5980.07
441.38	6040.92
441.57	6026.88
441.75	6132.20
441.94	6108.80
442.12	6289.02
442.31	6340.51
442.50	6267.95
442.68	6225.82
442.87	6321.79
443.05	6080.71
443.24	6260.93
443.43	6347.53
443.61	6422.43
443.80	6595.63
443.98	6221.14
444.17	6176.67
444.35	6506.69
444.54	6478.60
444.73	6452.86
444.91	6286.68
445.10	6335.83
445.28	6448.18
445.47	6429.45
445.65	6497.33
445.84	6469.24
446.02	6483.28
446.21	6537.12
446.39	6429.45
446.58	6511.37
446.77	6792.23
446.95	6530.09
447.14	6670.53
447.32	6808.62
447.51	6785.21
447.69	6532.44
447.88	6677.55
448.06	6715.00
448.25	6642.44
448.43	6523.07
448.62	6635.42
448.80	6677.55
448.99	6691.59
449.17	6967.77
449.36	6670.53
449.54	6939.69
449.73	6958.41
449.91	7084.80
450.10	6902.24
450.28	7143.32
450.46	6965.43
450.65	7108.21
450.83	7133.95
451.02	7152.68
451.20	7279.07
451.39	7112.89
451.57	7129.27
451.76	7250.98
451.94	7176.08
452.13	7288.43
452.31	7213.53
452.49	7075.44
452.68	7129.27
452.86	6995.86
453.05	7112.89
453.23	7138.63
453.42	7304.81
453.60	7103.53
453.78	7328.22
453.97	7325.88
454.15	7595.04
454.34	7447.58
454.52	7662.91
454.70	7379.71
454.89	7522.48
455.07	7524.82
455.26	7417.16
455.44	7468.65
455.62	7492.05
455.81	7513.12
455.99	7625.47
456.17	7789.30
456.36	7882.92
456.54	7859.52
456.73	7953.14
456.91	7901.65
457.09	7983.57
457.28	8198.90
457.46	8025.70
457.64	7999.95
457.83	8105.28
458.01	7864.20
458.19	7978.89
458.38	8044.42
458.56	8091.23
458.74	7990.59
458.93	8292.52
459.11	8250.39
459.29	7918.03
459.48	8226.98
459.66	8067.83
459.84	8367.42
460.03	8397.84
460.21	8351.03
460.39	8299.54
460.57	8334.65
460.76	8491.46
460.94	8482.10
461.12	8500.83
461.31	8507.85
461.49	8702.11
461.67	8367.42
461.85	8730.20
462.04	8695.09
462.22	9226.39
462.40	8643.60
462.59	8713.81
462.77	8812.12
462.95	8781.69
463.13	8931.48
463.32	8821.48
463.50	8903.40
463.68	9034.47
463.86	8931.48
464.05	8720.84
464.23	8769.99
464.41	9078.94
464.59	8741.90
464.78	9207.67
464.96	9142.13
465.14	9025.11
465.32	9320.01
465.50	9202.99
465.69	9151.49
465.87	9254.48
466.05	8919.78
466.23	9184.26
466.41	9179.58
466.60	9329.38
466.78	9158.52
466.96	9081.28
467.14	9256.82
467.32	9320.01
467.51	9275.54
467.69	9312.99
467.87	9305.97
468.05	9563.43
468.23	9362.14
468.41	9210.01
468.60	9397.25
468.78	9568.11
468.96	9411.29
469.14	9577.47
469.32	9741.31
469.50	9324.69
469.69	9528.32
469.87	9685.14
470.05	9823.23
470.23	9678.12
470.41	9731.95
470.59	9958.98
470.77	9804.50
470.95	9942.60
471.14	10141.54
471.32	9654.71
471.50	10242.18
471.68	10083.03
471.86	10300.70
472.04	10274.95
472.22	10719.65
472.40	10050.26
472.58	10204.74
472.77	10310.06
472.95	10289.00
473.13	10663.48
473.31	10368.57
473.49	10284.31
473.67	10431.77
473.85	10614.33
474.03	10771.15
474.21	10558.16
474.39	11044.99
474.57	10920.94
474.75	11016.90
474.93	11101.16
475.12	10906.90
475.30	11272.02
475.48	10953.71
475.66	11185.42
475.84	11204.14
476.02	11330.53
476.20	11288.40
476.38	11449.90
476.56	11777.58
476.74	11571.61
476.92	11548.20
477.10	11793.96
477.28	11955.46
477.46	11960.14
477.64	12182.49
477.82	12147.38
478.00	12379.09
478.18	12400.16
478.36	12297.17
478.54	12681.02
478.72	12620.17
478.90	12996.99
479.08	12814.43
479.26	13191.26
479.44	13123.38
479.62	12985.29
479.80	13235.73
479.98	13376.16
480.16	13607.87
480.34	13671.07
480.52	13633.62
480.70	13497.87
480.88	13664.05
481.06	13823.20
481.24	13916.83
481.41	14054.92
481.59	14125.13
481.77	14480.89
481.95	14303.01
482.13	14410.68
482.31	14675.16
482.49	14686.86
482.67	14623.67
482.85	14846.02
483.03	15059.01
483.21	15234.55
483.39	15372.64
483.57	15360.94
483.74	15534.14
483.92	15534.14
484.10	15176.03
484.28	15775.21
484.46	16114.59
484.64	16189.49
484.82	16074.80
485.00	15824.36
485.18	16077.14
485.35	16365.03
485.53	16262.04
485.71	16046.71
485.89	16650.57
486.07	16498.44
486.25	16732.49
486.43	16755.90
486.61	17025.06
486.78	17338.69
486.96	17205.28
487.14	17727.22
487.32	17542.32
487.50	18022.12
487.68	17970.63
487.85	18228.09
488.03	18398.95
488.21	18796.84
488.39	18345.12
488.57	18548.75
488.75	18506.62
488.92	18916.21
489.10	19171.33
489.28	19410.06
489.46	19307.08
489.64	19225.16
489.81	19889.87
489.99	19913.28
490.17	19927.32
490.35	20144.99
490.53	20280.74
490.70	20421.17
490.88	20372.02
491.06	20524.16
491.24	20418.83
491.41	20383.73
491.59	20987.58
491.77	20650.55
491.95	21060.14
492.13	21366.75
492.30	21235.68
492.48	21682.72
492.66	21876.99
492.84	21530.59
493.01	21778.68
493.19	21865.28
493.37	21994.01
493.54	22405.95
493.72	22459.78
493.90	22434.03
494.08	22689.15
494.25	22909.16
494.43	22843.63
494.61	23065.98
494.79	22855.33
494.96	23243.86
495.14	23133.86
495.32	23438.12
495.49	23807.93
495.67	23564.51
495.85	23971.77
496.02	24444.56
496.20	24215.18
496.38	24301.78
496.55	24250.29
496.73	24648.18
496.91	24940.75
497.09	24776.91
497.26	25064.80
497.44	25097.56
497.62	25036.71
497.79	25294.17
497.97	25345.66
498.14	25439.28
498.32	25738.87
498.50	25671.00
498.67	25949.52
498.85	25799.73
499.03	26195.28
499.20	26101.65
499.38	26654.02
499.56	25937.82
499.73	26534.65
499.91	26438.69
500.08	26520.61
500.26	25972.92
500.44	26499.55
500.61	26625.93
500.79	26567.42
500.97	26948.93
501.14	27358.52
501.32	27082.34
501.49	27206.39
501.67	27321.07
501.84	26946.59
502.02	27339.80
502.20	27536.40
502.37	27498.95
502.55	27749.39
502.72	27971.74
502.90	27709.60
503.07	27857.06
503.25	28166.01
503.43	27901.53
503.60	27878.12
503.78	28041.96
503.95	28500.70
504.13	28599.01
504.30	28819.02
504.48	28648.16
504.65	28552.20
504.83	29024.98
505.01	29237.97
505.18	29067.11
505.36	29703.74
505.53	29153.71
505.71	29289.46
505.88	29860.55
506.06	29514.16
506.23	29511.81
506.41	29397.13
506.58	29837.15
506.76	29762.25
506.93	29748.21
507.11	29956.52
507.28	29916.73
507.46	29788.00
507.63	30178.87
507.81	30108.65
507.98	29752.89
508.16	29993.97
508.33	30848.26
508.50	30204.61
508.68	30892.73
508.85	30923.16
509.03	30845.92
509.20	31002.74
509.38	31215.72
509.55	31108.06
509.73	30955.93
509.90	31056.57
510.08	31136.15
510.25	31185.30
510.42	31548.08
510.60	31524.68
510.77	31658.09
510.95	32037.25
511.12	31901.50
511.30	31964.70
511.47	32360.25
511.64	32311.10
511.82	32332.16
511.99	32198.75
512.17	32744.09
512.34	31999.80
512.51	32650.47
512.69	32823.67
512.86	32844.74
513.04	32390.67
513.21	32802.61
513.38	32823.67
513.56	32807.29
513.73	32355.57
513.90	33214.54
514.08	32938.36
514.25	33319.87
514.43	33401.79
514.60	32854.10
514.77	33216.88
514.95	33610.09
515.12	33376.04
515.29	33582.01
515.47	33876.91
515.64	34052.45
515.81	33411.15
515.99	33949.47
516.16	33617.11
516.33	33703.71
516.51	33453.28
516.68	33523.49
516.85	33247.31
517.03	33827.76
517.20	33879.25
517.37	34155.44
517.54	34637.59
517.72	34347.36
517.89	34190.55
518.06	34279.49
518.24	34375.45
518.41	34391.83
518.58	34333.32
518.75	34356.72
518.93	34965.26
519.10	34899.73
519.27	34817.81
519.45	35016.75
519.62	35304.64
519.79	35136.12
519.96	35583.16
520.14	35491.88
520.31	35168.89
520.48	35693.17
520.65	35849.99
520.83	35667.42
521.00	35779.77
521.17	35929.56
521.34	36112.13
521.52	36453.84
521.69	36301.71
521.86	36404.69
522.03	36348.52
522.20	36397.67
522.38	36638.75
522.55	36631.72
522.72	36346.18
522.89	36474.91
523.07	36620.02
523.24	36662.15
523.41	36751.09
523.58	36561.51
523.75	37104.51
523.92	37420.48
524.10	37462.61
524.27	37380.70
524.44	37219.20
524.61	36985.15
524.78	37670.92
524.96	37364.31
525.13	37357.29
525.30	37809.01
525.47	38242.01
525.64	37771.57
525.81	37481.34
525.98	37633.47
526.16	37687.31
526.33	37368.99
526.50	37834.76
526.67	37378.36
526.84	37989.24
527.01	37509.43
527.18	37804.33
527.36	37879.23
527.53	37886.25
527.70	38471.39
527.87	38873.96
528.04	38366.06
528.21	38504.15
528.38	38536.92
528.55	38550.96
528.72	38487.77
528.89	39047.16
529.07	39349.09
529.24	38277.12
529.41	39110.35
529.58	38583.73
529.75	38450.32
529.92	39023.75
530.09	39220.36
530.26	39044.82
530.43	39236.74
530.60	38983.96
530.77	39150.14
530.94	39449.73
531.11	39440.37
531.28	39459.09
531.46	39730.59
531.63	39618.25
531.80	39777.40
531.97	40163.59
532.14	39990.39
532.31	39580.80
532.48	39435.69
532.65	39587.82
532.82	39709.53
532.99	40299.34
533.16	39707.19
533.33	40217.43
533.50	40102.74
533.67	40123.80
533.84	40231.47
534.01	39878.05
534.18	40250.19
534.35	40329.77
534.52	40540.42
534.69	40584.89
534.86	40514.67
535.03	40161.25
535.20	40624.68
535.37	40961.72
535.54	41062.36
535.71	40495.95
535.88	40910.22
536.05	41067.04
536.22	40666.81
536.38	40865.75
536.55	41219.17
536.72	40999.16
536.89	40425.73
537.06	40809.58
537.23	41153.64
537.40	40774.47
537.57	41141.94
537.74	41397.06
537.91	41453.23
538.08	41670.90
538.25	41242.58
538.42	41010.87
538.59	41303.43
538.75	41319.82
538.92	41216.83
539.09	41471.95
539.26	41404.08
539.43	41635.79
539.60	41979.85
539.77	41221.52
539.94	42031.34
540.11	41375.99
540.28	41226.20
540.44	41596.00
540.61	41361.95
540.78	41553.87
540.95	41724.73
541.12	41656.85
541.29	41928.36
541.46	41996.23
541.62	41659.20
541.79	42124.96
541.96	41757.50
542.13	42061.77
542.30	42410.51
542.47	42408.17
542.63	42103.90
542.80	42366.04
542.97	42775.63
543.14	42749.88
543.31	42916.06
543.48	42471.36
543.64	43086.92
543.81	42983.94
543.98	42796.70
544.15	43122.03
544.32	43054.15
544.48	42997.98
544.65	43304.59
544.82	43299.91
544.99	42834.14
545.16	43147.78
545.32	42768.61
545.49	43016.71
545.66	43398.21
545.83	43234.38
546.00	43189.91
546.16	43227.35
546.33	43150.12
546.50	42850.53
546.67	43501.20
546.83	43182.88
547.00	43351.40
547.17	43650.99
547.34	43208.63
547.50	43316.29
547.67	43377.15
547.84	43894.41
548.00	43908.45
548.17	43887.39
548.34	43796.10
548.51	44170.59
548.67	44168.25
548.84	44034.84
549.01	43330.34
549.18	43875.68
549.34	44006.75
549.51	44058.24
549.68	44046.54
549.84	44144.84
550.01	44264.21
550.18	44243.15
550.34	44083.99
550.51	44006.75
550.68	44069.95
550.84	43665.03
551.01	44254.85
551.18	44861.05
551.34	44158.89
551.51	43934.20
551.68	44414.01
551.84	44390.60
552.01	44086.33
552.18	44088.67
552.34	43924.83
552.51	44444.43
552.68	44690.19
552.84	44655.08
553.01	44835.30
553.18	44390.60
553.34	44687.85
553.51	44676.15
553.67	44680.83
553.84	44851.69
554.01	44949.99
554.17	45399.37
554.34	45099.78
554.51	45177.02
554.67	45354.90
554.84	44652.74
555.00	44907.86
555.17	44720.62
555.33	44882.11
555.50	45207.45
555.67	45031.91
555.83	45123.19
556.00	45179.36
556.16	45584.27
556.33	45364.26
556.50	44573.16
556.66	45102.12
556.83	44795.51
556.99	45158.30
557.16	45427.46
557.32	45488.31
557.49	45497.67
557.65	45125.53
557.82	44924.24
557.98	45329.16
558.15	44917.22
558.32	45450.86
558.48	45144.25
558.65	45151.27
558.81	45221.49
558.98	45488.31
559.14	45209.79
559.31	45404.05
559.47	45717.68
559.64	45605.34
559.80	45799.60
559.97	45729.39
560.13	45263.62
560.30	45425.12
560.46	45713.00
560.63	45565.55
560.79	45329.16
560.96	46136.64
561.12	45308.09
561.29	45799.60
561.45	45347.88
561.61	45750.45
561.78	45776.20
561.94	45354.90
562.11	45567.89
562.27	45853.44
562.44	45823.01
562.60	46143.66
562.77	45670.87
562.93	45696.62
563.10	45928.33
563.26	45464.91
563.42	46117.92
563.59	45979.82
563.75	45654.49
563.92	46003.23
564.08	46239.62
564.24	46415.16
564.41	46143.66
564.57	45797.26
564.74	45979.82
564.90	46265.37
565.07	45956.42
565.23	45930.67
565.39	45958.76
565.56	46160.05
565.72	45713.00
565.88	45897.91
566.05	46057.06
566.21	46036.00
566.38	45916.63
566.54	45954.08
566.70	46560.28
566.87	46436.23
567.03	46106.21
567.19	46422.19
567.36	46272.39
567.52	46038.34
567.68	46054.72
567.85	45949.40
568.01	46366.01
568.17	46010.25
568.34	46211.54
568.50	46068.76
568.66	45771.52
568.83	45785.56
568.99	45790.24
569.15	46220.90
569.32	46071.10
569.48	45471.93
569.64	46408.14
569.81	46618.79
569.97	46373.03
570.13	45918.97
570.30	45874.50
570.46	45851.09
570.62	45720.02
570.78	46096.85
570.95	45830.03
571.11	46431.55
571.27	46667.94
571.43	46127.28
571.60	45909.61
571.76	46389.42
571.92	46408.14
572.09	46454.95
572.25	46302.82
572.41	46302.82
572.57	46326.22
572.74	46752.20
572.90	46548.57
573.06	46031.32
573.22	46169.41
573.38	46466.66
573.55	46298.14
573.71	46312.18
573.87	46546.23
574.03	46349.63
574.20	46349.63
574.36	46216.22
574.52	46705.39
574.68	46653.90
574.84	46424.53
575.01	46770.93
575.17	46291.12
575.33	45691.94
575.49	46239.62
575.65	46843.48
575.82	46686.67
575.98	46431.55
576.14	46382.40
576.30	46618.79
576.46	46740.50
576.62	45996.21
576.79	46590.70
576.95	45876.84
577.11	46146.00
577.27	46541.55
577.43	46700.71
577.59	46564.96
577.75	46508.79
577.92	46220.90
578.08	45841.73
578.24	45968.12
578.40	46700.71
578.56	46199.83
578.72	46075.79
578.88	46522.83
579.04	46183.45
579.21	46349.63
579.37	46534.53
579.53	46326.22
579.69	46150.68
579.85	46347.29
580.01	46752.20
580.17	46373.03
580.33	46649.22
580.49	46815.40
580.65	46405.80
580.82	46246.65
580.98	46330.90
581.14	46763.90
581.30	46555.60
581.46	46607.09
581.62	46808.37
581.78	46518.15
581.94	46784.97
582.10	46602.41
582.26	46698.37
582.42	46834.12
582.58	46358.99
582.74	46539.21
582.90	46672.62
583.06	46499.42
583.22	46735.82
583.38	46869.23
583.54	46422.19
583.70	46618.79
583.86	46354.31
584.02	46148.34
584.18	46691.35
584.34	46944.12
584.50	46866.89
584.66	46298.14
584.82	46356.65
584.98	46674.96
585.14	46328.56
585.30	46330.90
585.46	46686.67
585.62	46351.97
585.78	46520.49
585.94	46452.61
586.10	46623.47
586.26	46424.53
586.42	46508.79
586.58	46883.27
586.74	46581.34
586.90	46253.67
587.06	46518.15
587.22	46302.82
587.38	46291.12
587.54	46534.53
587.70	46904.34
587.86	46618.79
588.02	46555.60
588.18	46761.56
588.34	46515.81
588.49	46216.22
588.65	46227.92
588.81	46021.95
588.97	45823.01
589.13	46174.09
589.29	46457.29
589.45	46586.02
589.61	46550.91
589.77	46581.34
589.93	46920.72
590.08	46656.24
590.24	46637.51
590.40	47009.66
590.56	46941.78
590.72	46323.88
590.88	46349.63
591.04	46586.02
591.20	46691.35
591.35	46944.12
591.51	46969.87
591.67	47058.81
591.83	46724.11
591.99	46658.58
592.15	46401.12
592.31	46583.68
592.46	46616.45
592.62	46934.76
592.78	46791.99
592.94	47002.64
593.10	46492.40
593.26	46630.49
593.41	46614.11
593.57	47437.98
593.73	46604.75
593.89	46909.02
594.05	46539.21
594.20	46843.48
594.36	46993.28
594.52	46536.87
594.68	46670.28
594.84	46681.98
594.99	47079.88
595.15	46787.31
595.31	47414.57
595.47	46909.02
595.62	47063.49
595.78	46988.60
595.94	47091.58
596.10	46967.53
596.25	47023.70
596.41	46887.95
596.57	46962.85
596.73	47217.97
596.88	46473.68
597.04	47152.43
597.20	47056.47
597.36	46529.85
597.51	46887.95
597.67	46801.35
597.83	47049.45
597.99	46841.14
598.14	46829.44
598.30	46667.94
598.46	46653.90
598.61	46635.17
598.77	46490.06
598.93	46726.46
599.09	47262.44
599.24	46787.31
599.40	46880.93
599.56	46864.55
599.71	46548.57
599.87	46981.57
600.03	47019.02
600.18	46834.12
600.34	46728.80
600.50	46953.49
600.65	46277.07
600.81	47187.54
600.97	46817.74
601.12	47316.27
601.28	47210.95
601.44	46738.16
601.59	46686.67
601.75	46796.67
601.91	46782.63
602.06	46927.74
602.22	46995.62
602.37	46457.29
602.53	46614.11
602.69	47084.56
602.84	46843.48
603.00	46387.08
603.16	46681.98
603.31	46726.46
603.47	46588.36
603.62	46749.86
603.78	46616.45
603.94	46974.55
604.09	46691.35
604.25	47042.43
604.40	46939.44
604.56	46569.64
604.71	47096.26
604.87	46887.95
605.03	46899.65
605.18	46050.04
605.34	46300.48
605.49	46780.29
605.65	47185.20
605.80	46508.79
605.96	46777.95
606.12	47079.88
606.27	46653.90
606.43	46354.31
606.58	46726.46
606.74	46330.90
606.89	46899.65
607.05	46630.49
607.20	47004.98
607.36	46696.03
607.51	46735.82
607.67	46869.23
607.82	46742.84
607.98	46494.74
608.13	46326.22
608.29	46543.89
608.44	46164.73
608.60	46164.73
608.75	46028.98
608.91	46117.92
609.06	45916.63
609.22	46450.27
609.37	46366.01
609.53	46590.70
609.68	46387.08
609.84	46141.32
609.99	46635.17
610.15	46066.42
610.30	46176.43
610.46	46321.54
610.61	46129.62
610.76	46026.63
610.92	46571.98
611.07	45794.92
611.23	45989.19
611.38	46178.77
611.54	45808.96
611.69	46087.49
611.84	46293.46
612.00	46197.49
612.15	46021.95
612.31	46333.24
612.46	46230.26
612.62	45837.05
612.77	46155.36
612.92	46115.58
613.08	45605.34
613.23	45942.38
613.39	46195.15
613.54	46263.03
613.69	45528.10
613.85	45399.37
614.00	46316.86
614.15	46155.36
614.31	45834.71
614.46	46576.66
614.62	45986.85
614.77	45722.37
614.92	45558.53
615.08	45780.88
615.23	46120.26
615.38	45755.13
615.54	45324.47
615.69	45523.42
615.84	45336.18
616.00	45771.52
616.15	45352.56
616.30	45282.34
616.46	45069.36
616.61	45371.28
616.76	45404.05
616.92	45090.42
617.07	44872.75
617.22	45411.07
617.37	44975.73
617.53	45460.23
617.68	45607.68
617.83	45345.54
617.99	45483.63
618.14	45195.74
618.29	45092.76
618.45	45008.50
618.60	45151.27
618.75	45153.62
618.90	44898.50
619.06	45291.71
619.21	45106.80
619.36	45551.51
619.51	44935.95
619.67	45134.89
619.82	45420.44
619.97	45230.85
620.12	45195.74
620.28	44477.20
620.43	44980.42
620.58	44964.03
620.73	44732.32
620.89	44612.95
621.04	44804.88
621.19	44442.09
621.34	44194.00
621.49	44182.29
621.65	44037.18
621.80	44924.24
621.95	44446.77
622.10	44402.30
622.25	44900.84
622.41	44444.43
622.56	43971.64
622.71	44748.70
622.86	44589.55
623.01	44460.82
623.16	44605.93
623.32	44137.82
623.47	44762.75
623.62	44191.65
623.77	43955.26
623.92	44198.68
624.07	44163.57
624.23	43908.45
624.38	43964.62
624.53	43615.88
624.68	44577.84
624.83	44217.40
624.98	43849.94
625.13	44027.82
625.29	43859.30
625.44	44058.24
625.59	43856.96
625.74	43545.67
625.89	43709.50
626.04	43391.19
626.19	43636.95
626.34	43786.74
626.49	43629.93
626.65	43739.93
626.80	43540.99
626.95	43480.13
627.10	43407.58
627.25	43697.80
627.40	43248.42
627.55	43084.58
627.70	43309.27
627.85	43428.64
628.00	43423.96
628.15	43639.29
628.30	42969.90
628.45	43498.86
628.60	43217.99
628.76	43604.18
628.91	43358.42
629.06	43381.83
629.21	43143.09
629.36	43264.80
629.51	42806.06
629.66	43164.16
629.81	42796.70
629.96	43342.04
630.11	42862.23
630.26	43051.81
630.41	43229.69
630.56	42871.59
630.71	42944.15
630.86	42719.46
631.01	42447.96
631.16	42700.73
631.31	42185.82
631.46	42043.04
631.61	42869.25
631.76	42462.00
631.91	43213.31
632.06	42419.87
632.21	42703.07
632.36	42864.57
632.51	42543.92
632.66	42562.64
632.81	42368.38
632.96	42841.17
633.10	42284.12
633.25	42223.26
633.40	42572.00
633.55	42981.60
633.70	42536.90
633.85	42436.25
634.00	42302.84
634.15	42436.25
634.30	42211.56
634.45	42518.17
634.60	42021.98
634.75	41879.21
634.90	42562.64
635.05	41986.87
635.19	41982.19
635.34	42387.10
635.49	42040.70
635.64	41813.67
635.79	42096.88
635.94	41642.81
636.09	42019.64
636.24	41837.08
636.39	41645.15
636.53	42211.56
636.68	41832.39
636.83	42181.13
636.98	42199.86
637.13	42024.32
637.28	42117.94
637.43	42054.75
637.57	42038.36
637.72	41811.33
637.87	41928.36
638.02	41869.84
638.17	41886.23
638.32	41148.96
638.46	41659.20
638.61	41635.79
638.76	41436.84
638.91	41270.67
639.06	41331.52
639.20	41228.54
639.35	41673.24
639.50	41551.53
639.65	41366.63
639.80	41717.71
639.94	41305.77
640.09	41663.88
640.24	41331.52
640.39	40898.52
640.54	41205.13
640.68	40947.67
640.83	41331.52
640.98	41034.27
641.13	40460.84
641.27	41221.52
641.42	40720.64
641.57	40992.14
641.72	40891.50
641.86	40154.23
642.01	40535.74
642.16	40982.78
642.31	40226.79
642.45	40966.40
642.60	40390.62
642.75	40694.89
642.90	40858.73
643.04	40769.79
643.19	40790.86
643.34	40552.12
643.48	40690.21
643.63	40451.48
643.78	40514.67
643.93	40205.72
644.07	40306.37
644.22	40322.75
644.37	40201.04
644.51	40109.76
644.66	40598.93
644.81	40332.11
644.95	40704.26
645.10	40348.50
645.25	40278.28
645.39	40697.24
645.54	39981.03
645.69	40371.90
645.83	40098.06
645.98	40442.12
646.13	40140.19
646.27	40102.74
646.42	40158.91
646.57	40072.31
646.71	39653.36
646.86	39641.65
647.00	39812.51
647.15	40116.78
647.30	40371.90
647.44	39945.92
647.59	40030.18
647.74	39845.28
647.88	39604.20
648.03	40196.36
648.17	39681.44
648.32	39620.59
648.47	39885.07
648.61	39969.33
648.76	39812.51
648.90	39840.60
649.05	39400.58
649.20	39707.19
649.34	39409.94
649.49	39674.42
649.63	39533.99
649.78	39639.31
649.92	39262.49
650.07	39562.08
650.21	39210.99
650.36	39449.73
650.51	39402.92
650.65	39775.06
650.80	40037.20
650.94	39599.52
651.09	39667.40
651.23	39449.73
651.38	39023.75
651.52	39330.36
651.67	39538.67
651.81	39356.11
651.96	39262.49
652.10	39358.45
652.25	39026.09
652.39	39002.69
652.54	38878.64
652.68	39580.80
652.83	39611.23
652.97	39138.44
653.12	38930.13
653.26	38785.02
653.41	38677.35
653.55	39065.88
653.70	38602.46
653.84	38857.57
653.99	39058.86
654.13	38766.29
654.27	38993.32
654.42	38724.16
654.56	38522.88
654.71	38742.89
654.85	38705.44
655.00	39143.12
655.14	38532.24
655.29	38234.99
655.43	38345.00
655.57	38132.01
655.72	37890.93
655.86	37696.67
656.01	38080.52
656.15	38199.88
656.30	38588.41
656.44	38064.13
656.58	37935.40
656.73	37830.08
656.87	38190.52
657.01	37984.55
657.16	37729.44
657.30	38101.58
657.45	38110.94
657.59	37813.70
657.73	37471.98
657.88	37816.04
658.02	37663.90
658.16	37933.06
658.31	38134.35
658.45	38061.79
658.60	37890.93
658.74	37694.33
658.88	37869.87
659.03	37823.06
659.17	37656.88
659.31	37638.15
659.46	37759.86
659.60	37542.19
659.74	37542.19
659.89	37160.69
660.03	37310.48
660.17	37425.17
660.32	37797.31
660.46	37511.77
660.60	37471.98
660.74	37467.30
660.89	37352.61
661.03	36858.76
661.17	37038.98
661.32	36563.85
661.46	36458.52
661.60	36957.06
661.74	36933.65
661.89	36821.31
662.03	37038.98
662.17	36446.82
662.31	36924.29
662.46	37113.87
662.60	36844.71
662.74	36474.91
662.88	36779.18
663.03	36390.65
663.17	36093.40
663.31	36453.84
663.45	36322.77
663.60	36037.23
663.74	36191.70
663.88	35974.03
664.02	35749.34
664.17	36294.69
664.31	35447.41
664.45	35510.61
664.59	35981.06
664.73	36175.32
664.88	35845.30
665.02	35377.20
665.16	35702.53
665.30	36299.37
665.44	35857.01
665.59	35421.67
665.73	35325.71
665.87	35264.85
666.01	35084.63
666.15	35185.27
666.29	35271.87
666.44	35407.62
666.58	35440.39
666.72	35316.34
666.86	35321.02
667.00	35402.94
667.14	35082.29
667.28	34572.05
667.43	34541.63
667.57	34625.89
667.71	34440.98
667.85	34696.10
667.99	34342.68
668.13	33979.90
668.27	34623.54
668.41	34749.93
668.56	34064.16
668.70	34499.50
668.84	34185.86
668.98	34361.40
669.12	33893.30
669.26	34129.69
669.40	33914.36
669.54	33668.61
669.68	33951.81
669.82	33762.23
669.96	33495.41
670.10	33443.91
670.25	33631.16
670.39	33532.86
670.53	33551.58
670.67	33287.10
670.81	33418.17
670.95	33287.10
671.09	33181.77
671.23	33589.03
671.37	33703.71
671.51	33490.73
671.65	33156.03
671.79	32929.00
671.93	33006.23
672.07	32877.51
672.21	32893.89
672.35	32418.76
672.49	33104.54
672.63	33507.11
672.77	32603.66
672.91	32875.16
673.05	32797.93
673.19	32575.58
673.33	32833.04
673.47	32343.86
673.61	32294.71
673.75	31915.54
673.89	31580.85
674.03	31924.91
674.17	31475.52
674.31	31960.02
674.45	31758.73
674.59	31908.52
674.73	31758.73
674.87	31606.59
675.01	31491.91
675.15	31800.86
675.29	31466.16
675.43	31328.07
675.56	31424.03
675.70	31332.75
675.84	31505.95
675.98	30321.64
676.12	30899.75
676.26	31023.80
676.40	30885.71
676.54	30700.81
676.68	30782.73
676.82	30103.97
676.96	30333.34
677.10	29820.77
677.23	30291.21
677.37	30562.72
677.51	30312.28
677.65	30155.46
677.79	29844.17
677.93	29923.75
678.07	29848.85
678.21	29663.95
678.34	29591.39
678.48	29551.60
678.62	29827.79
678.76	29193.50
678.90	29493.09
679.04	29212.23
679.18	29317.55
679.31	28793.27
679.45	28797.95
679.59	28439.85
679.73	29055.41
679.87	28772.21
680.00	28624.75
680.14	28074.73
680.28	28114.52
680.42	28416.44
680.56	28381.34
680.70	28030.26
680.83	27936.63
680.97	27938.97
681.11	27838.33
681.25	27426.40
681.39	27768.12
681.52	27913.23
681.66	27875.78
681.80	27182.98
681.94	27585.55
682.07	27190.00
682.21	27449.80
682.35	26944.25
682.49	27014.46
682.62	27300.01
682.76	26635.30
682.90	26485.50
683.04	26941.91
683.17	26813.18
683.31	26256.13
683.45	26740.62
683.59	26129.74
683.72	26405.92
683.86	25568.01
684.00	25895.69
684.13	26106.34
684.27	26188.25
684.41	25703.76
684.55	25759.94
684.68	25305.87
684.82	25390.13
684.96	25568.01
685.09	25345.66
685.23	25355.02
685.37	24931.39
685.50	24961.81
685.64	25071.82
685.78	24709.04
685.91	25418.22
686.05	24903.30
686.19	24690.31
686.32	24664.57
686.46	24067.73
686.60	24126.24
686.73	24126.24
686.87	23826.65
687.01	23463.87
687.14	23756.44
687.28	23672.18
687.42	23665.16
687.55	23278.97
687.69	23475.57
687.82	23208.75
687.96	23566.85
688.10	23236.84
688.23	23227.48
688.37	22979.38
688.50	22946.61
688.64	22888.10
688.78	22923.21
688.91	22649.36
689.05	22572.13
689.18	22616.60
689.32	22424.67
689.46	22375.52
689.59	22752.35
689.73	22497.23
689.86	22483.19
690.00	22033.80
690.13	22235.09
690.27	22040.82
690.41	22071.25
690.54	22127.42
690.68	21525.91
690.81	21923.80
690.95	21350.37
691.08	21507.18
691.22	21465.05
691.35	21280.15
691.49	21600.80
691.62	21556.33
691.76	21245.04
691.89	21284.83
692.03	21036.74
692.16	20889.28
692.30	20783.96
692.43	21010.99
692.57	20594.37
692.70	20524.16
692.84	20573.31
692.97	20460.96
693.11	20334.57
693.24	20477.35
693.38	20095.84
693.51	19857.10
693.65	20088.82
693.78	20219.89
693.92	20025.62
694.05	19686.25
694.19	19513.05
694.32	19777.53
694.45	19838.38
694.59	19445.17
694.72	19391.34
694.86	19688.59
694.99	18986.43
695.13	18930.25
695.26	18609.60
695.39	18799.18
695.53	18977.06
695.66	19129.20
695.80	18757.05
695.93	18579.17
696.07	18616.62
696.20	18424.70
696.33	18523.00
696.47	18333.42
696.60	18274.90
696.73	18115.75
696.87	18216.39
697.00	18036.17
697.14	18288.95
697.27	17554.02
697.40	17909.78
697.54	17982.34
697.67	17528.27
697.80	17846.58
697.94	17528.27
698.07	17685.09
698.21	17312.94
698.34	17598.49
698.47	17404.22
698.61	17008.67
698.74	17121.02
698.87	17216.98
699.01	16891.65
699.14	16617.80
699.27	16559.29
699.40	16664.61
699.54	16706.74
699.67	16629.51
699.80	16596.74
699.94	16381.41
700.07	16465.67
700.20	16196.51
700.34	16002.24
700.47	16620.14
700.60	16287.79
700.73	16037.35
700.87	16332.26
701.00	15899.26
701.13	15887.56
701.26	16058.42
701.40	15768.19
701.53	15723.72
701.66	15707.34
701.79	15658.18
701.93	15641.80
702.06	15332.85
702.19	15199.44
702.32	15105.82
702.46	15208.80
702.59	15096.46
702.72	14953.68
702.85	15042.62
702.99	14923.26
703.12	15044.96
703.25	15056.67
703.38	14764.10
703.51	14670.48
703.65	14576.86
703.78	14700.90
703.91	14408.34
704.04	14602.60
704.17	14478.55
704.31	14218.75
704.44	14005.77
704.57	14064.28
704.70	13958.96
704.83	13841.93
704.96	14057.26
705.10	14104.07
705.23	14270.25
>>>>>End Processed Spectral Data<<<<<
