SpectraSuite Data File
++++++++++++++++++++++++++++++++++++
Date: Fri Oct 25 10:46:53 EDT 2013
User: price-jones
Dark Spectrum Present: No
Reference Spectrum Present: No
Number of Sampled Component Spectra: 1
Spectrometers: USB2+H05261
Integration Time (usec): 100000 (USB2+H05261)
Spectra Averaged: 1 (USB2+H05261)
Boxcar Smoothing: 0 (USB2+H05261)
Correct for Electrical Dark: No (USB2+H05261)
Strobe/Lamp Enabled: No (USB2+H05261)
Correct for Detector Non-linearity: No (USB2+H05261)
Correct for Stray Light: No (USB2+H05261)
Number of Pixels in Processed Spectrum: 2048
>>>>>Begin Processed Spectral Data<<<<<
365.73	156.82
365.92	156.82
366.12	156.82
366.32	88.94
366.52	56.17
366.72	0.00
366.91	58.51
367.11	84.26
367.31	7.02
367.51	49.15
367.70	11.70
367.90	16.38
368.10	63.19
368.30	121.71
368.49	117.03
368.69	46.81
368.89	91.28
369.09	72.56
369.28	56.17
369.48	58.51
369.68	124.05
369.87	84.26
370.07	88.94
370.27	112.35
370.47	182.56
370.66	332.36
370.86	423.64
371.06	435.34
371.25	500.87
371.45	524.28
371.65	472.79
371.84	390.87
372.04	433.00
372.24	503.22
372.44	461.09
372.63	489.17
372.83	559.39
373.03	531.30
373.22	552.37
373.42	552.37
373.62	512.58
373.81	596.84
374.01	622.58
374.21	533.64
374.40	505.56
374.60	667.05
374.79	514.92
374.99	568.75
375.19	582.79
375.38	648.33
375.58	510.24
375.78	620.24
375.97	587.47
376.17	645.99
376.37	671.73
376.56	671.73
376.76	669.39
376.95	596.84
377.15	582.79
377.35	725.57
377.54	697.48
377.74	631.94
377.93	706.84
378.13	711.52
378.33	723.23
378.52	741.95
378.72	676.41
378.91	643.65
379.11	685.78
379.31	624.92
379.50	718.54
379.70	718.54
379.89	648.33
380.09	559.39
380.28	641.31
380.48	685.78
380.68	711.52
380.87	662.37
381.07	793.44
381.26	713.86
381.46	629.60
381.65	667.05
381.85	681.10
382.04	671.73
382.24	678.76
382.43	678.76
382.63	737.27
382.83	725.57
383.02	765.36
383.22	748.97
383.41	697.48
383.61	763.01
383.80	727.91
384.00	830.89
384.19	704.50
384.39	741.95
384.58	786.42
384.78	851.96
384.97	793.44
385.17	823.87
385.36	781.74
385.56	816.85
385.75	877.70
385.95	802.80
386.14	866.00
386.34	777.06
386.53	718.54
386.72	826.21
386.92	894.08
387.11	854.30
387.31	929.19
387.50	929.19
387.70	922.17
387.89	894.08
388.09	917.49
388.28	856.64
388.48	849.61
388.67	938.55
388.86	889.40
389.06	1018.13
389.25	1008.77
389.45	966.64
389.64	919.83
389.84	1025.15
390.03	931.53
390.22	997.07
390.42	929.19
390.61	992.39
390.81	945.58
391.00	1071.97
391.19	1069.62
391.39	994.73
391.58	990.05
391.78	1086.01
391.97	992.39
392.16	1071.97
392.36	1060.26
392.55	943.24
392.75	1067.28
392.94	1015.79
393.13	971.32
393.33	940.90
393.52	1172.61
393.71	1055.58
393.91	1055.58
394.10	1020.47
394.29	1102.39
394.49	1116.44
394.68	1277.93
394.88	1135.16
395.07	1242.82
395.26	1135.16
395.46	1156.22
395.65	1193.67
395.84	1291.98
396.04	1235.80
396.23	1205.38
396.42	1165.59
396.62	1172.61
396.81	1177.29
397.00	1200.69
397.19	1277.93
397.39	1273.25
397.58	1352.83
397.77	1320.06
397.97	1441.77
398.16	1352.83
398.35	1453.47
398.55	1444.11
398.74	1458.15
398.93	1549.43
399.12	1446.45
399.32	1504.96
399.51	1469.86
399.70	1537.73
399.90	1495.60
400.09	1530.71
400.28	1476.88
400.47	1603.27
400.67	1596.25
400.86	1685.19
401.05	1706.25
401.24	1675.82
401.44	1633.69
401.63	1666.46
401.82	1696.89
402.01	1678.16
402.21	1701.57
402.40	1753.06
402.59	1743.70
402.78	1671.14
402.97	1743.70
403.17	1696.89
403.36	1748.38
403.55	1783.49
403.74	1888.81
403.93	1884.13
404.13	1739.02
404.32	1806.89
404.51	1900.52
404.70	1834.98
404.89	1834.98
405.09	1832.64
405.28	1867.75
405.47	1888.81
405.66	2024.56
405.85	1980.09
406.05	1966.05
406.24	1980.09
406.43	1963.71
406.62	1973.07
406.81	2113.50
407.00	2001.16
407.20	2019.88
407.39	2029.24
407.58	2064.35
407.77	2111.16
407.96	2085.42
408.15	2073.71
408.34	2207.13
408.54	2216.49
408.73	2211.81
408.92	2172.02
409.11	2181.38
409.30	2221.17
409.49	2263.30
409.68	2326.49
409.87	2382.67
410.07	2375.64
410.26	2244.57
410.45	2305.43
410.64	2347.56
410.83	2445.86
411.02	2410.75
411.21	2518.42
411.40	2478.63
411.59	2595.65
411.78	2466.92
411.98	2572.25
412.17	2656.51
412.36	2654.17
412.55	2619.06
412.74	2731.41
412.93	2675.23
413.12	2581.61
413.31	2778.22
413.50	2700.98
413.69	2846.09
413.88	2848.43
414.07	2843.75
414.26	2785.24
414.45	2869.50
414.64	2820.35
414.83	2913.97
415.02	2979.50
415.22	2988.86
415.41	2998.23
415.60	3131.64
415.79	3040.36
415.98	3157.38
416.17	3148.02
416.36	3176.11
416.55	3066.10
416.74	3225.26
416.93	3173.77
417.12	3229.94
417.31	3262.71
417.50	3169.09
417.69	3421.86
417.88	3283.77
418.07	3400.80
418.26	3428.88
418.45	3564.64
418.64	3686.34
418.83	3599.74
419.02	3487.40
419.21	3618.47
419.39	3536.55
419.58	3531.87
419.77	3405.48
419.96	3574.00
420.15	3672.30
420.34	3555.27
420.53	3681.66
420.72	3702.73
420.91	3609.11
421.10	3648.90
421.29	3796.35
421.48	3686.34
421.67	3660.60
421.86	3749.54
422.05	3756.56
422.24	3658.26
422.43	3784.65
422.61	3775.28
422.80	3859.54
422.99	3878.27
423.18	3906.35
423.37	3826.78
423.56	3995.29
423.75	3920.40
423.94	3889.97
424.13	3627.83
424.32	3744.86
424.50	3906.35
424.69	3922.74
424.88	3920.40
425.07	3880.61
425.26	3838.48
425.45	3822.09
425.64	3899.33
425.83	3775.28
426.01	3929.76
426.20	3969.55
426.39	3946.14
426.58	3997.64
426.77	3922.74
426.96	3925.08
427.15	3880.61
427.33	4037.42
427.52	3927.42
427.71	4011.68
427.90	3943.80
428.09	4105.30
428.28	4133.39
428.46	4121.68
428.65	4173.18
428.84	4112.32
429.03	4191.90
429.22	3950.82
429.40	4058.49
429.59	4065.51
429.78	3852.52
429.97	3911.04
430.16	4058.49
430.34	4100.62
430.53	4119.34
430.72	4227.01
430.91	4182.54
431.10	4219.99
431.28	4421.27
431.47	4627.24
431.66	4660.01
431.85	4386.16
432.03	4507.87
432.22	4603.83
432.41	4533.62
432.60	4437.66
432.79	4573.41
432.97	4669.37
433.16	4685.75
433.35	4669.37
433.54	4587.45
433.72	4573.41
433.91	4552.34
434.10	4667.03
434.28	4692.77
434.47	4851.93
434.66	4910.44
434.85	4760.65
435.03	4819.16
435.22	4849.59
435.41	5046.20
435.59	4952.57
435.78	4882.36
435.97	5013.43
436.16	4973.64
436.34	4950.23
436.53	5097.69
436.72	5118.75
436.90	4807.46
437.09	5139.82
437.28	4978.32
437.46	5142.16
437.65	5060.24
437.84	5249.82
438.02	5018.11
438.21	5158.54
438.40	5132.79
438.58	5240.46
438.77	5345.78
438.96	5355.15
439.14	5549.41
439.33	5427.70
439.52	5350.46
439.70	5399.62
439.89	5699.20
440.08	5540.05
440.26	5593.88
440.45	5514.30
440.63	5678.14
440.82	6047.94
441.01	5760.06
441.19	5696.86
441.38	6024.54
441.57	6066.67
441.75	6047.94
441.94	6097.10
442.12	6228.17
442.31	6026.88
442.50	6317.11
442.68	6317.11
442.87	6118.16
443.05	6235.19
443.24	6349.87
443.43	6382.64
443.61	6328.81
443.80	6413.07
443.98	6317.11
444.17	6230.51
444.35	6375.62
444.54	6445.84
444.73	6532.44
444.91	6354.55
445.10	6384.98
445.28	6197.74
445.47	6237.53
445.65	6321.79
445.84	6476.26
446.02	6345.19
446.21	6284.34
446.39	6427.11
446.58	6665.85
446.77	6494.99
446.95	6291.36
447.14	6513.71
447.32	6520.73
447.51	6445.84
447.69	6513.71
447.88	6778.19
448.06	6614.35
448.25	6459.88
448.43	6502.01
448.62	6518.39
448.80	6633.08
448.99	6759.47
449.17	6719.68
449.36	6626.06
449.54	6752.45
449.73	6871.81
449.91	6963.09
450.10	6853.09
450.28	7063.74
450.46	7162.04
450.65	7054.37
450.83	6991.18
451.02	6867.13
451.20	7208.85
451.39	6944.37
451.57	7000.54
451.76	6869.47
451.94	7129.27
452.13	7124.59
452.31	7014.59
452.49	6857.77
452.68	7042.67
452.86	6991.18
453.05	7316.51
453.23	7201.83
453.42	6946.71
453.60	7204.17
453.78	7204.17
453.97	7330.56
454.15	7211.19
454.34	7150.34
454.52	7417.16
454.70	7286.09
454.89	7279.07
455.07	7503.76
455.26	7433.54
455.44	7501.42
455.62	7578.65
455.81	7529.50
455.99	7618.44
456.17	7592.70
456.36	7658.23
456.54	7798.66
456.73	7969.52
456.91	8102.93
457.09	7871.22
457.28	8276.13
457.46	7992.93
457.64	8044.42
457.83	8126.34
458.01	7964.84
458.19	8222.30
458.38	8119.32
458.56	7971.86
458.74	8135.70
458.93	7962.50
459.11	8053.78
459.29	8112.30
459.48	8138.04
459.66	8154.43
459.84	8126.34
460.03	8325.29
460.21	8243.37
460.39	8400.18
460.57	8388.48
460.76	8423.59
460.94	8348.69
461.12	8400.18
461.31	8491.46
461.49	8344.01
461.67	8528.91
461.85	8777.01
462.04	8552.32
462.22	9104.68
462.40	8557.00
462.59	8720.84
462.77	8564.02
462.95	8802.75
463.13	8777.01
463.32	8788.71
463.50	8823.82
463.68	8947.87
463.86	8812.12
464.05	8723.18
464.23	8744.24
464.41	8692.75
464.59	8585.08
464.78	8903.40
464.96	8978.30
465.14	9008.72
465.32	8919.78
465.50	8968.93
465.69	9193.62
465.87	9062.55
466.05	9083.62
466.23	9039.15
466.41	9064.89
466.60	9252.14
466.78	9029.79
466.96	9029.79
467.14	9156.18
467.32	9083.62
467.51	9355.12
467.69	9020.42
467.87	9310.65
468.05	9233.41
468.23	9322.35
468.41	9107.02
468.60	9441.72
468.78	9373.85
468.96	9369.16
469.14	9511.94
469.32	9404.27
469.50	9217.03
469.69	9685.14
469.87	9579.81
470.05	9661.73
470.23	9486.19
470.41	9561.09
470.59	9692.16
470.77	9816.21
470.95	9797.48
471.14	9958.98
471.32	9874.72
471.50	10005.79
471.68	9958.98
471.86	9923.87
472.04	10094.73
472.22	10293.68
472.40	10148.56
472.58	10153.24
472.77	10368.57
472.95	10218.78
473.13	10640.08
473.31	10401.34
473.49	10368.57
473.67	10555.82
473.85	10394.32
474.03	10668.16
474.21	10743.06
474.39	10934.98
474.57	10956.05
474.75	10956.05
474.93	11047.33
475.12	11014.56
475.30	11112.86
475.48	10977.11
475.66	11052.01
475.84	10855.40
476.02	11370.32
476.20	11255.64
476.38	11522.46
476.56	11719.06
476.74	11784.60
476.92	11613.74
477.10	11524.80
477.28	11836.09
477.46	11918.01
477.64	11978.86
477.82	12322.92
478.00	12271.43
478.18	12095.89
478.36	12121.63
478.54	12503.14
478.72	12500.80
478.90	12641.23
479.08	12786.35
479.26	12685.70
479.44	12966.57
479.62	13088.28
479.80	12943.16
479.98	12872.95
480.16	13465.10
480.34	13228.71
480.52	13561.06
480.70	13404.25
480.88	13586.81
481.06	13600.85
481.24	13734.26
481.41	13947.25
481.59	14040.87
481.77	14134.50
481.95	14263.22
482.13	14396.64
482.31	14239.82
482.49	14518.34
482.67	14443.45
482.85	14691.54
483.03	15077.73
483.21	15012.20
483.39	15229.87
483.57	14846.02
483.74	15328.17
483.92	15506.05
484.10	15300.08
484.28	15861.81
484.46	15744.78
484.64	16039.69
484.82	15730.74
485.00	15716.70
485.18	16091.18
485.35	16091.18
485.53	15995.22
485.71	15957.77
485.89	16477.37
486.07	16451.63
486.25	16439.92
486.43	16475.03
486.61	16683.34
486.78	17132.72
486.96	16973.56
487.14	17373.80
487.32	17593.81
487.50	17834.88
487.68	17687.43
487.85	17853.61
488.03	18347.46
488.21	18237.45
488.39	18015.10
488.57	18441.08
488.75	18518.32
488.92	18644.71
489.10	19110.47
489.28	19171.33
489.46	19442.83
489.64	19037.92
489.81	19704.97
489.99	19887.53
490.17	19674.54
490.35	20240.95
490.53	19978.81
490.70	20135.63
490.88	20168.40
491.06	20334.57
491.24	20126.27
491.41	20601.40
491.59	20320.53
491.77	20407.13
491.95	20809.70
492.13	20917.37
492.30	21240.36
492.48	21472.07
492.66	21355.05
492.84	21516.54
493.01	21708.47
493.19	21462.71
493.37	22050.19
493.54	22101.68
493.72	22328.71
493.90	22204.66
494.08	22661.07
494.25	22712.56
494.43	22834.27
494.61	23061.30
494.79	22965.34
494.96	23040.23
495.14	23115.13
495.32	23133.86
495.49	23459.19
495.67	23405.36
495.85	23662.82
496.02	23941.34
496.20	24098.16
496.38	23824.31
496.55	24049.00
496.73	24329.87
496.91	24233.91
497.09	24528.81
497.26	24844.79
497.44	25006.28
497.62	25041.39
497.79	25085.86
497.97	24819.04
498.14	24727.76
498.32	25497.80
498.50	25233.32
498.67	25710.78
498.85	25593.76
499.03	25649.93
499.20	25853.56
499.38	25717.81
499.56	25872.28
499.73	26019.74
499.91	26455.08
500.08	26089.95
500.26	26122.72
500.44	26366.13
500.61	26239.75
500.79	26597.85
500.97	26377.84
501.14	26967.65
501.32	27014.46
501.49	26792.11
501.67	27082.34
501.84	26658.70
502.02	27424.06
502.20	27005.10
502.37	27367.88
502.55	27431.08
502.72	27819.61
502.90	28116.86
503.07	27637.05
503.25	28020.89
503.43	27391.29
503.60	27941.32
503.78	27777.48
503.95	27789.18
504.13	28056.00
504.30	28336.87
504.48	28023.23
504.65	28547.51
504.83	28877.53
505.01	28760.50
505.18	28444.53
505.36	29113.92
505.53	29109.24
505.71	29467.34
505.88	29111.58
506.06	29282.44
506.23	29207.55
506.41	28716.03
506.58	29144.35
506.76	29677.99
506.93	29713.10
507.11	29411.17
507.28	29837.15
507.46	29682.67
507.63	29612.46
507.81	29862.90
507.98	29788.00
508.16	29788.00
508.33	30277.17
508.50	30600.16
508.68	30370.79
508.85	30972.31
509.03	30794.43
509.20	30698.47
509.38	31241.47
509.55	30705.49
509.73	30637.61
509.90	31161.89
510.08	31117.42
510.25	31082.31
510.42	30995.71
510.60	31686.17
510.77	31548.08
510.95	31583.19
511.12	31679.15
511.30	31590.21
511.47	32025.55
511.64	31896.82
511.82	31644.04
511.99	31955.33
512.17	32147.26
512.34	31859.37
512.51	32212.79
512.69	32458.55
512.86	32503.02
513.04	32378.97
513.21	32680.90
513.38	32650.47
513.56	32432.80
513.73	32486.64
513.90	32896.23
514.08	32938.36
514.25	32943.04
514.43	32968.79
514.60	32905.59
514.77	33188.80
514.95	33373.70
515.12	33177.09
515.29	33486.04
515.47	33795.00
515.64	34054.79
515.81	33797.34
515.99	33958.83
516.16	33509.45
516.33	33539.88
516.51	33614.77
516.68	33057.73
516.85	32877.51
517.03	33109.22
517.20	33546.90
517.37	33797.34
517.54	34319.28
517.72	34148.42
517.89	33844.15
518.06	34115.65
518.24	33706.05
518.41	33944.79
518.58	34389.49
518.75	34309.91
518.93	34740.57
519.10	34422.26
519.27	35049.52
519.45	34763.98
519.62	34904.41
519.79	35269.53
519.96	34675.04
520.14	35622.95
520.31	35358.47
520.48	34983.99
520.65	35426.35
520.83	35503.59
521.00	35894.46
521.17	35864.03
521.34	35550.40
521.52	36032.55
521.69	35894.46
521.86	35969.35
522.03	36182.34
522.20	35487.20
522.38	36095.74
522.55	36168.30
522.72	36418.74
522.89	36264.26
523.07	36198.73
523.24	36432.78
523.41	36687.90
523.58	36636.41
523.75	36903.23
523.92	36849.39
524.10	37055.36
524.27	37331.54
524.44	36837.69
524.61	37179.41
524.78	37268.35
524.96	37553.90
525.13	37450.91
525.30	37794.97
525.47	37488.36
525.64	37294.10
525.81	37574.96
525.98	37338.57
526.16	37034.30
526.33	37024.93
526.50	37055.36
526.67	37034.30
526.84	37296.44
527.01	37205.16
527.18	37460.27
527.36	37764.54
527.53	38045.41
527.70	38724.16
527.87	38043.07
528.04	38307.55
528.21	38478.41
528.38	38190.52
528.55	38417.55
528.72	38845.87
528.89	38342.66
529.07	38122.65
529.24	38852.89
529.41	38513.52
529.58	38443.30
529.75	38440.96
529.92	38560.33
530.09	39033.11
530.26	38831.83
530.43	38925.45
530.60	38911.41
530.77	38625.86
530.94	39077.58
531.11	38754.59
531.28	38707.78
531.46	39494.20
531.63	39590.16
531.80	39374.83
531.97	39037.80
532.14	39026.09
532.31	39023.75
532.48	39379.51
532.65	39353.77
532.82	39580.80
532.99	39473.13
533.16	39468.45
533.33	39253.12
533.50	40037.20
533.67	40046.57
533.84	39512.92
534.01	39643.99
534.18	39725.91
534.35	40264.24
534.52	40250.19
534.69	40032.52
534.86	40488.93
535.03	40091.04
535.20	40250.19
535.37	40399.99
535.54	40538.08
535.71	40655.11
535.88	40322.75
536.05	40453.82
536.22	40650.42
536.38	40240.83
536.55	40685.53
536.72	40322.75
536.89	40170.61
537.06	40055.93
537.23	41134.92
537.40	40591.91
537.57	40900.86
537.74	41062.36
537.91	41340.88
538.08	40837.67
538.25	40650.42
538.42	40935.97
538.59	41556.21
538.75	40924.27
538.92	40694.89
539.09	41816.01
539.26	41024.91
539.43	41680.26
539.60	41221.52
539.77	41170.02
539.94	40982.78
540.11	41261.30
540.28	41605.36
540.44	40957.03
540.61	41713.03
540.78	41551.53
540.95	40935.97
541.12	41064.70
541.29	41537.49
541.46	41415.78
541.62	41799.63
541.79	41904.95
541.96	41219.17
542.13	41741.11
542.30	41881.55
542.47	41706.01
542.63	41804.31
542.80	41937.72
542.97	42251.35
543.14	42930.11
543.31	42602.43
543.48	42579.03
543.64	43171.18
543.81	42967.55
543.98	42705.41
544.15	42745.20
544.32	42686.69
544.48	42745.20
544.65	42682.01
544.82	42834.14
544.99	42206.88
545.16	42855.21
545.32	42550.94
545.49	43040.11
545.66	43384.17
545.83	42876.27
546.00	43175.86
546.16	43241.40
546.33	42838.83
546.50	43075.22
546.67	43105.65
546.83	42904.36
547.00	43035.43
547.17	42979.26
547.34	43253.10
547.50	42789.67
547.67	43583.12
547.84	43454.39
548.00	43346.72
548.17	43768.02
548.34	43814.83
548.51	43306.93
548.67	43552.69
548.84	43636.95
549.01	43983.35
549.18	43482.47
549.34	43440.34
549.51	43643.97
549.68	43847.60
549.84	44339.11
550.01	44098.03
550.18	43852.28
550.34	43786.74
550.51	43536.30
550.68	43854.62
550.84	43461.41
551.01	43658.01
551.18	44018.46
551.34	44032.50
551.51	44519.33
551.68	44299.32
551.84	44392.94
552.01	43915.47
552.18	44140.16
552.34	44121.44
552.51	44158.89
552.68	43807.81
552.84	44369.54
553.01	44598.91
553.18	44023.14
553.34	43763.34
553.51	43859.30
553.67	44161.23
553.84	44673.81
554.01	44596.57
554.17	44779.13
554.34	44996.80
554.51	44449.11
554.67	44582.52
554.84	44601.25
555.00	44430.39
555.17	44643.38
555.33	44608.27
555.50	44397.62
555.67	44683.17
555.83	44348.47
556.00	44966.37
556.16	45031.91
556.33	44949.99
556.50	44790.83
556.66	45057.65
556.83	44617.63
556.99	45155.96
557.16	45462.57
557.32	45085.74
557.49	44727.64
557.65	44673.81
557.82	44933.60
557.98	44921.90
558.15	45223.83
558.32	44910.20
558.48	45174.68
558.65	44964.03
558.81	45113.83
558.98	45006.16
559.14	45556.19
559.31	44865.73
559.47	45062.33
559.64	45694.28
559.80	45352.56
559.97	45460.23
560.13	44818.92
560.30	44992.12
560.46	45492.99
560.63	45422.78
560.79	45867.48
560.96	45776.20
561.12	45240.21
561.29	45404.05
561.45	45010.84
561.61	45265.96
561.78	45764.49
561.94	45172.34
562.11	45397.03
562.27	45146.59
562.44	45181.70
562.60	45500.01
562.77	45539.80
562.93	45614.70
563.10	45715.34
563.26	44905.52
563.42	45469.59
563.59	45570.23
563.75	45684.92
563.92	45415.76
564.08	45715.34
564.24	45834.71
564.41	45710.66
564.57	45745.77
564.74	45652.15
564.90	45446.18
565.07	46176.43
565.23	45106.80
565.39	45329.16
565.56	46277.07
565.72	45155.96
565.88	45567.89
566.05	45429.80
566.21	45378.31
566.38	45811.31
566.54	46000.89
566.70	46153.02
566.87	45839.39
567.03	45745.77
567.19	46026.63
567.36	45942.38
567.52	45586.61
567.68	45897.91
567.85	45736.41
568.01	45890.88
568.17	45776.20
568.34	46267.71
568.50	46045.36
568.66	45830.03
568.83	46218.56
568.99	45642.79
569.15	45724.71
569.32	45741.09
569.48	45687.26
569.64	45975.14
569.81	46061.74
569.97	45471.93
570.13	45956.42
570.30	45794.92
570.46	45794.92
570.62	45808.96
570.78	45467.25
570.95	45375.97
571.11	45914.29
571.27	45748.11
571.43	45752.79
571.60	45881.52
571.76	45947.06
571.92	45535.12
572.09	45986.85
572.25	46073.45
572.41	45436.82
572.57	45951.74
572.74	46387.08
572.90	46052.38
573.06	45965.78
573.22	46005.57
573.38	46241.96
573.55	45897.91
573.71	46525.17
573.87	45813.65
574.03	45680.24
574.20	45979.82
574.36	46188.13
574.52	45998.55
574.68	46223.24
574.84	46185.79
575.01	46064.08
575.17	45949.40
575.33	46094.51
575.49	45588.95
575.65	46298.14
575.82	46181.11
575.98	46169.41
576.14	46223.24
576.30	46309.84
576.46	46024.29
576.62	46017.27
576.79	45911.95
576.95	45729.39
577.11	46047.70
577.27	45982.16
577.43	46040.68
577.59	46045.36
577.75	45848.75
577.92	46146.00
578.08	46000.89
578.24	46024.29
578.40	46014.93
578.56	46300.48
578.72	46466.66
578.88	46534.53
579.04	45954.08
579.21	45881.52
579.37	45930.67
579.53	45844.07
579.69	45881.52
579.85	46300.48
580.01	46443.25
580.17	45921.31
580.33	45790.24
580.49	46160.05
580.65	46398.78
580.82	46129.62
580.98	45860.46
581.14	45834.71
581.30	45984.51
581.46	46117.92
581.62	46131.96
581.78	46216.22
581.94	46705.39
582.10	46227.92
582.26	46279.41
582.42	46103.87
582.58	46036.00
582.74	46047.70
582.90	45900.25
583.06	46422.19
583.22	46461.97
583.38	46621.13
583.54	46351.97
583.70	46527.51
583.86	46567.30
584.02	45963.44
584.18	46389.42
584.34	46438.57
584.50	46431.55
584.66	46033.66
584.82	46281.75
584.98	46258.35
585.14	45923.65
585.30	46024.29
585.46	46232.60
585.62	46000.89
585.78	46370.69
585.94	46000.89
586.10	45954.08
586.26	46368.35
586.42	46630.49
586.58	46586.02
586.74	46429.21
586.90	46239.62
587.06	46057.06
587.22	46518.15
587.38	45937.69
587.54	46562.62
587.70	46286.43
587.86	46120.26
588.02	46447.93
588.18	46344.95
588.34	46082.81
588.49	46220.90
588.65	46017.27
588.81	45584.27
588.97	46092.17
589.13	46061.74
589.29	46366.01
589.45	46600.07
589.61	46267.71
589.77	46440.91
589.93	46431.55
590.08	46110.89
590.24	46628.15
590.40	46756.88
590.56	46705.39
590.72	46452.61
590.88	46010.25
591.04	46562.62
591.20	46817.74
591.35	46768.58
591.51	47021.36
591.67	46445.59
591.83	46246.65
591.99	46476.02
592.15	46579.00
592.31	47054.13
592.46	46174.09
592.62	46164.73
592.78	46337.93
592.94	46291.12
593.10	46696.03
593.26	46564.96
593.41	46108.55
593.57	46239.62
593.73	46038.34
593.89	46431.55
594.05	46515.81
594.20	46209.20
594.36	46440.91
594.52	46672.62
594.68	46220.90
594.84	46375.37
594.99	46799.01
595.15	46473.68
595.31	46883.27
595.47	46267.71
595.62	46476.02
595.78	46700.71
595.94	46497.08
596.10	46508.79
596.25	46660.92
596.41	47033.07
596.57	46405.80
596.73	46412.82
596.88	46127.28
597.04	46445.59
597.20	46464.32
597.36	46618.79
597.51	46787.31
597.67	46351.97
597.83	46607.09
597.99	46389.42
598.14	46354.31
598.30	46698.37
598.46	46344.95
598.61	46597.73
598.77	46443.25
598.93	46597.73
599.09	46691.35
599.24	46813.05
599.40	46794.33
599.56	46527.51
599.71	46693.69
599.87	46937.10
600.03	46461.97
600.18	46777.95
600.34	46646.88
600.50	46955.83
600.65	46770.93
600.81	47004.98
600.97	46836.46
601.12	47327.97
601.28	46653.90
601.44	46911.36
601.59	46831.78
601.75	46466.66
601.91	46581.34
602.06	46742.84
602.22	46894.97
602.37	46202.18
602.53	46550.91
602.69	46522.83
602.84	46471.34
603.00	46522.83
603.16	46232.60
603.31	46380.06
603.47	46520.49
603.62	46150.68
603.78	46822.42
603.94	46298.14
604.09	46665.60
604.25	46431.55
604.40	46253.67
604.56	46188.13
604.71	46590.70
604.87	46693.69
605.03	46756.88
605.18	46464.32
605.34	46686.67
605.49	46021.95
605.65	46541.55
605.80	46621.13
605.96	46368.35
606.12	46433.89
606.27	46625.81
606.43	46082.81
606.58	46438.57
606.74	46026.63
606.89	46632.83
607.05	46518.15
607.20	46466.66
607.36	46241.96
607.51	46309.84
607.67	46445.59
607.82	46342.61
607.98	46300.48
608.13	46459.63
608.29	46101.53
608.44	46089.83
608.60	45956.42
608.75	45914.29
608.91	45710.66
609.06	45935.35
609.22	46405.80
609.37	45914.29
609.53	46089.83
609.68	45904.93
609.84	45993.87
609.99	46031.32
610.15	45771.52
610.30	45954.08
610.46	45869.82
610.61	45675.55
610.76	46031.32
610.92	45698.96
611.07	45935.35
611.23	46263.03
611.38	46230.26
611.54	46066.42
611.69	45481.29
611.84	45577.25
612.00	45666.19
612.15	45434.48
612.31	45481.29
612.46	46419.84
612.62	45979.82
612.77	45715.34
612.92	45778.54
613.08	45949.40
613.23	45759.81
613.39	45528.10
613.54	45282.34
613.69	45689.60
613.85	45549.17
614.00	45687.26
614.15	45687.26
614.31	45228.51
614.46	45584.27
614.62	45439.16
614.77	45462.57
614.92	45350.22
615.08	45448.52
615.23	45345.54
615.38	45071.70
615.54	44980.42
615.69	45146.59
615.84	45113.83
616.00	45780.88
616.15	45635.77
616.30	45191.06
616.46	44985.10
616.61	44835.30
616.76	45151.27
616.92	44577.84
617.07	44755.72
617.22	44493.58
617.37	44839.98
617.53	45055.31
617.68	45177.02
617.83	44767.43
617.99	45542.14
618.14	44971.05
618.29	44765.09
618.45	44432.73
618.60	44591.89
618.75	44664.44
618.90	44823.60
619.06	44652.74
619.21	45027.23
619.36	44917.22
619.51	44907.86
619.67	44896.16
619.82	44774.45
619.97	44872.75
620.12	44762.75
620.28	44498.26
620.43	44392.94
620.58	44891.48
620.73	44280.60
620.89	44378.90
621.04	45015.52
621.19	44505.29
621.34	44233.78
621.49	44203.36
621.65	44109.74
621.80	44320.38
621.95	44006.75
622.10	44140.16
622.25	43714.19
622.41	43700.14
622.56	43906.11
622.71	44179.95
622.86	44252.51
623.01	44545.08
623.16	44119.10
623.32	43913.13
623.47	44648.06
623.62	44390.60
623.77	44205.70
623.92	44046.54
624.07	43849.94
624.23	43903.77
624.38	43686.10
624.53	43636.95
624.68	43676.74
624.83	43639.29
624.98	43861.64
625.13	43133.73
625.29	44079.31
625.44	43775.04
625.59	43227.35
625.74	43325.66
625.89	43217.99
626.04	43391.19
626.19	43599.50
626.34	43854.62
626.49	43438.00
626.65	43536.30
626.80	43522.26
626.95	43044.79
627.10	43681.42
627.25	43133.73
627.40	43049.47
627.55	42564.98
627.70	42604.77
627.85	42794.36
628.00	42944.15
628.15	42965.21
628.30	43112.67
628.45	43313.95
628.60	43119.69
628.76	43344.38
628.91	43115.01
629.06	42766.27
629.21	42995.64
629.36	42890.32
629.51	42511.15
629.66	42600.09
629.81	42859.89
629.96	42817.76
630.11	42885.64
630.26	43070.54
630.41	43072.88
630.56	43000.32
630.71	42667.97
630.86	42852.87
631.01	42944.15
631.16	42731.16
631.31	42466.68
631.46	42124.96
631.61	42703.07
631.76	42337.95
631.91	42492.43
632.06	42281.78
632.21	42462.00
632.36	42658.60
632.51	42321.57
632.66	42440.93
632.81	42211.56
632.96	42513.49
633.10	42412.85
633.25	42197.52
633.40	42160.07
633.55	42141.35
633.70	41921.34
633.85	42026.66
634.00	42429.23
634.15	42073.47
634.30	41771.54
634.45	42199.86
634.60	42019.64
634.75	42101.56
634.90	41874.52
635.05	41729.41
635.19	41855.80
635.34	41558.55
635.49	42157.73
635.64	41895.59
635.79	41839.42
635.94	41544.51
636.09	41619.41
636.24	41748.14
636.39	41289.39
636.53	41418.12
636.68	41123.21
636.83	41462.59
636.98	41628.77
637.13	41687.28
637.28	41591.32
637.43	41570.25
637.57	41977.51
637.72	41453.23
637.87	41766.86
638.02	41462.59
638.17	41195.77
638.32	41319.82
638.46	41099.81
638.61	41593.66
638.76	41081.08
638.91	40886.82
639.06	41160.66
639.20	41542.17
639.35	41493.02
639.50	41198.11
639.65	41944.74
639.80	41399.40
639.94	40900.86
640.09	41113.85
640.24	40746.39
640.39	40718.30
640.54	40889.16
640.68	41034.27
640.83	40786.18
640.98	40800.22
641.13	40491.27
641.27	41553.87
641.42	40718.30
641.57	40767.45
641.72	41106.83
641.86	40250.19
642.01	40062.95
642.16	40535.74
642.31	40058.27
642.45	40355.52
642.60	40179.98
642.75	40273.60
642.90	40456.16
643.04	40346.15
643.19	40648.08
643.34	40659.79
643.48	40297.00
643.63	40556.80
643.78	40327.43
643.93	40329.77
644.07	40149.55
644.22	40421.05
644.37	39840.60
644.51	40034.86
644.66	40472.54
644.81	40299.34
644.95	40074.65
645.10	40273.60
645.25	40222.11
645.39	40100.40
645.54	40428.07
645.69	39709.53
645.83	39533.99
645.98	39723.57
646.13	40072.31
646.27	39981.03
646.42	40179.98
646.57	39971.67
646.71	39894.43
646.86	39775.06
647.00	39990.39
647.15	40048.91
647.30	39969.33
647.44	39536.33
647.59	39522.29
647.74	39613.57
647.88	39908.47
648.03	40020.82
648.17	39168.87
648.32	39445.05
648.47	39669.74
648.61	39311.64
648.76	39564.42
648.90	39241.42
649.05	39707.19
649.20	39580.80
649.34	39400.58
649.49	39082.27
649.63	39288.23
649.78	38885.66
649.92	39026.09
650.07	40084.01
650.21	39143.12
650.36	39328.02
650.51	39332.70
650.65	39328.02
650.80	39679.10
650.94	39470.79
651.09	39306.96
651.23	38983.96
651.38	39269.51
651.52	39005.03
651.67	38850.55
651.81	39185.25
651.96	39157.16
652.10	39140.78
652.25	38930.13
652.39	39119.71
652.54	39379.51
652.68	38866.94
652.83	39047.16
652.97	39002.69
653.12	38974.60
653.26	38735.87
653.41	38948.85
653.55	38756.93
653.70	38632.88
653.84	38546.28
653.99	38918.43
654.13	38452.66
654.27	38843.53
654.42	38415.21
654.56	38209.25
654.71	38403.51
654.85	38209.25
655.00	38057.11
655.14	38019.66
655.29	37832.42
655.43	38047.75
655.57	38087.54
655.72	38050.09
655.86	37724.75
656.01	37593.68
656.15	37614.75
656.30	37897.95
656.44	37759.86
656.58	37844.12
656.73	37801.99
656.87	37460.27
657.01	37778.59
657.16	37656.88
657.30	37984.55
657.45	37511.77
657.59	37247.29
657.73	37514.11
657.88	37895.61
658.02	37429.85
658.16	37694.33
658.31	37399.42
658.45	37509.43
658.60	37577.30
658.74	37057.70
658.88	37310.48
659.03	37776.25
659.17	37167.71
659.31	37523.47
659.46	37111.53
659.60	37525.81
659.74	37167.71
659.89	36842.37
660.03	36830.67
660.17	36783.86
660.32	36924.29
660.46	36858.76
660.60	37062.38
660.74	37397.08
660.89	37095.15
661.03	36559.17
661.17	36643.43
661.32	36545.12
661.46	36685.56
661.60	36701.94
661.74	36638.75
661.89	36559.17
662.03	36718.32
662.17	36430.44
662.31	36273.62
662.46	36882.16
662.60	36388.31
662.74	36753.43
662.88	36240.86
663.03	35974.03
663.17	36636.41
663.31	36048.93
663.45	35828.92
663.60	35749.34
663.74	35857.01
663.88	35878.07
664.02	35674.45
664.17	36552.15
664.31	35842.96
664.45	35812.54
664.59	35849.99
664.73	35283.58
664.88	35445.07
665.02	35388.90
665.16	35117.40
665.30	35494.22
665.44	35459.12
665.59	34934.84
665.73	34953.56
665.87	34941.86
666.01	35180.59
666.15	35323.36
666.29	34988.67
666.44	34960.58
666.58	34422.26
666.72	34986.33
666.86	35082.29
667.00	35161.87
667.14	34630.57
667.28	34639.93
667.43	34162.46
667.57	34469.07
667.71	34644.61
667.85	34731.21
667.99	34211.61
668.13	34576.73
668.27	34249.06
668.41	34293.53
668.56	34176.50
668.70	34108.63
668.84	34141.39
668.98	33979.90
669.12	33895.64
669.26	33883.94
669.40	34000.96
669.54	33703.71
669.68	34141.39
669.82	33476.68
669.96	33619.46
670.10	33661.58
670.25	34068.84
670.39	34019.69
670.53	33399.44
670.67	33275.40
670.81	33270.72
670.95	33366.68
671.09	33221.56
671.23	33523.49
671.37	33469.66
671.51	32978.15
671.65	32830.69
671.79	32514.72
671.93	32800.27
672.07	32697.28
672.21	33001.55
672.35	32610.68
672.49	32407.06
672.63	32629.41
672.77	32940.70
672.91	32484.30
673.05	32350.88
673.19	32051.30
673.33	31964.70
673.47	32439.82
673.61	31821.92
673.75	31981.08
673.89	31454.46
674.03	31770.43
674.17	31653.40
674.31	31793.84
674.45	31225.09
674.59	31665.11
674.73	31770.43
674.87	31346.79
675.01	31407.65
675.15	31562.12
675.29	31646.38
675.43	31395.95
675.56	31644.04
675.70	31463.82
675.84	30881.03
675.98	29832.47
676.12	30700.81
676.26	30883.37
676.40	30522.93
676.54	30448.03
676.68	30756.98
676.82	29909.71
676.96	30185.89
677.10	30490.16
677.23	30167.16
677.37	30010.35
677.51	29935.45
677.65	30054.82
677.79	29528.20
677.93	29879.28
678.07	29670.97
678.21	29584.37
678.34	29479.05
678.48	29371.38
678.62	29338.62
678.76	29378.40
678.90	29020.30
679.04	28943.06
679.18	29177.12
679.31	28781.57
679.45	28837.74
679.59	28514.75
679.73	28357.93
679.87	28521.77
680.00	28402.40
680.14	27800.88
680.28	28072.39
680.42	27662.79
680.56	27803.22
680.70	27679.18
680.83	27587.89
680.97	27920.25
681.11	28268.99
681.25	27674.49
681.39	27522.36
681.52	27749.39
681.66	27271.92
681.80	27283.62
681.94	27363.20
682.07	26948.93
682.21	26817.86
682.35	26827.22
682.49	26941.91
682.62	26857.65
682.76	26389.54
682.90	26494.86
683.04	26735.94
683.17	26223.36
683.31	26611.89
683.45	26623.59
683.59	26445.71
683.72	26008.03
683.86	25942.50
684.00	25460.35
684.13	26054.84
684.27	25867.60
684.41	25427.58
684.55	25268.42
684.68	25577.37
684.82	25450.99
684.96	25242.68
685.09	25563.33
685.23	25083.52
685.37	24868.19
685.50	24795.64
685.64	24982.88
685.78	25048.41
685.91	24961.81
686.05	24812.02
686.19	23950.70
686.32	24350.93
686.46	24163.69
686.60	24194.12
686.73	24107.52
686.87	23683.88
687.01	23606.64
687.14	23417.06
687.28	23730.69
687.42	23871.12
687.55	23110.45
687.69	23391.31
687.82	23349.18
687.96	23150.24
688.10	23295.35
688.23	23243.86
688.37	23234.50
688.50	22881.08
688.64	22789.80
688.78	22796.82
688.91	22494.89
689.05	22834.27
689.18	22511.27
689.32	22162.53
689.46	22176.58
689.59	22359.14
689.73	22160.19
689.86	22099.34
690.00	22097.00
690.13	22190.62
690.27	21895.71
690.41	21666.34
690.54	21427.60
690.68	21558.67
690.81	21254.40
690.95	21238.02
691.08	21085.89
691.22	21673.36
691.35	21209.93
691.49	21359.73
691.62	21507.18
691.76	21200.57
691.89	21174.83
692.03	20966.52
692.16	20959.50
692.30	20465.64
692.43	20629.48
692.57	20486.71
692.70	20472.67
692.84	20601.40
692.97	20154.35
693.11	20402.45
693.24	20093.50
693.38	20002.22
693.51	19789.23
693.65	19896.89
693.78	20156.69
693.92	20074.77
694.05	19758.80
694.19	20121.59
694.32	19686.25
694.45	19578.58
694.59	19140.90
694.72	19016.85
694.86	19157.28
694.99	19129.20
695.13	19077.71
695.26	19091.75
695.39	18979.40
695.53	18913.87
695.66	18780.46
695.80	18787.48
695.93	18661.09
696.07	18672.79
696.20	18518.32
696.33	18562.79
696.47	18298.31
696.60	18555.77
696.73	18293.63
696.87	17921.48
697.00	18068.94
697.14	17888.71
697.27	17905.10
697.40	17921.48
697.54	17720.20
697.67	17666.36
697.80	17736.58
697.94	17792.75
698.07	17570.40
698.21	17390.18
698.34	17490.82
698.47	17184.21
698.61	17048.46
698.74	17125.70
698.87	17015.69
699.01	16758.24
699.14	16737.17
699.27	16620.14
699.40	16615.46
699.54	16393.11
699.67	16222.25
699.80	16355.66
699.94	16367.37
700.07	16271.40
700.20	16187.14
700.34	16126.29
700.47	16250.34
700.60	16416.52
700.73	16627.17
700.87	15995.22
701.00	15838.41
701.13	15737.76
701.26	15840.75
701.40	15723.72
701.53	15480.30
701.66	15754.15
701.79	15515.41
701.93	15377.32
702.06	15108.16
702.19	15267.31
702.32	15431.15
702.46	15030.92
702.59	15328.17
702.72	15012.20
702.85	14941.98
702.99	14944.32
703.12	15115.18
703.25	14726.65
703.38	14867.08
703.51	14544.09
703.65	14551.11
703.78	14284.29
703.91	14314.72
704.04	14436.42
704.17	14232.80
704.31	14092.37
704.44	13909.80
704.57	13900.44
704.70	14017.47
704.83	14059.60
704.96	13982.36
705.10	13799.80
705.23	14286.63
>>>>>End Processed Spectral Data<<<<<
