SpectraSuite Data File
++++++++++++++++++++++++++++++++++++
Date: Fri Oct 25 10:48:20 EDT 2013
User: price-jones
Dark Spectrum Present: No
Reference Spectrum Present: No
Number of Sampled Component Spectra: 1
Spectrometers: USB2+H05261
Integration Time (usec): 100000 (USB2+H05261)
Spectra Averaged: 1 (USB2+H05261)
Boxcar Smoothing: 0 (USB2+H05261)
Correct for Electrical Dark: No (USB2+H05261)
Strobe/Lamp Enabled: No (USB2+H05261)
Correct for Detector Non-linearity: No (USB2+H05261)
Correct for Stray Light: No (USB2+H05261)
Number of Pixels in Processed Spectrum: 2048
>>>>>Begin Processed Spectral Data<<<<<
365.73	107.66
365.92	107.66
366.12	107.66
366.32	51.49
366.52	74.90
366.72	65.54
366.91	60.85
367.11	0.00
367.31	81.92
367.51	35.11
367.70	51.49
367.90	4.68
368.10	0.00
368.30	44.47
368.49	25.75
368.69	121.71
368.89	16.38
369.09	28.09
369.28	81.92
369.48	44.47
369.68	44.47
369.87	112.35
370.07	77.24
370.27	154.48
370.47	110.01
370.66	414.27
370.86	477.47
371.06	505.56
371.25	554.71
371.45	526.62
371.65	456.40
371.84	451.72
372.04	468.11
372.24	559.39
372.44	538.32
372.63	585.13
372.83	575.77
373.03	573.43
373.22	507.90
373.42	531.30
373.62	554.71
373.81	620.24
374.01	564.07
374.21	603.86
374.40	557.05
374.60	627.26
374.79	573.43
374.99	624.92
375.19	629.60
375.38	606.20
375.58	606.20
375.78	636.63
375.97	566.41
376.17	650.67
376.37	718.54
376.56	662.37
376.76	638.97
376.95	683.44
377.15	638.97
377.35	620.24
377.54	636.63
377.74	676.41
377.93	734.93
378.13	781.74
378.33	702.16
378.52	660.03
378.72	660.03
378.91	755.99
379.11	622.58
379.31	704.50
379.50	713.86
379.70	744.29
379.89	706.84
380.09	706.84
380.28	772.38
380.48	763.01
380.68	739.61
380.87	730.25
381.07	706.84
381.26	802.80
381.46	739.61
381.65	823.87
381.85	664.71
382.04	751.31
382.24	699.82
382.43	648.33
382.63	835.57
382.83	711.52
383.02	863.66
383.22	812.17
383.41	755.99
383.61	727.91
383.80	819.19
384.00	842.59
384.19	873.02
384.39	861.32
384.58	875.36
384.78	858.98
384.97	889.40
385.17	847.27
385.36	770.04
385.56	837.91
385.75	802.80
385.95	863.66
386.14	884.72
386.34	875.36
386.53	924.51
386.72	915.15
386.92	945.58
387.11	847.27
387.31	926.85
387.50	840.25
387.70	891.74
387.89	929.19
388.09	1029.84
388.28	917.49
388.48	976.00
388.67	966.64
388.86	1039.20
389.06	908.13
389.25	968.98
389.45	1050.90
389.64	1118.78
389.84	978.34
390.03	1060.26
390.22	1020.47
390.42	1020.47
390.61	1001.75
390.81	1086.01
391.00	1132.82
391.19	1130.48
391.39	1207.72
391.58	1086.01
391.78	1125.80
391.97	1071.97
392.16	1078.99
392.36	1125.80
392.55	1043.88
392.75	1093.03
392.94	1029.84
393.13	1097.71
393.33	1039.20
393.52	1170.27
393.71	1242.82
393.91	1177.29
394.10	1153.88
394.29	1081.33
394.49	1193.67
394.68	1217.08
394.88	1228.78
395.07	1259.21
395.26	1226.44
395.46	1266.23
395.65	1348.15
395.84	1210.06
396.04	1252.19
396.23	1247.51
396.42	1226.44
396.62	1299.00
396.81	1320.06
397.00	1259.21
397.19	1299.00
397.39	1275.59
397.58	1448.79
397.77	1467.52
397.97	1493.26
398.16	1458.15
398.35	1507.30
398.55	1561.14
398.74	1600.93
398.93	1600.93
399.12	1469.86
399.32	1614.97
399.51	1638.38
399.70	1717.95
399.90	1526.03
400.09	1619.65
400.28	1600.93
400.47	1678.16
400.67	1650.08
400.86	1689.87
401.05	1696.89
401.24	1809.23
401.44	1746.04
401.63	1778.81
401.82	1832.64
402.01	1809.23
402.21	1893.49
402.40	1771.79
402.59	1804.55
402.78	1858.39
402.97	1788.17
403.17	1987.11
403.36	1980.09
403.55	1959.03
403.74	1923.92
403.93	2073.71
404.13	1895.83
404.32	2005.84
404.51	1912.22
404.70	2050.31
404.89	2066.69
405.09	2083.08
405.28	1909.88
405.47	2062.01
405.66	2104.14
405.85	2078.40
406.05	2083.08
406.24	2052.65
406.43	2225.85
406.62	2237.55
406.81	2169.68
407.00	2120.53
407.20	2083.08
407.39	2197.76
407.58	2207.13
407.77	2377.98
407.96	2415.43
408.15	2345.22
408.34	2289.04
408.54	2380.32
408.73	2413.09
408.92	2305.43
409.11	2427.14
409.30	2487.99
409.49	2448.20
409.68	2480.97
409.87	2277.34
410.07	2340.54
410.26	2455.22
410.45	2394.37
410.64	2635.44
410.83	2630.76
411.02	2544.16
411.21	2750.13
411.40	2693.96
411.59	2675.23
411.78	2703.32
411.98	2832.05
412.17	2857.79
412.36	2808.64
412.55	2759.49
412.74	2850.77
412.93	2850.77
413.12	2834.39
413.31	2888.22
413.50	2928.01
413.69	3007.59
413.88	2981.84
414.07	3028.65
414.26	3000.57
414.45	3136.32
414.64	3021.63
414.83	3049.72
415.02	3201.85
415.22	3176.11
415.41	3204.19
415.60	3307.18
415.79	3248.66
415.98	3494.42
416.17	3421.86
416.36	3368.03
416.55	3438.25
416.74	3314.20
416.93	3349.31
417.12	3426.54
417.31	3318.88
417.50	3548.25
417.69	3468.67
417.88	3440.59
418.07	3627.83
418.26	3581.02
418.45	3611.45
418.64	3824.44
418.83	3726.13
419.02	3691.02
419.21	3681.66
419.39	3679.32
419.58	3819.75
419.77	3599.74
419.96	3911.04
420.15	3971.89
420.34	3941.46
420.53	3892.31
420.72	3915.72
420.91	4049.13
421.10	3974.23
421.29	4126.36
421.48	3906.35
421.67	4042.11
421.86	3960.19
422.05	3850.18
422.24	3871.25
422.43	3997.64
422.61	3882.95
422.80	4042.11
422.99	4081.89
423.18	4243.39
423.37	4234.03
423.56	3990.61
423.75	3988.27
423.94	4011.68
424.13	3852.52
424.32	4067.85
424.50	4131.05
424.69	4208.28
424.88	4180.20
425.07	4067.85
425.26	3992.95
425.45	4133.39
425.64	4109.98
425.83	4023.38
426.01	4421.27
426.20	4166.15
426.39	4252.75
426.58	4018.70
426.77	4051.47
426.96	4170.83
427.15	4109.98
427.33	4250.41
427.52	4184.88
427.71	4257.43
427.90	4168.49
428.09	4283.18
428.28	4315.95
428.46	4205.94
428.65	4334.67
428.84	4477.44
429.03	4444.68
429.22	4189.56
429.40	4344.03
429.59	4299.56
429.78	4266.80
429.97	4147.43
430.16	4231.69
430.34	4236.37
430.53	4306.59
430.72	4287.86
430.91	4470.42
431.10	4390.84
431.28	4786.40
431.47	4760.65
431.66	4856.61
431.85	4851.93
432.03	4732.56
432.22	4863.63
432.41	4765.33
432.60	4966.62
432.79	4940.87
432.97	5004.07
433.16	4847.25
433.35	4854.27
433.54	4896.40
433.72	4798.10
433.91	4922.15
434.10	4945.55
434.28	4809.80
434.47	4994.70
434.66	5273.23
434.85	5104.71
435.03	5078.96
435.22	5205.35
435.41	5266.21
435.59	5282.59
435.78	5083.64
435.97	5282.59
436.16	5245.14
436.34	5411.32
436.53	5406.64
436.72	5385.57
436.90	5158.54
437.09	5423.02
437.28	5221.74
437.46	5296.63
437.65	5390.25
437.84	5277.91
438.02	5355.15
438.21	5348.12
438.40	5385.57
438.58	5540.05
438.77	5661.76
438.96	5619.63
439.14	5760.06
439.33	5764.74
439.52	5844.32
439.70	5643.03
439.89	5860.70
440.08	5872.40
440.26	5872.40
440.45	5844.32
440.63	6097.10
440.82	6146.25
441.01	6024.54
441.19	6471.58
441.38	6317.11
441.57	6356.90
441.75	6485.62
441.94	6413.07
442.12	6469.24
442.31	6614.35
442.50	6593.29
442.68	6471.58
442.87	6651.80
443.05	6722.02
443.24	6693.93
443.43	6614.35
443.61	6635.42
443.80	6897.56
443.98	6509.03
444.17	6558.18
444.35	6855.43
444.54	6696.27
444.73	6846.07
444.91	6626.06
445.10	6834.36
445.28	6682.23
445.47	6516.05
445.65	6733.72
445.84	6703.29
446.02	6909.26
446.21	6817.98
446.39	6876.49
446.58	7014.59
446.77	7045.01
446.95	6895.22
447.14	6843.73
447.32	7208.85
447.51	6904.58
447.69	6862.45
447.88	6775.85
448.06	7040.33
448.25	6906.92
448.43	7007.56
448.62	7042.67
448.80	6988.84
448.99	6871.81
449.17	7227.57
449.36	7229.91
449.54	7166.72
449.73	7349.28
449.91	7440.56
450.10	7358.64
450.28	7492.05
450.46	7269.70
450.65	7417.16
450.83	7688.66
451.02	7417.16
451.20	7442.90
451.39	7627.81
451.57	7454.61
451.76	7433.54
451.94	7452.27
452.13	7552.91
452.31	7489.71
452.49	7304.81
452.68	7454.61
452.86	7470.99
453.05	7466.31
453.23	7634.83
453.42	7536.52
453.60	7478.01
453.78	7805.69
453.97	7808.03
454.15	7805.69
454.34	7714.41
454.52	7815.05
454.70	7749.51
454.89	7768.24
455.07	7838.45
455.26	7843.14
455.44	8063.15
455.62	7836.11
455.81	8163.79
455.99	8063.15
456.17	8177.83
456.36	7999.95
456.54	8177.83
456.73	8285.50
456.91	8519.55
457.09	8589.77
457.28	8505.51
457.46	8351.03
457.64	8573.38
457.83	8362.73
458.01	8355.71
458.19	8374.44
458.38	8388.48
458.56	8561.68
458.74	8505.51
458.93	8564.02
459.11	8716.16
459.29	8554.66
459.48	8671.68
459.66	8578.06
459.84	8769.99
460.03	8606.15
460.21	8758.28
460.39	8798.07
460.57	8769.99
460.76	8837.86
460.94	8947.87
461.12	8933.82
461.31	9158.52
461.49	8802.75
461.67	9064.89
461.85	9263.84
462.04	9142.13
462.22	9568.11
462.40	9252.14
462.59	9247.46
462.77	9146.81
462.95	9277.88
463.13	9221.71
463.32	9497.89
463.50	9338.74
463.68	9387.89
463.86	9441.72
464.05	9181.92
464.23	9476.83
464.41	9343.42
464.59	9202.99
464.78	9376.19
464.96	9544.70
465.14	9399.59
465.32	9493.21
465.50	9596.20
465.69	9696.84
465.87	9591.52
466.05	9490.87
466.23	9666.41
466.41	9600.88
466.60	9760.03
466.78	9495.55
466.96	9774.08
467.14	9453.42
467.32	9582.15
467.51	10003.45
467.69	9551.73
467.87	9575.13
468.05	9818.55
468.23	9760.03
468.41	9659.39
468.60	9895.78
468.78	9867.70
468.96	9640.67
469.14	10132.18
469.32	10169.63
469.50	9680.46
469.69	10169.63
469.87	10183.67
470.05	10197.71
470.23	10054.94
470.41	10253.89
470.59	10214.10
470.77	10214.10
470.95	10216.44
471.14	10455.17
471.32	10321.76
471.50	10757.10
471.68	10623.69
471.86	10724.33
472.04	10993.50
472.22	10913.92
472.40	10677.52
472.58	10745.40
472.77	11023.92
472.95	10801.57
473.13	11164.36
473.31	10902.22
473.49	10707.95
473.67	10911.58
473.85	11178.40
474.03	11513.10
474.21	11398.41
474.39	11492.03
474.57	11410.11
474.75	11492.03
474.93	11646.51
475.12	11389.05
475.30	11676.93
475.48	11777.58
475.66	11651.19
475.84	11620.76
476.02	11707.36
476.20	11688.64
476.38	11908.65
476.56	12051.42
476.74	12320.58
476.92	12446.97
477.10	12119.29
477.28	12472.71
477.46	12554.63
477.64	12711.45
477.82	12912.74
478.00	13071.89
478.18	12929.12
478.36	13240.41
478.54	13212.32
478.72	13355.10
478.90	13324.67
479.08	13317.65
479.26	13490.85
479.44	13355.10
479.62	13743.63
479.80	13570.43
479.98	14024.49
480.16	14087.68
480.34	13820.86
480.52	14265.57
480.70	14115.77
480.88	14092.37
481.06	14225.78
481.24	14307.69
481.41	14738.35
481.59	14906.87
481.77	14775.80
481.95	14752.40
482.13	15178.37
482.31	15002.83
482.49	15131.56
482.67	15372.64
482.85	15374.98
483.03	15648.82
483.21	15885.22
483.39	15847.77
483.57	15896.92
483.74	16130.97
483.92	15934.37
484.10	16308.85
484.28	16594.40
484.46	16788.66
484.64	16800.37
484.82	16538.23
485.00	16620.14
485.18	17057.82
485.35	17212.30
485.53	16695.04
485.71	16718.45
485.89	17245.07
486.07	16926.75
486.25	17221.66
486.43	17153.79
486.61	17645.30
486.78	17600.83
486.96	18031.49
487.14	18412.99
487.32	18436.40
487.50	18630.66
487.68	18719.60
487.85	19185.37
488.03	19379.64
488.21	19187.71
488.39	19105.79
488.57	19208.78
488.75	19768.16
488.92	19489.64
489.10	19913.28
489.28	19974.13
489.46	20231.59
489.64	20388.41
489.81	20741.83
489.99	20648.21
490.17	21074.18
490.35	21041.42
490.53	21270.79
490.70	21242.70
490.88	21212.28
491.06	21577.40
491.24	21259.09
491.41	21638.25
491.59	21525.91
491.77	21586.76
491.95	22136.79
492.13	22141.47
492.30	22586.17
492.48	22567.45
492.66	22370.84
492.84	22707.88
493.01	22977.04
493.19	22820.22
493.37	23325.78
493.54	23206.41
493.72	23597.28
493.90	23566.85
494.08	23927.30
494.25	24072.41
494.43	24088.79
494.61	24379.02
494.79	24191.78
494.96	24049.00
495.14	24315.83
495.32	24308.80
495.49	24226.89
495.67	24540.52
495.85	24631.80
496.02	24954.79
496.20	25198.21
496.38	25378.43
496.55	25516.52
496.73	25783.34
496.91	25488.43
497.09	25830.15
497.26	26272.51
497.44	26026.76
497.62	26178.89
497.79	26108.68
497.97	26005.69
498.14	26328.69
498.32	26370.82
498.50	26544.02
498.67	26721.90
498.85	26707.85
499.03	27201.71
499.20	27143.19
499.38	27601.94
499.56	27161.92
499.73	27513.00
499.91	27454.48
500.08	27683.86
500.26	27445.12
500.44	27400.65
500.61	27672.15
500.79	27756.41
500.97	27733.01
501.14	27957.70
501.32	27936.63
501.49	28315.80
501.67	28177.71
501.84	28140.26
502.02	28327.50
502.20	28615.39
502.37	28762.84
502.55	28465.60
502.72	29078.82
502.90	29095.20
503.07	28898.59
503.25	28861.15
503.43	28940.72
503.60	29060.09
503.78	28879.87
503.95	29184.14
504.13	29408.83
504.30	29535.22
504.48	29537.56
504.65	29680.33
504.83	29909.71
505.01	30211.64
505.18	30249.08
505.36	30387.18
505.53	30487.82
505.71	30499.52
505.88	30780.39
506.06	30625.91
506.23	30876.35
506.41	30586.12
506.58	30764.00
506.76	30710.17
506.93	31271.90
507.11	31180.62
507.28	31101.04
507.46	30878.69
507.63	31218.07
507.81	31131.47
507.98	31136.15
508.16	31321.05
508.33	31737.66
508.50	31583.19
508.68	31796.18
508.85	32238.54
509.03	31850.01
509.20	32273.65
509.38	32107.47
509.55	31955.33
509.73	32114.49
509.90	32191.73
510.08	32217.47
510.25	32533.45
510.42	32706.65
510.60	33111.56
510.77	32982.83
510.95	32931.34
511.12	32503.02
511.30	33134.96
511.47	33156.03
511.64	33177.09
511.82	33947.13
511.99	33429.87
512.17	33291.78
512.34	33167.73
512.51	33390.08
512.69	34197.57
512.86	33954.15
513.04	34183.52
513.21	33647.54
513.38	33846.49
513.56	33862.87
513.73	33537.54
513.90	34244.38
514.08	34171.82
514.25	34213.95
514.43	34185.86
514.60	34206.93
514.77	34494.82
514.95	34689.08
515.12	34850.58
515.29	34969.94
515.47	34899.73
515.64	35431.03
515.81	34834.19
515.99	35131.44
516.16	34387.15
516.33	34417.58
516.51	35171.23
516.68	34160.12
516.85	34417.58
517.03	34623.54
517.20	34710.14
517.37	35122.08
517.54	35484.86
517.72	35241.45
517.89	34969.94
518.06	35365.49
518.24	35267.19
518.41	35393.58
518.58	35503.59
518.75	35779.77
518.93	35859.35
519.10	36301.71
519.27	36222.13
519.45	36205.75
519.62	36563.85
519.79	36624.70
519.96	36486.61
520.14	36315.75
520.31	36669.17
520.48	36917.27
520.65	36385.97
520.83	37336.23
521.00	37074.09
521.17	37050.68
521.34	36823.65
521.52	37242.60
521.69	37661.56
521.86	37656.88
522.03	37500.06
522.20	37106.85
522.38	37780.93
522.55	37514.11
522.72	37301.12
522.89	37612.41
523.07	37825.40
523.24	37731.78
523.41	38307.55
523.58	37848.80
523.75	38436.28
523.92	38443.30
524.10	38557.99
524.27	38438.62
524.44	38635.22
524.61	38424.57
524.78	38885.66
524.96	38808.42
525.13	38869.28
525.30	38857.57
525.47	39438.03
525.64	39185.25
525.81	38990.98
525.98	38323.93
526.16	38429.26
526.33	38733.53
526.50	38312.23
526.67	38845.87
526.84	38569.69
527.01	38469.04
527.18	38934.81
527.36	39599.52
527.53	39416.96
527.70	39590.16
527.87	40079.33
528.04	39622.93
528.21	39573.78
528.38	39875.71
528.55	40006.78
528.72	40102.74
528.89	40226.79
529.07	40198.70
529.24	39798.47
529.41	40467.86
529.58	39885.07
529.75	40128.48
529.92	40369.56
530.09	40271.26
530.26	40924.27
530.43	40790.86
530.60	40449.14
530.77	40348.50
530.94	40781.49
531.11	40753.41
531.28	40568.51
531.46	40978.10
531.63	40957.03
531.80	40917.25
531.97	40582.55
532.14	40652.76
532.31	40582.55
532.48	40570.85
532.65	40610.64
532.82	40753.41
532.99	40928.95
533.16	40737.02
533.33	41050.66
533.50	41544.51
533.67	41268.33
533.84	40912.56
534.01	41696.64
534.18	41347.90
534.35	41876.86
534.52	41345.56
534.69	41626.43
534.86	41720.05
535.03	41940.06
535.20	41764.52
535.37	42263.05
535.54	42199.86
535.71	41865.16
535.88	41848.78
536.05	41951.76
536.22	42120.28
536.38	42040.70
536.55	42225.60
536.72	42057.09
536.89	41876.86
537.06	42092.19
537.23	42223.26
537.40	42281.78
537.57	42279.44
537.74	42438.59
537.91	42677.33
538.08	42759.25
538.25	42408.17
538.42	42415.19
538.59	42714.78
538.75	42089.85
538.92	42178.79
539.09	42700.73
539.26	42895.00
539.43	42234.97
539.60	42726.48
539.77	42567.32
539.94	42808.40
540.11	42422.21
540.28	42628.18
540.44	42691.37
540.61	42770.95
540.78	42492.43
540.95	42897.34
541.12	42920.74
541.29	42787.33
541.46	42705.41
541.62	43145.44
541.79	43281.19
541.96	42726.48
542.13	43140.75
542.30	42902.02
542.47	43206.29
542.63	43358.42
542.80	43449.70
542.97	43356.08
543.14	43871.00
543.31	43632.27
543.48	44151.87
543.64	44617.63
543.81	44437.41
543.98	44123.78
544.15	43833.55
544.32	44425.71
544.48	44091.01
544.65	44552.10
544.82	44151.87
544.99	44044.20
545.16	44009.09
545.32	44362.51
545.49	44619.97
545.66	44659.76
545.83	44261.87
546.00	45067.02
546.16	44142.50
546.33	44088.67
546.50	44259.53
546.67	44804.88
546.83	44439.75
547.00	44339.11
547.17	44339.11
547.34	44348.47
547.50	44589.55
547.67	44708.91
547.84	44793.17
548.00	44933.60
548.17	44959.35
548.34	45062.33
548.51	45361.92
548.67	45071.70
548.84	45406.39
549.01	45008.50
549.18	45036.59
549.34	44825.94
549.51	44804.88
549.68	44861.05
549.84	45326.81
550.01	45235.53
550.18	45205.11
550.34	45170.00
550.51	45137.23
550.68	44910.20
550.84	45139.57
551.01	45272.98
551.18	45272.98
551.34	45251.92
551.51	45385.33
551.68	45551.51
551.84	45544.48
552.01	45179.36
552.18	45312.77
552.34	45268.30
552.51	45572.57
552.68	45275.32
552.84	46007.91
553.01	46089.83
553.18	45640.45
553.34	45972.80
553.51	45415.76
553.67	45425.12
553.84	45614.70
554.01	46012.59
554.17	46244.30
554.34	46059.40
554.51	46354.31
554.67	46052.38
554.84	46106.21
555.00	46206.86
555.17	45841.73
555.33	46234.94
555.50	46078.13
555.67	46075.79
555.83	46014.93
556.00	46099.19
556.16	46358.99
556.33	46298.14
556.50	46185.79
556.66	46396.44
556.83	46071.10
556.99	46483.04
557.16	46389.42
557.32	46450.27
557.49	46082.81
557.65	45956.42
557.82	46293.46
557.98	46227.92
558.15	46206.86
558.32	46609.43
558.48	45874.50
558.65	45949.40
558.81	46103.87
558.98	46171.75
559.14	46382.40
559.31	46302.82
559.47	46801.35
559.64	46550.91
559.80	46740.50
559.97	46539.21
560.13	46714.75
560.30	46511.13
560.46	46618.79
560.63	46539.21
560.79	46614.11
560.96	46649.22
561.12	46672.62
561.29	46450.27
561.45	46728.80
561.61	46967.53
561.78	46752.20
561.94	46094.51
562.11	46937.10
562.27	46990.94
562.44	46721.77
562.60	46637.51
562.77	47129.03
562.93	46937.10
563.10	46904.34
563.26	46642.20
563.42	46906.68
563.59	46621.13
563.75	46958.17
563.92	47182.86
564.08	47208.61
564.24	47264.78
564.41	46859.87
564.57	47227.33
564.74	47138.39
564.90	47065.83
565.07	47264.78
565.23	46703.05
565.39	46918.38
565.56	47157.11
565.72	46885.61
565.88	47061.15
566.05	46962.85
566.21	47105.62
566.38	46707.73
566.54	46749.86
566.70	47358.40
566.87	47496.49
567.03	47241.37
567.19	47407.55
567.36	47124.35
567.52	46946.47
567.68	47316.27
567.85	47234.35
568.01	47189.88
568.17	46878.59
568.34	47405.21
568.50	47536.28
568.66	46997.96
568.83	47442.66
568.99	46841.14
569.15	47068.17
569.32	47203.92
569.48	47037.75
569.64	47241.37
569.81	47452.02
569.97	47171.16
570.13	47021.36
570.30	47161.79
570.46	46721.77
570.62	46703.05
570.78	46916.04
570.95	46761.56
571.11	47138.39
571.27	47594.79
571.43	47026.04
571.60	47295.21
571.76	47217.97
571.92	47054.13
572.09	47058.81
572.25	47154.77
572.41	47512.88
572.57	47063.49
572.74	47566.71
572.90	47201.58
573.06	47545.64
573.22	47725.86
573.38	47283.50
573.55	47070.51
573.71	47213.29
573.87	47435.64
574.03	47452.02
574.20	47203.92
574.36	47049.45
574.52	47587.77
574.68	47285.84
574.84	47306.91
575.01	47648.63
575.17	47009.66
575.33	47414.57
575.49	47442.66
575.65	47892.04
575.82	47426.28
575.98	47255.42
576.14	47381.80
576.30	47295.21
576.46	47166.48
576.62	47234.35
576.79	47147.75
576.95	46960.51
577.11	46988.60
577.27	47351.38
577.43	47449.68
577.59	46747.52
577.75	47063.49
577.92	47044.77
578.08	47044.77
578.24	47035.41
578.40	46836.46
578.56	47290.52
578.72	47255.42
578.88	47526.92
579.04	47323.29
579.21	47178.18
579.37	47615.86
579.53	47232.01
579.69	47140.73
579.85	47246.05
580.01	47342.02
580.17	47007.32
580.33	48027.79
580.49	47583.09
580.65	47442.66
580.82	47327.97
580.98	47512.88
581.14	47079.88
581.30	47480.11
581.46	47445.00
581.62	47817.14
581.78	47562.03
581.94	47917.79
582.10	47290.52
582.26	47730.54
582.42	47576.07
582.58	47365.42
582.74	47356.06
582.90	47683.73
583.06	47861.61
583.22	47470.75
583.38	47793.74
583.54	47327.97
583.70	47367.76
583.86	47353.72
584.02	47180.52
584.18	47931.83
584.34	47430.96
584.50	47606.50
584.66	47292.86
584.82	47428.62
584.98	47592.45
585.14	47452.02
585.30	47292.86
585.46	47330.31
585.62	46717.09
585.78	47021.36
585.94	46754.54
586.10	47377.12
586.26	47159.45
586.42	47611.18
586.58	47524.58
586.74	47555.00
586.90	47510.53
587.06	47407.55
587.22	47578.41
587.38	47222.65
587.54	47613.52
587.70	47442.66
587.86	47426.28
588.02	47365.42
588.18	47648.63
588.34	47313.93
588.49	47215.63
588.65	46534.53
588.81	46979.23
588.97	47105.62
589.13	47033.07
589.29	47002.64
589.45	46869.23
589.61	47423.93
589.77	47758.63
589.93	47632.24
590.08	47723.52
590.24	47854.59
590.40	47442.66
590.56	47856.93
590.72	47452.02
590.88	47580.75
591.04	47625.22
591.20	47966.94
591.35	47491.81
591.51	47868.64
591.67	47491.81
591.83	47107.96
591.99	47452.02
592.15	47461.38
592.31	47824.17
592.46	47711.82
592.62	47400.53
592.78	47716.50
592.94	47512.88
593.10	47327.97
593.26	47646.29
593.41	47592.45
593.57	47407.55
593.73	47302.23
593.89	47868.64
594.05	47632.24
594.20	47585.43
594.36	47578.41
594.52	47477.77
594.68	47515.22
594.84	47395.85
594.99	47903.74
595.15	47447.34
595.31	47840.55
595.47	47819.49
595.62	47833.53
595.78	47892.04
595.94	47988.00
596.10	48289.93
596.25	47854.59
596.41	47615.86
596.57	47674.37
596.73	48151.84
596.88	47543.30
597.04	47576.07
597.20	47426.28
597.36	47856.93
597.51	48086.31
597.67	47627.56
597.83	47482.45
597.99	47779.70
598.14	47648.63
598.30	47391.17
598.46	47480.11
598.61	47463.72
598.77	47437.98
598.93	47613.52
599.09	47870.98
599.24	48037.16
599.40	47653.31
599.56	47852.25
599.71	47669.69
599.87	48093.33
600.03	47405.21
600.18	47901.40
600.34	47421.59
600.50	47370.10
600.65	47426.28
600.81	47655.65
600.97	47854.59
601.12	47875.66
601.28	47569.05
601.44	47526.92
601.59	47800.76
601.75	47583.09
601.91	47381.80
602.06	47206.26
602.22	47789.06
602.37	47496.49
602.53	47779.70
602.69	48018.43
602.84	47480.11
603.00	47770.33
603.16	47503.51
603.31	47552.66
603.47	47304.57
603.62	47309.25
603.78	47489.47
603.94	47711.82
604.09	47840.55
604.25	47461.38
604.40	47826.51
604.56	47625.22
604.71	47356.06
604.87	47665.01
605.03	47555.00
605.18	47353.72
605.34	47512.88
605.49	47250.74
605.65	47468.40
605.80	47943.53
605.96	47585.43
606.12	47466.06
606.27	47416.91
606.43	47435.64
606.58	47641.60
606.74	47178.18
606.89	47477.77
607.05	47594.79
607.20	47732.89
607.36	47639.26
607.51	47735.23
607.67	47140.73
607.82	47276.48
607.98	47330.31
608.13	47147.75
608.29	47180.52
608.44	47117.32
608.60	46658.58
608.75	46824.76
608.91	46916.04
609.06	47332.65
609.22	47707.14
609.37	47065.83
609.53	47349.04
609.68	46850.50
609.84	46981.57
609.99	46710.07
610.15	46864.55
610.30	47033.07
610.46	46679.64
610.61	47000.30
610.76	47122.01
610.92	47047.11
611.07	46880.93
611.23	46979.23
611.38	46897.31
611.54	46719.43
611.69	46789.65
611.84	46686.67
612.00	46883.27
612.15	46564.96
612.31	46536.87
612.46	46689.01
612.62	47082.22
612.77	46990.94
612.92	47393.51
613.08	46962.85
613.23	46742.84
613.39	46443.25
613.54	46272.39
613.69	46602.41
613.85	46681.98
614.00	46724.11
614.15	47061.15
614.31	46515.81
614.46	46742.84
614.62	46499.42
614.77	46293.46
614.92	46445.59
615.08	46115.58
615.23	46333.24
615.38	46057.06
615.54	46532.19
615.69	46000.89
615.84	45724.71
616.00	46202.18
616.15	45949.40
616.30	46234.94
616.46	45935.35
616.61	46157.70
616.76	45937.69
616.92	45766.84
617.07	46216.22
617.22	45404.05
617.37	46040.68
617.53	46366.01
617.68	46244.30
617.83	46279.41
617.99	46281.75
618.14	45598.32
618.29	45741.09
618.45	46094.51
618.60	45713.00
618.75	45944.72
618.90	46174.09
619.06	46036.00
619.21	45420.44
619.36	45860.46
619.51	45743.43
619.67	45612.36
619.82	45897.91
619.97	45982.16
620.12	45652.15
620.28	44823.60
620.43	45621.72
620.58	45572.57
620.73	45752.79
620.89	45485.97
621.04	45392.35
621.19	45387.67
621.34	45263.62
621.49	45392.35
621.65	44921.90
621.80	45612.36
621.95	45092.76
622.10	44837.64
622.25	45305.75
622.41	45113.83
622.56	44617.63
622.71	45291.71
622.86	45083.40
623.01	45141.91
623.16	45401.71
623.32	45069.36
623.47	45139.57
623.62	45177.02
623.77	45099.78
623.92	45036.59
624.07	44811.90
624.23	44776.79
624.38	44437.41
624.53	44591.89
624.68	45052.97
624.83	44720.62
624.98	45233.19
625.13	44641.04
625.29	44617.63
625.44	44818.92
625.59	44655.08
625.74	44566.14
625.89	44264.21
626.04	44186.97
626.19	44364.85
626.34	44355.49
626.49	44687.85
626.65	44582.52
626.80	44519.33
626.95	44556.78
627.10	44643.38
627.25	44041.86
627.40	44186.97
627.55	44018.46
627.70	43505.88
627.85	43772.70
628.00	43688.44
628.15	44458.48
628.30	43887.39
628.45	43648.65
628.60	43861.64
628.76	44130.80
628.91	44168.25
629.06	43503.54
629.21	43632.27
629.36	43725.89
629.51	43484.81
629.66	43524.60
629.81	43498.86
629.96	44058.24
630.11	43878.02
630.26	43969.30
630.41	43725.89
630.56	43660.35
630.71	43107.99
630.86	43330.34
631.01	43571.41
631.16	43316.29
631.31	42731.16
631.46	43014.37
631.61	43065.86
631.76	43421.62
631.91	43529.28
632.06	43442.68
632.21	43667.37
632.36	43732.91
632.51	43405.23
632.66	43178.20
632.81	43356.08
632.96	43161.82
633.10	42684.35
633.25	42962.87
633.40	42513.49
633.55	43157.14
633.70	43061.18
633.85	42815.42
634.00	43400.55
634.15	42845.85
634.30	42866.91
634.45	42749.88
634.60	42738.18
634.75	42871.59
634.90	42782.65
635.05	42824.78
635.19	42967.55
635.34	43311.61
635.49	42909.04
635.64	42656.26
635.79	42270.08
635.94	42410.51
636.09	42504.13
636.24	42525.19
636.39	42532.22
636.53	41993.89
636.68	42389.44
636.83	42515.83
636.98	42476.04
637.13	42017.30
637.28	42422.21
637.43	42635.20
637.57	42391.78
637.72	42569.66
637.87	42454.98
638.02	42557.96
638.17	42298.16
638.32	42043.04
638.46	42244.33
638.61	42127.30
638.76	41626.43
638.91	42497.11
639.06	42223.26
639.20	42342.63
639.35	41991.55
639.50	41914.31
639.65	41769.20
639.80	41949.42
639.94	41715.37
640.09	41778.56
640.24	41832.39
640.39	41684.94
640.54	41659.20
640.68	41567.91
640.83	42178.79
640.98	41418.12
641.13	41841.76
641.27	41923.68
641.42	41818.35
641.57	41832.39
641.72	41867.50
641.86	41326.84
642.01	41493.02
642.16	41427.48
642.31	41357.27
642.45	41420.46
642.60	41111.51
642.75	40931.29
642.90	41581.96
643.04	41361.95
643.19	41226.20
643.34	41221.52
643.48	41041.29
643.63	41230.88
643.78	41027.25
643.93	40652.76
644.07	41097.47
644.22	40877.46
644.37	40877.46
644.51	40882.14
644.66	40861.07
644.81	41375.99
644.95	41003.85
645.10	40821.28
645.25	41258.96
645.39	41141.94
645.54	40889.16
645.69	40903.20
645.83	40638.72
645.98	40950.01
646.13	40673.83
646.27	40605.95
646.42	40840.01
646.57	40556.80
646.71	40699.58
646.86	40620.00
647.00	40432.75
647.15	40360.20
647.30	40868.09
647.44	40727.66
647.59	40278.28
647.74	40163.59
647.88	40442.12
648.03	40439.78
648.17	40507.65
648.32	39761.02
648.47	40062.95
648.61	39976.35
648.76	40488.93
648.90	40664.47
649.05	39856.98
649.20	39910.82
649.34	40208.06
649.49	39564.42
649.63	39674.42
649.78	40051.25
649.92	39800.81
650.07	40215.08
650.21	39896.77
650.36	39917.84
650.51	39915.50
650.65	40467.86
650.80	40121.46
650.94	40297.00
651.09	40027.84
651.23	39882.73
651.38	39871.03
651.52	39732.93
651.67	39674.42
651.81	39807.83
651.96	39688.46
652.10	39419.30
652.25	39489.52
652.39	39601.86
652.54	39938.90
652.68	39573.78
652.83	39707.19
652.97	39782.09
653.12	39484.84
653.26	39583.14
653.41	39805.49
653.55	39484.84
653.70	39655.70
653.84	39636.97
653.99	39704.85
654.13	39218.02
654.27	39466.11
654.42	39236.74
654.56	39433.35
654.71	39117.37
654.85	39545.69
655.00	39356.11
655.14	39133.76
655.29	38986.30
655.43	39002.69
655.57	38651.61
655.72	38532.24
655.86	38543.94
656.01	37970.51
656.15	38452.66
656.30	38293.50
656.44	38321.59
656.58	38293.50
656.73	38209.25
656.87	38492.45
657.01	38366.06
657.16	38190.52
657.30	38024.34
657.45	38014.98
657.59	38293.50
657.73	38447.98
657.88	38401.17
658.02	38356.70
658.16	38590.75
658.31	38824.81
658.45	38799.06
658.60	38740.55
658.74	38628.20
658.88	38501.81
659.03	38113.28
659.17	38101.58
659.31	38352.02
659.46	37996.26
659.60	38003.28
659.74	37727.10
659.89	37647.52
660.03	37846.46
660.17	37799.65
660.32	38141.37
660.46	38045.41
660.60	37593.68
660.74	37991.58
660.89	37516.45
661.03	37273.03
661.17	37579.64
661.32	37083.45
661.46	37322.18
661.60	37523.47
661.74	37455.59
661.89	37450.91
662.03	36914.93
662.17	37083.45
662.31	37205.16
662.46	37572.62
662.60	37233.24
662.74	36900.89
662.88	37092.81
663.03	36851.73
663.17	36381.29
663.31	36367.24
663.45	36739.39
663.60	36945.36
663.74	36828.33
663.88	36554.49
664.02	36224.47
664.17	36495.97
664.31	36135.53
664.45	36341.50
664.59	36273.62
664.73	36542.78
664.88	36154.26
665.02	36187.02
665.16	36437.46
665.30	36271.28
665.44	36123.83
665.59	36275.96
665.73	36023.19
665.87	35435.71
666.01	36247.88
666.15	35873.39
666.29	35777.43
666.44	35842.96
666.58	35786.79
666.72	35421.67
666.86	35512.95
667.00	35793.81
667.14	35515.29
667.28	35353.79
667.43	35110.38
667.57	34792.06
667.71	35346.77
667.85	35318.68
667.99	34527.58
668.13	34754.61
668.27	35243.79
668.41	35089.31
668.56	34590.78
668.70	34885.68
668.84	34862.28
668.98	34618.86
669.12	34703.12
669.26	34632.91
669.40	34419.92
669.54	34256.08
669.68	34352.04
669.82	34003.30
669.96	34347.36
670.10	33790.31
670.25	34073.52
670.39	34171.82
670.53	34185.86
670.67	33851.17
670.81	34178.84
670.95	34176.50
671.09	34270.12
671.23	34094.58
671.37	33989.26
671.51	33556.26
671.65	33696.69
671.79	33584.35
671.93	33654.56
672.07	33383.06
672.21	33448.60
672.35	33251.99
672.49	33310.50
672.63	33497.75
672.77	33439.23
672.91	33010.92
673.05	32657.49
673.19	32893.89
673.33	32826.01
673.47	32921.98
673.61	32650.47
673.75	32329.82
673.89	32573.24
674.03	32294.71
674.17	31873.42
674.31	32203.43
674.45	32231.52
674.59	32428.12
674.73	32716.01
674.87	32332.16
675.01	31835.97
675.15	32416.42
675.29	31866.39
675.43	31936.61
675.56	32100.45
675.70	31999.80
675.84	31721.28
675.98	30883.37
676.12	31456.80
676.26	31171.25
676.40	31019.12
676.54	31232.11
676.68	30913.80
676.82	30424.62
676.96	31108.06
677.10	30761.66
677.23	30574.42
677.37	30635.27
677.51	30644.63
677.65	30721.87
677.79	30101.63
677.93	30492.50
678.07	30270.15
678.21	29940.13
678.34	30169.51
678.48	29858.21
678.62	29900.34
678.76	29589.05
678.90	29600.76
679.04	29500.11
679.18	29916.73
679.31	29567.99
679.45	29123.29
679.59	28638.80
679.73	29298.83
679.87	29429.90
680.00	29062.43
680.14	28957.11
680.28	28893.91
680.42	28603.69
680.56	28435.17
680.70	28287.71
680.83	28519.43
680.97	28224.52
681.11	28161.33
681.25	28067.70
681.39	27906.21
681.52	28194.09
681.66	27946.00
681.80	28074.73
681.94	27449.80
682.07	28084.09
682.21	27697.90
682.35	27360.86
682.49	27505.98
682.62	27264.90
682.76	26815.52
682.90	27374.91
683.04	27042.55
683.17	27262.56
683.31	26981.70
683.45	26740.62
683.59	26349.75
683.72	25860.58
683.86	26483.16
684.00	26319.32
684.13	26324.01
684.27	26443.37
684.41	26139.10
684.55	25972.92
684.68	25984.63
684.82	26047.82
684.96	25671.00
685.09	25715.47
685.23	25511.84
685.37	25516.52
685.50	25504.82
685.64	25450.99
685.78	25123.31
685.91	25642.91
686.05	25406.52
686.19	24741.80
686.32	24809.68
686.46	24409.45
686.60	24505.41
686.73	24191.78
686.87	23882.83
687.01	23896.87
687.14	23496.64
687.28	23726.01
687.42	23817.29
687.55	23501.32
687.69	23857.08
687.82	23646.43
687.96	23700.26
688.10	23714.31
688.23	23379.61
688.37	23351.52
688.50	23351.52
688.64	22871.72
688.78	23150.24
688.91	23248.54
689.05	22806.18
689.18	22745.33
689.32	22295.94
689.46	22787.46
689.59	22810.86
689.73	22686.81
689.86	22452.76
690.00	22209.34
690.13	22665.75
690.27	22546.38
690.41	22082.95
690.54	22071.25
690.68	22169.55
690.81	21811.45
690.95	21855.92
691.08	21521.23
691.22	21898.05
691.35	21579.74
691.49	21434.63
691.62	21654.64
691.76	21678.04
691.89	21598.46
692.03	21280.15
692.16	21057.80
692.30	20889.28
692.43	21128.02
692.57	20634.16
692.70	21018.01
692.84	20908.01
692.97	20975.88
693.11	20751.19
693.24	20514.80
693.38	20362.66
693.51	20123.93
693.65	20152.01
693.78	20067.75
693.92	20170.74
694.05	19861.79
694.19	19896.89
694.32	19957.75
694.45	19992.86
694.59	19770.51
694.72	19618.37
694.86	19784.55
694.99	19349.21
695.13	19363.25
695.26	19187.71
695.39	19021.53
695.53	18904.51
695.66	19047.28
695.80	18761.73
695.93	19030.90
696.07	18850.67
696.20	19002.81
696.33	18682.16
696.47	18773.44
696.60	18558.11
696.73	18408.31
696.87	18436.40
697.00	18417.68
697.14	18228.09
697.27	17874.67
697.40	17968.29
697.54	18345.12
697.67	17970.63
697.80	17759.98
697.94	17678.07
698.07	17748.28
698.21	17184.21
698.34	17661.68
698.47	17497.84
698.61	17460.40
698.74	17301.24
698.87	17324.65
699.01	17408.90
699.14	16954.84
699.27	17064.85
699.40	17099.95
699.54	16718.45
699.67	16847.18
699.80	16849.52
699.94	16444.60
700.07	16741.85
700.20	16468.01
700.34	16308.85
700.47	16320.56
700.60	16217.57
700.73	16489.07
700.87	16250.34
701.00	16170.76
701.13	16037.35
701.26	16027.99
701.40	15908.62
701.53	15845.43
701.66	15887.56
701.79	15590.31
701.93	15662.86
702.06	15487.32
702.19	15225.18
702.32	15438.17
702.46	15590.31
702.59	15358.60
702.72	15372.64
702.85	15353.91
702.99	15204.12
703.12	15232.21
703.25	15028.58
703.38	14839.00
703.51	14991.13
703.65	14944.32
703.78	14930.28
703.91	14726.65
704.04	14808.57
704.17	14506.64
704.31	14523.02
704.44	14305.35
704.57	14197.69
704.70	14326.42
704.83	14249.18
704.96	14237.48
705.10	14094.71
705.23	14181.31
>>>>>End Processed Spectral Data<<<<<
