SpectraSuite Data File
++++++++++++++++++++++++++++++++++++
Date: Fri Oct 25 10:44:20 EDT 2013
User: price-jones
Dark Spectrum Present: No
Reference Spectrum Present: No
Number of Sampled Component Spectra: 1
Spectrometers: USB2+H05261
Integration Time (usec): 100000 (USB2+H05261)
Spectra Averaged: 1 (USB2+H05261)
Boxcar Smoothing: 0 (USB2+H05261)
Correct for Electrical Dark: No (USB2+H05261)
Strobe/Lamp Enabled: No (USB2+H05261)
Correct for Detector Non-linearity: No (USB2+H05261)
Correct for Stray Light: No (USB2+H05261)
Number of Pixels in Processed Spectrum: 2048
>>>>>Begin Processed Spectral Data<<<<<
365.73	88.94
365.92	88.94
366.12	88.94
366.32	18.72
366.52	16.38
366.72	23.41
366.91	9.36
367.11	30.43
367.31	0.00
367.51	37.45
367.70	0.00
367.90	53.83
368.10	58.51
368.30	0.00
368.49	0.00
368.69	0.00
368.89	0.00
369.09	0.00
369.28	11.70
369.48	35.11
369.68	0.00
369.87	145.11
370.07	119.37
370.27	156.82
370.47	91.28
370.66	386.19
370.86	447.04
371.06	496.19
371.25	482.15
371.45	458.74
371.65	491.51
371.84	465.77
372.04	437.68
372.24	451.72
372.44	458.74
372.63	524.28
372.83	472.79
373.03	547.69
373.22	458.74
373.42	528.96
373.62	540.66
373.81	543.00
374.01	575.77
374.21	564.07
374.40	582.79
374.60	683.44
374.79	608.54
374.99	592.16
375.19	622.58
375.38	561.73
375.58	587.47
375.78	592.16
375.97	601.52
376.17	695.14
376.37	622.58
376.56	645.99
376.76	580.45
376.95	566.41
377.15	603.86
377.35	702.16
377.54	697.48
377.74	688.12
377.93	606.20
378.13	671.73
378.33	709.18
378.52	716.20
378.72	674.07
378.91	613.22
379.11	706.84
379.31	641.31
379.50	580.45
379.70	683.44
379.89	713.86
380.09	669.39
380.28	734.93
380.48	772.38
380.68	676.41
380.87	674.07
381.07	692.80
381.26	716.20
381.46	702.16
381.65	695.14
381.85	631.94
382.04	760.67
382.24	739.61
382.43	744.29
382.63	758.33
382.83	702.16
383.02	802.80
383.22	873.02
383.41	739.61
383.61	718.54
383.80	802.80
384.00	781.74
384.19	814.51
384.39	809.83
384.58	791.10
384.78	835.57
384.97	910.47
385.17	840.25
385.36	748.97
385.56	802.80
385.75	856.64
385.95	814.51
386.14	896.43
386.34	861.32
386.53	833.23
386.72	805.14
386.92	905.79
387.11	931.53
387.31	849.61
387.50	760.67
387.70	821.53
387.89	835.57
388.09	901.11
388.28	968.98
388.48	830.89
388.67	954.94
388.86	894.08
389.06	929.19
389.25	1004.09
389.45	957.28
389.64	983.02
389.84	1048.56
390.03	1020.47
390.22	1083.67
390.42	1034.52
390.61	964.30
390.81	1057.92
391.00	1116.44
391.19	1114.10
391.39	1071.97
391.58	1067.28
391.78	1095.37
391.97	1137.50
392.16	1046.22
392.36	1034.52
392.55	1050.90
392.75	1062.60
392.94	1036.86
393.13	1043.88
393.33	1067.28
393.52	1034.52
393.71	1128.14
393.91	1191.33
394.10	1118.78
394.29	1053.24
394.49	1137.50
394.68	1252.19
394.88	1228.78
395.07	1299.00
395.26	1291.98
395.46	1273.25
395.65	1270.91
395.84	1219.42
396.04	1268.57
396.23	1226.44
396.42	1123.46
396.62	1240.48
396.81	1245.16
397.00	1142.18
397.19	1355.17
397.39	1275.59
397.58	1455.81
397.77	1448.79
397.97	1526.03
398.16	1507.30
398.35	1519.01
398.55	1572.84
398.74	1519.01
398.93	1652.42
399.12	1476.88
399.32	1561.14
399.51	1568.16
399.70	1624.33
399.90	1598.59
400.09	1640.72
400.28	1771.79
400.47	1757.74
400.67	1830.30
400.86	1664.12
401.05	1701.57
401.24	1710.93
401.44	1781.15
401.63	1811.57
401.82	1748.38
402.01	1699.23
402.21	1820.94
402.40	1961.37
402.59	1806.89
402.78	1778.81
402.97	1739.02
403.17	1895.83
403.36	1867.75
403.55	1975.41
403.74	1893.49
403.93	2022.22
404.13	1888.81
404.32	1930.94
404.51	1923.92
404.70	1884.13
404.89	1989.46
405.09	2031.58
405.28	2071.37
405.47	1942.64
405.66	1984.77
405.85	2010.52
406.05	2108.82
406.24	2073.71
406.43	2115.84
406.62	2157.97
406.81	2179.04
407.00	2047.97
407.20	2162.66
407.39	2090.10
407.58	2204.78
407.77	2211.81
407.96	2354.58
408.15	2340.54
408.34	2235.21
408.54	2326.49
408.73	2356.92
408.92	2310.11
409.11	2356.92
409.30	2427.14
409.49	2359.26
409.68	2420.11
409.87	2429.48
410.07	2368.62
410.26	2516.08
410.45	2502.03
410.64	2401.39
410.83	2593.31
411.02	2574.59
411.21	2630.76
411.40	2738.43
411.59	2686.94
411.78	2614.38
411.98	2719.70
412.17	2803.96
412.36	2768.85
412.55	2745.45
412.74	2860.13
412.93	2911.63
413.12	2782.90
413.31	3173.77
413.50	2953.76
413.69	2960.78
413.88	2991.20
414.07	3054.40
414.26	3077.80
414.45	3061.42
414.64	3094.19
414.83	3169.09
415.02	3159.72
415.22	3019.29
415.41	3197.17
415.60	3372.71
415.79	3269.73
415.98	3302.50
416.17	3351.65
416.36	3393.78
416.55	3251.00
416.74	3454.63
416.93	3325.90
417.12	3438.25
417.31	3485.06
417.50	3550.59
417.69	3632.51
417.88	3574.00
418.07	3447.61
418.26	3588.04
418.45	3655.92
418.64	3674.64
418.83	3674.64
419.02	3641.87
419.21	3740.18
419.39	3737.84
419.58	3616.13
419.77	3742.52
419.96	3798.69
420.15	3936.78
420.34	3831.46
420.53	3981.25
420.72	4039.76
420.91	3852.52
421.10	3927.42
421.29	3974.23
421.48	3852.52
421.67	3985.93
421.86	3985.93
422.05	4014.02
422.24	3815.07
422.43	3957.85
422.61	3868.91
422.80	4030.40
422.99	3974.23
423.18	4105.30
423.37	4035.08
423.56	3990.61
423.75	4070.19
423.94	4021.04
424.13	3714.43
424.32	3880.61
424.50	4044.45
424.69	4184.88
424.88	4407.23
425.07	4126.36
425.26	4109.98
425.45	3908.69
425.64	4051.47
425.83	4091.26
426.01	4067.85
426.20	4095.94
426.39	4203.60
426.58	4095.94
426.77	3964.87
426.96	4215.30
427.15	4039.76
427.33	4173.18
427.52	4257.43
427.71	4198.92
427.90	4236.37
428.09	4327.65
428.28	4334.67
428.46	4325.31
428.65	4238.71
428.84	4327.65
429.03	4327.65
429.22	4280.84
429.40	4276.16
429.59	4245.73
429.78	3995.29
429.97	4091.26
430.16	4168.49
430.34	4145.09
430.53	4163.81
430.72	4241.05
430.91	4325.31
431.10	4411.91
431.28	4620.22
431.47	4847.25
431.66	4755.97
431.85	4641.28
432.03	4828.53
432.22	4802.78
432.41	4873.00
432.60	4950.23
432.79	4980.66
432.97	5018.11
433.16	5013.43
433.35	4681.07
433.54	4966.62
433.72	4812.14
433.91	4727.88
434.10	4887.04
434.28	4816.82
434.47	4873.00
434.66	5048.54
434.85	5102.37
435.03	5224.08
435.22	4992.36
435.41	5352.81
435.59	5275.57
435.78	5228.76
435.97	5390.25
436.16	5249.82
436.34	5252.16
436.53	5371.53
436.72	5345.78
436.90	5212.37
437.09	5324.72
437.28	5219.39
437.46	5348.12
437.65	5376.21
437.84	5348.12
438.02	5212.37
438.21	5392.59
438.40	5268.55
438.58	5474.51
438.77	5528.35
438.96	5612.60
439.14	5568.13
439.33	5748.36
439.52	5930.92
439.70	5741.33
439.89	5844.32
440.08	5888.79
440.26	5884.11
440.45	5928.58
440.63	5863.04
440.82	6050.28
441.01	6122.84
441.19	6120.50
441.38	6274.98
441.57	6223.48
441.75	6377.96
441.94	6600.31
442.12	6469.24
442.31	6466.90
442.50	6595.63
442.68	6502.01
442.87	6803.94
443.05	6560.52
443.24	6619.04
443.43	6677.55
443.61	6750.10
443.80	6918.62
443.98	6670.53
444.17	6293.70
444.35	6729.04
444.54	6792.23
444.73	6834.36
444.91	6672.87
445.10	6560.52
445.28	6612.01
445.47	6684.57
445.65	6686.91
445.84	6668.19
446.02	6705.63
446.21	6867.13
446.39	6703.29
446.58	6703.29
446.77	6979.48
446.95	6771.17
447.14	6974.80
447.32	7063.74
447.51	6836.70
447.69	7042.67
447.88	6857.77
448.06	6979.48
448.25	7122.25
448.43	6986.50
448.62	6939.69
448.80	7087.14
448.99	6951.39
449.17	6904.58
449.36	7068.42
449.54	7096.50
449.73	7349.28
449.91	7272.04
450.10	7267.36
450.28	7520.14
450.46	7480.35
450.65	7515.46
450.83	7417.16
451.02	7440.56
451.20	7496.74
451.39	7398.43
451.57	7375.03
451.76	7307.15
451.94	7456.95
452.13	7475.67
452.31	7229.91
452.49	7391.41
452.68	7405.46
452.86	7339.92
453.05	7588.02
453.23	7576.31
453.42	7576.31
453.60	7562.27
453.78	7831.43
453.97	7648.87
454.15	7578.65
454.34	7590.36
454.52	7679.30
454.70	7859.52
454.89	7618.44
455.07	7761.22
455.26	7896.97
455.44	8135.70
455.62	8053.78
455.81	8074.85
455.99	8152.09
456.17	8077.19
456.36	8142.72
456.54	8109.96
456.73	8299.54
456.91	8376.78
457.09	8407.20
457.28	8538.27
457.46	8140.38
457.64	8528.91
457.83	8304.22
458.01	8102.93
458.19	8587.43
458.38	8519.55
458.56	8594.45
458.74	8519.55
458.93	8505.51
459.11	8645.94
459.29	8456.36
459.48	8652.96
459.66	8578.06
459.84	8753.60
460.03	8849.57
460.21	8760.63
460.39	8798.07
460.57	8889.35
460.76	8849.57
460.94	8936.17
461.12	8711.47
461.31	8870.63
461.49	8858.93
461.67	8828.50
461.85	9221.71
462.04	9102.34
462.22	9179.58
462.40	9114.05
462.59	9273.20
462.77	9245.12
462.95	9317.67
463.13	9235.75
463.32	9434.70
463.50	9430.02
463.68	9406.61
463.86	9413.63
464.05	9376.19
464.23	9202.99
464.41	9270.86
464.59	9053.19
464.78	9579.81
464.96	9427.68
465.14	9495.55
465.32	9657.05
465.50	9706.20
465.69	9638.33
465.87	9331.72
466.05	9614.92
466.23	9444.06
466.41	9647.69
466.60	9724.93
466.78	9455.76
466.96	9404.27
467.14	9635.99
467.32	9654.71
467.51	9547.05
467.69	9659.39
467.87	9809.19
468.05	9764.72
468.23	9551.73
468.41	9767.06
468.60	9888.76
468.78	10265.59
468.96	10076.01
469.14	10008.13
469.32	10008.13
469.50	9682.80
469.69	9951.96
469.87	10101.75
470.05	10150.90
470.23	10314.74
470.41	10090.05
470.59	10129.84
470.77	10085.37
470.95	10246.87
471.14	10413.04
471.32	10265.59
471.50	10677.52
471.68	10555.82
471.86	10796.89
472.04	10686.89
472.22	11070.73
472.40	10452.83
472.58	10733.70
472.77	10817.96
472.95	10799.23
473.13	11302.45
473.31	10956.05
473.49	10874.13
473.67	11016.90
473.85	10839.02
474.03	11384.37
474.21	11239.25
474.39	11382.03
474.57	11508.41
474.75	11585.65
474.93	11637.14
475.12	11700.34
475.30	11515.44
475.48	11630.12
475.66	11587.99
475.84	11541.18
476.02	11988.22
476.20	11908.65
476.38	11831.41
476.56	12341.64
476.74	12540.59
476.92	12360.37
477.10	12233.98
477.28	12414.20
477.46	12599.10
477.64	12449.31
477.82	12755.92
478.00	13217.01
478.18	12917.42
478.36	12863.58
478.54	13011.04
478.72	12945.50
478.90	13554.04
479.08	13420.63
479.26	13371.48
479.44	13621.92
479.62	13701.50
479.80	13797.46
479.98	13624.26
480.16	13851.29
480.34	14242.16
480.52	14295.99
480.70	14139.18
480.88	14310.04
481.06	14239.82
481.24	14614.30
481.41	14565.15
481.59	14766.44
481.77	14771.12
481.95	14918.57
482.13	15171.35
482.31	15051.99
482.49	15328.17
482.67	15494.35
482.85	15508.39
483.03	15775.21
483.21	15742.44
483.39	16112.25
483.57	15686.27
483.74	15683.93
483.92	16142.67
484.10	15932.03
484.28	16404.81
484.46	16596.74
484.64	17296.56
484.82	16409.50
485.00	17015.69
485.18	16753.55
485.35	16807.39
485.53	16676.32
485.71	16486.73
485.89	16924.41
486.07	16802.71
486.25	17256.77
486.43	17390.18
486.61	17558.70
486.78	17612.53
486.96	17640.62
487.14	18075.96
487.32	17937.87
487.50	18162.56
487.68	18572.15
487.85	18853.02
488.03	18614.28
488.21	18906.85
488.39	19143.24
488.57	19489.64
488.75	19503.68
488.92	19529.43
489.10	19922.64
489.28	20058.39
489.46	20311.17
489.64	20367.34
489.81	20812.04
489.99	20725.44
490.17	20758.21
490.35	21123.33
490.53	20692.68
490.70	21130.36
490.88	21039.08
491.06	21308.24
491.24	21432.29
491.41	21357.39
491.59	21462.71
491.77	21336.32
491.95	21846.56
492.13	22089.98
492.30	21902.73
492.48	22391.91
492.66	22611.92
492.84	22328.71
493.01	22850.65
493.19	22768.73
493.37	23023.85
493.54	23075.34
493.72	23257.90
493.90	23012.15
494.08	23461.53
494.25	23484.94
494.43	24105.18
494.61	23903.89
494.79	24135.60
494.96	24212.84
495.14	24240.93
495.32	24493.71
495.49	24418.81
495.67	24276.04
495.85	24842.45
496.02	25029.69
496.20	25345.66
496.38	25214.59
496.55	25371.41
496.73	25645.25
496.91	25340.98
497.09	26026.76
497.26	25750.57
497.44	25825.47
497.62	25848.88
497.79	25593.76
497.97	25954.20
498.14	26181.23
498.32	26085.27
498.50	26066.55
498.67	26593.17
498.85	26855.31
499.03	26747.64
499.20	27154.90
499.38	26888.07
499.56	27136.17
499.73	27009.78
499.91	27014.46
500.08	27496.61
500.26	27042.55
500.44	27747.05
500.61	27323.41
500.79	27482.57
500.97	27534.06
501.14	27901.53
501.32	27651.09
501.49	27695.56
501.67	27843.01
501.84	28231.54
502.02	28170.69
502.20	28364.95
502.37	28318.14
502.55	28339.21
502.72	28594.32
502.90	28730.08
503.07	29024.98
503.25	29020.30
503.43	28662.20
503.60	28809.65
503.78	28788.59
503.95	29106.90
504.13	29296.49
504.30	29731.83
504.48	29198.18
504.65	29628.84
504.83	29947.15
505.01	30178.87
505.18	29668.63
505.36	30286.53
505.53	30256.11
505.71	30398.88
505.88	30761.66
506.06	29965.88
506.23	30312.28
506.41	30466.75
506.58	30754.64
506.76	30843.58
506.93	30543.99
507.11	30848.26
507.28	30607.19
507.46	31054.23
507.63	31346.79
507.81	30817.83
507.98	30939.54
508.16	31157.21
508.33	31688.51
508.50	31508.29
508.68	31723.62
508.85	32395.35
509.03	31845.33
509.20	32149.60
509.38	32196.41
509.55	32020.87
509.73	31931.93
509.90	32514.72
510.08	32098.11
510.25	32245.56
510.42	31999.80
510.60	32407.06
510.77	32594.30
510.95	33057.73
511.12	32488.98
511.30	33165.39
511.47	33195.82
511.64	33170.07
511.82	33116.24
511.99	33046.02
512.17	33132.62
512.34	33399.44
512.51	33106.88
512.69	33647.54
512.86	33102.20
513.04	33659.24
513.21	33521.15
513.38	33326.89
513.56	33647.54
513.73	33266.03
513.90	33549.24
514.08	33677.97
514.25	34199.91
514.43	34106.29
514.60	33954.15
514.77	34265.44
514.95	34506.52
515.12	34129.69
515.29	34370.77
515.47	35255.49
515.64	34553.33
515.81	34403.53
515.99	34632.91
516.16	34593.12
516.33	33968.19
516.51	34143.74
516.68	34057.14
516.85	33923.72
517.03	34157.78
517.20	34682.06
517.37	34801.43
517.54	35101.01
517.72	35161.87
517.89	35035.48
518.06	35049.52
518.24	34668.02
518.41	35257.83
518.58	35559.76
518.75	35260.17
518.93	35693.17
519.10	35714.23
519.27	35637.00
519.45	36051.27
519.62	35978.72
519.79	36034.89
519.96	36290.01
520.14	36512.36
520.31	36039.57
520.48	36465.55
520.65	36315.75
520.83	36610.66
521.00	36718.32
521.17	36631.72
521.34	37008.55
521.52	36566.19
521.69	37064.72
521.86	37256.65
522.03	37071.75
522.20	37593.68
522.38	37139.62
522.55	37750.50
522.72	36961.74
522.89	37036.64
523.07	37586.66
523.24	37081.11
523.41	38007.96
523.58	37867.53
523.75	38117.96
523.92	38082.86
524.10	38176.48
524.27	37872.21
524.44	38096.90
524.61	37982.21
524.78	38316.91
524.96	38478.41
525.13	38548.62
525.30	38806.08
525.47	39037.80
525.64	38618.84
525.81	38501.81
525.98	38347.34
526.16	38094.56
526.33	38150.73
526.50	38295.85
526.67	38101.58
526.84	38174.14
527.01	38588.41
527.18	38150.73
527.36	39037.80
527.53	39229.72
527.70	39026.09
527.87	39269.51
528.04	39260.15
528.21	39391.22
528.38	39215.68
528.55	38960.56
528.72	39887.41
528.89	39957.63
529.07	39384.19
529.24	39328.02
529.41	39557.39
529.58	39821.87
529.75	39744.64
529.92	40229.13
530.09	40058.27
530.26	40091.04
530.43	40407.01
530.60	40084.01
530.77	40194.02
530.94	40634.04
531.11	40275.94
531.28	40837.67
531.46	40559.14
531.63	40507.65
531.80	40226.79
531.97	40280.62
532.14	40636.38
532.31	39847.62
532.48	40271.26
532.65	40697.24
532.82	40376.58
532.99	40622.34
533.16	40374.24
533.33	40999.16
533.50	41003.85
533.67	41202.79
533.84	40474.88
534.01	40823.62
534.18	40671.49
534.35	41038.95
534.52	41104.49
534.69	41172.36
534.86	41406.42
535.03	41645.15
535.20	41469.61
535.37	41677.92
535.54	41834.74
535.71	41963.46
535.88	41373.65
536.05	41628.77
536.22	41612.38
536.38	42171.77
536.55	42071.13
536.72	41530.47
536.89	41645.15
537.06	41825.37
537.23	41965.81
537.40	41949.42
537.57	42061.77
537.74	41961.12
537.91	42583.71
538.08	42101.56
538.25	41759.84
538.42	41982.19
538.59	42096.88
538.75	42078.15
538.92	42050.06
539.09	42572.00
539.26	42246.67
539.43	42307.52
539.60	42209.22
539.77	42351.99
539.94	42632.86
540.11	42094.53
540.28	42370.72
540.44	42366.04
540.61	42256.03
540.78	42153.05
540.95	42761.59
541.12	42005.59
541.29	42721.80
541.46	42763.93
541.62	43037.77
541.79	42892.66
541.96	42029.00
542.13	42794.36
542.30	42731.16
542.47	42834.14
542.63	42712.44
542.80	42796.70
542.97	43157.14
543.14	43524.60
543.31	43569.07
543.48	43487.15
543.64	44549.76
543.81	43681.42
543.98	43608.86
544.15	43604.18
544.32	43845.26
544.48	43955.26
544.65	44140.16
544.82	43992.71
544.99	43267.14
545.16	43702.48
545.32	43761.00
545.49	44044.20
545.66	44142.50
545.83	44285.28
546.00	44285.28
546.16	44016.11
546.33	44112.08
546.50	43627.59
546.67	44533.37
546.83	43929.51
547.00	44009.09
547.17	44222.08
547.34	43948.24
547.50	44091.01
547.67	44573.16
547.84	44425.71
548.00	44631.68
548.17	44971.05
548.34	44650.40
548.51	44481.88
548.67	44678.49
548.84	44753.38
549.01	44825.94
549.18	44535.71
549.34	44580.18
549.51	44762.75
549.68	44498.26
549.84	44994.46
550.01	45020.20
550.18	44435.07
550.34	44842.32
550.51	44612.95
550.68	44638.70
550.84	44189.31
551.01	44865.73
551.18	44854.03
551.34	44629.34
551.51	44989.78
551.68	44795.51
551.84	44720.62
552.01	45062.33
552.18	45200.43
552.34	44896.16
552.51	45336.18
552.68	44933.60
552.84	45041.27
553.01	45280.00
553.18	45326.81
553.34	45186.38
553.51	45401.71
553.67	45237.87
553.84	45617.04
554.01	45359.58
554.17	45390.01
554.34	45502.35
554.51	45488.31
554.67	45731.73
554.84	45780.88
555.00	45368.94
555.17	45654.49
555.33	45586.61
555.50	45521.08
555.67	45591.30
555.83	45272.98
556.00	46026.63
556.16	46122.60
556.33	45682.58
556.50	45284.68
556.66	45607.68
556.83	45729.39
556.99	45572.57
557.16	45478.95
557.32	46031.32
557.49	46148.34
557.65	45710.66
557.82	45881.52
557.98	45792.58
558.15	45804.28
558.32	45883.86
558.48	45743.43
558.65	45743.43
558.81	45593.64
558.98	46036.00
559.14	45364.26
559.31	45481.29
559.47	46080.47
559.64	45897.91
559.80	46192.81
559.97	45986.85
560.13	45308.09
560.30	45734.07
560.46	45961.10
560.63	45876.84
560.79	46117.92
560.96	46239.62
561.12	45998.55
561.29	46218.56
561.45	46094.51
561.61	45867.48
561.78	46131.96
561.94	45954.08
562.11	46248.99
562.27	46511.13
562.44	46129.62
562.60	46356.65
562.77	46354.31
562.93	46185.79
563.10	46171.75
563.26	46106.21
563.42	46298.14
563.59	46298.14
563.75	46199.83
563.92	46714.75
564.08	46298.14
564.24	46300.48
564.41	46415.16
564.57	46625.81
564.74	45970.46
564.90	46302.82
565.07	46607.09
565.23	46394.10
565.39	46497.08
565.56	46490.06
565.72	46557.94
565.88	46466.66
566.05	46094.51
566.21	46052.38
566.38	46291.12
566.54	46583.68
566.70	46632.83
566.87	47145.41
567.03	46366.01
567.19	46864.55
567.36	46735.82
567.52	46550.91
567.68	46609.43
567.85	46436.23
568.01	46967.53
568.17	46426.87
568.34	46689.01
568.50	46581.34
568.66	46478.36
568.83	46557.94
568.99	45986.85
569.15	46604.75
569.32	46333.24
569.48	46347.29
569.64	46878.59
569.81	46520.49
569.97	46703.05
570.13	46658.58
570.30	46539.21
570.46	46351.97
570.62	46089.83
570.78	46286.43
570.95	46567.30
571.11	46658.58
571.27	46607.09
571.43	46092.17
571.60	46293.46
571.76	46782.63
571.92	46953.49
572.09	46541.55
572.25	46476.02
572.41	46747.52
572.57	46932.42
572.74	46738.16
572.90	46878.59
573.06	47255.42
573.22	46593.04
573.38	46625.81
573.55	46471.34
573.71	46962.85
573.87	46670.28
574.03	46314.52
574.20	46679.64
574.36	46803.69
574.52	46759.22
574.68	46735.82
574.84	46562.62
575.01	46323.88
575.17	46513.47
575.33	46368.35
575.49	46906.68
575.65	46820.08
575.82	46724.11
575.98	46569.64
576.14	46775.61
576.30	46747.52
576.46	46698.37
576.62	46731.14
576.79	46550.91
576.95	46689.01
577.11	47033.07
577.27	46745.18
577.43	46845.82
577.59	46473.68
577.75	46763.90
577.92	46293.46
578.08	46431.55
578.24	46522.83
578.40	46356.65
578.56	46899.65
578.72	46820.08
578.88	46855.18
579.04	47044.77
579.21	46473.68
579.37	46909.02
579.53	47049.45
579.69	46550.91
579.85	46958.17
580.01	46576.66
580.17	46761.56
580.33	47004.98
580.49	46777.95
580.65	47000.30
580.82	47112.64
580.98	46885.61
581.14	46358.99
581.30	47075.19
581.46	46838.80
581.62	46869.23
581.78	46651.56
581.94	46770.93
582.10	46651.56
582.26	47072.85
582.42	46698.37
582.58	46401.12
582.74	46595.38
582.90	46777.95
583.06	47232.01
583.22	46899.65
583.38	47222.65
583.54	47065.83
583.70	47217.97
583.86	46969.87
584.02	46794.33
584.18	46951.15
584.34	46841.14
584.50	47009.66
584.66	46775.61
584.82	46639.86
584.98	47044.77
585.14	47084.56
585.30	46555.60
585.46	46855.18
585.62	46644.54
585.78	46789.65
585.94	46789.65
586.10	46660.92
586.26	46862.21
586.42	46962.85
586.58	47154.77
586.74	46656.24
586.90	46567.30
587.06	46909.02
587.22	46780.29
587.38	46632.83
587.54	47016.68
587.70	46834.12
587.86	46782.63
588.02	47030.72
588.18	47049.45
588.34	46899.65
588.49	46293.46
588.65	46272.39
588.81	46244.30
588.97	46824.76
589.13	46014.93
589.29	46368.35
589.45	46536.87
589.61	46354.31
589.77	46918.38
589.93	46873.91
590.08	46897.31
590.24	46892.63
590.40	47107.96
590.56	47283.50
590.72	46955.83
590.88	47054.13
591.04	46693.69
591.20	47583.09
591.35	47159.45
591.51	47157.11
591.67	47082.22
591.83	46864.55
591.99	46976.89
592.15	46438.57
592.31	47028.38
592.46	46894.97
592.62	46740.50
592.78	46815.40
592.94	47192.22
593.10	46883.27
593.26	46993.28
593.41	46754.54
593.57	46791.99
593.73	46944.12
593.89	47012.00
594.05	46911.36
594.20	46967.53
594.36	46955.83
594.52	46628.15
594.68	46569.64
594.84	47117.32
594.99	47660.33
595.15	46836.46
595.31	47351.38
595.47	46902.00
595.62	46927.74
595.78	47138.39
595.94	47199.24
596.10	47433.30
596.25	47374.78
596.41	47168.82
596.57	46880.93
596.73	47152.43
596.88	46564.96
597.04	46951.15
597.20	46841.14
597.36	47147.75
597.51	47058.81
597.67	47342.02
597.83	47178.18
597.99	47751.61
598.14	47276.48
598.30	47040.09
598.46	46799.01
598.61	47009.66
598.77	46604.75
598.93	47220.31
599.09	47344.36
599.24	47639.26
599.40	47114.98
599.56	47459.04
599.71	46829.44
599.87	47063.49
600.03	46979.23
600.18	47224.99
600.34	46600.07
600.50	47157.11
600.65	46803.69
600.81	47178.18
600.97	47072.85
601.12	47107.96
601.28	46831.78
601.44	47047.11
601.59	46773.27
601.75	46972.21
601.91	46714.75
602.06	46674.96
602.22	46923.06
602.37	46604.75
602.53	47051.79
602.69	47660.33
602.84	46836.46
603.00	47114.98
603.16	46927.74
603.31	46808.37
603.47	46878.59
603.62	46710.07
603.78	47086.90
603.94	46892.63
604.09	47171.16
604.25	47255.42
604.40	47061.15
604.56	46930.08
604.71	47159.45
604.87	46600.07
605.03	46677.30
605.18	46728.80
605.34	46817.74
605.49	46773.27
605.65	46824.76
605.80	47051.79
605.96	47014.34
606.12	47068.17
606.27	47105.62
606.43	46834.12
606.58	46775.61
606.74	46646.88
606.89	46714.75
607.05	47051.79
607.20	46993.28
607.36	46740.50
607.51	46787.31
607.67	46583.68
607.82	46337.93
607.98	46452.61
608.13	46377.72
608.29	46506.44
608.44	46752.20
608.60	46031.32
608.75	46206.86
608.91	46983.91
609.06	46309.84
609.22	46586.02
609.37	46211.54
609.53	46036.00
609.68	46459.63
609.84	46366.01
609.99	46312.18
610.15	46347.29
610.30	46134.30
610.46	46038.34
610.61	46277.07
610.76	46234.94
610.92	46272.39
611.07	46443.25
611.23	46075.79
611.38	46124.94
611.54	46328.56
611.69	46167.07
611.84	46286.43
612.00	46057.06
612.15	46239.62
612.31	46223.24
612.46	46092.17
612.62	45839.39
612.77	45670.87
612.92	46171.75
613.08	45993.87
613.23	46356.65
613.39	45762.15
613.54	45813.65
613.69	45890.88
613.85	45783.22
614.00	45787.90
614.15	45972.80
614.31	45977.48
614.46	46099.19
614.62	45771.52
614.77	45947.06
614.92	45902.59
615.08	45904.93
615.23	45474.27
615.38	45591.30
615.54	45209.79
615.69	45521.08
615.84	45148.93
616.00	45621.72
616.15	45439.16
616.30	45088.08
616.46	45771.52
616.61	45343.20
616.76	45432.14
616.92	44933.60
617.07	44966.37
617.22	44964.03
617.37	45081.06
617.53	45504.70
617.68	45654.49
617.83	45593.64
617.99	45340.86
618.14	45509.38
618.29	45574.91
618.45	45165.32
618.60	44896.16
618.75	44980.42
618.90	45373.63
619.06	44835.30
619.21	45464.91
619.36	45579.59
619.51	45361.92
619.67	44996.80
619.82	45074.04
619.97	44830.62
620.12	44982.76
620.28	44971.05
620.43	44666.78
620.58	45078.72
620.73	44779.13
620.89	45193.40
621.04	44788.49
621.19	44849.35
621.34	44619.97
621.49	44292.30
621.65	44678.49
621.80	44626.99
621.95	44170.59
622.10	44547.42
622.25	44397.62
622.41	44521.67
622.56	44308.68
622.71	44603.59
622.86	44549.76
623.01	44690.19
623.16	44184.63
623.32	44481.88
623.47	44671.46
623.62	44254.85
623.77	43828.87
623.92	44210.38
624.07	43971.64
624.23	44243.15
624.38	43753.97
624.53	43943.56
624.68	44037.18
624.83	43618.22
624.98	44102.71
625.13	43871.00
625.29	44083.99
625.44	43751.63
625.59	43838.23
625.74	43477.79
625.89	43653.33
626.04	43639.29
626.19	43800.79
626.34	43948.24
626.49	43948.24
626.65	43711.84
626.80	43873.34
626.95	43330.34
627.10	43386.51
627.25	43440.34
627.40	43440.34
627.55	42754.57
627.70	42712.44
627.85	43438.00
628.00	43030.75
628.15	43253.10
628.30	43309.27
628.45	43604.18
628.60	43512.90
628.76	42925.42
628.91	43585.46
629.06	43262.46
629.21	42939.47
629.36	42965.21
629.51	43133.73
629.66	42864.57
629.81	42993.30
629.96	42541.58
630.11	42637.54
630.26	43194.59
630.41	43061.18
630.56	42906.70
630.71	42976.92
630.86	42438.59
631.01	42946.49
631.16	42796.70
631.31	42527.53
631.46	43026.07
631.61	43037.77
631.76	42974.58
631.91	42628.18
632.06	43185.22
632.21	42763.93
632.36	42934.79
632.51	42492.43
632.66	42651.58
632.81	42230.29
632.96	42478.38
633.10	42319.23
633.25	42312.20
633.40	42436.25
633.55	42373.06
633.70	42057.09
633.85	41883.89
634.00	42323.91
634.15	42394.12
634.30	42398.80
634.45	42230.29
634.60	41958.78
634.75	42443.27
634.90	42583.71
635.05	42232.63
635.19	41825.37
635.34	42344.97
635.49	42176.45
635.64	41921.34
635.79	41881.55
635.94	41862.82
636.09	42157.73
636.24	42050.06
636.39	41654.51
636.53	41689.62
636.68	41642.81
636.83	41493.02
636.98	42160.07
637.13	41769.20
637.28	41930.70
637.43	41771.54
637.57	41909.63
637.72	41502.38
637.87	41570.25
638.02	42012.62
638.17	42052.41
638.32	41256.62
638.46	41301.09
638.61	41610.04
638.76	41303.43
638.91	42000.91
639.06	41368.97
639.20	41258.96
639.35	42036.02
639.50	41148.96
639.65	41556.21
639.80	41350.24
639.94	41296.41
640.09	41380.67
640.24	41507.06
640.39	40992.14
640.54	41055.34
640.68	41221.52
640.83	41060.02
640.98	40910.22
641.13	40149.55
641.27	41486.00
641.42	40950.01
641.57	40900.86
641.72	40636.38
641.86	40451.48
642.01	40425.73
642.16	40601.27
642.31	40587.23
642.45	40800.22
642.60	40488.93
642.75	40477.22
642.90	40671.49
643.04	40648.08
643.19	40570.85
643.34	40589.57
643.48	40257.21
643.63	40231.47
643.78	39957.63
643.93	40453.82
644.07	40325.09
644.22	40229.13
644.37	40175.30
644.51	40528.72
644.66	40353.18
644.81	40315.73
644.95	40638.72
645.10	40292.32
645.25	40013.80
645.39	40442.12
645.54	40556.80
645.69	40128.48
645.83	39854.64
645.98	40287.64
646.13	40100.40
646.27	39966.99
646.42	40322.75
646.57	39952.94
646.71	40168.27
646.86	39620.59
647.00	40147.21
647.15	40163.59
647.30	39917.84
647.44	40009.12
647.59	39761.02
647.74	39702.51
647.88	39955.29
648.03	39749.32
648.17	39335.04
648.32	39601.86
648.47	39962.31
648.61	39068.22
648.76	40011.46
648.90	39379.51
649.05	39688.46
649.20	39353.77
649.34	39782.09
649.49	39175.89
649.63	39049.50
649.78	39377.17
649.92	39321.00
650.07	39716.55
650.21	39271.85
650.36	39311.64
650.51	39262.49
650.65	39913.16
650.80	39697.83
650.94	39573.78
651.09	39332.70
651.23	39082.27
651.38	39248.44
651.52	39145.46
651.67	39042.48
651.81	38672.67
651.96	38951.20
652.10	38651.61
652.25	38719.48
652.39	38892.68
652.54	39246.10
652.68	38927.79
652.83	39257.81
652.97	38990.98
653.12	39168.87
653.26	38623.52
653.41	38717.14
653.55	38607.14
653.70	38312.23
653.84	38824.81
653.99	38890.34
654.13	38871.62
654.27	38595.43
654.42	38806.08
654.56	38665.65
654.71	38588.41
654.85	38630.54
655.00	38082.86
655.14	38174.14
655.29	37668.58
655.43	38492.45
655.57	37923.70
655.72	37736.46
655.86	37640.50
656.01	37514.11
656.15	37401.76
656.30	37436.87
656.44	37448.57
656.58	37432.19
656.73	37640.50
656.87	37940.08
657.01	37680.28
657.16	37811.35
657.30	37680.28
657.45	37078.77
657.59	37727.10
657.73	37890.93
657.88	37989.24
658.02	38181.16
658.16	38443.30
658.31	38462.02
658.45	37628.79
658.60	37336.23
658.74	38054.77
658.88	37495.38
659.03	37586.66
659.17	37085.79
659.31	37392.40
659.46	37511.77
659.60	37614.75
659.74	37350.27
659.89	37530.49
660.03	37399.42
660.17	37270.69
660.32	37207.50
660.46	37350.27
660.60	37441.55
660.74	37509.43
660.89	36987.49
661.03	37130.26
661.17	36879.82
661.32	36711.30
661.46	36573.21
661.60	36971.10
661.74	37067.06
661.89	36666.83
662.03	36636.41
662.17	36383.63
662.31	36690.24
662.46	37020.25
662.60	36657.47
662.74	36549.81
662.88	36414.05
663.03	35873.39
663.17	36168.30
663.31	35969.35
663.45	36526.40
663.60	36013.82
663.74	36147.23
663.88	35847.64
664.02	35988.08
664.17	36058.29
664.31	35716.58
664.45	36025.53
664.59	35775.09
664.73	35835.94
664.88	35892.12
665.02	35564.44
665.16	35276.55
665.30	35768.07
665.44	35545.72
665.59	35604.23
665.73	35391.24
665.87	35632.32
666.01	35302.30
666.15	35136.12
666.29	34883.34
666.44	35522.31
666.58	35292.94
666.72	34651.63
666.86	34897.39
667.00	34897.39
667.14	34972.28
667.28	34693.76
667.43	34976.97
667.57	34932.50
667.71	34281.83
667.85	34256.08
667.99	34611.84
668.13	34272.46
668.27	34541.63
668.41	34408.22
668.56	33689.67
668.70	34476.09
668.84	34192.89
668.98	33869.89
669.12	33853.51
669.26	34089.90
669.40	33729.46
669.54	34012.66
669.68	33603.07
669.82	33528.17
669.96	33598.39
670.10	33647.54
670.25	33876.91
670.39	33942.45
670.53	33516.47
670.67	33397.10
670.81	33626.48
670.95	33535.20
671.09	33357.32
671.23	33261.35
671.37	33156.03
671.51	32893.89
671.65	33083.47
671.79	32811.97
671.93	32882.19
672.07	33249.65
672.21	32823.67
672.35	32472.59
672.49	32678.56
672.63	32554.51
672.77	32655.15
672.91	32479.61
673.05	32863.46
673.19	32802.61
673.33	32304.07
673.47	32030.23
673.61	32051.30
673.75	32285.35
673.89	32016.19
674.03	31686.17
674.17	31882.78
674.31	31770.43
674.45	31868.73
674.59	31992.78
674.73	31948.31
674.87	31302.32
675.01	31468.50
675.15	31454.46
675.29	31197.00
675.43	31225.09
675.56	31124.44
675.70	31414.67
675.84	31290.62
675.98	30497.18
676.12	31119.76
676.26	31115.08
676.40	30881.03
676.54	30787.41
676.68	30976.99
676.82	30307.60
676.96	30787.41
677.10	30148.44
677.23	30052.48
677.37	29610.12
677.51	29727.14
677.65	29687.36
677.79	29647.57
677.93	29621.82
678.07	29619.48
678.21	29319.89
678.34	29106.90
678.48	28940.72
678.62	29069.45
678.76	28877.53
678.90	28863.49
679.04	28919.66
679.18	28772.21
679.31	28428.15
679.45	28187.07
679.59	28091.11
679.73	28318.14
679.87	28203.46
680.00	28166.01
680.14	28144.94
680.28	28334.53
680.42	28535.81
680.56	28350.91
680.70	28306.44
680.83	28205.80
680.97	28177.71
681.11	27931.95
681.25	27452.14
681.39	27578.53
681.52	27592.58
681.66	27536.40
681.80	27606.62
681.94	27138.51
682.07	27009.78
682.21	26974.67
682.35	27133.83
682.49	27054.25
682.62	26672.74
682.76	26852.97
682.90	26696.15
683.04	26008.03
683.17	26539.33
683.31	26377.84
683.45	26277.19
683.59	26286.56
683.72	25689.72
683.86	25703.76
684.00	26127.40
684.13	25923.77
684.27	25706.10
684.41	25453.33
684.55	25612.48
684.68	25326.94
684.82	25568.01
684.96	25289.49
685.09	25245.02
685.23	25132.67
685.37	24966.49
685.50	25296.51
685.64	25200.55
685.78	24875.21
685.91	24568.60
686.05	24664.57
686.19	24229.23
686.32	24233.91
686.46	23978.79
686.60	23852.40
686.73	23688.56
686.87	23255.56
687.01	23323.44
687.14	23435.78
687.28	22899.80
687.42	23246.20
687.55	23424.08
687.69	23482.59
687.82	23454.51
687.96	23208.75
688.10	23264.92
688.23	23080.02
688.37	22993.42
688.50	22604.89
688.64	22700.86
688.78	22562.76
688.91	22759.37
689.05	22953.63
689.18	22466.80
689.32	22455.10
689.46	22080.61
689.59	22260.84
689.73	22476.16
689.86	22071.25
690.00	22024.44
690.13	22075.93
690.27	21872.31
690.41	22010.40
690.54	21584.42
690.68	21525.91
690.81	21483.78
690.95	21610.17
691.08	21390.16
691.22	20975.88
691.35	21460.37
691.49	21394.84
691.62	21214.62
691.76	21135.04
691.89	21074.18
692.03	20933.75
692.16	20837.79
692.30	20692.68
692.43	20257.34
692.57	20692.68
692.70	20374.36
692.84	20339.26
692.97	20332.23
693.11	20215.21
693.24	20283.08
693.38	20142.65
693.51	19866.47
693.65	20002.22
693.78	20102.86
693.92	19686.25
694.05	20210.53
694.19	19824.34
694.32	19536.45
694.45	19377.30
694.59	19094.09
694.72	19192.39
694.86	19138.56
694.99	18979.40
695.13	19152.60
695.26	18810.89
695.39	18740.67
695.53	18953.66
695.66	18902.17
695.80	18764.07
695.93	18483.21
696.07	18593.22
696.20	18455.12
696.33	18408.31
696.47	18267.88
696.60	18366.18
696.73	18434.06
696.87	18134.47
697.00	18134.47
697.14	18218.73
697.27	17685.09
697.40	17781.05
697.54	17408.90
697.67	17577.42
697.80	17476.78
697.94	17486.14
698.07	17118.68
698.21	17191.23
698.34	17177.19
698.47	17188.89
698.61	16779.30
698.74	16671.64
698.87	16704.40
699.01	16404.81
699.14	16645.89
699.27	16720.79
699.40	16491.41
699.54	16437.58
699.67	16400.13
699.80	16109.91
699.94	16348.64
700.07	16500.78
700.20	16255.02
700.34	16123.95
700.47	16145.02
700.60	16149.70
700.73	16362.69
700.87	15967.13
701.00	15716.70
701.13	15822.02
701.26	15686.27
701.40	15620.74
701.53	15346.89
701.66	15353.91
701.79	15594.99
701.93	15363.28
702.06	15070.71
702.19	15059.01
702.32	15117.52
702.46	15077.73
702.59	14956.02
702.72	15028.58
702.85	15037.94
702.99	14986.45
703.12	14951.34
703.25	14696.22
703.38	14516.00
703.51	14466.85
703.65	14413.02
703.78	14396.64
703.91	14455.15
704.04	14274.93
704.17	14214.07
704.31	14251.52
704.44	14244.50
704.57	14190.67
704.70	14075.98
704.83	14029.17
704.96	13987.04
705.10	13919.17
705.23	13867.67
>>>>>End Processed Spectral Data<<<<<
