SpectraSuite Data File
++++++++++++++++++++++++++++++++++++
Date: Fri Oct 25 11:34:33 EDT 2013
User: price-jones
Dark Spectrum Present: No
Reference Spectrum Present: No
Number of Sampled Component Spectra: 1
Spectrometers: USB2+H05261
Integration Time (usec): 100000 (USB2+H05261)
Spectra Averaged: 1 (USB2+H05261)
Boxcar Smoothing: 0 (USB2+H05261)
Correct for Electrical Dark: No (USB2+H05261)
Strobe/Lamp Enabled: No (USB2+H05261)
Correct for Detector Non-linearity: No (USB2+H05261)
Correct for Stray Light: No (USB2+H05261)
Number of Pixels in Processed Spectrum: 2048
>>>>>Begin Processed Spectral Data<<<<<
365.73	276.18
365.92	276.18
366.12	276.18
366.32	168.52
366.52	159.16
366.72	238.73
366.91	147.45
367.11	177.88
367.31	147.45
367.51	255.12
367.70	114.69
367.90	133.41
368.10	145.11
368.30	163.84
368.49	227.03
368.69	180.22
368.89	140.43
369.09	248.10
369.28	154.48
369.48	180.22
369.68	290.23
369.87	182.56
370.07	222.35
370.27	264.48
370.47	229.37
370.66	482.15
370.86	477.47
371.06	528.96
371.25	547.69
371.45	580.45
371.65	543.00
371.84	531.30
372.04	552.37
372.24	578.11
372.44	582.79
372.63	557.05
372.83	521.94
373.03	622.58
373.22	610.88
373.42	641.31
373.62	587.47
373.81	683.44
374.01	535.98
374.21	585.13
374.40	608.54
374.60	641.31
374.79	589.82
374.99	629.60
375.19	638.97
375.38	578.11
375.58	608.54
375.78	737.27
375.97	685.78
376.17	650.67
376.37	643.65
376.56	711.52
376.76	617.90
376.95	760.67
377.15	683.44
377.35	636.63
377.54	685.78
377.74	627.26
377.93	723.23
378.13	629.60
378.33	636.63
378.52	615.56
378.72	720.88
378.91	669.39
379.11	711.52
379.31	709.18
379.50	725.57
379.70	868.34
379.89	685.78
380.09	648.33
380.28	650.67
380.48	671.73
380.68	730.25
380.87	786.42
381.07	753.65
381.26	685.78
381.46	779.40
381.65	746.63
381.85	692.80
382.04	702.16
382.24	770.04
382.43	723.23
382.63	821.53
382.83	772.38
383.02	807.48
383.22	779.40
383.41	699.82
383.61	795.78
383.80	809.83
384.00	807.48
384.19	770.04
384.39	774.72
384.58	763.01
384.78	868.34
384.97	854.30
385.17	866.00
385.36	870.68
385.56	851.96
385.75	823.87
385.95	868.34
386.14	856.64
386.34	866.00
386.53	873.02
386.72	837.91
386.92	917.49
387.11	828.55
387.31	842.59
387.50	828.55
387.70	903.45
387.89	901.11
388.09	903.45
388.28	936.21
388.48	814.51
388.67	821.53
388.86	912.81
389.06	931.53
389.25	851.96
389.45	997.07
389.64	912.81
389.84	947.92
390.03	1008.77
390.22	936.21
390.42	917.49
390.61	922.17
390.81	880.04
391.00	966.64
391.19	954.94
391.39	992.39
391.58	1053.24
391.78	1001.75
391.97	1121.12
392.16	985.37
392.36	1064.94
392.55	985.37
392.75	1060.26
392.94	1025.15
393.13	987.71
393.33	1067.28
393.52	1032.18
393.71	1057.92
393.91	1083.67
394.10	1062.60
394.29	1076.65
394.49	1046.22
394.68	1011.11
394.88	1048.56
395.07	1083.67
395.26	1151.54
395.46	1083.67
395.65	1135.16
395.84	1191.33
396.04	1177.29
396.23	1128.14
396.42	1137.50
396.62	1188.99
396.81	1252.19
397.00	1193.67
397.19	1132.82
397.39	1263.89
397.58	1242.82
397.77	1200.69
397.97	1174.95
398.16	1238.14
398.35	1270.91
398.55	1196.01
398.74	1240.48
398.93	1247.51
399.12	1245.16
399.32	1233.46
399.51	1238.14
399.70	1294.32
399.90	1268.57
400.09	1383.26
400.28	1277.93
400.47	1299.00
400.67	1355.17
400.86	1345.81
401.05	1345.81
401.24	1378.58
401.44	1385.60
401.63	1369.21
401.82	1502.62
402.01	1366.87
402.21	1444.11
402.40	1423.05
402.59	1411.34
402.78	1474.54
402.97	1430.07
403.17	1488.58
403.36	1526.03
403.55	1507.30
403.74	1514.33
403.93	1467.52
404.13	1500.28
404.32	1521.35
404.51	1533.05
404.70	1572.84
404.89	1603.27
405.09	1734.34
405.28	1664.12
405.47	1607.95
405.66	1638.38
405.85	1643.06
406.05	1692.21
406.24	1762.42
406.43	1650.08
406.62	1715.61
406.81	1830.30
407.00	1687.53
407.20	1753.06
407.39	1741.36
407.58	1673.48
407.77	1647.74
407.96	1856.04
408.15	1781.15
408.34	1781.15
408.54	1893.49
408.73	1937.96
408.92	1842.00
409.11	1893.49
409.30	1949.67
409.49	1987.11
409.68	1933.28
409.87	1781.15
410.07	1900.52
410.26	2024.56
410.45	2003.50
410.64	1944.99
410.83	2057.33
411.02	2036.27
411.21	2066.69
411.40	2022.22
411.59	1998.82
411.78	2230.53
411.98	2050.31
412.17	2157.97
412.36	2132.23
412.55	2115.84
412.74	2256.28
412.93	2275.00
413.12	2307.77
413.31	2310.11
413.50	2417.77
413.69	2307.77
413.88	2258.62
414.07	2387.35
414.26	2326.49
414.45	2431.82
414.64	2483.31
414.83	2438.84
415.02	2478.63
415.22	2487.99
415.41	2644.81
415.60	2523.10
415.79	2602.68
415.98	2642.46
416.17	2675.23
416.36	2640.12
416.55	2670.55
416.74	2658.85
416.93	2642.46
417.12	2675.23
417.31	2766.51
417.50	2745.45
417.69	2876.52
417.88	2733.75
418.07	2860.13
418.26	2738.43
418.45	2855.45
418.64	2930.35
418.83	2913.97
419.02	3000.57
419.21	2787.58
419.39	2972.48
419.58	2984.18
419.77	3019.29
419.96	3122.27
420.15	3087.17
420.34	2963.12
420.53	3035.67
420.72	3124.62
420.91	3164.40
421.10	3169.09
421.29	3220.58
421.48	3033.33
421.67	3192.49
421.86	3110.57
422.05	3129.30
422.24	3187.81
422.43	3155.04
422.61	3227.60
422.80	3215.90
422.99	3330.58
423.18	3276.75
423.37	3375.05
423.56	3213.56
423.75	3213.56
423.94	3211.22
424.13	3108.23
424.32	3038.02
424.50	3325.90
424.69	3361.01
424.88	3461.65
425.07	3229.94
425.26	3199.51
425.45	3335.26
425.64	3290.79
425.83	3293.13
426.01	3311.86
426.20	3258.03
426.39	3318.88
426.58	3297.81
426.77	3389.10
426.96	3384.41
427.15	3375.05
427.33	3323.56
427.52	3459.31
427.71	3281.43
427.90	3501.44
428.09	3522.51
428.28	3503.78
428.46	3574.00
428.65	3435.91
428.84	3595.06
429.03	3552.93
429.22	3494.42
429.40	3574.00
429.59	3599.74
429.78	3501.44
429.97	3346.97
430.16	3541.23
430.34	3693.37
430.53	3592.72
430.72	3698.05
430.91	3681.66
431.10	3651.24
431.28	3688.68
431.47	3815.07
431.66	3854.86
431.85	3714.43
432.03	3885.29
432.22	3840.82
432.41	3943.80
432.60	3831.46
432.79	3990.61
432.97	3995.29
433.16	3974.23
433.35	3875.93
433.54	4053.81
433.72	3932.10
433.91	3988.27
434.10	4037.42
434.28	4212.96
434.47	3981.25
434.66	4187.22
434.85	4208.28
435.03	4231.69
435.22	4217.65
435.41	4250.41
435.59	4238.71
435.78	4248.07
435.97	4205.94
436.16	4180.20
436.34	4159.13
436.53	4334.67
436.72	4301.90
436.90	4264.46
437.09	4229.35
437.28	4337.01
437.46	4180.20
437.65	4348.72
437.84	4454.04
438.02	4475.10
438.21	4428.29
438.40	4337.01
438.58	4613.20
438.77	4512.55
438.96	4491.49
439.14	4547.66
439.33	4805.12
439.52	4657.67
439.70	4767.67
439.89	4809.80
440.08	4795.76
440.26	4957.25
440.45	4732.56
440.63	4910.44
440.82	4896.40
441.01	4908.10
441.19	4940.87
441.38	5071.94
441.57	4938.53
441.75	4922.15
441.94	5144.50
442.12	5125.77
442.31	5130.45
442.50	5270.89
442.68	5195.99
442.87	5163.22
443.05	5210.03
443.24	5341.10
443.43	5245.14
443.61	5401.96
443.80	5518.98
443.98	5252.16
444.17	5181.95
444.35	5291.95
444.54	5359.83
444.73	5378.55
444.91	5446.43
445.10	5430.04
445.28	5493.24
445.47	5249.82
445.65	5334.08
445.84	5369.19
446.02	5603.24
446.21	5385.57
446.39	5448.77
446.58	5540.05
446.77	5549.41
446.95	5504.94
447.14	5390.25
447.32	5556.43
447.51	5518.98
447.69	5549.41
447.88	5495.58
448.06	5467.49
448.25	5582.18
448.43	5664.10
448.62	5561.11
448.80	5647.71
448.99	5511.96
449.17	5666.44
449.36	5563.45
449.54	5540.05
449.73	5863.04
449.91	5813.89
450.10	5633.67
450.28	5844.32
450.46	5668.78
450.65	5987.09
450.83	5804.53
451.02	5900.49
451.20	5984.75
451.39	5935.60
451.57	5851.34
451.76	5802.19
451.94	5923.90
452.13	6047.94
452.31	6008.16
452.49	5966.03
452.68	5928.58
452.86	5989.43
453.05	6349.87
453.23	6139.23
453.42	6005.81
453.60	5907.51
453.78	6188.38
453.97	6127.52
454.15	6090.07
454.34	6129.86
454.52	6319.45
454.70	6143.91
454.89	6249.23
455.07	6401.37
455.26	6377.96
455.44	6562.86
455.62	6576.91
455.81	6480.94
455.99	6380.30
456.17	6431.79
456.36	6567.54
456.54	6565.20
456.73	6698.61
456.91	6754.79
457.09	6724.36
457.28	6953.73
457.46	6487.96
457.64	6843.73
457.83	6693.93
458.01	6558.18
458.19	6740.74
458.38	6796.92
458.56	6836.70
458.74	6867.13
458.93	6679.89
459.11	6686.91
459.29	6927.99
459.48	7016.93
459.66	6958.41
459.84	6909.26
460.03	7089.48
460.21	7049.69
460.39	7122.25
460.57	7019.27
460.76	7145.66
460.94	7063.74
461.12	6988.84
461.31	7269.70
461.49	7215.87
461.67	7173.74
461.85	7538.87
462.04	7316.51
462.22	7749.51
462.40	7435.88
462.59	7321.20
462.77	7412.48
462.95	7520.14
463.13	7349.28
463.32	7552.91
463.50	7456.95
463.68	7531.84
463.86	7723.77
464.05	7581.00
464.23	7417.16
464.41	7470.99
464.59	7293.11
464.78	7810.37
464.96	7674.62
465.14	7475.67
465.32	7803.35
465.50	7534.18
465.69	7819.73
465.87	7770.58
466.05	7850.16
466.23	7754.19
466.41	7702.70
466.60	7815.05
466.78	7896.97
466.96	7681.64
467.14	7751.85
467.32	7880.58
467.51	7953.14
467.69	7868.88
467.87	7995.27
468.05	8081.87
468.23	7955.48
468.41	8112.30
468.60	7920.37
468.78	8124.00
468.96	7915.69
469.14	8063.15
469.32	8376.78
469.50	8070.17
469.69	8386.14
469.87	8475.08
470.05	8416.57
470.23	8442.31
470.41	8468.06
470.59	8496.14
470.77	8365.07
470.95	8578.06
471.14	8449.33
471.32	8484.44
471.50	8559.34
471.68	8617.85
471.86	8519.55
472.04	8835.52
472.22	8896.38
472.40	8620.19
472.58	8868.29
472.77	8919.78
472.95	9057.87
473.13	9268.52
473.31	9036.81
473.49	8959.57
473.67	9057.87
473.85	9060.21
474.03	9315.33
474.21	9322.35
474.39	9149.15
474.57	9217.03
474.75	9329.38
474.93	9542.36
475.12	9458.10
475.30	9420.66
475.48	9628.96
475.66	9734.29
475.84	9736.63
476.02	9832.59
476.20	9816.21
476.38	9839.61
476.56	10054.94
476.74	10087.71
476.92	9963.66
477.10	10146.22
477.28	10186.01
477.46	10225.80
477.64	10214.10
477.82	10523.05
478.00	10696.25
478.18	10691.57
478.36	10609.65
478.54	10705.61
478.72	10991.16
478.90	10895.19
479.08	10904.56
479.26	11211.17
479.44	11037.97
479.62	11243.93
479.80	11363.30
479.98	11398.41
480.16	11838.43
480.34	11506.07
480.52	11541.18
480.70	11683.95
480.88	11562.25
481.06	11936.73
481.24	11880.56
481.41	11892.26
481.59	12285.47
481.77	11948.43
481.95	12306.54
482.13	12304.20
482.31	12437.61
482.49	12624.85
482.67	12924.44
482.85	12826.14
483.03	12744.22
483.21	13020.40
483.39	13305.95
483.57	13165.51
483.74	13446.38
483.92	13334.03
484.10	13439.36
484.28	13738.94
484.46	13846.61
484.64	14015.13
484.82	13731.92
485.00	13973.00
485.18	14232.80
485.35	14548.77
485.53	14160.24
485.71	14616.65
485.89	14733.67
486.07	14728.99
486.25	14490.26
486.43	14956.02
486.61	14951.34
486.78	15143.27
486.96	15173.69
487.14	15569.24
487.32	15492.01
487.50	15611.37
487.68	15604.35
487.85	15906.28
488.03	15990.54
488.21	16271.40
488.39	16315.87
488.57	16166.08
488.75	16348.64
488.92	16535.88
489.10	16840.15
489.28	16828.45
489.46	16919.73
489.64	16798.02
489.81	17380.82
489.99	17130.38
490.17	17226.34
490.35	17741.26
490.53	17652.32
490.70	17980.00
490.88	17507.21
491.06	17935.53
491.24	18384.91
491.41	18085.32
491.59	18178.94
491.77	18382.57
491.95	18363.84
492.13	18366.18
492.30	18766.42
492.48	18640.03
492.66	18771.10
492.84	18761.73
493.01	19208.78
493.19	18981.74
493.37	19206.44
493.54	19363.25
493.72	19571.56
493.90	19580.92
494.08	19929.66
494.25	19726.04
494.43	20072.43
494.61	19943.70
494.79	20372.02
494.96	20245.63
495.14	20552.24
495.32	21151.42
495.49	20613.10
495.67	20589.69
495.85	21142.06
496.02	21106.95
496.20	21401.86
496.38	20952.48
496.55	21411.22
496.73	21986.99
496.91	21549.31
497.09	21425.26
497.26	22068.91
497.44	21778.68
497.62	22017.42
497.79	22356.80
497.97	22251.47
498.14	22335.73
498.32	22382.54
498.50	22792.14
498.67	22761.71
498.85	22925.55
499.03	22888.10
499.20	23215.77
499.38	23016.83
499.56	23161.94
499.73	23281.31
499.91	23665.16
500.08	23515.36
500.26	23154.92
500.44	23426.42
500.61	23880.49
500.79	23646.43
500.97	23655.79
501.14	24315.83
501.32	23796.23
501.49	23924.96
501.67	24493.71
501.84	24580.31
502.02	24254.97
502.20	24341.57
502.37	24519.45
502.55	24379.02
502.72	24580.31
502.90	24875.21
503.07	25027.35
503.25	24311.14
503.43	24776.91
503.60	25242.68
503.78	25254.38
503.95	24933.73
504.13	25397.15
504.30	25336.30
504.48	25427.58
504.65	25671.00
504.83	25933.14
505.01	25998.67
505.18	25797.38
505.36	25956.54
505.53	25858.24
505.71	26211.66
505.88	26391.88
506.06	25795.04
506.23	26265.49
506.41	26511.25
506.58	26260.81
506.76	26555.72
506.93	26630.62
507.11	26647.00
507.28	27040.21
507.46	26628.27
507.63	27342.14
507.81	27157.24
507.98	26965.31
508.16	27063.61
508.33	27335.12
508.50	27225.11
508.68	27625.34
508.85	27494.27
509.03	27482.57
509.20	27723.65
509.38	28081.75
509.55	28107.49
509.73	27924.93
509.90	27702.58
510.08	28011.53
510.25	27878.12
510.42	28250.27
510.60	28648.16
510.77	28472.62
510.95	28727.74
511.12	28711.35
511.30	28463.25
511.47	28613.05
511.64	28580.28
511.82	29008.60
511.99	28849.44
512.17	29188.82
512.34	29219.25
512.51	29586.71
512.69	29184.14
512.86	29598.41
513.04	29502.45
513.21	29390.11
513.38	29380.74
513.56	29364.36
513.73	29610.12
513.90	29790.34
514.08	29467.34
514.25	30045.46
514.43	29979.92
514.60	30073.54
514.77	29731.83
514.95	30000.99
515.12	30206.95
515.29	30405.90
515.47	30389.52
515.64	30326.32
515.81	30728.89
515.99	30096.95
516.16	30712.51
516.33	31094.02
516.51	30728.89
516.68	31009.76
516.85	30974.65
517.03	30976.99
517.20	31473.18
517.37	30780.39
517.54	30993.37
517.72	31440.42
517.89	31412.33
518.06	31583.19
518.24	31604.25
518.41	31498.93
518.58	31728.30
518.75	31321.05
518.93	31803.20
519.10	31606.59
519.27	31920.23
519.45	31882.78
519.62	32041.93
519.79	32378.97
519.96	32240.88
520.14	32247.90
520.31	32268.97
520.48	32275.99
520.65	32552.17
520.83	32776.86
521.00	32521.74
521.17	32306.41
521.34	32716.01
521.52	32891.55
521.69	33010.92
521.86	33397.10
522.03	33055.39
522.20	32730.05
522.38	33483.70
522.55	33544.56
522.72	33493.07
522.89	33408.81
523.07	33708.40
523.24	33439.23
523.41	33729.46
523.58	34026.71
523.75	33586.69
523.92	33319.87
524.10	33780.95
524.27	33993.94
524.44	33589.03
524.61	33879.25
524.78	33961.17
524.96	34824.83
525.13	33954.15
525.30	34197.57
525.47	34277.15
525.64	34232.68
525.81	35037.82
525.98	35016.75
526.16	34539.29
526.33	34909.09
526.50	35264.85
526.67	34637.59
526.84	34759.30
527.01	34909.09
527.18	34930.16
527.36	34738.23
527.53	34581.42
527.70	35718.92
527.87	35583.16
528.04	35314.00
528.21	35248.47
528.38	35405.28
528.55	35248.47
528.72	35627.63
528.89	35391.24
529.07	35220.38
529.24	35264.85
529.41	35800.83
529.58	36187.02
529.75	35803.17
529.92	35709.55
530.09	35573.80
530.26	35826.58
530.43	35952.97
530.60	35938.93
530.77	35683.81
530.94	36051.27
531.11	36491.29
531.28	35959.99
531.46	36613.00
531.63	36271.28
531.80	36371.92
531.97	36704.28
532.14	36503.00
532.31	36505.34
532.48	36538.10
532.65	37090.47
532.82	37099.83
532.99	36421.08
533.16	36872.80
533.33	36863.44
533.50	36809.61
533.67	36678.54
533.84	36346.18
534.01	37205.16
534.18	36973.44
534.35	37074.09
534.52	37429.85
534.69	37413.46
534.86	37804.33
535.03	37137.28
535.20	37581.98
535.37	37256.65
535.54	37869.87
535.71	37563.26
535.88	37715.39
536.05	37652.20
536.22	37900.29
536.38	37914.34
536.55	37600.71
536.72	37612.41
536.89	37780.93
537.06	37926.04
537.23	37860.51
537.40	38342.66
537.57	37991.58
537.74	37830.08
537.91	38625.86
538.08	38068.81
538.25	38066.47
538.42	38171.80
538.59	38752.25
538.75	38455.00
538.92	38576.71
539.09	38567.35
539.26	38408.19
539.43	38829.49
539.60	39466.11
539.77	38766.29
539.94	38450.32
540.11	39098.65
540.28	38883.32
540.44	38700.76
540.61	39129.08
540.78	38625.86
540.95	38948.85
541.12	39019.07
541.29	38829.49
541.46	39248.44
541.62	39278.87
541.79	39316.32
541.96	38895.02
542.13	39161.84
542.30	39180.57
542.47	39578.46
542.63	39487.18
542.80	39388.88
542.97	39658.04
543.14	39931.88
543.31	39564.42
543.48	39768.04
543.64	40486.59
543.81	40041.88
543.98	40439.78
544.15	39859.32
544.32	40238.49
544.48	40620.00
544.65	40222.11
544.82	40540.42
544.99	39950.60
545.16	39854.64
545.32	40289.98
545.49	40627.02
545.66	40975.76
545.83	40222.11
546.00	40531.06
546.16	40481.91
546.33	40493.61
546.50	40701.92
546.67	40830.65
546.83	40474.88
547.00	40589.57
547.17	40528.72
547.34	40589.57
547.50	41144.28
547.67	41263.64
547.84	41139.60
548.00	41092.79
548.17	41450.89
548.34	41233.22
548.51	41294.07
548.67	41577.28
548.84	41195.77
549.01	41064.70
549.18	41399.40
549.34	41427.48
549.51	41457.91
549.68	41879.21
549.84	41141.94
550.01	41762.18
550.18	41031.93
550.34	41226.20
550.51	41429.82
550.68	41617.07
550.84	40964.06
551.01	41785.58
551.18	41577.28
551.34	41511.74
551.51	41785.58
551.68	41640.47
551.84	41914.31
552.01	41872.18
552.18	41787.92
552.34	41635.79
552.51	42155.39
552.68	42024.32
552.84	42122.62
553.01	42003.25
553.18	42064.11
553.34	41839.42
553.51	42284.12
553.67	42412.85
553.84	42445.62
554.01	42536.90
554.17	42396.46
554.34	42611.79
554.51	42253.69
554.67	42902.02
554.84	42679.67
555.00	42616.47
555.17	42532.22
555.33	42717.12
555.50	42368.38
555.67	42672.65
555.83	42707.76
556.00	42614.13
556.16	43159.48
556.33	43122.03
556.50	42902.02
556.66	42995.64
556.83	42373.06
556.99	43353.74
557.16	42990.96
557.32	43358.42
557.49	43320.98
557.65	42579.03
557.82	43030.75
557.98	43044.79
558.15	43185.22
558.32	43313.95
558.48	43000.32
558.65	43014.37
558.81	43075.22
558.98	42965.21
559.14	42960.53
559.31	43040.11
559.47	43374.81
559.64	43213.31
559.80	43648.65
559.97	43669.72
560.13	43662.69
560.30	43419.28
560.46	43868.66
560.63	43714.19
560.79	43901.43
560.96	43840.57
561.12	43871.00
561.29	43812.49
561.45	43540.99
561.61	43543.33
561.78	43845.26
561.94	43634.61
562.11	43906.11
562.27	43959.94
562.44	43648.65
562.60	43805.47
562.77	43761.00
562.93	43494.18
563.10	44484.22
563.26	43625.25
563.42	43873.34
563.59	44081.65
563.75	43838.23
563.92	43894.41
564.08	43573.75
564.24	44044.20
564.41	44074.63
564.57	44243.15
564.74	44406.98
564.90	44079.31
565.07	44334.43
565.23	43728.23
565.39	44156.55
565.56	43786.74
565.72	44205.70
565.88	44083.99
566.05	44329.75
566.21	44252.51
566.38	44172.93
566.54	44512.31
566.70	44313.36
566.87	44486.56
567.03	44088.67
567.19	44430.39
567.36	44037.18
567.52	44573.16
567.68	44444.43
567.85	44598.91
568.01	44409.32
568.17	44294.64
568.34	44282.94
568.50	44692.53
568.66	44334.43
568.83	44477.20
568.99	44748.70
569.15	44212.72
569.32	44610.61
569.48	44179.95
569.64	44395.28
569.81	44516.99
569.97	44453.79
570.13	44907.86
570.30	44154.21
570.46	44322.72
570.62	44580.18
570.78	44626.99
570.95	44598.91
571.11	44847.00
571.27	44708.91
571.43	44545.08
571.60	44704.23
571.76	44507.63
571.92	44313.36
572.09	44694.87
572.25	44666.78
572.41	44538.05
572.57	44692.53
572.74	45500.01
572.90	44219.74
573.06	44842.32
573.22	44814.24
573.38	44982.76
573.55	44683.17
573.71	45151.27
573.87	44882.11
574.03	45172.34
574.20	45088.08
574.36	44982.76
574.52	44814.24
574.68	44975.73
574.84	44729.98
575.01	45235.53
575.17	44924.24
575.33	44947.65
575.49	44797.85
575.65	45202.77
575.82	44671.46
575.98	45221.49
576.14	45036.59
576.30	45099.78
576.46	45207.45
576.62	45226.17
576.79	44959.35
576.95	44287.62
577.11	45057.65
577.27	44683.17
577.43	45069.36
577.59	45067.02
577.75	44793.17
577.92	45017.86
578.08	45081.06
578.24	45020.20
578.40	44905.52
578.56	45401.71
578.72	44971.05
578.88	44872.75
579.04	45006.16
579.21	45013.18
579.37	45125.53
579.53	44893.82
579.69	44905.52
579.85	45006.16
580.01	44924.24
580.17	45167.66
580.33	45158.30
580.49	45331.50
580.65	45029.57
580.82	45263.62
580.98	45034.25
581.14	45057.65
581.30	45090.42
581.46	45165.32
581.62	44982.76
581.78	45294.05
581.94	45123.19
582.10	44964.03
582.26	45361.92
582.42	44957.01
582.58	45439.16
582.74	45308.09
582.90	44898.50
583.06	45272.98
583.22	44772.11
583.38	45095.10
583.54	45240.21
583.70	45195.74
583.86	45144.25
584.02	45532.78
584.18	45715.34
584.34	45670.87
584.50	45492.99
584.66	45261.28
584.82	45366.60
584.98	45986.85
585.14	45326.81
585.30	45024.89
585.46	45013.18
585.62	45195.74
585.78	45324.47
585.94	45184.04
586.10	44835.30
586.26	45446.18
586.42	45102.12
586.58	45212.13
586.74	45373.63
586.90	45177.02
587.06	45191.06
587.22	45500.01
587.38	45373.63
587.54	45476.61
587.70	45949.40
587.86	45392.35
588.02	45375.97
588.18	45013.18
588.34	45591.30
588.49	45612.36
588.65	45399.37
588.81	45397.03
588.97	45823.01
589.13	45448.52
589.29	45624.06
589.45	45542.14
589.61	45975.14
589.77	45624.06
589.93	45558.53
590.08	45287.03
590.24	45949.40
590.40	45984.51
590.56	45675.55
590.72	46440.91
590.88	45354.90
591.04	45481.29
591.20	45986.85
591.35	45951.74
591.51	45886.20
591.67	45633.42
591.83	45846.41
591.99	45766.84
592.15	45698.96
592.31	45614.70
592.46	45450.86
592.62	45933.01
592.78	45617.04
592.94	46014.93
593.10	46106.21
593.26	46288.77
593.41	45579.59
593.57	46389.42
593.73	46447.93
593.89	46618.79
594.05	46234.94
594.20	46012.59
594.36	46281.75
594.52	46330.90
594.68	45813.65
594.84	45935.35
594.99	45621.72
595.15	45986.85
595.31	46082.81
595.47	46096.85
595.62	45729.39
595.78	46300.48
595.94	45881.52
596.10	45947.06
596.25	46286.43
596.41	45993.87
596.57	45844.07
596.73	45865.14
596.88	46436.23
597.04	46284.09
597.20	46239.62
597.36	46232.60
597.51	46080.47
597.67	45764.49
597.83	46014.93
597.99	46134.30
598.14	45982.16
598.30	46103.87
598.46	45741.09
598.61	46256.01
598.77	46263.03
598.93	46272.39
599.09	46073.45
599.24	46260.69
599.40	45617.04
599.56	46181.11
599.71	46408.14
599.87	46646.88
600.03	46571.98
600.18	45975.14
600.34	46174.09
600.50	46487.72
600.65	46150.68
600.81	46080.47
600.97	46309.84
601.12	46513.47
601.28	46251.33
601.44	46085.15
601.59	46410.48
601.75	45963.44
601.91	46415.16
602.06	46230.26
602.22	46302.82
602.37	46344.95
602.53	46274.73
602.69	46040.68
602.84	46007.91
603.00	46314.52
603.16	46438.57
603.31	46295.80
603.47	46347.29
603.62	46298.14
603.78	46431.55
603.94	46319.20
604.09	46307.50
604.25	45970.46
604.40	46157.70
604.56	46529.85
604.71	46534.53
604.87	46028.98
605.03	45509.38
605.18	46466.66
605.34	46078.13
605.49	46370.69
605.65	46162.39
605.80	45942.38
605.96	46103.87
606.12	46120.26
606.27	46330.90
606.43	45968.12
606.58	46241.96
606.74	45958.76
606.89	46267.71
607.05	46246.65
607.20	46412.82
607.36	45865.14
607.51	45956.42
607.67	45794.92
607.82	46101.53
607.98	45989.19
608.13	46080.47
608.29	45951.74
608.44	46101.53
608.60	45507.04
608.75	45823.01
608.91	45797.26
609.06	45710.66
609.22	46471.34
609.37	45310.43
609.53	46312.18
609.68	46127.28
609.84	45818.33
609.99	45621.72
610.15	45991.53
610.30	46239.62
610.46	46131.96
610.61	45724.71
610.76	46066.42
610.92	45584.27
611.07	45464.91
611.23	45649.81
611.38	45668.53
611.54	45914.29
611.69	45890.88
611.84	46169.41
612.00	45361.92
612.15	45556.19
612.31	45935.35
612.46	45553.85
612.62	45886.20
612.77	45525.76
612.92	45708.32
613.08	45251.92
613.23	45518.74
613.39	45244.90
613.54	45179.36
613.69	45862.80
613.85	45696.62
614.00	45296.39
614.15	45469.59
614.31	45820.67
614.46	45237.87
614.62	45067.02
614.77	45462.57
614.92	45418.10
615.08	45347.88
615.23	45649.81
615.38	45572.57
615.54	45895.56
615.69	45684.92
615.84	45284.68
616.00	45804.28
616.15	45507.04
616.30	45214.47
616.46	45195.74
616.61	45312.77
616.76	45560.87
616.92	45467.25
617.07	45219.15
617.22	45214.47
617.37	45333.84
617.53	45081.06
617.68	45244.90
617.83	45382.99
617.99	45282.34
618.14	45478.95
618.29	44889.13
618.45	45031.91
618.60	44893.82
618.75	45013.18
618.90	44566.14
619.06	45127.87
619.21	45008.50
619.36	44933.60
619.51	44699.55
619.67	45038.93
619.82	45010.84
619.97	45038.93
620.12	44879.77
620.28	44516.99
620.43	45064.67
620.58	44418.69
620.73	45134.89
620.89	44910.20
621.04	45357.24
621.19	44704.23
621.34	44762.75
621.49	44994.46
621.65	44746.36
621.80	44439.75
621.95	44650.40
622.10	44729.98
622.25	44772.11
622.41	44746.36
622.56	44488.90
622.71	44921.90
622.86	44612.95
623.01	44786.15
623.16	44388.26
623.32	44327.41
623.47	44451.45
623.62	44477.20
623.77	45172.34
623.92	44786.15
624.07	44474.86
624.23	44516.99
624.38	44559.12
624.53	44055.90
624.68	43674.40
624.83	44322.72
624.98	44624.65
625.13	43971.64
625.29	43922.49
625.44	44318.04
625.59	44456.14
625.74	44020.80
625.89	43938.88
626.04	43856.96
626.19	43964.62
626.34	44126.12
626.49	43615.88
626.65	43892.07
626.80	43585.46
626.95	43461.41
627.10	43669.72
627.25	43936.54
627.40	43412.26
627.55	43445.02
627.70	43501.20
627.85	43901.43
628.00	43861.64
628.15	43948.24
628.30	43395.87
628.45	43164.16
628.60	43161.82
628.76	43501.20
628.91	43484.81
629.06	43381.83
629.21	43220.33
629.36	43152.46
629.51	43316.29
629.66	43931.86
629.81	43356.08
629.96	43470.77
630.11	43320.98
630.26	43288.21
630.41	43150.12
630.56	43260.12
630.71	42946.49
630.86	43276.51
631.01	42855.21
631.16	43037.77
631.31	43075.22
631.46	43428.64
631.61	43225.01
631.76	43110.33
631.91	43248.42
632.06	43388.85
632.21	43304.59
632.36	43161.82
632.51	42625.84
632.66	43250.76
632.81	42979.26
632.96	43309.27
633.10	42572.00
633.25	42862.23
633.40	43117.35
633.55	43084.58
633.70	42784.99
633.85	42316.89
634.00	42389.44
634.15	42646.90
634.30	43033.09
634.45	42899.68
634.60	42696.05
634.75	42813.08
634.90	42916.06
635.05	42623.50
635.19	42609.45
635.34	42295.82
635.49	42696.05
635.64	42347.31
635.79	42670.31
635.94	42075.81
636.09	42934.79
636.24	42541.58
636.39	42469.02
636.53	42412.85
636.68	42131.98
636.83	42057.09
636.98	42089.85
637.13	41965.81
637.28	42333.27
637.43	41816.01
637.57	42286.46
637.72	41787.92
637.87	42029.00
638.02	42305.18
638.17	42258.37
638.32	42469.02
638.46	41649.83
638.61	41881.55
638.76	41832.39
638.91	42089.85
639.06	41818.35
639.20	41537.49
639.35	42019.64
639.50	41265.99
639.65	41684.94
639.80	41846.44
639.94	41961.12
640.09	41757.50
640.24	41652.17
640.39	41371.31
640.54	41247.26
640.68	41724.73
640.83	41844.10
640.98	41310.46
641.13	40830.65
641.27	41558.55
641.42	41787.92
641.57	41235.56
641.72	41041.29
641.86	41345.56
642.01	40952.35
642.16	41521.10
642.31	40699.58
642.45	41315.14
642.60	40893.84
642.75	41853.46
642.90	41088.10
643.04	40821.28
643.19	40935.97
643.34	41139.60
643.48	41088.10
643.63	40907.88
643.78	41153.64
643.93	41132.57
644.07	40910.22
644.22	41006.19
644.37	40945.33
644.51	41153.64
644.66	41186.41
644.81	41198.11
644.95	41102.15
645.10	40741.71
645.25	40521.69
645.39	40631.70
645.54	40858.73
645.69	40144.87
645.83	40547.44
645.98	40692.55
646.13	40751.07
646.27	40573.19
646.42	40519.35
646.57	40556.80
646.71	40507.65
646.86	40912.56
647.00	40638.72
647.15	40407.01
647.30	40196.36
647.44	40849.37
647.59	40465.52
647.74	40121.46
647.88	40961.72
648.03	40559.14
648.17	40460.84
648.32	40257.21
648.47	41069.38
648.61	40067.63
648.76	40500.63
648.90	40369.56
649.05	39966.99
649.20	40245.51
649.34	40554.46
649.49	40390.62
649.63	40364.88
649.78	40315.73
649.92	40123.80
650.07	40620.00
650.21	40147.21
650.36	40332.11
650.51	39955.29
650.65	40271.26
650.80	40044.23
650.94	40076.99
651.09	40084.01
651.23	40105.08
651.38	39800.81
651.52	39526.97
651.67	40367.22
651.81	39784.43
651.96	39477.82
652.10	39571.44
652.25	39629.95
652.39	39754.00
652.54	39669.74
652.68	39615.91
652.83	39536.33
652.97	39889.75
653.12	39304.62
653.26	39367.81
653.41	39763.36
653.55	39826.56
653.70	39812.51
653.84	39674.42
653.99	39798.47
654.13	39550.37
654.27	39386.54
654.42	39725.91
654.56	39213.34
654.71	39700.17
654.85	39349.09
655.00	39512.92
655.14	39339.72
655.29	39622.93
655.43	39468.45
655.57	39021.41
655.72	39178.23
655.86	39077.58
656.01	39108.01
656.15	39056.52
656.30	39005.03
656.44	39246.10
656.58	39070.56
656.73	39012.05
656.87	38593.09
657.01	38937.15
657.16	38588.41
657.30	39351.43
657.45	38827.15
657.59	38321.59
657.73	38773.31
657.88	39075.24
658.02	38902.04
658.16	38911.41
658.31	38649.27
658.45	38380.10
658.60	38557.99
658.74	38808.42
658.88	38494.79
659.03	38286.48
659.17	38508.83
659.31	38705.44
659.46	38206.90
659.60	38447.98
659.74	38022.00
659.89	38031.36
660.03	37516.45
660.17	38309.89
660.32	38377.76
660.46	37687.31
660.60	37919.02
660.74	38022.00
660.89	38010.30
661.03	37486.02
661.17	37947.11
661.32	37394.74
661.46	37801.99
661.60	37596.03
661.74	37699.01
661.89	37373.67
662.03	37680.28
662.17	37495.38
662.31	36816.63
662.46	37244.94
662.60	37036.64
662.74	36900.89
662.88	37324.52
663.03	36601.30
663.17	36903.23
663.31	36886.84
663.45	36978.12
663.60	37361.97
663.74	36774.50
663.88	36928.97
664.02	36531.08
664.17	37085.79
664.31	36505.34
664.45	36645.77
664.59	36760.45
664.73	36715.98
664.88	36566.19
665.02	36474.91
665.16	36332.14
665.30	36437.46
665.44	36467.89
665.59	36133.19
665.73	36128.51
665.87	35482.52
666.01	36278.30
666.15	36077.02
666.29	35896.80
666.44	36470.23
666.58	36065.31
666.72	36037.23
666.86	36098.08
667.00	35859.35
667.14	35311.66
667.28	35534.01
667.43	35274.21
667.57	35840.62
667.71	35789.13
667.85	36084.04
667.99	35627.63
668.13	35393.58
668.27	35000.37
668.41	35292.94
668.56	35040.16
668.70	34995.69
668.84	34848.24
668.98	34621.20
669.12	34749.93
669.26	35086.97
669.40	35108.04
669.54	34555.67
669.68	34422.26
669.82	34232.68
669.96	34515.88
670.10	34284.17
670.25	34586.10
670.39	34007.98
670.53	34225.65
670.67	34366.09
670.81	34483.11
670.95	34272.46
671.09	34188.21
671.23	34003.30
671.37	34085.22
671.51	33624.14
671.65	33722.44
671.79	33649.88
671.93	33916.70
672.07	33993.94
672.21	33287.10
672.35	33298.80
672.49	33631.16
672.63	33713.08
672.77	33305.82
672.91	33607.75
673.05	33170.07
673.19	33031.98
673.33	32730.05
673.47	32818.99
673.61	32931.34
673.75	32208.11
673.89	32811.97
674.03	32582.60
674.17	32699.62
674.31	32591.96
674.45	32093.43
674.59	32474.93
674.73	32016.19
674.87	31845.33
675.01	31889.80
675.15	31873.42
675.29	32002.14
675.43	31564.46
675.56	32114.49
675.70	31950.65
675.84	31704.90
675.98	30361.43
676.12	31019.12
676.26	31758.73
676.40	31424.03
676.54	30902.09
676.68	30569.74
676.82	30242.06
676.96	31145.51
677.10	30775.70
677.23	30796.77
677.37	31103.38
677.51	30705.49
677.65	30445.69
677.79	30466.75
677.93	30394.20
678.07	30323.98
678.21	29888.64
678.34	29886.30
678.48	29603.10
678.62	29944.81
678.76	29392.45
678.90	29380.74
679.04	29542.24
679.18	29743.53
679.31	29345.64
679.45	29270.74
679.59	28779.23
679.73	28968.81
679.87	29216.91
680.00	28968.81
680.14	28753.48
680.28	28835.40
680.42	28580.28
680.56	28357.93
680.70	28496.02
680.83	28540.49
680.97	28093.45
681.11	28140.26
681.25	28067.70
681.39	27550.45
681.52	27545.76
681.66	27646.41
681.80	27410.01
681.94	27138.51
682.07	27054.25
682.21	27316.39
682.35	27122.13
682.49	27068.30
682.62	27274.26
682.76	27445.12
682.90	26913.82
683.04	26944.25
683.17	27002.76
683.31	26553.38
683.45	26118.04
683.59	26403.58
683.72	26139.10
683.86	26160.17
684.00	26307.62
684.13	26335.71
684.27	26134.42
684.41	25729.51
684.55	26047.82
684.68	25940.16
684.82	25455.67
684.96	25682.70
685.09	25570.35
685.23	25656.95
685.37	26157.83
685.50	25429.92
685.64	25436.94
685.78	25270.76
685.91	25039.05
686.05	24418.81
686.19	24580.31
686.32	24322.85
686.46	24280.72
686.60	24294.76
686.73	24294.76
686.87	24463.28
687.01	24147.31
687.14	24238.59
687.28	24198.80
687.42	24299.44
687.55	23733.03
687.69	23534.09
687.82	23159.60
687.96	23405.36
688.10	23637.07
688.23	23632.39
688.37	23557.49
688.50	23587.92
688.64	23089.38
688.78	23063.64
688.91	23229.82
689.05	22752.35
689.18	22838.95
689.32	22457.44
689.46	22302.96
689.59	22494.89
689.73	22731.28
689.86	22616.60
690.00	22499.57
690.13	22106.36
690.27	21951.88
690.41	22265.52
690.54	21876.99
690.68	21961.25
690.81	21802.09
690.95	21823.16
691.08	21579.74
691.22	21642.93
691.35	21542.29
691.49	21603.14
691.62	21242.70
691.76	20856.51
691.89	20645.87
692.03	20816.72
692.16	20954.82
692.30	20816.72
692.43	20524.16
692.57	20484.37
692.70	20311.17
692.84	20262.02
692.97	20196.48
693.11	19885.19
693.24	19880.51
693.38	19784.55
693.51	20065.41
693.65	19829.02
693.78	19873.49
693.92	19562.20
694.05	19836.04
694.19	19407.72
694.32	19529.43
694.45	19601.99
694.59	19761.14
694.72	19414.74
694.86	19220.48
694.99	19227.50
695.13	18974.72
695.26	18558.11
695.39	18487.89
695.53	18609.60
695.66	18635.35
695.80	18693.86
695.93	19012.17
696.07	18146.17
696.20	18347.46
696.33	17940.21
696.47	17825.52
696.60	18192.98
696.73	17965.95
696.87	18314.69
697.00	18078.30
697.14	17542.32
697.27	17579.76
697.40	17535.29
697.54	17212.30
697.67	17654.66
697.80	17451.03
697.94	17336.35
698.07	17181.87
698.21	16793.34
698.34	16844.84
698.47	16699.72
698.61	16386.09
698.74	16692.70
698.87	16493.76
699.01	16409.50
699.14	16425.88
699.27	16617.80
699.40	16486.73
699.54	15880.53
699.67	16067.78
699.80	16411.84
699.94	16133.31
700.07	16133.31
700.20	16093.52
700.34	15878.19
700.47	15822.02
700.60	16229.27
700.73	15910.96
700.87	15676.91
701.00	15365.62
701.13	15286.04
701.26	15091.77
701.40	15360.94
701.53	15382.00
701.66	14916.23
701.79	14906.87
701.93	14789.85
702.06	14663.46
702.19	14988.79
702.32	14621.33
702.46	15077.73
702.59	14867.08
702.72	14946.66
702.85	14597.92
702.99	14415.36
703.12	14406.00
703.25	14607.28
703.38	14232.80
703.51	14092.37
703.65	13862.99
703.78	13923.85
703.91	13703.84
704.04	13813.84
704.17	13685.11
704.31	13687.45
704.44	13631.28
704.57	13699.16
704.70	13551.70
704.83	13603.19
704.96	13303.60
705.10	13319.99
705.23	13350.42
>>>>>End Processed Spectral Data<<<<<
