SpectraSuite Data File
++++++++++++++++++++++++++++++++++++
Date: Fri Oct 25 11:34:18 EDT 2013
User: price-jones
Dark Spectrum Present: No
Reference Spectrum Present: No
Number of Sampled Component Spectra: 1
Spectrometers: USB2+H05261
Integration Time (usec): 100000 (USB2+H05261)
Spectra Averaged: 1 (USB2+H05261)
Boxcar Smoothing: 0 (USB2+H05261)
Correct for Electrical Dark: No (USB2+H05261)
Strobe/Lamp Enabled: No (USB2+H05261)
Correct for Detector Non-linearity: No (USB2+H05261)
Correct for Stray Light: No (USB2+H05261)
Number of Pixels in Processed Spectrum: 2048
>>>>>Begin Processed Spectral Data<<<<<
365.73	290.23
365.92	290.23
366.12	290.23
366.32	161.50
366.52	154.48
366.72	163.84
366.91	212.99
367.11	203.63
367.31	168.52
367.51	187.24
367.70	156.82
367.90	236.39
368.10	154.48
368.30	245.76
368.49	217.67
368.69	227.03
368.89	222.35
369.09	126.39
369.28	241.08
369.48	243.42
369.68	241.08
369.87	250.44
370.07	212.99
370.27	241.08
370.47	299.59
370.66	451.72
370.86	456.40
371.06	557.05
371.25	550.03
371.45	496.19
371.65	578.11
371.84	519.60
372.04	519.60
372.24	559.39
372.44	543.00
372.63	582.79
372.83	580.45
373.03	580.45
373.22	636.63
373.42	599.18
373.62	641.31
373.81	622.58
374.01	589.82
374.21	648.33
374.40	678.76
374.60	685.78
374.79	664.71
374.99	648.33
375.19	643.65
375.38	690.46
375.58	620.24
375.78	727.91
375.97	650.67
376.17	755.99
376.37	641.31
376.56	662.37
376.76	648.33
376.95	678.76
377.15	674.07
377.35	664.71
377.54	664.71
377.74	683.44
377.93	662.37
378.13	706.84
378.33	648.33
378.52	734.93
378.72	704.50
378.91	760.67
379.11	725.57
379.31	638.97
379.50	650.67
379.70	826.21
379.89	744.29
380.09	746.63
380.28	662.37
380.48	777.06
380.68	716.20
380.87	727.91
381.07	753.65
381.26	758.33
381.46	716.20
381.65	713.86
381.85	781.74
382.04	786.42
382.24	720.88
382.43	814.51
382.63	739.61
382.83	748.97
383.02	821.53
383.22	851.96
383.41	767.70
383.61	753.65
383.80	704.50
384.00	828.55
384.19	763.01
384.39	854.30
384.58	779.40
384.78	830.89
384.97	758.33
385.17	868.34
385.36	744.29
385.56	770.04
385.75	816.85
385.95	849.61
386.14	849.61
386.34	798.12
386.53	821.53
386.72	889.40
386.92	901.11
387.11	887.06
387.31	833.23
387.50	917.49
387.70	854.30
387.89	919.83
388.09	903.45
388.28	802.80
388.48	901.11
388.67	882.38
388.86	887.06
389.06	973.66
389.25	999.41
389.45	912.81
389.64	905.79
389.84	973.66
390.03	997.07
390.22	985.37
390.42	936.21
390.61	880.04
390.81	987.71
391.00	947.92
391.19	994.73
391.39	997.07
391.58	1025.15
391.78	1060.26
391.97	1029.84
392.16	1039.20
392.36	1053.24
392.55	1015.79
392.75	1006.43
392.94	1025.15
393.13	1090.69
393.33	994.73
393.52	1109.41
393.71	1034.52
393.91	1071.97
394.10	1020.47
394.29	1158.57
394.49	1053.24
394.68	1149.20
394.88	1137.50
395.07	1181.97
395.26	1111.75
395.46	1109.41
395.65	1205.38
395.84	1114.10
396.04	1179.63
396.23	1149.20
396.42	1135.16
396.62	1270.91
396.81	1205.38
397.00	1125.80
397.19	1181.97
397.39	1252.19
397.58	1217.08
397.77	1226.44
397.97	1221.76
398.16	1245.16
398.35	1256.87
398.55	1160.91
398.74	1282.61
398.93	1329.42
399.12	1266.23
399.32	1317.72
399.51	1327.08
399.70	1306.02
399.90	1320.06
400.09	1341.13
400.28	1483.90
400.47	1373.89
400.67	1425.39
400.86	1341.13
401.05	1425.39
401.24	1338.79
401.44	1455.81
401.63	1418.36
401.82	1371.55
402.01	1416.02
402.21	1406.66
402.40	1526.03
402.59	1380.92
402.78	1441.77
402.97	1547.09
403.17	1523.69
403.36	1589.22
403.55	1526.03
403.74	1675.82
403.93	1575.18
404.13	1577.52
404.32	1605.61
404.51	1554.12
404.70	1678.16
404.89	1544.75
405.09	1565.82
405.28	1570.50
405.47	1586.88
405.66	1614.97
405.85	1657.10
406.05	1600.93
406.24	1685.19
406.43	1687.53
406.62	1739.02
406.81	1781.15
407.00	1661.78
407.20	1638.38
407.39	1739.02
407.58	1753.06
407.77	1844.34
407.96	1856.04
408.15	1853.70
408.34	1886.47
408.54	1870.09
408.73	1755.40
408.92	1834.98
409.11	1947.33
409.30	1863.07
409.49	1928.60
409.68	1998.82
409.87	1987.11
410.07	2026.90
410.26	1956.69
410.45	1987.11
410.64	1858.39
410.83	2040.95
411.02	2036.27
411.21	2085.42
411.40	2052.65
411.59	2157.97
411.78	2181.38
411.98	2115.84
412.17	2078.40
412.36	2176.70
412.55	2321.81
412.74	2307.77
412.93	2249.25
413.12	2291.38
413.31	2293.72
413.50	2314.79
413.69	2275.00
413.88	2424.80
414.07	2387.35
414.26	2452.88
414.45	2431.82
414.64	2434.16
414.83	2483.31
415.02	2567.57
415.22	2602.68
415.41	2633.10
415.60	2586.29
415.79	2560.55
415.98	2665.87
416.17	2780.56
416.36	2569.91
416.55	2633.10
416.74	2670.55
416.93	2640.12
417.12	2745.45
417.31	2874.18
417.50	2813.32
417.69	2888.22
417.88	2750.13
418.07	2736.09
418.26	2761.83
418.45	2853.11
418.64	3019.29
418.83	2953.76
419.02	2951.42
419.21	3054.40
419.39	3012.27
419.58	3002.91
419.77	3009.93
419.96	3049.72
420.15	3115.25
420.34	3012.27
420.53	3049.72
420.72	3159.72
420.91	3059.08
421.10	3204.19
421.29	3194.83
421.48	3012.27
421.67	3239.30
421.86	3227.60
422.05	3164.40
422.24	3173.77
422.43	3293.13
422.61	3229.94
422.80	3361.01
422.99	3262.71
423.18	3253.34
423.37	3449.95
423.56	3267.39
423.75	3302.50
423.94	3253.34
424.13	3133.98
424.32	3183.13
424.50	3386.76
424.69	3393.78
424.88	3583.36
425.07	3255.69
425.26	3428.88
425.45	3405.48
425.64	3236.96
425.83	3283.77
426.01	3426.54
426.20	3489.74
426.39	3487.40
426.58	3403.14
426.77	3391.44
426.96	3445.27
427.15	3353.99
427.33	3543.57
427.52	3445.27
427.71	3569.32
427.90	3412.50
428.09	3644.21
428.28	3503.78
428.46	3712.09
428.65	3478.04
428.84	3810.39
429.03	3648.90
429.22	3684.00
429.40	3688.68
429.59	3761.24
429.78	3651.24
429.97	3576.34
430.16	3588.04
430.34	3728.47
430.53	3838.48
430.72	3822.09
430.91	3803.37
431.10	3737.84
431.28	3817.41
431.47	3922.74
431.66	3866.56
431.85	3859.54
432.03	3948.48
432.22	4112.32
432.41	4058.49
432.60	3971.89
432.79	4091.26
432.97	3946.14
433.16	4142.75
433.35	3946.14
433.54	4046.79
433.72	4065.51
433.91	4037.42
434.10	3985.93
434.28	4042.11
434.47	4145.09
434.66	4119.34
434.85	4187.22
435.03	4219.99
435.22	4212.96
435.41	4231.69
435.59	4229.35
435.78	4351.06
435.97	4208.28
436.16	4278.50
436.34	4409.57
436.53	4362.76
436.72	4404.89
436.90	4250.41
437.09	4355.74
437.28	4332.33
437.46	4416.59
437.65	4622.56
437.84	4390.84
438.02	4425.95
438.21	4365.10
438.40	4479.79
438.58	4676.39
438.77	4641.28
438.96	4554.68
439.14	4697.46
439.33	4706.82
439.52	4802.78
439.70	4809.80
439.89	4901.08
440.08	4854.27
440.26	4903.42
440.45	4830.87
440.63	4891.72
440.82	5102.37
441.01	4917.47
441.19	5020.45
441.38	5188.97
441.57	5118.75
441.75	5231.10
441.94	5142.16
442.12	5291.95
442.31	5373.87
442.50	5186.63
442.68	5235.78
442.87	5284.93
443.05	5331.74
443.24	5362.17
443.43	5432.38
443.61	5301.31
443.80	5437.06
443.98	5275.57
444.17	5149.18
444.35	5359.83
444.54	5373.87
444.73	5427.70
444.91	5493.24
445.10	5500.26
445.28	5320.04
445.47	5542.39
445.65	5439.40
445.84	5479.19
446.02	5668.78
446.21	5603.24
446.39	5561.11
446.58	5511.96
446.77	5533.03
446.95	5481.53
447.14	5572.82
447.32	5713.25
447.51	5542.39
447.69	5561.11
447.88	5453.45
448.06	5738.99
448.25	5586.86
448.43	5717.93
448.62	5680.48
448.80	5554.09
448.99	5750.70
449.17	5619.63
449.36	5750.70
449.54	5797.51
449.73	5865.38
449.91	5865.38
450.10	5909.85
450.28	5970.71
450.46	5926.24
450.65	5902.83
450.83	6026.88
451.02	5933.26
451.20	6139.23
451.39	5886.45
451.57	5987.09
451.76	6099.44
451.94	6003.47
452.13	6010.50
452.31	6129.86
452.49	6157.95
452.68	6214.12
452.86	6155.61
453.05	6164.97
453.23	6328.81
453.42	6148.59
453.60	6146.25
453.78	6099.44
453.97	6279.66
454.15	6239.87
454.34	6085.39
454.52	6314.77
454.70	6494.99
454.89	6286.68
455.07	6366.26
455.26	6583.93
455.44	6480.94
455.62	6619.04
455.81	6431.79
455.99	6586.27
456.17	6541.80
456.36	6574.56
456.54	6602.65
456.73	6668.19
456.91	6768.83
457.09	6815.64
457.28	6913.94
457.46	6766.49
457.64	6904.58
457.83	6780.53
458.01	6761.81
458.19	7103.53
458.38	6895.22
458.56	6963.09
458.74	7101.19
458.93	6899.90
459.11	6899.90
459.29	7073.10
459.48	7143.32
459.66	7108.21
459.84	7274.38
460.03	7288.43
460.21	7124.59
460.39	7213.53
460.57	7110.55
460.76	7061.40
460.94	7328.22
461.12	7225.23
461.31	7157.36
461.49	7328.22
461.67	7414.82
461.85	7538.87
462.04	7281.41
462.22	7880.58
462.40	7536.52
462.59	7637.17
462.77	7531.84
462.95	7510.78
463.13	7428.86
463.32	7494.40
463.50	7702.70
463.68	7627.81
463.86	7789.30
464.05	7674.62
464.23	7501.42
464.41	7648.87
464.59	7442.90
464.78	7801.01
464.96	7793.98
465.14	7557.59
465.32	7857.18
465.50	7845.48
465.69	7922.71
465.87	8002.29
466.05	8030.38
466.23	7878.24
466.41	8028.04
466.60	7918.03
466.78	7915.69
466.96	7873.56
467.14	8084.21
467.32	7765.90
467.51	8051.44
467.69	7992.93
467.87	8060.80
468.05	8170.81
468.23	7953.14
468.41	8142.72
468.60	8142.72
468.78	8404.86
468.96	8187.19
469.14	8465.72
469.32	8334.65
469.50	8215.28
469.69	8528.91
469.87	8402.52
470.05	8353.37
470.23	8397.84
470.41	8542.96
470.59	8601.47
470.77	8751.26
470.95	8779.35
471.14	8725.52
471.32	8631.90
471.50	8678.71
471.68	8828.50
471.86	8784.03
472.04	9041.49
472.22	8961.91
472.40	8798.07
472.58	8835.52
472.77	8947.87
472.95	9078.94
473.13	9359.80
473.31	8961.91
473.49	9249.80
473.67	9100.00
473.85	9287.25
474.03	9624.28
474.21	9334.06
474.39	9523.64
474.57	9596.20
474.75	9479.17
474.93	9729.61
475.12	9650.03
475.30	9762.37
475.48	9710.88
475.66	9837.27
475.84	9778.76
476.02	9790.46
476.20	9844.29
476.38	10237.50
476.56	10356.87
476.74	10207.08
476.92	10246.87
477.10	10249.21
477.28	10162.61
477.46	10228.14
477.64	10476.24
477.82	10677.52
478.00	10902.22
478.18	10640.08
478.36	10846.04
478.54	10995.84
478.72	11126.91
478.90	10906.90
479.08	11201.80
479.26	11260.32
479.44	11337.56
479.62	11304.79
479.80	11597.35
479.98	11719.06
480.16	11943.75
480.34	11756.51
480.52	11789.28
480.70	11988.22
480.88	11826.73
481.06	11908.65
481.24	11957.80
481.41	12449.31
481.59	12472.71
481.77	12425.90
481.95	12468.03
482.13	12617.83
482.31	12451.65
482.49	12835.50
482.67	12830.82
482.85	12973.59
483.03	13209.98
483.21	13462.76
483.39	13294.24
483.57	13212.32
483.74	13352.76
483.92	13675.75
484.10	13558.72
484.28	13722.56
484.46	13940.23
484.64	14223.44
484.82	14024.49
485.00	14375.57
485.18	14317.06
485.35	14520.68
485.53	14743.03
485.71	14562.81
485.89	15047.30
486.07	14850.70
486.25	15164.33
486.43	14977.09
486.61	15012.20
486.78	15360.94
486.96	15309.44
487.14	15655.84
487.32	15569.24
487.50	15604.35
487.68	15704.99
487.85	15805.64
488.03	16276.09
488.21	16542.91
488.39	16458.65
488.57	16812.07
488.75	16610.78
488.92	16849.52
489.10	16889.31
489.28	16989.95
489.46	17153.79
489.64	17289.54
489.81	18068.94
489.99	17362.09
490.17	17479.12
490.35	17717.86
490.53	17872.33
490.70	18312.35
490.88	18104.04
491.06	18345.12
491.24	18300.65
491.41	18630.66
491.59	18504.28
491.77	18398.95
491.95	18871.74
492.13	19302.40
492.30	19094.09
492.48	19208.78
492.66	19220.48
492.84	19218.14
493.01	19948.39
493.19	19634.75
493.37	19927.32
493.54	19681.56
493.72	20168.40
493.90	20039.67
494.08	20095.84
494.25	20346.28
494.43	20322.87
494.61	20561.61
494.79	20685.65
494.96	20386.07
495.14	20966.52
495.32	20769.91
495.49	20798.00
495.67	21104.61
495.85	21184.19
496.02	21553.99
496.20	21598.46
496.38	21830.18
496.55	21795.07
496.73	22284.24
496.91	21954.22
497.09	22190.62
497.26	22293.60
497.44	21900.39
497.62	22394.25
497.79	22541.70
497.97	22403.61
498.14	22848.31
498.32	23140.88
498.50	22663.41
498.67	23049.60
498.85	23145.56
499.03	23323.44
499.20	23550.47
499.38	23501.32
499.56	23412.38
499.73	23733.03
499.91	23730.69
500.08	23967.09
500.26	23985.81
500.44	23889.85
500.61	24063.05
500.79	23892.19
500.97	24194.12
501.14	24540.52
501.32	24587.33
501.49	24936.07
501.67	24727.76
501.84	24786.27
502.02	24629.46
502.20	24912.66
502.37	24821.38
502.55	24875.21
502.72	25280.13
502.90	25207.57
503.07	25460.35
503.25	25465.03
503.43	25177.14
503.60	25642.91
503.78	25340.98
503.95	25628.87
504.13	25993.99
504.30	26040.80
504.48	26061.87
504.65	25958.88
504.83	26544.02
505.01	26583.80
505.18	26286.56
505.36	26672.74
505.53	26518.27
505.71	26473.80
505.88	26700.83
506.06	26803.82
506.23	26464.44
506.41	26988.72
506.58	26939.57
506.76	26778.07
506.93	27168.94
507.11	26984.04
507.28	27080.00
507.46	27314.05
507.63	27435.76
507.81	27826.63
507.98	27309.37
508.16	27393.63
508.33	27740.03
508.50	27737.69
508.68	27852.38
508.85	27988.13
509.03	27971.74
509.20	27763.43
509.38	28271.33
509.55	28222.18
509.73	28278.35
509.90	28622.41
510.08	28580.28
510.25	28706.67
510.42	28641.14
510.60	28903.28
510.77	28922.00
510.95	29544.58
511.12	28912.64
511.30	29069.45
511.47	29305.85
511.64	29104.56
511.82	28954.77
511.99	28961.79
512.17	29532.88
512.34	29586.71
512.51	30017.37
512.69	29532.88
512.86	29663.95
513.04	30314.62
513.21	30071.20
513.38	30464.41
513.56	30403.56
513.73	30033.75
513.90	30335.68
514.08	30068.86
514.25	30794.43
514.43	30529.95
514.60	30593.14
514.77	30387.18
514.95	31079.97
515.12	30625.91
515.29	30682.08
515.47	31007.42
515.64	30927.84
515.81	31075.29
515.99	31063.59
516.16	31232.11
516.33	31445.10
516.51	31222.75
516.68	31564.46
516.85	31943.63
517.03	31449.78
517.20	31892.14
517.37	31646.38
517.54	31672.13
517.72	31789.16
517.89	31892.14
518.06	31702.56
518.24	32222.16
518.41	31922.57
518.58	32053.64
518.75	31995.12
518.93	32301.73
519.10	32142.58
519.27	32383.65
519.45	32362.59
519.62	32479.61
519.79	32786.22
519.96	32772.18
520.14	33127.94
520.31	32617.71
520.48	33064.75
520.65	33083.47
520.83	33399.44
521.00	33537.54
521.17	33149.01
521.34	33308.16
521.52	33392.42
521.69	33638.18
521.86	33624.14
522.03	33748.18
522.20	33467.32
522.38	34117.99
522.55	34087.56
522.72	33811.38
522.89	34132.03
523.07	34513.54
523.24	34110.97
523.41	34146.08
523.58	34085.22
523.75	34398.85
523.92	34497.16
524.10	34410.56
524.27	34462.05
524.44	34307.57
524.61	34677.38
524.78	34558.01
524.96	34794.40
525.13	34930.16
525.30	35068.25
525.47	34871.64
525.64	35154.85
525.81	34998.03
525.98	35070.59
526.16	35056.54
526.33	35086.97
526.50	35629.98
526.67	35456.78
526.84	35274.21
527.01	35250.81
527.18	35892.12
527.36	35749.34
527.53	35421.67
527.70	35838.28
527.87	36156.60
528.04	35840.62
528.21	35742.32
528.38	35711.89
528.55	35983.40
528.72	35908.50
528.89	35784.45
529.07	36100.42
529.24	36070.00
529.41	36545.12
529.58	36512.36
529.75	36381.29
529.92	36306.39
530.09	36364.90
530.26	36519.38
530.43	36830.67
530.60	36392.99
530.77	36203.41
530.94	36938.33
531.11	36610.66
531.28	36842.37
531.46	37060.04
531.63	37113.87
531.80	36643.43
531.97	36926.63
532.14	37298.78
532.31	37099.83
532.48	37589.00
532.65	37013.23
532.82	37308.14
532.99	37549.21
533.16	37113.87
533.33	37483.68
533.50	37542.19
533.67	38092.22
533.84	37455.59
534.01	38061.79
534.18	38150.73
534.35	38171.80
534.52	37790.29
534.69	38064.13
534.86	38363.72
535.03	37963.49
535.20	37926.04
535.37	37809.01
535.54	38534.58
535.71	38115.62
535.88	38246.69
536.05	38440.96
536.22	38543.94
536.38	38738.21
536.55	38143.71
536.72	38300.53
536.89	38127.33
537.06	38572.03
537.23	39005.03
537.40	38073.49
537.57	38792.04
537.74	38508.83
537.91	39009.71
538.08	39154.82
538.25	38667.99
538.42	39112.69
538.59	39285.89
538.75	38773.31
538.92	39302.28
539.09	39627.61
539.26	39246.10
539.43	39571.44
539.60	39409.94
539.77	39203.97
539.94	39871.03
540.11	39304.62
540.28	39239.08
540.44	39634.63
540.61	39526.97
540.78	39878.05
540.95	39531.65
541.12	39611.23
541.29	39651.02
541.46	39679.10
541.62	39660.38
541.79	40107.42
541.96	40112.10
542.13	39658.04
542.30	39805.49
542.47	39999.76
542.63	40259.55
542.80	40914.90
542.97	40603.61
543.14	40673.83
543.31	40364.88
543.48	40306.37
543.64	40802.56
543.81	41141.94
543.98	40704.26
544.15	40645.74
544.32	41263.64
544.48	40931.29
544.65	41228.54
544.82	41338.54
544.99	40535.74
545.16	41024.91
545.32	40973.42
545.49	41305.77
545.66	41474.29
545.83	41020.23
546.00	41076.40
546.16	41064.70
546.33	41034.27
546.50	41556.21
546.67	41422.80
546.83	40481.91
547.00	41275.35
547.17	41193.43
547.34	41317.48
547.50	41303.43
547.67	41579.62
547.84	41514.08
548.00	41591.32
548.17	42085.17
548.34	41642.81
548.51	42312.20
548.67	42340.29
548.84	42218.58
549.01	41701.32
549.18	42169.43
549.34	42010.28
549.51	42150.71
549.68	42300.50
549.84	41406.42
550.01	42642.22
550.18	41717.71
550.34	42220.92
550.51	42167.09
550.68	42567.32
550.84	41851.12
551.01	42710.10
551.18	41874.52
551.34	42670.31
551.51	42410.51
551.68	42213.90
551.84	42384.76
552.01	42462.00
552.18	42799.04
552.34	42899.68
552.51	42784.99
552.68	42550.94
552.84	42440.93
553.01	43304.59
553.18	43225.01
553.34	42911.38
553.51	42710.10
553.67	43068.20
553.84	43290.55
554.01	43208.63
554.17	42864.57
554.34	43084.58
554.51	43241.40
554.67	43445.02
554.84	43107.99
555.00	43133.73
555.17	43208.63
555.33	43339.70
555.50	43372.47
555.67	43442.68
555.83	43487.15
556.00	43917.81
556.16	43756.32
556.33	43775.04
556.50	43412.26
556.66	43524.60
556.83	43421.62
556.99	43812.49
557.16	43646.31
557.32	43627.59
557.49	43959.94
557.65	43365.45
557.82	43569.07
557.98	43599.50
558.15	43782.06
558.32	44041.86
558.48	43274.16
558.65	43927.17
558.81	44137.82
558.98	43653.33
559.14	43826.53
559.31	43849.94
559.47	43761.00
559.64	44058.24
559.80	43899.09
559.97	44102.71
560.13	43964.62
560.30	44126.12
560.46	44406.98
560.63	44336.77
560.79	44266.55
560.96	44254.85
561.12	44327.41
561.29	44786.15
561.45	44219.74
561.61	44278.25
561.78	44133.14
561.94	44491.24
562.11	44411.67
562.27	44156.55
562.44	44552.10
562.60	44755.72
562.77	44694.87
562.93	44406.98
563.10	44605.93
563.26	44245.49
563.42	45083.40
563.59	44219.74
563.75	44516.99
563.92	44505.29
564.08	44392.94
564.24	44500.61
564.41	44456.14
564.57	44624.65
564.74	44903.18
564.90	44172.93
565.07	44406.98
565.23	44275.91
565.39	44790.83
565.56	45092.76
565.72	44542.74
565.88	44863.39
566.05	44980.42
566.21	44774.45
566.38	44996.80
566.54	45003.82
566.70	44854.03
566.87	45029.57
567.03	44664.44
567.19	45488.31
567.36	44460.82
567.52	45244.90
567.68	45216.81
567.85	44924.24
568.01	45284.68
568.17	45120.85
568.34	45153.62
568.50	45102.12
568.66	45064.67
568.83	45045.95
568.99	45277.66
569.15	45144.25
569.32	45223.83
569.48	45092.76
569.64	45249.58
569.81	45195.74
569.97	45202.77
570.13	45132.55
570.30	45221.49
570.46	45500.01
570.62	45701.30
570.78	45375.97
570.95	45172.34
571.11	45773.86
571.27	45535.12
571.43	44931.26
571.60	45436.82
571.76	45570.23
571.92	45275.32
572.09	45490.65
572.25	45247.24
572.41	45202.77
572.57	45607.68
572.74	45642.79
572.90	45558.53
573.06	45668.53
573.22	45806.62
573.38	45605.34
573.55	45401.71
573.71	45628.74
573.87	45523.42
574.03	45626.40
574.20	45705.98
574.36	45684.92
574.52	46237.28
574.68	45986.85
574.84	45673.21
575.01	45504.70
575.17	45977.48
575.33	45670.87
575.49	45628.74
575.65	45897.91
575.82	45872.16
575.98	45956.42
576.14	46038.34
576.30	46202.18
576.46	45673.21
576.62	45619.38
576.79	45703.64
576.95	45556.19
577.11	45542.14
577.27	45528.10
577.43	45883.86
577.59	45614.70
577.75	45558.53
577.92	45595.98
578.08	45984.51
578.24	45446.18
578.40	45916.63
578.56	45579.59
578.72	45731.73
578.88	45933.01
579.04	45984.51
579.21	45797.26
579.37	45696.62
579.53	45593.64
579.69	45897.91
579.85	45523.42
580.01	45942.38
580.17	45815.99
580.33	46220.90
580.49	45820.67
580.65	46082.81
580.82	45691.94
580.98	45715.34
581.14	45633.42
581.30	45661.51
581.46	45612.36
581.62	45092.76
581.78	45516.40
581.94	45823.01
582.10	45883.86
582.26	46321.54
582.42	45904.93
582.58	46408.14
582.74	46335.59
582.90	45750.45
583.06	45895.56
583.22	45970.46
583.38	46220.90
583.54	46085.15
583.70	45851.09
583.86	46258.35
584.02	45645.13
584.18	46487.72
584.34	46143.66
584.50	45961.10
584.66	46019.61
584.82	45851.09
584.98	46529.85
585.14	45886.20
585.30	45963.44
585.46	45860.46
585.62	45855.78
585.78	46103.87
585.94	45567.89
586.10	45579.59
586.26	45940.04
586.42	46223.24
586.58	46089.83
586.74	45698.96
586.90	45998.55
587.06	46141.32
587.22	46368.35
587.38	46438.57
587.54	46674.96
587.70	46696.03
587.86	46309.84
588.02	46267.71
588.18	45911.95
588.34	46426.87
588.49	46178.77
588.65	45808.96
588.81	46433.89
588.97	46263.03
589.13	46078.13
589.29	46279.41
589.45	46328.56
589.61	46700.71
589.77	46265.37
589.93	46232.60
590.08	46443.25
590.24	46501.76
590.40	46543.89
590.56	46679.64
590.72	46553.26
590.88	46424.53
591.04	46405.80
591.20	46754.54
591.35	46461.97
591.51	46759.22
591.67	46581.34
591.83	46700.71
591.99	46623.47
592.15	46763.90
592.31	46398.78
592.46	46209.20
592.62	46660.92
592.78	46691.35
592.94	46892.63
593.10	46623.47
593.26	46461.97
593.41	46686.67
593.57	46679.64
593.73	46588.36
593.89	46958.17
594.05	46724.11
594.20	46574.32
594.36	47014.34
594.52	46990.94
594.68	46967.53
594.84	46461.97
594.99	47253.08
595.15	46920.72
595.31	46827.10
595.47	46775.61
595.62	47002.64
595.78	46885.61
595.94	46557.94
596.10	46770.93
596.25	47126.69
596.41	47330.31
596.57	46382.40
596.73	47192.22
596.88	46745.18
597.04	47276.48
597.20	46890.29
597.36	46944.12
597.51	47098.60
597.67	46653.90
597.83	46930.08
597.99	46571.98
598.14	46478.36
598.30	46911.36
598.46	46398.78
598.61	46834.12
598.77	46817.74
598.93	47175.84
599.09	46885.61
599.24	47227.33
599.40	46986.25
599.56	47384.15
599.71	47496.49
599.87	47384.15
600.03	47119.66
600.18	46855.18
600.34	47000.30
600.50	47091.58
600.65	47093.92
600.81	47239.03
600.97	47250.74
601.12	47107.96
601.28	46564.96
601.44	47157.11
601.59	46983.91
601.75	46995.62
601.91	47290.52
602.06	46775.61
602.22	47138.39
602.37	47199.24
602.53	46564.96
602.69	47140.73
602.84	46597.73
603.00	46941.78
603.16	46780.29
603.31	47145.41
603.47	47505.85
603.62	47229.67
603.78	47105.62
603.94	47323.29
604.09	46925.40
604.25	46993.28
604.40	46986.25
604.56	46731.14
604.71	46799.01
604.87	46752.20
605.03	46431.55
605.18	46894.97
605.34	46684.33
605.49	46527.51
605.65	46817.74
605.80	47091.58
605.96	46593.04
606.12	46845.82
606.27	46761.56
606.43	46501.76
606.58	46974.55
606.74	46569.64
606.89	46787.31
607.05	46927.74
607.20	46773.27
607.36	47040.09
607.51	47220.31
607.67	46745.18
607.82	46960.51
607.98	46562.62
608.13	46677.30
608.29	46607.09
608.44	46822.42
608.60	46113.23
608.75	46712.41
608.91	46703.05
609.06	46536.87
609.22	46817.74
609.37	46560.28
609.53	47091.58
609.68	46803.69
609.84	47105.62
609.99	46358.99
610.15	46733.48
610.30	46485.38
610.46	46471.34
610.61	46504.10
610.76	46251.33
610.92	46225.58
611.07	46192.81
611.23	46330.90
611.38	46337.93
611.54	46330.90
611.69	46478.36
611.84	46782.63
612.00	46337.93
612.15	46298.14
612.31	46569.64
612.46	46045.36
612.62	46401.12
612.77	46422.19
612.92	46639.86
613.08	46712.41
613.23	46504.10
613.39	46548.57
613.54	46143.66
613.69	46160.05
613.85	46335.59
614.00	46127.28
614.15	46412.82
614.31	45682.58
614.46	46237.28
614.62	46260.69
614.77	45907.27
614.92	45855.78
615.08	45989.19
615.23	46265.37
615.38	46377.72
615.54	46085.15
615.69	46330.90
615.84	46045.36
616.00	45996.21
616.15	46241.96
616.30	46134.30
616.46	46272.39
616.61	45944.72
616.76	45993.87
616.92	46150.68
617.07	45757.47
617.22	45909.61
617.37	45532.78
617.53	45689.60
617.68	46031.32
617.83	45680.24
617.99	46803.69
618.14	45853.44
618.29	45542.14
618.45	45462.57
618.60	45762.15
618.75	45268.30
618.90	45958.76
619.06	45455.54
619.21	45497.67
619.36	45830.03
619.51	45427.46
619.67	45481.29
619.82	45558.53
619.97	45570.23
620.12	45724.71
620.28	45113.83
620.43	45832.37
620.58	45572.57
620.73	45443.84
620.89	45478.95
621.04	45471.93
621.19	45666.19
621.34	45558.53
621.49	45219.15
621.65	45343.20
621.80	45535.12
621.95	45748.11
622.10	45806.62
622.25	45464.91
622.41	44935.95
622.56	45563.21
622.71	45277.66
622.86	45212.13
623.01	45305.75
623.16	45141.91
623.32	45177.02
623.47	45240.21
623.62	45106.80
623.77	44961.69
623.92	45366.60
624.07	45104.46
624.23	45170.00
624.38	45280.00
624.53	44919.56
624.68	45095.10
624.83	44737.00
624.98	45289.37
625.13	44964.03
625.29	44596.57
625.44	44861.05
625.59	44825.94
625.74	44772.11
625.89	44694.87
626.04	44704.23
626.19	45006.16
626.34	44381.24
626.49	44465.50
626.65	44514.65
626.80	44641.04
626.95	44252.51
627.10	44376.56
627.25	44697.21
627.40	44699.55
627.55	44896.16
627.70	44287.62
627.85	44591.89
628.00	44573.16
628.15	44439.75
628.30	43861.64
628.45	43889.73
628.60	43847.60
628.76	44027.82
628.91	44313.36
629.06	43927.17
629.21	44196.34
629.36	43910.79
629.51	44170.59
629.66	44212.72
629.81	44083.99
629.96	44243.15
630.11	43995.05
630.26	43819.51
630.41	44198.68
630.56	43564.39
630.71	44135.48
630.86	44165.91
631.01	43906.11
631.16	43962.28
631.31	43978.67
631.46	43395.87
631.61	44058.24
631.76	43672.06
631.91	43992.71
632.06	43732.91
632.21	43908.45
632.36	44280.60
632.51	43463.75
632.66	43643.97
632.81	43428.64
632.96	43906.11
633.10	43531.62
633.25	43608.86
633.40	43232.04
633.55	43758.66
633.70	43636.95
633.85	43594.82
634.00	43269.48
634.15	43302.25
634.30	43828.87
634.45	42976.92
634.60	43849.94
634.75	43622.90
634.90	42775.63
635.05	43768.02
635.19	42829.46
635.34	43786.74
635.49	43648.65
635.64	43065.86
635.79	43487.15
635.94	43133.73
636.09	43122.03
636.24	43154.80
636.39	43360.76
636.53	43061.18
636.68	42829.46
636.83	42494.77
636.98	42895.00
637.13	42581.37
637.28	42600.09
637.43	42759.25
637.57	42876.27
637.72	42796.70
637.87	42983.94
638.02	43164.16
638.17	42522.85
638.32	42658.60
638.46	42916.06
638.61	42534.56
638.76	42574.34
638.91	42951.17
639.06	42689.03
639.20	42415.19
639.35	42330.93
639.50	42419.87
639.65	42665.63
639.80	42504.13
639.94	42726.48
640.09	42424.55
640.24	42616.47
640.39	42490.09
640.54	42384.76
640.68	42146.03
640.83	42569.66
640.98	42431.57
641.13	41944.74
641.27	42464.34
641.42	42382.42
641.57	41958.78
641.72	42525.19
641.86	41907.29
642.01	41670.90
642.16	42361.36
642.31	41598.34
642.45	42078.15
642.60	41865.16
642.75	42007.94
642.90	42021.98
643.04	42431.57
643.19	41516.42
643.34	41628.77
643.48	41661.54
643.63	41319.82
643.78	41743.45
643.93	41766.86
644.07	41928.36
644.22	41930.70
644.37	42024.32
644.51	41710.69
644.66	41738.77
644.81	41654.51
644.95	41467.27
645.10	41944.74
645.25	41708.35
645.39	41338.54
645.54	41560.89
645.69	41120.87
645.83	41511.74
645.98	41378.33
646.13	41497.70
646.27	41354.93
646.42	41275.35
646.57	41401.74
646.71	41249.60
646.86	41825.37
647.00	41380.67
647.15	41523.44
647.30	41567.91
647.44	41390.03
647.59	41209.81
647.74	41081.08
647.88	41511.74
648.03	41509.40
648.17	41155.98
648.32	41441.53
648.47	41588.98
648.61	40793.20
648.76	41097.47
648.90	40809.58
649.05	41111.51
649.20	40959.38
649.34	41357.27
649.49	40980.44
649.63	41247.26
649.78	41160.66
649.92	41205.13
650.07	41336.20
650.21	41071.72
650.36	41254.28
650.51	40783.83
650.65	41303.43
650.80	41263.64
650.94	40769.79
651.09	40769.79
651.23	40397.65
651.38	40701.92
651.52	40264.24
651.67	40547.44
651.81	40795.54
651.96	40292.32
652.10	40156.57
652.25	40519.35
652.39	40339.13
652.54	40222.11
652.68	40622.34
652.83	40388.28
652.97	40631.70
653.12	40617.66
653.26	40467.86
653.41	39917.84
653.55	39988.05
653.70	40566.16
653.84	40753.41
653.99	40603.61
654.13	40650.42
654.27	40044.23
654.42	40481.91
654.56	40184.66
654.71	40194.02
654.85	40325.09
655.00	39976.35
655.14	40280.62
655.29	40657.45
655.43	40779.15
655.57	39952.94
655.72	39482.50
655.86	39793.79
656.01	39622.93
656.15	39555.05
656.30	39978.69
656.44	40149.55
656.58	40020.82
656.73	39859.32
656.87	39601.86
657.01	39814.85
657.16	39819.53
657.30	39519.95
657.45	39349.09
657.59	39208.65
657.73	39480.16
657.88	39407.60
658.02	39889.75
658.16	39676.76
658.31	39222.70
658.45	39700.17
658.60	39381.85
658.74	39400.58
658.88	39346.75
659.03	38965.24
659.17	39386.54
659.31	38682.03
659.46	38902.04
659.60	39014.39
659.74	39084.61
659.89	38616.50
660.03	38347.34
660.17	38775.66
660.32	38789.70
660.46	38885.66
660.60	38213.93
660.74	38511.17
660.89	38768.63
661.03	38321.59
661.17	38354.36
661.32	38417.55
661.46	38700.76
661.60	38323.93
661.74	38164.78
661.89	38249.03
662.03	37942.42
662.17	38574.37
662.31	37816.04
662.46	38225.63
662.60	38117.96
662.74	37694.33
662.88	37764.54
663.03	37516.45
663.17	37504.74
663.31	37514.11
663.45	37736.46
663.60	37813.70
663.74	37811.35
663.88	37560.92
664.02	37340.91
664.17	37804.33
664.31	37184.09
664.45	37689.65
664.59	37572.62
664.73	36940.68
664.88	37263.67
665.02	37191.11
665.16	37017.91
665.30	37069.40
665.44	37291.76
665.59	36825.99
665.73	36840.03
665.87	36486.61
666.01	36781.52
666.15	36774.50
666.29	36947.70
666.44	36760.45
666.58	36781.52
666.72	36343.84
666.86	36664.49
667.00	36161.28
667.14	36151.91
667.28	36643.43
667.43	36212.77
667.57	36275.96
667.71	36577.89
667.85	36552.15
667.99	36257.24
668.13	35894.46
668.27	35421.67
668.41	35669.76
668.56	35473.16
668.70	35110.38
668.84	35342.09
668.98	35447.41
669.12	35414.65
669.26	35709.55
669.40	35676.79
669.54	35332.73
669.68	35744.66
669.82	35063.57
669.96	35051.86
670.10	34817.81
670.25	35297.62
670.39	35124.42
670.53	35250.81
670.67	35194.64
670.81	34932.50
670.95	35044.84
671.09	34866.96
671.23	34555.67
671.37	34738.23
671.51	34829.51
671.65	34237.36
671.79	34281.83
671.93	34260.76
672.07	34675.04
672.21	34099.26
672.35	33902.66
672.49	34202.25
672.63	34103.95
672.77	33565.62
672.91	34146.08
673.05	33972.88
673.19	33996.28
673.33	33563.28
673.47	33462.64
673.61	32996.87
673.75	33476.68
673.89	32978.15
674.03	32779.20
674.17	32856.44
674.31	33113.90
674.45	32884.53
674.59	32973.47
674.73	32730.05
674.87	32568.55
675.01	32259.60
675.15	32254.92
675.29	32252.58
675.43	32400.04
675.56	32535.79
675.70	32243.22
675.84	31838.31
675.98	31318.71
676.12	32163.64
676.26	32156.62
676.40	31686.17
676.54	31559.78
676.68	31290.62
676.82	31304.67
676.96	31536.38
677.10	31812.56
677.23	31255.51
677.37	31236.79
677.51	31402.97
677.65	31307.01
677.79	30558.03
677.93	31309.35
678.07	30796.77
678.21	30499.52
678.34	30630.59
678.48	30277.17
678.62	30438.67
678.76	30000.99
678.90	30047.80
679.04	30192.91
679.18	30422.28
679.31	29649.91
679.45	29734.17
679.59	29626.50
679.73	29441.60
679.87	29429.90
680.00	29584.37
680.14	29659.27
680.28	29563.31
680.42	29205.20
680.56	28690.29
680.70	28758.16
680.83	28723.05
680.97	28601.35
681.11	28725.39
681.25	28519.43
681.39	28116.86
681.52	28411.76
681.66	28091.11
681.80	27824.29
681.94	27875.78
682.07	27695.56
682.21	27543.42
682.35	27433.42
682.49	27859.40
682.62	27639.39
682.76	27606.62
682.90	27805.56
683.04	27522.36
683.17	27410.01
683.31	27300.01
683.45	26710.19
683.59	26623.59
683.72	26932.54
683.86	26565.08
684.00	26487.84
684.13	26754.66
684.27	26607.21
684.41	26134.42
684.55	26408.26
684.68	26080.59
684.82	25940.16
684.96	26157.83
685.09	25996.33
685.23	25991.65
685.37	26237.41
685.50	26373.16
685.64	26221.02
685.78	25596.10
685.91	25305.87
686.05	25228.63
686.19	24837.76
686.32	25275.45
686.46	25071.82
686.60	24482.00
686.73	24985.22
686.87	24718.40
687.01	24938.41
687.14	24526.47
687.28	24774.57
687.42	24397.74
687.55	24369.66
687.69	24318.17
687.82	24219.86
687.96	23840.70
688.10	24156.67
688.23	24037.30
688.37	23981.13
688.50	23985.81
688.64	23669.84
688.78	23562.17
688.91	23498.98
689.05	23431.10
689.18	23473.23
689.32	22911.50
689.46	22895.12
689.59	23009.81
689.73	23194.71
689.86	23023.85
690.00	22813.20
690.13	22869.37
690.27	22436.38
690.41	22679.79
690.54	22307.65
690.68	22192.96
690.81	22321.69
690.95	21862.94
691.08	21907.41
691.22	21558.67
691.35	21741.24
691.49	22216.36
691.62	21795.07
691.76	21628.89
691.89	21315.26
692.03	21135.04
692.16	21202.91
692.30	21205.25
692.43	21174.83
692.57	20851.83
692.70	20821.41
692.84	21076.52
692.97	20542.88
693.11	20645.87
693.24	20472.67
693.38	20350.96
693.51	20475.01
693.65	20140.31
693.78	20081.80
693.92	20079.46
694.05	20039.67
694.19	19784.55
694.32	19962.43
694.45	19964.77
694.59	20006.90
694.72	19740.08
694.86	19538.79
694.99	19304.74
695.13	19126.86
695.26	19091.75
695.39	19138.56
695.53	18799.18
695.66	19288.35
695.80	18853.02
695.93	19243.88
696.07	19119.84
696.20	18352.14
696.33	18270.22
696.47	18132.13
696.60	18202.35
696.73	18363.84
696.87	18555.77
697.00	18207.03
697.14	17977.65
697.27	18057.23
697.40	18059.57
697.54	17898.08
697.67	17678.07
697.80	17799.77
697.94	17481.46
698.07	17312.94
698.21	17436.99
698.34	17406.56
698.47	17341.03
698.61	17238.05
698.74	17036.76
698.87	16751.21
699.01	16863.56
699.14	17128.04
699.27	16645.89
699.40	16554.61
699.54	16814.41
699.67	16475.03
699.80	16734.83
699.94	16372.05
700.07	16287.79
700.20	16130.97
700.34	15964.79
700.47	16030.33
700.60	16400.13
700.73	15974.16
700.87	16011.60
701.00	15662.86
701.13	15735.42
701.26	15784.57
701.40	15407.75
701.53	15386.68
701.66	15445.20
701.79	15475.62
701.93	15431.15
702.06	15255.61
702.19	15171.35
702.32	15101.14
702.46	15145.61
702.59	14864.74
702.72	15084.75
702.85	14679.84
702.99	14710.27
703.12	14602.60
703.25	14693.88
703.38	14321.74
703.51	14363.87
703.65	14555.79
703.78	14054.92
703.91	14162.58
704.04	14274.93
704.17	13884.06
704.31	13891.08
704.44	13687.45
704.57	13851.29
704.70	13907.46
704.83	13504.89
704.96	13846.61
705.10	13502.55
705.23	13518.93
>>>>>End Processed Spectral Data<<<<<
