SpectraSuite Data File
++++++++++++++++++++++++++++++++++++
Date: Fri Oct 25 10:44:03 EDT 2013
User: price-jones
Dark Spectrum Present: No
Reference Spectrum Present: No
Number of Sampled Component Spectra: 1
Spectrometers: USB2+H05261
Integration Time (usec): 100000 (USB2+H05261)
Spectra Averaged: 1 (USB2+H05261)
Boxcar Smoothing: 0 (USB2+H05261)
Correct for Electrical Dark: No (USB2+H05261)
Strobe/Lamp Enabled: No (USB2+H05261)
Correct for Detector Non-linearity: No (USB2+H05261)
Correct for Stray Light: No (USB2+H05261)
Number of Pixels in Processed Spectrum: 2048
>>>>>Begin Processed Spectral Data<<<<<
365.73	152.13
365.92	152.13
366.12	152.13
366.32	42.13
366.52	16.38
366.72	84.26
366.91	18.72
367.11	0.00
367.31	7.02
367.51	0.00
367.70	79.58
367.90	2.34
368.10	49.15
368.30	0.00
368.49	0.00
368.69	51.49
368.89	0.00
369.09	23.41
369.28	0.00
369.48	44.47
369.68	60.85
369.87	140.43
370.07	84.26
370.27	86.60
370.47	205.97
370.66	409.59
370.86	425.98
371.06	521.94
371.25	461.09
371.45	535.98
371.65	444.70
371.84	428.32
372.04	463.43
372.24	489.17
372.44	477.47
372.63	465.77
372.83	526.62
373.03	603.86
373.22	472.79
373.42	503.22
373.62	582.79
373.81	578.11
374.01	545.34
374.21	613.22
374.40	554.71
374.60	540.66
374.79	545.34
374.99	552.37
375.19	617.90
375.38	559.39
375.58	622.58
375.78	627.26
375.97	620.24
376.17	653.01
376.37	697.48
376.56	660.03
376.76	601.52
376.95	629.60
377.15	690.46
377.35	671.73
377.54	638.97
377.74	683.44
377.93	695.14
378.13	739.61
378.33	608.54
378.52	662.37
378.72	732.59
378.91	770.04
379.11	606.20
379.31	664.71
379.50	641.31
379.70	741.95
379.89	657.69
380.09	770.04
380.28	699.82
380.48	741.95
380.68	737.27
380.87	711.52
381.07	720.88
381.26	758.33
381.46	732.59
381.65	734.93
381.85	697.48
382.04	788.76
382.24	772.38
382.43	748.97
382.63	592.16
382.83	826.21
383.02	727.91
383.22	779.40
383.41	720.88
383.61	763.01
383.80	741.95
384.00	777.06
384.19	779.40
384.39	866.00
384.58	802.80
384.78	809.83
384.97	793.44
385.17	828.55
385.36	774.72
385.56	835.57
385.75	875.36
385.95	858.98
386.14	856.64
386.34	847.27
386.53	903.45
386.72	835.57
386.92	877.70
387.11	842.59
387.31	763.01
387.50	922.17
387.70	882.38
387.89	875.36
388.09	978.34
388.28	992.39
388.48	983.02
388.67	957.28
388.86	894.08
389.06	954.94
389.25	999.41
389.45	1020.47
389.64	1039.20
389.84	1004.09
390.03	1107.07
390.22	933.87
390.42	980.68
390.61	1081.33
390.81	1078.99
391.00	1076.65
391.19	1198.35
391.39	1100.05
391.58	1111.75
391.78	1086.01
391.97	1050.90
392.16	1146.86
392.36	1116.44
392.55	1046.22
392.75	1041.54
392.94	917.49
393.13	1029.84
393.33	1018.13
393.52	1032.18
393.71	1118.78
393.91	1088.35
394.10	1146.86
394.29	1130.48
394.49	1212.40
394.68	1324.74
394.88	1359.85
395.07	1324.74
395.26	1238.14
395.46	1249.85
395.65	1380.92
395.84	1270.91
396.04	1277.93
396.23	1181.97
396.42	1184.31
396.62	1200.69
396.81	1324.74
397.00	1287.29
397.19	1338.79
397.39	1359.85
397.58	1406.66
397.77	1439.43
397.97	1469.86
398.16	1483.90
398.35	1596.25
398.55	1479.22
398.74	1561.14
398.93	1535.39
399.12	1493.26
399.32	1547.09
399.51	1713.27
399.70	1626.67
399.90	1664.12
400.09	1596.25
400.28	1645.40
400.47	1762.42
400.67	1757.74
400.86	1717.95
401.05	1767.10
401.24	1750.72
401.44	1720.29
401.63	1837.32
401.82	1849.02
402.01	1799.87
402.21	1895.83
402.40	1811.57
402.59	1851.36
402.78	1870.09
402.97	1872.43
403.17	1912.22
403.36	1944.99
403.55	1935.62
403.74	1954.35
403.93	1956.69
404.13	1919.24
404.32	1975.41
404.51	1888.81
404.70	2036.27
404.89	2066.69
405.09	2099.46
405.28	1944.99
405.47	2057.33
405.66	2078.40
405.85	2062.01
406.05	2087.76
406.24	2054.99
406.43	2155.63
406.62	2225.85
406.81	2305.43
407.00	2143.93
407.20	2104.14
407.39	2179.04
407.58	2176.70
407.77	2338.20
407.96	2298.41
408.15	2403.73
408.34	2333.51
408.54	2410.75
408.73	2352.24
408.92	2361.60
409.11	2476.29
409.30	2375.64
409.49	2328.83
409.68	2314.79
409.87	2363.94
410.07	2457.56
410.26	2506.71
410.45	2588.63
410.64	2658.85
410.83	2621.40
411.02	2560.55
411.21	2686.94
411.40	2579.27
411.59	2834.39
411.78	2712.68
411.98	2649.49
412.17	2780.56
412.36	2785.24
412.55	2818.00
412.74	2885.88
412.93	2832.05
413.12	2822.69
413.31	2993.55
413.50	2937.37
413.69	3021.63
413.88	3082.49
414.07	3110.57
414.26	2981.84
414.45	3143.34
414.64	3269.73
414.83	3108.23
415.02	3260.37
415.22	3262.71
415.41	3239.30
415.60	3321.22
415.79	3281.43
415.98	3382.07
416.17	3461.65
416.36	3506.12
416.55	3438.25
416.74	3499.10
416.93	3398.46
417.12	3382.07
417.31	3707.41
417.50	3433.57
417.69	3651.24
417.88	3639.53
418.07	3602.08
418.26	3716.77
418.45	3707.41
418.64	3714.43
418.83	3653.58
419.02	3791.67
419.21	3698.05
419.39	3838.48
419.58	3618.47
419.77	3531.87
419.96	3747.20
420.15	3948.48
420.34	3988.27
420.53	3964.87
420.72	3854.86
420.91	3978.91
421.10	4053.81
421.29	4159.13
421.48	3995.29
421.67	4035.08
421.86	4014.02
422.05	3950.82
422.24	3904.01
422.43	4032.74
422.61	3932.10
422.80	4107.64
422.99	4154.45
423.18	3990.61
423.37	4149.77
423.56	4058.49
423.75	4114.66
423.94	4133.39
424.13	3880.61
424.32	4021.04
424.50	4234.03
424.69	4212.96
424.88	4124.02
425.07	4210.62
425.26	3962.53
425.45	4142.75
425.64	4058.49
425.83	4257.43
426.01	4208.28
426.20	4285.52
426.39	4283.18
426.58	4163.81
426.77	4112.32
426.96	4124.02
427.15	4236.37
427.33	4266.80
427.52	4259.78
427.71	4332.33
427.90	4175.52
428.09	4339.35
428.28	4390.84
428.46	4313.61
428.65	4273.82
428.84	4550.00
429.03	4585.11
429.22	4257.43
429.40	4383.82
429.59	4266.80
429.78	3969.55
429.97	3957.85
430.16	4271.48
430.34	4262.12
430.53	4313.61
430.72	4358.08
430.91	4393.19
431.10	4484.47
431.28	4807.46
431.47	4908.10
431.66	4863.63
431.85	4667.03
432.03	4823.84
432.22	4723.20
432.41	4908.10
432.60	4908.10
432.79	4868.31
432.97	5055.56
433.16	5041.51
433.35	4844.91
433.54	4854.27
433.72	4837.89
433.91	4830.87
434.10	5022.79
434.28	4870.65
434.47	5132.79
434.66	5163.22
434.85	5277.91
435.03	5179.61
435.22	5252.16
435.41	5441.75
435.59	5207.69
435.78	5289.61
435.97	5380.89
436.16	5397.28
436.34	5291.95
436.53	5334.08
436.72	5479.19
436.90	5359.83
437.09	5483.88
437.28	5338.76
437.46	5416.00
437.65	5481.53
437.84	5481.53
438.02	5291.95
438.21	5547.07
438.40	5495.58
438.58	5703.89
438.77	5722.61
438.96	5540.05
439.14	5792.83
439.33	5919.21
439.52	5909.85
439.70	5785.80
439.89	5919.21
440.08	6036.24
440.26	5853.68
440.45	5846.66
440.63	6179.01
440.82	6457.54
441.01	6310.08
441.19	6244.55
441.38	6417.75
441.57	6408.39
441.75	6628.40
441.94	6520.73
442.12	6628.40
442.31	6619.04
442.50	6654.14
442.68	6794.58
442.87	6731.38
443.05	6675.21
443.24	6834.36
443.43	6682.23
443.61	6813.30
443.80	7037.99
443.98	6607.33
444.17	6637.76
444.35	6764.15
444.54	6979.48
444.73	6909.26
444.91	6665.85
445.10	6726.70
445.28	6684.57
445.47	6565.20
445.65	6642.44
445.84	6843.73
446.02	6815.64
446.21	7105.87
446.39	6899.90
446.58	7082.46
446.77	6920.96
446.95	6885.86
447.14	6897.56
447.32	7037.99
447.51	6881.18
447.69	6972.46
447.88	7070.76
448.06	7002.88
448.25	6939.69
448.43	7314.17
448.62	7115.23
448.80	7117.57
448.99	7164.38
449.17	7370.35
449.36	7152.68
449.54	7260.34
449.73	7297.79
449.91	7316.51
450.10	7428.86
450.28	7716.75
450.46	7515.46
450.65	7595.04
450.83	7623.12
451.02	7513.12
451.20	7679.30
451.39	7569.29
451.57	7489.71
451.76	7599.72
451.94	7552.91
452.13	7644.19
452.31	7714.41
452.49	7466.31
452.68	7517.80
452.86	7360.98
453.05	7515.46
453.23	7641.85
453.42	7384.39
453.60	7709.72
453.78	7728.45
453.97	7833.77
454.15	7946.12
454.34	7538.87
454.52	7801.01
454.70	7943.78
454.89	7943.78
455.07	7925.05
455.26	7953.14
455.44	8049.10
455.62	8201.24
455.81	8177.83
455.99	8116.98
456.17	8135.70
456.36	8116.98
456.54	8372.10
456.73	8290.18
456.91	8491.46
457.09	8585.08
457.28	8751.26
457.46	8353.37
457.64	8493.80
457.83	8578.06
458.01	8294.86
458.19	8615.51
458.38	8423.59
458.56	8526.57
458.74	8444.65
458.93	8589.77
459.11	8835.52
459.29	8720.84
459.48	8894.04
459.66	8676.37
459.84	8744.24
460.03	9104.68
460.21	8905.74
460.39	8997.02
460.57	8929.14
460.76	8987.66
460.94	9142.13
461.12	9001.70
461.31	9139.79
461.49	9252.14
461.67	9095.32
461.85	9338.74
462.04	9001.70
462.22	9745.99
462.40	9320.01
462.59	9338.74
462.77	9359.80
462.95	9280.22
463.13	9308.31
463.32	9228.73
463.50	9329.38
463.68	9345.76
463.86	9481.51
464.05	9305.97
464.23	9179.58
464.41	9584.49
464.59	9268.52
464.78	9598.54
464.96	9448.74
465.14	9315.33
465.32	9530.66
465.50	9586.83
465.69	9734.29
465.87	9558.75
466.05	9753.01
466.23	9703.86
466.41	9570.45
466.60	9851.31
466.78	9605.56
466.96	9736.63
467.14	9549.39
467.32	9755.35
467.51	10132.18
467.69	9689.82
467.87	9827.91
468.05	9963.66
468.23	9877.06
468.41	10033.88
468.60	9947.28
468.78	10059.62
468.96	10193.03
469.14	10155.58
469.32	10171.97
469.50	9895.78
469.69	10373.25
469.87	10132.18
470.05	10235.16
470.23	10225.80
470.41	10244.52
470.59	10487.94
470.77	10359.21
470.95	10303.04
471.14	10616.67
471.32	10361.55
471.50	10775.83
471.68	10581.56
471.86	10986.47
472.04	10785.19
472.22	11248.61
472.40	10574.54
472.58	10754.76
472.77	10827.32
472.95	10860.09
473.13	11222.87
473.31	11021.58
473.49	10981.79
473.67	10977.11
473.85	11162.01
474.03	11257.98
474.21	11356.28
474.39	11538.84
474.57	11566.93
474.75	11557.57
474.93	11847.79
475.12	11679.27
475.30	11864.18
475.48	11716.72
475.66	11861.84
475.84	11761.19
476.02	12002.27
476.20	11934.39
476.38	11976.52
476.56	12315.90
476.74	12351.01
476.92	12222.28
477.10	12535.91
477.28	12538.25
477.46	12486.76
477.64	12718.47
477.82	12868.27
478.00	13135.09
478.18	12992.31
478.36	13076.57
478.54	13462.76
478.72	13350.42
478.90	13411.27
479.08	13561.06
479.26	13549.36
479.44	13841.93
479.62	13650.00
479.80	13823.20
479.98	14008.11
480.16	14246.84
480.34	14115.77
480.52	14406.00
480.70	14312.38
480.88	14263.22
481.06	14415.36
481.24	14684.52
481.41	14881.13
481.59	14881.13
481.77	14949.00
481.95	15042.62
482.13	15204.12
482.31	15166.67
482.49	15414.77
482.67	15407.75
482.85	15939.05
483.03	15747.12
483.21	15925.00
483.39	16053.73
483.57	15941.39
483.74	16194.17
483.92	16205.87
484.10	16142.67
484.28	16641.21
484.46	16795.68
484.64	16931.44
484.82	16936.12
485.00	17034.42
485.18	17006.33
485.35	17296.56
485.53	16727.81
485.71	16678.66
485.89	16889.31
486.07	16968.88
486.25	17242.73
486.43	17757.64
486.61	17549.34
486.78	17869.99
486.96	18188.30
487.14	18214.05
487.32	18441.08
487.50	18717.26
487.68	18979.40
487.85	19124.52
488.03	19283.67
488.21	19101.11
488.39	19379.64
488.57	19304.74
488.75	19255.59
488.92	19730.72
489.10	19885.19
489.28	20367.34
489.46	20194.14
489.64	20510.11
489.81	20833.11
489.99	21156.10
490.17	20889.28
490.35	21490.80
490.53	20730.12
490.70	21247.38
490.88	21039.08
491.06	21738.90
491.24	21324.62
491.41	21352.71
491.59	21458.03
491.77	21596.12
491.95	21598.46
492.13	22005.72
492.30	22471.48
492.48	22317.01
492.66	22647.02
492.84	22595.53
493.01	23349.18
493.19	22920.87
493.37	23180.67
493.54	23014.49
493.72	23307.05
493.90	23527.06
494.08	23594.94
494.25	23800.91
494.43	24070.07
494.61	24177.73
494.79	24479.66
494.96	24535.84
495.14	24261.99
495.32	24423.49
495.49	24765.21
495.67	24886.92
495.85	24996.92
496.02	25174.80
496.20	25212.25
496.38	25376.09
496.55	25268.42
496.73	26342.73
496.91	25799.73
497.09	25811.43
497.26	25968.24
497.44	25865.26
497.62	26326.35
497.79	26651.68
497.97	25853.56
498.14	26431.67
498.32	26412.95
498.50	26326.35
498.67	26986.38
498.85	26984.04
499.03	26869.35
499.20	27302.35
499.38	27592.58
499.56	27447.46
499.73	27543.42
499.91	27840.67
500.08	27878.12
500.26	27138.51
500.44	27445.12
500.61	27763.43
500.79	27721.30
500.97	27967.06
501.14	28367.29
501.32	28048.98
501.49	27754.07
501.67	28411.76
501.84	27803.22
502.02	28666.88
502.20	28734.76
502.37	28739.44
502.55	29137.33
502.72	28905.62
502.90	29186.48
503.07	28847.10
503.25	28950.09
503.43	29120.95
503.60	28872.85
503.78	29132.65
503.95	29228.61
504.13	29422.87
504.30	29839.49
504.48	29378.40
504.65	30164.82
504.83	30064.18
505.01	30169.51
505.18	29963.54
505.36	30281.85
505.53	30625.91
505.71	30911.46
505.88	31068.27
506.06	30436.33
506.23	30909.11
506.41	30436.33
506.58	30960.61
506.76	31098.70
506.93	31248.49
507.11	31175.94
507.28	31077.63
507.46	31213.38
507.63	31178.28
507.81	31000.40
507.98	31124.44
508.16	31307.01
508.33	31374.88
508.50	31786.82
508.68	32130.87
508.85	32098.11
509.03	32362.59
509.20	32329.82
509.38	32594.30
509.55	32271.31
509.73	32613.02
509.90	32510.04
510.08	32397.70
510.25	32385.99
510.42	32561.53
510.60	32657.49
510.77	32861.12
510.95	33464.98
511.12	32716.01
511.30	33151.35
511.47	33230.93
511.64	33542.22
511.82	33376.04
511.99	33373.70
512.17	33577.33
512.34	33530.51
512.51	33755.21
512.69	34068.84
512.86	33986.92
513.04	34082.88
513.21	33902.66
513.38	33930.75
513.56	34403.53
513.73	34099.26
513.90	34054.79
514.08	33916.70
514.25	34583.76
514.43	34361.40
514.60	34462.05
514.77	34602.48
514.95	34653.97
515.12	34693.76
515.29	34756.96
515.47	35119.74
515.64	35000.37
515.81	34941.86
515.99	35145.48
516.16	34801.43
516.33	34726.53
516.51	34553.33
516.68	33792.65
516.85	34291.19
517.03	34490.13
517.20	34941.86
517.37	35044.84
517.54	35882.75
517.72	35005.05
517.89	35047.18
518.06	34909.09
518.24	34902.07
518.41	35255.49
518.58	35555.08
518.75	35899.14
518.93	35798.49
519.10	35950.63
519.27	36016.16
519.45	36259.58
519.62	36512.36
519.79	36568.53
519.96	36474.91
520.14	36477.25
520.31	36273.62
520.48	36409.37
520.65	36854.08
520.83	36950.04
521.00	37308.14
521.17	37191.11
521.34	37523.47
521.52	37591.34
521.69	37247.29
521.86	37528.15
522.03	37280.05
522.20	37577.30
522.38	37727.10
522.55	37237.92
522.72	37333.89
522.89	37312.82
523.07	37916.68
523.24	37626.45
523.41	38022.00
523.58	37755.18
523.75	38078.18
523.92	38258.40
524.10	38560.33
524.27	38426.92
524.44	38281.80
524.61	38824.81
524.78	38785.02
524.96	38469.04
525.13	38251.38
525.30	39168.87
525.47	39449.73
525.64	38588.41
525.81	38859.91
525.98	38796.72
526.16	37912.00
526.33	38410.53
526.50	38375.42
526.67	38312.23
526.84	37923.70
527.01	38553.30
527.18	38665.65
527.36	39019.07
527.53	39108.01
527.70	39285.89
527.87	40088.70
528.04	39344.41
528.21	39814.85
528.38	39803.15
528.55	40060.61
528.72	40142.53
528.89	39885.07
529.07	39880.39
529.24	39997.41
529.41	40046.57
529.58	40119.12
529.75	39688.46
529.92	40451.48
530.09	40126.14
530.26	40137.85
530.43	40102.74
530.60	40491.27
530.77	40580.21
530.94	40865.75
531.11	40266.58
531.28	40645.74
531.46	40931.29
531.63	40910.22
531.80	40528.72
531.97	40942.99
532.14	40547.44
532.31	40495.95
532.48	40872.78
532.65	40832.99
532.82	40411.69
532.99	40875.12
533.16	41111.51
533.33	41095.13
533.50	41862.82
533.67	41109.17
533.84	41249.60
534.01	41483.66
534.18	41155.98
534.35	41509.40
534.52	41572.60
534.69	41205.13
534.86	41670.90
535.03	41713.03
535.20	42370.72
535.37	42096.88
535.54	42279.44
535.71	41832.39
535.88	41841.76
536.05	41879.21
536.22	41874.52
536.38	41965.81
536.55	42113.26
536.72	41961.12
536.89	41797.29
537.06	42188.16
537.23	42408.17
537.40	42038.36
537.57	42344.97
537.74	42284.12
537.91	42373.06
538.08	41874.52
538.25	42188.16
538.42	42417.53
538.59	42967.55
538.75	42113.26
538.92	42270.08
539.09	42677.33
539.26	43058.84
539.43	42593.07
539.60	42677.33
539.77	42204.54
539.94	42700.73
540.11	42188.16
540.28	42632.86
540.44	42607.11
540.61	42696.05
540.78	42382.42
540.95	43016.71
541.12	42810.74
541.29	42684.35
541.46	43072.88
541.62	43196.93
541.79	43250.76
541.96	42724.14
542.13	42899.68
542.30	42990.96
542.47	43594.82
542.63	43054.15
542.80	43400.55
542.97	43573.75
543.14	43810.15
543.31	44027.82
543.48	43709.50
543.64	44011.43
543.81	44596.57
543.98	43882.70
544.15	43845.26
544.32	44231.44
544.48	44442.09
544.65	44201.02
544.82	43945.90
544.99	43964.62
545.16	44109.74
545.32	43962.28
545.49	44259.53
545.66	44926.58
545.83	44596.57
546.00	44240.81
546.16	44091.01
546.33	44322.72
546.50	44004.41
546.67	44472.52
546.83	43927.17
547.00	44311.02
547.17	44411.67
547.34	44229.10
547.50	44385.92
547.67	44678.49
547.84	44568.48
548.00	44861.05
548.17	45095.10
548.34	45015.52
548.51	45167.66
548.67	45303.41
548.84	44945.31
549.01	45146.59
549.18	44708.91
549.34	45193.40
549.51	45347.88
549.68	45010.84
549.84	45036.59
550.01	45179.36
550.18	44821.26
550.34	45294.05
550.51	45151.27
550.68	44863.39
550.84	44844.66
551.01	44940.63
551.18	44924.24
551.34	45029.57
551.51	45713.00
551.68	45539.80
551.84	45572.57
552.01	45277.66
552.18	45752.79
552.34	45085.74
552.51	45097.44
552.68	45193.40
552.84	45289.37
553.01	45495.33
553.18	45598.32
553.34	45556.19
553.51	45270.64
553.67	45610.02
553.84	45846.41
554.01	46162.39
554.17	46204.52
554.34	46422.19
554.51	45656.83
554.67	46113.23
554.84	45652.15
555.00	45851.09
555.17	45937.69
555.33	45818.33
555.50	45928.33
555.67	45909.61
555.83	45841.73
556.00	46127.28
556.16	46108.55
556.33	45977.48
556.50	45855.78
556.66	46080.47
556.83	45509.38
556.99	46131.96
557.16	46555.60
557.32	46480.70
557.49	46485.38
557.65	46246.65
557.82	46094.51
557.98	46323.88
558.15	45705.98
558.32	46307.50
558.48	45888.54
558.65	46270.05
558.81	46075.79
558.98	45993.87
559.14	46265.37
559.31	46059.40
559.47	46054.72
559.64	46375.37
559.80	46639.86
559.97	46380.06
560.13	46246.65
560.30	46363.67
560.46	46391.76
560.63	46492.40
560.79	46717.09
560.96	46501.76
561.12	46494.74
561.29	46471.34
561.45	46314.52
561.61	46335.59
561.78	46061.74
561.94	45881.52
562.11	46501.76
562.27	46162.39
562.44	46384.74
562.60	46834.12
562.77	46644.54
562.93	46621.13
563.10	46878.59
563.26	46344.95
563.42	46841.14
563.59	46485.38
563.75	46857.52
563.92	46632.83
564.08	46763.90
564.24	46419.84
564.41	46735.82
564.57	46679.64
564.74	46550.91
564.90	46635.17
565.07	47044.77
565.23	46717.09
565.39	46611.77
565.56	46738.16
565.72	46562.62
565.88	46583.68
566.05	47004.98
566.21	46670.28
566.38	46391.76
566.54	46916.04
566.70	47009.66
566.87	46937.10
567.03	46909.02
567.19	47023.70
567.36	47110.30
567.52	46775.61
567.68	46993.28
567.85	46719.43
568.01	47007.32
568.17	46953.49
568.34	46995.62
568.50	46628.15
568.66	47096.26
568.83	46696.03
568.99	46756.88
569.15	46653.90
569.32	46665.60
569.48	46527.51
569.64	47281.16
569.81	46691.35
569.97	47091.58
570.13	46609.43
570.30	46375.37
570.46	46724.11
570.62	46401.12
570.78	46618.79
570.95	46611.77
571.11	47098.60
571.27	46799.01
571.43	46775.61
571.60	47012.00
571.76	46787.31
571.92	47061.15
572.09	47016.68
572.25	46782.63
572.41	46955.83
572.57	47456.70
572.74	46981.57
572.90	46916.04
573.06	47112.64
573.22	47349.04
573.38	47033.07
573.55	46857.52
573.71	47414.57
573.87	46941.78
574.03	46953.49
574.20	47262.44
574.36	46960.51
574.52	46796.67
574.68	47012.00
574.84	47152.43
575.01	46880.93
575.17	46789.65
575.33	46775.61
575.49	46403.46
575.65	47077.54
575.82	46969.87
575.98	47098.60
576.14	47061.15
576.30	47470.75
576.46	47330.31
576.62	47143.07
576.79	46946.47
576.95	46674.96
577.11	47047.11
577.27	47356.06
577.43	46738.16
577.59	46719.43
577.75	47112.64
577.92	46522.83
578.08	46742.84
578.24	46738.16
578.40	47054.13
578.56	46557.94
578.72	47082.22
578.88	47468.40
579.04	47136.05
579.21	46553.26
579.37	46892.63
579.53	47243.71
579.69	46838.80
579.85	47122.01
580.01	47365.42
580.17	47224.99
580.33	46689.01
580.49	46986.25
580.65	47049.45
580.82	47250.74
580.98	46511.13
581.14	47012.00
581.30	47524.58
581.46	47239.03
581.62	47082.22
581.78	47133.71
581.94	47566.71
582.10	47192.22
582.26	47426.28
582.42	46829.44
582.58	47091.58
582.74	46899.65
582.90	47388.83
583.06	47557.35
583.22	47276.48
583.38	47449.68
583.54	47470.75
583.70	47447.34
583.86	47445.00
584.02	47395.85
584.18	47395.85
584.34	47398.19
584.50	47494.15
584.66	46995.62
584.82	46960.51
584.98	47475.43
585.14	47047.11
585.30	46740.50
585.46	47206.26
585.62	47079.88
585.78	47166.48
585.94	46979.23
586.10	46543.89
586.26	47112.64
586.42	47622.88
586.58	47423.93
586.74	46951.15
586.90	47035.41
587.06	47100.94
587.22	47044.77
587.38	47030.72
587.54	47213.29
587.70	47122.01
587.86	47187.54
588.02	47292.86
588.18	47138.39
588.34	47332.65
588.49	46398.78
588.65	46300.48
588.81	46693.69
588.97	46447.93
589.13	46251.33
589.29	46920.72
589.45	46670.28
589.61	46733.48
589.77	47557.35
589.93	46958.17
590.08	47234.35
590.24	47187.54
590.40	47547.98
590.56	47819.49
590.72	47100.94
590.88	46747.52
591.04	47372.44
591.20	47580.75
591.35	47384.15
591.51	47608.84
591.67	47473.09
591.83	47110.30
591.99	47316.27
592.15	47264.78
592.31	47168.82
592.46	47168.82
592.62	46848.16
592.78	47634.58
592.94	47580.75
593.10	47285.84
593.26	47194.56
593.41	47723.52
593.57	46836.46
593.73	46958.17
593.89	47342.02
594.05	47459.04
594.20	47171.16
594.36	47004.98
594.52	46766.24
594.68	47054.13
594.84	46906.68
594.99	47447.34
595.15	47304.57
595.31	47332.65
595.47	47356.06
595.62	47342.02
595.78	47367.76
595.94	47440.32
596.10	47412.23
596.25	47571.39
596.41	47398.19
596.57	47164.14
596.73	47377.12
596.88	46836.46
597.04	47075.19
597.20	47000.30
597.36	47435.64
597.51	47971.62
597.67	47349.04
597.83	47615.86
597.99	47459.04
598.14	47597.13
598.30	47098.60
598.46	47325.63
598.61	47318.61
598.77	46651.56
598.93	47323.29
599.09	47299.89
599.24	47753.95
599.40	47906.08
599.56	47129.03
599.71	47538.62
599.87	47269.46
600.03	47461.38
600.18	47398.19
600.34	47351.38
600.50	47459.04
600.65	47143.07
600.81	47672.03
600.97	47414.57
601.12	47423.93
601.28	47187.54
601.44	47372.44
601.59	47239.03
601.75	46574.32
601.91	47290.52
602.06	46934.76
602.22	47171.16
602.37	47311.59
602.53	47133.71
602.69	47627.56
602.84	47468.40
603.00	47339.68
603.16	47187.54
603.31	46864.55
603.47	47107.96
603.62	47239.03
603.78	47384.15
603.94	47100.94
604.09	47480.11
604.25	47281.16
604.40	46981.57
604.56	47407.55
604.71	47494.15
604.87	46902.00
605.03	46969.87
605.18	46799.01
605.34	47093.92
605.49	46789.65
605.65	47004.98
605.80	46997.96
605.96	47098.60
606.12	47421.59
606.27	47365.42
606.43	46803.69
606.58	47201.58
606.74	47344.36
606.89	47114.98
607.05	47370.10
607.20	46944.12
607.36	46850.50
607.51	46834.12
607.67	46909.02
607.82	47248.39
607.98	46513.47
608.13	46485.38
608.29	46607.09
608.44	46244.30
608.60	46649.22
608.75	47014.34
608.91	46958.17
609.06	46469.00
609.22	47129.03
609.37	46412.82
609.53	47000.30
609.68	46564.96
609.84	46911.36
609.99	46483.04
610.15	46122.60
610.30	46644.54
610.46	46677.30
610.61	46670.28
610.76	46581.34
610.92	46466.66
611.07	46527.51
611.23	46588.36
611.38	46644.54
611.54	46534.53
611.69	46071.10
611.84	46223.24
612.00	45818.33
612.15	46209.20
612.31	46454.95
612.46	46213.88
612.62	46309.84
612.77	45846.41
612.92	47019.02
613.08	46342.61
613.23	46138.98
613.39	46258.35
613.54	45656.83
613.69	45865.14
613.85	45989.19
614.00	46089.83
614.15	46127.28
614.31	46361.33
614.46	46216.22
614.62	46658.58
614.77	45837.05
614.92	46164.73
615.08	46014.93
615.23	45614.70
615.38	45933.01
615.54	45560.87
615.69	45708.32
615.84	45457.88
616.00	46241.96
616.15	45284.68
616.30	45684.92
616.46	45759.81
616.61	45315.11
616.76	45928.33
616.92	45373.63
617.07	45581.93
617.22	44999.14
617.37	45460.23
617.53	45654.49
617.68	45420.44
617.83	45893.22
617.99	45705.98
618.14	45579.59
618.29	45375.97
618.45	45614.70
618.60	45280.00
618.75	44996.80
618.90	45530.44
619.06	45640.45
619.21	45492.99
619.36	45670.87
619.51	45387.67
619.67	45031.91
619.82	45481.29
619.97	45205.11
620.12	44886.79
620.28	44645.72
620.43	45181.70
620.58	44814.24
620.73	45399.37
620.89	45308.09
621.04	44662.10
621.19	45265.96
621.34	45198.09
621.49	44683.17
621.65	44739.34
621.80	45525.76
621.95	45041.27
622.10	44748.70
622.25	44662.10
622.41	44957.01
622.56	44261.87
622.71	44924.24
622.86	45113.83
623.01	44641.04
623.16	44507.63
623.32	44399.96
623.47	44664.44
623.62	44837.64
623.77	44491.24
623.92	44830.62
624.07	44367.20
624.23	44261.87
624.38	44362.51
624.53	44025.48
624.68	44212.72
624.83	44580.18
624.98	44414.01
625.13	43552.69
625.29	44030.16
625.44	43999.73
625.59	43531.62
625.74	43686.10
625.89	43557.37
626.04	43442.68
626.19	43742.27
626.34	43920.15
626.49	44041.86
626.65	43679.08
626.80	44243.15
626.95	43646.31
627.10	43660.35
627.25	43402.89
627.40	43199.27
627.55	43206.29
627.70	43426.30
627.85	43351.40
628.00	43309.27
628.15	43234.38
628.30	43456.73
628.45	43931.86
628.60	43454.39
628.76	43304.59
628.91	43744.61
629.06	42972.24
629.21	43023.73
629.36	43194.59
629.51	42831.80
629.66	43147.78
629.81	43330.34
629.96	43217.99
630.11	43264.80
630.26	43470.77
630.41	43068.20
630.56	42904.36
630.71	43196.93
630.86	42607.11
631.01	42651.58
631.16	42728.82
631.31	43037.77
631.46	42382.42
631.61	42745.20
631.76	42515.83
631.91	42761.59
632.06	43068.20
632.21	42876.27
632.36	42988.62
632.51	42813.08
632.66	42667.97
632.81	42464.34
632.96	42976.92
633.10	42574.34
633.25	42761.59
633.40	42562.64
633.55	42497.11
633.70	42600.09
633.85	42401.14
634.00	42307.52
634.15	42417.53
634.30	42916.06
634.45	42576.69
634.60	42642.22
634.75	42426.89
634.90	42415.19
635.05	42452.64
635.19	42115.60
635.34	42361.36
635.49	42347.31
635.64	42403.49
635.79	41951.76
635.94	42396.46
636.09	42211.56
636.24	41900.27
636.39	42012.62
636.53	42167.09
636.68	41818.35
636.83	41853.46
636.98	42192.84
637.13	41563.23
637.28	42415.19
637.43	42211.56
637.57	42113.26
637.72	42164.75
637.87	41689.62
638.02	41745.80
638.17	41921.34
638.32	41909.63
638.46	41528.13
638.61	41223.86
638.76	41184.07
638.91	41911.97
639.06	42061.77
639.20	41893.25
639.35	42190.50
639.50	41750.48
639.65	41710.69
639.80	41879.21
639.94	41436.84
640.09	41319.82
640.24	41354.93
640.39	41109.17
640.54	41214.49
640.68	41003.85
640.83	41226.20
640.98	41380.67
641.13	40945.33
641.27	41436.84
641.42	41270.67
641.57	41010.87
641.72	40886.82
641.86	40589.57
642.01	40617.66
642.16	40896.18
642.31	41085.76
642.45	41298.75
642.60	40767.45
642.75	40493.61
642.90	41031.93
643.04	40701.92
643.19	40601.27
643.34	40414.03
643.48	40744.05
643.63	41116.19
643.78	40610.64
643.93	40617.66
644.07	40748.73
644.22	40416.37
644.37	40168.27
644.51	40514.67
644.66	40891.50
644.81	40381.26
644.95	40605.95
645.10	40313.39
645.25	40418.71
645.39	40519.35
645.54	40435.10
645.69	40360.20
645.83	40465.52
645.98	40495.95
646.13	40378.92
646.27	40334.45
646.42	40165.93
646.57	40411.69
646.71	40098.06
646.86	39674.42
647.00	40041.88
647.15	39819.53
647.30	40222.11
647.44	40273.60
647.59	39636.97
647.74	39707.19
647.88	40102.74
648.03	39873.37
648.17	40339.13
648.32	39667.40
648.47	39842.94
648.61	40065.29
648.76	39618.25
648.90	39814.85
649.05	40027.84
649.20	39665.06
649.34	39552.71
649.49	39271.85
649.63	38934.81
649.78	39707.19
649.92	39438.03
650.07	40179.98
650.21	39435.69
650.36	39639.31
650.51	39845.28
650.65	40210.40
650.80	39983.37
650.94	40037.20
651.09	39585.48
651.23	39494.20
651.38	39269.51
651.52	39386.54
651.67	39264.83
651.81	39012.05
651.96	39185.25
652.10	39372.49
652.25	39042.48
652.39	38955.88
652.54	39459.09
652.68	38869.28
652.83	39288.23
652.97	39129.08
653.12	39035.45
653.26	38916.09
653.41	38824.81
653.55	38438.62
653.70	38347.34
653.84	39040.14
653.99	38646.93
654.13	38927.79
654.27	38377.76
654.42	38632.88
654.56	38384.79
654.71	38703.10
654.85	38679.69
655.00	38649.27
655.14	38288.82
655.29	38380.10
655.43	38515.86
655.57	38043.07
655.72	37869.87
655.86	37900.29
656.01	38080.52
656.15	37556.24
656.30	37752.84
656.44	37902.64
656.58	37764.54
656.73	38113.28
656.87	37720.07
657.01	38038.39
657.16	38387.13
657.30	37848.80
657.45	37930.72
657.59	37656.88
657.73	37680.28
657.88	38747.57
658.02	37727.10
658.16	38211.59
658.31	38314.57
658.45	37872.21
658.60	37867.53
658.74	38061.79
658.88	37584.32
659.03	37467.30
659.17	37390.06
659.31	37287.07
659.46	37392.40
659.60	37668.58
659.74	37645.18
659.89	37347.93
660.03	37240.26
660.17	37563.26
660.32	37214.52
660.46	38012.64
660.60	37432.19
660.74	37057.70
660.89	37064.72
661.03	36608.32
661.17	37165.37
661.32	37034.30
661.46	37350.27
661.60	37308.14
661.74	36975.78
661.89	36758.11
662.03	37083.45
662.17	36451.50
662.31	36355.54
662.46	36980.46
662.60	37151.32
662.74	36648.11
662.88	36474.91
663.03	36217.45
663.17	36510.02
663.31	36180.00
663.45	36233.83
663.60	36477.25
663.74	35974.03
663.88	35632.32
664.02	35892.12
664.17	36465.55
664.31	35908.50
664.45	35772.75
664.59	35817.22
664.73	35835.94
664.88	35995.10
665.02	35618.27
665.16	35398.26
665.30	35669.76
665.44	35356.13
665.59	35627.63
665.73	35583.16
665.87	35353.79
666.01	35494.22
666.15	35466.14
666.29	35129.10
666.44	35309.32
666.58	35566.78
666.72	35304.64
666.86	35489.54
667.00	35005.05
667.14	34745.25
667.28	35091.65
667.43	34937.18
667.57	35255.49
667.71	34508.86
667.85	35122.08
667.99	34714.83
668.13	34553.33
668.27	34632.91
668.41	35086.97
668.56	34384.81
668.70	34525.24
668.84	34213.95
668.98	33689.67
669.12	34192.89
669.26	33687.33
669.40	34125.01
669.54	33972.88
669.68	33893.30
669.82	33523.49
669.96	33680.31
670.10	33488.38
670.25	33745.84
670.39	33886.28
670.53	33640.52
670.67	33764.57
670.81	33390.08
670.95	33486.04
671.09	33528.17
671.23	33347.95
671.37	33413.49
671.51	33116.24
671.65	33141.99
671.79	32996.87
671.93	32989.85
672.07	33092.83
672.21	32863.46
672.35	33055.39
672.49	32760.48
672.63	32947.72
672.77	32606.00
672.91	32669.20
673.05	32474.93
673.19	32437.48
673.33	32334.50
673.47	32205.77
673.61	32236.20
673.75	32219.81
673.89	31814.90
674.03	31723.62
674.17	31814.90
674.31	32074.70
674.45	31637.02
674.59	31864.05
674.73	31812.56
674.87	31887.46
675.01	31559.78
675.15	31690.85
675.29	31241.47
675.43	31285.94
675.56	31079.97
675.70	30829.54
675.84	31065.93
675.98	30022.05
676.12	30984.01
676.26	30939.54
676.40	30993.37
676.54	30941.88
676.68	30761.66
676.82	30150.78
676.96	30637.61
677.10	30167.16
677.23	30785.07
677.37	30602.50
677.51	29998.65
677.65	29830.13
677.79	29666.29
677.93	29668.63
678.07	29909.71
678.21	29769.27
678.34	29268.40
678.48	29413.51
678.62	29273.08
678.76	29165.42
678.90	28961.79
679.04	28725.39
679.18	29010.94
679.31	28620.07
679.45	28411.76
679.59	28458.57
679.73	28577.94
679.87	28126.22
680.00	28395.38
680.14	28140.26
680.28	28304.10
680.42	28379.00
680.56	28346.23
680.70	28367.29
680.83	27896.85
680.97	28133.24
681.11	27592.58
681.25	27632.36
681.39	27367.88
681.52	27695.56
681.66	27613.64
681.80	27431.08
681.94	27157.24
682.07	27309.37
682.21	26977.01
682.35	27077.66
682.49	26794.45
682.62	26995.74
682.76	26754.66
682.90	26876.37
683.04	26593.17
683.17	26548.70
683.31	26675.09
683.45	26382.52
683.59	26340.39
683.72	25905.05
683.86	26326.35
684.00	25914.41
684.13	26216.34
684.27	25937.82
684.41	25570.35
684.55	25322.26
684.68	25462.69
684.82	25888.67
684.96	25355.02
685.09	25448.64
685.23	25046.07
685.37	24919.68
685.50	25317.57
685.64	24772.23
685.78	25029.69
685.91	24837.76
686.05	24479.66
686.19	24034.96
686.32	24339.23
686.46	23885.17
686.60	23447.49
686.73	23484.94
686.87	23304.71
687.01	23555.15
687.14	23585.58
687.28	23353.87
687.42	23335.14
687.55	23351.52
687.69	23669.84
687.82	23154.92
687.96	23304.71
688.10	23288.33
688.23	22988.74
688.37	22932.57
688.50	22700.86
688.64	22857.67
688.78	22874.06
688.91	22373.18
689.05	22696.17
689.18	22480.85
689.32	22118.06
689.46	22527.66
689.59	22822.56
689.73	22754.69
689.86	22059.55
690.00	21820.81
690.13	22155.51
690.27	21542.29
690.41	22335.73
690.54	21401.86
690.68	21771.66
690.81	22054.87
690.95	21654.64
691.08	21654.64
691.22	21228.66
691.35	21713.15
691.49	21535.27
691.62	21209.93
691.76	21041.42
691.89	21317.60
692.03	21053.12
692.16	20844.81
692.30	20730.12
692.43	20451.60
692.57	20498.41
692.70	20531.18
692.84	20521.82
692.97	20161.37
693.11	20042.01
693.24	20189.46
693.38	19857.10
693.51	19924.98
693.65	20563.95
693.78	20006.90
693.92	20023.28
694.05	19590.28
694.19	19814.98
694.32	19452.19
694.45	19276.65
694.59	19073.03
694.72	19496.66
694.86	19110.47
694.99	19082.39
695.13	19211.12
695.26	18792.16
695.39	19190.05
695.53	18740.67
695.66	18986.43
695.80	18857.70
695.93	18820.25
696.07	18700.88
696.20	18815.57
696.33	18602.58
696.47	18331.08
696.60	18237.45
696.73	18033.83
696.87	17980.00
697.00	18368.52
697.14	18120.43
697.27	17853.61
697.40	17827.86
697.54	17731.90
697.67	17479.12
697.80	17542.32
697.94	17160.81
698.07	17376.14
698.21	17486.14
698.34	17420.61
698.47	17350.39
698.61	17036.76
698.74	16840.15
698.87	16783.98
699.01	16570.99
699.14	16774.62
699.27	16542.91
699.40	16783.98
699.54	16854.20
699.67	16339.28
699.80	16306.51
699.94	16350.98
700.07	16428.22
700.20	16056.08
700.34	15981.18
700.47	16226.93
700.60	16219.91
700.73	16421.20
700.87	16030.33
701.00	15737.76
701.13	15761.17
701.26	15740.10
701.40	15634.78
701.53	15737.76
701.66	15480.30
701.79	15641.80
701.93	15246.25
702.06	15129.22
702.19	15709.68
702.32	15082.41
702.46	14927.94
702.59	15005.17
702.72	15206.46
702.85	15147.95
702.99	14904.53
703.12	14834.32
703.25	14806.23
703.38	14656.43
703.51	14773.46
703.65	14352.16
703.78	14623.67
703.91	14312.38
704.04	14260.88
704.17	14310.04
704.31	13912.14
704.44	14225.78
704.57	14085.34
704.70	13926.19
704.83	13947.25
704.96	14033.85
705.10	13692.13
705.23	13750.65
>>>>>End Processed Spectral Data<<<<<
