SpectraSuite Data File
++++++++++++++++++++++++++++++++++++
Date: Fri Oct 25 10:44:50 EDT 2013
User: price-jones
Dark Spectrum Present: No
Reference Spectrum Present: No
Number of Sampled Component Spectra: 1
Spectrometers: USB2+H05261
Integration Time (usec): 100000 (USB2+H05261)
Spectra Averaged: 1 (USB2+H05261)
Boxcar Smoothing: 0 (USB2+H05261)
Correct for Electrical Dark: No (USB2+H05261)
Strobe/Lamp Enabled: No (USB2+H05261)
Correct for Detector Non-linearity: No (USB2+H05261)
Correct for Stray Light: No (USB2+H05261)
Number of Pixels in Processed Spectrum: 2048
>>>>>Begin Processed Spectral Data<<<<<
365.73	159.16
365.92	159.16
366.12	159.16
366.32	32.77
366.52	0.00
366.72	46.81
366.91	0.00
367.11	4.68
367.31	2.34
367.51	7.02
367.70	58.51
367.90	65.54
368.10	0.00
368.30	60.85
368.49	14.04
368.69	56.17
368.89	42.13
369.09	21.06
369.28	46.81
369.48	100.64
369.68	49.15
369.87	60.85
370.07	84.26
370.27	72.56
370.47	212.99
370.66	379.17
370.86	397.89
371.06	449.38
371.25	482.15
371.45	477.47
371.65	414.27
371.84	341.72
372.04	411.93
372.24	475.13
372.44	461.09
372.63	475.13
372.83	465.77
373.03	533.64
373.22	517.26
373.42	496.19
373.62	559.39
373.81	489.17
374.01	507.90
374.21	512.58
374.40	573.43
374.60	512.58
374.79	531.30
374.99	573.43
375.19	550.03
375.38	589.82
375.58	510.24
375.78	552.37
375.97	547.69
376.17	557.05
376.37	498.53
376.56	615.56
376.76	507.90
376.95	545.34
377.15	484.49
377.35	575.77
377.54	528.96
377.74	603.86
377.93	660.03
378.13	610.88
378.33	603.86
378.52	622.58
378.72	620.24
378.91	655.35
379.11	638.97
379.31	540.66
379.50	559.39
379.70	655.35
379.89	667.05
380.09	655.35
380.28	685.78
380.48	746.63
380.68	608.54
380.87	678.76
381.07	657.69
381.26	683.44
381.46	662.37
381.65	615.56
381.85	610.88
382.04	653.01
382.24	547.69
382.43	713.86
382.63	664.71
382.83	629.60
383.02	716.20
383.22	737.27
383.41	669.39
383.61	751.31
383.80	758.33
384.00	760.67
384.19	653.01
384.39	709.18
384.58	690.46
384.78	702.16
384.97	777.06
385.17	795.78
385.36	760.67
385.56	767.70
385.75	798.12
385.95	858.98
386.14	880.04
386.34	767.70
386.53	781.74
386.72	791.10
386.92	912.81
387.11	807.48
387.31	784.08
387.50	779.40
387.70	830.89
387.89	816.85
388.09	812.17
388.28	828.55
388.48	819.19
388.67	936.21
388.86	840.25
389.06	880.04
389.25	844.93
389.45	856.64
389.64	983.02
389.84	908.13
390.03	957.28
390.22	926.85
390.42	980.68
390.61	924.51
390.81	929.19
391.00	990.05
391.19	943.24
391.39	931.53
391.58	983.02
391.78	884.72
391.97	940.90
392.16	1001.75
392.36	990.05
392.55	945.58
392.75	877.70
392.94	966.64
393.13	943.24
393.33	1006.43
393.52	1064.94
393.71	1025.15
393.91	985.37
394.10	994.73
394.29	1067.28
394.49	1046.22
394.68	978.34
394.88	1139.84
395.07	1160.91
395.26	1083.67
395.46	1158.57
395.65	1081.33
395.84	1081.33
396.04	1121.12
396.23	1149.20
396.42	1050.90
396.62	1064.94
396.81	1181.97
397.00	1184.31
397.19	1238.14
397.39	1210.06
397.58	1254.53
397.77	1217.08
397.97	1270.91
398.16	1221.76
398.35	1343.47
398.55	1289.64
398.74	1287.29
398.93	1306.02
399.12	1336.45
399.32	1238.14
399.51	1268.57
399.70	1495.60
399.90	1385.60
400.09	1373.89
400.28	1434.75
400.47	1460.49
400.67	1469.86
400.86	1416.02
401.05	1474.54
401.24	1476.88
401.44	1526.03
401.63	1439.43
401.82	1577.52
402.01	1610.29
402.21	1547.09
402.40	1519.01
402.59	1528.37
402.78	1561.14
402.97	1612.63
403.17	1575.18
403.36	1561.14
403.55	1607.95
403.74	1582.20
403.93	1664.12
404.13	1689.87
404.32	1610.29
404.51	1607.95
404.70	1664.12
404.89	1689.87
405.09	1825.62
405.28	1675.82
405.47	1696.89
405.66	1668.80
405.85	1856.04
406.05	1813.92
406.24	1696.89
406.43	1776.47
406.62	1839.66
406.81	1905.20
407.00	1837.32
407.20	1776.47
407.39	1909.88
407.58	1947.33
407.77	1963.71
407.96	2005.84
408.15	1968.39
408.34	2024.56
408.54	2015.20
408.73	2015.20
408.92	1982.43
409.11	2022.22
409.30	2064.35
409.49	2022.22
409.68	2050.31
409.87	2043.29
410.07	2167.34
410.26	2073.71
410.45	2064.35
410.64	2076.06
410.83	2246.91
411.02	2214.15
411.21	2141.59
411.40	2176.70
411.59	2249.25
411.78	2263.30
411.98	2298.41
412.17	2406.07
412.36	2354.58
412.55	2392.03
412.74	2471.61
412.93	2497.35
413.12	2431.82
413.31	2473.95
413.50	2530.12
413.69	2548.84
413.88	2654.17
414.07	2490.33
414.26	2583.95
414.45	2560.55
414.64	2672.89
414.83	2722.04
415.02	2712.68
415.22	2633.10
415.41	2803.96
415.60	2787.58
415.79	2708.00
415.98	2888.22
416.17	2897.58
416.36	2813.32
416.55	3026.31
416.74	2794.60
416.93	2885.88
417.12	2881.20
417.31	3049.72
417.50	2913.97
417.69	3164.40
417.88	3133.98
418.07	3164.40
418.26	3094.19
418.45	3002.91
418.64	3187.81
418.83	3112.91
419.02	3115.25
419.21	3220.58
419.39	3258.03
419.58	3176.11
419.77	3145.68
419.96	3162.06
420.15	3372.71
420.34	3197.17
420.53	3239.30
420.72	3445.27
420.91	3433.57
421.10	3372.71
421.29	3419.52
421.48	3494.42
421.67	3508.46
421.86	3410.16
422.05	3435.91
422.24	3426.54
422.43	3375.05
422.61	3428.88
422.80	3534.21
422.99	3515.48
423.18	3646.55
423.37	3620.81
423.56	3566.98
423.75	3384.41
423.94	3349.31
424.13	3281.43
424.32	3396.12
424.50	3555.27
424.69	3585.70
424.88	3602.08
425.07	3583.36
425.26	3674.64
425.45	3592.72
425.64	3478.04
425.83	3597.40
426.01	3550.59
426.20	3653.58
426.39	3637.19
426.58	3599.74
426.77	3389.10
426.96	3527.19
427.15	3562.30
427.33	3709.75
427.52	3712.09
427.71	3817.41
427.90	3653.58
428.09	3791.67
428.28	3735.50
428.46	3756.56
428.65	3679.32
428.84	3850.18
429.03	3852.52
429.22	3604.42
429.40	3721.45
429.59	3744.86
429.78	3754.22
429.97	3585.70
430.16	3756.56
430.34	3857.20
430.53	3871.25
430.72	3826.78
430.91	3955.51
431.10	3850.18
431.28	4081.89
431.47	4161.47
431.66	4124.02
431.85	3981.25
432.03	4257.43
432.22	4250.41
432.41	4161.47
432.60	4203.60
432.79	4161.47
432.97	4322.97
433.16	4299.56
433.35	4152.11
433.54	4273.82
433.72	4332.33
433.91	4257.43
434.10	4269.14
434.28	4320.63
434.47	4390.84
434.66	4348.72
434.85	4372.12
435.03	4365.10
435.22	4463.40
435.41	4667.03
435.59	4395.53
435.78	4648.30
435.97	4655.33
436.16	4657.67
436.34	4589.79
436.53	4720.86
436.72	4765.33
436.90	4596.81
437.09	4599.15
437.28	4582.77
437.46	4657.67
437.65	4760.65
437.84	4613.20
438.02	4629.58
438.21	4812.14
438.40	4622.56
438.58	4856.61
438.77	5018.11
438.96	4966.62
439.14	4975.98
439.33	5041.51
439.52	5224.08
439.70	4924.49
439.89	5025.13
440.08	5200.67
440.26	5198.33
440.45	5233.44
440.63	5266.21
440.82	5523.66
441.01	5451.11
441.19	5268.55
441.38	5392.59
441.57	5582.18
441.75	5593.88
441.94	5607.92
442.12	5556.43
442.31	5652.39
442.50	5638.35
442.68	5568.13
442.87	5715.59
443.05	5720.27
443.24	5741.33
443.43	5753.04
443.61	5650.05
443.80	6008.16
443.98	5636.01
444.17	5659.42
444.35	5879.43
444.54	6029.22
444.73	5811.55
444.91	5813.89
445.10	5841.98
445.28	5788.14
445.47	5968.37
445.65	5841.98
445.84	5774.10
446.02	5909.85
446.21	5994.11
446.39	5846.66
446.58	6052.63
446.77	6047.94
446.95	5930.92
447.14	6171.99
447.32	6265.61
447.51	6008.16
447.69	6066.67
447.88	6122.84
448.06	6176.67
448.25	6012.84
448.43	6132.20
448.62	6174.33
448.80	5907.51
448.99	6218.80
449.17	6174.33
449.36	6090.07
449.54	6326.47
449.73	6312.42
449.91	6392.00
450.10	6499.67
450.28	6359.24
450.46	6612.01
450.65	6377.96
450.83	6427.11
451.02	6429.45
451.20	6523.07
451.39	6619.04
451.57	6422.43
451.76	6392.00
451.94	6647.12
452.13	6569.88
452.31	6656.48
452.49	6321.79
452.68	6530.09
452.86	6406.05
453.05	6661.16
453.23	6604.99
453.42	6612.01
453.60	6478.60
453.78	6614.35
453.97	6546.48
454.15	6836.70
454.34	6609.67
454.52	6853.09
454.70	6935.01
454.89	6906.92
455.07	6925.65
455.26	6897.56
455.44	6815.64
455.62	7028.63
455.81	6974.80
455.99	7073.10
456.17	7117.57
456.36	7056.72
456.54	7159.70
456.73	7087.14
456.91	7220.55
457.09	7328.22
457.28	7421.84
457.46	7098.84
457.64	7449.93
457.83	7213.53
458.01	7283.75
458.19	7485.03
458.38	7316.51
458.56	7339.92
458.74	7473.33
458.93	7478.01
459.11	7529.50
459.29	7616.10
459.48	7487.37
459.66	7447.58
459.84	7707.38
460.03	7665.25
460.21	7791.64
460.39	7632.49
460.57	7695.68
460.76	7681.64
460.94	7906.33
461.12	7793.98
461.31	7913.35
461.49	7939.10
461.67	7946.12
461.85	7768.24
462.04	7786.96
462.22	8194.22
462.40	8065.49
462.59	8039.74
462.77	7962.50
462.95	8126.34
463.13	8042.08
463.32	7967.18
463.50	8063.15
463.68	8252.73
463.86	8124.00
464.05	7920.37
464.23	8140.38
464.41	8245.71
464.59	8091.23
464.78	8507.85
464.96	8575.72
465.14	8140.38
465.32	8468.06
465.50	8477.42
465.69	8435.29
465.87	8381.46
466.05	8456.36
466.23	8393.16
466.41	8454.02
466.60	8521.89
466.78	8159.11
466.96	8456.36
467.14	8376.78
467.32	8500.83
467.51	8659.98
467.69	8468.06
467.87	8561.68
468.05	8697.43
468.23	8482.10
468.41	8554.66
468.60	8683.39
468.78	8664.66
468.96	8835.52
469.14	8791.05
469.32	8877.65
469.50	8791.05
469.69	8992.34
469.87	8905.74
470.05	8964.25
470.23	9132.77
470.41	8723.18
470.59	8854.25
470.77	8959.57
470.95	9050.85
471.14	9266.18
471.32	8938.51
471.50	9320.01
471.68	9224.05
471.86	9329.38
472.04	9507.26
472.22	9795.14
472.40	9469.81
472.58	9502.58
472.77	9331.72
472.95	9579.81
473.13	10019.83
473.31	9799.82
473.49	9474.49
473.67	9685.14
473.85	9816.21
474.03	10064.30
474.21	9926.21
474.39	10113.45
474.57	10001.11
474.75	10253.89
474.93	10228.14
475.12	10345.17
475.30	10146.22
475.48	10134.52
475.66	10546.45
475.84	10328.78
476.02	10501.98
476.20	10413.04
476.38	10499.64
476.56	10853.06
476.74	10691.57
476.92	10567.52
477.10	10855.40
477.28	11124.57
477.46	11052.01
477.64	11293.08
477.82	11548.20
478.00	11412.45
478.18	11538.84
478.36	11358.62
478.54	11770.55
478.72	11550.54
478.90	11751.83
479.08	12070.14
479.26	12212.92
479.44	12257.39
479.62	12262.07
479.80	12248.02
479.98	12238.66
480.16	12470.37
480.34	12404.84
480.52	12430.59
480.70	12379.09
480.88	12351.01
481.06	12940.82
481.24	12540.59
481.41	12884.65
481.59	12985.29
481.77	13125.72
481.95	12999.34
482.13	13305.95
482.31	13305.95
482.49	13275.52
482.67	13469.78
482.85	13865.33
483.03	13806.82
483.21	13881.72
483.39	14265.57
483.57	14047.90
483.74	14036.19
483.92	14150.88
484.10	14190.67
484.28	14623.67
484.46	14721.97
484.64	14970.07
484.82	14794.53
485.00	14930.28
485.18	14864.74
485.35	15269.66
485.53	15180.71
485.71	15007.52
485.89	15290.72
486.07	15515.41
486.25	15449.88
486.43	15529.45
486.61	15744.78
486.78	15845.43
486.96	15929.69
487.14	16236.30
487.32	16107.57
487.50	16575.67
487.68	16587.38
487.85	16975.91
488.03	17090.59
488.21	17085.91
488.39	16905.69
488.57	17352.73
488.75	17497.84
488.92	17479.12
489.10	17659.34
489.28	17642.96
489.46	18389.59
489.64	18169.58
489.81	18429.38
489.99	18675.13
490.17	18410.65
490.35	18754.71
490.53	18597.90
490.70	19176.01
490.88	18410.65
491.06	19227.50
491.24	19084.73
491.41	18991.11
491.59	19150.26
491.77	19461.55
491.95	19704.97
492.13	19665.18
492.30	19751.78
492.48	20002.22
492.66	19814.98
492.84	20128.61
493.01	20276.06
493.19	20233.93
493.37	20594.37
493.54	20355.64
493.72	20994.61
493.90	20905.66
494.08	21460.37
494.25	21371.43
494.43	21186.53
494.61	21394.84
494.79	21640.59
494.96	21640.59
495.14	21310.58
495.32	21818.47
495.49	21586.76
495.67	21806.77
495.85	22120.40
496.02	22221.05
496.20	22569.79
496.38	22483.19
496.55	22679.79
496.73	23253.22
496.91	22974.70
497.09	22881.08
497.26	23335.14
497.44	23384.29
497.62	23236.84
497.79	23206.41
497.97	23726.01
498.14	23534.09
498.32	23470.89
498.50	23665.16
498.67	24009.22
498.85	24233.91
499.03	24231.57
499.20	24180.07
499.38	24304.12
499.56	24013.90
499.73	24517.11
499.91	24716.06
500.08	24472.64
500.26	24056.03
500.44	24514.77
500.61	24549.88
500.79	25053.09
500.97	25127.99
501.14	25427.58
501.32	25163.10
501.49	25242.68
501.67	25013.31
501.84	25443.96
502.02	25298.85
502.20	25493.12
502.37	25474.39
502.55	25521.20
502.72	25853.56
502.90	26120.38
503.07	25900.37
503.25	26197.62
503.43	25942.50
503.60	26218.68
503.78	26080.59
503.95	26281.88
504.13	26560.40
504.30	26499.55
504.48	26574.44
504.65	26869.35
504.83	26838.92
505.01	27009.78
505.18	27054.25
505.36	27218.09
505.53	26934.88
505.71	27735.35
505.88	27477.89
506.06	27269.58
506.23	27601.94
506.41	27707.26
506.58	27555.13
506.76	27714.28
506.93	27721.30
507.11	27651.09
507.28	27908.55
507.46	27733.01
507.63	28009.19
507.81	28570.92
507.98	27955.36
508.16	28006.85
508.33	28582.62
508.50	28809.65
508.68	28828.38
508.85	29249.67
509.03	29195.84
509.20	28561.56
509.38	29024.98
509.55	29549.26
509.73	29062.43
509.90	29399.47
510.08	29195.84
510.25	29696.72
510.42	29233.29
510.60	29741.19
510.77	29509.47
510.95	29593.73
511.12	29930.77
511.30	30115.67
511.47	30022.05
511.64	30312.28
511.82	30433.99
511.99	30391.86
512.17	30689.10
512.34	30134.40
512.51	30251.42
512.69	30822.51
512.86	30731.23
513.04	30551.01
513.21	30597.82
513.38	30536.97
513.56	30752.30
513.73	30368.45
513.90	30864.64
514.08	30937.20
514.25	31094.02
514.43	30733.57
514.60	30733.57
514.77	31243.81
514.95	31531.70
515.12	31105.72
515.29	31548.08
515.47	31875.76
515.64	31943.63
515.81	31892.14
515.99	31761.07
516.16	31688.51
516.33	31880.44
516.51	31777.45
516.68	31463.82
516.85	31723.62
517.03	31761.07
517.20	31583.19
517.37	32264.28
517.54	32404.72
517.72	32257.26
517.89	32130.87
518.06	32208.11
518.24	32416.42
518.41	32587.28
518.58	32390.67
518.75	32556.85
518.93	32334.50
519.10	32594.30
519.27	32818.99
519.45	32861.12
519.62	33186.46
519.79	33436.89
519.96	33200.50
520.14	33326.89
520.31	33436.89
520.48	33371.36
520.65	33546.90
520.83	33434.55
521.00	33766.91
521.17	34007.98
521.34	34265.44
521.52	33701.37
521.69	33776.27
521.86	34134.37
522.03	33876.91
522.20	34328.64
522.38	34382.47
522.55	34408.22
522.72	34548.65
522.89	34499.50
523.07	34726.53
523.24	34267.78
523.41	34850.58
523.58	34253.74
523.75	35051.86
523.92	34995.69
524.10	34998.03
524.27	35075.27
524.44	35255.49
524.61	35124.42
524.78	35416.99
524.96	35491.88
525.13	35566.78
525.30	35555.08
525.47	35576.14
525.64	35356.13
525.81	35260.17
525.98	35718.92
526.16	35206.34
526.33	35721.26
526.50	35618.27
526.67	35229.74
526.84	35515.29
527.01	35576.14
527.18	35627.63
527.36	35995.10
527.53	35936.59
527.70	36320.43
527.87	36388.31
528.04	36205.75
528.21	36329.80
528.38	36474.91
528.55	36788.54
528.72	36325.11
528.89	36706.62
529.07	36357.88
529.24	36428.10
529.41	36870.46
529.58	36339.16
529.75	36870.46
529.92	36531.08
530.09	36732.37
530.26	36694.92
530.43	36837.69
530.60	36821.31
530.77	36982.80
530.94	37020.25
531.11	37111.53
531.28	37251.97
531.46	37001.53
531.63	37682.62
531.80	37483.68
531.97	37137.28
532.14	37455.59
532.31	37181.75
532.48	37495.38
532.65	37261.33
532.82	37273.03
532.99	37563.26
533.16	37680.28
533.33	37670.92
533.50	37710.71
533.67	37455.59
533.84	38066.47
534.01	37731.78
534.18	37954.13
534.35	38115.62
534.52	37820.72
534.69	38326.27
534.86	38293.50
535.03	38419.89
535.20	38607.14
535.37	38462.02
535.54	38462.02
535.71	38635.22
535.88	38707.78
536.05	38424.57
536.22	38742.89
536.38	38431.60
536.55	39012.05
536.72	38466.70
536.89	38560.33
537.06	38642.24
537.23	38642.24
537.40	38981.62
537.57	39021.41
537.74	38536.92
537.91	39264.83
538.08	39250.78
538.25	38813.10
538.42	38920.77
538.59	38988.64
538.75	38700.76
538.92	38965.24
539.09	39519.95
539.26	39372.49
539.43	39215.68
539.60	39297.59
539.77	39440.37
539.94	39412.28
540.11	39311.64
540.28	39433.35
540.44	39522.29
540.61	39264.83
540.78	39704.85
540.95	39367.81
541.12	39632.29
541.29	39440.37
541.46	39061.20
541.62	39974.01
541.79	40203.38
541.96	39440.37
542.13	39796.13
542.30	39634.63
542.47	40163.59
542.63	39751.66
542.80	40722.98
542.97	40790.86
543.14	40596.59
543.31	40610.64
543.48	40636.38
543.64	40472.54
543.81	40940.65
543.98	40882.14
544.15	40488.93
544.32	41038.95
544.48	40683.19
544.65	40678.51
544.82	40786.18
544.99	40641.06
545.16	40800.22
545.32	41188.75
545.49	41425.14
545.66	41207.47
545.83	40861.07
546.00	41392.37
546.16	40933.63
546.33	41064.70
546.50	40966.40
546.67	41158.32
546.83	41050.66
547.00	41469.61
547.17	41289.39
547.34	41186.41
547.50	41471.95
547.67	41710.69
547.84	41518.76
548.00	41825.37
548.17	41816.01
548.34	41621.75
548.51	41769.20
548.67	42099.22
548.84	42059.43
549.01	41897.93
549.18	41478.97
549.34	41996.23
549.51	41984.53
549.68	41666.22
549.84	41844.10
550.01	42169.43
550.18	41626.43
550.34	42429.23
550.51	41951.76
550.68	42330.93
550.84	41549.19
551.01	42323.91
551.18	42075.81
551.34	41675.58
551.51	42223.26
551.68	42534.56
551.84	42307.52
552.01	42721.80
552.18	42256.03
552.34	42349.65
552.51	42164.75
552.68	42494.77
552.84	42478.38
553.01	42270.08
553.18	42440.93
553.34	42288.80
553.51	42328.59
553.67	42410.51
553.84	42539.24
554.01	42653.92
554.17	43016.71
554.34	42838.83
554.51	42525.19
554.67	42656.26
554.84	43143.09
555.00	42581.37
555.17	42878.61
555.33	42979.26
555.50	43105.65
555.67	43236.72
555.83	42859.89
556.00	42934.79
556.16	43203.95
556.33	42677.33
556.50	42782.65
556.66	43051.81
556.83	42487.74
556.99	43285.87
557.16	43035.43
557.32	43456.73
557.49	42990.96
557.65	42719.46
557.82	42761.59
557.98	43171.18
558.15	43110.33
558.32	43250.76
558.48	43526.94
558.65	43351.40
558.81	43318.64
558.98	43035.43
559.14	43599.50
559.31	43178.20
559.47	43470.77
559.64	43922.49
559.80	43765.68
559.97	43477.79
560.13	43501.20
560.30	43545.67
560.46	43299.91
560.63	43938.88
560.79	43433.32
560.96	43772.70
561.12	43723.55
561.29	43892.07
561.45	43845.26
561.61	43690.78
561.78	43480.13
561.94	43435.66
562.11	43463.75
562.27	43187.56
562.44	43618.22
562.60	44083.99
562.77	44048.88
562.93	43622.90
563.10	43714.19
563.26	43438.00
563.42	43997.39
563.59	43533.96
563.75	43676.74
563.92	44048.88
564.08	43828.87
564.24	44327.41
564.41	43990.37
564.57	43690.78
564.74	43992.71
564.90	43847.60
565.07	43585.46
565.23	44037.18
565.39	43807.81
565.56	43728.23
565.72	44011.43
565.88	43856.96
566.05	43973.98
566.21	44048.88
566.38	44095.69
566.54	44151.87
566.70	44416.35
566.87	44210.38
567.03	44507.63
567.19	44081.65
567.36	44425.71
567.52	44231.44
567.68	44313.36
567.85	44048.88
568.01	44105.06
568.17	44034.84
568.34	44201.02
568.50	44156.55
568.66	43674.40
568.83	44149.53
568.99	43856.96
569.15	43868.66
569.32	43833.55
569.48	44208.04
569.64	44219.74
569.81	44137.82
569.97	44119.10
570.13	43887.39
570.30	44264.21
570.46	44268.89
570.62	44357.83
570.78	44594.23
570.95	44418.69
571.11	44648.06
571.27	43920.15
571.43	44100.37
571.60	43899.09
571.76	43931.86
571.92	44009.09
572.09	43976.33
572.25	43716.53
572.41	44357.83
572.57	44299.32
572.74	44802.53
572.90	44554.44
573.06	44720.62
573.22	44552.10
573.38	43969.30
573.55	44318.04
573.71	44844.66
573.87	44294.64
574.03	44062.93
574.20	43969.30
574.36	44147.18
574.52	44540.39
574.68	44898.50
574.84	44203.36
575.01	44240.81
575.17	44643.38
575.33	44205.70
575.49	44493.58
575.65	44664.44
575.82	44465.50
575.98	44748.70
576.14	44793.17
576.30	44650.40
576.46	44301.66
576.62	44163.57
576.79	44397.62
576.95	44383.58
577.11	44406.98
577.27	44318.04
577.43	44519.33
577.59	44554.44
577.75	44245.49
577.92	44065.27
578.08	44535.71
578.24	44439.75
578.40	44236.12
578.56	44189.31
578.72	44519.33
578.88	45008.50
579.04	44896.16
579.21	44341.45
579.37	45003.82
579.53	44474.86
579.69	44287.62
579.85	44435.07
580.01	44451.45
580.17	44563.80
580.33	44729.98
580.49	44676.15
580.65	44676.15
580.82	44547.42
580.98	44650.40
581.14	44596.57
581.30	44863.39
581.46	45085.74
581.62	44744.02
581.78	44374.22
581.94	44907.86
582.10	44713.59
582.26	44783.81
582.42	44786.15
582.58	44233.78
582.74	44327.41
582.90	44697.21
583.06	44584.86
583.22	44987.44
583.38	45090.42
583.54	44727.64
583.70	44816.58
583.86	44442.09
584.02	44196.34
584.18	44816.58
584.34	44683.17
584.50	44669.12
584.66	44629.34
584.82	44425.71
584.98	44612.95
585.14	45043.61
585.30	44533.37
585.46	44486.56
585.62	44678.49
585.78	44591.89
585.94	44273.57
586.10	44870.41
586.26	44318.04
586.42	44605.93
586.58	44816.58
586.74	44662.10
586.90	44584.86
587.06	44769.77
587.22	44638.70
587.38	44467.84
587.54	44624.65
587.70	44516.99
587.86	44774.45
588.02	44949.99
588.18	44622.31
588.34	44437.41
588.49	44402.30
588.65	44215.06
588.81	44514.65
588.97	44839.98
589.13	44217.40
589.29	44521.67
589.45	44788.49
589.61	44509.97
589.77	44875.09
589.93	45034.25
590.08	45277.66
590.24	44996.80
590.40	45226.17
590.56	45064.67
590.72	45003.82
590.88	44636.36
591.04	45153.62
591.20	45289.37
591.35	45359.58
591.51	44741.68
591.67	44755.72
591.83	44910.20
591.99	44847.00
592.15	45071.70
592.31	45111.49
592.46	44823.60
592.62	44769.77
592.78	45057.65
592.94	45338.52
593.10	44615.29
593.26	45067.02
593.41	44802.53
593.57	44680.83
593.73	44697.21
593.89	45214.47
594.05	45191.06
594.20	45474.27
594.36	45280.00
594.52	44776.79
594.68	44509.97
594.84	44919.56
594.99	44741.68
595.15	45109.14
595.31	45492.99
595.47	44685.51
595.62	45298.73
595.78	45017.86
595.94	45085.74
596.10	45382.99
596.25	45013.18
596.41	45251.92
596.57	45092.76
596.73	45104.46
596.88	44687.85
597.04	44982.76
597.20	45305.75
597.36	45397.03
597.51	45425.12
597.67	45373.63
597.83	45106.80
597.99	45656.83
598.14	44807.22
598.30	45303.41
598.46	45254.26
598.61	44889.13
598.77	45041.27
598.93	44870.41
599.09	45181.70
599.24	45619.38
599.40	45230.85
599.56	45588.95
599.71	44837.64
599.87	45333.84
600.03	45001.48
600.18	45221.49
600.34	45174.68
600.50	44797.85
600.65	45195.74
600.81	45523.42
600.97	45221.49
601.12	45045.95
601.28	45228.51
601.44	45345.54
601.59	44655.08
601.75	44388.26
601.91	44882.11
602.06	45029.57
602.22	44727.64
602.37	44891.48
602.53	45120.85
602.69	45015.52
602.84	44964.03
603.00	45010.84
603.16	45230.85
603.31	44334.43
603.47	44865.73
603.62	45380.65
603.78	44561.46
603.94	44973.39
604.09	45523.42
604.25	45408.73
604.40	45088.08
604.56	44914.88
604.71	44980.42
604.87	44765.09
605.03	44694.87
605.18	45113.83
605.34	44554.44
605.49	44708.91
605.65	44823.60
605.80	44435.07
605.96	44975.73
606.12	45090.42
606.27	45298.73
606.43	45078.72
606.58	45237.87
606.74	44795.51
606.89	44505.29
607.05	44954.67
607.20	44978.07
607.36	44509.97
607.51	44999.14
607.67	45034.25
607.82	45022.54
607.98	45041.27
608.13	44587.21
608.29	44952.33
608.44	44484.22
608.60	44158.89
608.75	44505.29
608.91	44208.04
609.06	44477.20
609.22	44774.45
609.37	44692.53
609.53	44554.44
609.68	44486.56
609.84	44676.15
609.99	44495.92
610.15	44100.37
610.30	44264.21
610.46	44168.25
610.61	44596.57
610.76	44406.98
610.92	44655.08
611.07	44748.70
611.23	44371.88
611.38	44502.95
611.54	44201.02
611.69	44402.30
611.84	43948.24
612.00	44334.43
612.15	44055.90
612.31	44435.07
612.46	44037.18
612.62	44708.91
612.77	44194.00
612.92	44641.04
613.08	44666.78
613.23	44275.91
613.39	44105.06
613.54	44006.75
613.69	43962.28
613.85	44261.87
614.00	44175.27
614.15	44311.02
614.31	44048.88
614.46	43985.69
614.62	43997.39
614.77	43805.47
614.92	44399.96
615.08	43934.20
615.23	44224.42
615.38	44107.40
615.54	43658.01
615.69	43835.89
615.84	43854.62
616.00	43772.70
616.15	43573.75
616.30	43559.71
616.46	43473.11
616.61	43566.73
616.76	43810.15
616.92	43597.16
617.07	43318.64
617.22	43384.17
617.37	43510.56
617.53	43674.40
617.68	43770.36
617.83	43957.60
617.99	43955.26
618.14	43761.00
618.29	43473.11
618.45	43281.19
618.60	43056.50
618.75	43915.47
618.90	43306.93
619.06	43744.61
619.21	43356.08
619.36	43718.87
619.51	43210.97
619.67	43503.54
619.82	43655.67
619.97	43442.68
620.12	43335.02
620.28	42939.47
620.43	42735.84
620.58	43416.94
620.73	42843.51
620.89	43175.86
621.04	43107.99
621.19	43140.75
621.34	43339.70
621.49	43229.69
621.65	42628.18
621.80	42714.78
621.95	42965.21
622.10	42986.28
622.25	42792.01
622.41	42562.64
622.56	42632.86
622.71	43559.71
622.86	42469.02
623.01	42796.70
623.16	42763.93
623.32	42759.25
623.47	42941.81
623.62	42895.00
623.77	42342.63
623.92	42625.84
624.07	42625.84
624.23	42841.17
624.38	42326.25
624.53	42567.32
624.68	42679.67
624.83	41818.35
624.98	42501.79
625.13	42120.28
625.29	42309.86
625.44	42267.73
625.59	42230.29
625.74	42363.70
625.89	42014.96
626.04	41827.71
626.19	42204.54
626.34	42494.77
626.49	41998.57
626.65	42099.22
626.80	42398.80
626.95	42253.69
627.10	42239.65
627.25	42398.80
627.40	41780.90
627.55	41642.81
627.70	41493.02
627.85	41579.62
628.00	41827.71
628.15	41916.65
628.30	41322.16
628.45	42036.02
628.60	41780.90
628.76	41816.01
628.91	41652.17
629.06	41539.83
629.21	41301.09
629.36	41584.30
629.51	41399.40
629.66	41387.69
629.81	41193.43
629.96	41528.13
630.11	41464.93
630.26	41743.45
630.41	41584.30
630.56	41200.45
630.71	41317.48
630.86	41111.51
631.01	41207.47
631.16	40961.72
631.31	41153.64
631.46	41504.72
631.61	40896.18
631.76	41539.83
631.91	41305.77
632.06	41092.79
632.21	41497.70
632.36	41113.85
632.51	40835.33
632.66	41008.53
632.81	40577.87
632.96	41031.93
633.10	40584.89
633.25	41125.55
633.40	40964.06
633.55	41352.58
633.70	40889.16
633.85	40612.98
634.00	40683.19
634.15	40821.28
634.30	40842.35
634.45	40559.14
634.60	40624.68
634.75	40802.56
634.90	40348.50
635.05	40371.90
635.19	40315.73
635.34	40542.76
635.49	40879.80
635.64	40563.82
635.79	40428.07
635.94	40552.12
636.09	40659.79
636.24	39976.35
636.39	40322.75
636.53	40439.78
636.68	40114.44
636.83	39971.67
636.98	40432.75
637.13	40147.21
637.28	40107.42
637.43	40601.27
637.57	40163.59
637.72	39931.88
637.87	40032.52
638.02	39796.13
638.17	40144.87
638.32	39915.50
638.46	39709.53
638.61	40189.34
638.76	39995.07
638.91	40226.79
639.06	39660.38
639.20	40004.44
639.35	40095.72
639.50	39608.89
639.65	40828.30
639.80	39856.98
639.94	39751.66
640.09	40109.76
640.24	39463.77
640.39	39473.13
640.54	39557.39
640.68	39421.64
640.83	39690.80
640.98	39454.41
641.13	39428.66
641.27	39714.21
641.42	39318.66
641.57	39519.95
641.72	39606.55
641.86	39019.07
642.01	39232.06
642.16	39037.80
642.31	38778.00
642.45	39426.32
642.60	38948.85
642.75	39222.70
642.90	39192.27
643.04	39323.34
643.19	39159.50
643.34	39126.74
643.48	39281.21
643.63	38904.38
643.78	38742.89
643.93	38831.83
644.07	38815.44
644.22	39070.56
644.37	38775.66
644.51	38813.10
644.66	39164.18
644.81	39044.82
644.95	39136.10
645.10	38794.38
645.25	38913.75
645.39	39056.52
645.54	39042.48
645.69	38717.14
645.83	38916.09
645.98	38988.64
646.13	38291.16
646.27	38850.55
646.42	38565.01
646.57	38361.38
646.71	38782.68
646.86	38492.45
647.00	38724.16
647.15	38593.09
647.30	38368.40
647.44	38721.82
647.59	38415.21
647.74	38155.41
647.88	38197.54
648.03	38513.52
648.17	38377.76
648.32	38513.52
648.47	38316.91
648.61	38169.46
648.76	38330.95
648.90	38946.51
649.05	38270.10
649.20	38073.49
649.34	38242.01
649.49	38043.07
649.63	38092.22
649.78	37860.51
649.92	38106.26
650.07	38497.13
650.21	37977.53
650.36	38054.77
650.51	37708.37
650.65	38352.02
650.80	38574.37
650.94	38253.72
651.09	37706.03
651.23	38014.98
651.38	38033.71
651.52	37879.23
651.67	37600.71
651.81	37818.38
651.96	37511.77
652.10	37600.71
652.25	37532.83
652.39	37572.62
652.54	37965.83
652.68	37603.05
652.83	37479.00
652.97	37998.60
653.12	37706.03
653.26	37457.93
653.41	37736.46
653.55	37057.70
653.70	37240.26
653.84	37900.29
653.99	37263.67
654.13	37364.31
654.27	37572.62
654.42	36966.42
654.56	37347.93
654.71	36947.70
654.85	37689.65
655.00	37167.71
655.14	37104.51
655.29	37085.79
655.43	37212.18
655.57	36776.84
655.72	36959.40
655.86	36603.64
656.01	36589.59
656.15	36648.11
656.30	36999.19
656.44	36776.84
656.58	36957.06
656.73	36676.19
656.87	37020.25
657.01	36685.56
657.16	36828.33
657.30	36355.54
657.45	35929.56
657.59	36816.63
657.73	36690.24
657.88	36615.34
658.02	36629.38
658.16	36987.49
658.31	36851.73
658.45	36582.57
658.60	36421.08
658.74	36975.78
658.88	36554.49
659.03	36374.27
659.17	36016.16
659.31	36088.72
659.46	36374.27
659.60	36224.47
659.74	36233.83
659.89	35838.28
660.03	36046.59
660.17	35749.34
660.32	36084.04
660.46	36425.76
660.60	35988.08
660.74	36123.83
660.89	35962.33
661.03	35676.79
661.17	35601.89
661.32	35395.92
661.46	35424.01
661.60	35541.03
661.74	35803.17
661.89	35590.19
662.03	35295.28
662.17	35337.41
662.31	35512.95
662.46	35253.15
662.60	35744.66
662.74	34995.69
662.88	35274.21
663.03	34787.38
663.17	34983.99
663.31	34794.40
663.45	34953.56
663.60	34927.81
663.74	34768.66
663.88	35012.07
664.02	34871.64
664.17	35208.68
664.31	34588.44
664.45	34691.42
664.59	34487.79
664.73	34375.45
664.88	34803.77
665.02	34239.70
665.16	34932.50
665.30	34305.23
665.44	34335.66
665.59	34110.97
665.73	33886.28
665.87	34029.05
666.01	33724.78
666.15	34160.12
666.29	33839.47
666.44	34012.66
666.58	34176.50
666.72	34162.46
666.86	34419.92
667.00	34316.93
667.14	33558.60
667.28	33668.61
667.43	33153.69
667.57	33479.02
667.71	33706.05
667.85	34052.45
667.99	33345.61
668.13	33160.71
668.27	33516.47
668.41	33296.46
668.56	33109.22
668.70	33441.57
668.84	33376.04
668.98	33198.16
669.12	32870.48
669.26	32816.65
669.40	32811.97
669.54	32802.61
669.68	32746.44
669.82	32811.97
669.96	32751.12
670.10	32755.80
670.25	32755.80
670.39	32734.73
670.53	32622.39
670.67	32606.00
670.81	32755.80
670.95	32210.45
671.09	32367.27
671.23	32566.21
671.37	32189.39
671.51	32385.99
671.65	31941.29
671.79	31693.19
671.93	31779.79
672.07	32165.98
672.21	32027.89
672.35	31903.84
672.49	31805.54
672.63	32011.51
672.77	31292.96
672.91	31821.92
673.05	31398.29
673.19	31260.20
673.33	30834.22
673.47	31248.49
673.61	30909.11
673.75	30937.20
673.89	30574.42
674.03	30766.34
674.17	30918.48
674.31	31079.97
674.45	30632.93
674.59	30916.14
674.73	30679.74
674.87	30649.32
675.01	30539.31
675.15	30958.27
675.29	30771.02
675.43	30199.93
675.56	30162.48
675.70	30230.36
675.84	29898.00
675.98	29263.72
676.12	30010.35
676.26	29890.98
676.40	29584.37
676.54	30122.69
676.68	29755.23
676.82	29560.97
676.96	29656.93
677.10	29921.41
677.23	29259.04
677.37	29219.25
677.51	29111.58
677.65	28830.72
677.79	28556.88
677.93	28945.41
678.07	28599.01
678.21	28285.37
678.34	28327.50
678.48	28156.64
678.62	28591.98
678.76	27988.13
678.90	27758.75
679.04	28116.86
679.18	28009.19
679.31	27505.98
679.45	27634.71
679.59	27227.45
679.73	27417.04
679.87	27786.84
680.00	27407.67
680.14	27503.64
680.28	27208.73
680.42	27117.45
680.56	27311.71
680.70	27447.46
680.83	27157.24
680.97	27253.20
681.11	26967.65
681.25	26616.57
681.39	26415.29
681.52	26906.80
681.66	26881.05
681.80	26448.05
681.94	26485.50
682.07	26291.24
682.21	26050.16
682.35	26295.92
682.49	26347.41
682.62	26352.09
682.76	26459.76
682.90	25806.75
683.04	25956.54
683.17	25699.08
683.31	25376.09
683.45	25476.73
683.59	25088.20
683.72	25130.33
683.86	25214.59
684.00	25151.40
684.13	25350.34
684.27	24807.34
684.41	25074.16
684.55	24954.79
684.68	24631.80
684.82	24587.33
684.96	24854.15
685.09	24467.96
685.23	24678.61
685.37	24161.35
685.50	24292.42
685.64	24545.20
685.78	24004.53
685.91	23859.42
686.05	23791.55
686.19	23826.65
686.32	23665.16
686.46	23150.24
686.60	23159.60
686.73	23405.36
686.87	23115.13
687.01	23133.86
687.14	23185.35
687.28	23049.60
687.42	22876.40
687.55	22927.89
687.69	22845.97
687.82	22759.37
687.96	22771.07
688.10	22665.75
688.23	22719.58
688.37	22207.00
688.50	22286.58
688.64	22382.54
688.78	22497.23
688.91	22361.48
689.05	22221.05
689.18	21940.18
689.32	21605.49
689.46	21893.37
689.59	22169.55
689.73	22015.08
689.86	21799.75
690.00	21568.04
690.13	21455.69
690.27	21518.89
690.41	21851.24
690.54	20940.77
690.68	20947.79
690.81	20657.57
690.95	20950.14
691.08	20882.26
691.22	20751.19
691.35	20828.43
691.49	20865.88
691.62	20819.07
691.76	20299.47
691.89	20421.17
692.03	20119.24
692.16	20229.25
692.30	20011.58
692.43	19929.66
692.57	19871.15
692.70	19910.94
692.84	19807.95
692.97	19707.31
693.11	19803.27
693.24	19599.65
693.38	19468.58
693.51	19503.68
693.65	19672.20
693.78	19730.72
693.92	19250.91
694.05	19475.60
694.19	19103.45
694.32	19379.64
694.45	18897.49
694.59	18775.78
694.72	18661.09
694.86	18644.71
694.99	18642.37
695.13	18569.81
695.26	18401.29
695.39	18396.61
695.53	18382.57
695.66	18185.96
695.80	18462.15
695.93	18190.64
696.07	17860.63
696.20	18075.96
696.33	18099.36
696.47	18040.85
696.60	17987.02
696.73	17631.26
696.87	17495.50
697.00	17649.98
697.14	17621.89
697.27	17184.21
697.40	17326.99
697.54	17596.15
697.67	17102.29
697.80	17195.92
697.94	16915.05
698.07	16893.99
698.21	16893.99
698.34	16816.75
698.47	16748.87
698.61	16322.90
698.74	16425.88
698.87	16343.96
699.01	16079.48
699.14	16285.45
699.27	15873.51
699.40	16175.44
699.54	16042.03
699.67	15826.70
699.80	16011.60
699.94	16287.79
700.07	15917.98
700.20	15669.89
700.34	15405.41
700.47	15576.27
700.60	15597.33
700.73	15824.36
700.87	15564.56
701.00	15499.03
701.13	15468.60
701.26	15286.04
701.40	15269.66
701.53	15325.83
701.66	15192.42
701.79	14916.23
701.93	14995.81
702.06	14728.99
702.19	14452.81
702.32	14752.40
702.46	14764.10
702.59	14464.51
702.72	14513.66
702.85	14604.94
702.99	14738.35
703.12	14314.72
703.25	14281.95
703.38	14286.63
703.51	14204.71
703.65	14221.10
703.78	14064.28
703.91	13935.55
704.04	13987.04
704.17	14038.53
704.31	14078.32
704.44	13933.21
704.57	13696.82
704.70	13731.92
704.83	13724.90
704.96	13540.00
705.10	13624.26
705.23	13652.34
>>>>>End Processed Spectral Data<<<<<
