SpectraSuite Data File
++++++++++++++++++++++++++++++++++++
Date: Fri Oct 25 10:44:34 EDT 2013
User: price-jones
Dark Spectrum Present: No
Reference Spectrum Present: No
Number of Sampled Component Spectra: 1
Spectrometers: USB2+H05261
Integration Time (usec): 100000 (USB2+H05261)
Spectra Averaged: 1 (USB2+H05261)
Boxcar Smoothing: 0 (USB2+H05261)
Correct for Electrical Dark: No (USB2+H05261)
Strobe/Lamp Enabled: No (USB2+H05261)
Correct for Detector Non-linearity: No (USB2+H05261)
Correct for Stray Light: No (USB2+H05261)
Number of Pixels in Processed Spectrum: 2048
>>>>>Begin Processed Spectral Data<<<<<
365.73	156.82
365.92	156.82
366.12	156.82
366.32	0.00
366.52	91.28
366.72	70.22
366.91	18.72
367.11	18.72
367.31	60.85
367.51	16.38
367.70	42.13
367.90	70.22
368.10	23.41
368.30	11.70
368.49	79.58
368.69	49.15
368.89	70.22
369.09	42.13
369.28	91.28
369.48	79.58
369.68	49.15
369.87	105.32
370.07	119.37
370.27	131.07
370.47	262.14
370.66	355.76
370.86	362.78
371.06	397.89
371.25	425.98
371.45	428.32
371.65	465.77
371.84	475.13
372.04	416.62
372.24	416.62
372.44	470.45
372.63	414.27
372.83	491.51
373.03	491.51
373.22	444.70
373.42	442.36
373.62	425.98
373.81	575.77
374.01	589.82
374.21	507.90
374.40	482.15
374.60	507.90
374.79	519.60
374.99	503.22
375.19	552.37
375.38	627.26
375.58	547.69
375.78	526.62
375.97	543.00
376.17	594.50
376.37	657.69
376.56	592.16
376.76	531.30
376.95	596.84
377.15	636.63
377.35	582.79
377.54	678.76
377.74	643.65
377.93	585.13
378.13	585.13
378.33	648.33
378.52	643.65
378.72	643.65
378.91	653.01
379.11	587.47
379.31	643.65
379.50	564.07
379.70	571.09
379.89	617.90
380.09	615.56
380.28	613.22
380.48	737.27
380.68	690.46
380.87	702.16
381.07	638.97
381.26	653.01
381.46	739.61
381.65	723.23
381.85	662.37
382.04	653.01
382.24	589.82
382.43	662.37
382.63	692.80
382.83	667.05
383.02	697.48
383.22	737.27
383.41	751.31
383.61	760.67
383.80	760.67
384.00	702.16
384.19	720.88
384.39	739.61
384.58	702.16
384.78	746.63
384.97	746.63
385.17	727.91
385.36	737.27
385.56	767.70
385.75	732.59
385.95	849.61
386.14	793.44
386.34	795.78
386.53	816.85
386.72	730.25
386.92	837.91
387.11	777.06
387.31	873.02
387.50	767.70
387.70	833.23
387.89	910.47
388.09	931.53
388.28	842.59
388.48	877.70
388.67	910.47
388.86	847.27
389.06	837.91
389.25	875.36
389.45	959.62
389.64	875.36
389.84	854.30
390.03	1004.09
390.22	917.49
390.42	894.08
390.61	877.70
390.81	940.90
391.00	926.85
391.19	1116.44
391.39	1004.09
391.58	1004.09
391.78	1006.43
391.97	1001.75
392.16	905.79
392.36	1083.67
392.55	917.49
392.75	940.90
392.94	976.00
393.13	945.58
393.33	1006.43
393.52	999.41
393.71	1008.77
393.91	1004.09
394.10	1015.79
394.29	1067.28
394.49	1125.80
394.68	1217.08
394.88	1184.31
395.07	1174.95
395.26	1130.48
395.46	1191.33
395.65	1179.63
395.84	1111.75
396.04	1165.59
396.23	1156.22
396.42	1153.88
396.62	1104.73
396.81	1118.78
397.00	1254.53
397.19	1151.54
397.39	1266.23
397.58	1299.00
397.77	1226.44
397.97	1261.55
398.16	1228.78
398.35	1310.70
398.55	1308.36
398.74	1280.27
398.93	1455.81
399.12	1343.47
399.32	1357.51
399.51	1345.81
399.70	1474.54
399.90	1437.09
400.09	1432.41
400.28	1474.54
400.47	1310.70
400.67	1490.92
400.86	1544.75
401.05	1451.13
401.24	1493.26
401.44	1537.73
401.63	1507.30
401.82	1675.82
402.01	1469.86
402.21	1561.14
402.40	1509.65
402.59	1582.20
402.78	1596.25
402.97	1596.25
403.17	1537.73
403.36	1603.27
403.55	1722.63
403.74	1633.69
403.93	1701.57
404.13	1687.53
404.32	1638.38
404.51	1717.95
404.70	1671.14
404.89	1746.04
405.09	1743.70
405.28	1694.55
405.47	1713.27
405.66	1774.13
405.85	1783.49
406.05	1748.38
406.24	1900.52
406.43	1813.92
406.62	1844.34
406.81	1790.51
407.00	1823.28
407.20	1858.39
407.39	1830.30
407.58	1865.41
407.77	1952.01
407.96	1928.60
408.15	1921.58
408.34	1949.67
408.54	2097.12
408.73	2040.95
408.92	2052.65
409.11	2087.76
409.30	2019.88
409.49	2010.52
409.68	2097.12
409.87	2167.34
410.07	2134.57
410.26	2165.00
410.45	2221.17
410.64	2134.57
410.83	2209.47
411.02	2153.29
411.21	2317.13
411.40	2263.30
411.59	2415.43
411.78	2485.65
411.98	2361.60
412.17	2370.96
412.36	2340.54
412.55	2457.56
412.74	2455.22
412.93	2464.58
413.12	2401.39
413.31	2602.68
413.50	2590.97
413.69	2616.72
413.88	2600.34
414.07	2640.12
414.26	2605.02
414.45	2630.76
414.64	2719.70
414.83	2682.25
415.02	2658.85
415.22	2726.72
415.41	2822.69
415.60	2958.44
415.79	2768.85
415.98	2913.97
416.17	2848.43
416.36	2937.37
416.55	2984.18
416.74	2881.20
416.93	2977.16
417.12	2920.99
417.31	2998.23
417.50	3005.25
417.69	3084.83
417.88	3091.85
418.07	2965.46
418.26	3206.53
418.45	3204.19
418.64	3232.28
418.83	3297.81
419.02	3185.47
419.21	3290.79
419.39	3358.67
419.58	3183.13
419.77	3204.19
419.96	3272.07
420.15	3407.82
420.34	3351.65
420.53	3386.76
420.72	3344.63
420.91	3435.91
421.10	3435.91
421.29	3543.57
421.48	3447.61
421.67	3435.91
421.86	3442.93
422.05	3454.63
422.24	3459.31
422.43	3389.10
422.61	3564.64
422.80	3557.61
422.99	3517.83
423.18	3417.18
423.37	3763.58
423.56	3555.27
423.75	3625.49
423.94	3517.83
424.13	3318.88
424.32	3269.73
424.50	3571.66
424.69	3559.95
424.88	3681.66
425.07	3571.66
425.26	3482.72
425.45	3581.02
425.64	3665.28
425.83	3585.70
426.01	3618.47
426.20	3618.47
426.39	3705.07
426.58	3552.93
426.77	3634.85
426.96	3557.61
427.15	3660.60
427.33	3772.94
427.52	3574.00
427.71	3756.56
427.90	3733.15
428.09	3822.09
428.28	3796.35
428.46	3812.73
428.65	3822.09
428.84	3913.38
429.03	3920.40
429.22	3852.52
429.40	3840.82
429.59	3904.01
429.78	3592.72
429.97	3641.87
430.16	3864.22
430.34	3798.69
430.53	3906.35
430.72	3915.72
430.91	3908.69
431.10	4058.49
431.28	4182.54
431.47	4210.62
431.66	4241.05
431.85	4198.92
432.03	4236.37
432.22	4217.65
432.41	4337.01
432.60	4177.86
432.79	4257.43
432.97	4374.46
433.16	4264.46
433.35	4322.97
433.54	4297.22
433.72	4367.44
433.91	4461.06
434.10	4461.06
434.28	4404.89
434.47	4290.20
434.66	4601.49
434.85	4531.28
435.03	4423.61
435.22	4547.66
435.41	4716.18
435.59	4631.92
435.78	4678.73
435.97	4622.56
436.16	4634.26
436.34	4748.95
436.53	4674.05
436.72	4779.37
436.90	4678.73
437.09	4854.27
437.28	4587.45
437.46	4727.88
437.65	4681.07
437.84	4631.92
438.02	4667.03
438.21	4882.36
438.40	4847.25
438.58	4910.44
438.77	4975.98
438.96	4990.02
439.14	5013.43
439.33	5078.96
439.52	5125.77
439.70	5132.79
439.89	5125.77
440.08	5174.92
440.26	5188.97
440.45	5242.80
440.63	5273.23
440.82	5416.00
441.01	5394.93
441.19	5425.36
441.38	5497.92
441.57	5411.32
441.75	5570.48
441.94	5738.99
442.12	5781.12
442.31	5654.73
442.50	5738.99
442.68	5781.12
442.87	5706.23
443.05	5827.93
443.24	5961.34
443.43	5907.51
443.61	5942.62
443.80	6008.16
443.98	5837.30
444.17	5675.80
444.35	5891.13
444.54	6001.13
444.73	5849.00
444.91	6038.58
445.10	5944.96
445.28	5905.17
445.47	5792.83
445.65	6031.56
445.84	5923.90
446.02	6040.92
446.21	5942.62
446.39	5975.39
446.58	6141.57
446.77	6146.25
446.95	5982.41
447.14	6216.46
447.32	6097.10
447.51	6106.46
447.69	6015.18
447.88	6104.12
448.06	6132.20
448.25	6090.07
448.43	6319.45
448.62	6136.88
448.80	6155.61
448.99	6214.12
449.17	6279.66
449.36	6239.87
449.54	6340.51
449.73	6499.67
449.91	6471.58
450.10	6422.43
450.28	6420.09
450.46	6569.88
450.65	6525.41
450.83	6656.48
451.02	6565.20
451.20	6635.42
451.39	6520.73
451.57	6452.86
451.76	6473.92
451.94	6562.86
452.13	6637.76
452.31	6546.48
452.49	6450.52
452.68	6497.33
452.86	6565.20
453.05	6733.72
453.23	6637.76
453.42	6761.81
453.60	6579.25
453.78	6794.58
453.97	6841.39
454.15	6803.94
454.34	6815.64
454.52	6974.80
454.70	6930.33
454.89	6939.69
455.07	6977.14
455.26	6932.67
455.44	7037.99
455.62	7136.29
455.81	6909.26
455.99	6993.52
456.17	7187.79
456.36	7227.57
456.54	7199.49
456.73	7297.79
456.91	7503.76
457.09	7370.35
457.28	7478.01
457.46	7485.03
457.64	7581.00
457.83	7424.18
458.01	7166.72
458.19	7489.71
458.38	7389.07
458.56	7569.29
458.74	7407.80
458.93	7550.57
459.11	7513.12
459.29	7351.62
459.48	7641.85
459.66	7538.87
459.84	7761.22
460.03	7950.80
460.21	7698.02
460.39	7691.00
460.57	7777.60
460.76	7831.43
460.94	7955.48
461.12	7901.65
461.31	7784.62
461.49	7815.05
461.67	7882.92
461.85	8030.38
462.04	7964.84
462.22	8217.62
462.40	8248.05
462.59	8264.43
462.77	8126.34
462.95	8107.62
463.13	8344.01
463.32	8301.88
463.50	8196.56
463.68	8257.41
463.86	8262.09
464.05	8182.51
464.23	8152.09
464.41	8383.80
464.59	8248.05
464.78	8449.33
464.96	8435.29
465.14	8234.00
465.32	8355.71
465.50	8540.61
465.69	8575.72
465.87	8566.36
466.05	8603.81
466.23	8547.64
466.41	8409.54
466.60	8631.90
466.78	8526.57
466.96	8512.53
467.14	8697.43
467.32	8662.32
467.51	8561.68
467.69	8418.91
467.87	8676.37
468.05	8896.38
468.23	8711.47
468.41	8624.87
468.60	8819.14
468.78	9060.21
468.96	8631.90
469.14	8877.65
469.32	9151.49
469.50	8784.03
469.69	9078.94
469.87	9050.85
470.05	9043.83
470.23	8964.25
470.41	8985.32
470.59	9121.07
470.77	8945.53
470.95	9149.15
471.14	9242.78
471.32	9214.69
471.50	9540.02
471.68	9289.59
471.86	9284.91
472.04	9535.34
472.22	9673.43
472.40	9273.20
472.58	9413.63
472.77	9680.46
472.95	9795.14
473.13	9881.74
473.31	9703.86
473.49	9664.07
473.67	9764.72
473.85	9872.38
474.03	10218.78
474.21	10083.03
474.39	10382.62
474.57	10155.58
474.75	10382.62
474.93	10242.18
475.12	10300.70
475.30	10373.25
475.48	10331.12
475.66	10349.85
475.84	10501.98
476.02	10462.19
476.20	10565.18
476.38	10729.02
476.56	11014.56
476.74	10799.23
476.92	10895.19
477.10	11286.06
477.28	11171.38
477.46	11260.32
477.64	11159.67
477.82	11375.00
478.00	11672.25
478.18	11569.27
478.36	11669.91
478.54	11639.48
478.72	11665.23
478.90	11571.61
479.08	11899.28
479.26	12053.76
479.44	12119.29
479.62	12159.08
479.80	12329.94
479.98	12381.43
480.16	12744.22
480.34	12601.44
480.52	12746.56
480.70	12692.73
480.88	12657.62
481.06	12823.80
481.24	12800.39
481.41	13085.94
481.59	13212.32
481.77	13303.60
481.95	13273.18
482.13	13544.68
482.31	13504.89
482.49	13916.83
482.67	13783.41
482.85	13823.20
483.03	14101.73
483.21	14288.97
483.39	14038.53
483.57	13935.55
483.74	14541.75
483.92	14586.22
484.10	14265.57
484.28	14705.59
484.46	14881.13
484.64	15051.99
484.82	14817.93
485.00	15044.96
485.18	15431.15
485.35	15562.22
485.53	15152.63
485.71	15176.03
485.89	15517.75
486.07	15442.85
486.25	15693.29
486.43	15817.34
486.61	15962.45
486.78	15967.13
486.96	16109.91
487.14	16402.47
487.32	16585.04
487.50	16947.82
487.68	16844.84
487.85	17114.00
488.03	17172.51
488.21	17231.02
488.39	17216.98
488.57	17308.26
488.75	17373.80
488.92	17717.86
489.10	18024.47
489.28	18015.10
489.46	18052.55
489.64	18045.53
489.81	18684.50
489.99	18581.51
490.17	18941.96
490.35	19014.51
490.53	18682.16
490.70	19344.53
490.88	19002.81
491.06	19262.61
491.24	19353.89
491.41	19543.47
491.59	19318.78
491.77	19309.42
491.95	19679.22
492.13	19641.78
492.30	20266.70
492.48	20102.86
492.66	20467.98
492.84	20259.68
493.01	20819.07
493.19	20507.77
493.37	20772.25
493.54	20585.01
493.72	21392.50
493.90	21188.87
494.08	21352.71
494.25	21605.49
494.43	21701.45
494.61	21694.43
494.79	21996.35
494.96	21832.52
495.14	21855.92
495.32	22087.64
495.49	22015.08
495.67	22199.98
495.85	22522.98
496.02	22677.45
496.20	22845.97
496.38	22745.33
496.55	23056.62
496.73	23290.67
496.91	23075.34
497.09	23288.33
497.26	23295.35
497.44	23344.50
497.62	23667.50
497.79	23761.12
497.97	23323.44
498.14	23775.16
498.32	23950.70
498.50	23962.40
498.67	24327.53
498.85	24212.84
499.03	24400.08
499.20	24318.17
499.38	24603.71
499.56	24673.93
499.73	24437.53
499.91	24655.20
500.08	25137.35
500.26	24421.15
500.44	24783.93
500.61	25003.94
500.79	24950.11
500.97	24922.02
501.14	25600.78
501.32	25495.46
501.49	25303.53
501.67	25380.77
501.84	25635.89
502.02	25603.12
502.20	26038.46
502.37	25879.30
502.55	25900.37
502.72	26382.52
502.90	26487.84
503.07	26139.10
503.25	26450.39
503.43	26464.44
503.60	26504.23
503.78	26115.70
503.95	26698.49
504.13	26572.10
504.30	27005.10
504.48	26625.93
504.65	27213.41
504.83	27267.24
505.01	27613.64
505.18	27363.20
505.36	27707.26
505.53	27491.93
505.71	27761.09
505.88	27623.00
506.06	27470.87
506.23	27728.33
506.41	27367.88
506.58	27896.85
506.76	28077.07
506.93	28350.91
507.11	28266.65
507.28	27903.87
507.46	27838.33
507.63	28219.84
507.81	28573.26
507.98	28280.69
508.16	28549.85
508.33	28741.78
508.50	28767.52
508.68	28891.57
508.85	28884.55
509.03	29207.55
509.20	29092.86
509.38	29331.59
509.55	29544.58
509.73	29078.82
509.90	29553.94
510.08	29638.20
510.25	29188.82
510.42	29598.41
510.60	29797.36
510.77	29907.37
510.95	30071.20
511.12	29797.36
511.30	30043.12
511.47	30202.27
511.64	30579.10
511.82	30513.56
511.99	30132.06
512.17	30431.65
512.34	30338.02
512.51	30845.92
512.69	30684.42
512.86	31049.55
513.04	31094.02
513.21	30600.16
513.38	30890.39
513.56	30665.70
513.73	31040.18
513.90	30876.35
514.08	31112.74
514.25	31178.28
514.43	31276.58
514.60	31576.17
514.77	31147.85
514.95	31328.07
515.12	31611.28
515.29	31779.79
515.47	31934.27
515.64	32233.86
515.81	32039.59
515.99	32044.27
516.16	31840.65
516.33	31758.73
516.51	32400.04
516.68	31805.54
516.85	31777.45
517.03	31910.86
517.20	32252.58
517.37	32203.43
517.54	32322.80
517.72	32449.19
517.89	32334.50
518.06	32191.73
518.24	32285.35
518.41	32320.46
518.58	32671.54
518.75	32584.94
518.93	32727.71
519.10	33085.81
519.27	33029.64
519.45	33200.50
519.62	33244.97
519.79	33460.30
519.96	33544.56
520.14	33823.08
520.31	33448.60
520.48	33539.88
520.65	33453.28
520.83	34139.05
521.00	34534.60
521.17	34087.56
521.34	34017.35
521.52	34054.79
521.69	34258.42
521.86	34323.96
522.03	33907.34
522.20	34396.51
522.38	34602.48
522.55	34689.08
522.72	34422.26
522.89	34579.07
523.07	34522.90
523.24	34771.00
523.41	34951.22
523.58	34653.97
523.75	35342.09
523.92	35201.66
524.10	35386.56
524.27	35178.25
524.44	35379.54
524.61	35646.36
524.78	35384.22
524.96	35199.32
525.13	35524.65
525.30	35646.36
525.47	36217.45
525.64	35592.53
525.81	36020.84
525.98	35814.88
526.16	35534.01
526.33	35807.86
526.50	35805.52
526.67	35611.25
526.84	36041.91
527.01	35695.51
527.18	36051.27
527.36	36233.83
527.53	36201.07
527.70	36098.08
527.87	36411.71
528.04	36301.71
528.21	36374.27
528.38	36259.58
528.55	36470.23
528.72	36896.20
528.89	36891.52
529.07	36446.82
529.24	36851.73
529.41	36594.28
529.58	36659.81
529.75	36964.08
529.92	36863.44
530.09	37141.96
530.26	37467.30
530.43	37406.44
530.60	36638.75
530.77	36662.15
530.94	37247.29
531.11	37258.99
531.28	37109.19
531.46	37710.71
531.63	37521.13
531.80	37682.62
531.97	37177.07
532.14	37116.22
532.31	37254.31
532.48	37401.76
532.65	38127.33
532.82	37607.73
532.99	37914.34
533.16	38040.73
533.33	38143.71
533.50	38139.03
533.67	38192.86
533.84	37954.13
534.01	37652.20
534.18	38377.76
534.35	38967.58
534.52	38361.38
534.69	38309.89
534.86	38089.88
535.03	38485.43
535.20	38717.14
535.37	38885.66
535.54	39072.90
535.71	38345.00
535.88	38965.24
536.05	38745.23
536.22	38972.26
536.38	38913.75
536.55	38691.40
536.72	38665.65
536.89	39098.65
537.06	38948.85
537.23	39019.07
537.40	38990.98
537.57	38932.47
537.74	39164.18
537.91	39346.75
538.08	39346.75
538.25	39213.34
538.42	39068.22
538.59	39924.86
538.75	38927.79
538.92	39234.40
539.09	39360.79
539.26	39512.92
539.43	39501.22
539.60	39550.37
539.77	39005.03
539.94	39262.49
540.11	39559.73
540.28	39723.57
540.44	39641.65
540.61	39772.72
540.78	39641.65
540.95	39431.01
541.12	39601.86
541.29	39704.85
541.46	39901.45
541.62	40088.70
541.79	40390.62
541.96	40081.67
542.13	39777.40
542.30	40266.58
542.47	40334.45
542.63	40917.25
542.80	40343.81
542.97	40638.72
543.14	40966.40
543.31	40779.15
543.48	40662.13
543.64	40886.82
543.81	40786.18
543.98	40758.09
544.15	40690.21
544.32	40952.35
544.48	41235.56
544.65	40837.67
544.82	41006.19
544.99	41160.66
545.16	41076.40
545.32	40783.83
545.49	41549.19
545.66	41338.54
545.83	41053.00
546.00	41502.38
546.16	41219.17
546.33	40842.35
546.50	41460.25
546.67	41064.70
546.83	41165.34
547.00	41242.58
547.17	41614.72
547.34	40994.48
547.50	41408.76
547.67	42057.09
547.84	41820.69
548.00	41635.79
548.17	41752.82
548.34	41958.78
548.51	41907.29
548.67	41621.75
548.84	41825.37
549.01	41565.57
549.18	41729.41
549.34	42045.38
549.51	42370.72
549.68	41652.17
549.84	42347.31
550.01	42586.05
550.18	41659.20
550.34	42380.08
550.51	42204.54
550.68	42190.50
550.84	41902.61
551.01	42649.24
551.18	42586.05
551.34	42337.95
551.51	42560.30
551.68	42415.19
551.84	42424.55
552.01	42422.21
552.18	42113.26
552.34	42429.23
552.51	42775.63
552.68	42227.95
552.84	42990.96
553.01	43166.50
553.18	42689.03
553.34	42623.50
553.51	42195.18
553.67	42719.46
553.84	43220.33
554.01	42859.89
554.17	42752.23
554.34	43253.10
554.51	43115.01
554.67	43058.84
554.84	42740.52
555.00	42904.36
555.17	42883.30
555.33	43210.97
555.50	42792.01
555.67	43250.76
555.83	43119.69
556.00	42616.47
556.16	43257.78
556.33	42738.18
556.50	42579.03
556.66	43030.75
556.83	42653.92
556.99	43421.62
557.16	43615.88
557.32	43449.70
557.49	43583.12
557.65	43463.75
557.82	43342.04
557.98	43196.93
558.15	43459.07
558.32	43555.03
558.48	43372.47
558.65	43608.86
558.81	43150.12
558.98	43402.89
559.14	43264.80
559.31	43430.98
559.47	43796.10
559.64	43842.92
559.80	43934.20
559.97	43896.75
560.13	43613.54
560.30	43533.96
560.46	43281.19
560.63	43990.37
560.79	43761.00
560.96	44046.54
561.12	43430.98
561.29	43730.57
561.45	43335.02
561.61	43896.75
561.78	43416.94
561.94	43627.59
562.11	43592.48
562.27	43775.04
562.44	44013.77
562.60	44025.48
562.77	43770.36
562.93	44091.01
563.10	44418.69
563.26	43384.17
563.42	44289.96
563.59	44215.06
563.75	43634.61
563.92	44259.53
564.08	44222.08
564.24	43952.92
564.41	44072.29
564.57	43842.92
564.74	43988.03
564.90	43976.33
565.07	44362.51
565.23	43889.73
565.39	43929.51
565.56	44041.86
565.72	43929.51
565.88	44091.01
566.05	43702.48
566.21	44257.19
566.38	44100.37
566.54	43908.45
566.70	44055.90
566.87	44800.19
567.03	44362.51
567.19	44762.75
567.36	44369.54
567.52	44025.48
567.68	44254.85
567.85	44406.98
568.01	44526.35
568.17	44116.76
568.34	44708.91
568.50	44273.57
568.66	44275.91
568.83	44399.96
568.99	44126.12
569.15	44287.62
569.32	44311.02
569.48	44304.00
569.64	44746.36
569.81	44528.69
569.97	44500.61
570.13	44210.38
570.30	44411.67
570.46	44158.89
570.62	44081.65
570.78	44264.21
570.95	44411.67
571.11	44685.51
571.27	44266.55
571.43	44406.98
571.60	44374.22
571.76	44240.81
571.92	44147.18
572.09	44402.30
572.25	44034.84
572.41	44364.85
572.57	44493.58
572.74	44697.21
572.90	44664.44
573.06	44751.04
573.22	44591.89
573.38	44339.11
573.55	44250.17
573.71	44875.09
573.87	44416.35
574.03	44545.08
574.20	44360.17
574.36	44212.72
574.52	44392.94
574.68	44694.87
574.84	44746.36
575.01	44751.04
575.17	44313.36
575.33	44280.60
575.49	44444.43
575.65	44875.09
575.82	44657.42
575.98	44313.36
576.14	44554.44
576.30	44807.22
576.46	44636.36
576.62	44612.95
576.79	44233.78
576.95	44430.39
577.11	44575.50
577.27	44512.31
577.43	44762.75
577.59	44465.50
577.75	44765.09
577.92	44081.65
578.08	44388.26
578.24	44402.30
578.40	44257.19
578.56	44669.12
578.72	44315.70
578.88	45048.29
579.04	44484.22
579.21	44514.65
579.37	44601.25
579.53	44648.06
579.69	44238.47
579.85	44662.10
580.01	44577.84
580.17	44879.77
580.33	45052.97
580.49	44664.44
580.65	45123.19
580.82	44713.59
580.98	44545.08
581.14	44374.22
581.30	45041.27
581.46	44814.24
581.62	44374.22
581.78	44596.57
581.94	45024.89
582.10	44856.37
582.26	44554.44
582.42	45010.84
582.58	44320.38
582.74	44940.63
582.90	44526.35
583.06	44746.36
583.22	44662.10
583.38	45029.57
583.54	44786.15
583.70	44706.57
583.86	44928.92
584.02	44245.49
584.18	44811.90
584.34	45069.36
584.50	44566.14
584.66	44566.14
584.82	44472.52
584.98	45027.23
585.14	45181.70
585.30	44495.92
585.46	44636.36
585.62	44807.22
585.78	44655.08
585.94	44315.70
586.10	44985.10
586.26	44395.28
586.42	44444.43
586.58	45074.04
586.74	44580.18
586.90	44626.99
587.06	44650.40
587.22	45059.99
587.38	44594.23
587.54	44804.88
587.70	44879.77
587.86	45078.72
588.02	45006.16
588.18	44844.66
588.34	44739.34
588.49	44123.78
588.65	44601.25
588.81	44231.44
588.97	44350.81
589.13	44832.96
589.29	44421.03
589.45	44641.04
589.61	44804.88
589.77	44816.58
589.93	44739.34
590.08	44753.38
590.24	44891.48
590.40	45177.02
590.56	45345.54
590.72	44898.50
590.88	44540.39
591.04	44847.00
591.20	45223.83
591.35	45268.30
591.51	45287.03
591.67	45296.39
591.83	45422.78
591.99	44947.65
592.15	45027.23
592.31	45167.66
592.46	44954.67
592.62	44776.79
592.78	45022.54
592.94	45230.85
593.10	44989.78
593.26	45450.86
593.41	44933.60
593.57	45015.52
593.73	45076.38
593.89	45345.54
594.05	45029.57
594.20	45303.41
594.36	45532.78
594.52	44521.67
594.68	45207.45
594.84	44849.35
594.99	45118.51
595.15	45059.99
595.31	45106.80
595.47	45109.14
595.62	45221.49
595.78	44835.30
595.94	45151.27
596.10	45352.56
596.25	45319.79
596.41	45205.11
596.57	44875.09
596.73	45326.81
596.88	44882.11
597.04	44821.26
597.20	45059.99
597.36	45153.62
597.51	45565.55
597.67	45523.42
597.83	45251.92
597.99	45439.16
598.14	45418.10
598.30	45113.83
598.46	44802.53
598.61	44706.57
598.77	45209.79
598.93	44957.01
599.09	44816.58
599.24	45638.11
599.40	45371.28
599.56	45521.08
599.71	45074.04
599.87	44985.10
600.03	45382.99
600.18	45242.56
600.34	45050.63
600.50	45195.74
600.65	45022.54
600.81	45521.08
600.97	45598.32
601.12	45099.78
601.28	45404.05
601.44	45254.26
601.59	44980.42
601.75	44933.60
601.91	44722.96
602.06	44978.07
602.22	44954.67
602.37	45043.61
602.53	44816.58
602.69	45191.06
602.84	44959.35
603.00	45209.79
603.16	45258.94
603.31	45563.21
603.47	44973.39
603.62	44949.99
603.78	45226.17
603.94	44809.56
604.09	45521.08
604.25	45158.30
604.40	44896.16
604.56	44830.62
604.71	45357.24
604.87	44753.38
605.03	44451.45
605.18	44954.67
605.34	45104.46
605.49	44694.87
605.65	45586.61
605.80	44631.68
605.96	44949.99
606.12	45177.02
606.27	45401.71
606.43	44966.37
606.58	45598.32
606.74	44425.71
606.89	44919.56
607.05	44900.84
607.20	45235.53
607.36	44973.39
607.51	45041.27
607.67	44804.88
607.82	45291.71
607.98	44882.11
608.13	44685.51
608.29	45095.10
608.44	44772.11
608.60	44451.45
608.75	44409.32
608.91	44439.75
609.06	44304.00
609.22	44502.95
609.37	44163.57
609.53	44619.97
609.68	44800.19
609.84	44552.10
609.99	44493.58
610.15	44350.81
610.30	44573.16
610.46	44287.62
610.61	44655.08
610.76	44648.06
610.92	44645.72
611.07	44774.45
611.23	44722.96
611.38	44676.15
611.54	44500.61
611.69	44708.91
611.84	44243.15
612.00	44449.11
612.15	44264.21
612.31	44053.56
612.46	44381.24
612.62	44299.32
612.77	44280.60
612.92	44575.50
613.08	44247.83
613.23	44332.09
613.39	44095.69
613.54	43875.68
613.69	44194.00
613.85	43889.73
614.00	43976.33
614.15	44442.09
614.31	44477.20
614.46	44631.68
614.62	44582.52
614.77	44287.62
614.92	44250.17
615.08	43924.83
615.23	43686.10
615.38	44037.18
615.54	43601.84
615.69	43793.76
615.84	43548.01
616.00	44098.03
616.15	44067.61
616.30	43847.60
616.46	43438.00
616.61	43412.26
616.76	43505.88
616.92	43370.13
617.07	43250.76
617.22	43346.72
617.37	43117.35
617.53	43695.46
617.68	43927.17
617.83	43459.07
617.99	43824.19
618.14	43559.71
618.29	43711.84
618.45	43196.93
618.60	43309.27
618.75	43622.90
618.90	43842.92
619.06	43456.73
619.21	43180.54
619.36	43779.72
619.51	43180.54
619.67	43250.76
619.82	43419.28
619.97	43342.04
620.12	43650.99
620.28	42939.47
620.43	42843.51
620.58	43140.75
620.73	42588.39
620.89	43005.00
621.04	43250.76
621.19	43068.20
621.34	43084.58
621.49	42885.64
621.65	42841.17
621.80	42560.30
621.95	42749.88
622.10	43040.11
622.25	42443.27
622.41	43058.84
622.56	42864.57
622.71	42628.18
622.86	42754.57
623.01	43023.73
623.16	42754.57
623.32	42773.29
623.47	43065.86
623.62	42990.96
623.77	42389.44
623.92	42834.14
624.07	42511.15
624.23	42586.05
624.38	42593.07
624.53	42054.75
624.68	42433.91
624.83	42394.12
624.98	42127.30
625.13	42440.93
625.29	42721.80
625.44	42157.73
625.59	41926.02
625.74	42335.61
625.89	41883.89
626.04	41848.78
626.19	41989.21
626.34	42431.57
626.49	42328.59
626.65	42436.25
626.80	42429.23
626.95	42150.71
627.10	42286.46
627.25	41993.89
627.40	41895.59
627.55	41722.39
627.70	41455.57
627.85	41867.50
628.00	42206.88
628.15	41605.36
628.30	41614.72
628.45	42139.00
628.60	41738.77
628.76	42054.75
628.91	41958.78
629.06	41441.53
629.21	41411.10
629.36	41935.38
629.51	41462.59
629.66	41818.35
629.81	41256.62
629.96	41387.69
630.11	41947.08
630.26	41296.41
630.41	41865.16
630.56	42040.70
630.71	41060.02
630.86	41453.23
631.01	40847.03
631.16	41507.06
631.31	41460.25
631.46	41170.02
631.61	41439.18
631.76	41247.26
631.91	41106.83
632.06	41144.28
632.21	41366.63
632.36	41493.02
632.51	40758.09
632.66	41240.24
632.81	40818.94
632.96	41078.74
633.10	40828.30
633.25	40781.49
633.40	41296.41
633.55	41132.57
633.70	40877.46
633.85	40957.03
634.00	40563.82
634.15	41017.89
634.30	40542.76
634.45	40732.34
634.60	40411.69
634.75	40676.17
634.90	40849.37
635.05	40774.47
635.19	40507.65
635.34	40584.89
635.49	40472.54
635.64	40531.06
635.79	40201.04
635.94	40950.01
636.09	40521.69
636.24	40133.17
636.39	40119.12
636.53	40357.86
636.68	40456.16
636.83	40133.17
636.98	40755.75
637.13	40030.18
637.28	40194.02
637.43	40278.28
637.57	40374.24
637.72	40072.31
637.87	40196.36
638.02	40378.92
638.17	40215.08
638.32	40039.54
638.46	40390.62
638.61	40055.93
638.76	40060.61
638.91	39725.91
639.06	40409.35
639.20	40018.48
639.35	40133.17
639.50	39861.66
639.65	39913.16
639.80	40179.98
639.94	39789.11
640.09	39763.36
640.24	39791.45
640.39	39494.20
640.54	39709.53
640.68	39627.61
640.83	39828.90
640.98	39798.47
641.13	39477.82
641.27	39786.77
641.42	40191.68
641.57	39613.57
641.72	39524.63
641.86	39210.99
642.01	39330.36
642.16	38951.20
642.31	38981.62
642.45	39325.68
642.60	39063.54
642.75	39072.90
642.90	39218.02
643.04	39077.58
643.19	38785.02
643.34	39030.77
643.48	38932.47
643.63	39318.66
643.78	39035.45
643.93	38733.53
644.07	38663.31
644.22	38988.64
644.37	38487.77
644.51	38780.34
644.66	38815.44
644.81	39154.82
644.95	39093.97
645.10	39229.72
645.25	39470.79
645.39	39084.61
645.54	38976.94
645.69	38859.91
645.83	38913.75
645.98	39033.11
646.13	38815.44
646.27	38852.89
646.42	38426.92
646.57	38738.21
646.71	38445.64
646.86	38794.38
647.00	38988.64
647.15	38586.07
647.30	38703.10
647.44	38335.63
647.59	38572.03
647.74	38197.54
647.88	38328.61
648.03	38878.64
648.17	38232.65
648.32	38199.88
648.47	38440.96
648.61	38307.55
648.76	38653.95
648.90	38759.27
649.05	38433.94
649.20	37809.01
649.34	38424.57
649.49	37982.21
649.63	37935.40
649.78	38167.12
649.92	37982.21
650.07	38562.67
650.21	38211.59
650.36	37902.64
650.51	38075.84
650.65	38197.54
650.80	38396.49
650.94	38101.58
651.09	37766.88
651.23	38108.60
651.38	37968.17
651.52	37923.70
651.67	38288.82
651.81	37801.99
651.96	37710.71
652.10	37486.02
652.25	37226.22
652.39	37858.17
652.54	38127.33
652.68	37867.53
652.83	37762.20
652.97	37809.01
653.12	37713.05
653.26	37631.13
653.41	37645.18
653.55	37137.28
653.70	37053.02
653.84	37504.74
653.99	37553.90
654.13	37198.13
654.27	37521.13
654.42	37146.64
654.56	37343.25
654.71	37266.01
654.85	37476.66
655.00	37230.90
655.14	36966.42
655.29	37233.24
655.43	37060.04
655.57	37057.70
655.72	36996.85
655.86	37031.96
656.01	36725.35
656.15	36825.99
656.30	36935.99
656.44	36446.82
656.58	36898.55
656.73	36687.90
656.87	36734.71
657.01	36374.27
657.16	37144.30
657.30	36671.51
657.45	36680.88
657.59	36545.12
657.73	36811.95
657.88	36739.39
658.02	37041.32
658.16	36662.15
658.31	36673.85
658.45	37050.68
658.60	36254.90
658.74	36526.40
658.88	36580.23
659.03	36371.92
659.17	36077.02
659.31	36208.09
659.46	36252.56
659.60	36463.21
659.74	36325.11
659.89	35669.76
660.03	35957.65
660.17	36201.07
660.32	36088.72
660.46	36392.99
660.60	36392.99
660.74	35917.86
660.89	35997.44
661.03	35831.26
661.17	35487.20
661.32	35344.43
661.46	35702.53
661.60	35676.79
661.74	35309.32
661.89	35644.02
662.03	35704.87
662.17	35337.41
662.31	35564.44
662.46	35346.77
662.60	35573.80
662.74	35372.52
662.88	35215.70
663.03	34691.42
663.17	34934.84
663.31	34888.03
663.45	34672.70
663.60	34871.64
663.74	35051.86
663.88	34668.02
664.02	34902.07
664.17	34981.65
664.31	34775.68
664.45	34873.98
664.59	34754.61
664.73	34513.54
664.88	34499.50
665.02	34391.83
665.16	34597.80
665.30	34630.57
665.44	34232.68
665.59	34075.86
665.73	33921.38
665.87	34235.02
666.01	34476.09
666.15	34094.58
666.29	34164.80
666.44	34459.71
666.58	33928.41
666.72	34031.39
666.86	33809.04
667.00	34340.34
667.14	33490.73
667.28	33635.84
667.43	33521.15
667.57	33776.27
667.71	33268.37
667.85	33106.88
667.99	33359.66
668.13	33289.44
668.27	33448.60
668.41	33207.52
668.56	33184.12
668.70	33453.28
668.84	33549.24
668.98	32741.75
669.12	32957.08
669.26	33139.65
669.40	32662.18
669.54	32622.39
669.68	32884.53
669.82	32531.11
669.96	32734.73
670.10	32393.01
670.25	32872.82
670.39	32367.27
670.53	32217.47
670.67	32261.94
670.81	32666.86
670.95	32442.17
671.09	32236.20
671.23	32341.52
671.37	32378.97
671.51	32123.85
671.65	31730.64
671.79	31796.18
671.93	31503.61
672.07	31859.37
672.21	32533.45
672.35	31634.68
672.49	31646.38
672.63	31859.37
672.77	31405.31
672.91	31646.38
673.05	31248.49
673.19	31477.86
673.33	31239.13
673.47	30946.56
673.61	30906.77
673.75	30731.23
673.89	30628.25
674.03	30693.79
674.17	31152.53
674.31	30752.30
674.45	30761.66
674.59	30698.47
674.73	31126.78
674.87	30560.37
675.01	30752.30
675.15	30569.74
675.29	30529.95
675.43	30803.79
675.56	30305.26
675.70	30305.26
675.84	30094.61
675.98	29514.16
676.12	29802.04
676.26	29649.91
676.40	30132.06
676.54	29682.67
676.68	29689.70
676.82	29350.32
676.96	29294.14
677.10	29441.60
677.23	29326.91
677.37	29027.32
677.51	29095.20
677.65	28919.66
677.79	28369.63
677.93	28748.80
678.07	28821.36
678.21	28390.70
678.34	28379.00
678.48	28222.18
678.62	28023.23
678.76	28084.09
678.90	27749.39
679.04	27541.08
679.18	27971.74
679.31	27342.14
679.45	27655.77
679.59	27878.12
679.73	27330.44
679.87	27288.31
680.00	27253.20
680.14	27421.72
680.28	27276.60
680.42	27330.44
680.56	27363.20
680.70	27112.77
680.83	27014.46
680.97	27164.26
681.11	26979.36
681.25	27072.98
681.39	26766.37
681.52	26967.65
681.66	26635.30
681.80	26197.62
681.94	26686.79
682.07	26717.22
682.21	26267.83
682.35	26054.84
682.49	25862.92
682.62	26033.78
682.76	26019.74
682.90	26043.14
683.04	25675.68
683.17	25968.24
683.31	25659.29
683.45	25331.62
683.59	25535.24
683.72	25076.50
683.86	25310.55
684.00	25343.32
684.13	25041.39
684.27	24964.15
684.41	24952.45
684.55	24936.07
684.68	24718.40
684.82	24924.36
684.96	24828.40
685.09	24624.78
685.23	24584.99
685.37	24505.41
685.50	24196.46
685.64	24060.71
685.78	24109.86
685.91	23920.28
686.05	23910.91
686.19	23831.33
686.32	23321.10
686.46	23077.68
686.60	23187.69
686.73	23606.64
686.87	23250.88
687.01	23325.78
687.14	22686.81
687.28	22963.00
687.42	23124.49
687.55	22948.95
687.69	22951.29
687.82	22829.59
687.96	22595.53
688.10	22728.94
688.23	22499.57
688.37	22101.68
688.50	22377.86
688.64	22197.64
688.78	22359.14
688.91	22167.21
689.05	22295.94
689.18	21813.79
689.32	21834.86
689.46	21727.19
689.59	21855.92
689.73	21956.57
689.86	21909.75
690.00	21631.23
690.13	21476.76
690.27	21528.25
690.41	21418.24
690.54	20861.19
690.68	20844.81
690.81	20908.01
690.95	20978.22
691.08	20985.24
691.22	20842.47
691.35	20982.90
691.49	21118.65
691.62	20783.96
691.76	20559.27
691.89	20685.65
692.03	20603.74
692.16	20374.36
692.30	20224.57
692.43	19906.26
692.57	19805.61
692.70	19917.96
692.84	19934.34
692.97	19885.19
693.11	19548.15
693.24	19573.90
693.38	19414.74
693.51	19538.79
693.65	19445.17
693.78	19410.06
693.92	19377.30
694.05	19229.84
694.19	19185.37
694.32	19152.60
694.45	18677.48
694.59	18307.67
694.72	18551.09
694.86	18759.39
694.99	18572.15
695.13	18738.33
695.26	18537.04
695.39	18387.25
695.53	18331.08
695.66	18328.74
695.80	18026.81
695.93	18342.78
696.07	18050.21
696.20	17942.55
696.33	18031.49
696.47	18078.30
696.60	17706.15
696.73	17844.24
696.87	17703.81
697.00	17460.40
697.14	17366.78
697.27	17893.40
697.40	17371.46
697.54	17366.78
697.67	17219.32
697.80	17191.23
697.94	16947.82
698.07	16840.15
698.21	16788.66
698.34	16737.17
698.47	16929.09
698.61	16554.61
698.74	16709.08
698.87	16137.99
699.01	16102.89
699.14	15871.17
699.27	16166.08
699.40	15932.03
699.54	16121.61
699.67	16037.35
699.80	15920.32
699.94	16037.35
700.07	16271.40
700.20	15611.37
700.34	15616.05
700.47	15688.61
700.60	15976.50
700.73	16063.10
700.87	15791.59
701.00	15339.87
701.13	15611.37
701.26	15225.18
701.40	15412.43
701.53	15007.52
701.66	14927.94
701.79	15000.49
701.93	15073.05
702.06	15059.01
702.19	14600.26
702.32	14712.61
702.46	14618.99
702.59	14616.65
702.72	14530.05
702.85	14621.33
702.99	14176.62
703.12	14736.01
703.25	14291.31
703.38	14169.60
703.51	14157.90
703.65	14085.34
703.78	14036.19
703.91	13982.36
704.04	14148.54
704.17	14174.28
704.31	13750.65
704.44	13750.65
704.57	13804.48
704.70	13727.24
704.83	13305.95
704.96	13390.20
705.10	13516.59
705.23	13511.91
>>>>>End Processed Spectral Data<<<<<
