SpectraSuite Data File
++++++++++++++++++++++++++++++++++++
Date: Fri Oct 25 10:44:23 EDT 2013
User: price-jones
Dark Spectrum Present: No
Reference Spectrum Present: No
Number of Sampled Component Spectra: 1
Spectrometers: USB2+H05261
Integration Time (usec): 100000 (USB2+H05261)
Spectra Averaged: 1 (USB2+H05261)
Boxcar Smoothing: 0 (USB2+H05261)
Correct for Electrical Dark: No (USB2+H05261)
Strobe/Lamp Enabled: No (USB2+H05261)
Correct for Detector Non-linearity: No (USB2+H05261)
Correct for Stray Light: No (USB2+H05261)
Number of Pixels in Processed Spectrum: 2048
>>>>>Begin Processed Spectral Data<<<<<
365.73	102.98
365.92	102.98
366.12	102.98
366.32	4.68
366.52	0.00
366.72	0.00
366.91	32.77
367.11	58.51
367.31	0.00
367.51	30.43
367.70	18.72
367.90	7.02
368.10	0.00
368.30	0.00
368.49	77.24
368.69	2.34
368.89	23.41
369.09	81.92
369.28	88.94
369.48	53.83
369.68	28.09
369.87	93.62
370.07	72.56
370.27	131.07
370.47	138.09
370.66	341.72
370.86	379.17
371.06	582.79
371.25	533.64
371.45	486.83
371.65	449.38
371.84	498.53
372.04	561.73
372.24	545.34
372.44	465.77
372.63	540.66
372.83	547.69
373.03	571.09
373.22	557.05
373.42	524.28
373.62	582.79
373.81	496.19
374.01	636.63
374.21	484.49
374.40	622.58
374.60	599.18
374.79	622.58
374.99	535.98
375.19	653.01
375.38	653.01
375.58	634.29
375.78	582.79
375.97	594.50
376.17	624.92
376.37	601.52
376.56	674.07
376.76	617.90
376.95	650.67
377.15	671.73
377.35	690.46
377.54	716.20
377.74	582.79
377.93	676.41
378.13	667.05
378.33	718.54
378.52	631.94
378.72	620.24
378.91	706.84
379.11	676.41
379.31	737.27
379.50	667.05
379.70	720.88
379.89	674.07
380.09	702.16
380.28	671.73
380.48	755.99
380.68	758.33
380.87	669.39
381.07	770.04
381.26	720.88
381.46	737.27
381.65	704.50
381.85	753.65
382.04	678.76
382.24	671.73
382.43	725.57
382.63	681.10
382.83	739.61
383.02	744.29
383.22	814.51
383.41	725.57
383.61	819.19
383.80	779.40
384.00	875.36
384.19	858.98
384.39	873.02
384.58	807.48
384.78	765.36
384.97	858.98
385.17	938.55
385.36	912.81
385.56	835.57
385.75	868.34
385.95	889.40
386.14	849.61
386.34	870.68
386.53	924.51
386.72	875.36
386.92	901.11
387.11	889.40
387.31	849.61
387.50	849.61
387.70	910.47
387.89	866.00
388.09	957.28
388.28	919.83
388.48	933.87
388.67	954.94
388.86	863.66
389.06	959.62
389.25	917.49
389.45	1029.84
389.64	1032.18
389.84	1095.37
390.03	987.71
390.22	1050.90
390.42	1018.13
390.61	980.68
390.81	1039.20
391.00	1050.90
391.19	1064.94
391.39	1135.16
391.58	1074.31
391.78	1107.07
391.97	959.62
392.16	1043.88
392.36	1121.12
392.55	1032.18
392.75	980.68
392.94	987.71
393.13	1057.92
393.33	1050.90
393.52	1071.97
393.71	1015.79
393.91	1074.31
394.10	1142.18
394.29	1128.14
394.49	1242.82
394.68	1266.23
394.88	1334.11
395.07	1322.40
395.26	1294.32
395.46	1275.59
395.65	1210.06
395.84	1221.76
396.04	1235.80
396.23	1174.95
396.42	1231.12
396.62	1196.01
396.81	1238.14
397.00	1233.46
397.19	1247.51
397.39	1366.87
397.58	1448.79
397.77	1439.43
397.97	1465.18
398.16	1490.92
398.35	1481.56
398.55	1502.62
398.74	1549.43
398.93	1603.27
399.12	1558.80
399.32	1554.12
399.51	1664.12
399.70	1652.42
399.90	1558.80
400.09	1589.22
400.28	1619.65
400.47	1600.93
400.67	1764.76
400.86	1781.15
401.05	1699.23
401.24	1746.04
401.44	1781.15
401.63	1739.02
401.82	1823.28
402.01	1823.28
402.21	1792.85
402.40	1853.70
402.59	1769.44
402.78	1834.98
402.97	1809.23
403.17	1753.06
403.36	1851.36
403.55	1919.24
403.74	1935.62
403.93	1998.82
404.13	1994.14
404.32	1947.33
404.51	1991.80
404.70	1977.75
404.89	2033.93
405.09	2008.18
405.28	2012.86
405.47	1919.24
405.66	2033.93
405.85	2052.65
406.05	2080.74
406.24	2120.53
406.43	2104.14
406.62	2066.69
406.81	2162.66
407.00	2127.55
407.20	2176.70
407.39	2153.29
407.58	2139.25
407.77	2242.23
407.96	2270.32
408.15	2237.55
408.34	2324.15
408.54	2382.67
408.73	2359.26
408.92	2375.64
409.11	2422.45
409.30	2394.37
409.49	2415.43
409.68	2406.07
409.87	2303.09
410.07	2436.50
410.26	2466.92
410.45	2401.39
410.64	2546.50
410.83	2464.58
411.02	2583.95
411.21	2689.28
411.40	2621.40
411.59	2677.57
411.78	2792.26
411.98	2686.94
412.17	2818.00
412.36	2740.77
412.55	2860.13
412.74	2834.39
412.93	2827.37
413.12	2813.32
413.31	3084.83
413.50	2986.52
413.69	2916.31
413.88	3101.21
414.07	3052.06
414.26	3115.25
414.45	3042.70
414.64	2878.86
414.83	3143.34
415.02	3258.03
415.22	3297.81
415.41	3194.83
415.60	3030.99
415.79	3332.92
415.98	3405.48
416.17	3269.73
416.36	3351.65
416.55	3243.98
416.74	3365.69
416.93	3335.26
417.12	3393.78
417.31	3431.23
417.50	3412.50
417.69	3651.24
417.88	3616.13
418.07	3627.83
418.26	3585.70
418.45	3665.28
418.64	3742.52
418.83	3667.62
419.02	3688.68
419.21	3723.79
419.39	3749.54
419.58	3566.98
419.77	3705.07
419.96	3819.75
420.15	3634.85
420.34	3815.07
420.53	3859.54
420.72	4030.40
420.91	3908.69
421.10	3887.63
421.29	3936.78
421.48	3880.61
421.67	3976.57
421.86	3812.73
422.05	3871.25
422.24	3971.89
422.43	3847.84
422.61	3866.56
422.80	3971.89
422.99	4042.11
423.18	4046.79
423.37	3995.29
423.56	3988.27
423.75	3934.44
423.94	3964.87
424.13	3754.22
424.32	4154.45
424.50	4049.13
424.69	4170.83
424.88	4170.83
425.07	3911.04
425.26	3871.25
425.45	3981.25
425.64	3997.64
425.83	3978.91
426.01	4142.75
426.20	4053.81
426.39	4231.69
426.58	4093.60
426.77	4161.47
426.96	4098.28
427.15	4091.26
427.33	4184.88
427.52	4269.14
427.71	4163.81
427.90	4243.39
428.09	4297.22
428.28	4290.20
428.46	4379.14
428.65	4217.65
428.84	4418.93
429.03	4388.50
429.22	4318.29
429.40	4280.84
429.59	4252.75
429.78	4105.30
429.97	4018.70
430.16	4145.09
430.34	4208.28
430.53	4173.18
430.72	4152.11
430.91	4175.52
431.10	4484.47
431.28	4676.39
431.47	4655.33
431.66	4873.00
431.85	4695.11
432.03	4835.55
432.22	4821.50
432.41	4758.31
432.60	4985.34
432.79	4884.70
432.97	4952.57
433.16	5018.11
433.35	4898.74
433.54	4809.80
433.72	4938.53
433.91	4798.10
434.10	5020.45
434.28	5081.30
434.47	4863.63
434.66	5132.79
434.85	5043.85
435.03	5081.30
435.22	5050.88
435.41	5294.29
435.59	5369.19
435.78	5282.59
435.97	5186.63
436.16	5186.63
436.34	5310.68
436.53	5411.32
436.72	5352.81
436.90	5102.37
437.09	5366.85
437.28	5247.48
437.46	5378.55
437.65	5373.87
437.84	5242.80
438.02	5142.16
438.21	5287.27
438.40	5362.17
438.58	5420.68
438.77	5692.18
438.96	5575.16
439.14	5619.63
439.33	5893.47
439.52	5947.30
439.70	5806.87
439.89	5781.12
440.08	5973.05
440.26	5757.72
440.45	5867.72
440.63	6153.27
440.82	6026.88
441.01	6083.05
441.19	6368.60
441.38	6207.10
441.57	6218.80
441.75	6420.09
441.94	6431.79
442.12	6445.84
442.31	6511.37
442.50	6544.14
442.68	6523.07
442.87	6326.47
443.05	6431.79
443.24	6590.95
443.43	6560.52
443.61	6729.04
443.80	6764.15
443.98	6656.48
444.17	6380.30
444.35	6792.23
444.54	6827.34
444.73	6789.89
444.91	6658.82
445.10	6628.40
445.28	6677.55
445.47	6471.58
445.65	6698.61
445.84	6661.16
446.02	6902.24
446.21	6707.98
446.39	6839.05
446.58	6897.56
446.77	6736.06
446.95	6590.95
447.14	7138.63
447.32	7012.24
447.51	6981.82
447.69	6768.83
447.88	7112.89
448.06	7052.03
448.25	6946.71
448.43	6906.92
448.62	6897.56
448.80	7033.31
448.99	7105.87
449.17	7164.38
449.36	7105.87
449.54	6925.65
449.73	7358.64
449.91	7449.93
450.10	7428.86
450.28	7506.10
450.46	7569.29
450.65	7445.24
450.83	7368.01
451.02	7468.65
451.20	7489.71
451.39	7562.27
451.57	7433.54
451.76	7213.53
451.94	7344.60
452.13	7417.16
452.31	7522.48
452.49	7344.60
452.68	7370.35
452.86	7267.36
453.05	7447.58
453.23	7613.76
453.42	7482.69
453.60	7513.12
453.78	7658.23
453.97	7597.38
454.15	7695.68
454.34	7609.08
454.52	7789.30
454.70	7932.08
454.89	7758.88
455.07	7925.05
455.26	7798.66
455.44	8039.74
455.62	7911.01
455.81	8140.38
455.99	8105.28
456.17	7957.82
456.36	8102.93
456.54	8175.49
456.73	8243.37
456.91	8341.67
457.09	8409.54
457.28	8542.96
457.46	8418.91
457.64	8545.30
457.83	8423.59
458.01	8360.39
458.19	8575.72
458.38	8503.17
458.56	8498.49
458.74	8411.89
458.93	8498.49
459.11	8575.72
459.29	8468.06
459.48	8716.16
459.66	8617.85
459.84	8723.18
460.03	8634.24
460.21	8870.63
460.39	8936.17
460.57	8748.92
460.76	8730.20
460.94	9064.89
461.12	9018.08
461.31	8987.66
461.49	8950.21
461.67	8868.29
461.85	9121.07
462.04	8971.27
462.22	9217.03
462.40	9163.20
462.59	8973.61
462.77	9205.33
462.95	9226.39
463.13	9039.15
463.32	9282.56
463.50	9238.09
463.68	9420.66
463.86	9163.20
464.05	9284.91
464.23	9387.89
464.41	9296.61
464.59	9027.45
464.78	9401.93
464.96	9350.44
465.14	9270.86
465.32	9493.21
465.50	9523.64
465.69	9614.92
465.87	9607.90
466.05	9549.39
466.23	9387.89
466.41	9530.66
466.60	9856.00
466.78	9441.72
466.96	9469.81
467.14	9525.98
467.32	9584.49
467.51	9640.67
467.69	9516.62
467.87	9738.97
468.05	10036.22
468.23	9647.69
468.41	9661.73
468.60	9818.55
468.78	9788.12
468.96	9647.69
469.14	10024.51
469.32	10068.98
469.50	9708.54
469.69	10029.20
469.87	10012.81
470.05	10267.93
470.23	10047.92
470.41	9954.30
470.59	10438.79
470.77	10076.01
470.95	10141.54
471.14	10394.32
471.32	10211.76
471.50	10703.27
471.68	10719.65
471.86	10642.42
472.04	10647.10
472.22	11054.35
472.40	10707.95
472.58	10579.22
472.77	10775.83
472.95	10686.89
473.13	11185.42
473.31	10752.42
473.49	10897.53
473.67	10862.43
473.85	11173.72
474.03	11232.23
474.21	11377.34
474.39	11330.53
474.57	11449.90
474.75	11309.47
474.93	11358.62
475.12	11597.35
475.30	11665.23
475.48	11489.69
475.66	11585.65
475.84	11784.60
476.02	11630.12
476.20	11763.53
476.38	11969.50
476.56	12170.79
476.74	12194.19
476.92	12180.15
477.10	11896.94
477.28	12578.04
477.46	12571.02
477.64	12559.31
477.82	12870.61
478.00	12882.31
478.18	12753.58
478.36	12886.99
478.54	13046.15
478.72	13186.58
478.90	13242.75
479.08	13298.92
479.26	13509.57
479.44	13329.35
479.62	13511.91
479.80	13699.16
479.98	13776.39
480.16	14160.24
480.34	13958.96
480.52	14237.48
480.70	14178.97
480.88	14015.13
481.06	14497.28
481.24	14466.85
481.41	14750.06
481.59	15084.75
481.77	14724.31
481.95	14721.97
482.13	15023.90
482.31	15082.41
482.49	15527.11
482.67	15133.90
482.85	15281.36
483.03	15665.21
483.21	15929.69
483.39	15761.17
483.57	15761.17
483.74	16128.63
483.92	16175.44
484.10	16465.67
484.28	16322.90
484.46	16589.72
484.64	16678.66
484.82	16339.28
485.00	16821.43
485.18	17008.67
485.35	16989.95
485.53	16732.49
485.71	16299.49
485.89	16795.68
486.07	16636.53
486.25	17027.40
486.43	17081.23
486.61	17495.50
486.78	17706.15
486.96	18066.60
487.14	18082.98
487.32	18090.00
487.50	18483.21
487.68	18665.77
487.85	18789.82
488.03	18937.27
488.21	19255.59
488.39	18895.14
488.57	18836.63
488.75	19241.54
488.92	19882.85
489.10	20011.58
489.28	19978.81
489.46	20287.76
489.64	20348.62
489.81	20840.13
489.99	21041.42
490.17	20533.52
490.35	20926.73
490.53	20795.66
490.70	21106.95
490.88	21160.78
491.06	21266.11
491.24	21179.51
491.41	21326.96
491.59	21310.58
491.77	21254.40
491.95	21591.44
492.13	21766.98
492.30	22284.24
492.48	22429.35
492.66	22052.53
492.84	22059.55
493.01	22548.72
493.19	22551.06
493.37	22700.86
493.54	22955.97
493.72	23370.25
493.90	22970.02
494.08	23702.61
494.25	23775.16
494.43	23831.33
494.61	24032.62
494.79	23889.85
494.96	23917.93
495.14	24037.30
495.32	24439.87
495.49	23997.51
495.67	24779.25
495.85	24826.06
496.02	24907.98
496.20	25158.42
496.38	24999.26
496.55	24926.71
496.73	25397.15
496.91	25479.07
497.09	25474.39
497.26	25888.67
497.44	25612.48
497.62	26279.54
497.79	26082.93
497.97	25907.39
498.14	26143.78
498.32	26522.95
498.50	26546.36
498.67	26932.54
498.85	26466.78
499.03	26766.37
499.20	26808.50
499.38	26813.18
499.56	27339.80
499.73	27023.83
499.91	27124.47
500.08	27325.75
500.26	27173.62
500.44	27033.19
500.61	27300.01
500.79	27248.52
500.97	27709.60
501.14	27946.00
501.32	27751.73
501.49	27983.44
501.67	27845.35
501.84	28290.06
502.02	28130.90
502.20	28669.22
502.37	28500.70
502.55	28505.38
502.72	28868.17
502.90	29235.63
503.07	28947.75
503.25	28987.53
503.43	28552.20
503.60	28830.72
503.78	28769.86
503.95	29067.11
504.13	28989.88
504.30	29457.98
504.48	29268.40
504.65	29535.22
504.83	29710.76
505.01	29965.88
505.18	30085.25
505.36	30195.25
505.53	30387.18
505.71	30419.94
505.88	30213.98
506.06	30312.28
506.23	29998.65
506.41	30464.41
506.58	30239.72
506.76	30637.61
506.93	30979.33
507.11	30515.90
507.28	31115.08
507.46	30654.00
507.63	30902.09
507.81	30995.71
507.98	30831.88
508.16	31241.47
508.33	31299.98
508.50	31477.86
508.68	31842.99
508.85	32126.19
509.03	32063.00
509.20	31735.32
509.38	32205.77
509.55	31997.46
509.73	32226.84
509.90	32067.68
510.08	32079.38
510.25	32348.54
510.42	32020.87
510.60	32484.30
510.77	32648.13
510.95	33001.55
511.12	32781.54
511.30	32678.56
511.47	33310.50
511.64	33570.30
511.82	33362.00
511.99	32858.78
512.17	32783.88
512.34	32503.02
512.51	33394.76
512.69	33399.44
512.86	33418.17
513.04	33799.68
513.21	33748.18
513.38	33584.35
513.56	33783.29
513.73	33944.79
513.90	33656.90
514.08	33624.14
514.25	34405.88
514.43	33710.74
514.60	34424.60
514.77	34153.10
514.95	34258.42
515.12	34375.45
515.29	34646.95
515.47	34960.58
515.64	34962.92
515.81	34714.83
515.99	34808.45
516.16	34597.80
516.33	34412.90
516.51	34457.37
516.68	33979.90
516.85	34225.65
517.03	34412.90
517.20	34817.81
517.37	35049.52
517.54	35086.97
517.72	35213.36
517.89	34927.81
518.06	34422.26
518.24	34623.54
518.41	35337.41
518.58	35304.64
518.75	35384.22
518.93	36051.27
519.10	35538.69
519.27	35814.88
519.45	35978.72
519.62	35824.24
519.79	36011.48
519.96	36156.60
520.14	36723.01
520.31	36065.31
520.48	36477.25
520.65	36065.31
520.83	37003.87
521.00	36793.22
521.17	37235.58
521.34	36896.20
521.52	36837.69
521.69	37130.26
521.86	37256.65
522.03	37127.92
522.20	36919.61
522.38	37591.34
522.55	37294.10
522.72	37151.32
522.89	37572.62
523.07	37453.25
523.24	37244.94
523.41	37638.15
523.58	37612.41
523.75	37940.08
523.92	38174.14
524.10	38059.45
524.27	38288.82
524.44	38504.15
524.61	38557.99
524.78	38429.26
524.96	38483.09
525.13	38775.66
525.30	38300.53
525.47	39026.09
525.64	38679.69
525.81	38389.47
525.98	38347.34
526.16	38326.27
526.33	38305.21
526.50	38024.34
526.67	38040.73
526.84	38242.01
527.01	38696.08
527.18	38330.95
527.36	39089.29
527.53	39021.41
527.70	39723.57
527.87	39061.20
528.04	38998.01
528.21	39187.59
528.38	39344.41
528.55	39346.75
528.72	39791.45
528.89	39419.30
529.07	40079.33
529.24	39608.89
529.41	39901.45
529.58	39360.79
529.75	39601.86
529.92	40140.19
530.09	39606.55
530.26	40240.83
530.43	39966.99
530.60	39840.60
530.77	40334.45
530.94	40187.00
531.11	40460.84
531.28	40439.78
531.46	40521.69
531.63	40701.92
531.80	40708.94
531.97	40119.12
532.14	40456.16
532.31	40149.55
532.48	40528.72
532.65	40465.52
532.82	40187.00
532.99	40341.47
533.16	40505.31
533.33	40840.01
533.50	41270.67
533.67	41006.19
533.84	41071.72
534.01	41385.35
534.18	41076.40
534.35	40950.01
534.52	40900.86
534.69	41443.87
534.86	41256.62
535.03	41486.00
535.20	41523.44
535.37	41748.14
535.54	41799.63
535.71	41731.75
535.88	41567.91
536.05	41144.28
536.22	41975.17
536.38	41827.71
536.55	41502.38
536.72	41380.67
536.89	41521.10
537.06	42078.15
537.23	42012.62
537.40	41731.75
537.57	41804.31
537.74	41874.52
537.91	41820.69
538.08	42223.26
538.25	42073.47
538.42	42291.14
538.59	42340.29
538.75	41748.14
538.92	42162.41
539.09	42380.08
539.26	42424.55
539.43	42204.54
539.60	42494.77
539.77	42068.79
539.94	41942.40
540.11	41956.44
540.28	42199.86
540.44	42258.37
540.61	42478.38
540.78	42342.63
540.95	42792.01
541.12	42586.05
541.29	42784.99
541.46	42604.77
541.62	42609.45
541.79	42876.27
541.96	42665.63
542.13	42752.23
542.30	42799.04
542.47	42700.73
542.63	42899.68
542.80	42431.57
542.97	43075.22
543.14	43763.34
543.31	43400.55
543.48	43800.79
543.64	43920.15
543.81	44004.41
543.98	43737.59
544.15	43281.19
544.32	43988.03
544.48	44083.99
544.65	43597.16
544.82	43861.64
544.99	43686.10
545.16	43391.19
545.32	43463.75
545.49	44706.57
545.66	44687.85
545.83	44081.65
546.00	44079.31
546.16	44011.43
546.33	44201.02
546.50	43803.13
546.67	44348.47
546.83	44273.57
547.00	44385.92
547.17	43957.60
547.34	44154.21
547.50	44067.61
547.67	44163.57
547.84	43966.96
548.00	44479.54
548.17	44439.75
548.34	44231.44
548.51	44708.91
548.67	44741.68
548.84	44392.94
549.01	44683.17
549.18	44142.50
549.34	44673.81
549.51	44596.57
549.68	44996.80
549.84	44734.66
550.01	45153.62
550.18	44875.09
550.34	44762.75
550.51	44957.01
550.68	45095.10
550.84	44346.13
551.01	45064.67
551.18	44851.69
551.34	45160.64
551.51	44903.18
551.68	45539.80
551.84	45518.74
552.01	45158.30
552.18	45134.89
552.34	44505.29
552.51	45134.89
552.68	45233.19
552.84	45471.93
553.01	45544.48
553.18	45134.89
553.34	45347.88
553.51	45074.04
553.67	45127.87
553.84	45710.66
554.01	45553.85
554.17	45689.60
554.34	45467.25
554.51	45689.60
554.67	45851.09
554.84	45619.38
555.00	45481.29
555.17	45834.71
555.33	45790.24
555.50	45591.30
555.67	45834.71
555.83	45165.32
556.00	45457.88
556.16	45523.42
556.33	45268.30
556.50	45752.79
556.66	45860.46
556.83	45567.89
556.99	45572.57
557.16	46052.38
557.32	46424.53
557.49	46366.01
557.65	45736.41
557.82	45724.71
557.98	46321.54
558.15	46120.26
558.32	46225.58
558.48	45698.96
558.65	45956.42
558.81	45628.74
558.98	45666.19
559.14	45710.66
559.31	45640.45
559.47	46021.95
559.64	46267.71
559.80	46213.88
559.97	46265.37
560.13	45783.22
560.30	46305.16
560.46	46667.94
560.63	46302.82
560.79	46712.41
560.96	46609.43
561.12	46300.48
561.29	46103.87
561.45	46160.05
561.61	46141.32
561.78	46073.45
561.94	46066.42
562.11	46232.60
562.27	46136.64
562.44	46206.86
562.60	46733.48
562.77	46806.03
562.93	46429.21
563.10	46532.19
563.26	46227.92
563.42	46190.47
563.59	46197.49
563.75	46337.93
563.92	46944.12
564.08	46225.58
564.24	46583.68
564.41	46431.55
564.57	46354.31
564.74	46302.82
564.90	46335.59
565.07	46155.36
565.23	46686.67
565.39	46621.13
565.56	46806.03
565.72	46192.81
565.88	46710.07
566.05	46534.53
566.21	46518.15
566.38	46429.21
566.54	46625.81
566.70	46485.38
566.87	47028.38
567.03	46752.20
567.19	46864.55
567.36	46684.33
567.52	46698.37
567.68	46862.21
567.85	46672.62
568.01	46820.08
568.17	46251.33
568.34	46967.53
568.50	46115.58
568.66	46347.29
568.83	46550.91
568.99	46864.55
569.15	46230.26
569.32	46808.37
569.48	46555.60
569.64	46862.21
569.81	46906.68
569.97	46749.86
570.13	46843.48
570.30	46511.13
570.46	46466.66
570.62	46092.17
570.78	46415.16
570.95	46101.53
571.11	46841.14
571.27	46742.84
571.43	46864.55
571.60	46803.69
571.76	46731.14
571.92	46724.11
572.09	46953.49
572.25	46630.49
572.41	46756.88
572.57	46618.79
572.74	47484.79
572.90	46487.72
573.06	46845.82
573.22	46656.24
573.38	46841.14
573.55	46607.09
573.71	46993.28
573.87	46665.60
574.03	46796.67
574.20	46976.89
574.36	46571.98
574.52	46646.88
574.68	46639.86
574.84	46738.16
575.01	46939.44
575.17	46871.57
575.33	46674.96
575.49	46281.75
575.65	46649.22
575.82	46965.19
575.98	46590.70
576.14	46581.34
576.30	46719.43
576.46	46972.21
576.62	46672.62
576.79	46852.84
576.95	46639.86
577.11	46855.18
577.27	46880.93
577.43	46803.69
577.59	46576.66
577.75	46714.75
577.92	46618.79
578.08	46529.85
578.24	46363.67
578.40	46536.87
578.56	46806.03
578.72	46623.47
578.88	46838.80
579.04	46890.29
579.21	46887.95
579.37	46541.55
579.53	46763.90
579.69	46618.79
579.85	46712.41
580.01	46911.36
580.17	46670.28
580.33	47327.97
580.49	47058.81
580.65	47143.07
580.82	47236.69
580.98	46834.12
581.14	46979.23
581.30	47084.56
581.46	46967.53
581.62	47395.85
581.78	47124.35
581.94	47150.09
582.10	46909.02
582.26	46618.79
582.42	46899.65
582.58	46731.14
582.74	46983.91
582.90	47267.12
583.06	47325.63
583.22	47246.05
583.38	47428.62
583.54	47093.92
583.70	46976.89
583.86	46822.42
584.02	46721.77
584.18	47072.85
584.34	47047.11
584.50	47138.39
584.66	46745.18
584.82	47004.98
584.98	46623.47
585.14	47086.90
585.30	46815.40
585.46	46913.70
585.62	47037.75
585.78	46600.07
585.94	46426.87
586.10	47026.04
586.26	46686.67
586.42	47210.95
586.58	47023.70
586.74	46878.59
586.90	46616.45
587.06	46710.07
587.22	47009.66
587.38	46806.03
587.54	47470.75
587.70	47021.36
587.86	46965.19
588.02	47065.83
588.18	47124.35
588.34	46693.69
588.49	46658.58
588.65	46162.39
588.81	46321.54
588.97	46155.36
589.13	46600.07
589.29	46621.13
589.45	46845.82
589.61	46836.46
589.77	47201.58
589.93	46791.99
590.08	47192.22
590.24	47470.75
590.40	46787.31
590.56	47494.15
590.72	47012.00
590.88	46799.01
591.04	46878.59
591.20	47578.41
591.35	47306.91
591.51	47545.64
591.67	47131.37
591.83	46838.80
591.99	47264.78
592.15	47192.22
592.31	46997.96
592.46	47634.58
592.62	46962.85
592.78	47342.02
592.94	47103.28
593.10	47222.65
593.26	46843.48
593.41	46925.40
593.57	46946.47
593.73	47028.38
593.89	47498.83
594.05	46974.55
594.20	47042.43
594.36	47072.85
594.52	46721.77
594.68	47107.96
594.84	46990.94
594.99	47194.56
595.15	47026.04
595.31	47409.89
595.47	47093.92
595.62	47325.63
595.78	47189.88
595.94	47372.44
596.10	46892.63
596.25	47274.14
596.41	47189.88
596.57	46698.37
596.73	47351.38
596.88	46960.51
597.04	47138.39
597.20	46829.44
597.36	47033.07
597.51	47379.46
597.67	47480.11
597.83	47672.03
597.99	47400.53
598.14	47351.38
598.30	47217.97
598.46	47224.99
598.61	47239.03
598.77	47129.03
598.93	46885.61
599.09	47435.64
599.24	47456.70
599.40	47026.04
599.56	47452.02
599.71	47091.58
599.87	47044.77
600.03	47164.14
600.18	47180.52
600.34	47182.86
600.50	47000.30
600.65	46904.34
600.81	47021.36
600.97	47196.90
601.12	47377.12
601.28	47131.37
601.44	47138.39
601.59	47009.66
601.75	46693.69
601.91	47330.31
602.06	47178.18
602.22	46834.12
602.37	46859.87
602.53	47096.26
602.69	47332.65
602.84	46529.85
603.00	47016.68
603.16	47157.11
603.31	47416.91
603.47	46946.47
603.62	46808.37
603.78	47187.54
603.94	46883.27
604.09	47508.19
604.25	47161.79
604.40	47180.52
604.56	47201.58
604.71	47171.16
604.87	46733.48
605.03	47070.51
605.18	46724.11
605.34	46909.02
605.49	47037.75
605.65	47133.71
605.80	46742.84
605.96	47157.11
606.12	47082.22
606.27	47037.75
606.43	46829.44
606.58	46979.23
606.74	46855.18
606.89	46674.96
607.05	47164.14
607.20	46855.18
607.36	46674.96
607.51	46983.91
607.67	47037.75
607.82	47255.42
607.98	47222.65
608.13	46672.62
608.29	46768.58
608.44	46394.10
608.60	46136.64
608.75	46450.27
608.91	46726.46
609.06	46408.14
609.22	46967.53
609.37	46351.97
609.53	46735.82
609.68	46614.11
609.84	46103.87
609.99	46667.94
610.15	45909.61
610.30	46337.93
610.46	46363.67
610.61	46295.80
610.76	46511.13
610.92	46527.51
611.07	47159.45
611.23	46108.55
611.38	46628.15
611.54	46384.74
611.69	46143.66
611.84	46064.08
612.00	46515.81
612.15	46131.96
612.31	46333.24
612.46	45933.01
612.62	46211.54
612.77	46075.79
612.92	46611.77
613.08	46309.84
613.23	46096.85
613.39	45991.53
613.54	45347.88
613.69	46080.47
613.85	46064.08
614.00	46134.30
614.15	46309.84
614.31	46227.92
614.46	45965.78
614.62	46188.13
614.77	45841.73
614.92	45607.68
615.08	45834.71
615.23	45511.72
615.38	45881.52
615.54	45303.41
615.69	45780.88
615.84	45631.08
616.00	46064.08
616.15	45478.95
616.30	45542.14
616.46	45141.91
616.61	45408.73
616.76	45450.86
616.92	45535.12
617.07	45567.89
617.22	45588.95
617.37	45240.21
617.53	45874.50
617.68	45357.24
617.83	45577.25
617.99	45287.03
618.14	45603.00
618.29	45584.27
618.45	44942.97
618.60	45074.04
618.75	45275.32
618.90	45193.40
619.06	45549.17
619.21	45205.11
619.36	45729.39
619.51	45277.66
619.67	45022.54
619.82	45624.06
619.97	45633.42
620.12	45422.78
620.28	44828.28
620.43	44978.07
620.58	45340.86
620.73	44919.56
620.89	44706.57
621.04	44903.18
621.19	44837.64
621.34	45062.33
621.49	44456.14
621.65	44652.74
621.80	44772.11
621.95	45017.86
622.10	44769.77
622.25	44268.89
622.41	44189.31
622.56	44074.63
622.71	44781.47
622.86	44502.95
623.01	44917.22
623.16	44055.90
623.32	44680.83
623.47	44570.82
623.62	44446.77
623.77	44390.60
623.92	44336.77
624.07	44406.98
624.23	44346.13
624.38	44327.41
624.53	43833.55
624.68	44062.93
624.83	44418.69
624.98	44184.63
625.13	43805.47
625.29	43938.88
625.44	43812.49
625.59	43852.28
625.74	43896.75
625.89	43648.65
626.04	43524.60
626.19	44189.31
626.34	43901.43
626.49	44025.48
626.65	43861.64
626.80	44299.32
626.95	43917.81
627.10	43578.43
627.25	43531.62
627.40	43665.03
627.55	43505.88
627.70	43138.41
627.85	42862.23
628.00	43122.03
628.15	43089.26
628.30	43655.67
628.45	43697.80
628.60	43606.52
628.76	43442.68
628.91	43922.49
629.06	42986.28
629.21	43049.47
629.36	43234.38
629.51	43016.71
629.66	42836.48
629.81	42955.85
629.96	43150.12
630.11	43051.81
630.26	43098.62
630.41	43550.35
630.56	42660.94
630.71	42967.55
630.86	42876.27
631.01	42787.33
631.16	42986.28
631.31	42483.06
631.46	43026.07
631.61	42555.62
631.76	42473.70
631.91	42621.16
632.06	42960.53
632.21	43157.14
632.36	42995.64
632.51	42852.87
632.66	42686.69
632.81	42232.63
632.96	42487.74
633.10	42351.99
633.25	42604.77
633.40	42316.89
633.55	42698.39
633.70	42459.66
633.85	42576.69
634.00	42373.06
634.15	42342.63
634.30	42129.64
634.45	42373.06
634.60	42206.88
634.75	42473.70
634.90	42087.51
635.05	41951.76
635.19	42050.06
635.34	42089.85
635.49	42078.15
635.64	42059.43
635.79	42029.00
635.94	42115.60
636.09	42513.49
636.24	41865.16
636.39	41886.23
636.53	41986.87
636.68	41951.76
636.83	41806.65
636.98	41858.14
637.13	41710.69
637.28	42047.72
637.43	41799.63
637.57	42136.66
637.72	41926.02
637.87	41481.31
638.02	42089.85
638.17	42134.32
638.32	41572.60
638.46	41656.85
638.61	41698.98
638.76	41144.28
638.91	41865.16
639.06	41638.13
639.20	41429.82
639.35	41635.79
639.50	41661.54
639.65	41626.43
639.80	41722.39
639.94	41163.00
640.09	41490.68
640.24	41427.48
640.39	40957.03
640.54	41251.94
640.68	41219.17
640.83	41265.99
640.98	40999.16
641.13	41158.32
641.27	41706.01
641.42	41060.02
641.57	41057.68
641.72	41170.02
641.86	40708.94
642.01	40634.04
642.16	40893.84
642.31	40086.36
642.45	41223.86
642.60	40758.09
642.75	40285.30
642.90	41027.25
643.04	40589.57
643.19	40886.82
643.34	40498.29
643.48	40568.51
643.63	40760.43
643.78	40334.45
643.93	40275.94
644.07	40456.16
644.22	40367.22
644.37	40479.57
644.51	40381.26
644.66	40755.75
644.81	40311.05
644.95	40631.70
645.10	40509.99
645.25	40378.92
645.39	40037.20
645.54	40395.31
645.69	40236.15
645.83	39983.37
645.98	40355.52
646.13	40339.13
646.27	40315.73
646.42	39929.54
646.57	39784.43
646.71	39995.07
646.86	40105.08
647.00	39908.47
647.15	40039.54
647.30	40130.83
647.44	39679.10
647.59	39875.71
647.74	40339.13
647.88	39646.33
648.03	39929.54
648.17	40032.52
648.32	39660.38
648.47	39903.79
648.61	39615.91
648.76	39894.43
648.90	39580.80
649.05	40044.23
649.20	39531.65
649.34	39917.84
649.49	39651.02
649.63	39405.26
649.78	39115.03
649.92	39470.79
650.07	39524.63
650.21	39379.51
650.36	39557.39
650.51	39597.18
650.65	40187.00
650.80	40053.59
650.94	39746.98
651.09	39175.89
651.23	39501.22
651.38	38890.34
651.52	39171.21
651.67	39379.51
651.81	39173.55
651.96	38766.29
652.10	39040.14
652.25	39199.29
652.39	39239.08
652.54	39281.21
652.68	39054.18
652.83	39318.66
652.97	38911.41
653.12	39054.18
653.26	38880.98
653.41	39000.35
653.55	38810.76
653.70	38646.93
653.84	39269.51
653.99	39028.43
654.13	38487.77
654.27	38754.59
654.42	38431.60
654.56	38651.61
654.71	38841.19
654.85	38644.59
655.00	38911.41
655.14	38588.41
655.29	38246.69
655.43	38150.73
655.57	38094.56
655.72	38206.90
655.86	37830.08
656.01	37340.91
656.15	37528.15
656.30	37446.23
656.44	37928.38
656.58	38038.39
656.73	37607.73
656.87	37998.60
657.01	37832.42
657.16	38075.84
657.30	38022.00
657.45	37750.50
657.59	38110.94
657.73	37507.08
657.88	38127.33
658.02	38211.59
658.16	38249.03
658.31	38089.88
658.45	38122.65
658.60	37682.62
658.74	38040.73
658.88	38036.05
659.03	37654.54
659.17	37411.12
659.31	37345.59
659.46	37586.66
659.60	37432.19
659.74	37673.26
659.89	37251.97
660.03	37551.56
660.17	37748.16
660.32	37453.25
660.46	37324.52
660.60	37352.61
660.74	37106.85
660.89	37560.92
661.03	36849.39
661.17	36999.19
661.32	36748.75
661.46	37387.72
661.60	36727.69
661.74	37099.83
661.89	37017.91
662.03	36474.91
662.17	36531.08
662.31	36765.14
662.46	36727.69
662.60	36837.69
662.74	36388.31
662.88	36514.70
663.03	36411.71
663.17	36198.73
663.31	35765.73
663.45	36271.28
663.60	36311.07
663.74	36114.47
663.88	36154.26
664.02	35981.06
664.17	36107.44
664.31	36130.85
664.45	35791.47
664.59	35957.65
664.73	35669.76
664.88	35681.47
665.02	35566.78
665.16	35541.03
665.30	35496.56
665.44	35749.34
665.59	35314.00
665.73	35433.37
665.87	35622.95
666.01	35201.66
666.15	35328.05
666.29	35318.68
666.44	35339.75
666.58	35393.58
666.72	35295.28
666.86	35335.07
667.00	35285.92
667.14	35101.01
667.28	34766.32
667.43	34595.46
667.57	34621.20
667.71	34780.36
667.85	35248.47
667.99	34787.38
668.13	34480.77
668.27	34478.43
668.41	34543.97
668.56	34391.83
668.70	34651.63
668.84	34213.95
668.98	33720.10
669.12	33874.57
669.26	33795.00
669.40	33986.92
669.54	34059.48
669.68	34029.05
669.82	33619.46
669.96	33832.44
670.10	33607.75
670.25	33717.76
670.39	33848.83
670.53	33706.05
670.67	33373.70
670.81	33860.53
670.95	33982.24
671.09	33411.15
671.23	33312.84
671.37	33006.23
671.51	33277.74
671.65	32978.15
671.79	32610.68
671.93	32952.40
672.07	33123.26
672.21	33041.34
672.35	32540.47
672.49	32655.15
672.63	32844.74
672.77	32591.96
672.91	32299.39
673.05	32732.39
673.19	32521.74
673.33	32414.08
673.47	32374.29
673.61	32252.58
673.75	31929.59
673.89	31805.54
674.03	31838.31
674.17	32020.87
674.31	31847.67
674.45	31592.55
674.59	31634.68
674.73	31983.42
674.87	31665.11
675.01	31824.26
675.15	31615.96
675.29	31166.57
675.43	31534.04
675.56	31236.79
675.70	31267.22
675.84	30712.51
675.98	30103.97
676.12	31194.66
676.26	31082.31
676.40	31145.51
676.54	31042.53
676.68	30728.89
676.82	30525.27
676.96	30644.63
677.10	30433.99
677.23	30618.89
677.37	30174.19
677.51	30162.48
677.65	29675.65
677.79	29647.57
677.93	29535.22
678.07	29277.76
678.21	29621.82
678.34	29408.83
678.48	29156.05
678.62	29329.25
678.76	28973.49
678.90	28811.99
679.04	29174.78
679.18	28701.99
679.31	28858.81
679.45	28744.12
679.59	28290.06
679.73	28276.01
679.87	28105.15
680.00	28308.78
680.14	28402.40
680.28	28287.71
680.42	27955.36
680.56	28175.37
680.70	27885.14
680.83	27910.89
680.97	28208.14
681.11	27632.36
681.25	27627.68
681.39	27569.17
681.52	27751.73
681.66	27513.00
681.80	27227.45
681.94	27143.19
682.07	27243.84
682.21	26878.71
682.35	26806.16
682.49	27077.66
682.62	26920.84
682.76	27002.76
682.90	26663.38
683.04	26405.92
683.17	26291.24
683.31	26045.48
683.45	26415.29
683.59	25788.02
683.72	26340.39
683.86	26171.87
684.00	26118.04
684.13	25930.80
684.27	25989.31
684.41	25551.63
684.55	25720.15
684.68	25352.68
684.82	25619.50
684.96	25340.98
685.09	25420.56
685.23	25212.25
685.37	25123.31
685.50	25151.40
685.64	24783.93
685.78	24779.25
685.91	24711.38
686.05	24624.78
686.19	24325.19
686.32	24180.07
686.46	23756.44
686.60	23616.01
686.73	23651.11
686.87	23751.76
687.01	23583.24
687.14	23400.68
687.28	23447.49
687.42	23508.34
687.55	23454.51
687.69	23934.32
687.82	23463.87
687.96	23250.88
688.10	23510.68
688.23	22415.31
688.37	23143.22
688.50	22946.61
688.64	22892.78
688.78	22565.10
688.91	22817.88
689.05	22691.49
689.18	22651.70
689.32	21956.57
689.46	22377.86
689.59	22401.27
689.73	22562.76
689.86	22621.28
690.00	22148.49
690.13	22075.93
690.27	21907.41
690.41	21949.54
690.54	21568.04
690.68	21696.77
690.81	21593.78
690.95	21619.53
691.08	21280.15
691.22	21500.16
691.35	21380.79
691.49	21469.73
691.62	21331.64
691.76	21455.69
691.89	21053.12
692.03	21081.21
692.16	20594.37
692.30	20861.19
692.43	20402.45
692.57	20608.42
692.70	20402.45
692.84	20280.74
692.97	20152.01
693.11	20166.06
693.24	19852.42
693.38	20177.76
693.51	19939.02
693.65	19857.10
693.78	19761.14
693.92	20027.96
694.05	19964.77
694.19	19829.02
694.32	19782.21
694.45	19276.65
694.59	19066.00
694.72	19400.70
694.86	19389.00
694.99	18853.02
695.13	18897.49
695.26	18916.21
695.39	19145.58
695.53	18963.02
695.66	18881.10
695.80	18897.49
695.93	18780.46
696.07	18434.06
696.20	18480.87
696.33	18558.11
696.47	18080.64
696.60	18246.82
696.73	18352.14
696.87	17848.93
697.00	18141.49
697.14	17935.53
697.27	18012.76
697.40	17757.64
697.54	17795.09
697.67	17708.49
697.80	17547.00
697.94	17633.60
698.07	17373.80
698.21	17151.45
698.34	17263.79
698.47	17156.13
698.61	16975.91
698.74	16594.40
698.87	16807.39
699.01	16659.93
699.14	16585.04
699.27	16664.61
699.40	16339.28
699.54	16491.41
699.67	16512.48
699.80	16430.56
699.94	16250.34
700.07	16444.60
700.20	16212.89
700.34	16020.97
700.47	16051.39
700.60	16126.29
700.73	16255.02
700.87	15632.44
701.00	15864.15
701.13	15843.09
701.26	15775.21
701.40	15576.27
701.53	15599.67
701.66	15796.28
701.79	15503.71
701.93	15447.54
702.06	15283.70
702.19	15255.61
702.32	15014.54
702.46	14939.64
702.59	14841.34
702.72	15208.80
702.85	15101.14
702.99	15007.52
703.12	14752.40
703.25	14672.82
703.38	14490.26
703.51	14537.07
703.65	14523.02
703.78	14834.32
703.91	14349.82
704.04	14441.11
704.17	14363.87
704.31	14413.02
704.44	14031.51
704.57	14115.77
704.70	14167.26
704.83	14225.78
704.96	13973.00
705.10	14146.20
705.23	13837.25
>>>>>End Processed Spectral Data<<<<<
