SpectraSuite Data File
++++++++++++++++++++++++++++++++++++
Date: Fri Oct 25 10:47:41 EDT 2013
User: price-jones
Dark Spectrum Present: No
Reference Spectrum Present: No
Number of Sampled Component Spectra: 1
Spectrometers: USB2+H05261
Integration Time (usec): 100000 (USB2+H05261)
Spectra Averaged: 1 (USB2+H05261)
Boxcar Smoothing: 0 (USB2+H05261)
Correct for Electrical Dark: No (USB2+H05261)
Strobe/Lamp Enabled: No (USB2+H05261)
Correct for Detector Non-linearity: No (USB2+H05261)
Correct for Stray Light: No (USB2+H05261)
Number of Pixels in Processed Spectrum: 2048
>>>>>Begin Processed Spectral Data<<<<<
365.73	152.13
365.92	152.13
366.12	152.13
366.32	140.43
366.52	32.77
366.72	100.64
366.91	51.49
367.11	14.04
367.31	44.47
367.51	42.13
367.70	65.54
367.90	86.60
368.10	70.22
368.30	42.13
368.49	56.17
368.69	18.72
368.89	79.58
369.09	16.38
369.28	102.98
369.48	25.75
369.68	114.69
369.87	100.64
370.07	58.51
370.27	184.90
370.47	229.37
370.66	313.63
370.86	468.11
371.06	428.32
371.25	491.51
371.45	421.30
371.65	475.13
371.84	493.85
372.04	416.62
372.24	463.43
372.44	503.22
372.63	524.28
372.83	369.80
373.03	496.19
373.22	484.49
373.42	528.96
373.62	463.43
373.81	557.05
374.01	554.71
374.21	528.96
374.40	596.84
374.60	571.09
374.79	599.18
374.99	596.84
375.19	552.37
375.38	599.18
375.58	564.07
375.78	547.69
375.97	589.82
376.17	674.07
376.37	521.94
376.56	566.41
376.76	587.47
376.95	573.43
377.15	603.86
377.35	610.88
377.54	596.84
377.74	596.84
377.93	594.50
378.13	634.29
378.33	603.86
378.52	669.39
378.72	507.90
378.91	648.33
379.11	571.09
379.31	615.56
379.50	573.43
379.70	631.94
379.89	667.05
380.09	624.92
380.28	634.29
380.48	594.50
380.68	627.26
380.87	692.80
381.07	718.54
381.26	667.05
381.46	709.18
381.65	608.54
381.85	622.58
382.04	638.97
382.24	638.97
382.43	737.27
382.63	681.10
382.83	641.31
383.02	725.57
383.22	718.54
383.41	685.78
383.61	772.38
383.80	741.95
384.00	695.14
384.19	688.12
384.39	730.25
384.58	755.99
384.78	755.99
384.97	746.63
385.17	791.10
385.36	793.44
385.56	734.93
385.75	727.91
385.95	809.83
386.14	779.40
386.34	842.59
386.53	748.97
386.72	777.06
386.92	851.96
387.11	788.76
387.31	823.87
387.50	830.89
387.70	880.04
387.89	800.46
388.09	861.32
388.28	819.19
388.48	849.61
388.67	945.58
388.86	924.51
389.06	770.04
389.25	987.71
389.45	870.68
389.64	950.26
389.84	880.04
390.03	905.79
390.22	931.53
390.42	980.68
390.61	926.85
390.81	952.60
391.00	1013.45
391.19	1011.11
391.39	936.21
391.58	1104.73
391.78	1004.09
391.97	870.68
392.16	938.55
392.36	978.34
392.55	961.96
392.75	901.11
392.94	938.55
393.13	905.79
393.33	1032.18
393.52	1078.99
393.71	1015.79
393.91	1149.20
394.10	1027.50
394.29	1121.12
394.49	1053.24
394.68	1116.44
394.88	1015.79
395.07	1212.40
395.26	1107.07
395.46	1114.10
395.65	1153.88
395.84	1144.52
396.04	1294.32
396.23	1149.20
396.42	1167.93
396.62	1102.39
396.81	1263.89
397.00	1181.97
397.19	1172.61
397.39	1160.91
397.58	1196.01
397.77	1245.16
397.97	1259.21
398.16	1200.69
398.35	1224.10
398.55	1313.04
398.74	1369.21
398.93	1350.49
399.12	1331.76
399.32	1310.70
399.51	1401.98
399.70	1343.47
399.90	1357.51
400.09	1364.53
400.28	1376.24
400.47	1348.15
400.67	1413.68
400.86	1434.75
401.05	1474.54
401.24	1476.88
401.44	1474.54
401.63	1542.41
401.82	1502.62
402.01	1495.60
402.21	1551.78
402.40	1563.48
402.59	1614.97
402.78	1544.75
402.97	1593.90
403.17	1610.29
403.36	1664.12
403.55	1678.16
403.74	1647.74
403.93	1636.03
404.13	1680.50
404.32	1715.61
404.51	1638.38
404.70	1699.23
404.89	1551.78
405.09	1764.76
405.28	1806.89
405.47	1783.49
405.66	1687.53
405.85	1755.40
406.05	1769.44
406.24	1659.44
406.43	1811.57
406.62	1856.04
406.81	1895.83
407.00	1746.04
407.20	1837.32
407.39	1795.19
407.58	1944.99
407.77	1991.80
407.96	1916.90
408.15	1973.07
408.34	2052.65
408.54	2038.61
408.73	2017.54
408.92	2029.24
409.11	1898.17
409.30	2092.44
409.49	2038.61
409.68	2113.50
409.87	2150.95
410.07	2071.37
410.26	2120.53
410.45	2118.18
410.64	2083.08
410.83	2314.79
411.02	2279.68
411.21	2347.56
411.40	2270.32
411.59	2286.70
411.78	2324.15
411.98	2265.64
412.17	2338.20
412.36	2340.54
412.55	2499.69
412.74	2417.77
412.93	2565.23
413.12	2328.83
413.31	2448.20
413.50	2509.05
413.69	2609.70
413.88	2740.77
414.07	2548.84
414.26	2710.34
414.45	2504.37
414.64	2626.08
414.83	2628.42
415.02	2750.13
415.22	2794.60
415.41	2644.81
415.60	2726.72
415.79	2932.69
415.98	3007.59
416.17	2930.35
416.36	2951.42
416.55	2925.67
416.74	2825.03
416.93	2825.03
417.12	2909.29
417.31	3082.49
417.50	2946.73
417.69	3269.73
417.88	3089.51
418.07	3126.96
418.26	3009.93
418.45	3145.68
418.64	3267.39
418.83	3152.70
419.02	3124.62
419.21	3194.83
419.39	3199.51
419.58	3183.13
419.77	3243.98
419.96	3295.47
420.15	3274.41
420.34	3328.24
420.53	3274.41
420.72	3421.86
420.91	3410.16
421.10	3445.27
421.29	3517.83
421.48	3428.88
421.67	3314.20
421.86	3365.69
422.05	3410.16
422.24	3239.30
422.43	3555.27
422.61	3379.73
422.80	3449.95
422.99	3456.97
423.18	3449.95
423.37	3620.81
423.56	3541.23
423.75	3566.98
423.94	3513.14
424.13	3262.71
424.32	3384.41
424.50	3468.67
424.69	3616.13
424.88	3571.66
425.07	3578.68
425.26	3468.67
425.45	3529.53
425.64	3456.97
425.83	3475.70
426.01	3691.02
426.20	3653.58
426.39	3613.79
426.58	3543.57
426.77	3487.40
426.96	3700.39
427.15	3569.32
427.33	3688.68
427.52	3616.13
427.71	3763.58
427.90	3728.47
428.09	3709.75
428.28	3822.09
428.46	3709.75
428.65	3714.43
428.84	3885.29
429.03	3789.33
429.22	3641.87
429.40	3735.50
429.59	3742.52
429.78	3688.68
429.97	3492.08
430.16	3815.07
430.34	3918.06
430.53	3894.65
430.72	3864.22
430.91	3878.27
431.10	3953.16
431.28	4140.41
431.47	4070.19
431.66	4168.49
431.85	4219.99
432.03	4088.92
432.22	4222.33
432.41	4227.01
432.60	4154.45
432.79	4315.95
432.97	4278.50
433.16	4189.56
433.35	4196.58
433.54	4212.96
433.72	4294.88
433.91	4243.39
434.10	4404.89
434.28	4238.71
434.47	4484.47
434.66	4395.53
434.85	4465.74
435.03	4552.34
435.22	4397.87
435.41	4650.64
435.59	4421.27
435.78	4535.96
435.97	4645.96
436.16	4643.62
436.34	4533.62
436.53	4648.30
436.72	4554.68
436.90	4475.10
437.09	4652.98
437.28	4631.92
437.46	4713.84
437.65	4727.88
437.84	4809.80
438.02	4685.75
438.21	4725.54
438.40	4760.65
438.58	4987.68
438.77	4952.57
438.96	4821.50
439.14	4997.04
439.33	4964.28
439.52	5097.69
439.70	5224.08
439.89	5240.46
440.08	5163.22
440.26	5324.72
440.45	5188.97
440.63	5219.39
440.82	5362.17
441.01	5263.86
441.19	5469.83
441.38	5380.89
441.57	5345.78
441.75	5472.17
441.94	5645.37
442.12	5659.42
442.31	5675.80
442.50	5743.67
442.68	5715.59
442.87	5762.40
443.05	5680.48
443.24	5956.66
443.43	5589.20
443.61	5849.00
443.80	5881.77
443.98	5809.21
444.17	5638.35
444.35	5860.70
444.54	5856.02
444.73	5792.83
444.91	5776.44
445.10	5853.68
445.28	5825.59
445.47	5755.38
445.65	5832.62
445.84	5872.40
446.02	5898.15
446.21	5916.87
446.39	5762.40
446.58	6031.56
446.77	5874.74
446.95	5755.38
447.14	6099.44
447.32	6162.63
447.51	5968.37
447.69	5830.27
447.88	6267.95
448.06	5970.71
448.25	6069.01
448.43	6139.23
448.62	6225.82
448.80	6127.52
448.99	6113.48
449.17	6078.37
449.36	6160.29
449.54	6218.80
449.73	6289.02
449.91	6473.92
450.10	6431.79
450.28	6434.13
450.46	6370.94
450.65	6389.66
450.83	6569.88
451.02	6356.90
451.20	6478.60
451.39	6567.54
451.57	6471.58
451.76	6394.34
451.94	6476.26
452.13	6415.41
452.31	6434.13
452.49	6333.49
452.68	6516.05
452.86	6462.22
453.05	6740.74
453.23	6377.96
453.42	6600.31
453.60	6644.78
453.78	6712.66
453.97	6429.45
454.15	6597.97
454.34	6651.80
454.52	6715.00
454.70	6817.98
454.89	6808.62
455.07	6916.28
455.26	6822.66
455.44	6972.46
455.62	6946.71
455.81	6747.76
455.99	6935.01
456.17	7059.06
456.36	7066.08
456.54	7133.95
456.73	7190.13
456.91	7365.67
457.09	7215.87
457.28	7274.38
457.46	7178.42
457.64	7234.60
457.83	7267.36
458.01	7253.32
458.19	7323.54
458.38	7208.85
458.56	7414.82
458.74	7609.08
458.93	7417.16
459.11	7393.75
459.29	7660.57
459.48	7632.49
459.66	7590.36
459.84	7620.78
460.03	7597.38
460.21	7709.72
460.39	7653.55
460.57	7655.89
460.76	7772.92
460.94	7740.15
461.12	7992.93
461.31	7943.78
461.49	7756.54
461.67	7662.91
461.85	7873.56
462.04	7941.44
462.22	8573.38
462.40	8016.33
462.59	8042.08
462.77	7920.37
462.95	8114.64
463.13	7929.74
463.32	8156.77
463.50	8002.29
463.68	8074.85
463.86	8222.30
464.05	8077.19
464.23	8210.60
464.41	8238.69
464.59	8049.10
464.78	8404.86
464.96	8334.65
465.14	8278.47
465.32	8362.73
465.50	8360.39
465.69	8334.65
465.87	8259.75
466.05	8411.89
466.23	8449.33
466.41	8573.38
466.60	8624.87
466.78	8344.01
466.96	8383.80
467.14	8360.39
467.32	8528.91
467.51	8559.34
467.69	8400.18
467.87	8564.02
468.05	8486.78
468.23	8505.51
468.41	8432.95
468.60	8472.74
468.78	8650.62
468.96	8706.79
469.14	8868.29
469.32	8837.86
469.50	8592.11
469.69	9050.85
469.87	9097.66
470.05	9107.02
470.23	8973.61
470.41	8821.48
470.59	8938.51
470.77	9078.94
470.95	9109.36
471.14	9266.18
471.32	9029.79
471.50	9111.71
471.68	9394.91
471.86	9315.33
472.04	9399.59
472.22	9586.83
472.40	9245.12
472.58	9514.28
472.77	9432.36
472.95	9666.41
473.13	9825.57
473.31	9713.22
473.49	9647.69
473.67	9647.69
473.85	9781.10
474.03	9963.66
474.21	9893.44
474.39	10087.71
474.57	10083.03
474.75	10195.37
474.93	10078.35
475.12	10190.69
475.30	10452.83
475.48	10129.84
475.66	10349.85
475.84	10164.95
476.02	10513.69
476.20	10466.88
476.38	10689.23
476.56	10787.53
476.74	10857.75
476.92	10827.32
477.10	10691.57
477.28	11145.63
477.46	10817.96
477.64	11108.18
477.82	11246.27
478.00	11566.93
478.18	11637.14
478.36	11400.75
478.54	11566.93
478.72	11555.22
478.90	12016.31
479.08	11648.85
479.26	11845.45
479.44	12088.87
479.62	12175.47
479.80	12107.59
479.98	12189.51
480.16	12484.42
480.34	12519.53
480.52	12407.18
480.70	12362.71
480.88	12355.69
481.06	12704.43
481.24	12681.02
481.41	12784.01
481.59	12872.95
481.77	12910.40
481.95	13231.05
482.13	13259.13
482.31	13256.79
482.49	13408.93
482.67	13708.52
482.85	13717.88
483.03	13830.23
483.21	13954.27
483.39	14202.37
483.57	13907.46
483.74	14188.33
483.92	14223.44
484.10	14136.84
484.28	14689.20
484.46	14630.69
484.64	14986.45
484.82	14736.01
485.00	14750.06
485.18	15098.80
485.35	15473.28
485.53	15286.04
485.71	15229.87
485.89	15290.72
486.07	15260.29
486.25	15281.36
486.43	15473.28
486.61	15646.48
486.78	16009.26
486.96	15983.52
487.14	16486.73
487.32	16203.53
487.50	16390.77
487.68	16594.40
487.85	16978.25
488.03	16783.98
488.21	17429.97
488.39	17144.42
488.57	16947.82
488.75	17357.41
488.92	17617.21
489.10	17757.64
489.28	17809.14
489.46	18209.37
489.64	18097.02
489.81	18527.68
489.99	18635.35
490.17	18558.11
490.35	18574.49
490.53	18927.91
490.70	18906.85
490.88	18710.24
491.06	19147.92
491.24	19016.85
491.41	18981.74
491.59	19105.79
491.77	19208.78
491.95	19367.93
492.13	19683.91
492.30	19927.32
492.48	19768.16
492.66	20130.95
492.84	20011.58
493.01	20575.65
493.19	20456.28
493.37	20383.73
493.54	20753.53
493.72	20861.19
493.90	20737.15
494.08	20917.37
494.25	21064.82
494.43	21303.56
494.61	21553.99
494.79	21238.02
494.96	21544.63
495.14	21741.24
495.32	21408.88
495.49	21811.45
495.67	21628.89
495.85	22190.62
496.02	22298.28
496.20	22675.11
496.38	22427.01
496.55	22565.10
496.73	22995.76
496.91	22850.65
497.09	23077.68
497.26	23103.43
497.44	23323.44
497.62	23424.08
497.79	23384.29
497.97	23482.59
498.14	23597.28
498.32	23920.28
498.50	23520.04
498.67	24149.65
498.85	23683.88
499.03	24217.52
499.20	24140.29
499.38	24292.42
499.56	24442.21
499.73	24449.24
499.91	24477.32
500.08	24732.44
500.26	24456.26
500.44	24393.06
500.61	24996.92
500.79	24339.23
500.97	24870.53
501.14	25537.59
501.32	25474.39
501.49	25111.61
501.67	25230.98
501.84	25465.03
502.02	25294.17
502.20	25919.09
502.37	25860.58
502.55	25624.18
502.72	25851.22
502.90	25848.88
503.07	25724.83
503.25	26164.85
503.43	26026.76
503.60	26185.91
503.78	26183.57
503.95	26319.32
504.13	26419.97
504.30	26972.33
504.48	26789.77
504.65	26867.01
504.83	27070.64
505.01	27072.98
505.18	27185.32
505.36	27412.35
505.53	27054.25
505.71	27718.96
505.88	27754.07
506.06	27307.03
506.23	27702.58
506.41	27447.46
506.58	27435.76
506.76	27562.15
506.93	28538.15
507.11	27990.47
507.28	28133.24
507.46	27632.36
507.63	28067.70
507.81	28130.90
507.98	28187.07
508.16	28276.01
508.33	28210.48
508.50	28407.08
508.68	28804.97
508.85	29298.83
509.03	28701.99
509.20	28746.46
509.38	28896.25
509.55	29315.21
509.73	28929.02
509.90	29163.08
510.08	29024.98
510.25	29120.95
510.42	29256.70
510.60	29378.40
510.77	29750.55
510.95	29682.67
511.12	29680.33
511.30	29692.04
511.47	30096.95
511.64	29752.89
511.82	30293.55
511.99	30300.58
512.17	29942.47
512.34	29986.94
512.51	30436.33
512.69	30450.37
512.86	30480.80
513.04	30822.51
513.21	30831.88
513.38	30927.84
513.56	30852.94
513.73	30583.78
513.90	30988.69
514.08	31140.83
514.25	31225.09
514.43	30984.01
514.60	31276.58
514.77	31374.88
514.95	31445.10
515.12	31407.65
515.29	31428.71
515.47	31454.46
515.64	31484.89
515.81	31842.99
515.99	31786.82
516.16	31618.30
516.33	31974.06
516.51	32025.55
516.68	31749.37
516.85	31332.75
517.03	31503.61
517.20	32297.05
517.37	32336.84
517.54	32137.90
517.72	31878.10
517.89	31985.76
518.06	32268.97
518.24	32432.80
518.41	32325.14
518.58	32591.96
518.75	32397.70
518.93	32779.20
519.10	32727.71
519.27	32910.27
519.45	32957.08
519.62	33153.69
519.79	33069.43
519.96	33464.98
520.14	33427.53
520.31	33354.97
520.48	33394.76
520.65	33383.06
520.83	33874.57
521.00	33890.96
521.17	34064.16
521.34	33766.91
521.52	33839.47
521.69	34129.69
521.86	33734.14
522.03	34075.86
522.20	34134.37
522.38	34148.42
522.55	34506.52
522.72	34504.18
522.89	34501.84
523.07	34623.54
523.24	34462.05
523.41	34330.98
523.58	34801.43
523.75	35044.84
523.92	35185.27
524.10	34934.84
524.27	34941.86
524.44	35288.26
524.61	35068.25
524.78	35058.88
524.96	35342.09
525.13	35463.80
525.30	35889.77
525.47	35627.63
525.64	35519.97
525.81	35665.08
525.98	35620.61
526.16	35606.57
526.33	35515.29
526.50	35491.88
526.67	35358.47
526.84	35786.79
527.01	35487.20
527.18	35632.32
527.36	36119.15
527.53	35857.01
527.70	36376.61
527.87	36123.83
528.04	36147.23
528.21	36304.05
528.38	36252.56
528.55	36580.23
528.72	36137.87
528.89	36486.61
529.07	36444.48
529.24	36264.26
529.41	36627.04
529.58	36552.15
529.75	36334.48
529.92	36575.55
530.09	36613.00
530.26	37027.28
530.43	37193.45
530.60	36664.49
530.77	36685.56
530.94	37008.55
531.11	37001.53
531.28	37401.76
531.46	37373.67
531.63	37441.55
531.80	37244.94
531.97	37120.90
532.14	37457.93
532.31	37031.96
532.48	37752.84
532.65	37596.03
532.82	37626.45
532.99	37958.81
533.16	37734.12
533.33	37949.45
533.50	37935.40
533.67	37977.53
533.84	38078.18
534.01	37872.21
534.18	37361.97
534.35	38415.21
534.52	37996.26
534.69	38352.02
534.86	38115.62
535.03	38225.63
535.20	38567.35
535.37	38801.40
535.54	38560.33
535.71	38328.61
535.88	38419.89
536.05	38223.29
536.22	38747.57
536.38	38714.80
536.55	38532.24
536.72	38529.90
536.89	38410.53
537.06	38494.79
537.23	39218.02
537.40	38794.38
537.57	38965.24
537.74	39009.71
537.91	38911.41
538.08	39700.17
538.25	39124.40
538.42	39414.62
538.59	38939.49
538.75	38827.15
538.92	38969.92
539.09	39491.86
539.26	39309.30
539.43	39768.04
539.60	39339.72
539.77	38658.63
539.94	39538.67
540.11	39711.87
540.28	39866.34
540.44	39449.73
540.61	39435.69
540.78	39641.65
540.95	39536.33
541.12	39360.79
541.29	39449.73
541.46	39583.14
541.62	39538.67
541.79	40123.80
541.96	39966.99
542.13	39695.49
542.30	39871.03
542.47	39941.24
542.63	39847.62
542.80	40348.50
542.97	40486.59
543.14	40931.29
543.31	41151.30
543.48	40706.60
543.64	41155.98
543.81	40634.04
543.98	40587.23
544.15	40744.05
544.32	40924.27
544.48	41368.97
544.65	40966.40
544.82	41127.89
544.99	40650.42
545.16	41071.72
545.32	40886.82
545.49	41120.87
545.66	41216.83
545.83	41038.95
546.00	41521.10
546.16	41258.96
546.33	41265.99
546.50	40982.78
546.67	40893.84
546.83	40783.83
547.00	41448.55
547.17	41553.87
547.34	41254.28
547.50	41523.44
547.67	41860.48
547.84	41345.56
548.00	41542.17
548.17	41549.19
548.34	41869.84
548.51	41539.83
548.67	41811.33
548.84	41743.45
549.01	41401.74
549.18	41851.12
549.34	42066.45
549.51	41930.70
549.68	41846.44
549.84	42249.01
550.01	41989.21
550.18	41986.87
550.34	41790.27
550.51	41769.20
550.68	41682.60
550.84	41514.08
551.01	42272.42
551.18	42239.65
551.34	42288.80
551.51	42029.00
551.68	42211.56
551.84	42225.60
552.01	42153.05
552.18	42513.49
552.34	42384.76
552.51	42628.18
552.68	42192.84
552.84	42021.98
553.01	42724.14
553.18	42305.18
553.34	42506.47
553.51	42246.67
553.67	42068.79
553.84	42827.12
554.01	42546.26
554.17	42792.01
554.34	42918.40
554.51	43299.91
554.67	43063.52
554.84	42862.23
555.00	42562.64
555.17	42462.00
555.33	42782.65
555.50	42740.52
555.67	43000.32
555.83	43365.45
556.00	42841.17
556.16	43393.53
556.33	43042.45
556.50	43068.20
556.66	43171.18
556.83	42906.70
556.99	43330.34
557.16	43585.46
557.32	43414.60
557.49	43201.61
557.65	43147.78
557.82	42761.59
557.98	42997.98
558.15	43215.65
558.32	43501.20
558.48	43316.29
558.65	43047.13
558.81	43608.86
558.98	43578.43
559.14	43620.56
559.31	43285.87
559.47	43491.83
559.64	43536.30
559.80	43948.24
559.97	43332.68
560.13	43491.83
560.30	43569.07
560.46	43615.88
560.63	43810.15
560.79	44025.48
560.96	43777.38
561.12	43423.96
561.29	43466.09
561.45	43491.83
561.61	43435.66
561.78	43732.91
561.94	43751.63
562.11	44107.40
562.27	43402.89
562.44	43613.54
562.60	43793.76
562.77	44044.20
562.93	43878.02
563.10	44308.68
563.26	43765.68
563.42	43859.30
563.59	43775.04
563.75	43552.69
563.92	43866.32
564.08	44069.95
564.24	44493.58
564.41	44093.35
564.57	43913.13
564.74	43761.00
564.90	43896.75
565.07	44041.86
565.23	43887.39
565.39	43550.35
565.56	44018.46
565.72	44334.43
565.88	43508.22
566.05	44226.76
566.21	44116.76
566.38	44142.50
566.54	43709.50
566.70	44175.27
566.87	44638.70
567.03	44025.48
567.19	44385.92
567.36	44336.77
567.52	43983.35
567.68	44507.63
567.85	44474.86
568.01	44622.31
568.17	44210.38
568.34	44114.42
568.50	44367.20
568.66	44121.44
568.83	44304.00
568.99	43772.70
569.15	44236.12
569.32	44289.96
569.48	44301.66
569.64	44292.30
569.81	44238.47
569.97	44194.00
570.13	44177.61
570.30	44463.16
570.46	43730.57
570.62	44055.90
570.78	44023.14
570.95	44428.05
571.11	45015.52
571.27	44392.94
571.43	44472.52
571.60	44619.97
571.76	44376.56
571.92	44273.57
572.09	44236.12
572.25	44495.92
572.41	43913.13
572.57	44722.96
572.74	45146.59
572.90	44638.70
573.06	44542.74
573.22	44992.12
573.38	44196.34
573.55	43983.35
573.71	44790.83
573.87	44374.22
574.03	44479.54
574.20	44832.96
574.36	44692.53
574.52	44556.78
574.68	44737.00
574.84	44425.71
575.01	44425.71
575.17	44481.88
575.33	44147.18
575.49	44652.74
575.65	44957.01
575.82	45195.74
575.98	44830.62
576.14	44753.38
576.30	44411.67
576.46	44156.55
576.62	44102.71
576.79	44477.20
576.95	43938.88
577.11	44240.81
577.27	44814.24
577.43	44868.07
577.59	44357.83
577.75	44683.17
577.92	44273.57
578.08	44105.06
578.24	43948.24
578.40	44945.31
578.56	44772.11
578.72	44442.09
578.88	44814.24
579.04	44465.50
579.21	44781.47
579.37	44744.02
579.53	44875.09
579.69	44568.48
579.85	44453.79
580.01	44825.94
580.17	44664.44
580.33	44722.96
580.49	44861.05
580.65	44531.03
580.82	44971.05
580.98	44582.52
581.14	44491.24
581.30	44711.25
581.46	44587.21
581.62	44589.55
581.78	44800.19
581.94	45074.04
582.10	44701.89
582.26	44374.22
582.42	44722.96
582.58	44664.44
582.74	44865.73
582.90	44992.12
583.06	44940.63
583.22	44858.71
583.38	44821.26
583.54	44825.94
583.70	44816.58
583.86	45031.91
584.02	44741.68
584.18	44809.56
584.34	44928.92
584.50	45020.20
584.66	44767.43
584.82	44825.94
584.98	45237.87
585.14	44961.69
585.30	44343.79
585.46	44374.22
585.62	44449.11
585.78	44484.22
585.94	44435.07
586.10	44685.51
586.26	44737.00
586.42	44903.18
586.58	45158.30
586.74	44842.32
586.90	44718.28
587.06	44507.63
587.22	44580.18
587.38	44868.07
587.54	45027.23
587.70	44931.26
587.86	45095.10
588.02	44933.60
588.18	45020.20
588.34	44741.68
588.49	44470.18
588.65	44500.61
588.81	44655.08
588.97	44381.24
589.13	44313.36
589.29	44568.48
589.45	44470.18
589.61	44830.62
589.77	44753.38
589.93	45069.36
590.08	45036.59
590.24	44837.64
590.40	45429.80
590.56	45123.19
590.72	44893.82
590.88	44919.56
591.04	45024.89
591.20	45469.59
591.35	45031.91
591.51	45724.71
591.67	45034.25
591.83	45280.00
591.99	45209.79
592.15	44568.48
592.31	45343.20
592.46	44947.65
592.62	44971.05
592.78	45287.03
592.94	45422.78
593.10	45071.70
593.26	45322.13
593.41	44999.14
593.57	45230.85
593.73	44868.07
593.89	45209.79
594.05	44741.68
594.20	45233.19
594.36	45207.45
594.52	45219.15
594.68	45317.45
594.84	44765.09
594.99	45258.94
595.15	45270.64
595.31	45404.05
595.47	45483.63
595.62	45092.76
595.78	45654.49
595.94	45228.51
596.10	45654.49
596.25	45209.79
596.41	45347.88
596.57	45219.15
596.73	45102.12
596.88	44547.42
597.04	45595.98
597.20	45160.64
597.36	45385.33
597.51	45626.40
597.67	45132.55
597.83	44947.65
597.99	45666.19
598.14	45148.93
598.30	45015.52
598.46	45382.99
598.61	45441.50
598.77	45125.53
598.93	45469.59
599.09	44942.97
599.24	45757.47
599.40	45457.88
599.56	45420.44
599.71	45390.01
599.87	45284.68
600.03	45055.31
600.18	45560.87
600.34	45464.91
600.50	45375.97
600.65	45254.26
600.81	45523.42
600.97	45586.61
601.12	45673.21
601.28	45144.25
601.44	45212.13
601.59	45310.43
601.75	44935.95
601.91	45488.31
602.06	44968.71
602.22	45382.99
602.37	45045.95
602.53	45516.40
602.69	45390.01
602.84	45324.47
603.00	45340.86
603.16	45263.62
603.31	45319.79
603.47	45186.38
603.62	44947.65
603.78	45411.07
603.94	45102.12
604.09	45492.99
604.25	45298.73
604.40	45212.13
604.56	45052.97
604.71	45703.64
604.87	44879.77
605.03	45397.03
605.18	45092.76
605.34	45212.13
605.49	45324.47
605.65	44992.12
605.80	45020.20
605.96	44879.77
606.12	44673.81
606.27	45057.65
606.43	45113.83
606.58	45153.62
606.74	45432.14
606.89	44882.11
607.05	44971.05
607.20	45052.97
607.36	45102.12
607.51	45329.16
607.67	45017.86
607.82	44830.62
607.98	45102.12
608.13	44825.94
608.29	44729.98
608.44	44484.22
608.60	44584.86
608.75	44751.04
608.91	44601.25
609.06	44554.44
609.22	45160.64
609.37	44673.81
609.53	44931.26
609.68	44678.49
609.84	44851.69
609.99	45109.14
610.15	44919.56
610.30	44903.18
610.46	44355.49
610.61	44832.96
610.76	44781.47
610.92	44381.24
611.07	44582.52
611.23	44395.28
611.38	44306.34
611.54	44591.89
611.69	44631.68
611.84	44545.08
612.00	44554.44
612.15	44706.57
612.31	44406.98
612.46	44399.96
612.62	44634.02
612.77	44449.11
612.92	44332.09
613.08	44341.45
613.23	44186.97
613.39	44025.48
613.54	44144.84
613.69	44189.31
613.85	44425.71
614.00	44568.48
614.15	44830.62
614.31	44371.88
614.46	44615.29
614.62	44446.77
614.77	44198.68
614.92	44114.42
615.08	44219.74
615.23	43903.77
615.38	43901.43
615.54	44020.80
615.69	43941.22
615.84	43632.27
616.00	44041.86
616.15	43983.35
616.30	43964.62
616.46	43592.48
616.61	43557.37
616.76	43906.11
616.92	43978.67
617.07	43868.66
617.22	43786.74
617.37	43618.22
617.53	44367.20
617.68	43901.43
617.83	43679.08
617.99	44074.63
618.14	44051.22
618.29	43695.46
618.45	43335.02
618.60	43494.18
618.75	43435.66
618.90	43793.76
619.06	43672.06
619.21	43365.45
619.36	43718.87
619.51	43374.81
619.67	43480.13
619.82	43643.97
619.97	44081.65
620.12	43384.17
620.28	42969.90
620.43	42969.90
620.58	43271.82
620.73	42794.36
620.89	43433.32
621.04	43510.56
621.19	43086.92
621.34	43377.15
621.49	43381.83
621.65	43058.84
621.80	43419.28
621.95	42660.94
622.10	43126.71
622.25	43030.75
622.41	43042.45
622.56	42946.49
622.71	43402.89
622.86	43353.74
623.01	43356.08
623.16	43229.69
623.32	42899.68
623.47	42997.98
623.62	43136.07
623.77	43070.54
623.92	42710.10
624.07	42454.98
624.23	42700.73
624.38	42923.08
624.53	42581.37
624.68	42937.13
624.83	42834.14
624.98	42890.32
625.13	42586.05
625.29	42700.73
625.44	42674.99
625.59	42141.35
625.74	42209.22
625.89	42178.79
626.04	41965.81
626.19	42899.68
626.34	42518.17
626.49	42354.33
626.65	42192.84
626.80	42469.02
626.95	42117.94
627.10	42284.12
627.25	42021.98
627.40	42176.45
627.55	41584.30
627.70	42075.81
627.85	41825.37
628.00	42146.03
628.15	42429.23
628.30	41977.51
628.45	41776.22
628.60	42164.75
628.76	42052.41
628.91	42232.63
629.06	41783.24
629.21	41748.14
629.36	42101.56
629.51	41951.76
629.66	41518.76
629.81	41436.84
629.96	41596.00
630.11	41844.10
630.26	41553.87
630.41	41982.19
630.56	41607.70
630.71	41771.54
630.86	41619.41
631.01	41645.15
631.16	41881.55
631.31	41312.80
631.46	40514.67
631.61	41537.49
631.76	42218.58
631.91	41553.87
632.06	41383.01
632.21	41312.80
632.36	41617.07
632.51	40980.44
632.66	41254.28
632.81	40868.09
632.96	41170.02
633.10	41130.23
633.25	40636.38
633.40	41031.93
633.55	41294.07
633.70	41265.99
633.85	41130.23
634.00	41022.57
634.15	40975.76
634.30	40971.08
634.45	40650.42
634.60	41123.21
634.75	41013.21
634.90	40774.47
635.05	40776.81
635.19	40938.31
635.34	41120.87
635.49	40776.81
635.64	40570.85
635.79	41001.50
635.94	40727.66
636.09	40570.85
636.24	41127.89
636.39	40620.00
636.53	40238.49
636.68	40320.41
636.83	40421.05
636.98	40912.56
637.13	40526.38
637.28	40552.12
637.43	40364.88
637.57	40718.30
637.72	40451.48
637.87	40903.20
638.02	40584.89
638.17	40208.06
638.32	40086.36
638.46	39985.71
638.61	39915.50
638.76	39632.29
638.91	40191.68
639.06	40172.96
639.20	40601.27
639.35	39945.92
639.50	40388.28
639.65	40266.58
639.80	40767.45
639.94	40346.15
640.09	40093.38
640.24	39735.27
640.39	39957.63
640.54	39770.38
640.68	40060.61
640.83	40081.67
640.98	39864.00
641.13	39651.02
641.27	40016.14
641.42	39732.93
641.57	39749.32
641.72	39775.06
641.86	39559.73
642.01	39440.37
642.16	39508.24
642.31	38859.91
642.45	39997.41
642.60	39159.50
642.75	39590.16
642.90	39676.76
643.04	39281.21
643.19	39459.09
643.34	39643.99
643.48	39342.06
643.63	39180.57
643.78	39161.84
643.93	38911.41
644.07	38789.70
644.22	38878.64
644.37	38955.88
644.51	39295.25
644.66	39150.14
644.81	39515.26
644.95	39346.75
645.10	39517.60
645.25	39096.31
645.39	39313.98
645.54	39524.63
645.69	39545.69
645.83	39086.95
645.98	38419.89
646.13	39379.51
646.27	39117.37
646.42	38827.15
646.57	39086.95
646.71	38918.43
646.86	39297.59
647.00	39056.52
647.15	39196.95
647.30	38934.81
647.44	38827.15
647.59	39030.77
647.74	38429.26
647.88	38469.04
648.03	38321.59
648.17	38684.37
648.32	38813.10
648.47	38422.23
648.61	38394.15
648.76	38689.06
648.90	38314.57
649.05	38614.16
649.20	38422.23
649.34	38707.78
649.49	38347.34
649.63	38469.04
649.78	37883.91
649.92	38410.53
650.07	38099.24
650.21	37933.06
650.36	38249.03
650.51	38473.73
650.65	38356.70
650.80	38775.66
650.94	38319.25
651.09	38342.66
651.23	38263.08
651.38	38117.96
651.52	38213.93
651.67	38305.21
651.81	38071.15
651.96	38267.76
652.10	38188.18
652.25	37603.05
652.39	37567.94
652.54	37940.08
652.68	38377.76
652.83	38185.84
652.97	37787.95
653.12	37680.28
653.26	38054.77
653.41	38073.49
653.55	37542.19
653.70	37593.68
653.84	37940.08
653.99	37851.14
654.13	37532.83
654.27	37668.58
654.42	37607.73
654.56	37574.96
654.71	37724.75
654.85	37699.01
655.00	37448.57
655.14	37411.12
655.29	36994.51
655.43	36938.33
655.57	36903.23
655.72	37221.54
655.86	36772.16
656.01	37106.85
656.15	36994.51
656.30	37275.37
656.44	37301.12
656.58	37287.07
656.73	36795.56
656.87	36818.97
657.01	36737.05
657.16	37153.66
657.30	36875.14
657.45	36821.31
657.59	36833.01
657.73	37137.28
657.88	36835.35
658.02	36863.44
658.16	37050.68
658.31	36851.73
658.45	37088.13
658.60	36559.17
658.74	36737.05
658.88	36701.94
659.03	36601.30
659.17	36823.65
659.31	36477.25
659.46	36032.55
659.60	36240.86
659.74	36641.09
659.89	35927.22
660.03	36027.87
660.17	36376.61
660.32	36467.89
660.46	36615.34
660.60	36479.59
660.74	36329.80
660.89	35948.29
661.03	35800.83
661.17	36222.13
661.32	35351.45
661.46	35950.63
661.60	35782.11
661.74	35646.36
661.89	35604.23
662.03	35679.13
662.17	35662.74
662.31	35894.46
662.46	35606.57
662.60	35405.28
662.74	35398.26
662.88	35639.34
663.03	35281.24
663.17	35314.00
663.31	35082.29
663.45	35515.29
663.60	35159.53
663.74	34848.24
663.88	35072.93
664.02	34902.07
664.17	35051.86
664.31	34773.34
664.45	35044.84
664.59	35360.81
664.73	34471.41
664.88	34902.07
665.02	34515.88
665.16	34679.72
665.30	34778.02
665.44	34677.38
665.59	34330.98
665.73	33979.90
665.87	33958.83
666.01	34354.38
666.15	34270.12
666.29	34553.33
666.44	34630.57
666.58	34160.12
666.72	34281.83
666.86	34204.59
667.00	33963.51
667.14	33996.28
667.28	33886.28
667.43	33773.93
667.57	34108.63
667.71	33397.10
667.85	33919.04
667.99	33649.88
668.13	33544.56
668.27	33617.11
668.41	33467.32
668.56	33078.79
668.70	33713.08
668.84	33652.22
668.98	33336.25
669.12	33291.78
669.26	33193.48
669.40	33163.05
669.54	32978.15
669.68	33010.92
669.82	33277.74
669.96	32851.76
670.10	32751.12
670.25	32978.15
670.39	32762.82
670.53	32807.29
670.67	32767.50
670.81	32421.10
670.95	32383.65
671.09	32802.61
671.23	32865.80
671.37	32676.22
671.51	32659.84
671.65	32301.73
671.79	32376.63
671.93	32123.85
672.07	32531.11
672.21	31700.22
672.35	32041.93
672.49	31718.94
672.63	31899.16
672.77	31592.55
672.91	31545.74
673.05	31585.53
673.19	31356.16
673.33	31681.49
673.47	31611.28
673.61	31323.39
673.75	30967.63
673.89	31379.56
674.03	31014.44
674.17	31285.94
674.31	31267.22
674.45	30881.03
674.59	31119.76
674.73	31185.30
674.87	30932.52
675.01	30841.24
675.15	30754.64
675.29	30815.49
675.43	30581.44
675.56	30991.03
675.70	30132.06
675.84	30197.59
675.98	29532.88
676.12	29975.24
676.26	30253.76
676.40	29340.96
676.54	29764.59
676.68	29865.24
676.82	29659.27
676.96	29242.65
677.10	29336.27
677.23	29544.58
677.37	28952.43
677.51	29741.19
677.65	28891.57
677.79	29055.41
677.93	28875.19
678.07	28779.23
678.21	28512.41
678.34	28985.19
678.48	28896.25
678.62	28514.75
678.76	28542.83
678.90	28643.48
679.04	28517.09
679.18	28393.04
679.31	28011.53
679.45	28016.21
679.59	28180.05
679.73	27782.16
679.87	28088.77
680.00	27978.76
680.14	27782.16
680.28	27421.72
680.42	27108.08
680.56	27529.38
680.70	27358.52
680.83	27353.84
680.97	27136.17
681.11	27180.64
681.25	26710.19
681.39	26703.17
681.52	26944.25
681.66	26824.88
681.80	26808.50
681.94	26331.03
682.07	26302.94
682.21	26515.93
682.35	26361.45
682.49	26345.07
682.62	26197.62
682.76	26022.08
682.90	26059.52
683.04	25666.31
683.17	25968.24
683.31	25923.77
683.45	25979.95
683.59	25654.61
683.72	25083.52
683.86	25064.80
684.00	25127.99
684.13	25500.14
684.27	25350.34
684.41	25062.46
684.55	25116.29
684.68	24952.45
684.82	24973.52
684.96	24980.54
685.09	24769.89
685.23	24411.79
685.37	24390.72
685.50	24547.54
685.64	24767.55
685.78	24503.07
685.91	24357.96
686.05	24159.01
686.19	24088.79
686.32	24023.26
686.46	23639.41
686.60	23323.44
686.73	23496.64
686.87	23644.09
687.01	23414.72
687.14	23152.58
687.28	23096.41
687.42	22965.34
687.55	22827.24
687.69	23119.81
687.82	22984.06
687.96	23035.55
688.10	22775.75
688.23	22202.32
688.37	22258.49
688.50	22490.21
688.64	22403.61
688.78	22281.90
688.91	21979.97
689.05	22258.49
689.18	21984.65
689.32	21825.50
689.46	21986.99
689.59	21832.52
689.73	21881.67
689.86	21757.62
690.00	21664.00
690.13	21750.60
690.27	21404.20
690.41	21497.82
690.54	20966.52
690.68	21156.10
690.81	21177.17
690.95	20776.94
691.08	21034.39
691.22	21034.39
691.35	20844.81
691.49	20879.92
691.62	20814.38
691.76	20961.84
691.89	20793.32
692.03	20390.75
692.16	20287.76
692.30	20294.79
692.43	20245.63
692.57	20030.30
692.70	19941.36
692.84	20191.80
692.97	19817.32
693.11	19871.15
693.24	19836.04
693.38	19475.60
693.51	19489.64
693.65	19438.15
693.78	19534.11
693.92	19370.27
694.05	19241.54
694.19	19112.81
694.32	19293.04
694.45	19012.17
694.59	18902.17
694.72	19206.44
694.86	18906.85
694.99	18895.14
695.13	18464.49
695.26	18822.59
695.39	18436.40
695.53	18574.49
695.66	18246.82
695.80	18579.17
695.93	18157.88
696.07	18324.05
696.20	17991.70
696.33	18155.54
696.47	18122.77
696.60	17958.93
696.73	17706.15
696.87	17593.81
697.00	17593.81
697.14	17514.23
697.27	17369.12
697.40	17451.03
697.54	17617.21
697.67	17238.05
697.80	17268.47
697.94	16886.97
698.07	17387.84
698.21	17121.02
698.34	16926.75
698.47	16767.60
698.61	16678.66
698.74	16671.64
698.87	16622.48
699.01	16339.28
699.14	16182.46
699.27	16386.09
699.40	16360.34
699.54	16205.87
699.67	16009.26
699.80	16027.99
699.94	16053.73
700.07	16011.60
700.20	15597.33
700.34	15768.19
700.47	15737.76
700.60	15854.79
700.73	15641.80
700.87	15775.21
701.00	15506.05
701.13	15288.38
701.26	15442.85
701.40	15548.18
701.53	15300.08
701.66	15220.50
701.79	15145.61
701.93	15077.73
702.06	14717.29
702.19	14913.89
702.32	14949.00
702.46	14862.40
702.59	14977.09
702.72	14520.68
702.85	14691.54
702.99	14560.47
703.12	14445.79
703.25	14588.56
703.38	14740.69
703.51	14324.08
703.65	13991.72
703.78	14464.51
703.91	14036.19
704.04	14209.39
704.17	13958.96
704.31	13994.06
704.44	13788.10
704.57	13348.08
704.70	13624.26
704.83	13523.62
704.96	13799.80
705.10	13605.53
705.23	13661.71
>>>>>End Processed Spectral Data<<<<<
