SpectraSuite Data File
++++++++++++++++++++++++++++++++++++
Date: Fri Oct 25 11:34:32 EDT 2013
User: price-jones
Dark Spectrum Present: No
Reference Spectrum Present: No
Number of Sampled Component Spectra: 1
Spectrometers: USB2+H05261
Integration Time (usec): 100000 (USB2+H05261)
Spectra Averaged: 1 (USB2+H05261)
Boxcar Smoothing: 0 (USB2+H05261)
Correct for Electrical Dark: No (USB2+H05261)
Strobe/Lamp Enabled: No (USB2+H05261)
Correct for Detector Non-linearity: No (USB2+H05261)
Correct for Stray Light: No (USB2+H05261)
Number of Pixels in Processed Spectrum: 2048
>>>>>Begin Processed Spectral Data<<<<<
365.73	322.99
365.92	322.99
366.12	322.99
366.32	168.52
366.52	170.86
366.72	201.29
366.91	142.77
367.11	203.63
367.31	159.16
367.51	147.45
367.70	161.50
367.90	198.95
368.10	175.54
368.30	177.88
368.49	217.67
368.69	241.08
368.89	243.42
369.09	208.31
369.28	198.95
369.48	191.92
369.68	229.37
369.87	290.23
370.07	220.01
370.27	315.97
370.47	322.99
370.66	500.87
370.86	493.85
371.06	503.22
371.25	475.13
371.45	547.69
371.65	547.69
371.84	566.41
372.04	557.05
372.24	559.39
372.44	571.09
372.63	615.56
372.83	620.24
373.03	620.24
373.22	610.88
373.42	578.11
373.62	657.69
373.81	650.67
374.01	641.31
374.21	662.37
374.40	634.29
374.60	603.86
374.79	627.26
374.99	629.60
375.19	692.80
375.38	596.84
375.58	732.59
375.78	706.84
375.97	704.50
376.17	706.84
376.37	709.18
376.56	671.73
376.76	601.52
376.95	657.69
377.15	713.86
377.35	702.16
377.54	545.34
377.74	695.14
377.93	669.39
378.13	739.61
378.33	699.82
378.52	587.47
378.72	809.83
378.91	685.78
379.11	655.35
379.31	650.67
379.50	662.37
379.70	638.97
379.89	709.18
380.09	657.69
380.28	739.61
380.48	683.44
380.68	770.04
380.87	702.16
381.07	730.25
381.26	793.44
381.46	835.57
381.65	730.25
381.85	730.25
382.04	727.91
382.24	781.74
382.43	741.95
382.63	732.59
382.83	734.93
383.02	746.63
383.22	819.19
383.41	819.19
383.61	772.38
383.80	873.02
384.00	830.89
384.19	727.91
384.39	889.40
384.58	763.01
384.78	734.93
384.97	809.83
385.17	816.85
385.36	821.53
385.56	882.38
385.75	858.98
385.95	882.38
386.14	828.55
386.34	774.72
386.53	814.51
386.72	954.94
386.92	856.64
387.11	837.91
387.31	870.68
387.50	898.77
387.70	896.43
387.89	891.74
388.09	896.43
388.28	884.72
388.48	887.06
388.67	863.66
388.86	945.58
389.06	968.98
389.25	915.15
389.45	976.00
389.64	873.02
389.84	851.96
390.03	943.24
390.22	931.53
390.42	943.24
390.61	875.36
390.81	966.64
391.00	957.28
391.19	1022.81
391.39	945.58
391.58	997.07
391.78	938.55
391.97	964.30
392.16	961.96
392.36	1027.50
392.55	1064.94
392.75	1081.33
392.94	1064.94
393.13	1083.67
393.33	1095.37
393.52	952.60
393.71	1064.94
393.91	1078.99
394.10	1151.54
394.29	1046.22
394.49	1050.90
394.68	1036.86
394.88	1097.71
395.07	1086.01
395.26	1142.18
395.46	1062.60
395.65	1132.82
395.84	1214.74
396.04	1118.78
396.23	1158.57
396.42	1146.86
396.62	1156.22
396.81	1228.78
397.00	1160.91
397.19	1217.08
397.39	1144.52
397.58	1207.72
397.77	1153.88
397.97	1167.93
398.16	1242.82
398.35	1210.06
398.55	1123.46
398.74	1261.55
398.93	1235.80
399.12	1247.51
399.32	1235.80
399.51	1224.10
399.70	1324.74
399.90	1313.04
400.09	1249.85
400.28	1320.06
400.47	1343.47
400.67	1383.26
400.86	1369.21
401.05	1394.96
401.24	1322.40
401.44	1460.49
401.63	1448.79
401.82	1364.53
402.01	1378.58
402.21	1446.45
402.40	1401.98
402.59	1441.77
402.78	1488.58
402.97	1462.83
403.17	1399.64
403.36	1504.96
403.55	1540.07
403.74	1565.82
403.93	1533.05
404.13	1572.84
404.32	1540.07
404.51	1488.58
404.70	1598.59
404.89	1514.33
405.09	1629.01
405.28	1647.74
405.47	1720.29
405.66	1640.72
405.85	1533.05
406.05	1643.06
406.24	1710.93
406.43	1776.47
406.62	1689.87
406.81	1755.40
407.00	1600.93
407.20	1629.01
407.39	1844.34
407.58	1837.32
407.77	1771.79
407.96	1778.81
408.15	1774.13
408.34	1839.66
408.54	1921.58
408.73	1792.85
408.92	1804.55
409.11	1952.01
409.30	1907.54
409.49	1886.47
409.68	1912.22
409.87	1900.52
410.07	2008.18
410.26	1961.37
410.45	2019.88
410.64	1980.09
410.83	2022.22
411.02	2008.18
411.21	2078.40
411.40	2050.31
411.59	2176.70
411.78	2193.08
411.98	2008.18
412.17	2120.53
412.36	2193.08
412.55	2193.08
412.74	2200.10
412.93	2265.64
413.12	2242.23
413.31	2464.58
413.50	2232.87
413.69	2377.98
413.88	2459.90
414.07	2415.43
414.26	2317.13
414.45	2480.97
414.64	2431.82
414.83	2518.42
415.02	2513.74
415.22	2504.37
415.41	2614.38
415.60	2588.63
415.79	2576.93
415.98	2541.82
416.17	2572.25
416.36	2572.25
416.55	2719.70
416.74	2771.19
416.93	2670.55
417.12	2705.66
417.31	2693.96
417.50	2722.04
417.69	2696.30
417.88	2726.72
418.07	2757.15
418.26	2860.13
418.45	2911.63
418.64	3035.67
418.83	2864.82
419.02	2932.69
419.21	3000.57
419.39	2953.76
419.58	2958.44
419.77	2939.71
419.96	3040.36
420.15	2911.63
420.34	2984.18
420.53	2998.23
420.72	3033.33
420.91	3133.98
421.10	3141.00
421.29	3197.17
421.48	3089.51
421.67	3082.49
421.86	3105.89
422.05	3246.32
422.24	3052.06
422.43	3204.19
422.61	3283.77
422.80	3197.17
422.99	3307.18
423.18	3227.60
423.37	3243.98
423.56	3232.28
423.75	3405.48
423.94	3288.45
424.13	2984.18
424.32	3218.24
424.50	3262.71
424.69	3302.50
424.88	3304.84
425.07	3232.28
425.26	3330.58
425.45	3353.99
425.64	3260.37
425.83	3337.60
426.01	3365.69
426.20	3330.58
426.39	3346.97
426.58	3344.63
426.77	3382.07
426.96	3506.12
427.15	3452.29
427.33	3396.12
427.52	3365.69
427.71	3506.12
427.90	3559.95
428.09	3454.63
428.28	3499.10
428.46	3363.35
428.65	3571.66
428.84	3571.66
429.03	3754.22
429.22	3499.10
429.40	3630.17
429.59	3686.34
429.78	3590.38
429.97	3449.95
430.16	3569.32
430.34	3646.55
430.53	3726.13
430.72	3794.01
430.91	3616.13
431.10	3719.11
431.28	3873.59
431.47	3761.24
431.66	3786.99
431.85	3716.77
432.03	3815.07
432.22	3899.33
432.41	3875.93
432.60	3843.16
432.79	3962.53
432.97	3911.04
433.16	3955.51
433.35	4063.17
433.54	3981.25
433.72	3894.65
433.91	3960.19
434.10	4058.49
434.28	4053.81
434.47	4032.74
434.66	4117.00
434.85	4152.11
435.03	4161.47
435.22	4086.58
435.41	4191.90
435.59	4187.22
435.78	4259.78
435.97	4224.67
436.16	4292.54
436.34	4049.13
436.53	4231.69
436.72	4320.63
436.90	4269.14
437.09	4353.40
437.28	4234.03
437.46	4318.29
437.65	4393.19
437.84	4374.46
438.02	4255.09
438.21	4428.29
438.40	4390.84
438.58	4519.57
438.77	4496.17
438.96	4617.88
439.14	4636.60
439.33	4634.26
439.52	4741.93
439.70	4891.72
439.89	4697.46
440.08	4784.06
440.26	4830.87
440.45	4835.55
440.63	4828.53
440.82	4999.38
441.01	4842.57
441.19	4931.51
441.38	4849.59
441.57	4943.21
441.75	5081.30
441.94	5322.38
442.12	5135.14
442.31	5130.45
442.50	5181.95
442.68	5334.08
442.87	5219.39
443.05	5291.95
443.24	5378.55
443.43	5376.21
443.61	5263.86
443.80	5460.47
443.98	5252.16
444.17	5167.90
444.35	5437.06
444.54	5305.99
444.73	5469.83
444.91	5488.56
445.10	5399.62
445.28	5364.51
445.47	5350.46
445.65	5486.22
445.84	5416.00
446.02	5504.94
446.21	5277.91
446.39	5387.91
446.58	5462.81
446.77	5589.20
446.95	5273.23
447.14	5390.25
447.32	5469.83
447.51	5469.83
447.69	5462.81
447.88	5434.72
448.06	5493.24
448.25	5593.88
448.43	5523.66
448.62	5441.75
448.80	5535.37
448.99	5572.82
449.17	5799.85
449.36	5607.92
449.54	5804.53
449.73	5937.94
449.91	5785.80
450.10	5849.00
450.28	5785.80
450.46	5966.03
450.65	5886.45
450.83	5975.39
451.02	5834.96
451.20	5755.38
451.39	5930.92
451.57	5872.40
451.76	5813.89
451.94	6012.84
452.13	6064.33
452.31	6033.90
452.49	5996.45
452.68	6003.47
452.86	6078.37
453.05	5998.79
453.23	5996.45
453.42	6094.76
453.60	5987.09
453.78	6197.74
453.97	6127.52
454.15	6225.82
454.34	6115.82
454.52	6141.57
454.70	6256.25
454.89	6174.33
455.07	6242.21
455.26	6289.02
455.44	6394.34
455.62	6221.14
455.81	6406.05
455.99	6572.22
456.17	6394.34
456.36	6527.75
456.54	6544.14
456.73	6623.72
456.91	6827.34
457.09	6733.72
457.28	6771.17
457.46	6574.56
457.64	6740.74
457.83	6707.98
458.01	6471.58
458.19	6768.83
458.38	6815.64
458.56	6822.66
458.74	6932.67
458.93	6794.58
459.11	6808.62
459.29	6771.17
459.48	6843.73
459.66	6876.49
459.84	7045.01
460.03	7178.42
460.21	7164.38
460.39	7117.57
460.57	7026.29
460.76	7119.91
460.94	7152.68
461.12	7232.26
461.31	7255.66
461.49	7037.99
461.67	7232.26
461.85	7485.03
462.04	7215.87
462.22	7812.71
462.40	7307.15
462.59	7328.22
462.77	7318.86
462.95	7456.95
463.13	7290.77
463.32	7485.03
463.50	7634.83
463.68	7475.67
463.86	7611.42
464.05	7332.90
464.23	7325.88
464.41	7779.94
464.59	7531.84
464.78	7634.83
464.96	7728.45
465.14	7606.74
465.32	7658.23
465.50	7632.49
465.69	7779.94
465.87	7822.07
466.05	7789.30
466.23	7880.58
466.41	7882.92
466.60	7756.54
466.78	7798.66
466.96	7929.74
467.14	7847.82
467.32	7812.71
467.51	8131.02
467.69	7908.67
467.87	8063.15
468.05	7922.71
468.23	8121.66
468.41	8013.99
468.60	8119.32
468.78	8107.62
468.96	8133.36
469.14	7992.93
469.32	8224.64
469.50	8093.57
469.69	8425.93
469.87	8306.56
470.05	8252.73
470.23	8400.18
470.41	8454.02
470.59	8468.06
470.77	8383.80
470.95	8439.97
471.14	8564.02
471.32	8198.90
471.50	8884.67
471.68	8585.08
471.86	8643.60
472.04	8648.28
472.22	8936.17
472.40	8582.74
472.58	8674.03
472.77	8816.80
472.95	8968.93
473.13	9266.18
473.31	9057.87
473.49	9156.18
473.67	9097.66
473.85	9205.33
474.03	9322.35
474.21	9390.23
474.39	9364.48
474.57	9294.27
474.75	9586.83
474.93	9420.66
475.12	9345.76
475.30	9612.58
475.48	9254.48
475.66	9516.62
475.84	9617.26
476.02	9809.19
476.20	9626.62
476.38	9963.66
476.56	10026.86
476.74	9837.27
476.92	10251.55
477.10	10125.16
477.28	10186.01
477.46	10249.21
477.64	9940.26
477.82	10562.84
478.00	10579.22
478.18	10560.50
478.36	10691.57
478.54	10862.43
478.72	10949.03
478.90	11089.46
479.08	11007.54
479.26	10995.84
479.44	11131.59
479.62	11138.61
479.80	11410.11
479.98	11630.12
480.16	11644.17
480.34	11538.84
480.52	11840.77
480.70	11681.61
480.88	11651.19
481.06	11655.87
481.24	11735.45
481.41	12109.93
481.59	12259.73
481.77	12276.11
481.95	12423.56
482.13	12404.84
482.31	12308.88
482.49	12690.38
482.67	12638.89
482.85	12828.48
483.03	12961.89
483.21	12910.40
483.39	13170.19
483.57	13167.85
483.74	13390.20
483.92	13577.45
484.10	13331.69
484.28	13462.76
484.46	14134.50
484.64	13963.64
484.82	13717.88
485.00	13963.64
485.18	14427.06
485.35	14406.00
485.53	14401.32
485.71	14387.27
485.89	14721.97
486.07	14586.22
486.25	14684.52
486.43	14775.80
486.61	15037.94
486.78	15023.90
486.96	15316.47
487.14	15187.74
487.32	15346.89
487.50	15522.43
487.68	15358.60
487.85	15971.82
488.03	16002.24
488.21	16161.40
488.39	16142.67
488.57	16578.01
488.75	16496.10
488.92	16594.40
489.10	16484.39
489.28	16769.94
489.46	16851.86
489.64	16802.71
489.81	17181.87
489.99	17326.99
490.17	17390.18
490.35	17624.23
490.53	17680.41
490.70	17926.16
490.88	17556.36
491.06	18183.62
491.24	18108.72
491.41	18401.29
491.59	18085.32
491.77	18455.12
491.95	18534.70
492.13	18614.28
492.30	18822.59
492.48	18970.04
492.66	18827.27
492.84	18906.85
493.01	19241.54
493.19	19222.82
493.37	19653.48
493.54	19405.38
493.72	19697.95
493.90	19484.96
494.08	19887.53
494.25	20081.80
494.43	19859.45
494.61	19955.41
494.79	20395.43
494.96	20189.46
495.14	20395.43
495.32	20723.10
495.49	20730.12
495.67	20872.90
495.85	21008.65
496.02	20821.41
496.20	21366.75
496.38	21177.17
496.55	21226.32
496.73	21825.50
496.91	21692.08
497.09	21888.69
497.26	21708.47
497.44	21860.60
497.62	21961.25
497.79	22335.73
497.97	22462.12
498.14	22302.96
498.32	22497.23
498.50	22661.07
498.67	22766.39
498.85	22560.42
499.03	22553.40
499.20	23105.77
499.38	23126.83
499.56	22920.87
499.73	23283.65
499.91	22986.40
500.08	23468.55
500.26	23262.58
500.44	23388.97
500.61	23660.48
500.79	23625.37
500.97	24114.54
501.14	24154.33
501.32	24280.72
501.49	24032.62
501.67	24170.71
501.84	24542.86
502.02	24350.93
502.20	24123.90
502.37	24376.68
502.55	24545.20
502.72	25076.50
502.90	24395.40
503.07	24610.73
503.25	24999.26
503.43	24821.38
503.60	24952.45
503.78	25160.76
503.95	25067.14
504.13	25301.19
504.30	25263.74
504.48	25191.19
504.65	25757.60
504.83	25612.48
505.01	25942.50
505.18	25771.64
505.36	26157.83
505.53	26092.29
505.71	26036.12
505.88	25862.92
506.06	25961.22
506.23	26347.41
506.41	26087.61
506.58	26307.62
506.76	26265.49
506.93	26796.79
507.11	26483.16
507.28	26637.64
507.46	26775.73
507.63	26969.99
507.81	27274.26
507.98	26733.60
508.16	27208.73
508.33	27494.27
508.50	27367.88
508.68	27658.11
508.85	27805.56
509.03	27463.85
509.20	27899.19
509.38	27866.42
509.55	27864.08
509.73	27817.27
509.90	27960.04
510.08	28210.48
510.25	27950.68
510.42	27967.06
510.60	28278.35
510.77	28400.06
510.95	28926.68
511.12	28147.28
511.30	28521.77
511.47	28566.24
511.64	28797.95
511.82	28510.07
511.99	28603.69
512.17	29376.06
512.34	28811.99
512.51	29486.07
512.69	29310.53
512.86	28975.83
513.04	29429.90
513.21	29362.02
513.38	29614.80
513.56	29479.05
513.73	29635.86
513.90	29797.36
514.08	29961.20
514.25	29914.39
514.43	30043.12
514.60	29790.34
514.77	29935.45
514.95	30242.06
515.12	30068.86
515.29	29895.66
515.47	30682.08
515.64	30249.08
515.81	30326.32
515.99	30654.00
516.16	30614.21
516.33	30871.67
516.51	31009.76
516.68	30986.35
516.85	30675.06
517.03	31178.28
517.20	31299.98
517.37	31192.32
517.54	31042.53
517.72	31311.69
517.89	31377.22
518.06	31440.42
518.24	31428.71
518.41	31491.91
518.58	31775.11
518.75	31487.23
518.93	31529.36
519.10	31435.74
519.27	31700.22
519.45	32154.28
519.62	32290.03
519.79	31936.61
519.96	32126.19
520.14	32194.07
520.31	31864.05
520.48	32535.79
520.65	32168.32
520.83	32526.42
521.00	32685.58
521.17	32687.92
521.34	32762.82
521.52	32863.46
521.69	32907.93
521.86	33181.77
522.03	32882.19
522.20	33130.28
522.38	33464.98
522.55	33586.69
522.72	33345.61
522.89	32905.59
523.07	33706.05
523.24	33586.69
523.41	33907.34
523.58	33624.14
523.75	34019.69
523.92	33750.52
524.10	33890.96
524.27	33474.34
524.44	34099.26
524.61	33890.96
524.78	34099.26
524.96	34712.49
525.13	34429.28
525.30	34586.10
525.47	34389.49
525.64	34319.28
525.81	34389.49
525.98	34965.26
526.16	34726.53
526.33	35122.08
526.50	34550.99
526.67	34256.08
526.84	34742.91
527.01	35339.75
527.18	35065.91
527.36	35037.82
527.53	35026.12
527.70	35384.22
527.87	35761.05
528.04	34892.71
528.21	35526.99
528.38	35618.27
528.55	35604.23
528.72	35519.97
528.89	35524.65
529.07	35222.72
529.24	35360.81
529.41	35864.03
529.58	35557.42
529.75	35590.19
529.92	35887.43
530.09	35887.43
530.26	35697.85
530.43	36156.60
530.60	35524.65
530.77	35646.36
530.94	36002.12
531.11	35718.92
531.28	36346.18
531.46	36238.51
531.63	36687.90
531.80	36421.08
531.97	36102.76
532.14	36767.48
532.31	36568.53
532.48	36549.81
532.65	36884.50
532.82	36694.92
532.99	36957.06
533.16	37095.15
533.33	36933.65
533.50	37230.90
533.67	36847.05
533.84	36622.36
534.01	36809.61
534.18	37095.15
534.35	37132.60
534.52	37357.29
534.69	37675.60
534.86	37106.85
535.03	37235.58
535.20	37378.36
535.37	37773.91
535.54	37684.97
535.71	37563.26
535.88	37661.56
536.05	37670.92
536.22	37493.04
536.38	37589.00
536.55	37617.09
536.72	37720.07
536.89	37476.66
537.06	37694.33
537.23	38007.96
537.40	37429.85
537.57	37514.11
537.74	37879.23
537.91	38171.80
538.08	38162.43
538.25	37965.83
538.42	38309.89
538.59	38670.33
538.75	38185.84
538.92	38476.07
539.09	38735.87
539.26	38623.52
539.43	38614.16
539.60	38747.57
539.77	38354.36
539.94	38712.46
540.11	39115.03
540.28	38756.93
540.44	39318.66
540.61	38529.90
540.78	38691.40
540.95	39147.80
541.12	39035.45
541.29	38600.12
541.46	38703.10
541.62	38927.79
541.79	39496.54
541.96	39185.25
542.13	39601.86
542.30	38869.28
542.47	39316.32
542.63	39559.73
542.80	39608.89
542.97	40184.66
543.14	39903.79
543.31	40119.12
543.48	40034.86
543.64	40084.01
543.81	40264.24
543.98	40023.16
544.15	40383.60
544.32	40210.40
544.48	40671.49
544.65	40147.21
544.82	40568.51
544.99	40236.15
545.16	40374.24
545.32	40030.18
545.49	40842.35
545.66	40470.20
545.83	40526.38
546.00	40542.76
546.16	40648.08
546.33	40933.63
546.50	40561.48
546.67	40947.67
546.83	40414.03
547.00	40980.44
547.17	40762.77
547.34	40458.50
547.50	41308.11
547.67	41340.88
547.84	41324.50
548.00	40854.05
548.17	41141.94
548.34	40985.12
548.51	41041.29
548.67	41081.08
548.84	41439.18
549.01	40832.99
549.18	41148.96
549.34	41493.02
549.51	41610.04
549.68	41380.67
549.84	41340.88
550.01	41343.22
550.18	41179.39
550.34	41738.77
550.51	41511.74
550.68	41799.63
550.84	41404.08
551.01	42127.30
551.18	41476.63
551.34	42021.98
551.51	41986.87
551.68	41607.70
551.84	41380.67
552.01	41596.00
552.18	41844.10
552.34	41626.43
552.51	41703.67
552.68	41855.80
552.84	41752.82
553.01	42052.41
553.18	41778.56
553.34	42373.06
553.51	42169.43
553.67	42347.31
553.84	42494.77
554.01	42541.58
554.17	42415.19
554.34	42457.32
554.51	42422.21
554.67	42511.15
554.84	42649.24
555.00	42504.13
555.17	42604.77
555.33	42309.86
555.50	42574.34
555.67	42438.59
555.83	42419.87
556.00	42326.25
556.16	43161.82
556.33	42763.93
556.50	42761.59
556.66	42689.03
556.83	42981.60
556.99	43075.22
557.16	43061.18
557.32	43243.74
557.49	43147.78
557.65	43100.97
557.82	43166.50
557.98	42932.45
558.15	42714.78
558.32	43196.93
558.48	42927.77
558.65	43482.47
558.81	43208.63
558.98	43213.31
559.14	42674.99
559.31	43063.52
559.47	43679.08
559.64	43395.87
559.80	43075.22
559.97	43318.64
560.13	42976.92
560.30	43068.20
560.46	43702.48
560.63	43569.07
560.79	43634.61
560.96	43690.78
561.12	43697.80
561.29	43875.68
561.45	43456.73
561.61	43309.27
561.78	43969.30
561.94	43496.52
562.11	44034.84
562.27	42965.21
562.44	43557.37
562.60	43782.06
562.77	44041.86
562.93	43978.67
563.10	43758.66
563.26	43611.20
563.42	43613.54
563.59	43662.69
563.75	43826.53
563.92	43728.23
564.08	43718.87
564.24	43807.81
564.41	43459.07
564.57	44198.68
564.74	43995.05
564.90	44095.69
565.07	44044.20
565.23	43810.15
565.39	44041.86
565.56	44428.05
565.72	43938.88
565.88	44128.46
566.05	44023.14
566.21	44442.09
566.38	44304.00
566.54	44219.74
566.70	43812.49
566.87	44060.58
567.03	44140.16
567.19	44369.54
567.36	43796.10
567.52	43826.53
567.68	44797.85
567.85	44605.93
568.01	44306.34
568.17	44524.01
568.34	44575.50
568.50	44666.78
568.66	44603.59
568.83	44252.51
568.99	44053.56
569.15	44296.98
569.32	44311.02
569.48	44484.22
569.64	44893.82
569.81	44231.44
569.97	44580.18
570.13	44357.83
570.30	44182.29
570.46	44439.75
570.62	44479.54
570.78	44364.85
570.95	44545.08
571.11	44622.31
571.27	44346.13
571.43	44142.50
571.60	44772.11
571.76	44376.56
571.92	44882.11
572.09	44598.91
572.25	44215.06
572.41	44135.48
572.57	44765.09
572.74	44767.43
572.90	44392.94
573.06	44718.28
573.22	45177.02
573.38	44987.44
573.55	44713.59
573.71	45165.32
573.87	44861.05
574.03	44900.84
574.20	45230.85
574.36	44722.96
574.52	44889.13
574.68	45041.27
574.84	45116.17
575.01	44800.19
575.17	45020.20
575.33	45270.64
575.49	44793.17
575.65	44966.37
575.82	45254.26
575.98	44786.15
576.14	45158.30
576.30	45226.17
576.46	44673.81
576.62	45020.20
576.79	45020.20
576.95	44776.79
577.11	44868.07
577.27	44802.53
577.43	45216.81
577.59	45067.02
577.75	44617.63
577.92	44378.90
578.08	44659.76
578.24	44898.50
578.40	45275.32
578.56	44893.82
578.72	44678.49
578.88	44980.42
579.04	44875.09
579.21	44540.39
579.37	45158.30
579.53	45467.25
579.69	45251.92
579.85	44790.83
580.01	44793.17
580.17	45148.93
580.33	45146.59
580.49	44964.03
580.65	45368.94
580.82	45422.78
580.98	44919.56
581.14	44760.40
581.30	45244.90
581.46	45200.43
581.62	44811.90
581.78	44935.95
581.94	45422.78
582.10	45155.96
582.26	45322.13
582.42	45287.03
582.58	45174.68
582.74	45177.02
582.90	45186.38
583.06	45338.52
583.22	45235.53
583.38	45177.02
583.54	44907.86
583.70	45542.14
583.86	45408.73
584.02	45390.01
584.18	45537.46
584.34	45612.36
584.50	45483.63
584.66	45855.78
584.82	45083.40
584.98	45413.41
585.14	45478.95
585.30	45329.16
585.46	45352.56
585.62	44839.98
585.78	44926.58
585.94	44891.48
586.10	45242.56
586.26	45027.23
586.42	45041.27
586.58	45242.56
586.74	45326.81
586.90	45500.01
587.06	45158.30
587.22	45514.06
587.38	45207.45
587.54	45776.20
587.70	45996.21
587.86	45628.74
588.02	45485.97
588.18	45619.38
588.34	45392.35
588.49	45563.21
588.65	45226.17
588.81	45497.67
588.97	45647.47
589.13	45743.43
589.29	45581.93
589.45	45200.43
589.61	45319.79
589.77	45743.43
589.93	45165.32
590.08	45668.53
590.24	45734.07
590.40	45970.46
590.56	46253.67
590.72	45731.73
590.88	45366.60
591.04	45380.65
591.20	45944.72
591.35	45504.70
591.51	46080.47
591.67	45713.00
591.83	46220.90
591.99	45811.31
592.15	45729.39
592.31	45979.82
592.46	45359.58
592.62	45797.26
592.78	45876.84
592.94	46092.17
593.10	45982.16
593.26	45921.31
593.41	45954.08
593.57	45619.38
593.73	45801.94
593.89	46485.38
594.05	46031.32
594.20	45696.62
594.36	46237.28
594.52	46239.62
594.68	45818.33
594.84	45387.67
594.99	46115.58
595.15	46188.13
595.31	46075.79
595.47	46265.37
595.62	45993.87
595.78	45993.87
595.94	45846.41
596.10	46003.23
596.25	46071.10
596.41	45907.27
596.57	45818.33
596.73	45951.74
596.88	46417.50
597.04	45825.35
597.20	45846.41
597.36	45837.05
597.51	46019.61
597.67	45825.35
597.83	45921.31
597.99	46078.13
598.14	46045.36
598.30	46363.67
598.46	46057.06
598.61	46461.97
598.77	46052.38
598.93	46043.02
599.09	46162.39
599.24	46216.22
599.40	46021.95
599.56	46583.68
599.71	46213.88
599.87	46684.33
600.03	46464.32
600.18	46089.83
600.34	45996.21
600.50	46293.46
600.65	45940.04
600.81	46450.27
600.97	45986.85
601.12	46153.02
601.28	46073.45
601.44	46344.95
601.59	46417.50
601.75	45844.07
601.91	46234.94
602.06	46066.42
602.22	46375.37
602.37	46005.57
602.53	46167.07
602.69	46415.16
602.84	45947.06
603.00	45970.46
603.16	46342.61
603.31	46036.00
603.47	46576.66
603.62	46309.84
603.78	45909.61
603.94	46361.33
604.09	46082.81
604.25	46141.32
604.40	46089.83
604.56	46101.53
604.71	46340.27
604.87	46026.63
605.03	46101.53
605.18	46143.66
605.34	46356.65
605.49	45970.46
605.65	46326.22
605.80	45907.27
605.96	46014.93
606.12	46440.91
606.27	46019.61
606.43	45958.76
606.58	46220.90
606.74	45790.24
606.89	46162.39
607.05	46124.94
607.20	46251.33
607.36	46220.90
607.51	46050.04
607.67	46309.84
607.82	45764.49
607.98	46087.49
608.13	46064.08
608.29	46021.95
608.44	45956.42
608.60	46134.30
608.75	46115.58
608.91	46036.00
609.06	45890.88
609.22	46012.59
609.37	45954.08
609.53	45635.77
609.68	46223.24
609.84	45773.86
609.99	45771.52
610.15	45874.50
610.30	45982.16
610.46	45516.40
610.61	45624.06
610.76	46298.14
610.92	45731.73
611.07	45727.05
611.23	45263.62
611.38	45853.44
611.54	45916.63
611.69	45734.07
611.84	45998.55
612.00	45853.44
612.15	45155.96
612.31	45881.52
612.46	45443.84
612.62	45418.10
612.77	45511.72
612.92	45703.64
613.08	45469.59
613.23	45495.33
613.39	45446.18
613.54	45106.80
613.69	45581.93
613.85	45612.36
614.00	45509.38
614.15	45652.15
614.31	45570.23
614.46	45530.44
614.62	45045.95
614.77	45874.50
614.92	45734.07
615.08	45584.27
615.23	45769.18
615.38	45724.71
615.54	45516.40
615.69	45516.40
615.84	45600.66
616.00	45546.82
616.15	45446.18
616.30	45406.39
616.46	45399.37
616.61	45343.20
616.76	45165.32
616.92	45158.30
617.07	45008.50
617.22	45312.77
617.37	44828.28
617.53	45364.26
617.68	44982.76
617.83	45102.12
617.99	45537.46
618.14	45336.18
618.29	45017.86
618.45	45078.72
618.60	44940.63
618.75	44760.40
618.90	44795.51
619.06	45280.00
619.21	45055.31
619.36	45324.47
619.51	45205.11
619.67	44886.79
619.82	44666.78
619.97	45134.89
620.12	44692.53
620.28	44692.53
620.43	45191.06
620.58	44664.44
620.73	44755.72
620.89	44744.02
621.04	44917.22
621.19	44821.26
621.34	44690.19
621.49	44542.74
621.65	45059.99
621.80	45270.64
621.95	44804.88
622.10	44987.44
622.25	44477.20
622.41	44456.14
622.56	44580.18
622.71	44395.28
622.86	44694.87
623.01	44308.68
623.16	44425.71
623.32	44652.74
623.47	44296.98
623.62	44346.13
623.77	44133.14
623.92	44488.90
624.07	44322.72
624.23	44161.23
624.38	44987.44
624.53	44168.25
624.68	44385.92
624.83	43849.94
624.98	43896.75
625.13	43665.03
625.29	44020.80
625.44	44498.26
625.59	44076.97
625.74	43995.05
625.89	43990.37
626.04	43496.52
626.19	44140.16
626.34	43438.00
626.49	43854.62
626.65	43749.29
626.80	43854.62
626.95	43702.48
627.10	43306.93
627.25	44374.22
627.40	43969.30
627.55	43686.10
627.70	43831.21
627.85	43863.98
628.00	43931.86
628.15	43344.38
628.30	43225.01
628.45	43323.32
628.60	43145.44
628.76	43543.33
628.91	43660.35
629.06	42962.87
629.21	43292.89
629.36	43124.37
629.51	43339.70
629.66	43522.26
629.81	43545.67
629.96	43250.76
630.11	43271.82
630.26	43115.01
630.41	43466.09
630.56	43182.88
630.71	43304.59
630.86	43189.91
631.01	42866.91
631.16	43201.61
631.31	43182.88
631.46	42855.21
631.61	43445.02
631.76	43150.12
631.91	43447.36
632.06	43206.29
632.21	42965.21
632.36	43229.69
632.51	43201.61
632.66	42749.88
632.81	43260.12
632.96	43000.32
633.10	42850.53
633.25	42852.87
633.40	42684.35
633.55	42618.81
633.70	42979.26
633.85	42536.90
634.00	42440.93
634.15	42813.08
634.30	42759.25
634.45	42876.27
634.60	42731.16
634.75	42859.89
634.90	42834.14
635.05	42979.26
635.19	42347.31
635.34	42712.44
635.49	42202.20
635.64	42270.08
635.79	42564.98
635.94	42473.70
636.09	42710.10
636.24	42583.71
636.39	42340.29
636.53	42246.67
636.68	42176.45
636.83	41698.98
636.98	42213.90
637.13	42005.59
637.28	42307.52
637.43	41879.21
637.57	42330.93
637.72	42057.09
637.87	42024.32
638.02	42101.56
638.17	42209.22
638.32	41989.21
638.46	41851.12
638.61	42202.20
638.76	41860.48
638.91	41762.18
639.06	41745.80
639.20	41411.10
639.35	42061.77
639.50	41638.13
639.65	41626.43
639.80	41951.76
639.94	41514.08
640.09	42010.28
640.24	41577.28
640.39	41680.26
640.54	40945.33
640.68	41717.71
640.83	41565.57
640.98	41312.80
641.13	41640.47
641.27	41776.22
641.42	41701.32
641.57	41504.72
641.72	41759.84
641.86	41130.23
642.01	40760.43
642.16	40823.62
642.31	40793.20
642.45	41357.27
642.60	41034.27
642.75	41284.71
642.90	41188.75
643.04	41118.53
643.19	40821.28
643.34	41298.75
643.48	40458.50
643.63	40367.22
643.78	41258.96
643.93	41546.85
644.07	41244.92
644.22	40959.38
644.37	40734.68
644.51	41261.30
644.66	41368.97
644.81	40903.20
644.95	40863.41
645.10	40800.22
645.25	40481.91
645.39	40910.22
645.54	40678.51
645.69	40233.81
645.83	40428.07
645.98	40404.67
646.13	40659.79
646.27	40879.80
646.42	40561.48
646.57	40877.46
646.71	40751.07
646.86	40509.99
647.00	40620.00
647.15	40383.60
647.30	40945.33
647.44	40367.22
647.59	40404.67
647.74	40264.24
647.88	41050.66
648.03	40694.89
648.17	40835.33
648.32	40566.16
648.47	40767.45
648.61	40175.30
648.76	39758.68
648.90	40058.27
649.05	39826.56
649.20	40488.93
649.34	40179.98
649.49	40341.47
649.63	40435.10
649.78	40465.52
649.92	40289.98
650.07	40863.41
650.21	40409.35
650.36	40208.06
650.51	40240.83
650.65	40636.38
650.80	40002.10
650.94	40163.59
651.09	39882.73
651.23	39735.27
651.38	39512.92
651.52	39950.60
651.67	39997.41
651.81	39992.73
651.96	39852.30
652.10	39477.82
652.25	39646.33
652.39	39590.16
652.54	39618.25
652.68	39569.10
652.83	39517.60
652.97	39896.77
653.12	39868.69
653.26	39262.49
653.41	39342.06
653.55	39742.30
653.70	39496.54
653.84	39761.02
653.99	39552.71
654.13	39475.48
654.27	39367.81
654.42	39203.97
654.56	38780.34
654.71	39117.37
654.85	39683.78
655.00	39445.05
655.14	39629.95
655.29	39372.49
655.43	39445.05
655.57	38834.17
655.72	39079.92
655.86	39269.51
656.01	39180.57
656.15	39189.93
656.30	38869.28
656.44	39545.69
656.58	39239.08
656.73	39016.73
656.87	38698.42
657.01	38843.53
657.16	39236.74
657.30	38909.07
657.45	38637.56
657.59	38897.36
657.73	38616.50
657.88	39098.65
658.02	38738.21
658.16	38567.35
658.31	38689.06
658.45	38497.13
658.60	38705.44
658.74	38803.74
658.88	38871.62
659.03	38440.96
659.17	38773.31
659.31	38242.01
659.46	38396.49
659.60	38279.46
659.74	38232.65
659.89	37734.12
660.03	37553.90
660.17	38312.23
660.32	37989.24
660.46	37837.10
660.60	37984.55
660.74	37860.51
660.89	37785.61
661.03	37471.98
661.17	37528.15
661.32	37942.42
661.46	37457.93
661.60	37603.05
661.74	37764.54
661.89	37771.57
662.03	37947.11
662.17	37139.62
662.31	37635.81
662.46	37865.19
662.60	37076.43
662.74	37352.61
662.88	36797.90
663.03	36971.10
663.17	36851.73
663.31	36598.96
663.45	37137.28
663.60	37017.91
663.74	37184.09
663.88	37235.58
664.02	36889.18
664.17	36781.52
664.31	36833.01
664.45	36769.82
664.59	37287.07
664.73	36631.72
664.88	36704.28
665.02	36044.25
665.16	36566.19
665.30	36318.09
665.44	36737.05
665.59	36037.23
665.73	36084.04
665.87	35798.49
666.01	35833.60
666.15	35838.28
666.29	36205.75
666.44	36107.44
666.58	36009.14
666.72	35742.32
666.86	35690.83
667.00	36030.21
667.14	35306.98
667.28	35686.15
667.43	35700.19
667.57	35983.40
667.71	35613.59
667.85	35803.17
667.99	35498.91
668.13	35164.21
668.27	35234.42
668.41	34817.81
668.56	35035.48
668.70	35129.10
668.84	34888.03
668.98	34590.78
669.12	34848.24
669.26	34918.45
669.40	34883.34
669.54	34604.82
669.68	34595.46
669.82	34658.65
669.96	34183.52
670.10	34052.45
670.25	34279.49
670.39	34499.50
670.53	34483.11
670.67	34239.70
670.81	34775.68
670.95	34286.51
671.09	33799.68
671.23	33916.70
671.37	34164.80
671.51	33802.02
671.65	33670.95
671.79	33357.32
671.93	33961.17
672.07	34007.98
672.21	33638.18
672.35	33486.04
672.49	33202.84
672.63	33144.33
672.77	33509.45
672.91	33130.28
673.05	33383.06
673.19	32830.69
673.33	33064.75
673.47	32687.92
673.61	32802.61
673.75	32278.33
673.89	32376.63
674.03	32018.53
674.17	32027.89
674.31	32198.75
674.45	32224.50
674.59	32086.40
674.73	32055.98
674.87	31606.59
675.01	31955.33
675.15	31964.70
675.29	31707.24
675.43	31761.07
675.56	32168.32
675.70	31611.28
675.84	31414.67
675.98	30604.84
676.12	31328.07
676.26	31105.72
676.40	31096.36
676.54	31105.72
676.68	30913.80
676.82	30548.67
676.96	31112.74
677.10	30817.83
677.23	30689.10
677.37	30752.30
677.51	30632.93
677.65	30476.12
677.79	30347.39
677.93	30150.78
678.07	30373.13
678.21	29947.15
678.34	29776.30
678.48	30174.19
678.62	29535.22
678.76	29092.86
678.90	29514.16
679.04	29591.39
679.18	29778.64
679.31	29048.39
679.45	29167.76
679.59	29069.45
679.73	29109.24
679.87	29102.22
680.00	28772.21
680.14	28966.47
680.28	28819.02
680.42	28292.40
680.56	28526.45
680.70	28290.06
680.83	28268.99
680.97	28126.22
681.11	28154.30
681.25	27981.10
681.39	27803.22
681.52	27725.99
681.66	27461.51
681.80	27227.45
681.94	27239.15
682.07	27393.63
682.21	27283.62
682.35	27374.91
682.49	26948.93
682.62	27206.39
682.76	27178.30
682.90	26904.46
683.04	26916.16
683.17	26808.50
683.31	26504.23
683.45	26375.50
683.59	26274.85
683.72	26246.77
683.86	25907.39
684.00	26164.85
684.13	26209.32
684.27	26059.52
684.41	25582.06
684.55	25799.73
684.68	25820.79
684.82	25441.62
684.96	25563.33
685.09	25308.21
685.23	25443.96
685.37	25256.72
685.50	25565.67
685.64	25333.96
685.78	25259.06
685.91	25249.70
686.05	24713.72
686.19	24409.45
686.32	24067.73
686.46	24280.72
686.60	24086.45
686.73	24388.38
686.87	24311.14
687.01	24264.33
687.14	24276.04
687.28	24081.77
687.42	23901.55
687.55	23983.47
687.69	23971.77
687.82	23634.73
687.96	23538.77
688.10	23683.88
688.23	23545.79
688.37	23297.69
688.50	23318.76
688.64	23269.61
688.78	22998.10
688.91	23122.15
689.05	23129.17
689.18	22909.16
689.32	22471.48
689.46	22370.84
689.59	22541.70
689.73	22485.53
689.86	22738.30
690.00	22623.62
690.13	22501.91
690.27	21958.91
690.41	22361.48
690.54	21853.58
690.68	21797.41
690.81	21687.40
690.95	21448.67
691.08	21664.00
691.22	21467.39
691.35	21483.78
691.49	21553.99
691.62	21252.06
691.76	21018.01
691.89	20996.95
692.03	20709.06
692.16	20662.25
692.30	20676.29
692.43	20711.40
692.57	20566.29
692.70	20566.29
692.84	20203.50
692.97	20191.80
693.11	19932.00
693.24	20126.27
693.38	20046.69
693.51	19843.06
693.65	19999.88
693.78	19726.04
693.92	19829.02
694.05	19594.96
694.19	19342.19
694.32	19257.93
694.45	19681.56
694.59	19702.63
694.72	19751.78
694.86	19068.34
694.99	18817.91
695.13	18876.42
695.26	19019.19
695.39	18370.86
695.53	18829.61
695.66	18724.29
695.80	18609.60
695.93	18200.01
696.07	18387.25
696.20	18068.94
696.33	17720.20
696.47	18026.81
696.60	18085.32
696.73	18024.47
696.87	18242.14
697.00	18298.31
697.14	17682.75
697.27	17575.08
697.40	17614.87
697.54	17291.88
697.67	17376.14
697.80	17561.04
697.94	17153.79
698.07	17205.28
698.21	17326.99
698.34	17149.11
698.47	16987.61
698.61	16507.80
698.74	16561.63
698.87	16430.56
699.01	16439.92
699.14	16589.72
699.27	16606.10
699.40	16538.23
699.54	16224.59
699.67	16360.34
699.80	16350.98
699.94	16032.67
700.07	16018.63
700.20	15903.94
700.34	15880.53
700.47	15974.16
700.60	15716.70
700.73	16065.44
700.87	15431.15
701.00	15515.41
701.13	15433.49
701.26	15180.71
701.40	15143.27
701.53	14986.45
701.66	15356.25
701.79	15070.71
701.93	14712.61
702.06	14766.44
702.19	14693.88
702.32	14932.62
702.46	14754.74
702.59	14792.19
702.72	14665.80
702.85	14501.96
702.99	14672.82
703.12	14621.33
703.25	14377.91
703.38	14291.31
703.51	14342.80
703.65	14111.09
703.78	13968.32
703.91	14036.19
704.04	13907.46
704.17	13839.59
704.31	13556.38
704.44	13486.17
704.57	13659.37
704.70	13769.37
704.83	13184.24
704.96	13469.78
705.10	13266.16
705.23	13327.01
>>>>>End Processed Spectral Data<<<<<
