SpectraSuite Data File
++++++++++++++++++++++++++++++++++++
Date: Fri Oct 25 10:43:26 EDT 2013
User: price-jones
Dark Spectrum Present: No
Reference Spectrum Present: No
Number of Sampled Component Spectra: 1
Spectrometers: USB2+H05261
Integration Time (usec): 100000 (USB2+H05261)
Spectra Averaged: 1 (USB2+H05261)
Boxcar Smoothing: 0 (USB2+H05261)
Correct for Electrical Dark: No (USB2+H05261)
Strobe/Lamp Enabled: No (USB2+H05261)
Correct for Detector Non-linearity: No (USB2+H05261)
Correct for Stray Light: No (USB2+H05261)
Number of Pixels in Processed Spectrum: 2048
>>>>>Begin Processed Spectral Data<<<<<
365.73	74.90
365.92	74.90
366.12	74.90
366.32	35.11
366.52	46.81
366.72	70.22
366.91	11.70
367.11	49.15
367.31	0.00
367.51	4.68
367.70	0.00
367.90	86.60
368.10	49.15
368.30	14.04
368.49	0.00
368.69	49.15
368.89	0.00
369.09	0.00
369.28	0.00
369.48	39.79
369.68	102.98
369.87	46.81
370.07	49.15
370.27	110.01
370.47	168.52
370.66	297.25
370.86	334.70
371.06	433.00
371.25	482.15
371.45	458.74
371.65	454.06
371.84	444.70
372.04	421.30
372.24	425.98
372.44	444.70
372.63	514.92
372.83	507.90
373.03	493.85
373.22	550.03
373.42	491.51
373.62	524.28
373.81	493.85
374.01	568.75
374.21	507.90
374.40	566.41
374.60	526.62
374.79	580.45
374.99	615.56
375.19	538.32
375.38	575.77
375.58	629.60
375.78	643.65
375.97	608.54
376.17	678.76
376.37	578.11
376.56	594.50
376.76	601.52
376.95	589.82
377.15	664.71
377.35	580.45
377.54	599.18
377.74	543.00
377.93	636.63
378.13	624.92
378.33	720.88
378.52	657.69
378.72	615.56
378.91	706.84
379.11	575.77
379.31	575.77
379.50	636.63
379.70	678.76
379.89	662.37
380.09	631.94
380.28	678.76
380.48	697.48
380.68	676.41
380.87	685.78
381.07	683.44
381.26	704.50
381.46	653.01
381.65	671.73
381.85	690.46
382.04	655.35
382.24	723.23
382.43	751.31
382.63	660.03
382.83	697.48
383.02	753.65
383.22	692.80
383.41	634.29
383.61	718.54
383.80	844.93
384.00	751.31
384.19	758.33
384.39	772.38
384.58	802.80
384.78	690.46
384.97	763.01
385.17	812.17
385.36	866.00
385.56	884.72
385.75	716.20
385.95	807.48
386.14	826.21
386.34	753.65
386.53	763.01
386.72	784.08
386.92	784.08
387.11	758.33
387.31	847.27
387.50	767.70
387.70	905.79
387.89	910.47
388.09	877.70
388.28	732.59
388.48	903.45
388.67	938.55
388.86	926.85
389.06	851.96
389.25	952.60
389.45	1004.09
389.64	940.90
389.84	1020.47
390.03	950.26
390.22	971.32
390.42	994.73
390.61	1074.31
390.81	1048.56
391.00	961.96
391.19	1034.52
391.39	1067.28
391.58	1032.18
391.78	1109.41
391.97	1027.50
392.16	1076.65
392.36	985.37
392.55	898.77
392.75	1004.09
392.94	1032.18
393.13	957.28
393.33	950.26
393.52	1013.45
393.71	1076.65
393.91	1032.18
394.10	1027.50
394.29	1055.58
394.49	1188.99
394.68	1170.27
394.88	1167.93
395.07	1249.85
395.26	1217.08
395.46	1132.82
395.65	1226.44
395.84	1207.72
396.04	1165.59
396.23	1210.06
396.42	1174.95
396.62	1174.95
396.81	1181.97
397.00	1149.20
397.19	1301.34
397.39	1245.16
397.58	1331.76
397.77	1373.89
397.97	1317.72
398.16	1282.61
398.35	1362.19
398.55	1399.64
398.74	1430.07
398.93	1514.33
399.12	1481.56
399.32	1338.79
399.51	1437.09
399.70	1509.65
399.90	1575.18
400.09	1558.80
400.28	1577.52
400.47	1540.07
400.67	1600.93
400.86	1547.09
401.05	1654.76
401.24	1577.52
401.44	1542.41
401.63	1710.93
401.82	1713.27
402.01	1724.97
402.21	1694.55
402.40	1572.84
402.59	1760.08
402.78	1750.72
402.97	1699.23
403.17	1732.00
403.36	1659.44
403.55	1699.23
403.74	1900.52
403.93	1818.60
404.13	1802.21
404.32	1870.09
404.51	1783.49
404.70	1811.57
404.89	1865.41
405.09	1839.66
405.28	1858.39
405.47	1921.58
405.66	1961.37
405.85	1860.73
406.05	1956.69
406.24	1989.46
406.43	2008.18
406.62	2008.18
406.81	2080.74
407.00	2019.88
407.20	2029.24
407.39	1966.05
407.58	2050.31
407.77	2127.55
407.96	2085.42
408.15	2120.53
408.34	2115.84
408.54	2150.95
408.73	2298.41
408.92	2272.66
409.11	2209.47
409.30	2289.04
409.49	2218.83
409.68	2246.91
409.87	2181.38
410.07	2408.41
410.26	2221.17
410.45	2420.11
410.64	2361.60
410.83	2335.85
411.02	2410.75
411.21	2485.65
411.40	2410.75
411.59	2487.99
411.78	2495.01
411.98	2518.42
412.17	2555.86
412.36	2698.64
412.55	2513.74
412.74	2572.25
412.93	2581.61
413.12	2579.27
413.31	2724.38
413.50	2780.56
413.69	2682.25
413.88	2787.58
414.07	2846.09
414.26	2813.32
414.45	2869.50
414.64	3038.02
414.83	3014.61
415.02	3007.59
415.22	3073.12
415.41	3131.64
415.60	3054.40
415.79	3173.77
415.98	3068.44
416.17	3185.47
416.36	3180.79
416.55	3138.66
416.74	3162.06
416.93	3143.34
417.12	3309.52
417.31	3262.71
417.50	3290.79
417.69	3335.26
417.88	3456.97
418.07	3295.47
418.26	3316.54
418.45	3323.56
418.64	3625.49
418.83	3557.61
419.02	3463.99
419.21	3449.95
419.39	3496.76
419.58	3473.36
419.77	3454.63
419.96	3684.00
420.15	3613.79
420.34	3510.80
420.53	3733.15
420.72	3801.03
420.91	3765.92
421.10	3754.22
421.29	3747.20
421.48	3681.66
421.67	3723.79
421.86	3744.86
422.05	3761.24
422.24	3735.50
422.43	3634.85
422.61	3730.81
422.80	3707.41
422.99	3768.26
423.18	3854.86
423.37	3873.59
423.56	3812.73
423.75	3777.62
423.94	3637.19
424.13	3543.57
424.32	3667.62
424.50	3772.94
424.69	3791.67
424.88	3864.22
425.07	3868.91
425.26	3847.84
425.45	3754.22
425.64	3885.29
425.83	3808.05
426.01	4060.83
426.20	3936.78
426.39	3845.50
426.58	3948.48
426.77	3871.25
426.96	3826.78
427.15	3857.20
427.33	3920.40
427.52	3915.72
427.71	3964.87
427.90	3932.10
428.09	3955.51
428.28	3911.04
428.46	4177.86
428.65	4088.92
428.84	4147.43
429.03	4163.81
429.22	3981.25
429.40	4135.73
429.59	4053.81
429.78	3962.53
429.97	3831.46
430.16	3957.85
430.34	3976.57
430.53	4112.32
430.72	4212.96
430.91	4044.45
431.10	4161.47
431.28	4416.59
431.47	4411.91
431.66	4482.13
431.85	4379.14
432.03	4381.48
432.22	4542.98
432.41	4414.25
432.60	4545.32
432.79	4573.41
432.97	4592.13
433.16	4580.43
433.35	4432.97
433.54	4657.67
433.72	4500.85
433.91	4397.87
434.10	4725.54
434.28	4692.77
434.47	4713.84
434.66	4840.23
434.85	4795.76
435.03	4748.95
435.22	4788.74
435.41	4992.36
435.59	4901.08
435.78	4905.76
435.97	4975.98
436.16	4985.34
436.34	4887.04
436.53	4968.96
436.72	4983.00
436.90	4964.28
437.09	5064.92
437.28	4938.53
437.46	5039.17
437.65	5013.43
437.84	5041.51
438.02	4849.59
438.21	5027.47
438.40	5011.09
438.58	5240.46
438.77	5245.14
438.96	5305.99
439.14	5282.59
439.33	5451.11
439.52	5502.60
439.70	5455.79
439.89	5401.96
440.08	5596.22
440.26	5486.22
440.45	5657.07
440.63	5628.99
440.82	5816.23
441.01	5699.20
441.19	5713.25
441.38	5870.06
441.57	5858.36
441.75	6157.95
441.94	6106.46
442.12	6171.99
442.31	6190.72
442.50	6155.61
442.68	6106.46
442.87	6148.59
443.05	6092.41
443.24	6251.57
443.43	6249.23
443.61	6291.36
443.80	6415.41
443.98	6211.78
444.17	6047.94
444.35	6417.75
444.54	6441.15
444.73	6445.84
444.91	6375.62
445.10	6331.15
445.28	6317.11
445.47	6211.78
445.65	6132.20
445.84	6375.62
446.02	6352.21
446.21	6326.47
446.39	6492.65
446.58	6473.92
446.77	6225.82
446.95	6333.49
447.14	6686.91
447.32	6562.86
447.51	6658.82
447.69	6455.20
447.88	6502.01
448.06	6572.22
448.25	6621.38
448.43	6487.96
448.62	6476.26
448.80	6581.59
448.99	6473.92
449.17	6710.32
449.36	6602.65
449.54	6754.79
449.73	7026.29
449.91	6951.39
450.10	6918.62
450.28	7215.87
450.46	7052.03
450.65	7019.27
450.83	7082.46
451.02	6836.70
451.20	7040.33
451.39	7180.76
451.57	7035.65
451.76	6876.49
451.94	6963.09
452.13	7133.95
452.31	6970.12
452.49	6949.05
452.68	6995.86
452.86	6958.41
453.05	7061.40
453.23	6972.46
453.42	7145.66
453.60	7059.06
453.78	7178.42
453.97	7101.19
454.15	7101.19
454.34	7108.21
454.52	7328.22
454.70	7412.48
454.89	7583.34
455.07	7405.46
455.26	7475.67
455.44	7588.02
455.62	7412.48
455.81	7517.80
455.99	7555.25
456.17	7576.31
456.36	7515.46
456.54	7705.04
456.73	7950.80
456.91	7880.58
457.09	7913.35
457.28	7995.27
457.46	7915.69
457.64	7927.39
457.83	8002.29
458.01	7716.75
458.19	8154.43
458.38	8037.40
458.56	8032.72
458.74	7852.50
458.93	7920.37
459.11	7990.59
459.29	8042.08
459.48	8175.49
459.66	7845.48
459.84	8039.74
460.03	8348.69
460.21	8318.26
460.39	8425.93
460.57	8252.73
460.76	8262.09
460.94	8388.48
461.12	8542.96
461.31	8327.63
461.49	8449.33
461.67	8351.03
461.85	8634.24
462.04	8655.30
462.22	9055.53
462.40	8627.21
462.59	8781.69
462.77	8723.18
462.95	8755.94
463.13	8746.58
463.32	8659.98
463.50	8552.32
463.68	8629.56
463.86	8793.39
464.05	8620.19
464.23	8674.03
464.41	8795.73
464.59	8709.13
464.78	8861.27
464.96	8851.91
465.14	9001.70
465.32	8919.78
465.50	8863.61
465.69	9081.28
465.87	9069.58
466.05	8940.85
466.23	8889.35
466.41	8997.02
466.60	9249.80
466.78	8919.78
466.96	9095.32
467.14	9144.47
467.32	9195.96
467.51	9167.88
467.69	9015.74
467.87	9174.90
468.05	9200.65
468.23	9231.07
468.41	9097.66
468.60	9188.94
468.78	9345.76
468.96	9348.10
469.14	9448.74
469.32	9619.60
469.50	9380.87
469.69	9446.40
469.87	9598.54
470.05	9591.52
470.23	9525.98
470.41	9525.98
470.59	9771.74
470.77	9710.88
470.95	9860.68
471.14	9790.46
471.32	9837.27
471.50	10085.37
471.68	10031.54
471.86	10157.92
472.04	10190.69
472.22	10265.59
472.40	10092.39
472.58	10286.65
472.77	10115.80
472.95	10317.08
473.13	10567.52
473.31	10368.57
473.49	10363.89
473.67	10183.67
473.85	10410.70
474.03	10534.75
474.21	10609.65
474.39	10642.42
474.57	10761.78
474.75	10789.87
474.93	10850.72
475.12	11110.52
475.30	11019.24
475.48	10874.13
475.66	11037.97
475.84	11197.12
476.02	11152.65
476.20	11288.40
476.38	11164.36
476.56	11442.88
476.74	11758.85
476.92	11428.84
477.10	11571.61
477.28	11843.11
477.46	11880.56
477.64	12035.03
477.82	12018.65
478.00	12456.33
478.18	12311.22
478.36	12219.94
478.54	12585.06
478.72	12416.54
478.90	12554.63
479.08	12765.28
479.26	12739.54
479.44	13013.38
479.62	12830.82
479.80	12769.96
479.98	13371.48
480.16	13497.87
480.34	13053.17
480.52	13282.54
480.70	13413.61
480.88	13415.95
481.06	13547.02
481.24	13781.07
481.41	13818.52
481.59	14092.37
481.77	14026.83
481.95	13855.97
482.13	14295.99
482.31	14029.17
482.49	14127.47
482.67	14171.94
482.85	14829.63
483.03	14490.26
483.21	14946.66
483.39	14956.02
483.57	15033.26
483.74	15201.78
483.92	15384.34
484.10	15164.33
484.28	15573.92
484.46	15529.45
484.64	15906.28
484.82	15534.14
485.00	15529.45
485.18	16020.97
485.35	16163.74
485.53	15756.49
485.71	15957.77
485.89	16095.86
486.07	16273.74
486.25	16505.46
486.43	16283.11
486.61	16517.16
486.78	16833.13
486.96	17160.81
487.14	17544.66
487.32	17507.21
487.50	17436.99
487.68	17764.67
487.85	17956.59
488.03	17940.21
488.21	18153.20
488.39	17951.91
488.57	18167.24
488.75	18373.21
488.92	18469.17
489.10	19012.17
489.28	18672.79
489.46	19136.22
489.64	19190.05
489.81	19459.21
489.99	19999.88
490.17	19913.28
490.35	19894.55
490.53	19412.40
490.70	20034.99
490.88	20013.92
491.06	20152.01
491.24	20353.30
491.41	20411.81
491.59	20233.93
491.77	20208.19
491.95	20762.89
492.13	20540.54
492.30	20973.54
492.48	20865.88
492.66	21312.92
492.84	21336.32
493.01	21605.49
493.19	21579.74
493.37	21551.65
493.54	21975.29
493.72	22300.62
493.90	22026.78
494.08	21977.63
494.25	22312.33
494.43	22473.82
494.61	22562.76
494.79	22944.27
494.96	22862.35
495.14	23033.21
495.32	23110.45
495.49	23208.75
495.67	23314.08
495.85	23974.11
496.02	23676.86
496.20	23693.24
496.38	23718.99
496.55	23508.34
496.73	24292.42
496.91	24393.06
497.09	24540.52
497.26	24720.74
497.44	24430.51
497.62	24540.52
497.79	24903.30
497.97	24556.90
498.14	25172.46
498.32	25172.46
498.50	25516.52
498.67	25659.29
498.85	25570.35
499.03	25769.30
499.20	25652.27
499.38	25635.89
499.56	25827.81
499.73	25886.32
499.91	26003.35
500.08	25998.67
500.26	26012.71
500.44	25928.45
500.61	26118.04
500.79	25804.41
500.97	26621.25
501.14	26534.65
501.32	26569.76
501.49	26448.05
501.67	26497.20
501.84	27051.91
502.02	26761.69
502.20	26759.34
502.37	27131.49
502.55	27260.22
502.72	27424.06
502.90	27421.72
503.07	27225.11
503.25	27529.38
503.43	27405.33
503.60	27655.77
503.78	27833.65
503.95	27983.44
504.13	27833.65
504.30	27997.49
504.48	27847.69
504.65	28414.10
504.83	28552.20
505.01	28381.34
505.18	28596.67
505.36	28875.19
505.53	29032.00
505.71	29029.66
505.88	28875.19
506.06	28910.30
506.23	28893.91
506.41	28966.47
506.58	29268.40
506.76	29013.28
506.93	29259.04
507.11	29376.06
507.28	29242.65
507.46	29413.51
507.63	29439.26
507.81	29500.11
507.98	29724.80
508.16	29729.48
508.33	30155.46
508.50	29855.87
508.68	30321.64
508.85	30600.16
509.03	30150.78
509.20	30251.42
509.38	30712.51
509.55	30452.71
509.73	30539.31
509.90	30780.39
510.08	30817.83
510.25	30728.89
510.42	31346.79
510.60	30803.79
510.77	31014.44
510.95	31335.09
511.12	31168.91
511.30	31166.57
511.47	31693.19
511.64	32165.98
511.82	31859.37
511.99	31431.05
512.17	31910.86
512.34	31861.71
512.51	31969.38
512.69	31924.91
512.86	32093.43
513.04	32292.37
513.21	31957.67
513.38	32191.73
513.56	32259.60
513.73	32355.57
513.90	32334.50
514.08	32294.71
514.25	32400.04
514.43	32816.65
514.60	32954.74
514.77	32325.14
514.95	32968.79
515.12	32896.23
515.29	33046.02
515.47	33357.32
515.64	33429.87
515.81	33078.79
515.99	32943.04
516.16	32924.32
516.33	32985.17
516.51	33226.24
516.68	32730.05
516.85	32847.08
517.03	32622.39
517.20	33362.00
517.37	33741.16
517.54	33780.95
517.72	33497.75
517.89	33263.69
518.06	32952.40
518.24	33493.07
518.41	33432.21
518.58	34031.39
518.75	33741.16
518.93	33635.84
519.10	34455.03
519.27	34761.64
519.45	34405.88
519.62	34731.21
519.79	34440.98
519.96	35028.46
520.14	34756.96
520.31	34881.00
520.48	34660.99
520.65	34656.31
520.83	35086.97
521.00	35243.79
521.17	35084.63
521.34	35253.15
521.52	35435.71
521.69	35187.61
521.86	35646.36
522.03	35482.52
522.20	35639.34
522.38	35707.21
522.55	35988.08
522.72	35756.36
522.89	36275.96
523.07	36362.56
523.24	35817.22
523.41	36369.58
523.58	36430.44
523.75	36463.21
523.92	36528.74
524.10	36453.84
524.27	36556.83
524.44	36739.39
524.61	36573.21
524.78	37048.34
524.96	36699.60
525.13	36781.52
525.30	36755.77
525.47	37191.11
525.64	36884.50
525.81	37109.19
525.98	37123.24
526.16	36601.30
526.33	37188.77
526.50	37193.45
526.67	36554.49
526.84	36620.02
527.01	36374.27
527.18	37120.90
527.36	37404.10
527.53	37502.40
527.70	37778.59
527.87	37336.23
528.04	37743.48
528.21	38169.46
528.38	37986.89
528.55	38169.46
528.72	38417.55
528.89	38124.99
529.07	38756.93
529.24	37963.49
529.41	37914.34
529.58	38204.56
529.75	38307.55
529.92	38611.82
530.09	37876.89
530.26	38820.13
530.43	38597.77
530.60	38401.17
530.77	38733.53
530.94	38904.38
531.11	38965.24
531.28	38763.95
531.46	39049.50
531.63	38689.06
531.80	38625.86
531.97	38557.99
532.14	38763.95
532.31	38333.29
532.48	38988.64
532.65	39014.39
532.82	39332.70
532.99	39047.16
533.16	39000.35
533.33	39405.26
533.50	39239.08
533.67	39711.87
533.84	39292.91
534.01	39445.05
534.18	39440.37
534.35	39910.82
534.52	39178.23
534.69	39646.33
534.86	39988.05
535.03	39737.62
535.20	39999.76
535.37	40226.79
535.54	40559.14
535.71	40353.18
535.88	39995.07
536.05	40004.44
536.22	40273.60
536.38	39981.03
536.55	40154.23
536.72	40133.17
536.89	40004.44
537.06	40187.00
537.23	40493.61
537.40	40149.55
537.57	40044.23
537.74	40280.62
537.91	40811.92
538.08	40563.82
538.25	40198.70
538.42	40875.12
538.59	40622.34
538.75	40240.83
538.92	40605.95
539.09	40479.57
539.26	41045.97
539.43	40678.51
539.60	40912.56
539.77	40821.28
539.94	41010.87
540.11	40416.37
540.28	40734.68
540.44	40346.15
540.61	40811.92
540.78	40692.55
540.95	40765.11
541.12	40928.95
541.29	40793.20
541.46	41062.36
541.62	41408.76
541.79	41247.26
541.96	41118.53
542.13	41186.41
542.30	41446.21
542.47	41064.70
542.63	41411.10
542.80	41537.49
542.97	41706.01
543.14	41766.86
543.31	41523.44
543.48	42096.88
543.64	42412.85
543.81	42148.37
543.98	42146.03
544.15	42232.63
544.32	42171.77
544.48	42543.92
544.65	42181.13
544.82	42026.66
544.99	41911.97
545.16	41890.91
545.32	42181.13
545.49	42525.19
545.66	42810.74
545.83	42454.98
546.00	42682.01
546.16	42656.26
546.33	42178.79
546.50	42363.70
546.67	42770.95
546.83	42267.73
547.00	42618.81
547.17	42600.09
547.34	42792.01
547.50	42660.94
547.67	42593.07
547.84	42759.25
548.00	42972.24
548.17	43103.31
548.34	43068.20
548.51	43229.69
548.67	43328.00
548.84	43213.31
549.01	42848.19
549.18	42972.24
549.34	43122.03
549.51	42948.83
549.68	43206.29
549.84	43302.25
550.01	43075.22
550.18	43264.80
550.34	43164.16
550.51	43393.53
550.68	43255.44
550.84	42644.56
551.01	43037.77
551.18	43627.59
551.34	43608.86
551.51	43590.14
551.68	43990.37
551.84	43213.31
552.01	43679.08
552.18	43421.62
552.34	43372.47
552.51	43716.53
552.68	43400.55
552.84	43690.78
553.01	43803.13
553.18	44126.12
553.34	43805.47
553.51	43737.59
553.67	44257.19
553.84	44163.57
554.01	43929.51
554.17	44334.43
554.34	44486.56
554.51	43880.36
554.67	44032.50
554.84	43742.27
555.00	43903.77
555.17	44083.99
555.33	44446.77
555.50	44048.88
555.67	43992.71
555.83	44067.61
556.00	44282.94
556.16	44378.90
556.33	44081.65
556.50	43812.49
556.66	44304.00
556.83	43948.24
556.99	44025.48
557.16	44594.23
557.32	44505.29
557.49	44140.16
557.65	44086.33
557.82	44437.41
557.98	44626.99
558.15	44514.65
558.32	44905.52
558.48	43931.86
558.65	44655.08
558.81	43969.30
558.98	44397.62
559.14	44243.15
559.31	44416.35
559.47	44002.07
559.64	44591.89
559.80	44978.07
559.97	44692.53
560.13	44126.12
560.30	44634.02
560.46	45139.57
560.63	44671.46
560.79	45038.93
560.96	45237.87
561.12	44659.76
561.29	44264.21
561.45	44509.97
561.61	44196.34
561.78	44591.89
561.94	44889.13
562.11	44938.29
562.27	44673.81
562.44	44587.21
562.60	45013.18
562.77	44587.21
562.93	44673.81
563.10	44982.76
563.26	44629.34
563.42	44971.05
563.59	44856.37
563.75	44535.71
563.92	44605.93
564.08	45001.48
564.24	45172.34
564.41	45216.81
564.57	44704.23
564.74	45436.82
564.90	45076.38
565.07	44783.81
565.23	44891.48
565.39	44832.96
565.56	44968.71
565.72	44638.70
565.88	45069.36
566.05	44577.84
566.21	44828.28
566.38	45270.64
566.54	44807.22
566.70	45155.96
566.87	45375.97
567.03	45256.60
567.19	45455.54
567.36	45067.02
567.52	45034.25
567.68	45511.72
567.85	44746.36
568.01	45378.31
568.17	45343.20
568.34	45144.25
568.50	45352.56
568.66	44987.44
568.83	45226.17
568.99	44879.77
569.15	44924.24
569.32	45214.47
569.48	45390.01
569.64	45455.54
569.81	45158.30
569.97	45029.57
570.13	45549.17
570.30	44669.12
570.46	44811.90
570.62	45132.55
570.78	44935.95
570.95	44797.85
571.11	45170.00
571.27	44889.13
571.43	44940.63
571.60	45001.48
571.76	45319.79
571.92	45137.23
572.09	45139.57
572.25	45076.38
572.41	45422.78
572.57	45371.28
572.74	45820.67
572.90	45500.01
573.06	45687.26
573.22	45350.22
573.38	45280.00
573.55	45275.32
573.71	46089.83
573.87	45137.23
574.03	45097.44
574.20	45198.09
574.36	45359.58
574.52	45799.60
574.68	45450.86
574.84	45593.64
575.01	45397.03
575.17	44769.77
575.33	45275.32
575.49	45462.57
575.65	45682.58
575.82	45579.59
575.98	45500.01
576.14	45684.92
576.30	45467.25
576.46	45677.90
576.62	45469.59
576.79	45432.14
576.95	45127.87
577.11	45399.37
577.27	45560.87
577.43	45485.97
577.59	45270.64
577.75	45418.10
577.92	45291.71
578.08	44762.75
578.24	45120.85
578.40	45282.34
578.56	45509.38
578.72	45113.83
578.88	45076.38
579.04	45577.25
579.21	45352.56
579.37	45361.92
579.53	45359.58
579.69	45102.12
579.85	45621.72
580.01	45595.98
580.17	44727.64
580.33	45823.01
580.49	45811.31
580.65	45619.38
580.82	45769.18
580.98	45492.99
581.14	45085.74
581.30	45603.00
581.46	45357.24
581.62	45977.48
581.78	45050.63
581.94	45745.77
582.10	45380.65
582.26	45539.80
582.42	45853.44
582.58	45476.61
582.74	45507.04
582.90	45432.14
583.06	45642.79
583.22	45448.52
583.38	45673.21
583.54	45539.80
583.70	45514.06
583.86	45453.20
584.02	45404.05
584.18	45724.71
584.34	45453.20
584.50	45663.85
584.66	45305.75
584.82	45638.11
584.98	45595.98
585.14	45698.96
585.30	45242.56
585.46	45263.62
585.62	45205.11
585.78	45464.91
585.94	45848.75
586.10	45439.16
586.26	45303.41
586.42	45820.67
586.58	45792.58
586.74	45610.02
586.90	45523.42
587.06	45352.56
587.22	45656.83
587.38	45450.86
587.54	46012.59
587.70	45806.62
587.86	45703.64
588.02	45347.88
588.18	45535.12
588.34	45209.79
588.49	45151.27
588.65	45111.49
588.81	44914.88
588.97	45052.97
589.13	45052.97
589.29	45219.15
589.45	45132.55
589.61	45521.08
589.77	45631.08
589.93	45439.16
590.08	46045.36
590.24	46052.38
590.40	45813.65
590.56	46099.19
590.72	46239.62
590.88	45537.46
591.04	45703.64
591.20	45614.70
591.35	46010.25
591.51	45940.04
591.67	45411.07
591.83	45567.89
591.99	45500.01
592.15	45382.99
592.31	45544.48
592.46	46096.85
592.62	45851.09
592.78	45603.00
592.94	45612.36
593.10	45848.75
593.26	46113.23
593.41	45818.33
593.57	45045.95
593.73	45373.63
593.89	45986.85
594.05	46059.40
594.20	45411.07
594.36	46071.10
594.52	46040.68
594.68	45841.73
594.84	45911.95
594.99	45982.16
595.15	45595.98
595.31	45832.37
595.47	45724.71
595.62	46323.88
595.78	45621.72
595.94	45911.95
596.10	45717.68
596.25	45888.54
596.41	46108.55
596.57	45574.91
596.73	45600.66
596.88	45427.46
597.04	45834.71
597.20	45514.06
597.36	46021.95
597.51	46050.04
597.67	45930.67
597.83	45722.37
597.99	46101.53
598.14	46024.29
598.30	45965.78
598.46	45663.85
598.61	45984.51
598.77	45312.77
598.93	45675.55
599.09	45911.95
599.24	46258.35
599.40	46314.52
599.56	45893.22
599.71	45874.50
599.87	46370.69
600.03	46057.06
600.18	45741.09
600.34	46307.50
600.50	45668.53
600.65	45872.16
600.81	45830.03
600.97	46447.93
601.12	45942.38
601.28	45521.08
601.44	45574.91
601.59	45989.19
601.75	45432.14
601.91	45511.72
602.06	45528.10
602.22	45731.73
602.37	46054.72
602.53	45724.71
602.69	45771.52
602.84	45883.86
603.00	45631.08
603.16	45624.06
603.31	45874.50
603.47	45925.99
603.62	45469.59
603.78	45914.29
603.94	45958.76
604.09	45773.86
604.25	46141.32
604.40	45338.52
604.56	45778.54
604.71	46223.24
604.87	45823.01
605.03	45579.59
605.18	45413.41
605.34	45654.49
605.49	45289.37
605.65	45947.06
605.80	45708.32
605.96	45563.21
606.12	45497.67
606.27	45617.04
606.43	45425.12
606.58	45394.69
606.74	45539.80
606.89	45464.91
607.05	45560.87
607.20	45553.85
607.36	45963.44
607.51	45977.48
607.67	45792.58
607.82	45537.46
607.98	45614.70
608.13	45495.33
608.29	45155.96
608.44	45041.27
608.60	45015.52
608.75	45516.40
608.91	45263.62
609.06	45666.19
609.22	45319.79
609.37	45235.53
609.53	45635.77
609.68	45666.19
609.84	44987.44
609.99	45151.27
610.15	45282.34
610.30	45048.29
610.46	44945.31
610.61	45081.06
610.76	44964.03
610.92	45214.47
611.07	45422.78
611.23	45378.31
611.38	45254.26
611.54	45003.82
611.69	44856.37
611.84	45132.55
612.00	45230.85
612.15	44898.50
612.31	44987.44
612.46	44802.53
612.62	45186.38
612.77	44835.30
612.92	45027.23
613.08	44493.58
613.23	44779.13
613.39	44177.61
613.54	44091.01
613.69	44175.27
613.85	44259.53
614.00	44423.37
614.15	44463.16
614.31	44416.35
614.46	44849.35
614.62	44744.02
614.77	44367.20
614.92	44282.94
615.08	44261.87
615.23	44348.47
615.38	44577.84
615.54	44409.32
615.69	44575.50
615.84	44191.65
616.00	44154.21
616.15	44526.35
616.30	44587.21
616.46	44619.97
616.61	44168.25
616.76	43725.89
616.92	43866.32
617.07	44151.87
617.22	44280.60
617.37	44130.80
617.53	44610.61
617.68	44301.66
617.83	44435.07
617.99	44177.61
618.14	44208.04
618.29	43924.83
618.45	44121.44
618.60	44025.48
618.75	43555.03
618.90	43232.04
619.06	43732.91
619.21	43770.36
619.36	43943.56
619.51	43697.80
619.67	43014.37
619.82	43756.32
619.97	44126.12
620.12	43632.27
620.28	43608.86
620.43	43690.78
620.58	43735.25
620.73	43648.65
620.89	43349.06
621.04	43938.88
621.19	44030.16
621.34	44086.33
621.49	43796.10
621.65	43517.58
621.80	43742.27
621.95	43351.40
622.10	43856.96
622.25	43222.67
622.41	43309.27
622.56	43276.51
622.71	43557.37
622.86	43475.45
623.01	43227.35
623.16	43550.35
623.32	43182.88
623.47	43248.42
623.62	43337.36
623.77	43049.47
623.92	43079.90
624.07	43171.18
624.23	42777.97
624.38	42983.94
624.53	43182.88
624.68	43157.14
624.83	43152.46
624.98	43292.89
625.13	42267.73
625.29	42880.95
625.44	42674.99
625.59	42553.28
625.74	42682.01
625.89	42237.31
626.04	42693.71
626.19	42806.06
626.34	42422.21
626.49	42553.28
626.65	42586.05
626.80	42745.20
626.95	42745.20
627.10	42677.33
627.25	42703.07
627.40	42410.51
627.55	41942.40
627.70	42021.98
627.85	42330.93
628.00	42272.42
628.15	42227.95
628.30	42773.29
628.45	42241.99
628.60	42443.27
628.76	42197.52
628.91	42263.05
629.06	41935.38
629.21	41853.46
629.36	41668.56
629.51	41706.01
629.66	42115.60
629.81	41928.36
629.96	41848.78
630.11	42113.26
630.26	42043.04
630.41	41752.82
630.56	41759.84
630.71	41816.01
630.86	41780.90
631.01	41270.67
631.16	41565.57
631.31	40875.12
631.46	41392.37
631.61	41628.77
631.76	41560.89
631.91	42202.20
632.06	41607.70
632.21	41577.28
632.36	41530.47
632.51	41041.29
632.66	41577.28
632.81	41088.10
632.96	41560.89
633.10	41251.94
633.25	41450.89
633.40	41949.42
633.55	41462.59
633.70	41474.29
633.85	41439.18
634.00	41352.58
634.15	40987.46
634.30	41041.29
634.45	40978.10
634.60	41226.20
634.75	41069.38
634.90	40809.58
635.05	41050.66
635.19	40842.35
635.34	41031.93
635.49	40954.69
635.64	41235.56
635.79	40715.96
635.94	40531.06
636.09	40673.83
636.24	40313.39
636.39	40236.15
636.53	40685.53
636.68	40561.48
636.83	40357.86
636.98	40842.35
637.13	41050.66
637.28	41141.94
637.43	40882.14
637.57	40657.45
637.72	40409.35
637.87	40868.09
638.02	40615.32
638.17	40751.07
638.32	40512.33
638.46	40362.54
638.61	40559.14
638.76	40133.17
638.91	40313.39
639.06	40456.16
639.20	40821.28
639.35	40091.04
639.50	40348.50
639.65	40449.14
639.80	40208.06
639.94	40086.36
640.09	40556.80
640.24	40128.48
640.39	40121.46
640.54	39864.00
640.68	40172.96
640.83	40135.51
640.98	39814.85
641.13	39798.47
641.27	40325.09
641.42	39786.77
641.57	39920.18
641.72	39590.16
641.86	39597.18
642.01	39735.27
642.16	39910.82
642.31	39328.02
642.45	39686.12
642.60	39384.19
642.75	39541.01
642.90	39756.34
643.04	39182.91
643.19	39531.65
643.34	39646.33
643.48	39543.35
643.63	39744.64
643.78	39552.71
643.93	39358.45
644.07	39311.64
644.22	39309.30
644.37	38953.54
644.51	39416.96
644.66	39688.46
644.81	39709.53
644.95	39681.44
645.10	39260.15
645.25	39386.54
645.39	39421.64
645.54	39468.45
645.69	38834.17
645.83	39143.12
645.98	39072.90
646.13	39218.02
646.27	39229.72
646.42	38707.78
646.57	38810.76
646.71	38754.59
646.86	38981.62
647.00	38749.91
647.15	38923.11
647.30	38990.98
647.44	39112.69
647.59	38822.47
647.74	38398.83
647.88	38527.56
648.03	38293.50
648.17	39000.35
648.32	38686.71
648.47	38492.45
648.61	38508.83
648.76	38490.11
648.90	38433.94
649.05	38244.35
649.20	38476.07
649.34	38569.69
649.49	38321.59
649.63	38796.72
649.78	38686.71
649.92	38562.67
650.07	38569.69
650.21	38602.46
650.36	38251.38
650.51	38293.50
650.65	38719.48
650.80	38862.26
650.94	38630.54
651.09	37989.24
651.23	37865.19
651.38	38352.02
651.52	37827.74
651.67	38164.78
651.81	37991.58
651.96	38017.32
652.10	37776.25
652.25	37731.78
652.39	38237.33
652.54	38068.81
652.68	37806.67
652.83	37867.53
652.97	38155.41
653.12	38192.86
653.26	37439.21
653.41	37858.17
653.55	37717.73
653.70	37912.00
653.84	37167.71
653.99	37188.77
654.13	37488.36
654.27	37757.52
654.42	37509.43
654.56	37771.57
654.71	37282.39
654.85	37715.39
655.00	37811.35
655.14	37434.53
655.29	36945.36
655.43	37191.11
655.57	36954.72
655.72	36961.74
655.86	36765.14
656.01	36732.37
656.15	37036.64
656.30	36666.83
656.44	37141.96
656.58	36982.80
656.73	37099.83
656.87	36432.78
657.01	36957.06
657.16	36505.34
657.30	36334.48
657.45	36814.29
657.59	36491.29
657.73	36542.78
657.88	36676.19
658.02	36432.78
658.16	36811.95
658.31	36690.24
658.45	37095.15
658.60	36786.20
658.74	36811.95
658.88	36940.68
659.03	36648.11
659.17	36568.53
659.31	36666.83
659.46	36507.68
659.60	36357.88
659.74	36222.13
659.89	36325.11
660.03	36025.53
660.17	36966.42
660.32	36367.24
660.46	36294.69
660.60	36025.53
660.74	36135.53
660.89	36044.25
661.03	36025.53
661.17	36126.17
661.32	35569.12
661.46	35744.66
661.60	35894.46
661.74	35721.26
661.89	35688.49
662.03	35864.03
662.17	35552.74
662.31	35950.63
662.46	35826.58
662.60	36009.14
662.74	35655.72
662.88	35555.08
663.03	35314.00
663.17	35468.48
663.31	35239.11
663.45	35548.06
663.60	34808.45
663.74	34960.58
663.88	35124.42
664.02	34857.60
664.17	35306.98
664.31	34876.32
664.45	34778.02
664.59	34904.41
664.73	34937.18
664.88	34668.02
665.02	34178.84
665.16	34176.50
665.30	34279.49
665.44	34139.05
665.59	34155.44
665.73	34565.03
665.87	34321.62
666.01	34185.86
666.15	34066.50
666.29	34160.12
666.44	34349.70
666.58	34515.88
666.72	34394.17
666.86	34237.36
667.00	33897.98
667.14	34012.66
667.28	33507.11
667.43	33902.66
667.57	34171.82
667.71	33963.51
667.85	33666.27
667.99	33757.55
668.13	34169.48
668.27	33778.61
668.41	33521.15
668.56	33146.67
668.70	33069.43
668.84	33137.30
668.98	33144.33
669.12	33273.06
669.26	32811.97
669.40	32924.32
669.54	33228.59
669.68	32636.43
669.82	32774.52
669.96	32496.00
670.10	32931.34
670.25	32786.22
670.39	32687.92
670.53	32449.19
670.67	32566.21
670.81	32577.92
670.95	32453.87
671.09	32395.35
671.23	32584.94
671.37	32409.40
671.51	32168.32
671.65	32362.59
671.79	31997.46
671.93	31901.50
672.07	31644.04
672.21	31784.48
672.35	31718.94
672.49	31557.44
672.63	31983.42
672.77	31367.86
672.91	31482.55
673.05	31777.45
673.19	31702.56
673.33	31702.56
673.47	31253.17
673.61	31133.81
673.75	30953.58
673.89	30813.15
674.03	30934.86
674.17	30890.39
674.31	30881.03
674.45	31187.64
674.59	30986.35
674.73	31201.68
674.87	30955.93
675.01	30649.32
675.15	30955.93
675.29	30452.71
675.43	30396.54
675.56	30548.67
675.70	30389.52
675.84	30181.21
675.98	29289.46
676.12	29949.50
676.26	30314.62
676.40	30101.63
676.54	30052.48
676.68	29926.09
676.82	29673.31
676.96	29670.97
677.10	29710.76
677.23	29694.38
677.37	29502.45
677.51	29507.13
677.65	28547.51
677.79	28655.18
677.93	29060.09
678.07	28608.37
678.21	28308.78
678.34	28411.76
678.48	28439.85
678.62	28224.52
678.76	28170.69
678.90	28037.28
679.04	28259.63
679.18	28119.20
679.31	27639.39
679.45	27728.33
679.59	27887.48
679.73	27775.14
679.87	27669.81
680.00	27442.78
680.14	27538.74
680.28	27433.42
680.42	26951.27
680.56	27274.26
680.70	27517.68
680.83	26782.75
680.97	27112.77
681.11	27513.00
681.25	26977.01
681.39	27026.17
681.52	26955.95
681.66	26522.95
681.80	26703.17
681.94	26693.81
682.07	26122.72
682.21	26354.43
682.35	26085.27
682.49	26029.10
682.62	25905.05
682.76	26078.25
682.90	25706.10
683.04	25961.22
683.17	25472.05
683.31	25582.06
683.45	25560.99
683.59	25481.41
683.72	25142.03
683.86	25542.27
684.00	24996.92
684.13	24889.26
684.27	24762.87
684.41	24844.79
684.55	24823.72
684.68	24858.83
684.82	24486.68
684.96	24884.58
685.09	24570.94
685.23	24474.98
685.37	24584.99
685.50	24273.70
685.64	24381.36
685.78	24180.07
685.91	23740.05
686.05	23669.84
686.19	23484.94
686.32	23613.66
686.46	23515.36
686.60	22754.69
686.73	22925.55
686.87	23171.30
687.01	23229.82
687.14	22827.24
687.28	22965.34
687.42	22860.01
687.55	22871.72
687.69	22953.63
687.82	22761.71
687.96	22808.52
688.10	22270.20
688.23	22562.76
688.37	22462.12
688.50	22349.78
688.64	22586.17
688.78	22015.08
688.91	21488.46
689.05	21872.31
689.18	21642.93
689.32	21474.42
689.46	21825.50
689.59	22033.80
689.73	21944.86
689.86	21713.15
690.00	21261.43
690.13	21366.75
690.27	20924.39
690.41	21366.75
690.54	20662.25
690.68	21200.57
690.81	20968.86
690.95	20849.49
691.08	20819.07
691.22	20943.11
691.35	20769.91
691.49	20652.89
691.62	20765.23
691.76	20779.28
691.89	20386.07
692.03	20404.79
692.16	20152.01
692.30	20072.43
692.43	20152.01
692.57	19868.81
692.70	19571.56
692.84	19592.62
692.97	19754.12
693.11	19700.29
693.24	19185.37
693.38	19613.69
693.51	19499.00
693.65	19489.64
693.78	19030.90
693.92	19344.53
694.05	19524.75
694.19	19187.71
694.32	19075.37
694.45	19208.78
694.59	19042.60
694.72	18838.97
694.86	18721.95
694.99	18651.73
695.13	18492.57
695.26	18328.74
695.39	18387.25
695.53	18738.33
695.66	18473.85
695.80	18640.03
695.93	18022.12
696.07	18228.09
696.20	17886.37
696.33	18085.32
696.47	17813.82
696.60	17703.81
696.73	17720.20
696.87	17544.66
697.00	17315.28
697.14	17415.93
697.27	17357.41
697.40	17350.39
697.54	16954.84
697.67	16975.91
697.80	17144.42
697.94	16702.06
698.07	16938.46
698.21	16854.20
698.34	16910.37
698.47	16999.31
698.61	16615.46
698.74	16622.48
698.87	16634.19
699.01	16226.93
699.14	16297.15
699.27	15988.20
699.40	16107.57
699.54	16175.44
699.67	15878.19
699.80	15822.02
699.94	15812.66
700.07	15948.41
700.20	15868.83
700.34	15620.74
700.47	16009.26
700.60	15798.62
700.73	15833.72
700.87	15714.36
701.00	15389.02
701.13	15241.57
701.26	15136.24
701.40	15169.01
701.53	15194.76
701.66	15253.27
701.79	14892.83
701.93	14934.96
702.06	14698.56
702.19	14494.94
702.32	14647.07
702.46	14689.20
702.59	14925.60
702.72	14686.86
702.85	14850.70
702.99	14590.90
703.12	14228.12
703.25	14389.61
703.38	14185.99
703.51	14480.89
703.65	14202.37
703.78	13738.94
703.91	14115.77
704.04	13994.06
704.17	13767.03
704.31	13692.13
704.44	13673.41
704.57	13612.56
704.70	13614.90
704.83	13458.08
704.96	13523.62
705.10	13542.34
705.23	13345.73
>>>>>End Processed Spectral Data<<<<<
