SpectraSuite Data File
++++++++++++++++++++++++++++++++++++
Date: Fri Oct 25 11:33:54 EDT 2013
User: price-jones
Dark Spectrum Present: No
Reference Spectrum Present: No
Number of Sampled Component Spectra: 1
Spectrometers: USB2+H05261
Integration Time (usec): 100000 (USB2+H05261)
Spectra Averaged: 1 (USB2+H05261)
Boxcar Smoothing: 0 (USB2+H05261)
Correct for Electrical Dark: No (USB2+H05261)
Strobe/Lamp Enabled: No (USB2+H05261)
Correct for Detector Non-linearity: No (USB2+H05261)
Correct for Stray Light: No (USB2+H05261)
Number of Pixels in Processed Spectrum: 2048
>>>>>Begin Processed Spectral Data<<<<<
365.73	318.31
365.92	318.31
366.12	318.31
366.32	201.29
366.52	131.07
366.72	210.65
366.91	117.03
367.11	138.09
367.31	102.98
367.51	173.20
367.70	222.35
367.90	229.37
368.10	194.26
368.30	191.92
368.49	205.97
368.69	128.73
368.89	187.24
369.09	177.88
369.28	177.88
369.48	229.37
369.68	205.97
369.87	292.57
370.07	210.65
370.27	280.86
370.47	308.95
370.66	444.70
370.86	498.53
371.06	538.32
371.25	540.66
371.45	535.98
371.65	547.69
371.84	510.24
372.04	526.62
372.24	554.71
372.44	599.18
372.63	545.34
372.83	636.63
373.03	631.94
373.22	624.92
373.42	671.73
373.62	550.03
373.81	599.18
374.01	648.33
374.21	592.16
374.40	617.90
374.60	732.59
374.79	603.86
374.99	643.65
375.19	641.31
375.38	657.69
375.58	601.52
375.78	723.23
375.97	681.10
376.17	657.69
376.37	699.82
376.56	664.71
376.76	692.80
376.95	716.20
377.15	674.07
377.35	650.67
377.54	730.25
377.74	608.54
377.93	617.90
378.13	683.44
378.33	706.84
378.52	638.97
378.72	695.14
378.91	798.12
379.11	727.91
379.31	678.76
379.50	746.63
379.70	720.88
379.89	770.04
380.09	622.58
380.28	674.07
380.48	706.84
380.68	655.35
380.87	641.31
381.07	688.12
381.26	880.04
381.46	814.51
381.65	713.86
381.85	807.48
382.04	793.44
382.24	739.61
382.43	774.72
382.63	699.82
382.83	802.80
383.02	814.51
383.22	767.70
383.41	793.44
383.61	863.66
383.80	884.72
384.00	833.23
384.19	777.06
384.39	856.64
384.58	765.36
384.78	823.87
384.97	835.57
385.17	849.61
385.36	847.27
385.56	868.34
385.75	795.78
385.95	823.87
386.14	847.27
386.34	760.67
386.53	807.48
386.72	863.66
386.92	866.00
387.11	873.02
387.31	898.77
387.50	873.02
387.70	858.98
387.89	840.25
388.09	875.36
388.28	858.98
388.48	908.13
388.67	950.26
388.86	938.55
389.06	882.38
389.25	961.96
389.45	1006.43
389.64	1006.43
389.84	931.53
390.03	947.92
390.22	924.51
390.42	954.94
390.61	933.87
390.81	943.24
391.00	1041.54
391.19	966.64
391.39	1006.43
391.58	947.92
391.78	1018.13
391.97	1022.81
392.16	1020.47
392.36	1139.84
392.55	1057.92
392.75	1008.77
392.94	999.41
393.13	1057.92
393.33	1053.24
393.52	1008.77
393.71	1100.05
393.91	1034.52
394.10	1081.33
394.29	1165.59
394.49	1029.84
394.68	1107.07
394.88	1095.37
395.07	1184.31
395.26	1219.42
395.46	1172.61
395.65	1200.69
395.84	1191.33
396.04	1214.74
396.23	1196.01
396.42	1153.88
396.62	1270.91
396.81	1186.65
397.00	1219.42
397.19	1273.25
397.39	1226.44
397.58	1252.19
397.77	1259.21
397.97	1280.27
398.16	1263.89
398.35	1313.04
398.55	1294.32
398.74	1327.08
398.93	1427.73
399.12	1310.70
399.32	1329.42
399.51	1373.89
399.70	1392.62
399.90	1338.79
400.09	1362.19
400.28	1352.83
400.47	1385.60
400.67	1430.07
400.86	1366.87
401.05	1406.66
401.24	1418.36
401.44	1488.58
401.63	1418.36
401.82	1479.22
402.01	1451.13
402.21	1446.45
402.40	1418.36
402.59	1465.18
402.78	1460.49
402.97	1544.75
403.17	1476.88
403.36	1406.66
403.55	1568.16
403.74	1593.90
403.93	1568.16
404.13	1600.93
404.32	1582.20
404.51	1540.07
404.70	1654.76
404.89	1739.02
405.09	1626.67
405.28	1706.25
405.47	1823.28
405.66	1687.53
405.85	1617.31
406.05	1797.53
406.24	1767.10
406.43	1699.23
406.62	1743.70
406.81	1776.47
407.00	1717.95
407.20	1708.59
407.39	1776.47
407.58	1769.44
407.77	1949.67
407.96	1933.28
408.15	1923.92
408.34	1797.53
408.54	1823.28
408.73	1879.45
408.92	1865.41
409.11	1933.28
409.30	1949.67
409.49	1996.48
409.68	1916.90
409.87	2062.01
410.07	2059.67
410.26	1973.07
410.45	2143.93
410.64	2066.69
410.83	2090.10
411.02	2190.74
411.21	2127.55
411.40	2143.93
411.59	2282.02
411.78	2200.10
411.98	2279.68
412.17	2209.47
412.36	2244.57
412.55	2356.92
412.74	2342.88
412.93	2249.25
413.12	2282.02
413.31	2457.56
413.50	2422.45
413.69	2324.15
413.88	2605.02
414.07	2518.42
414.26	2548.84
414.45	2539.48
414.64	2502.03
414.83	2637.78
415.02	2546.50
415.22	2642.46
415.41	2647.15
415.60	2717.36
415.79	2593.31
415.98	2860.13
416.17	2665.87
416.36	2743.11
416.55	2686.94
416.74	2785.24
416.93	2799.28
417.12	2848.43
417.31	2796.94
417.50	2853.11
417.69	2827.37
417.88	2846.09
418.07	2925.67
418.26	2813.32
418.45	2899.92
418.64	3042.70
418.83	3054.40
419.02	3101.21
419.21	3098.87
419.39	3021.63
419.58	3103.55
419.77	3040.36
419.96	3096.53
420.15	3194.83
420.34	3105.89
420.53	3169.09
420.72	3155.04
420.91	3241.64
421.10	3283.77
421.29	3328.24
421.48	3304.84
421.67	3262.71
421.86	3260.37
422.05	3283.77
422.24	3258.03
422.43	3302.50
422.61	3274.41
422.80	3272.07
422.99	3297.81
423.18	3421.86
423.37	3503.78
423.56	3412.50
423.75	3393.78
423.94	3424.20
424.13	3241.64
424.32	3389.10
424.50	3363.35
424.69	3452.29
424.88	3566.98
425.07	3421.86
425.26	3363.35
425.45	3463.99
425.64	3365.69
425.83	3445.27
426.01	3578.68
426.20	3398.46
426.39	3386.76
426.58	3344.63
426.77	3478.04
426.96	3405.48
427.15	3433.57
427.33	3456.97
427.52	3379.73
427.71	3599.74
427.90	3585.70
428.09	3641.87
428.28	3676.98
428.46	3604.42
428.65	3534.21
428.84	3747.20
429.03	3871.25
429.22	3662.94
429.40	3606.77
429.59	3691.02
429.78	3609.11
429.97	3684.00
430.16	3681.66
430.34	3805.71
430.53	3791.67
430.72	3871.25
430.91	3868.91
431.10	3756.56
431.28	3920.40
431.47	3894.65
431.66	4032.74
431.85	3894.65
432.03	3889.97
432.22	4152.11
432.41	4084.23
432.60	3950.82
432.79	3922.74
432.97	4152.11
433.16	4065.51
433.35	4100.62
433.54	4070.19
433.72	4236.37
433.91	4159.13
434.10	4189.56
434.28	4187.22
434.47	4245.73
434.66	4117.00
434.85	4280.84
435.03	4280.84
435.22	4294.88
435.41	4383.82
435.59	4414.25
435.78	4472.76
435.97	4299.56
436.16	4454.04
436.34	4376.80
436.53	4390.84
436.72	4482.13
436.90	4376.80
437.09	4631.92
437.28	4531.28
437.46	4554.68
437.65	4484.47
437.84	4496.17
438.02	4524.26
438.21	4510.21
438.40	4503.19
438.58	4770.01
438.77	4779.37
438.96	4723.20
439.14	4748.95
439.33	4880.02
439.52	4884.70
439.70	4968.96
439.89	4966.62
440.08	4922.15
440.26	4873.00
440.45	5064.92
440.63	5064.92
440.82	5125.77
441.01	5116.41
441.19	5163.22
441.38	5188.97
441.57	5263.86
441.75	5320.04
441.94	5329.40
442.12	5350.46
442.31	5327.06
442.50	5366.85
442.68	5401.96
442.87	5359.83
443.05	5465.15
443.24	5488.56
443.43	5493.24
443.61	5593.88
443.80	5607.92
443.98	5444.09
444.17	5406.64
444.35	5568.13
444.54	5593.88
444.73	5423.02
444.91	5612.60
445.10	5647.71
445.28	5425.36
445.47	5570.48
445.65	5528.35
445.84	5724.95
446.02	5778.78
446.21	5570.48
446.39	5502.60
446.58	5844.32
446.77	5713.25
446.95	5710.91
447.14	5738.99
447.32	5809.21
447.51	5795.17
447.69	5722.61
447.88	5738.99
448.06	5795.17
448.25	5736.65
448.43	5788.14
448.62	5809.21
448.80	5762.40
448.99	5778.78
449.17	5783.46
449.36	5914.53
449.54	5963.68
449.73	6038.58
449.91	6108.80
450.10	6012.84
450.28	6134.54
450.46	5937.94
450.65	5907.51
450.83	6218.80
451.02	6078.37
451.20	6314.77
451.39	6197.74
451.57	6050.28
451.76	6054.97
451.94	6209.44
452.13	6279.66
452.31	6200.08
452.49	6193.06
452.68	6274.98
452.86	6211.78
453.05	6490.31
453.23	6345.19
453.42	6342.85
453.60	6354.55
453.78	6466.90
453.97	6593.29
454.15	6455.20
454.34	6270.30
454.52	6373.28
454.70	6548.82
454.89	6719.68
455.07	6551.16
455.26	6441.15
455.44	6649.46
455.62	6693.93
455.81	6612.01
455.99	6846.07
456.17	6787.55
456.36	6583.93
456.54	6808.62
456.73	6892.88
456.91	7080.12
457.09	7026.29
457.28	7105.87
457.46	6939.69
457.64	7035.65
457.83	6920.96
458.01	7012.24
458.19	6984.16
458.38	6993.52
458.56	7309.49
458.74	7382.05
458.93	7246.30
459.11	7110.55
459.29	7110.55
459.48	7279.07
459.66	7213.53
459.84	7117.57
460.03	7201.83
460.21	7370.35
460.39	7117.57
460.57	7311.83
460.76	7400.77
460.94	7398.43
461.12	7281.41
461.31	7566.95
461.49	7403.11
461.67	7499.08
461.85	7702.70
462.04	7541.21
462.22	8081.87
462.40	7712.07
462.59	7595.04
462.77	7573.97
462.95	7871.22
463.13	7702.70
463.32	7782.28
463.50	7784.62
463.68	7808.03
463.86	7941.44
464.05	7857.18
464.23	7943.78
464.41	7808.03
464.59	7786.96
464.78	8135.70
464.96	7936.76
465.14	7786.96
465.32	7892.29
465.50	7988.25
465.69	8112.30
465.87	8028.04
466.05	8325.29
466.23	8177.83
466.41	8145.06
466.60	8287.84
466.78	8056.12
466.96	8049.10
467.14	8180.17
467.32	8435.29
467.51	8280.82
467.69	8011.65
467.87	8322.94
468.05	8348.69
468.23	8346.35
468.41	8472.74
468.60	8365.07
468.78	8542.96
468.96	8451.67
469.14	8528.91
469.32	8512.53
469.50	8535.93
469.69	8507.85
469.87	8753.60
470.05	8683.39
470.23	8608.49
470.41	8697.43
470.59	8842.54
470.77	8631.90
470.95	8709.13
471.14	8840.20
471.32	8755.94
471.50	9142.13
471.68	9139.79
471.86	8992.34
472.04	8947.87
472.22	9137.45
472.40	8856.59
472.58	9167.88
472.77	9097.66
472.95	9252.14
473.13	9469.81
473.31	9397.25
473.49	9380.87
473.67	9535.34
473.85	9479.17
474.03	9652.37
474.21	9509.60
474.39	9848.97
474.57	9874.72
474.75	10015.15
474.93	9912.17
475.12	9865.36
475.30	9933.23
475.48	9898.13
475.66	10146.22
475.84	9949.62
476.02	10022.17
476.20	10127.50
476.38	10291.34
476.56	10600.29
476.74	10356.87
476.92	10476.24
477.10	10537.09
477.28	10670.50
477.46	10759.44
477.64	10635.39
477.82	10785.19
478.00	10876.47
478.18	10885.83
478.36	11080.10
478.54	11246.27
478.72	11445.22
478.90	11337.56
479.08	11461.60
479.26	11454.58
479.44	11627.78
479.62	11800.98
479.80	11735.45
479.98	11957.80
480.16	12231.64
480.34	11892.26
480.52	12248.02
480.70	12327.60
480.88	12074.82
481.06	12446.97
481.24	12561.66
481.41	12514.84
481.59	12702.09
481.77	12615.49
481.95	12578.04
482.13	12922.10
482.31	12784.01
482.49	13280.20
482.67	13364.46
482.85	13556.38
483.03	13551.70
483.21	13832.57
483.39	13895.76
483.57	13661.71
483.74	13973.00
483.92	13795.12
484.10	14038.53
484.28	14366.21
484.46	14277.27
484.64	14822.61
484.82	14312.38
485.00	14614.30
485.18	14806.23
485.35	14855.38
485.53	14789.85
485.71	15129.22
485.89	15585.63
486.07	15164.33
486.25	15297.74
486.43	15309.44
486.61	15875.85
486.78	15791.59
486.96	15726.06
487.14	15999.90
487.32	16355.66
487.50	16294.81
487.68	16353.32
487.85	16018.63
488.03	16772.28
488.21	16875.26
488.39	16938.46
488.57	17053.14
488.75	16802.71
488.92	17303.58
489.10	17371.46
489.28	17568.06
489.46	17678.07
489.64	17500.19
489.81	18190.64
489.99	17914.46
490.17	18033.83
490.35	18422.36
490.53	18459.81
490.70	18452.78
490.88	18200.01
491.06	18731.31
491.24	18857.70
491.41	19173.67
491.59	18899.83
491.77	18918.55
491.95	19267.29
492.13	19653.48
492.30	19681.56
492.48	19765.82
492.66	19597.31
492.84	20236.27
493.01	20013.92
493.19	19878.17
493.37	20126.27
493.54	20472.67
493.72	20561.61
493.90	20442.24
494.08	20711.40
494.25	21151.42
494.43	20903.32
494.61	21001.63
494.79	20823.75
494.96	21270.79
495.14	21439.31
495.32	21570.38
495.49	21310.58
495.67	21486.12
495.85	21722.51
496.02	21902.73
496.20	22307.65
496.38	22211.68
496.55	22181.26
496.73	22595.53
496.91	22539.36
497.09	22672.77
497.26	22700.86
497.44	22607.23
497.62	22705.54
497.79	23290.67
497.97	23414.72
498.14	23428.76
498.32	23510.68
498.50	23601.96
498.67	23761.12
498.85	23857.08
499.03	23903.89
499.20	24077.09
499.38	24140.29
499.56	24044.32
499.73	24460.94
499.91	24432.85
500.08	24636.48
500.26	24306.46
500.44	24673.93
500.61	24812.02
500.79	24748.82
500.97	24734.78
501.14	24938.41
501.32	25013.31
501.49	25092.88
501.67	25153.74
501.84	25692.06
502.02	25113.95
502.20	25474.39
502.37	25380.77
502.55	25586.74
502.72	25736.53
502.90	26099.31
503.07	25867.60
503.25	25825.47
503.43	25806.75
503.60	26338.05
503.78	26324.01
503.95	26082.93
504.13	26167.19
504.30	26251.45
504.48	26567.42
504.65	26455.08
504.83	26899.78
505.01	27253.20
505.18	26700.83
505.36	27314.05
505.53	27143.19
505.71	26958.29
505.88	27487.25
506.06	27178.30
506.23	27370.22
506.41	27433.42
506.58	27524.70
506.76	27573.85
506.93	27730.67
507.11	27817.27
507.28	28067.70
507.46	28030.26
507.63	28154.30
507.81	28306.44
507.98	27789.18
508.16	28210.48
508.33	28278.35
508.50	28414.10
508.68	28638.80
508.85	28737.10
509.03	28701.99
509.20	28910.30
509.38	29261.38
509.55	29158.39
509.73	29125.63
509.90	29359.68
510.08	29537.56
510.25	29479.05
510.42	29329.25
510.60	29364.36
510.77	29731.83
510.95	29951.84
511.12	29649.91
511.30	29823.11
511.47	30155.46
511.64	29504.79
511.82	30015.03
511.99	30045.46
512.17	30078.22
512.34	30125.04
512.51	30705.49
512.69	30890.39
512.86	30583.78
513.04	30745.28
513.21	31000.40
513.38	31182.96
513.56	30691.44
513.73	30876.35
513.90	30761.66
514.08	30808.47
514.25	31285.94
514.43	31412.33
514.60	31704.90
514.77	31299.98
514.95	31278.92
515.12	31517.65
515.29	31501.27
515.47	31578.51
515.64	31868.73
515.81	31693.19
515.99	32266.63
516.16	32128.53
516.33	32006.83
516.51	32664.52
516.68	31976.40
516.85	32432.80
517.03	32823.67
517.20	32580.26
517.37	32364.93
517.54	32519.40
517.72	32500.68
517.89	32706.65
518.06	32879.85
518.24	32807.29
518.41	32725.37
518.58	32826.01
518.75	32645.79
518.93	33170.07
519.10	33125.60
519.27	33207.52
519.45	33116.24
519.62	33266.03
519.79	33497.75
519.96	33572.64
520.14	33869.89
520.31	33750.52
520.48	33820.74
520.65	33963.51
520.83	34092.24
521.00	33993.94
521.17	34206.93
521.34	33956.49
521.52	34391.83
521.69	34675.04
521.86	34433.96
522.03	34473.75
522.20	34412.90
522.38	35175.91
522.55	34735.89
522.72	34623.54
522.89	34831.85
523.07	35033.14
523.24	34981.65
523.41	35281.24
523.58	35072.93
523.75	35187.61
523.92	35211.02
524.10	35363.15
524.27	35501.25
524.44	35229.74
524.61	36046.59
524.78	35667.42
524.96	35812.54
525.13	36114.47
525.30	35943.61
525.47	35700.19
525.64	36037.23
525.81	36184.68
525.98	35924.88
526.16	36222.13
526.33	35974.03
526.50	36486.61
526.67	36318.09
526.84	36229.15
527.01	35995.10
527.18	36807.26
527.36	36505.34
527.53	36266.60
527.70	37099.83
527.87	37001.53
528.04	36800.24
528.21	36549.81
528.38	36488.95
528.55	37188.77
528.72	37017.91
528.89	37476.66
529.07	37006.21
529.24	37338.57
529.41	37214.52
529.58	37376.01
529.75	36950.04
529.92	37551.56
530.09	37216.86
530.26	37776.25
530.43	37331.54
530.60	37038.98
530.77	37750.50
530.94	37879.23
531.11	37696.67
531.28	37893.27
531.46	37818.38
531.63	37804.33
531.80	37998.60
531.97	37778.59
532.14	37841.78
532.31	38050.09
532.48	38206.90
532.65	38415.21
532.82	38337.98
532.99	38312.23
533.16	38155.41
533.33	38143.71
533.50	38326.27
533.67	38249.03
533.84	38075.84
534.01	38845.87
534.18	38663.31
534.35	38670.33
534.52	39122.05
534.69	39203.97
534.86	38906.73
535.03	39079.92
535.20	39002.69
535.37	39531.65
535.54	39332.70
535.71	39330.36
535.88	39335.04
536.05	39583.14
536.22	39608.89
536.38	39363.13
536.55	39407.60
536.72	39402.92
536.89	39508.24
537.06	39648.68
537.23	39828.90
537.40	39548.03
537.57	39449.73
537.74	39707.19
537.91	39831.24
538.08	39629.95
538.25	39143.12
538.42	39927.20
538.59	39714.21
538.75	40175.30
538.92	40348.50
539.09	40584.89
539.26	40294.66
539.43	40322.75
539.60	40561.48
539.77	40313.39
539.94	40509.99
540.11	40414.03
540.28	40676.17
540.44	40722.98
540.61	40247.85
540.78	40685.53
540.95	40414.03
541.12	40589.57
541.29	40425.73
541.46	40945.33
541.62	40851.71
541.79	40898.52
541.96	40474.88
542.13	40793.20
542.30	40882.14
542.47	41146.62
542.63	40814.26
542.80	41326.84
542.97	41762.18
543.14	41839.42
543.31	41677.92
543.48	41209.81
543.64	42218.58
543.81	42047.72
543.98	41808.99
544.15	41535.15
544.32	41773.88
544.48	42073.47
544.65	42000.91
544.82	41921.34
544.99	41834.74
545.16	42164.75
545.32	42120.28
545.49	42309.86
545.66	42586.05
545.83	42333.27
546.00	42344.97
546.16	41947.08
546.33	42106.24
546.50	42178.79
546.67	42614.13
546.83	42031.34
547.00	42195.18
547.17	42581.37
547.34	42462.00
547.50	42632.86
547.67	42684.35
547.84	42328.59
548.00	42724.14
548.17	43030.75
548.34	43124.37
548.51	43255.44
548.67	43037.77
548.84	42590.73
549.01	42817.76
549.18	42752.23
549.34	43569.07
549.51	43229.69
549.68	43447.36
549.84	43288.21
550.01	43033.09
550.18	43124.37
550.34	43164.16
550.51	43742.27
550.68	44168.25
550.84	42782.65
551.01	43871.00
551.18	43440.34
551.34	43660.35
551.51	43711.84
551.68	43398.21
551.84	43503.54
552.01	43374.81
552.18	43810.15
552.34	43419.28
552.51	44027.82
552.68	43545.67
552.84	43555.03
553.01	43995.05
553.18	44072.29
553.34	43763.34
553.51	43452.05
553.67	43805.47
553.84	44105.06
554.01	43702.48
554.17	44081.65
554.34	44470.18
554.51	44275.91
554.67	44580.18
554.84	44341.45
555.00	44362.51
555.17	43941.22
555.33	44397.62
555.50	44313.36
555.67	44219.74
555.83	44439.75
556.00	44617.63
556.16	44779.13
556.33	44678.49
556.50	44844.66
556.66	44676.15
556.83	44488.90
556.99	44561.46
557.16	44828.28
557.32	45052.97
557.49	44741.68
557.65	44772.11
557.82	44552.10
557.98	44917.22
558.15	45038.93
558.32	44917.22
558.48	44446.77
558.65	44926.58
558.81	44947.65
558.98	44837.64
559.14	44634.02
559.31	45233.19
559.47	45132.55
559.64	45453.20
559.80	45029.57
559.97	45303.41
560.13	44870.41
560.30	45048.29
560.46	45705.98
560.63	45603.00
560.79	45368.94
560.96	45708.32
561.12	45350.22
561.29	45488.31
561.45	45595.98
561.61	45179.36
561.78	45202.77
561.94	45085.74
562.11	45291.71
562.27	45853.44
562.44	45434.48
562.60	45284.68
562.77	45682.58
562.93	45694.28
563.10	45593.64
563.26	45537.46
563.42	46241.96
563.59	45469.59
563.75	45441.50
563.92	45652.15
564.08	45610.02
564.24	45790.24
564.41	45638.11
564.57	45811.31
564.74	45628.74
564.90	45317.45
565.07	45790.24
565.23	45656.83
565.39	46031.32
565.56	45713.00
565.72	46220.90
565.88	46059.40
566.05	45553.85
566.21	45794.92
566.38	46096.85
566.54	45827.69
566.70	45862.80
566.87	45982.16
567.03	45715.34
567.19	46412.82
567.36	46054.72
567.52	46108.55
567.68	46492.40
567.85	46344.95
568.01	46557.94
568.17	45837.05
568.34	46476.02
568.50	46302.82
568.66	45947.06
568.83	46178.77
568.99	46202.18
569.15	46424.53
569.32	46473.68
569.48	46244.30
569.64	46185.79
569.81	46469.00
569.97	46534.53
570.13	46417.50
570.30	45947.06
570.46	46103.87
570.62	46454.95
570.78	46391.76
570.95	46562.62
571.11	46656.24
571.27	46396.44
571.43	46209.20
571.60	46525.17
571.76	46082.81
571.92	46415.16
572.09	46293.46
572.25	46464.32
572.41	46405.80
572.57	46726.46
572.74	47077.54
572.90	46555.60
573.06	46686.67
573.22	46700.71
573.38	46515.81
573.55	46522.83
573.71	47147.75
573.87	46581.34
574.03	46265.37
574.20	47105.62
574.36	46862.21
574.52	46543.89
574.68	46663.26
574.84	46787.31
575.01	46714.75
575.17	46871.57
575.33	46724.11
575.49	46574.32
575.65	46733.48
575.82	47173.50
575.98	46333.24
576.14	47295.21
576.30	47180.52
576.46	46649.22
576.62	46590.70
576.79	46534.53
576.95	46656.24
577.11	46763.90
577.27	46258.35
577.43	46426.87
577.59	46703.05
577.75	46780.29
577.92	46651.56
578.08	46997.96
578.24	46749.86
578.40	47089.24
578.56	46962.85
578.72	46604.75
578.88	47140.73
579.04	46520.49
579.21	46979.23
579.37	46735.82
579.53	46834.12
579.69	46490.06
579.85	47019.02
580.01	46911.36
580.17	46822.42
580.33	46740.50
580.49	46909.02
580.65	47082.22
580.82	46609.43
580.98	46621.13
581.14	46501.76
581.30	47257.76
581.46	46810.71
581.62	46883.27
581.78	46979.23
581.94	46602.41
582.10	46791.99
582.26	46862.21
582.42	46815.40
582.58	47416.91
582.74	47086.90
582.90	46801.35
583.06	47063.49
583.22	46876.25
583.38	47133.71
583.54	47037.75
583.70	47000.30
583.86	47213.29
584.02	47274.14
584.18	47171.16
584.34	47023.70
584.50	47175.84
584.66	47058.81
584.82	46962.85
584.98	47557.35
585.14	47007.32
585.30	47105.62
585.46	47004.98
585.62	46777.95
585.78	47103.28
585.94	47033.07
586.10	47316.27
586.26	46625.81
586.42	47309.25
586.58	46794.33
586.74	47166.48
586.90	46953.49
587.06	47290.52
587.22	47224.99
587.38	47133.71
587.54	47028.38
587.70	47367.76
587.86	47278.82
588.02	46789.65
588.18	47082.22
588.34	46937.10
588.49	47311.59
588.65	46972.21
588.81	47334.99
588.97	47274.14
589.13	47344.36
589.29	47084.56
589.45	47828.85
589.61	47662.67
589.77	47498.83
589.93	47395.85
590.08	47519.90
590.24	47459.04
590.40	47767.99
590.56	48006.73
590.72	47662.67
590.88	47391.17
591.04	47672.03
591.20	48170.57
591.35	47316.27
591.51	47892.04
591.67	47770.33
591.83	47969.28
591.99	47545.64
592.15	47508.19
592.31	47445.00
592.46	47571.39
592.62	47501.17
592.78	47833.53
592.94	47676.71
593.10	47938.85
593.26	48137.80
593.41	48119.07
593.57	47632.24
593.73	48065.24
593.89	47950.56
594.05	48086.31
594.20	48226.74
594.36	47929.49
594.52	48016.09
594.68	48119.07
594.84	47782.04
594.99	47817.14
595.15	47629.90
595.31	47990.34
595.47	47779.70
595.62	47412.23
595.78	47732.89
595.94	47585.43
596.10	47749.27
596.25	48011.41
596.41	47704.80
596.57	48165.88
596.73	48250.14
596.88	47821.83
597.04	48147.16
597.20	47810.12
597.36	47786.72
597.51	48018.43
597.67	47681.39
597.83	47735.23
597.99	47480.11
598.14	48191.63
598.30	47742.25
598.46	47648.63
598.61	48107.37
598.77	48095.67
598.93	48058.22
599.09	48046.52
599.24	48025.45
599.40	47901.40
599.56	48252.48
599.71	48367.17
599.87	48631.65
600.03	48210.35
600.18	48233.76
600.34	48556.75
600.50	48011.41
600.65	48168.22
600.81	48191.63
600.97	48774.42
601.12	48322.70
601.28	48119.07
601.44	48208.01
601.59	48062.90
601.75	48067.58
601.91	48264.19
602.06	47807.78
602.22	48402.28
602.37	48147.16
602.53	48273.55
602.69	48133.12
602.84	48081.63
603.00	47927.15
603.16	48460.79
603.31	48051.20
603.47	48093.33
603.62	48123.75
603.78	48123.75
603.94	47896.72
604.09	47693.10
604.25	48257.17
604.40	47814.80
604.56	48041.84
604.71	48385.89
604.87	47887.36
605.03	47618.20
605.18	47894.38
605.34	47957.58
605.49	47842.89
605.65	48151.84
605.80	47639.26
605.96	48182.27
606.12	48247.80
606.27	48076.94
606.43	47828.85
606.58	48032.47
606.74	47737.57
606.89	48083.97
607.05	47922.47
607.20	48002.05
607.36	47983.32
607.51	48027.79
607.67	47892.04
607.82	47676.71
607.98	47980.98
608.13	47800.76
608.29	47978.64
608.44	47793.74
608.60	47784.38
608.75	47845.23
608.91	47835.87
609.06	47728.20
609.22	47978.64
609.37	47861.61
609.53	48065.24
609.68	47976.30
609.84	47224.99
609.99	48121.41
610.15	47847.57
610.30	47896.72
610.46	47978.64
610.61	47423.93
610.76	48109.71
610.92	47473.09
611.07	47304.57
611.23	47562.03
611.38	47517.56
611.54	47845.23
611.69	47543.30
611.84	48149.50
612.00	47620.54
612.15	47454.36
612.31	47756.29
612.46	47009.66
612.62	47484.79
612.77	47311.59
612.92	47597.13
613.08	47393.51
613.23	47665.01
613.39	47494.15
613.54	46850.50
613.69	47344.36
613.85	47330.31
614.00	47079.88
614.15	47810.12
614.31	47466.06
614.46	47077.54
614.62	47358.40
614.77	47608.84
614.92	47210.95
615.08	47182.86
615.23	47587.77
615.38	47342.02
615.54	47381.80
615.69	47208.61
615.84	47398.19
616.00	47201.58
616.15	47440.32
616.30	47543.30
616.46	47292.86
616.61	47058.81
616.76	46930.08
616.92	46829.44
617.07	47283.50
617.22	46958.17
617.37	47103.28
617.53	47157.11
617.68	46719.43
617.83	47138.39
617.99	47178.18
618.14	47030.72
618.29	46911.36
618.45	46721.77
618.60	46892.63
618.75	46461.97
618.90	46995.62
619.06	47000.30
619.21	46796.67
619.36	46979.23
619.51	46747.52
619.67	46417.50
619.82	46485.38
619.97	46958.17
620.12	46202.18
620.28	47318.61
620.43	47243.71
620.58	47152.43
620.73	47019.02
620.89	46862.21
621.04	46698.37
621.19	46630.49
621.34	46632.83
621.49	46054.72
621.65	46625.81
621.80	46604.75
621.95	46241.96
622.10	46642.20
622.25	46483.04
622.41	46562.62
622.56	46405.80
622.71	46447.93
622.86	46691.35
623.01	46457.29
623.16	46363.67
623.32	46251.33
623.47	46529.85
623.62	46263.03
623.77	46270.05
623.92	46579.00
624.07	46330.90
624.23	46770.93
624.38	46326.22
624.53	45771.52
624.68	45825.35
624.83	45986.85
624.98	46017.27
625.13	45855.78
625.29	45581.93
625.44	46010.25
625.59	45956.42
625.74	45776.20
625.89	45696.62
626.04	46054.72
626.19	46003.23
626.34	45734.07
626.49	45488.31
626.65	45549.17
626.80	45675.55
626.95	45514.06
627.10	45184.04
627.25	45851.09
627.40	45649.81
627.55	45603.00
627.70	45439.16
627.85	45743.43
628.00	45610.02
628.15	45628.74
628.30	45226.17
628.45	45310.43
628.60	44926.58
628.76	45191.06
628.91	45485.97
629.06	45067.02
629.21	45045.95
629.36	45113.83
629.51	45366.60
629.66	45439.16
629.81	45455.54
629.96	45020.20
630.11	45017.86
630.26	44851.69
630.41	45008.50
630.56	45378.31
630.71	45514.06
630.86	45090.42
631.01	44526.35
631.16	44765.09
631.31	45586.61
631.46	44919.56
631.61	45427.46
631.76	44942.97
631.91	45254.26
632.06	45291.71
632.21	45326.81
632.36	45111.49
632.51	44624.65
632.66	45071.70
632.81	45085.74
632.96	44727.64
633.10	44940.63
633.25	44875.09
633.40	44552.10
633.55	45312.77
633.70	44875.09
633.85	44477.20
634.00	44477.20
634.15	44369.54
634.30	44671.46
634.45	44329.75
634.60	44362.51
634.75	44320.38
634.90	44325.07
635.05	44456.14
635.19	44531.03
635.34	44732.32
635.49	44636.36
635.64	44673.81
635.79	44683.17
635.94	44360.17
636.09	43978.67
636.24	44589.55
636.39	44257.19
636.53	44479.54
636.68	44191.65
636.83	44016.11
636.98	44105.06
637.13	43608.86
637.28	43672.06
637.43	43515.24
637.57	44123.78
637.72	43878.02
637.87	43501.20
638.02	44055.90
638.17	43770.36
638.32	43840.57
638.46	43646.31
638.61	43477.79
638.76	43880.36
638.91	43786.74
639.06	43721.21
639.20	43779.72
639.35	43344.38
639.50	43309.27
639.65	43683.76
639.80	43400.55
639.94	43545.67
640.09	43540.99
640.24	43571.41
640.39	43091.60
640.54	43042.45
640.68	43150.12
640.83	43423.96
640.98	43395.87
641.13	43370.13
641.27	43849.94
641.42	43262.46
641.57	43309.27
641.72	43627.59
641.86	43091.60
642.01	42974.58
642.16	42721.80
642.31	42988.62
642.45	43491.83
642.60	43014.37
642.75	43075.22
642.90	43494.18
643.04	43302.25
643.19	42843.51
643.34	42700.73
643.48	42979.26
643.63	42646.90
643.78	43044.79
643.93	43328.00
644.07	42630.52
644.22	42794.36
644.37	42976.92
644.51	43079.90
644.66	43117.35
644.81	42660.94
644.95	43089.26
645.10	42941.81
645.25	42553.28
645.39	42630.52
645.54	42319.23
645.69	42003.25
645.83	42197.52
645.98	42459.66
646.13	42408.17
646.27	42761.59
646.42	42227.95
646.57	42579.03
646.71	42286.46
646.86	42541.58
647.00	42499.45
647.15	42377.74
647.30	42087.51
647.44	42410.51
647.59	42401.14
647.74	42366.04
647.88	42429.23
648.03	42464.34
648.17	42419.87
648.32	42181.13
648.47	42710.10
648.61	42047.72
648.76	41883.89
648.90	41942.40
649.05	41949.42
649.20	42469.02
649.34	41918.99
649.49	42234.97
649.63	42241.99
649.78	42153.05
649.92	42295.82
650.07	42323.91
650.21	42192.84
650.36	42267.73
650.51	41879.21
650.65	42419.87
650.80	42424.55
650.94	42066.45
651.09	41911.97
651.23	41319.82
651.38	41617.07
651.52	41670.90
651.67	41600.68
651.81	41214.49
651.96	41471.95
652.10	41333.86
652.25	41387.69
652.39	41481.31
652.54	41296.41
652.68	41457.91
652.83	41378.33
652.97	41647.49
653.12	41460.25
653.26	41827.71
653.41	41338.54
653.55	42029.00
653.70	41483.66
653.84	41750.48
653.99	41666.22
654.13	41198.11
654.27	41373.65
654.42	41476.63
654.56	41053.00
654.71	41352.58
654.85	40950.01
655.00	41111.51
655.14	41352.58
655.29	41497.70
655.43	41338.54
655.57	40545.10
655.72	41031.93
655.86	40994.48
656.01	40751.07
656.15	40463.18
656.30	40893.84
656.44	41006.19
656.58	41038.95
656.73	41163.00
656.87	40088.70
657.01	40549.78
657.16	40840.01
657.30	40917.25
657.45	40818.94
657.59	40505.31
657.73	40479.57
657.88	40128.48
658.02	41060.02
658.16	40582.55
658.31	40502.97
658.45	40542.76
658.60	40250.19
658.74	40311.05
658.88	40390.62
659.03	40470.20
659.17	40264.24
659.31	39922.52
659.46	39941.24
659.60	40304.02
659.74	39880.39
659.89	39622.93
660.03	39655.70
660.17	39651.02
660.32	39700.17
660.46	39793.79
660.60	39374.83
660.74	39833.58
660.89	39999.76
661.03	39658.04
661.17	39353.77
661.32	39735.27
661.46	39651.02
661.60	39178.23
661.74	39351.43
661.89	39695.49
662.03	39084.61
662.17	39054.18
662.31	39072.90
662.46	39115.03
662.60	38829.49
662.74	38618.84
662.88	38569.69
663.03	38405.85
663.17	39075.24
663.31	38689.06
663.45	39030.77
663.60	38899.70
663.74	38389.47
663.88	38574.37
664.02	38293.50
664.17	38925.45
664.31	38349.68
664.45	38146.05
664.59	37984.55
664.73	38167.12
664.88	38635.22
665.02	38429.26
665.16	38586.07
665.30	38274.78
665.44	38141.37
665.59	37986.89
665.73	37827.74
665.87	37619.43
666.01	37626.45
666.15	37745.82
666.29	37970.51
666.44	37460.27
666.58	37673.26
666.72	37207.50
666.86	37450.91
667.00	37535.17
667.14	37130.26
667.28	37443.89
667.43	37359.63
667.57	37542.19
667.71	37413.46
667.85	37497.72
667.99	37123.24
668.13	36893.86
668.27	37188.77
668.41	36666.83
668.56	36121.49
668.70	36395.33
668.84	36446.82
668.98	36245.54
669.12	36734.71
669.26	36774.50
669.40	36631.72
669.54	36364.90
669.68	36540.44
669.82	36114.47
669.96	35915.52
670.10	35875.73
670.25	35969.35
670.39	36198.73
670.53	36102.76
670.67	36034.89
670.81	35997.44
670.95	36133.19
671.09	35859.35
671.23	35573.80
671.37	35098.67
671.51	35407.62
671.65	35428.69
671.79	35365.49
671.93	35388.90
672.07	35573.80
672.21	35068.25
672.35	34752.27
672.49	35435.71
672.63	35559.76
672.77	34644.61
672.91	35079.95
673.05	34504.18
673.19	34368.43
673.33	34529.92
673.47	34593.12
673.61	34412.90
673.75	34125.01
673.89	34092.24
674.03	34197.57
674.17	34134.37
674.31	33741.16
674.45	33640.52
674.59	34022.03
674.73	33954.15
674.87	33324.55
675.01	33596.05
675.15	32732.39
675.29	33266.03
675.43	33708.40
675.56	33422.85
675.70	33144.33
675.84	32947.72
675.98	31775.11
676.12	33010.92
676.26	32971.13
676.40	32589.62
676.54	32680.90
676.68	32168.32
676.82	32259.60
676.96	32725.37
677.10	32142.58
677.23	31934.27
677.37	32397.70
677.51	32058.32
677.65	31990.44
677.79	31847.67
677.93	31971.72
678.07	31847.67
678.21	31302.32
678.34	31482.55
678.48	31152.53
678.62	31267.22
678.76	31192.32
678.90	30932.52
679.04	30700.81
679.18	31365.52
679.31	30899.75
679.45	30480.80
679.59	30389.52
679.73	30543.99
679.87	30583.78
680.00	30476.12
680.14	30239.72
680.28	30452.71
680.42	30363.77
680.56	30118.01
680.70	29448.62
680.83	29900.34
680.97	29839.49
681.11	29577.35
681.25	29436.92
681.39	29104.56
681.52	29095.20
681.66	28973.49
681.80	28903.28
681.94	28606.03
682.07	28479.64
682.21	28620.07
682.35	28554.54
682.49	28395.38
682.62	28582.62
682.76	28741.78
682.90	28362.61
683.04	28287.71
683.17	27953.02
683.31	28020.89
683.45	27955.36
683.59	27583.21
683.72	27550.45
683.86	27417.04
684.00	27798.54
684.13	27700.24
684.27	27227.45
684.41	27021.48
684.55	27019.14
684.68	27283.62
684.82	26761.69
684.96	26803.82
685.09	26661.04
685.23	26740.62
685.37	27379.59
685.50	26923.18
685.64	26419.97
685.78	26274.85
685.91	26373.16
686.05	26001.01
686.19	25415.88
686.32	25858.24
686.46	25790.36
686.60	25275.45
686.73	25460.35
686.87	25441.62
687.01	25811.43
687.14	25357.36
687.28	25324.60
687.42	25142.03
687.55	24999.26
687.69	25046.07
687.82	24795.64
687.96	24423.49
688.10	24692.65
688.23	24592.01
688.37	24893.94
688.50	24802.66
688.64	24734.78
688.78	24346.25
688.91	24418.81
689.05	24112.20
689.18	23850.06
689.32	23690.90
689.46	23396.00
689.59	23604.30
689.73	23887.51
689.86	23772.82
690.00	23484.94
690.13	23601.96
690.27	23367.91
690.41	23388.97
690.54	23007.47
690.68	22953.63
690.81	22867.03
690.95	22497.23
691.08	22455.10
691.22	22658.73
691.35	22424.67
691.49	22473.82
691.62	22223.39
691.76	21865.28
691.89	22207.00
692.03	21542.29
692.16	21682.72
692.30	21600.80
692.43	21701.45
692.57	21516.54
692.70	21603.14
692.84	21212.28
692.97	21191.21
693.11	20893.96
693.24	21252.06
693.38	21181.85
693.51	20996.95
693.65	20978.22
693.78	20786.30
693.92	20397.77
694.05	20718.42
694.19	20737.15
694.32	20306.49
694.45	20496.07
694.59	20498.41
694.72	20243.29
694.86	20266.70
694.99	20142.65
695.13	19913.28
695.26	19587.94
695.39	19559.86
695.53	19672.20
695.66	19644.12
695.80	19374.95
695.93	19529.43
696.07	19250.91
696.20	19019.19
696.33	19159.63
696.47	18829.61
696.60	19138.56
696.73	18923.23
696.87	18876.42
697.00	18752.37
697.14	18523.00
697.27	18398.95
697.40	18544.06
697.54	18501.93
697.67	18207.03
697.80	18380.23
697.94	18160.22
698.07	18176.60
698.21	17975.31
698.34	17944.89
698.47	17799.77
698.61	17425.29
698.74	17434.65
698.87	17434.65
699.01	17467.42
699.14	17198.26
699.27	17186.55
699.40	17322.30
699.54	17135.06
699.67	17216.98
699.80	17071.87
699.94	16772.28
700.07	16959.52
700.20	16685.68
700.34	16624.83
700.47	16624.83
700.60	16563.97
700.73	16517.16
700.87	16540.57
701.00	16311.19
701.13	16126.29
701.26	15761.17
701.40	16002.24
701.53	15815.00
701.66	15782.23
701.79	15800.96
701.93	15646.48
702.06	15442.85
702.19	15403.07
702.32	15662.86
702.46	15721.38
702.59	15489.67
702.72	15627.76
702.85	15499.03
702.99	15351.57
703.12	15201.78
703.25	14970.07
703.38	14782.82
703.51	14649.41
703.65	14684.52
703.78	14478.55
703.91	14380.25
704.04	14422.38
704.17	14438.76
704.31	14562.81
704.44	14265.57
704.57	14141.52
704.70	14134.50
704.83	14328.76
704.96	14005.77
705.10	13895.76
705.23	13963.64
>>>>>End Processed Spectral Data<<<<<
