SpectraSuite Data File
++++++++++++++++++++++++++++++++++++
Date: Fri Oct 25 10:43:58 EDT 2013
User: price-jones
Dark Spectrum Present: No
Reference Spectrum Present: No
Number of Sampled Component Spectra: 1
Spectrometers: USB2+H05261
Integration Time (usec): 100000 (USB2+H05261)
Spectra Averaged: 1 (USB2+H05261)
Boxcar Smoothing: 0 (USB2+H05261)
Correct for Electrical Dark: No (USB2+H05261)
Strobe/Lamp Enabled: No (USB2+H05261)
Correct for Detector Non-linearity: No (USB2+H05261)
Correct for Stray Light: No (USB2+H05261)
Number of Pixels in Processed Spectrum: 2048
>>>>>Begin Processed Spectral Data<<<<<
365.73	98.30
365.92	98.30
366.12	98.30
366.32	35.11
366.52	21.06
366.72	28.09
366.91	91.28
367.11	32.77
367.31	77.24
367.51	0.00
367.70	4.68
367.90	0.00
368.10	56.17
368.30	51.49
368.49	0.00
368.69	91.28
368.89	9.36
369.09	112.35
369.28	60.85
369.48	14.04
369.68	39.79
369.87	0.00
370.07	18.72
370.27	110.01
370.47	215.33
370.66	337.04
370.86	449.38
371.06	486.83
371.25	458.74
371.45	402.57
371.65	526.62
371.84	486.83
372.04	482.15
372.24	477.47
372.44	486.83
372.63	454.06
372.83	510.24
373.03	447.04
373.22	454.06
373.42	521.94
373.62	514.92
373.81	554.71
374.01	545.34
374.21	671.73
374.40	519.60
374.60	538.32
374.79	571.09
374.99	702.16
375.19	557.05
375.38	601.52
375.58	617.90
375.78	540.66
375.97	603.86
376.17	674.07
376.37	650.67
376.56	674.07
376.76	596.84
376.95	573.43
377.15	617.90
377.35	753.65
377.54	671.73
377.74	692.80
377.93	629.60
378.13	631.94
378.33	711.52
378.52	681.10
378.72	629.60
378.91	603.86
379.11	594.50
379.31	582.79
379.50	596.84
379.70	695.14
379.89	748.97
380.09	716.20
380.28	655.35
380.48	713.86
380.68	709.18
380.87	788.76
381.07	786.42
381.26	711.52
381.46	713.86
381.65	699.82
381.85	685.78
382.04	648.33
382.24	739.61
382.43	758.33
382.63	704.50
382.83	739.61
383.02	744.29
383.22	725.57
383.41	777.06
383.61	758.33
383.80	795.78
384.00	744.29
384.19	798.12
384.39	842.59
384.58	786.42
384.78	748.97
384.97	812.17
385.17	784.08
385.36	875.36
385.56	866.00
385.75	723.23
385.95	856.64
386.14	866.00
386.34	798.12
386.53	823.87
386.72	856.64
386.92	894.08
387.11	870.68
387.31	868.34
387.50	880.04
387.70	795.78
387.89	863.66
388.09	980.68
388.28	919.83
388.48	847.27
388.67	929.19
388.86	938.55
389.06	938.55
389.25	980.68
389.45	968.98
389.64	936.21
389.84	915.15
390.03	964.30
390.22	1025.15
390.42	954.94
390.61	1029.84
390.81	1013.45
391.00	1146.86
391.19	1095.37
391.39	1008.77
391.58	1118.78
391.78	1001.75
391.97	1107.07
392.16	990.05
392.36	1041.54
392.55	1041.54
392.75	957.28
392.94	1022.81
393.13	1004.09
393.33	950.26
393.52	1043.88
393.71	1142.18
393.91	1064.94
394.10	1163.25
394.29	1191.33
394.49	1146.86
394.68	1231.12
394.88	1275.59
395.07	1226.44
395.26	1294.32
395.46	1212.40
395.65	1205.38
395.84	1277.93
396.04	1242.82
396.23	1153.88
396.42	1116.44
396.62	1156.22
396.81	1238.14
397.00	1231.12
397.19	1261.55
397.39	1359.85
397.58	1401.98
397.77	1336.45
397.97	1448.79
398.16	1432.41
398.35	1472.20
398.55	1495.60
398.74	1577.52
398.93	1582.20
399.12	1516.67
399.32	1528.37
399.51	1579.86
399.70	1586.88
399.90	1549.43
400.09	1610.29
400.28	1640.72
400.47	1607.95
400.67	1636.03
400.86	1687.53
401.05	1659.44
401.24	1586.88
401.44	1753.06
401.63	1776.47
401.82	1771.79
402.01	1696.89
402.21	1746.04
402.40	1774.13
402.59	1715.61
402.78	1825.62
402.97	1813.92
403.17	1818.60
403.36	1919.24
403.55	1818.60
403.74	1895.83
403.93	1856.04
404.13	1851.36
404.32	1816.26
404.51	1851.36
404.70	1956.69
404.89	1870.09
405.09	1994.14
405.28	2017.54
405.47	2064.35
405.66	1865.41
405.85	1966.05
406.05	1987.11
406.24	1961.37
406.43	2022.22
406.62	2024.56
406.81	2202.44
407.00	1944.99
407.20	1963.71
407.39	2012.86
407.58	2267.98
407.77	2160.31
407.96	2214.15
408.15	2326.49
408.34	2284.36
408.54	2251.60
408.73	2279.68
408.92	2214.15
409.11	2366.28
409.30	2270.32
409.49	2284.36
409.68	2232.87
409.87	2359.26
410.07	2312.45
410.26	2434.16
410.45	2319.47
410.64	2387.35
410.83	2523.10
411.02	2551.18
411.21	2534.80
411.40	2590.97
411.59	2670.55
411.78	2609.70
411.98	2612.04
412.17	2623.74
412.36	2670.55
412.55	2750.13
412.74	2705.66
412.93	2843.75
413.12	2738.43
413.31	2846.09
413.50	2843.75
413.69	2820.35
413.88	2881.20
414.07	2916.31
414.26	2920.99
414.45	3030.99
414.64	3040.36
414.83	3038.02
415.02	2958.44
415.22	3056.74
415.41	3131.64
415.60	3239.30
415.79	3197.17
415.98	3265.05
416.17	3218.24
416.36	3290.79
416.55	3211.22
416.74	3283.77
416.93	3213.56
417.12	3365.69
417.31	3379.73
417.50	3379.73
417.69	3588.04
417.88	3501.44
418.07	3597.40
418.26	3531.87
418.45	3452.29
418.64	3644.21
418.83	3667.62
419.02	3639.53
419.21	3726.13
419.39	3658.26
419.58	3585.70
419.77	3508.46
419.96	3705.07
420.15	3721.45
420.34	3812.73
420.53	3721.45
420.72	3885.29
420.91	3864.22
421.10	3803.37
421.29	3798.69
421.48	3882.95
421.67	3817.41
421.86	3878.27
422.05	3901.67
422.24	3878.27
422.43	3810.39
422.61	3920.40
422.80	3868.91
422.99	3927.42
423.18	3999.98
423.37	4065.51
423.56	4035.08
423.75	3976.57
423.94	4056.15
424.13	3740.18
424.32	3808.05
424.50	3976.57
424.69	3974.23
424.88	4166.15
425.07	3904.01
425.26	3866.56
425.45	4049.13
425.64	3815.07
425.83	4102.96
426.01	4035.08
426.20	4084.23
426.39	4234.03
426.58	4074.87
426.77	3981.25
426.96	4053.81
427.15	4098.28
427.33	4077.21
427.52	4290.20
427.71	4308.93
427.90	4138.07
428.09	4304.25
428.28	4227.01
428.46	4252.75
428.65	4210.62
428.84	4322.97
429.03	4315.95
429.22	4131.05
429.40	4210.62
429.59	4175.52
429.78	3999.98
429.97	4079.55
430.16	4133.39
430.34	4114.66
430.53	4227.01
430.72	4294.88
430.91	4355.74
431.10	4411.91
431.28	4498.51
431.47	4695.11
431.66	4660.01
431.85	4608.51
432.03	4671.71
432.22	4662.35
432.41	4723.20
432.60	4819.16
432.79	4809.80
432.97	4915.12
433.16	4807.46
433.35	4774.69
433.54	4676.39
433.72	4641.28
433.91	4779.37
434.10	4870.65
434.28	4826.18
434.47	4959.60
434.66	5036.83
434.85	5032.15
435.03	4968.96
435.22	4959.60
435.41	5081.30
435.59	5104.71
435.78	5238.12
435.97	5167.90
436.16	5193.65
436.34	5118.75
436.53	5359.83
436.72	5336.42
436.90	5153.86
437.09	5139.82
437.28	5048.54
437.46	5324.72
437.65	5088.32
437.84	5167.90
438.02	5128.11
438.21	5298.97
438.40	5083.64
438.58	5465.15
438.77	5385.57
438.96	5495.58
439.14	5579.84
439.33	5607.92
439.52	5596.22
439.70	5621.97
439.89	5685.16
440.08	5657.07
440.26	5893.47
440.45	5781.12
440.63	5907.51
440.82	6083.05
441.01	5912.19
441.19	6043.26
441.38	6188.38
441.57	6099.44
441.75	6244.55
441.94	6352.21
442.12	6399.02
442.31	6502.01
442.50	6551.16
442.68	6408.39
442.87	6401.37
443.05	6471.58
443.24	6399.02
443.43	6448.18
443.61	6532.44
443.80	6794.58
443.98	6436.47
444.17	6352.21
444.35	6614.35
444.54	6696.27
444.73	6656.48
444.91	6647.12
445.10	6576.91
445.28	6562.86
445.47	6478.60
445.65	6553.50
445.84	6712.66
446.02	6705.63
446.21	6626.06
446.39	6590.95
446.58	6740.74
446.77	6740.74
446.95	6590.95
447.14	6733.72
447.32	6970.12
447.51	6888.20
447.69	6647.12
447.88	6841.39
448.06	6633.08
448.25	6881.18
448.43	6729.04
448.62	6724.36
448.80	6839.05
448.99	6803.94
449.17	6974.80
449.36	6930.33
449.54	6883.52
449.73	7026.29
449.91	7098.84
450.10	7173.74
450.28	7288.43
450.46	7206.51
450.65	7281.41
450.83	7300.13
451.02	7225.23
451.20	7208.85
451.39	7375.03
451.57	7234.60
451.76	7267.36
451.94	7262.68
452.13	7300.13
452.31	7185.44
452.49	7295.45
452.68	7162.04
452.86	7389.07
453.05	7283.75
453.23	7391.41
453.42	7325.88
453.60	7304.81
453.78	7517.80
453.97	7400.77
454.15	7529.50
454.34	7300.13
454.52	7445.24
454.70	7625.47
454.89	7581.00
455.07	7742.49
455.26	7665.25
455.44	7801.01
455.62	7768.24
455.81	7826.75
455.99	7997.61
456.17	7840.79
456.36	8081.87
456.54	8006.97
456.73	7950.80
456.91	8191.88
457.09	8093.57
457.28	8348.69
457.46	8119.32
457.64	8201.24
457.83	8140.38
458.01	8077.19
458.19	8390.82
458.38	8032.72
458.56	8344.01
458.74	8332.31
458.93	8348.69
459.11	8189.53
459.29	8306.56
459.48	8458.70
459.66	8322.94
459.84	8454.02
460.03	8624.87
460.21	8491.46
460.39	8564.02
460.57	8564.02
460.76	8699.77
460.94	8620.19
461.12	8727.86
461.31	8777.01
461.49	8599.13
461.67	8872.97
461.85	8697.43
462.04	8879.99
462.22	8943.19
462.40	8912.76
462.59	9004.04
462.77	8908.08
462.95	9022.77
463.13	9041.49
463.32	8924.46
463.50	9032.13
463.68	9011.06
463.86	9219.37
464.05	9062.55
464.23	8975.95
464.41	9179.58
464.59	8858.93
464.78	9263.84
464.96	9170.22
465.14	9085.96
465.32	9401.93
465.50	9448.74
465.69	9558.75
465.87	9408.95
466.05	9296.61
466.23	9376.19
466.41	9219.37
466.60	9490.87
466.78	9345.76
466.96	9158.52
467.14	9343.42
467.32	9399.59
467.51	9607.90
467.69	9563.43
467.87	9401.93
468.05	9305.97
468.23	9415.98
468.41	9467.47
468.60	9469.81
468.78	9708.54
468.96	9720.24
469.14	9811.53
469.32	9839.61
469.50	9556.41
469.69	9886.42
469.87	9708.54
470.05	9856.00
470.23	9966.00
470.41	10118.14
470.59	9954.30
470.77	10174.31
470.95	10045.58
471.14	10506.66
471.32	10104.09
471.50	10389.64
471.68	10420.06
471.86	10532.41
472.04	10558.16
472.22	10656.46
472.40	10452.83
472.58	10562.84
472.77	10672.84
472.95	10551.14
473.13	10846.04
473.31	10593.26
473.49	10700.93
473.67	10579.22
473.85	10827.32
474.03	10946.69
474.21	11229.89
474.39	10944.34
474.57	11140.95
474.75	11265.00
474.93	11353.94
475.12	11499.05
475.30	11410.11
475.48	11208.83
475.66	11473.31
475.84	11225.21
476.02	11489.69
476.20	11529.48
476.38	11667.57
476.56	12114.61
476.74	12133.34
476.92	11822.05
477.10	11653.53
477.28	12482.08
477.46	12145.04
477.64	12280.79
477.82	12292.49
478.00	12547.61
478.18	12641.23
478.36	12512.50
478.54	12830.82
478.72	12664.64
478.90	13153.81
479.08	13334.03
479.26	13259.13
479.44	13425.31
479.62	13305.95
479.80	13338.71
479.98	13448.72
480.16	13804.48
480.34	13652.34
480.52	13820.86
480.70	13928.53
480.88	13977.68
481.06	14031.51
481.24	13862.99
481.41	14384.93
481.59	14567.49
481.77	14668.14
481.95	14637.71
482.13	14740.69
482.31	14476.21
482.49	15075.39
482.67	14862.40
482.85	15103.48
483.03	15257.95
483.21	15620.74
483.39	15431.15
483.57	15646.48
483.74	15854.79
483.92	15604.35
484.10	15580.95
484.28	15967.13
484.46	16135.65
484.64	16411.84
484.82	16191.83
485.00	16039.69
485.18	16329.92
485.35	16587.38
485.53	16521.84
485.71	16395.45
485.89	16336.94
486.07	16250.34
486.25	16781.64
486.43	16987.61
486.61	17106.98
486.78	17336.35
486.96	17720.20
487.14	17556.36
487.32	17963.61
487.50	18267.88
487.68	18420.02
487.85	18473.85
488.03	18576.83
488.21	18717.26
488.39	18679.82
488.57	19019.19
488.75	18867.06
488.92	19220.48
489.10	19819.66
489.28	19503.68
489.46	19838.38
489.64	19704.97
489.81	20540.54
489.99	20367.34
490.17	20409.47
490.35	20884.60
490.53	20467.98
490.70	20472.67
490.88	20886.94
491.06	21025.03
491.24	20952.48
491.41	20755.87
491.59	21022.69
491.77	20952.48
491.95	21235.68
492.13	21364.41
492.30	21628.89
492.48	21654.64
492.66	22085.30
492.84	21762.30
493.01	22284.24
493.19	22422.33
493.37	21919.12
493.54	22541.70
493.72	22810.86
493.90	22761.71
494.08	22951.29
494.25	23332.80
494.43	23491.96
494.61	23332.80
494.79	23714.31
494.96	23613.66
495.14	23709.63
495.32	23620.69
495.49	24065.39
495.67	24189.44
495.85	24004.53
496.02	24247.95
496.20	24952.45
496.38	24648.18
496.55	24816.70
496.73	25502.48
496.91	25050.75
497.09	25010.96
497.26	25287.15
497.44	25198.21
497.62	25287.15
497.79	25743.55
497.97	25238.00
498.14	25575.03
498.32	25858.24
498.50	26251.45
498.67	26515.93
498.85	26171.87
499.03	26345.07
499.20	26768.71
499.38	26286.56
499.56	26780.41
499.73	26733.60
499.91	26778.07
500.08	26532.31
500.26	26532.31
500.44	26492.52
500.61	26869.35
500.79	26951.27
500.97	27311.71
501.14	27154.90
501.32	27152.55
501.49	27641.73
501.67	27496.61
501.84	27786.84
502.02	27543.42
502.20	27887.48
502.37	27821.95
502.55	27714.28
502.72	28257.29
502.90	28128.56
503.07	28261.97
503.25	28400.06
503.43	28437.51
503.60	28451.55
503.78	28327.50
503.95	28481.98
504.13	28741.78
504.30	28603.69
504.48	28868.17
504.65	29352.66
504.83	29298.83
505.01	29577.35
505.18	29479.05
505.36	29713.10
505.53	29640.54
505.71	29865.24
505.88	29923.75
506.06	29446.28
506.23	29823.11
506.41	30036.09
506.58	29949.50
506.76	30213.98
506.93	30211.64
507.11	30132.06
507.28	30115.67
507.46	30543.99
507.63	30155.46
507.81	30239.72
507.98	30153.12
508.16	30656.34
508.33	30958.27
508.50	30890.39
508.68	31232.11
508.85	31697.88
509.03	31089.34
509.20	31288.28
509.38	31281.26
509.55	31550.42
509.73	31461.48
509.90	31477.86
510.08	31669.79
510.25	31660.43
510.42	31805.54
510.60	31777.45
510.77	31938.95
510.95	32264.28
511.12	32341.52
511.30	32547.49
511.47	32381.31
511.64	32811.97
511.82	32795.59
511.99	32451.53
512.17	32842.40
512.34	32353.23
512.51	32814.31
512.69	32835.38
512.86	32659.84
513.04	33305.82
513.21	33202.84
513.38	32943.04
513.56	33198.16
513.73	32987.51
513.90	33050.70
514.08	33457.96
514.25	33673.29
514.43	33198.16
514.60	33795.00
514.77	33551.58
514.95	34157.78
515.12	33710.74
515.29	33759.89
515.47	34169.48
515.64	34089.90
515.81	34005.64
515.99	33961.17
516.16	34146.08
516.33	34024.37
516.51	34015.01
516.68	33415.83
516.85	33572.64
517.03	33717.76
517.20	34384.81
517.37	34628.23
517.54	34424.60
517.72	34440.98
517.89	34190.55
518.06	34242.04
518.24	34265.44
518.41	34473.75
518.58	35026.12
518.75	34939.52
518.93	35115.06
519.10	34892.71
519.27	35412.31
519.45	34881.00
519.62	35620.61
519.79	35531.67
519.96	35419.33
520.14	35747.00
520.31	35526.99
520.48	35501.25
520.65	35840.62
520.83	36481.93
521.00	36350.86
521.17	35976.37
521.34	36112.13
521.52	36741.73
521.69	36556.83
521.86	36591.94
522.03	36753.43
522.20	36402.35
522.38	36690.24
522.55	36814.29
522.72	36638.75
522.89	36236.17
523.07	36804.92
523.24	36521.72
523.41	37301.12
523.58	36952.38
523.75	37205.16
523.92	37591.34
524.10	37689.65
524.27	37242.60
524.44	37631.13
524.61	37514.11
524.78	37928.38
524.96	37970.51
525.13	38307.55
525.30	37942.42
525.47	38031.36
525.64	37979.87
525.81	37984.55
525.98	37703.69
526.16	37799.65
526.33	37315.16
526.50	37666.24
526.67	37165.37
526.84	37673.26
527.01	37780.93
527.18	37907.32
527.36	38183.50
527.53	38834.17
527.70	38464.36
527.87	38356.70
528.04	38270.10
528.21	38864.60
528.38	38927.79
528.55	39089.29
528.72	39178.23
528.89	39260.15
529.07	39321.00
529.24	39281.21
529.41	39147.80
529.58	39218.02
529.75	38897.36
529.92	39267.17
530.09	39365.47
530.26	39473.13
530.43	39798.47
530.60	39063.54
530.77	39707.19
530.94	39573.78
531.11	39714.21
531.28	39768.04
531.46	39899.11
531.63	40191.68
531.80	39323.34
531.97	39842.94
532.14	39402.92
532.31	39206.31
532.48	39655.70
532.65	40126.14
532.82	39903.79
532.99	40371.90
533.16	40140.19
533.33	39889.75
533.50	40430.41
533.67	40140.19
533.84	40474.88
534.01	40301.68
534.18	40428.07
534.35	40577.87
534.52	40182.32
534.69	40975.76
534.86	40596.59
535.03	41027.25
535.20	41193.43
535.37	41148.96
535.54	41010.87
535.71	40900.86
535.88	41062.36
536.05	40634.04
536.22	40926.61
536.38	41141.94
536.55	41235.56
536.72	40996.82
536.89	41193.43
537.06	40666.81
537.23	41132.57
537.40	41464.93
537.57	40999.16
537.74	41219.17
537.91	42050.06
538.08	41755.16
538.25	41219.17
538.42	41610.04
538.59	41715.37
538.75	41399.40
538.92	41741.11
539.09	41748.14
539.26	42129.64
539.43	42019.64
539.60	41900.27
539.77	41265.99
539.94	41902.61
540.11	41565.57
540.28	41563.23
540.44	41989.21
540.61	42029.00
540.78	41390.03
540.95	42096.88
541.12	41455.57
541.29	41984.53
541.46	41340.88
541.62	42139.00
541.79	42499.45
541.96	41860.48
542.13	41844.10
542.30	42169.43
542.47	42120.28
542.63	42272.42
542.80	42284.12
542.97	42344.97
543.14	42728.82
543.31	43086.92
543.48	42555.62
543.64	43545.67
543.81	43487.15
543.98	43007.34
544.15	42674.99
544.32	43236.72
544.48	44168.25
544.65	43140.75
544.82	42829.46
544.99	43122.03
545.16	43234.38
545.32	43257.78
545.49	43145.44
545.66	43672.06
545.83	43784.40
546.00	43938.88
546.16	43548.01
546.33	43608.86
546.50	43531.62
546.67	43442.68
546.83	43246.08
547.00	43498.86
547.17	43452.05
547.34	43519.92
547.50	43456.73
547.67	43639.29
547.84	43826.53
548.00	43948.24
548.17	44224.42
548.34	43899.09
548.51	44304.00
548.67	44161.23
548.84	44273.57
549.01	44076.97
549.18	44484.22
549.34	44109.74
549.51	44034.84
549.68	44360.17
549.84	44516.99
550.01	44392.94
550.18	44177.61
550.34	44329.75
550.51	43889.73
550.68	43988.03
550.84	44287.62
551.01	44790.83
551.18	44254.85
551.34	44456.14
551.51	44779.13
551.68	44439.75
551.84	44746.36
552.01	44547.42
552.18	44587.21
552.34	44378.90
552.51	44715.93
552.68	44219.74
552.84	44706.57
553.01	44821.26
553.18	44584.86
553.34	44886.79
553.51	44769.77
553.67	44837.64
553.84	44919.56
554.01	44966.37
554.17	45230.85
554.34	44933.60
554.51	45057.65
554.67	45048.29
554.84	44971.05
555.00	44797.85
555.17	44882.11
555.33	45354.90
555.50	44685.51
555.67	44563.80
555.83	45118.51
556.00	45177.02
556.16	45668.53
556.33	45090.42
556.50	44928.92
556.66	45427.46
556.83	44966.37
556.99	45132.55
557.16	45158.30
557.32	45619.38
557.49	45483.63
557.65	45153.62
557.82	45317.45
557.98	45308.09
558.15	45595.98
558.32	45336.18
558.48	45230.85
558.65	45146.59
558.81	45301.07
558.98	45202.77
559.14	45380.65
559.31	44935.95
559.47	45397.03
559.64	45633.42
559.80	45652.15
559.97	45457.88
560.13	45153.62
560.30	45474.27
560.46	45745.77
560.63	45532.78
560.79	45801.94
560.96	45689.60
561.12	45659.17
561.29	45134.89
561.45	45918.97
561.61	45874.50
561.78	45153.62
561.94	45326.81
562.11	45640.45
562.27	45385.33
562.44	45460.23
562.60	45769.18
562.77	45933.01
562.93	45666.19
563.10	46291.12
563.26	45827.69
563.42	45745.77
563.59	45471.93
563.75	45858.12
563.92	45757.47
564.08	45783.22
564.24	46113.23
564.41	46080.47
564.57	46218.56
564.74	45914.29
564.90	46396.44
565.07	45724.71
565.23	46248.99
565.39	45806.62
565.56	45605.34
565.72	45495.33
565.88	45691.94
566.05	45785.56
566.21	46356.65
566.38	46052.38
566.54	45581.93
566.70	46033.66
566.87	46665.60
567.03	45867.48
567.19	46183.45
567.36	46391.76
567.52	45614.70
567.68	45979.82
567.85	46251.33
568.01	46316.86
568.17	45942.38
568.34	46061.74
568.50	46122.60
568.66	46094.51
568.83	46321.54
568.99	45963.44
569.15	46354.31
569.32	45804.28
569.48	45778.54
569.64	46436.23
569.81	45977.48
569.97	45825.35
570.13	46120.26
570.30	46050.04
570.46	45893.22
570.62	45617.04
570.78	45975.14
570.95	45673.21
571.11	45848.75
571.27	46265.37
571.43	45965.78
571.60	46270.05
571.76	45804.28
571.92	46541.55
572.09	46312.18
572.25	46150.68
572.41	46124.94
572.57	46639.86
572.74	46721.77
572.90	46405.80
573.06	46302.82
573.22	46487.72
573.38	46246.65
573.55	46373.03
573.71	46506.44
573.87	46188.13
574.03	46745.18
574.20	46536.87
574.36	46415.16
574.52	46281.75
574.68	46281.75
574.84	46394.10
575.01	46319.20
575.17	46588.36
575.33	46094.51
575.49	46227.92
575.65	46263.03
575.82	46370.69
575.98	46120.26
576.14	46784.97
576.30	46539.21
576.46	45916.63
576.62	46110.89
576.79	45797.26
576.95	45879.18
577.11	46590.70
577.27	46721.77
577.43	46218.56
577.59	46106.21
577.75	46307.50
577.92	45853.44
578.08	45876.84
578.24	46326.22
578.40	46155.36
578.56	46380.06
578.72	46843.48
578.88	46543.89
579.04	46459.63
579.21	46356.65
579.37	46583.68
579.53	46199.83
579.69	46167.07
579.85	46258.35
580.01	46476.02
580.17	46485.38
580.33	46127.28
580.49	46714.75
580.65	46721.77
580.82	46473.68
580.98	46380.06
581.14	46492.40
581.30	46412.82
581.46	46450.27
581.62	46698.37
581.78	46223.24
581.94	46869.23
582.10	46553.26
582.26	46733.48
582.42	46543.89
582.58	46515.81
582.74	46712.41
582.90	46679.64
583.06	46784.97
583.22	46286.43
583.38	46890.29
583.54	46614.11
583.70	46880.93
583.86	46525.17
584.02	46553.26
584.18	46508.79
584.34	46506.44
584.50	46958.17
584.66	46478.36
584.82	46319.20
584.98	46883.27
585.14	46497.08
585.30	46204.52
585.46	46380.06
585.62	46337.93
585.78	46387.08
585.94	46117.92
586.10	46471.34
586.26	46260.69
586.42	46719.43
586.58	46770.93
586.74	46553.26
586.90	46258.35
587.06	46625.81
587.22	46485.38
587.38	46335.59
587.54	46443.25
587.70	46745.18
587.86	46422.19
588.02	46506.44
588.18	46171.75
588.34	46417.50
588.49	46148.34
588.65	45408.73
588.81	46405.80
588.97	46265.37
589.13	45918.97
589.29	46476.02
589.45	46028.98
589.61	46298.14
589.77	46827.10
589.93	46454.95
590.08	46897.31
590.24	46312.18
590.40	46777.95
590.56	46703.05
590.72	46670.28
590.88	46300.48
591.04	46642.20
591.20	47054.13
591.35	46593.04
591.51	47119.66
591.67	46480.70
591.83	46731.14
591.99	46272.39
592.15	46569.64
592.31	47100.94
592.46	46518.15
592.62	46745.18
592.78	47133.71
592.94	46965.19
593.10	46586.02
593.26	46852.84
593.41	46670.28
593.57	46894.97
593.73	46649.22
593.89	46918.38
594.05	46485.38
594.20	46239.62
594.36	46621.13
594.52	46253.67
594.68	46845.82
594.84	46241.96
594.99	46885.61
595.15	46876.25
595.31	46796.67
595.47	46602.41
595.62	46630.49
595.78	46639.86
595.94	46859.87
596.10	46733.48
596.25	46897.31
596.41	46763.90
596.57	46845.82
596.73	46913.70
596.88	46281.75
597.04	46745.18
597.20	46843.48
597.36	46543.89
597.51	46541.55
597.67	47093.92
597.83	46698.37
597.99	46866.89
598.14	46358.99
598.30	46579.00
598.46	46672.62
598.61	46770.93
598.77	46447.93
598.93	46532.19
599.09	46754.54
599.24	46681.98
599.40	47051.79
599.56	46674.96
599.71	46628.15
599.87	46806.03
600.03	46937.10
600.18	46749.86
600.34	46700.71
600.50	47047.11
600.65	46370.69
600.81	46625.81
600.97	46862.21
601.12	47021.36
601.28	46344.95
601.44	46492.40
601.59	46335.59
601.75	46157.70
601.91	46323.88
602.06	46005.57
602.22	46403.46
602.37	46234.94
602.53	46452.61
602.69	46759.22
602.84	46424.53
603.00	46305.16
603.16	46356.65
603.31	46586.02
603.47	46398.78
603.62	46342.61
603.78	46717.09
603.94	46490.06
604.09	46923.06
604.25	46387.08
604.40	46099.19
604.56	46110.89
604.71	46651.56
604.87	46396.44
605.03	46504.10
605.18	46267.71
605.34	46398.78
605.49	46389.42
605.65	46583.68
605.80	46436.23
605.96	46597.73
606.12	46356.65
606.27	46913.70
606.43	46380.06
606.58	46501.76
606.74	46206.86
606.89	46366.01
607.05	46419.84
607.20	46246.65
607.36	46663.26
607.51	46373.03
607.67	46583.68
607.82	46113.23
607.98	45928.33
608.13	46073.45
608.29	46298.14
608.44	45755.13
608.60	45345.54
608.75	46260.69
608.91	46464.32
609.06	46263.03
609.22	46506.44
609.37	46160.05
609.53	46396.44
609.68	46307.50
609.84	46054.72
609.99	45979.82
610.15	45577.25
610.30	45720.02
610.46	45724.71
610.61	46099.19
610.76	46075.79
610.92	45897.91
611.07	46040.68
611.23	46134.30
611.38	45911.95
611.54	45752.79
611.69	45729.39
611.84	45518.74
612.00	45652.15
612.15	45703.64
612.31	45715.34
612.46	45996.21
612.62	45911.95
612.77	45626.40
612.92	46010.25
613.08	45443.84
613.23	45715.34
613.39	45586.61
613.54	45617.04
613.69	45642.79
613.85	45462.57
614.00	45670.87
614.15	45893.22
614.31	45366.60
614.46	45762.15
614.62	45315.11
614.77	45333.84
614.92	45263.62
615.08	45490.65
615.23	45315.11
615.38	45497.67
615.54	44996.80
615.69	44933.60
615.84	44809.56
616.00	45301.07
616.15	45125.53
616.30	45057.65
616.46	45099.78
616.61	44919.56
616.76	45038.93
616.92	44832.96
617.07	44870.41
617.22	44978.07
617.37	44933.60
617.53	45361.92
617.68	44863.39
617.83	45294.05
617.99	44837.64
618.14	44589.55
618.29	44601.25
618.45	44886.79
618.60	44507.63
618.75	44222.08
618.90	44058.24
619.06	44416.35
619.21	45113.83
619.36	44776.79
619.51	44353.15
619.67	45085.74
619.82	44414.01
619.97	44790.83
620.12	44535.71
620.28	44266.55
620.43	44720.62
620.58	44210.38
620.73	44608.27
620.89	44362.51
621.04	44364.85
621.19	44385.92
621.34	44673.81
621.49	44261.87
621.65	44371.88
621.80	44437.41
621.95	44076.97
622.10	44156.55
622.25	44170.59
622.41	44196.34
622.56	43798.44
622.71	44282.94
622.86	44013.77
623.01	43885.04
623.16	44229.10
623.32	44016.11
623.47	44081.65
623.62	43899.09
623.77	44109.74
623.92	44194.00
624.07	44491.24
624.23	43737.59
624.38	43943.56
624.53	43817.17
624.68	43716.53
624.83	43835.89
624.98	43770.36
625.13	43391.19
625.29	43672.06
625.44	43419.28
625.59	43634.61
625.74	43210.97
625.89	43152.46
626.04	43536.30
626.19	43573.75
626.34	43489.49
626.49	43019.05
626.65	43578.43
626.80	43215.65
626.95	43292.89
627.10	43358.42
627.25	43253.10
627.40	42895.00
627.55	42927.77
627.70	42473.70
627.85	42827.12
628.00	43098.62
628.15	42871.59
628.30	42876.27
628.45	43082.24
628.60	42752.23
628.76	42803.72
628.91	43051.81
629.06	42766.27
629.21	42422.21
629.36	42728.82
629.51	42588.39
629.66	42543.92
629.81	42197.52
629.96	42752.23
630.11	43016.71
630.26	43234.38
630.41	42560.30
630.56	42518.17
630.71	42555.62
630.86	42476.04
631.01	42244.33
631.16	42263.05
631.31	42429.23
631.46	42122.62
631.61	42319.23
631.76	42351.99
631.91	42443.27
632.06	42560.30
632.21	42108.58
632.36	42747.54
632.51	41874.52
632.66	42169.43
632.81	41986.87
632.96	42052.41
633.10	42249.01
633.25	42206.88
633.40	42134.32
633.55	42321.57
633.70	41724.73
633.85	41280.03
634.00	42141.35
634.15	42387.10
634.30	41668.56
634.45	41680.26
634.60	41865.16
634.75	41769.20
634.90	41701.32
635.05	41794.95
635.19	41710.69
635.34	41783.24
635.49	41507.06
635.64	41411.10
635.79	41240.24
635.94	41574.94
636.09	41514.08
636.24	41493.02
636.39	41462.59
636.53	41593.66
636.68	41296.41
636.83	41282.37
636.98	41432.16
637.13	41258.96
637.28	41546.85
637.43	41846.44
637.57	41715.37
637.72	41188.75
637.87	41287.05
638.02	41205.13
638.17	41600.68
638.32	40978.10
638.46	41305.77
638.61	41600.68
638.76	40865.75
638.91	41401.74
639.06	41228.54
639.20	41368.97
639.35	41265.99
639.50	41324.50
639.65	41277.69
639.80	41041.29
639.94	40676.17
640.09	41104.49
640.24	40278.28
640.39	40484.25
640.54	40470.20
640.68	40751.07
640.83	40521.69
640.98	40505.31
641.13	40479.57
641.27	41038.95
641.42	40685.53
641.57	40545.10
641.72	40416.37
641.86	40587.23
642.01	39765.70
642.16	40194.02
642.31	39997.41
642.45	40746.39
642.60	40135.51
642.75	40399.99
642.90	40610.64
643.04	40329.77
643.19	40203.38
643.34	40182.32
643.48	40423.39
643.63	40135.51
643.78	39952.94
643.93	40226.79
644.07	40067.63
644.22	39807.83
644.37	39639.31
644.51	40350.84
644.66	39882.73
644.81	40395.31
644.95	40364.88
645.10	40399.99
645.25	39957.63
645.39	40264.24
645.54	39758.68
645.69	39723.57
645.83	39763.36
645.98	39814.85
646.13	40072.31
646.27	39812.51
646.42	39915.50
646.57	39590.16
646.71	39592.50
646.86	39601.86
647.00	39594.84
647.15	39859.32
647.30	39894.43
647.44	39299.94
647.59	39990.39
647.74	39438.03
647.88	39344.41
648.03	39714.21
648.17	39225.04
648.32	39725.91
648.47	39007.37
648.61	38869.28
648.76	39864.00
648.90	39566.76
649.05	39180.57
649.20	39115.03
649.34	39154.82
649.49	39040.14
649.63	39124.40
649.78	38913.75
649.92	39360.79
650.07	39456.75
650.21	39243.76
650.36	39267.17
650.51	39178.23
650.65	39477.82
650.80	39384.19
650.94	39019.07
651.09	38988.64
651.23	38972.26
651.38	38630.54
651.52	38686.71
651.67	38380.10
651.81	38492.45
651.96	38546.28
652.10	38766.29
652.25	39122.05
652.39	38682.03
652.54	38976.94
652.68	38866.94
652.83	38904.38
652.97	38630.54
653.12	38670.33
653.26	38820.13
653.41	38415.21
653.55	38380.10
653.70	38029.02
653.84	38497.13
653.99	38497.13
654.13	38300.53
654.27	38092.22
654.42	38239.67
654.56	38038.39
654.71	38202.22
654.85	38129.67
655.00	38253.72
655.14	37729.44
655.29	37965.83
655.43	37649.86
655.57	38099.24
655.72	37298.78
655.86	37556.24
656.01	37289.42
656.15	37195.79
656.30	37493.04
656.44	37989.24
656.58	37448.57
656.73	37572.62
656.87	37858.17
657.01	37469.64
657.16	37542.19
657.30	37532.83
657.45	37483.68
657.59	37345.59
657.73	37062.38
657.88	38120.31
658.02	38148.39
658.16	37556.24
658.31	37762.20
658.45	38094.56
658.60	37446.23
658.74	37677.94
658.88	37069.40
659.03	37043.66
659.17	36940.68
659.31	37029.62
659.46	36907.91
659.60	36971.10
659.74	37247.29
659.89	36821.31
660.03	36500.65
660.17	36781.52
660.32	37022.59
660.46	37340.91
660.60	36891.52
660.74	36797.90
660.89	36898.55
661.03	36189.36
661.17	36432.78
661.32	36549.81
661.46	36673.85
661.60	36725.35
661.74	36418.74
661.89	36465.55
662.03	36210.43
662.17	36215.11
662.31	36226.81
662.46	36325.11
662.60	36772.16
662.74	36095.74
662.88	36168.30
663.03	36065.31
663.17	36257.24
663.31	36168.30
663.45	35938.93
663.60	36016.16
663.74	35416.99
663.88	35627.63
664.02	35859.35
664.17	35569.12
664.31	35475.50
664.45	35541.03
664.59	35709.55
664.73	35250.81
664.88	35367.84
665.02	35276.55
665.16	35426.35
665.30	35044.84
665.44	35112.72
665.59	34983.99
665.73	35250.81
665.87	35014.41
666.01	35124.42
666.15	34993.35
666.29	34672.70
666.44	35496.56
666.58	34883.34
666.72	34754.61
666.86	34700.78
667.00	34579.07
667.14	34242.04
667.28	34274.80
667.43	34099.26
667.57	34871.64
667.71	34305.23
667.85	34775.68
667.99	34389.49
668.13	34375.45
668.27	34567.37
668.41	34253.74
668.56	33787.97
668.70	34450.35
668.84	33968.19
668.98	33516.47
669.12	33511.79
669.26	33605.41
669.40	33736.48
669.54	33926.07
669.68	33684.99
669.82	33188.80
669.96	33399.44
670.10	33118.58
670.25	33181.77
670.39	32882.19
670.53	32847.08
670.67	33132.62
670.81	33310.50
670.95	33095.18
671.09	32652.81
671.23	32907.93
671.37	32968.79
671.51	32627.07
671.65	32091.09
671.79	32577.92
671.93	32638.77
672.07	32669.20
672.21	32664.52
672.35	32336.84
672.49	32889.21
672.63	32341.52
672.77	32339.18
672.91	32652.81
673.05	32198.75
673.19	31974.06
673.33	31758.73
673.47	31667.45
673.61	32060.66
673.75	31550.42
673.89	31489.57
674.03	31658.09
674.17	31587.87
674.31	31569.15
674.45	31456.80
674.59	31473.18
674.73	31747.03
674.87	31548.08
675.01	31044.87
675.15	31248.49
675.29	31332.75
675.43	31042.53
675.56	31178.28
675.70	30684.42
675.84	30668.04
675.98	29757.57
676.12	30789.75
676.26	30520.59
676.40	30426.96
676.54	30806.13
676.68	30085.25
676.82	29759.91
676.96	30218.66
677.10	29947.15
677.23	29986.94
677.37	29757.57
677.51	29575.01
677.65	29832.47
677.79	29462.66
677.93	28992.22
678.07	29008.60
678.21	28907.96
678.34	29120.95
678.48	29017.96
678.62	28603.69
678.76	28545.17
678.90	28847.10
679.04	28346.23
679.18	28748.80
679.31	28545.17
679.45	28147.28
679.59	28554.54
679.73	28088.77
679.87	28070.04
680.00	28135.58
680.14	27859.40
680.28	28311.12
680.42	27777.48
680.56	27882.80
680.70	27709.60
680.83	27758.75
680.97	28191.75
681.11	27435.76
681.25	27030.85
681.39	27016.80
681.52	27522.36
681.66	27124.47
681.80	27166.60
681.94	27182.98
682.07	26778.07
682.21	27005.10
682.35	26813.18
682.49	26979.36
682.62	26536.99
682.76	26125.06
682.90	26139.10
683.04	26270.17
683.17	26190.59
683.31	25722.49
683.45	26284.22
683.59	25738.87
683.72	25598.44
683.86	25699.08
684.00	25961.22
684.13	25612.48
684.27	25516.52
684.41	25465.03
684.55	25355.02
684.68	25188.85
684.82	25151.40
684.96	25282.47
685.09	24933.73
685.23	24915.00
685.37	25055.43
685.50	24840.11
685.64	24889.26
685.78	24730.10
685.91	24381.36
686.05	24025.60
686.19	23644.09
686.32	23943.68
686.46	24016.24
686.60	23468.55
686.73	23117.47
686.87	22958.31
687.01	23454.51
687.14	23164.28
687.28	23136.20
687.42	23328.12
687.55	23264.92
687.69	23105.77
687.82	23159.60
687.96	23065.98
688.10	23014.49
688.23	22537.02
688.37	22948.95
688.50	22389.56
688.64	22628.30
688.78	22614.26
688.91	22368.50
689.05	22808.52
689.18	22637.66
689.32	21975.29
689.46	22181.26
689.59	22284.24
689.73	22274.88
689.86	22052.53
690.00	21989.33
690.13	21998.70
690.27	21649.96
690.41	21441.65
690.54	21177.17
690.68	21198.23
690.81	21682.72
690.95	21401.86
691.08	21200.57
691.22	21422.92
691.35	21235.68
691.49	21476.76
691.62	20964.18
691.76	20805.02
691.89	21046.10
692.03	20779.28
692.16	20718.42
692.30	20491.39
692.43	20332.23
692.57	20203.50
692.70	20355.64
692.84	20194.14
692.97	19831.36
693.11	20070.09
693.24	19822.00
693.38	19859.45
693.51	19765.82
693.65	19740.08
693.78	19543.47
693.92	19639.44
694.05	19541.13
694.19	19360.91
694.32	19403.04
694.45	19349.21
694.59	19225.16
694.72	19168.99
694.86	19068.34
694.99	18663.43
695.13	18988.77
695.26	18991.11
695.39	18427.04
695.53	19009.83
695.66	19068.34
695.80	18719.60
695.93	18625.98
696.07	18267.88
696.20	18520.66
696.33	18429.38
696.47	18277.24
696.60	18546.40
696.73	18031.49
696.87	17928.50
697.00	17783.39
697.14	17387.84
697.27	17877.01
697.40	17490.82
697.54	17411.25
697.67	17310.60
697.80	17191.23
697.94	17263.79
698.07	16723.13
698.21	17177.19
698.34	16954.84
698.47	17142.08
698.61	16713.77
698.74	16753.55
698.87	16985.27
699.01	16673.98
699.14	16666.95
699.27	16444.60
699.40	16507.80
699.54	16751.21
699.67	16489.07
699.80	16219.91
699.94	16276.09
700.07	16332.26
700.20	16145.02
700.34	16142.67
700.47	16212.89
700.60	16093.52
700.73	15784.57
700.87	15704.99
701.00	15892.24
701.13	15573.92
701.26	15658.18
701.40	15496.69
701.53	15297.74
701.66	15477.96
701.79	15143.27
701.93	15370.30
702.06	14998.15
702.19	14712.61
702.32	14984.11
702.46	15068.37
702.59	15030.92
702.72	15098.80
702.85	14960.70
702.99	14752.40
703.12	14775.80
703.25	14462.17
703.38	14310.04
703.51	14384.93
703.65	14354.51
703.78	14293.65
703.91	14228.12
704.04	14181.31
704.17	13907.46
704.31	14146.20
704.44	14101.73
704.57	13902.78
704.70	13912.14
704.83	13839.59
704.96	13937.89
705.10	13884.06
705.23	13881.72
>>>>>End Processed Spectral Data<<<<<
