SpectraSuite Data File
++++++++++++++++++++++++++++++++++++
Date: Fri Oct 25 10:48:16 EDT 2013
User: price-jones
Dark Spectrum Present: No
Reference Spectrum Present: No
Number of Sampled Component Spectra: 1
Spectrometers: USB2+H05261
Integration Time (usec): 100000 (USB2+H05261)
Spectra Averaged: 1 (USB2+H05261)
Boxcar Smoothing: 0 (USB2+H05261)
Correct for Electrical Dark: No (USB2+H05261)
Strobe/Lamp Enabled: No (USB2+H05261)
Correct for Detector Non-linearity: No (USB2+H05261)
Correct for Stray Light: No (USB2+H05261)
Number of Pixels in Processed Spectrum: 2048
>>>>>Begin Processed Spectral Data<<<<<
365.73	147.45
365.92	147.45
366.12	147.45
366.32	93.62
366.52	21.06
366.72	46.81
366.91	60.85
367.11	65.54
367.31	81.92
367.51	23.41
367.70	79.58
367.90	35.11
368.10	88.94
368.30	0.00
368.49	0.00
368.69	131.07
368.89	46.81
369.09	30.43
369.28	107.66
369.48	91.28
369.68	70.22
369.87	95.96
370.07	95.96
370.27	152.13
370.47	191.92
370.66	430.66
370.86	451.72
371.06	477.47
371.25	493.85
371.45	400.23
371.65	540.66
371.84	461.09
372.04	425.98
372.24	454.06
372.44	447.04
372.63	484.49
372.83	472.79
373.03	615.56
373.22	545.34
373.42	491.51
373.62	540.66
373.81	564.07
374.01	594.50
374.21	601.52
374.40	613.22
374.60	610.88
374.79	561.73
374.99	557.05
375.19	587.47
375.38	631.94
375.58	634.29
375.78	650.67
375.97	589.82
376.17	667.05
376.37	657.69
376.56	585.13
376.76	578.11
376.95	585.13
377.15	589.82
377.35	662.37
377.54	634.29
377.74	638.97
377.93	713.86
378.13	699.82
378.33	711.52
378.52	683.44
378.72	617.90
378.91	641.31
379.11	645.99
379.31	699.82
379.50	657.69
379.70	716.20
379.89	671.73
380.09	821.53
380.28	704.50
380.48	786.42
380.68	748.97
380.87	739.61
381.07	716.20
381.26	723.23
381.46	690.46
381.65	748.97
381.85	706.84
382.04	638.97
382.24	779.40
382.43	634.29
382.63	716.20
382.83	725.57
383.02	765.36
383.22	763.01
383.41	770.04
383.61	765.36
383.80	758.33
384.00	807.48
384.19	798.12
384.39	854.30
384.58	828.55
384.78	795.78
384.97	816.85
385.17	763.01
385.36	802.80
385.56	793.44
385.75	793.44
385.95	840.25
386.14	795.78
386.34	887.06
386.53	844.93
386.72	875.36
386.92	884.72
387.11	898.77
387.31	880.04
387.50	847.27
387.70	826.21
387.89	758.33
388.09	842.59
388.28	856.64
388.48	894.08
388.67	908.13
388.86	901.11
389.06	924.51
389.25	933.87
389.45	908.13
389.64	915.15
389.84	917.49
390.03	1001.75
390.22	1071.97
390.42	978.34
390.61	983.02
390.81	943.24
391.00	983.02
391.19	1078.99
391.39	1090.69
391.58	1097.71
391.78	1055.58
391.97	1104.73
392.16	1053.24
392.36	1167.93
392.55	1104.73
392.75	1008.77
392.94	1067.28
393.13	1015.79
393.33	973.66
393.52	1081.33
393.71	1163.25
393.91	1132.82
394.10	1149.20
394.29	1100.05
394.49	1249.85
394.68	1123.46
394.88	1231.12
395.07	1277.93
395.26	1210.06
395.46	1245.16
395.65	1245.16
395.84	1228.78
396.04	1170.27
396.23	1214.74
396.42	1128.14
396.62	1188.99
396.81	1203.04
397.00	1256.87
397.19	1303.68
397.39	1378.58
397.58	1366.87
397.77	1366.87
397.97	1397.30
398.16	1336.45
398.35	1472.20
398.55	1383.26
398.74	1488.58
398.93	1434.75
399.12	1542.41
399.32	1423.05
399.51	1451.13
399.70	1521.35
399.90	1474.54
400.09	1521.35
400.28	1554.12
400.47	1591.56
400.67	1638.38
400.86	1631.35
401.05	1420.71
401.24	1542.41
401.44	1614.97
401.63	1685.19
401.82	1694.55
402.01	1687.53
402.21	1685.19
402.40	1619.65
402.59	1703.91
402.78	1666.46
402.97	1598.59
403.17	1675.82
403.36	1717.95
403.55	1748.38
403.74	1818.60
403.93	1764.76
404.13	1757.74
404.32	1783.49
404.51	1842.00
404.70	1856.04
404.89	1834.98
405.09	1874.77
405.28	1881.79
405.47	1961.37
405.66	1940.30
405.85	1858.39
406.05	1844.34
406.24	1795.19
406.43	1982.43
406.62	2054.99
406.81	2115.84
407.00	2022.22
407.20	2001.16
407.39	2087.76
407.58	2047.97
407.77	2127.55
407.96	2228.19
408.15	2256.28
408.34	2146.27
408.54	2078.40
408.73	2253.94
408.92	2172.02
409.11	2277.34
409.30	2289.04
409.49	2221.17
409.68	2211.81
409.87	2359.26
410.07	2251.60
410.26	2242.23
410.45	2389.69
410.64	2373.30
410.83	2394.37
411.02	2363.94
411.21	2452.88
411.40	2499.69
411.59	2497.35
411.78	2406.07
411.98	2544.16
412.17	2586.29
412.36	2509.05
412.55	2635.44
412.74	2724.38
412.93	2693.96
413.12	2635.44
413.31	2759.49
413.50	2764.17
413.69	2773.53
413.88	2895.24
414.07	2813.32
414.26	2839.07
414.45	2822.69
414.64	2836.73
414.83	2892.90
415.02	2967.80
415.22	2958.44
415.41	2939.71
415.60	2932.69
415.79	3115.25
415.98	3192.49
416.17	3068.44
416.36	3061.42
416.55	3141.00
416.74	3211.22
416.93	3124.62
417.12	3258.03
417.31	3272.07
417.50	3222.92
417.69	3368.03
417.88	3227.60
418.07	3253.34
418.26	3283.77
418.45	3417.18
418.64	3471.01
418.83	3335.26
419.02	3283.77
419.21	3452.29
419.39	3522.51
419.58	3349.31
419.77	3466.33
419.96	3522.51
420.15	3562.30
420.34	3632.51
420.53	3662.94
420.72	3564.64
420.91	3637.19
421.10	3686.34
421.29	3777.62
421.48	3655.92
421.67	3665.28
421.86	3688.68
422.05	3662.94
422.24	3637.19
422.43	3684.00
422.61	3695.71
422.80	3850.18
422.99	3796.35
423.18	3852.52
423.37	3878.27
423.56	3819.75
423.75	3824.44
423.94	3749.54
424.13	3515.48
424.32	3747.20
424.50	3611.45
424.69	3957.85
424.88	3948.48
425.07	3803.37
425.26	3775.28
425.45	3929.76
425.64	3812.73
425.83	3719.11
426.01	3967.21
426.20	3810.39
426.39	3983.59
426.58	3946.14
426.77	3896.99
426.96	3861.88
427.15	3854.86
427.33	3990.61
427.52	4021.04
427.71	3981.25
427.90	3964.87
428.09	4086.58
428.28	4021.04
428.46	3997.64
428.65	4009.34
428.84	4114.66
429.03	4079.55
429.22	3932.10
429.40	4088.92
429.59	4016.36
429.78	3798.69
429.97	3772.94
430.16	3964.87
430.34	4154.45
430.53	4184.88
430.72	4184.88
430.91	4170.83
431.10	4224.67
431.28	4421.27
431.47	4461.06
431.66	4615.54
431.85	4372.12
432.03	4568.73
432.22	4507.87
432.41	4578.09
432.60	4484.47
432.79	4660.01
432.97	4599.15
433.16	4564.04
433.35	4540.64
433.54	4592.13
433.72	4648.30
433.91	4491.49
434.10	4444.68
434.28	4807.46
434.47	4669.37
434.66	4660.01
434.85	4877.68
435.03	4767.67
435.22	4821.50
435.41	5029.81
435.59	4809.80
435.78	4933.85
435.97	4943.21
436.16	4840.23
436.34	5034.49
436.53	4973.64
436.72	5022.79
436.90	4835.55
437.09	5069.60
437.28	4919.81
437.46	5137.48
437.65	5029.81
437.84	5004.07
438.02	4929.17
438.21	5163.22
438.40	5128.11
438.58	5135.14
438.77	5357.49
438.96	5205.35
439.14	5481.53
439.33	5610.26
439.52	5423.02
439.70	5584.52
439.89	5460.47
440.08	5479.19
440.26	5516.64
440.45	5500.26
440.63	5748.36
440.82	5870.06
441.01	5720.27
441.19	5870.06
441.38	5762.40
441.57	5872.40
441.75	6064.33
441.94	6066.67
442.12	6157.95
442.31	6209.44
442.50	6171.99
442.68	6153.27
442.87	6092.41
443.05	6204.76
443.24	6270.30
443.43	6211.78
443.61	6370.94
443.80	6452.86
443.98	6162.63
444.17	6054.97
444.35	6183.70
444.54	6333.49
444.73	6342.85
444.91	6186.04
445.10	6340.51
445.28	6211.78
445.47	6136.88
445.65	6244.55
445.84	6380.30
446.02	6394.34
446.21	6251.57
446.39	6473.92
446.58	6555.84
446.77	6443.49
446.95	6473.92
447.14	6434.13
447.32	6595.63
447.51	6345.19
447.69	6342.85
447.88	6607.33
448.06	6623.72
448.25	6551.16
448.43	6548.82
448.62	6527.75
448.80	6586.27
448.99	6724.36
449.17	6766.49
449.36	6534.78
449.54	6738.40
449.73	6700.95
449.91	6832.02
450.10	6965.43
450.28	7068.42
450.46	6974.80
450.65	7108.21
450.83	7059.06
451.02	6984.16
451.20	7056.72
451.39	6951.39
451.57	7028.63
451.76	6970.12
451.94	7052.03
452.13	7119.91
452.31	6829.68
452.49	6897.56
452.68	7028.63
452.86	7075.44
453.05	7295.45
453.23	7180.76
453.42	7049.69
453.60	7129.27
453.78	7272.04
453.97	7232.26
454.15	7166.72
454.34	6920.96
454.52	7190.13
454.70	7138.63
454.89	7250.98
455.07	7414.82
455.26	7293.11
455.44	7503.76
455.62	7330.56
455.81	7440.56
455.99	7482.69
456.17	7468.65
456.36	7559.93
456.54	7761.22
456.73	7686.32
456.91	7801.01
457.09	7950.80
457.28	8013.99
457.46	7796.32
457.64	7859.52
457.83	7817.39
458.01	7651.21
458.19	7946.12
458.38	7927.39
458.56	7934.42
458.74	7964.84
458.93	8065.49
459.11	8088.89
459.29	8021.02
459.48	8138.04
459.66	8264.43
459.84	8102.93
460.03	8180.17
460.21	8327.63
460.39	8299.54
460.57	8184.85
460.76	8381.46
460.94	8255.07
461.12	8308.90
461.31	8388.48
461.49	8510.19
461.67	8507.85
461.85	8461.04
462.04	8519.55
462.22	8910.42
462.40	8725.52
462.59	8807.44
462.77	8765.31
462.95	8629.56
463.13	8706.79
463.32	8720.84
463.50	8802.75
463.68	8830.84
463.86	8737.22
464.05	8800.41
464.23	8617.85
464.41	8620.19
464.59	8798.07
464.78	9013.40
464.96	8933.82
465.14	8669.34
465.32	9034.47
465.50	8954.89
465.69	9088.30
465.87	8823.82
466.05	9076.60
466.23	8842.54
466.41	8926.80
466.60	9186.60
466.78	8877.65
466.96	8982.98
467.14	9167.88
467.32	9125.75
467.51	9247.46
467.69	8800.41
467.87	9170.22
468.05	9289.59
468.23	9289.59
468.41	9348.10
468.60	9151.49
468.78	9308.31
468.96	9219.37
469.14	9345.76
469.32	9521.30
469.50	9135.11
469.69	9563.43
469.87	9605.56
470.05	9584.49
470.23	9455.76
470.41	9479.17
470.59	9652.37
470.77	9479.17
470.95	9596.20
471.14	10001.11
471.32	9753.01
471.50	10033.88
471.68	9895.78
471.86	10223.46
472.04	10097.07
472.22	10267.93
472.40	9858.34
472.58	10310.06
472.77	10026.86
472.95	10239.84
473.13	10640.08
473.31	10420.06
473.49	10305.38
473.67	10312.40
473.85	10626.03
474.03	10672.84
474.21	10586.24
474.39	10757.10
474.57	10757.10
474.75	11012.22
474.93	10909.24
475.12	10946.69
475.30	10956.05
475.48	11052.01
475.66	10911.58
475.84	11150.31
476.02	11075.42
476.20	11000.52
476.38	11433.52
476.56	11578.63
476.74	11470.97
476.92	11482.67
477.10	11482.67
477.28	11524.80
477.46	11683.95
477.64	11815.02
477.82	12175.47
478.00	12390.80
478.18	12341.64
478.36	12233.98
478.54	12470.37
478.72	12538.25
478.90	12620.17
479.08	12936.14
479.26	12805.07
479.44	12732.51
479.62	13020.40
479.80	12996.99
479.98	13149.13
480.16	13345.73
480.34	13401.91
480.52	13523.62
480.70	13575.11
480.88	13411.27
481.06	13439.36
481.24	13813.84
481.41	13673.41
481.59	14036.19
481.77	13809.16
481.95	13998.74
482.13	14253.86
482.31	14125.13
482.49	14848.36
482.67	14527.71
482.85	14607.28
483.03	14679.84
483.21	15063.69
483.39	15101.14
483.57	14829.63
483.74	14958.36
483.92	15126.88
484.10	15133.90
484.28	15590.31
484.46	15819.68
484.64	16049.05
484.82	15405.41
485.00	15915.64
485.18	16299.49
485.35	16177.78
485.53	16105.23
485.71	15826.70
485.89	15943.73
486.07	16201.19
486.25	16257.36
486.43	16470.35
486.61	16535.88
486.78	16912.71
486.96	17151.45
487.14	17472.10
487.32	17516.57
487.50	17413.59
487.68	17790.41
487.85	17928.50
488.03	18036.17
488.21	18312.35
488.39	18080.64
488.57	18225.75
488.75	18307.67
488.92	18597.90
489.10	18637.69
489.28	19082.39
489.46	19316.44
489.64	19250.91
489.81	19599.65
489.99	19421.77
490.17	19754.12
490.35	19847.74
490.53	20065.41
490.70	19866.47
490.88	19871.15
491.06	20467.98
491.24	20552.24
491.41	20463.30
491.59	20423.51
491.77	20365.00
491.95	20479.69
492.13	20739.49
492.30	21181.85
492.48	21287.17
492.66	21158.44
492.84	21252.06
493.01	21427.60
493.19	21528.25
493.37	21783.37
493.54	21923.80
493.72	22139.13
493.90	21703.79
494.08	22223.39
494.25	22632.98
494.43	22698.52
494.61	23016.83
494.79	22775.75
494.96	22981.72
495.14	22764.05
495.32	23049.60
495.49	23330.46
495.67	23157.26
495.85	23424.08
496.02	23611.32
496.20	24084.11
496.38	23679.20
496.55	23852.40
496.73	24381.36
496.91	24397.74
497.09	24694.99
497.26	24505.41
497.44	24285.40
497.62	24683.29
497.79	24966.49
497.97	24608.39
498.14	24844.79
498.32	24828.40
498.50	25259.06
498.67	25245.02
498.85	25450.99
499.03	25811.43
499.20	25568.01
499.38	25755.26
499.56	26040.80
499.73	25673.34
499.91	25893.35
500.08	26043.14
500.26	25755.26
500.44	26106.34
500.61	26197.62
500.79	26003.35
500.97	26462.10
501.14	26604.87
501.32	26838.92
501.49	26600.19
501.67	26583.80
501.84	26714.87
502.02	26927.86
502.20	27091.70
502.37	27637.05
502.55	27271.92
502.72	27714.28
502.90	27594.92
503.07	27426.40
503.25	27487.25
503.43	27557.47
503.60	28130.90
503.78	27555.13
503.95	27824.29
504.13	28051.32
504.30	28470.28
504.48	27978.76
504.65	28266.65
504.83	28657.52
505.01	28872.85
505.18	28467.94
505.36	28924.34
505.53	28936.04
505.71	29022.64
505.88	29095.20
506.06	28922.00
506.23	29322.23
506.41	28720.71
506.58	29371.38
506.76	29289.46
506.93	29383.09
507.11	29771.61
507.28	29436.92
507.46	29450.96
507.63	29617.14
507.81	29996.31
507.98	29537.56
508.16	29757.57
508.33	30572.08
508.50	29956.52
508.68	30176.53
508.85	30656.34
509.03	30216.32
509.20	30593.14
509.38	30754.64
509.55	31098.70
509.73	30883.37
509.90	30813.15
510.08	30925.50
510.25	31138.49
510.42	31243.81
510.60	30869.33
510.77	31197.00
510.95	31426.37
511.12	31637.02
511.30	31608.93
511.47	31728.30
511.64	31761.07
511.82	31828.95
511.99	31454.46
512.17	31875.76
512.34	31452.12
512.51	32098.11
512.69	32048.96
512.86	32177.68
513.04	32201.09
513.21	31908.52
513.38	32479.61
513.56	31990.44
513.73	32683.24
513.90	32608.34
514.08	32479.61
514.25	32528.77
514.43	32748.78
514.60	32566.21
514.77	32676.22
514.95	32863.46
515.12	32809.63
515.29	33315.19
515.47	33275.40
515.64	33640.52
515.81	33186.46
515.99	33488.38
516.16	33104.54
516.33	33193.48
516.51	33462.64
516.68	33123.26
516.85	32617.71
517.03	33200.50
517.20	33572.64
517.37	33996.28
517.54	33865.21
517.72	33764.57
517.89	34031.39
518.06	33825.42
518.24	34000.96
518.41	33834.78
518.58	33958.83
518.75	33961.17
518.93	34052.45
519.10	33965.85
519.27	34469.07
519.45	34462.05
519.62	34845.90
519.79	34532.26
519.96	35248.47
520.14	34934.84
520.31	35222.72
520.48	35061.22
520.65	34834.19
520.83	35363.15
521.00	35578.48
521.17	35508.27
521.34	35349.11
521.52	35346.77
521.69	36077.02
521.86	36165.96
522.03	36020.84
522.20	35885.09
522.38	35959.99
522.55	36325.11
522.72	36065.31
522.89	36292.35
523.07	36421.08
523.24	35838.28
523.41	36720.66
523.58	35936.59
523.75	36655.13
523.92	37207.50
524.10	36828.33
524.27	36877.48
524.44	36802.58
524.61	36891.52
524.78	37024.93
524.96	37069.40
525.13	37303.46
525.30	37200.47
525.47	37326.86
525.64	37198.13
525.81	37202.82
525.98	36964.08
526.16	36769.82
526.33	36678.54
526.50	37308.14
526.67	37031.96
526.84	37076.43
527.01	37179.41
527.18	37223.88
527.36	37586.66
527.53	37647.52
527.70	38312.23
527.87	38014.98
528.04	37603.05
528.21	37909.66
528.38	38347.34
528.55	38675.01
528.72	38602.46
528.89	38761.61
529.07	38497.13
529.24	38279.46
529.41	38363.72
529.58	38103.92
529.75	38471.39
529.92	38614.16
530.09	38515.86
530.26	38953.54
530.43	38880.98
530.60	38412.87
530.77	39014.39
530.94	38934.81
531.11	38792.04
531.28	38892.68
531.46	39304.62
531.63	38923.11
531.80	38785.02
531.97	39285.89
532.14	38682.03
532.31	38892.68
532.48	38951.20
532.65	39330.36
532.82	38855.23
532.99	39564.42
533.16	38937.15
533.33	39379.51
533.50	39871.03
533.67	39842.94
533.84	39145.46
534.01	40046.57
534.18	39454.41
534.35	39882.73
534.52	39660.38
534.69	39859.32
534.86	39887.41
535.03	40074.65
535.20	39866.34
535.37	40423.39
535.54	40547.44
535.71	40006.78
535.88	40126.14
536.05	40236.15
536.22	40149.55
536.38	40247.85
536.55	40257.21
536.72	40304.02
536.89	39922.52
537.06	40236.15
537.23	40741.71
537.40	40215.08
537.57	40474.88
537.74	40779.15
537.91	41071.72
538.08	40652.76
538.25	41010.87
538.42	41125.55
538.59	41235.56
538.75	40692.55
538.92	41006.19
539.09	41310.46
539.26	40933.63
539.43	40905.54
539.60	41315.14
539.77	40713.62
539.94	41443.87
540.11	40528.72
540.28	41118.53
540.44	40795.54
540.61	40879.80
540.78	40978.10
540.95	41324.50
541.12	41645.15
541.29	41064.70
541.46	41038.95
541.62	41146.62
541.79	41797.29
541.96	41158.32
542.13	41088.10
542.30	41640.47
542.47	41846.44
542.63	41865.16
542.80	42190.50
542.97	41825.37
543.14	42019.64
543.31	42094.53
543.48	42237.31
543.64	43222.67
543.81	42494.77
543.98	42398.80
544.15	42396.46
544.32	43257.78
544.48	42986.28
544.65	42703.07
544.82	42733.50
544.99	42241.99
545.16	42431.57
545.32	42628.18
545.49	42965.21
545.66	42667.97
545.83	42721.80
546.00	43433.32
546.16	42763.93
546.33	42845.85
546.50	42543.92
546.67	42548.60
546.83	42251.35
547.00	42581.37
547.17	42873.93
547.34	42801.38
547.50	43112.67
547.67	43103.31
547.84	43072.88
548.00	43709.50
548.17	43412.26
548.34	43379.49
548.51	43922.49
548.67	43775.04
548.84	43583.12
549.01	43650.99
549.18	43152.46
549.34	43641.63
549.51	43704.82
549.68	43648.65
549.84	43349.06
550.01	43597.16
550.18	43442.68
550.34	43430.98
550.51	43386.51
550.68	43929.51
550.84	43917.81
551.01	43899.09
551.18	43641.63
551.34	43744.61
551.51	43845.26
551.68	44203.36
551.84	43775.04
552.01	44133.14
552.18	43990.37
552.34	44041.86
552.51	43679.08
552.68	44287.62
552.84	44406.98
553.01	44217.40
553.18	44102.71
553.34	44126.12
553.51	44032.50
553.67	43882.70
553.84	44114.42
554.01	44102.71
554.17	44542.74
554.34	44343.79
554.51	44531.03
554.67	44800.19
554.84	44755.72
555.00	44428.05
555.17	44472.52
555.33	44514.65
555.50	44608.27
555.67	44259.53
555.83	44608.27
556.00	44971.05
556.16	44900.84
556.33	44727.64
556.50	44851.69
556.66	44479.54
556.83	44367.20
556.99	44755.72
557.16	44982.76
557.32	44713.59
557.49	44992.12
557.65	44652.74
557.82	44664.44
557.98	44444.43
558.15	44917.22
558.32	44739.34
558.48	44912.54
558.65	44657.42
558.81	44655.08
558.98	44697.21
559.14	44800.19
559.31	44573.16
559.47	45394.69
559.64	45214.47
559.80	45813.65
559.97	44940.63
560.13	44638.70
560.30	45123.19
560.46	45141.91
560.63	44863.39
560.79	45221.49
560.96	45659.17
561.12	45193.40
561.29	45242.56
561.45	44863.39
561.61	44964.03
561.78	44727.64
561.94	45022.54
562.11	45373.63
562.27	45272.98
562.44	45102.12
562.60	45689.60
562.77	45301.07
562.93	45439.16
563.10	45619.38
563.26	44994.46
563.42	46000.89
563.59	45057.65
563.75	45268.30
563.92	45528.10
564.08	45471.93
564.24	45607.68
564.41	45837.05
564.57	45500.01
564.74	45375.97
564.90	45549.17
565.07	45315.11
565.23	45385.33
565.39	45071.70
565.56	45425.12
565.72	45390.01
565.88	46003.23
566.05	45539.80
566.21	45378.31
566.38	45062.33
566.54	45771.52
566.70	45701.30
566.87	46291.12
567.03	45539.80
567.19	46134.30
567.36	45825.35
567.52	45406.39
567.68	45991.53
567.85	45553.85
568.01	46174.09
568.17	45141.91
568.34	46101.53
568.50	45897.91
568.66	45462.57
568.83	45865.14
568.99	45324.47
569.15	45769.18
569.32	45647.47
569.48	45212.13
569.64	45848.75
569.81	45970.46
569.97	45514.06
570.13	45500.01
570.30	45511.72
570.46	45366.60
570.62	45380.65
570.78	45172.34
570.95	45226.17
571.11	45677.90
571.27	46047.70
571.43	45666.19
571.60	45738.75
571.76	45450.86
571.92	45560.87
572.09	46064.08
572.25	46106.21
572.41	45968.12
572.57	46497.08
572.74	46183.45
572.90	45825.35
573.06	45904.93
573.22	45717.68
573.38	46211.54
573.55	45207.45
573.71	45736.41
573.87	45897.91
574.03	45390.01
574.20	46148.34
574.36	45663.85
574.52	46143.66
574.68	46110.89
574.84	46560.28
575.01	46136.64
575.17	46012.59
575.33	45544.48
575.49	45509.38
575.65	46244.30
575.82	46092.17
575.98	46061.74
576.14	46089.83
576.30	46155.36
576.46	45888.54
576.62	45492.99
576.79	45703.64
576.95	45254.26
577.11	45771.52
577.27	45949.40
577.43	46014.93
577.59	45961.10
577.75	45523.42
577.92	45397.03
578.08	45907.27
578.24	45525.76
578.40	46103.87
578.56	45958.76
578.72	45895.56
578.88	46190.47
579.04	46501.76
579.21	45914.29
579.37	46012.59
579.53	46270.05
579.69	45825.35
579.85	46059.40
580.01	45986.85
580.17	45886.20
580.33	46171.75
580.49	46277.07
580.65	46026.63
580.82	46036.00
580.98	46143.66
581.14	45904.93
581.30	46021.95
581.46	45930.67
581.62	46036.00
581.78	46176.43
581.94	46564.96
582.10	46321.54
582.26	46305.16
582.42	45916.63
582.58	46270.05
582.74	46181.11
582.90	45801.94
583.06	45865.14
583.22	46581.34
583.38	46064.08
583.54	46433.89
583.70	46110.89
583.86	45668.53
584.02	45872.16
584.18	46380.06
584.34	46267.71
584.50	46321.54
584.66	46089.83
584.82	46204.52
584.98	46417.50
585.14	46106.21
585.30	45930.67
585.46	46134.30
585.62	45769.18
585.78	46031.32
585.94	45757.47
586.10	46087.49
586.26	45748.11
586.42	46356.65
586.58	46586.02
586.74	46057.06
586.90	45832.37
587.06	45851.09
587.22	46150.68
587.38	46232.60
587.54	46426.87
587.70	46358.99
587.86	46146.00
588.02	46244.30
588.18	46319.20
588.34	46108.55
588.49	45570.23
588.65	45284.68
588.81	45553.85
588.97	45287.03
589.13	45869.82
589.29	46026.63
589.45	45872.16
589.61	45844.07
589.77	46431.55
589.93	46333.24
590.08	46277.07
590.24	46246.65
590.40	46344.95
590.56	46363.67
590.72	46316.86
590.88	45818.33
591.04	46167.07
591.20	46227.92
591.35	46426.87
591.51	46988.60
591.67	46213.88
591.83	46050.04
591.99	46124.94
592.15	46260.69
592.31	46258.35
592.46	46162.39
592.62	45989.19
592.78	46384.74
592.94	46461.97
593.10	46253.67
593.26	46398.78
593.41	46216.22
593.57	46342.61
593.73	46082.81
593.89	46213.88
594.05	45956.42
594.20	46476.02
594.36	47040.09
594.52	46550.91
594.68	46178.77
594.84	46361.33
594.99	46660.92
595.15	46380.06
595.31	46354.31
595.47	46291.12
595.62	46520.49
595.78	46267.71
595.94	46564.96
596.10	46897.31
596.25	46541.55
596.41	46366.01
596.57	46717.09
596.73	46499.42
596.88	46478.36
597.04	46511.13
597.20	46354.31
597.36	46452.61
597.51	46218.56
597.67	46602.41
597.83	46595.38
597.99	46855.18
598.14	46543.89
598.30	46611.77
598.46	46494.74
598.61	45993.87
598.77	46520.49
598.93	46323.88
599.09	46178.77
599.24	46717.09
599.40	46852.84
599.56	46291.12
599.71	46562.62
599.87	46773.27
600.03	46328.56
600.18	46642.20
600.34	46298.14
600.50	46494.74
600.65	46368.35
600.81	46579.00
600.97	46843.48
601.12	46218.56
601.28	46628.15
601.44	46492.40
601.59	46501.76
601.75	46314.52
601.91	46267.71
602.06	46440.91
602.22	46401.12
602.37	46590.70
602.53	46358.99
602.69	46894.97
602.84	46625.81
603.00	46106.21
603.16	46377.72
603.31	46169.41
603.47	46454.95
603.62	46354.31
603.78	46394.10
603.94	46499.42
604.09	46480.70
604.25	46330.90
604.40	46557.94
604.56	46007.91
604.71	46635.17
604.87	46433.89
605.03	46380.06
605.18	46181.11
605.34	46333.24
605.49	45874.50
605.65	46344.95
605.80	45867.48
605.96	46122.60
606.12	46199.83
606.27	46316.86
606.43	46204.52
606.58	46529.85
606.74	46085.15
606.89	46169.41
607.05	46342.61
607.20	46391.76
607.36	46209.20
607.51	46714.75
607.67	46391.76
607.82	46614.11
607.98	46176.43
608.13	46396.44
608.29	46017.27
608.44	45813.65
608.60	45448.52
608.75	45715.34
608.91	45633.42
609.06	45827.69
609.22	46141.32
609.37	45617.04
609.53	45996.21
609.68	46340.27
609.84	45509.38
609.99	46246.65
610.15	45998.55
610.30	45993.87
610.46	45457.88
610.61	45645.13
610.76	45581.93
610.92	46171.75
611.07	45574.91
611.23	45928.33
611.38	45860.46
611.54	45509.38
611.69	45780.88
611.84	45710.66
612.00	45340.86
612.15	45610.02
612.31	45827.69
612.46	45708.32
612.62	45883.86
612.77	45797.26
612.92	45846.41
613.08	45420.44
613.23	45336.18
613.39	45109.14
613.54	45387.67
613.69	45741.09
613.85	44978.07
614.00	45762.15
614.15	45825.35
614.31	45481.29
614.46	45495.33
614.62	45177.02
614.77	45249.58
614.92	45207.45
615.08	45354.90
615.23	45202.77
615.38	45567.89
615.54	45024.89
615.69	44861.05
615.84	44802.53
616.00	45432.14
616.15	44978.07
616.30	44973.39
616.46	44931.26
616.61	44612.95
616.76	44863.39
616.92	44692.53
617.07	44985.10
617.22	44797.85
617.37	44832.96
617.53	44926.58
617.68	45485.97
617.83	45455.54
617.99	45081.06
618.14	44882.11
618.29	45020.20
618.45	44842.32
618.60	44381.24
618.75	44556.78
618.90	44982.76
619.06	45013.18
619.21	44608.27
619.36	45296.39
619.51	44650.40
619.67	44519.33
619.82	44744.02
619.97	44800.19
620.12	44416.35
620.28	43990.37
620.43	44004.41
620.58	44584.86
620.73	44507.63
620.89	44329.75
621.04	44690.19
621.19	44320.38
621.34	44341.45
621.49	44170.59
621.65	44123.78
621.80	44399.96
621.95	44067.61
622.10	44397.62
622.25	43861.64
622.41	44388.26
622.56	43737.59
622.71	44135.48
622.86	43978.67
623.01	44350.81
623.16	44339.11
623.32	44261.87
623.47	43955.26
623.62	43910.79
623.77	44058.24
623.92	43999.73
624.07	43779.72
624.23	43667.37
624.38	43447.36
624.53	43545.67
624.68	43505.88
624.83	44032.50
624.98	43529.28
625.13	43653.33
625.29	43648.65
625.44	43496.52
625.59	43569.07
625.74	43395.87
625.89	43328.00
626.04	43470.77
626.19	43531.62
626.34	43480.13
626.49	43335.02
626.65	43096.28
626.80	43058.84
626.95	43124.37
627.10	43482.47
627.25	42836.48
627.40	42646.90
627.55	42586.05
627.70	42831.80
627.85	42712.44
628.00	43100.97
628.15	43461.41
628.30	42754.57
628.45	43049.47
628.60	43131.39
628.76	42822.44
628.91	42927.77
629.06	42700.73
629.21	43079.90
629.36	42658.60
629.51	42887.98
629.66	42611.79
629.81	42635.20
629.96	42813.08
630.11	42590.73
630.26	42913.72
630.41	42993.30
630.56	42878.61
630.71	42323.91
630.86	42878.61
631.01	42511.15
631.16	42597.75
631.31	42316.89
631.46	41926.02
631.61	42148.37
631.76	42157.73
631.91	42447.96
632.06	42459.66
632.21	42429.23
632.36	42396.46
632.51	42237.31
632.66	42368.38
632.81	42007.94
632.96	42157.73
633.10	42298.16
633.25	41677.92
633.40	42230.29
633.55	42705.41
633.70	42139.00
633.85	42384.76
634.00	42281.78
634.15	41944.74
634.30	41787.92
634.45	42167.09
634.60	42452.64
634.75	42195.18
634.90	41736.43
635.05	42108.58
635.19	41710.69
635.34	42387.10
635.49	42024.32
635.64	42101.56
635.79	41717.71
635.94	41785.58
636.09	42277.10
636.24	41516.42
636.39	41249.60
636.53	41654.51
636.68	41521.10
636.83	41518.76
636.98	42202.20
637.13	41326.84
637.28	42333.27
637.43	41813.67
637.57	41474.29
637.72	41736.43
637.87	41631.11
638.02	41188.75
638.17	41420.46
638.32	41099.81
638.46	41354.93
638.61	41251.94
638.76	41315.14
638.91	41132.57
639.06	40959.38
639.20	41373.65
639.35	41258.96
639.50	41151.30
639.65	41268.33
639.80	41647.49
639.94	40800.22
640.09	41350.24
640.24	40872.78
640.39	40683.19
640.54	40811.92
640.68	40187.00
640.83	40645.74
640.98	40671.49
641.13	40507.65
641.27	40832.99
641.42	40460.84
641.57	40498.29
641.72	40584.89
641.86	40746.39
642.01	40528.72
642.16	40425.73
642.31	40105.08
642.45	40620.00
642.60	40168.27
642.75	40261.90
642.90	40194.02
643.04	40013.80
643.19	40236.15
643.34	40601.27
643.48	40722.98
643.63	40299.34
643.78	39819.53
643.93	40205.72
644.07	40233.81
644.22	40016.14
644.37	39936.56
644.51	39746.98
644.66	40257.21
644.81	39636.97
644.95	40275.94
645.10	39999.76
645.25	40226.79
645.39	40325.09
645.54	40144.87
645.69	40105.08
645.83	39714.21
645.98	39995.07
646.13	39962.31
646.27	39800.81
646.42	39648.68
646.57	39761.02
646.71	39622.93
646.86	39658.04
647.00	40058.27
647.15	39777.40
647.30	39789.11
647.44	39470.79
647.59	39763.36
647.74	39702.51
647.88	39021.41
648.03	39365.47
648.17	39449.73
648.32	39093.97
648.47	39210.99
648.61	39449.73
648.76	39510.58
648.90	39449.73
649.05	39344.41
649.20	39278.87
649.34	39182.91
649.49	39241.42
649.63	39292.91
649.78	39576.12
649.92	39620.59
650.07	39304.62
650.21	39168.87
650.36	39203.97
650.51	38747.57
650.65	39796.13
650.80	39440.37
650.94	39468.45
651.09	39372.49
651.23	38885.66
651.38	38873.96
651.52	38693.74
651.67	38770.97
651.81	38630.54
651.96	39264.83
652.10	38843.53
652.25	38616.50
652.39	38642.24
652.54	38539.26
652.68	38843.53
652.83	39192.27
652.97	39110.35
653.12	38888.00
653.26	38520.54
653.41	38988.64
653.55	38096.90
653.70	38602.46
653.84	38721.82
653.99	38918.43
654.13	38452.66
654.27	38169.46
654.42	38459.68
654.56	38534.58
654.71	38340.32
654.85	38286.48
655.00	38419.89
655.14	38199.88
655.29	38213.93
655.43	38216.27
655.57	37729.44
655.72	37589.00
655.86	38080.52
656.01	37844.12
656.15	37397.08
656.30	37567.94
656.44	37462.61
656.58	37504.74
656.73	37818.38
656.87	37762.20
657.01	37521.13
657.16	37570.28
657.30	37415.80
657.45	37240.26
657.59	37535.17
657.73	37586.66
657.88	37509.43
658.02	37474.32
658.16	37787.95
658.31	37923.70
658.45	37560.92
658.60	37640.50
658.74	37785.61
658.88	37289.42
659.03	37628.79
659.17	37053.02
659.31	37099.83
659.46	37322.18
659.60	37289.42
659.74	37258.99
659.89	36481.93
660.03	36720.66
660.17	37172.39
660.32	37027.28
660.46	37050.68
660.60	36999.19
660.74	37268.35
660.89	37125.58
661.03	36877.48
661.17	36390.65
661.32	36388.31
661.46	36580.23
661.60	36493.63
661.74	36229.15
661.89	36313.41
662.03	36596.62
662.17	36350.86
662.31	36112.13
662.46	36584.91
662.60	36229.15
662.74	36273.62
662.88	36678.54
663.03	35924.88
663.17	36055.95
663.31	35718.92
663.45	35716.58
663.60	35882.75
663.74	35569.12
663.88	35805.52
664.02	35768.07
664.17	35805.52
664.31	35529.33
664.45	36020.84
664.59	35613.59
664.73	35857.01
664.88	35826.58
665.02	35428.69
665.16	35688.49
665.30	35765.73
665.44	35742.32
665.59	34986.33
665.73	35435.71
665.87	35063.57
666.01	35290.60
666.15	34864.62
666.29	35196.98
666.44	34995.69
666.58	35101.01
666.72	35056.54
666.86	35112.72
667.00	35054.20
667.14	34813.13
667.28	34632.91
667.43	34773.34
667.57	34665.67
667.71	34536.94
667.85	34237.36
667.99	33837.12
668.13	34061.82
668.27	34436.30
668.41	34260.76
668.56	34113.31
668.70	34050.11
668.84	34101.61
668.98	34061.82
669.12	33734.14
669.26	34005.64
669.40	33317.53
669.54	33687.33
669.68	33773.93
669.82	33881.60
669.96	33436.89
670.10	33809.04
670.25	33942.45
670.39	33525.83
670.53	33244.97
670.67	32975.81
670.81	33331.57
670.95	33448.60
671.09	33729.46
671.23	33165.39
671.37	33497.75
671.51	33149.01
671.65	33071.77
671.79	33174.75
671.93	32823.67
672.07	32907.93
672.21	32800.27
672.35	32521.74
672.49	32582.60
672.63	32732.39
672.77	32481.95
672.91	32877.51
673.05	32196.41
673.19	32271.31
673.33	32034.91
673.47	32079.38
673.61	31721.28
673.75	31908.52
673.89	31573.83
674.03	31459.14
674.17	31459.14
674.31	31978.74
674.45	31409.99
674.59	31882.78
674.73	31599.57
674.87	31658.09
675.01	31480.21
675.15	31529.36
675.29	31517.65
675.43	31625.32
675.56	31089.34
675.70	30899.75
675.84	31070.61
675.98	29874.60
676.12	30483.14
676.26	30785.07
676.40	30532.29
676.54	30370.79
676.68	30630.59
676.82	29883.96
676.96	30118.01
677.10	29972.90
677.23	30134.40
677.37	29879.28
677.51	30012.69
677.65	29919.07
677.79	29528.20
677.93	29680.33
678.07	29736.51
678.21	29244.99
678.34	29270.74
678.48	29252.02
678.62	29160.73
678.76	29064.77
678.90	28933.70
679.04	29043.71
679.18	28922.00
679.31	28807.31
679.45	28453.89
679.59	28657.52
679.73	28423.47
679.87	28313.46
680.00	28519.43
680.14	28142.60
680.28	28168.35
680.42	28133.24
680.56	28376.66
680.70	28245.58
680.83	28067.70
680.97	27407.67
681.11	27393.63
681.25	27424.06
681.39	27377.25
681.52	27410.01
681.66	27307.03
681.80	27014.46
681.94	27342.14
682.07	27370.22
682.21	27019.14
682.35	26593.17
682.49	26574.44
682.62	26808.50
682.76	26637.64
682.90	26771.05
683.04	26693.81
683.17	26324.01
683.31	26426.99
683.45	26705.51
683.59	26178.89
683.72	25628.87
683.86	26010.37
684.00	25933.14
684.13	25830.15
684.27	25806.75
684.41	25549.29
684.55	25322.26
684.68	25027.35
684.82	25390.13
684.96	25301.19
685.09	25195.87
685.23	24865.85
685.37	24975.86
685.50	24861.17
685.64	25010.96
685.78	24608.39
685.91	24898.62
686.05	24694.99
686.19	24400.08
686.32	24308.80
686.46	24053.69
686.60	23688.56
686.73	23508.34
686.87	23786.86
687.01	23557.49
687.14	23152.58
687.28	23241.52
687.42	23206.41
687.55	23014.49
687.69	23143.22
687.82	23293.01
687.96	23239.18
688.10	23419.40
688.23	23012.15
688.37	22780.43
688.50	22848.31
688.64	22885.76
688.78	22471.48
688.91	22459.78
689.05	22693.83
689.18	22279.56
689.32	22075.93
689.46	22335.73
689.59	22256.15
689.73	22462.12
689.86	22047.85
690.00	22143.81
690.13	22249.13
690.27	21680.38
690.41	21855.92
690.54	21699.11
690.68	21600.80
690.81	21598.46
690.95	21490.80
691.08	21544.63
691.22	21137.38
691.35	21158.44
691.49	21373.77
691.62	21451.01
691.76	21387.82
691.89	21055.46
692.03	20622.46
692.16	20666.93
692.30	20659.91
692.43	20624.80
692.57	20746.51
692.70	20746.51
692.84	20657.57
692.97	19838.38
693.11	20280.74
693.24	20100.52
693.38	20006.90
693.51	19889.87
693.65	20013.92
693.78	20149.67
693.92	19988.18
694.05	19803.27
694.19	19396.02
694.32	19632.41
694.45	19335.17
694.59	19295.38
694.72	19501.34
694.86	19058.98
694.99	18979.40
695.13	18799.18
695.26	18815.57
695.39	19047.28
695.53	18960.68
695.66	18740.67
695.80	18457.46
695.93	18609.60
696.07	18483.21
696.20	18735.99
696.33	18310.01
696.47	18441.08
696.60	18611.94
696.73	18036.17
696.87	18188.30
697.00	18122.77
697.14	18008.08
697.27	17834.88
697.40	17610.19
697.54	18115.75
697.67	17825.52
697.80	17563.38
697.94	17561.04
698.07	17399.54
698.21	17233.36
698.34	17322.30
698.47	17205.28
698.61	16943.14
698.74	16882.28
698.87	17025.06
699.01	17029.74
699.14	16772.28
699.27	16814.41
699.40	16744.19
699.54	16514.82
699.67	16449.28
699.80	16449.28
699.94	16477.37
700.07	16285.45
700.20	16198.85
700.34	16084.16
700.47	15960.11
700.60	16226.93
700.73	16341.62
700.87	15838.41
701.00	15929.69
701.13	15765.85
701.26	15674.57
701.40	15676.91
701.53	15454.56
701.66	15676.91
701.79	15356.25
701.93	15101.14
702.06	15094.11
702.19	15403.07
702.32	14951.34
702.46	14953.68
702.59	15147.95
702.72	15393.70
702.85	15040.28
702.99	15023.90
703.12	14745.38
703.25	14855.38
703.38	14490.26
703.51	14761.76
703.65	14656.43
703.78	14288.97
703.91	14581.54
704.04	14661.12
704.17	14462.17
704.31	13947.25
704.44	14078.32
704.57	14075.98
704.70	14036.19
704.83	13965.98
704.96	13940.23
705.10	13902.78
705.23	13944.91
>>>>>End Processed Spectral Data<<<<<
