SpectraSuite Data File
++++++++++++++++++++++++++++++++++++
Date: Fri Oct 25 10:43:55 EDT 2013
User: price-jones
Dark Spectrum Present: No
Reference Spectrum Present: No
Number of Sampled Component Spectra: 1
Spectrometers: USB2+H05261
Integration Time (usec): 100000 (USB2+H05261)
Spectra Averaged: 1 (USB2+H05261)
Boxcar Smoothing: 0 (USB2+H05261)
Correct for Electrical Dark: No (USB2+H05261)
Strobe/Lamp Enabled: No (USB2+H05261)
Correct for Detector Non-linearity: No (USB2+H05261)
Correct for Stray Light: No (USB2+H05261)
Number of Pixels in Processed Spectrum: 2048
>>>>>Begin Processed Spectral Data<<<<<
365.73	149.79
365.92	149.79
366.12	149.79
366.32	4.68
366.52	14.04
366.72	70.22
366.91	53.83
367.11	65.54
367.31	32.77
367.51	39.79
367.70	65.54
367.90	30.43
368.10	32.77
368.30	0.00
368.49	60.85
368.69	53.83
368.89	53.83
369.09	28.09
369.28	60.85
369.48	28.09
369.68	142.77
369.87	28.09
370.07	72.56
370.27	142.77
370.47	163.84
370.66	299.59
370.86	461.09
371.06	461.09
371.25	498.53
371.45	402.57
371.65	545.34
371.84	482.15
372.04	526.62
372.24	489.17
372.44	440.02
372.63	376.83
372.83	484.49
373.03	575.77
373.22	582.79
373.42	594.50
373.62	601.52
373.81	517.26
374.01	578.11
374.21	540.66
374.40	526.62
374.60	585.13
374.79	603.86
374.99	550.03
375.19	620.24
375.38	603.86
375.58	638.97
375.78	538.32
375.97	610.88
376.17	681.10
376.37	641.31
376.56	543.00
376.76	620.24
376.95	526.62
377.15	720.88
377.35	683.44
377.54	723.23
377.74	624.92
377.93	638.97
378.13	688.12
378.33	716.20
378.52	613.22
378.72	634.29
378.91	734.93
379.11	779.40
379.31	608.54
379.50	706.84
379.70	660.03
379.89	716.20
380.09	650.67
380.28	772.38
380.48	732.59
380.68	763.01
380.87	713.86
381.07	746.63
381.26	798.12
381.46	674.07
381.65	758.33
381.85	753.65
382.04	748.97
382.24	763.01
382.43	758.33
382.63	685.78
382.83	739.61
383.02	746.63
383.22	786.42
383.41	777.06
383.61	807.48
383.80	685.78
384.00	851.96
384.19	858.98
384.39	791.10
384.58	868.34
384.78	826.21
384.97	774.72
385.17	894.08
385.36	856.64
385.56	849.61
385.75	835.57
385.95	847.27
386.14	875.36
386.34	898.77
386.53	880.04
386.72	830.89
386.92	812.17
387.11	901.11
387.31	915.15
387.50	866.00
387.70	959.62
387.89	929.19
388.09	976.00
388.28	863.66
388.48	868.34
388.67	961.96
388.86	976.00
389.06	884.72
389.25	1076.65
389.45	992.39
389.64	1048.56
389.84	1128.14
390.03	1020.47
390.22	1001.75
390.42	999.41
390.61	1132.82
390.81	1088.35
391.00	1071.97
391.19	1076.65
391.39	1046.22
391.58	1067.28
391.78	1111.75
391.97	1135.16
392.16	1095.37
392.36	1074.31
392.55	1048.56
392.75	1128.14
392.94	968.98
393.13	1071.97
393.33	936.21
393.52	1020.47
393.71	1095.37
393.91	1158.57
394.10	1151.54
394.29	1231.12
394.49	1277.93
394.68	1259.21
394.88	1245.16
395.07	1284.95
395.26	1348.15
395.46	1268.57
395.65	1306.02
395.84	1207.72
396.04	1299.00
396.23	1217.08
396.42	1137.50
396.62	1184.31
396.81	1235.80
397.00	1231.12
397.19	1334.11
397.39	1336.45
397.58	1437.09
397.77	1418.36
397.97	1425.39
398.16	1397.30
398.35	1558.80
398.55	1605.61
398.74	1526.03
398.93	1596.25
399.12	1579.86
399.32	1507.30
399.51	1572.84
399.70	1533.05
399.90	1631.35
400.09	1645.40
400.28	1680.50
400.47	1715.61
400.67	1724.97
400.86	1830.30
401.05	1715.61
401.24	1825.62
401.44	1809.23
401.63	1832.64
401.82	1870.09
402.01	1813.92
402.21	1809.23
402.40	1909.88
402.59	1867.75
402.78	1816.26
402.97	1849.02
403.17	1898.17
403.36	1879.45
403.55	1877.11
403.74	2003.50
403.93	1919.24
404.13	1998.82
404.32	1916.90
404.51	1961.37
404.70	2026.90
404.89	2017.54
405.09	1968.39
405.28	1954.35
405.47	2043.29
405.66	2129.89
405.85	2106.48
406.05	2036.27
406.24	2083.08
406.43	2246.91
406.62	2221.17
406.81	2242.23
407.00	2120.53
407.20	2087.76
407.39	2183.72
407.58	2218.83
407.77	2345.22
407.96	2314.79
408.15	2352.24
408.34	2319.47
408.54	2352.24
408.73	2375.64
408.92	2459.90
409.11	2438.84
409.30	2492.67
409.49	2377.98
409.68	2499.69
409.87	2296.07
410.07	2410.75
410.26	2471.61
410.45	2445.86
410.64	2492.67
410.83	2576.93
411.02	2630.76
411.21	2609.70
411.40	2747.79
411.59	2710.34
411.78	2745.45
411.98	2768.85
412.17	2818.00
412.36	2766.51
412.55	2810.98
412.74	2920.99
412.93	2923.33
413.12	3033.33
413.31	3038.02
413.50	2923.33
413.69	3012.27
413.88	3169.09
414.07	3133.98
414.26	3176.11
414.45	3042.70
414.64	3096.53
414.83	3344.63
415.02	3279.09
415.22	3258.03
415.41	3126.96
415.60	3295.47
415.79	3328.24
415.98	3485.06
416.17	3485.06
416.36	3323.56
416.55	3346.97
416.74	3393.78
416.93	3339.94
417.12	3438.25
417.31	3454.63
417.50	3431.23
417.69	3548.25
417.88	3552.93
418.07	3625.49
418.26	3494.42
418.45	3597.40
418.64	3712.09
418.83	3686.34
419.02	3712.09
419.21	3728.47
419.39	3719.11
419.58	3719.11
419.77	3648.90
419.96	3658.26
420.15	3904.01
420.34	3896.99
420.53	3969.55
420.72	3992.95
420.91	4007.00
421.10	3934.44
421.29	4074.87
421.48	4067.85
421.67	4173.18
421.86	3904.01
422.05	3925.08
422.24	3693.37
422.43	3915.72
422.61	4070.19
422.80	4046.79
422.99	4121.68
423.18	4074.87
423.37	4205.94
423.56	4182.54
423.75	4063.17
423.94	4032.74
424.13	3791.67
424.32	3808.05
424.50	4208.28
424.69	4177.86
424.88	4264.46
425.07	4170.83
425.26	3995.29
425.45	4044.45
425.64	4135.73
425.83	4147.43
426.01	4025.72
426.20	4128.70
426.39	4187.22
426.58	4152.11
426.77	4063.17
426.96	4229.35
427.15	4203.60
427.33	4126.36
427.52	4376.80
427.71	4348.72
427.90	4315.95
428.09	4325.31
428.28	4234.03
428.46	4386.16
428.65	4208.28
428.84	4482.13
429.03	4437.66
429.22	4320.63
429.40	4332.33
429.59	4337.01
429.78	4084.23
429.97	4102.96
430.16	4175.52
430.34	4337.01
430.53	4498.51
430.72	4404.89
430.91	4442.34
431.10	4482.13
431.28	4720.86
431.47	4844.91
431.66	4861.29
431.85	4793.42
432.03	4762.99
432.22	4678.73
432.41	4905.76
432.60	4968.96
432.79	4875.34
432.97	4929.17
433.16	4858.95
433.35	4938.53
433.54	4875.34
433.72	4833.21
433.91	4835.55
434.10	4882.36
434.28	5041.51
434.47	4905.76
434.66	5144.50
434.85	5165.56
435.03	5078.96
435.22	5109.39
435.41	5378.55
435.59	5221.74
435.78	5465.15
435.97	5446.43
436.16	5394.93
436.34	5305.99
436.53	5439.40
436.72	5533.03
436.90	5184.29
437.09	5289.61
437.28	5308.34
437.46	5432.38
437.65	5338.76
437.84	5320.04
438.02	5226.42
438.21	5444.09
438.40	5406.64
438.58	5547.07
438.77	5680.48
438.96	5617.29
439.14	5827.93
439.33	5994.11
439.52	5984.75
439.70	5853.68
439.89	5867.72
440.08	6090.07
440.26	5877.09
440.45	6001.13
440.63	6001.13
440.82	6314.77
441.01	6242.21
441.19	6249.23
441.38	6415.41
441.57	6361.58
441.75	6202.42
441.94	6478.60
442.12	6722.02
442.31	6502.01
442.50	6651.80
442.68	6640.10
442.87	6764.15
443.05	6609.67
443.24	6974.80
443.43	6722.02
443.61	6724.36
443.80	6817.98
443.98	6532.44
444.17	6532.44
444.35	6789.89
444.54	6916.28
444.73	7000.54
444.91	6703.29
445.10	6736.06
445.28	6703.29
445.47	6649.46
445.65	6752.45
445.84	6792.23
446.02	7026.29
446.21	6930.33
446.39	6913.94
446.58	7000.54
446.77	6850.75
446.95	6736.06
447.14	6850.75
447.32	7140.97
447.51	6874.15
447.69	6927.99
447.88	7000.54
448.06	7117.57
448.25	7066.08
448.43	7173.74
448.62	7094.16
448.80	6986.50
448.99	6949.05
449.17	7091.82
449.36	7112.89
449.54	7126.93
449.73	7351.62
449.91	7410.14
450.10	7391.41
450.28	7625.47
450.46	7644.19
450.65	7653.55
450.83	7573.97
451.02	7569.29
451.20	7536.52
451.39	7613.76
451.57	7473.33
451.76	7442.90
451.94	7691.00
452.13	7644.19
452.31	7531.84
452.49	7520.14
452.68	7627.81
452.86	7428.86
453.05	7522.48
453.23	7747.17
453.42	7625.47
453.60	7796.32
453.78	7838.45
453.97	7552.91
454.15	7599.72
454.34	7754.19
454.52	7798.66
454.70	7639.51
454.89	7978.89
455.07	7854.84
455.26	7974.21
455.44	8025.70
455.62	7990.59
455.81	7976.55
455.99	8112.30
456.17	8236.35
456.36	8070.17
456.54	8442.31
456.73	8346.35
456.91	8482.10
457.09	8379.12
457.28	8702.11
457.46	8278.47
457.64	8519.55
457.83	8503.17
458.01	8372.10
458.19	8650.62
458.38	8475.08
458.56	8578.06
458.74	8545.30
458.93	8456.36
459.11	8564.02
459.29	8798.07
459.48	8844.88
459.66	8720.84
459.84	8788.71
460.03	8791.05
460.21	8814.46
460.39	8968.93
460.57	8821.48
460.76	8870.63
460.94	9142.13
461.12	9128.09
461.31	9050.85
461.49	9025.11
461.67	8987.66
461.85	9263.84
462.04	9092.98
462.22	9224.05
462.40	9476.83
462.59	9200.65
462.77	9116.39
462.95	9327.03
463.13	9266.18
463.32	9378.53
463.50	9582.15
463.68	9252.14
463.86	9331.72
464.05	9352.78
464.23	9174.90
464.41	9448.74
464.59	9149.15
464.78	9462.79
464.96	9448.74
465.14	9493.21
465.32	9582.15
465.50	9797.48
465.69	9757.69
465.87	9614.92
466.05	9635.99
466.23	9483.85
466.41	9507.26
466.60	9617.26
466.78	9533.00
466.96	9713.22
467.14	9762.37
467.32	9884.08
467.51	9617.26
467.69	9645.35
467.87	9582.15
468.05	9970.68
468.23	9671.09
468.41	9863.02
468.60	9884.08
468.78	9963.66
468.96	9907.49
469.14	9975.36
469.32	10090.05
469.50	9767.06
469.69	9926.21
469.87	10174.31
470.05	10195.37
470.23	10078.35
470.41	10310.06
470.59	10073.67
470.77	10377.94
470.95	10520.71
471.14	10745.40
471.32	10256.23
471.50	10679.86
471.68	10740.72
471.86	10813.28
472.04	10801.57
472.22	10923.28
472.40	10541.77
472.58	10665.82
472.77	10768.80
472.95	10979.45
473.13	11126.91
473.31	11019.24
473.49	11190.10
473.67	11030.94
473.85	11197.12
474.03	11297.77
474.21	11339.90
474.39	11426.50
474.57	11508.41
474.75	11686.29
474.93	11597.35
475.12	11522.46
475.30	11648.85
475.48	11880.56
475.66	11655.87
475.84	11953.12
476.02	11641.82
476.20	11859.49
476.38	11978.86
476.56	12224.62
476.74	12320.58
476.92	12233.98
477.10	12257.39
477.28	12517.18
477.46	12589.74
477.64	12744.22
477.82	12884.65
478.00	13296.58
478.18	12779.32
478.36	12912.74
478.54	13294.24
478.72	13046.15
478.90	13437.02
479.08	13682.77
479.26	13682.77
479.44	13551.70
479.62	13535.32
479.80	13654.69
479.98	14073.64
480.16	14298.33
480.34	13991.72
480.52	14193.01
480.70	14450.47
480.88	14197.69
481.06	14494.94
481.24	14593.24
481.41	14946.66
481.59	15012.20
481.77	15164.33
481.95	15014.54
482.13	15087.09
482.31	15087.09
482.49	15325.83
482.67	15124.54
482.85	15557.54
483.03	15840.75
483.21	16121.61
483.39	16119.27
483.57	15981.18
483.74	16152.04
483.92	16264.38
484.10	16250.34
484.28	16542.91
484.46	16861.22
484.64	16971.22
484.82	16582.70
485.00	16783.98
485.18	17067.19
485.35	16889.31
485.53	16697.38
485.71	16554.61
485.89	16830.79
486.07	16856.54
486.25	17226.34
486.43	17432.31
486.61	17617.21
486.78	17813.82
486.96	18022.12
487.14	18403.63
487.32	18478.53
487.50	18445.76
487.68	18906.85
487.85	19094.09
488.03	19019.19
488.21	19360.91
488.39	19171.33
488.57	19414.74
488.75	18979.40
488.92	20126.27
489.10	20020.94
489.28	20238.61
489.46	20456.28
489.64	20706.72
489.81	21069.50
489.99	21083.55
490.17	20936.09
490.35	21226.32
490.53	20957.16
490.70	21188.87
490.88	21549.31
491.06	21659.32
491.24	21713.15
491.41	21392.50
491.59	21483.78
491.77	21476.76
491.95	22019.76
492.13	22455.10
492.30	22113.38
492.48	22876.40
492.66	22494.89
492.84	22682.13
493.01	23000.44
493.19	23108.11
493.37	22874.06
493.54	22941.93
493.72	23583.24
493.90	23309.40
494.08	23597.28
494.25	24037.30
494.43	23779.84
494.61	24421.15
494.79	24521.79
494.96	24297.10
495.14	23910.91
495.32	24320.51
495.49	24458.60
495.67	24781.59
495.85	25317.57
496.02	24936.07
496.20	25193.53
496.38	25343.32
496.55	25343.32
496.73	25827.81
496.91	25928.45
497.09	26237.41
497.26	25991.65
497.44	26043.14
497.62	26045.48
497.79	26260.81
497.97	25816.11
498.14	26590.83
498.32	26616.57
498.50	26616.57
498.67	26923.18
498.85	26803.82
499.03	27201.71
499.20	27290.65
499.38	27555.13
499.56	27353.84
499.73	27505.98
499.91	27498.95
500.08	27269.58
500.26	27438.10
500.44	27707.26
500.61	27480.23
500.79	27398.31
500.97	27782.16
501.14	27878.12
501.32	28056.00
501.49	27831.31
501.67	28463.25
501.84	28266.65
502.02	28388.36
502.20	28631.77
502.37	28947.75
502.55	28893.91
502.72	28699.65
502.90	28861.15
503.07	28727.74
503.25	28694.97
503.43	29142.01
503.60	29029.66
503.78	29003.92
503.95	29205.20
504.13	29207.55
504.30	29862.90
504.48	29596.07
504.65	29916.73
504.83	29865.24
505.01	29928.43
505.18	30040.78
505.36	30703.15
505.53	30419.94
505.71	30808.47
505.88	30707.83
506.06	30448.03
506.23	30859.96
506.41	30586.12
506.58	30644.63
506.76	30794.43
506.93	30993.37
507.11	31044.87
507.28	30981.67
507.46	31070.61
507.63	31079.97
507.81	31278.92
507.98	31000.40
508.16	31428.71
508.33	31639.36
508.50	31566.81
508.68	31913.20
508.85	32173.00
509.03	32046.62
509.20	31810.22
509.38	32283.01
509.55	31971.72
509.73	32283.01
509.90	32283.01
510.08	32229.18
510.25	32086.40
510.42	32294.71
510.60	32463.23
510.77	32840.06
510.95	33116.24
511.12	32435.14
511.30	33130.28
511.47	33673.29
511.64	33469.66
511.82	33420.51
511.99	33404.13
512.17	33422.85
512.34	33399.44
512.51	33795.00
512.69	33684.99
512.86	33619.46
513.04	33710.74
513.21	33450.94
513.38	34178.84
513.56	33635.84
513.73	33729.46
513.90	33905.00
514.08	34263.10
514.25	34204.59
514.43	34232.68
514.60	34101.61
514.77	34061.82
514.95	34405.88
515.12	34579.07
515.29	34448.00
515.47	35051.86
515.64	34986.33
515.81	34668.02
515.99	34878.66
516.16	35019.10
516.33	34637.59
516.51	34967.60
516.68	33818.40
516.85	34141.39
517.03	34242.04
517.20	35309.32
517.37	35318.68
517.54	35655.72
517.72	35351.45
517.89	34660.99
518.06	34878.66
518.24	35199.32
518.41	35012.07
518.58	35449.75
518.75	35531.67
518.93	36018.50
519.10	36016.16
519.27	36177.66
519.45	35878.07
519.62	36524.06
519.79	36350.86
519.96	36135.53
520.14	36575.55
520.31	36432.78
520.48	36184.68
520.65	36397.67
520.83	37050.68
521.00	36833.01
521.17	37015.57
521.34	36940.68
521.52	37120.90
521.69	37242.60
521.86	37205.16
522.03	37200.47
522.20	37497.72
522.38	37584.32
522.55	37591.34
522.72	37422.83
522.89	37525.81
523.07	37722.41
523.24	37771.57
523.41	38213.93
523.58	37965.83
523.75	38337.98
523.92	38185.84
524.10	38288.82
524.27	38576.71
524.44	38099.24
524.61	38253.72
524.78	38756.93
524.96	38752.25
525.13	38473.73
525.30	38763.95
525.47	39040.14
525.64	38724.16
525.81	38623.52
525.98	38576.71
526.16	38143.71
526.33	38101.58
526.50	38806.08
526.67	37916.68
526.84	38216.27
527.01	37820.72
527.18	39077.58
527.36	39304.62
527.53	39803.15
527.70	39480.16
527.87	39552.71
528.04	39512.92
528.21	39248.44
528.38	39641.65
528.55	39679.10
528.72	40252.53
528.89	40474.88
529.07	40142.53
529.24	39508.24
529.41	40086.36
529.58	39866.34
529.75	40119.12
529.92	40287.64
530.09	39737.62
530.26	39945.92
530.43	40608.29
530.60	40032.52
530.77	40245.51
530.94	40706.60
531.11	40741.71
531.28	40165.93
531.46	41036.61
531.63	40509.99
531.80	40517.01
531.97	40594.25
532.14	40781.49
532.31	40084.01
532.48	40327.43
532.65	40620.00
532.82	40376.58
532.99	40706.60
533.16	40828.30
533.33	41317.48
533.50	41071.72
533.67	40994.48
533.84	41008.53
534.01	41474.29
534.18	40912.56
534.35	41280.03
534.52	40933.63
534.69	40975.76
534.86	41565.57
535.03	41731.75
535.20	42066.45
535.37	42267.73
535.54	41883.89
535.71	41731.75
535.88	41808.99
536.05	41680.26
536.22	42043.04
536.38	41682.60
536.55	42141.35
536.72	41357.27
536.89	41235.56
537.06	41677.92
537.23	42185.82
537.40	42361.36
537.57	42260.71
537.74	41989.21
537.91	42534.56
538.08	42487.74
538.25	42419.87
538.42	42473.70
538.59	42609.45
538.75	41839.42
538.92	42663.28
539.09	42319.23
539.26	42574.34
539.43	42244.33
539.60	42342.63
539.77	42223.26
539.94	43054.15
540.11	42321.57
540.28	42471.36
540.44	42335.61
540.61	42195.18
540.78	42700.73
540.95	42572.00
541.12	42677.33
541.29	42738.18
541.46	42944.15
541.62	43070.54
541.79	42916.06
541.96	42593.07
542.13	42761.59
542.30	43042.45
542.47	42892.66
542.63	42862.23
542.80	43012.02
542.97	43377.15
543.14	43878.02
543.31	43784.40
543.48	43840.57
543.64	44158.89
543.81	43812.49
543.98	44229.10
544.15	43838.23
544.32	43950.58
544.48	44224.42
544.65	44065.27
544.82	44095.69
544.99	43433.32
545.16	43927.17
545.32	43833.55
545.49	44240.81
545.66	44444.43
545.83	44168.25
546.00	44093.35
546.16	44334.43
546.33	44067.61
546.50	43948.24
546.67	44327.41
546.83	44016.11
547.00	44357.83
547.17	44774.45
547.34	43962.28
547.50	44168.25
547.67	44701.89
547.84	44608.27
548.00	44692.53
548.17	44755.72
548.34	44818.92
548.51	45062.33
548.67	44793.17
548.84	44982.76
549.01	44903.18
549.18	44442.09
549.34	44863.39
549.51	44919.56
549.68	45216.81
549.84	45020.20
550.01	45357.24
550.18	44898.50
550.34	44999.14
550.51	44964.03
550.68	44666.78
550.84	44575.50
551.01	45441.50
551.18	45237.87
551.34	45048.29
551.51	45172.34
551.68	45319.79
551.84	45113.83
552.01	45242.56
552.18	45170.00
552.34	44907.86
552.51	45244.90
552.68	45469.59
552.84	45041.27
553.01	45331.50
553.18	45022.54
553.34	45469.59
553.51	45385.33
553.67	45790.24
553.84	45661.51
554.01	45804.28
554.17	45581.93
554.34	45949.40
554.51	45993.87
554.67	45911.95
554.84	45797.26
555.00	45394.69
555.17	45684.92
555.33	45778.54
555.50	45897.91
555.67	45860.46
555.83	45930.67
556.00	45801.94
556.16	46178.77
556.33	46080.47
556.50	45965.78
556.66	45918.97
556.83	45778.54
556.99	46209.20
557.16	46199.83
557.32	46117.92
557.49	46110.89
557.65	46115.58
557.82	45834.71
557.98	46017.27
558.15	45832.37
558.32	46080.47
558.48	45572.57
558.65	46106.21
558.81	45993.87
558.98	45827.69
559.14	45904.93
559.31	46553.26
559.47	46185.79
559.64	46106.21
559.80	46108.55
559.97	46169.41
560.13	46138.98
560.30	46155.36
560.46	45893.22
560.63	46436.23
560.79	46302.82
560.96	46983.91
561.12	46382.40
561.29	45715.34
561.45	46265.37
561.61	46232.60
561.78	46300.48
561.94	45989.19
562.11	45970.46
562.27	46148.34
562.44	46337.93
562.60	46433.89
562.77	46651.56
562.93	46417.50
563.10	46892.63
563.26	46185.79
563.42	46721.77
563.59	46241.96
563.75	46375.37
563.92	46864.55
564.08	46459.63
564.24	46974.55
564.41	46663.26
564.57	46590.70
564.74	46433.89
564.90	46174.09
565.07	46703.05
565.23	46546.23
565.39	46597.73
565.56	46569.64
565.72	46564.96
565.88	46438.57
566.05	46396.44
566.21	46497.08
566.38	46567.30
566.54	46457.29
566.70	46876.25
566.87	46724.11
567.03	46803.69
567.19	47009.66
567.36	46913.70
567.52	46939.44
567.68	46995.62
567.85	46653.90
568.01	47103.28
568.17	46796.67
568.34	46506.44
568.50	46717.09
568.66	46817.74
568.83	46628.15
568.99	46595.38
569.15	46270.05
569.32	46810.71
569.48	46239.62
569.64	47054.13
569.81	46710.07
569.97	46181.11
570.13	46916.04
570.30	46309.84
570.46	46356.65
570.62	46773.27
570.78	46298.14
570.95	46515.81
571.11	46951.15
571.27	46635.17
571.43	46777.95
571.60	46965.19
571.76	46726.46
571.92	47021.36
572.09	46911.36
572.25	47150.09
572.41	46927.74
572.57	47173.50
572.74	47512.88
572.90	46894.97
573.06	46976.89
573.22	46492.40
573.38	46986.25
573.55	47042.43
573.71	47206.26
573.87	46899.65
574.03	46724.11
574.20	46815.40
574.36	46541.55
574.52	46670.28
574.68	46990.94
574.84	47004.98
575.01	46866.89
575.17	46532.19
575.33	46738.16
575.49	46571.98
575.65	47306.91
575.82	47189.88
575.98	46972.21
576.14	46728.80
576.30	46614.11
576.46	46932.42
576.62	46920.72
576.79	46862.21
576.95	46412.82
577.11	47028.38
577.27	47164.14
577.43	46822.42
577.59	46649.22
577.75	46274.73
577.92	46471.34
578.08	46349.63
578.24	46518.15
578.40	46850.50
578.56	47065.83
578.72	47002.64
578.88	46937.10
579.04	47363.08
579.21	46632.83
579.37	46838.80
579.53	46717.09
579.69	46735.82
579.85	47007.32
580.01	47161.79
580.17	46904.34
580.33	47145.41
580.49	47456.70
580.65	47157.11
580.82	47452.02
580.98	46677.30
581.14	47124.35
581.30	47580.75
581.46	47203.92
581.62	46834.12
581.78	47082.22
581.94	47398.19
582.10	47487.13
582.26	47178.18
582.42	47283.50
582.58	46925.40
582.74	47042.43
582.90	47243.71
583.06	47302.23
583.22	47311.59
583.38	47524.58
583.54	47276.48
583.70	47030.72
583.86	46848.16
584.02	46887.95
584.18	47033.07
584.34	46927.74
584.50	46923.06
584.66	46801.35
584.82	47206.26
584.98	47494.15
585.14	46906.68
585.30	46681.98
585.46	47124.35
585.62	46555.60
585.78	46677.30
585.94	46469.00
586.10	47203.92
586.26	46483.04
586.42	47428.62
586.58	47065.83
586.74	46953.49
586.90	47103.28
587.06	47168.82
587.22	46990.94
587.38	46887.95
587.54	46993.28
587.70	47264.78
587.86	47161.79
588.02	46857.52
588.18	47192.22
588.34	46630.49
588.49	46658.58
588.65	46256.01
588.81	46424.53
588.97	46506.44
589.13	46461.97
589.29	46672.62
589.45	46841.14
589.61	46890.29
589.77	46707.73
589.93	47203.92
590.08	47346.70
590.24	47269.46
590.40	47667.35
590.56	47337.33
590.72	47201.58
590.88	46876.25
591.04	46911.36
591.20	47494.15
591.35	47393.51
591.51	47779.70
591.67	47206.26
591.83	47531.60
591.99	47145.41
592.15	47419.25
592.31	47503.51
592.46	47203.92
592.62	47182.86
592.78	47281.16
592.94	47292.86
593.10	47332.65
593.26	47297.55
593.41	47363.08
593.57	47255.42
593.73	47051.79
593.89	46838.80
594.05	47285.84
594.20	47175.84
594.36	46880.93
594.52	46869.23
594.68	46628.15
594.84	47150.09
594.99	47180.52
595.15	47044.77
595.31	47248.39
595.47	46995.62
595.62	47356.06
595.78	47241.37
595.94	47578.41
596.10	47334.99
596.25	47077.54
596.41	47037.75
596.57	46986.25
596.73	47627.56
596.88	46649.22
597.04	47466.06
597.20	47234.35
597.36	47454.36
597.51	47545.64
597.67	47136.05
597.83	47224.99
597.99	47051.79
598.14	47210.95
598.30	47199.24
598.46	46967.53
598.61	46983.91
598.77	46787.31
598.93	47093.92
599.09	47107.96
599.24	47866.30
599.40	47562.03
599.56	47260.10
599.71	47370.10
599.87	47435.64
600.03	46621.13
600.18	47004.98
600.34	46953.49
600.50	47157.11
600.65	46827.10
600.81	47246.05
600.97	47285.84
601.12	47470.75
601.28	47157.11
601.44	46885.61
601.59	46667.94
601.75	46763.90
601.91	47501.17
602.06	47353.72
602.22	47253.08
602.37	46841.14
602.53	47070.51
602.69	47185.20
602.84	47477.77
603.00	47543.30
603.16	47255.42
603.31	46899.65
603.47	46934.76
603.62	47014.34
603.78	47367.76
603.94	47269.46
604.09	47466.06
604.25	47143.07
604.40	46930.08
604.56	46614.11
604.71	47262.44
604.87	46794.33
605.03	46827.10
605.18	46696.03
605.34	47129.03
605.49	46925.40
605.65	47419.25
605.80	46906.68
605.96	47026.04
606.12	47004.98
606.27	47030.72
606.43	46916.04
606.58	47201.58
606.74	47054.13
606.89	46541.55
607.05	46923.06
607.20	46838.80
607.36	46916.04
607.51	47192.22
607.67	47072.85
607.82	46972.21
607.98	46740.50
608.13	46834.12
608.29	46382.40
608.44	46143.66
608.60	46246.65
608.75	46586.02
608.91	46838.80
609.06	46621.13
609.22	46887.95
609.37	46480.70
609.53	46536.87
609.68	46660.92
609.84	46752.20
609.99	46649.22
610.15	46284.09
610.30	46628.15
610.46	46419.84
610.61	46419.84
610.76	46440.91
610.92	46934.76
611.07	46740.50
611.23	46595.38
611.38	46639.86
611.54	46588.36
611.69	46246.65
611.84	46241.96
612.00	46085.15
612.15	46059.40
612.31	46525.17
612.46	46293.46
612.62	46342.61
612.77	46377.72
612.92	46433.89
613.08	45771.52
613.23	45909.61
613.39	45792.58
613.54	45904.93
613.69	46094.51
613.85	45675.55
614.00	45982.16
614.15	46340.27
614.31	46417.50
614.46	46253.67
614.62	46256.01
614.77	46195.15
614.92	45958.76
615.08	45970.46
615.23	45560.87
615.38	45603.00
615.54	45413.41
615.69	45647.47
615.84	45624.06
616.00	45907.27
616.15	45378.31
616.30	45750.45
616.46	45642.79
616.61	45823.01
616.76	45476.61
616.92	45116.17
617.07	45446.18
617.22	45050.63
617.37	45319.79
617.53	45638.11
617.68	45823.01
617.83	45696.62
617.99	45228.51
618.14	45181.70
618.29	45214.47
618.45	45331.50
618.60	44973.39
618.75	44975.73
618.90	44652.74
619.06	45195.74
619.21	45090.42
619.36	45418.10
619.51	44903.18
619.67	45162.98
619.82	45146.59
619.97	45280.00
620.12	44807.22
620.28	44865.73
620.43	44910.20
620.58	45134.89
620.73	44996.80
620.89	44875.09
621.04	44839.98
621.19	45095.10
621.34	45064.67
621.49	44304.00
621.65	44357.83
621.80	44968.71
621.95	44657.42
622.10	44790.83
622.25	44699.55
622.41	44390.60
622.56	44636.36
622.71	44605.93
622.86	44774.45
623.01	44959.35
623.16	44294.64
623.32	44524.01
623.47	44343.79
623.62	44418.69
623.77	44369.54
623.92	44580.18
624.07	44076.97
624.23	44275.91
624.38	43899.09
624.53	44252.51
624.68	43943.56
624.83	44072.29
624.98	44119.10
625.13	44041.86
625.29	43945.90
625.44	44076.97
625.59	43641.63
625.74	43393.53
625.89	43662.69
626.04	43927.17
626.19	44154.21
626.34	43807.81
626.49	43920.15
626.65	44051.22
626.80	43920.15
626.95	43299.91
627.10	43751.63
627.25	43353.74
627.40	43545.67
627.55	43040.11
627.70	43100.97
627.85	43508.22
628.00	43353.74
628.15	43856.96
628.30	43625.25
628.45	43508.22
628.60	43182.88
628.76	43475.45
628.91	43250.76
629.06	43419.28
629.21	42962.87
629.36	43246.08
629.51	42820.10
629.66	43290.55
629.81	42892.66
629.96	42951.17
630.11	43285.87
630.26	43398.21
630.41	43419.28
630.56	42934.79
630.71	42838.83
630.86	42864.57
631.01	43203.95
631.16	42792.01
631.31	42330.93
631.46	42820.10
631.61	43239.06
631.76	43098.62
631.91	42511.15
632.06	42756.91
632.21	42960.53
632.36	42859.89
632.51	42759.25
632.66	42384.76
632.81	42536.90
632.96	42586.05
633.10	42263.05
633.25	42347.31
633.40	42628.18
633.55	42677.33
633.70	42424.55
633.85	42225.60
634.00	42667.97
634.15	42646.90
634.30	42131.98
634.45	42286.46
634.60	42120.28
634.75	42066.45
634.90	42010.28
635.05	42417.53
635.19	42227.95
635.34	42281.78
635.49	42101.56
635.64	42019.64
635.79	42071.13
635.94	41855.80
636.09	42183.48
636.24	41808.99
636.39	41439.18
636.53	41921.34
636.68	41708.35
636.83	41940.06
636.98	42258.37
637.13	41493.02
637.28	42337.95
637.43	42160.07
637.57	41926.02
637.72	41984.53
637.87	41956.44
638.02	41965.81
638.17	41574.94
638.32	41853.46
638.46	42021.98
638.61	41497.70
638.76	41301.09
638.91	41961.12
639.06	41738.77
639.20	41631.11
639.35	41656.85
639.50	41383.01
639.65	41291.73
639.80	41371.31
639.94	41163.00
640.09	41429.82
640.24	41345.56
640.39	41017.89
640.54	41034.27
640.68	41240.24
640.83	41092.79
640.98	41015.55
641.13	41151.30
641.27	41186.41
641.42	41109.17
641.57	40807.24
641.72	41144.28
641.86	40655.11
642.01	40896.18
642.16	40348.50
642.31	40554.46
642.45	40811.92
642.60	41027.25
642.75	41017.89
642.90	40638.72
643.04	40718.30
643.19	40601.27
643.34	40505.31
643.48	40804.90
643.63	40287.64
643.78	40212.74
643.93	40781.49
644.07	40311.05
644.22	40535.74
644.37	40236.15
644.51	40563.82
644.66	40477.22
644.81	40432.75
644.95	40601.27
645.10	40381.26
645.25	40535.74
645.39	40306.37
645.54	40212.74
645.69	40055.93
645.83	40357.86
645.98	40238.49
646.13	40189.34
646.27	40369.56
646.42	40172.96
646.57	39915.50
646.71	40336.79
646.86	40179.98
647.00	40385.94
647.15	40203.38
647.30	39901.45
647.44	40425.73
647.59	39992.73
647.74	39824.22
647.88	39772.72
648.03	39768.04
648.17	39772.72
648.32	39285.89
648.47	40027.84
648.61	39887.41
648.76	39658.04
648.90	39643.99
649.05	39648.68
649.20	39805.49
649.34	39681.44
649.49	39522.29
649.63	39288.23
649.78	39969.33
649.92	39552.71
650.07	39840.60
650.21	39194.61
650.36	39768.04
650.51	39517.60
650.65	39903.79
650.80	39868.69
650.94	39473.13
651.09	39728.25
651.23	39112.69
651.38	39133.76
651.52	39089.29
651.67	38789.70
651.81	38770.97
651.96	39194.61
652.10	39086.95
652.25	39009.71
652.39	38953.54
652.54	38911.41
652.68	39222.70
652.83	39009.71
652.97	38988.64
653.12	39014.39
653.26	38455.00
653.41	38801.40
653.55	38726.50
653.70	39203.97
653.84	38796.72
653.99	38663.31
654.13	38714.80
654.27	38752.25
654.42	38609.48
654.56	38770.97
654.71	38726.50
654.85	38333.29
655.00	38691.40
655.14	38384.79
655.29	37865.19
655.43	38206.90
655.57	38164.78
655.72	38136.69
655.86	37717.73
656.01	37717.73
656.15	37659.22
656.30	37937.74
656.44	37645.18
656.58	37965.83
656.73	38022.00
656.87	37649.86
657.01	37975.19
657.16	37830.08
657.30	37670.92
657.45	37525.81
657.59	37687.31
657.73	37581.98
657.88	37792.63
658.02	37834.76
658.16	37844.12
658.31	38160.09
658.45	38127.33
658.60	38146.05
658.74	37844.12
658.88	37486.02
659.03	37366.65
659.17	37383.04
659.31	37411.12
659.46	37404.10
659.60	37294.10
659.74	37708.37
659.89	37207.50
660.03	36896.20
660.17	37212.18
660.32	37710.71
660.46	37787.95
660.60	36727.69
660.74	37060.04
660.89	37469.64
661.03	36652.79
661.17	37144.30
661.32	36432.78
661.46	36971.10
661.60	36559.17
661.74	36781.52
661.89	36940.68
662.03	37034.30
662.17	36290.01
662.31	36605.98
662.46	36933.65
662.60	37050.68
662.74	36638.75
662.88	36285.33
663.03	36687.90
663.17	36428.10
663.31	35981.06
663.45	36165.96
663.60	36205.75
663.74	36060.63
663.88	36175.32
664.02	35807.86
664.17	36060.63
664.31	36055.95
664.45	35772.75
664.59	35669.76
664.73	35969.35
664.88	35800.83
665.02	35391.24
665.16	35964.67
665.30	35782.11
665.44	35578.48
665.59	35086.97
665.73	35353.79
665.87	35063.57
666.01	34988.67
666.15	35367.84
666.29	35400.60
666.44	35171.23
666.58	35161.87
666.72	34951.22
666.86	35070.59
667.00	35405.28
667.14	34485.45
667.28	34546.31
667.43	34719.51
667.57	35330.39
667.71	34623.54
667.85	34548.65
667.99	34735.89
668.13	34483.11
668.27	34302.89
668.41	34574.39
668.56	34227.99
668.70	34211.61
668.84	34162.46
668.98	33956.49
669.12	33682.65
669.26	33965.85
669.40	34237.36
669.54	33965.85
669.68	33979.90
669.82	33773.93
669.96	33897.98
670.10	33446.26
670.25	33928.41
670.39	32933.68
670.53	33078.79
670.67	33567.96
670.81	33359.66
670.95	33413.49
671.09	33385.40
671.23	33472.00
671.37	32711.33
671.51	32872.82
671.65	33041.34
671.79	33053.05
671.93	32938.36
672.07	32961.76
672.21	32479.61
672.35	32547.49
672.49	32954.74
672.63	32816.65
672.77	32835.38
672.91	32526.42
673.05	32165.98
673.19	32350.88
673.33	31927.25
673.47	32023.21
673.61	32362.59
673.75	31737.66
673.89	31920.23
674.03	31473.18
674.17	31688.51
674.31	31299.98
674.45	31735.32
674.59	31601.91
674.73	31812.56
674.87	31527.02
675.01	31501.27
675.15	31288.28
675.29	31168.91
675.43	31346.79
675.56	31882.78
675.70	31033.16
675.84	30998.06
675.98	29734.17
676.12	30878.69
676.26	31365.52
676.40	30864.64
676.54	31147.85
676.68	30719.53
676.82	30380.15
676.96	30471.43
677.10	30485.48
677.23	30541.65
677.37	30036.09
677.51	30113.33
677.65	29928.43
677.79	29418.19
677.93	29652.25
678.07	29539.90
678.21	29340.96
678.34	29303.51
678.48	29303.51
678.62	29097.54
678.76	28802.63
678.90	28957.11
679.04	28847.10
679.18	28793.27
679.31	28996.90
679.45	28308.78
679.59	28795.61
679.73	28435.17
679.87	28149.62
680.00	28479.64
680.14	28250.27
680.28	28334.53
680.42	28355.59
680.56	27817.27
680.70	27985.79
680.83	28086.43
680.97	27920.25
681.11	27721.30
681.25	27835.99
681.39	27672.15
681.52	27686.20
681.66	27740.03
681.80	27648.75
681.94	27091.70
682.07	27255.54
682.21	27094.04
682.35	27098.72
682.49	27241.50
682.62	26937.23
682.76	26532.31
682.90	26642.32
683.04	26583.80
683.17	26448.05
683.31	26155.49
683.45	26251.45
683.59	26094.63
683.72	26057.18
683.86	26223.36
684.00	26368.48
684.13	25694.40
684.27	26061.87
684.41	25455.67
684.55	25352.68
684.68	25434.60
684.82	25144.38
684.96	24985.22
685.09	25170.12
685.23	25071.82
685.37	25163.10
685.50	25060.12
685.64	24959.47
685.78	24730.10
685.91	24561.58
686.05	24781.59
686.19	24311.14
686.32	24119.22
686.46	24074.75
686.60	23693.24
686.73	23410.04
686.87	23545.79
687.01	23190.03
687.14	23147.90
687.28	23405.36
687.42	23623.03
687.55	23009.81
687.69	23407.70
687.82	23520.04
687.96	23255.56
688.10	23164.28
688.23	23014.49
688.37	22820.22
688.50	22937.25
688.64	22916.19
688.78	22817.88
688.91	22508.93
689.05	22485.53
689.18	22649.36
689.32	22207.00
689.46	22389.56
689.59	22284.24
689.73	22658.73
689.86	22277.22
690.00	21827.84
690.13	21902.73
690.27	21944.86
690.41	21914.44
690.54	21699.11
690.68	21500.16
690.81	21462.71
690.95	21397.18
691.08	21575.06
691.22	21488.46
691.35	21635.91
691.49	21617.19
691.62	21207.59
691.76	21418.24
691.89	21137.38
692.03	20940.77
692.16	21132.70
692.30	20727.78
692.43	20767.57
692.57	20271.38
692.70	20437.56
692.84	20416.49
692.97	20053.71
693.11	20360.32
693.24	20156.69
693.38	19793.91
693.51	20456.28
693.65	19990.52
693.78	19829.02
693.92	19948.39
694.05	19786.89
694.19	19618.37
694.32	19564.54
694.45	19414.74
694.59	19096.43
694.72	19112.81
694.86	19117.50
694.99	19201.76
695.13	19154.94
695.26	18860.04
695.39	18892.80
695.53	19007.49
695.66	19119.84
695.80	18656.41
695.93	18735.99
696.07	18469.17
696.20	18574.49
696.33	18731.31
696.47	18066.60
696.60	18122.77
696.73	18270.22
696.87	18295.97
697.00	17813.82
697.14	17947.23
697.27	17568.06
697.40	17855.95
697.54	17425.29
697.67	17685.09
697.80	17350.39
697.94	17378.48
698.07	17221.66
698.21	17015.69
698.34	17179.53
698.47	17427.63
698.61	17025.06
698.74	17001.65
698.87	16830.79
699.01	16585.04
699.14	16783.98
699.27	16308.85
699.40	16479.71
699.54	16774.62
699.67	16706.74
699.80	16582.70
699.94	16156.72
700.07	16451.63
700.20	16081.82
700.34	16250.34
700.47	16311.19
700.60	16149.70
700.73	16341.62
700.87	15889.90
701.00	15735.42
701.13	15527.11
701.26	15552.86
701.40	15592.65
701.53	15508.39
701.66	15482.64
701.79	15433.49
701.93	15215.82
702.06	15222.84
702.19	14920.92
702.32	15066.03
702.46	15087.09
702.59	15173.69
702.72	15089.43
702.85	14829.63
702.99	14899.85
703.12	14682.18
703.25	14661.12
703.38	14366.21
703.51	14644.73
703.65	14686.86
703.78	14310.04
703.91	14239.82
704.04	14218.75
704.17	14349.82
704.31	14052.58
704.44	14200.03
704.57	14146.20
704.70	13991.72
704.83	13642.98
704.96	14120.45
705.10	13921.51
705.23	13750.65
>>>>>End Processed Spectral Data<<<<<
