SpectraSuite Data File
++++++++++++++++++++++++++++++++++++
Date: Fri Oct 25 11:34:02 EDT 2013
User: price-jones
Dark Spectrum Present: No
Reference Spectrum Present: No
Number of Sampled Component Spectra: 1
Spectrometers: USB2+H05261
Integration Time (usec): 100000 (USB2+H05261)
Spectra Averaged: 1 (USB2+H05261)
Boxcar Smoothing: 0 (USB2+H05261)
Correct for Electrical Dark: No (USB2+H05261)
Strobe/Lamp Enabled: No (USB2+H05261)
Correct for Detector Non-linearity: No (USB2+H05261)
Correct for Stray Light: No (USB2+H05261)
Number of Pixels in Processed Spectrum: 2048
>>>>>Begin Processed Spectral Data<<<<<
365.73	234.05
365.92	234.05
366.12	234.05
366.32	198.95
366.52	154.48
366.72	154.48
366.91	128.73
367.11	163.84
367.31	205.97
367.51	177.88
367.70	159.16
367.90	163.84
368.10	170.86
368.30	147.45
368.49	203.63
368.69	189.58
368.89	201.29
369.09	222.35
369.28	231.71
369.48	215.33
369.68	177.88
369.87	208.31
370.07	205.97
370.27	287.89
370.47	327.68
370.66	388.53
370.86	503.22
371.06	580.45
371.25	510.24
371.45	538.32
371.65	543.00
371.84	484.49
372.04	550.03
372.24	566.41
372.44	512.58
372.63	613.22
372.83	603.86
373.03	617.90
373.22	566.41
373.42	578.11
373.62	561.73
373.81	615.56
374.01	657.69
374.21	650.67
374.40	599.18
374.60	631.94
374.79	599.18
374.99	674.07
375.19	692.80
375.38	688.12
375.58	655.35
375.78	690.46
375.97	688.12
376.17	688.12
376.37	613.22
376.56	564.07
376.76	620.24
376.95	650.67
377.15	699.82
377.35	683.44
377.54	713.86
377.74	725.57
377.93	699.82
378.13	730.25
378.33	760.67
378.52	695.14
378.72	732.59
378.91	699.82
379.11	697.48
379.31	763.01
379.50	706.84
379.70	671.73
379.89	709.18
380.09	746.63
380.28	798.12
380.48	711.52
380.68	741.95
380.87	737.27
381.07	739.61
381.26	748.97
381.46	777.06
381.65	770.04
381.85	664.71
382.04	774.72
382.24	805.14
382.43	828.55
382.63	767.70
382.83	826.21
383.02	763.01
383.22	795.78
383.41	823.87
383.61	854.30
383.80	807.48
384.00	802.80
384.19	896.43
384.39	802.80
384.58	784.08
384.78	800.46
384.97	784.08
385.17	755.99
385.36	830.89
385.56	821.53
385.75	819.19
385.95	774.72
386.14	880.04
386.34	866.00
386.53	791.10
386.72	849.61
386.92	873.02
387.11	819.19
387.31	929.19
387.50	929.19
387.70	868.34
387.89	837.91
388.09	873.02
388.28	847.27
388.48	959.62
388.67	917.49
388.86	793.44
389.06	961.96
389.25	889.40
389.45	847.27
389.64	950.26
389.84	968.98
390.03	976.00
390.22	1006.43
390.42	919.83
390.61	936.21
390.81	1020.47
391.00	1011.11
391.19	1060.26
391.39	1055.58
391.58	968.98
391.78	1001.75
391.97	1015.79
392.16	1022.81
392.36	1004.09
392.55	1048.56
392.75	1086.01
392.94	1078.99
393.13	1123.46
393.33	922.17
393.52	1029.84
393.71	1102.39
393.91	1039.20
394.10	1064.94
394.29	1048.56
394.49	1149.20
394.68	1055.58
394.88	1093.03
395.07	1132.82
395.26	1191.33
395.46	1207.72
395.65	1184.31
395.84	1144.52
396.04	1224.10
396.23	1128.14
396.42	1167.93
396.62	1191.33
396.81	1179.63
397.00	1193.67
397.19	1273.25
397.39	1275.59
397.58	1224.10
397.77	1217.08
397.97	1203.04
398.16	1249.85
398.35	1287.29
398.55	1242.82
398.74	1270.91
398.93	1324.74
399.12	1303.68
399.32	1287.29
399.51	1280.27
399.70	1364.53
399.90	1376.24
400.09	1301.34
400.28	1296.66
400.47	1399.64
400.67	1437.09
400.86	1455.81
401.05	1437.09
401.24	1465.18
401.44	1387.94
401.63	1397.30
401.82	1416.02
402.01	1446.45
402.21	1523.69
402.40	1453.47
402.59	1439.43
402.78	1472.20
402.97	1507.30
403.17	1511.99
403.36	1568.16
403.55	1493.26
403.74	1607.95
403.93	1605.61
404.13	1563.48
404.32	1586.88
404.51	1631.35
404.70	1715.61
404.89	1572.84
405.09	1598.59
405.28	1607.95
405.47	1614.97
405.66	1703.91
405.85	1659.44
406.05	1797.53
406.24	1732.00
406.43	1739.02
406.62	1837.32
406.81	1834.98
407.00	1767.10
407.20	1729.66
407.39	1757.74
407.58	1774.13
407.77	1820.94
407.96	1879.45
408.15	1905.20
408.34	1877.11
408.54	1907.54
408.73	1888.81
408.92	1884.13
409.11	1907.54
409.30	1933.28
409.49	1963.71
409.68	2043.29
409.87	1966.05
410.07	1863.07
410.26	2076.06
410.45	1982.43
410.64	1966.05
410.83	2064.35
411.02	2026.90
411.21	2083.08
411.40	2045.63
411.59	2195.42
411.78	2209.47
411.98	2228.19
412.17	2223.51
412.36	2214.15
412.55	2312.45
412.74	2286.70
412.93	2356.92
413.12	2296.07
413.31	2427.14
413.50	2392.03
413.69	2300.75
413.88	2534.80
414.07	2377.98
414.26	2513.74
414.45	2490.33
414.64	2532.46
414.83	2583.95
415.02	2586.29
415.22	2693.96
415.41	2672.89
415.60	2574.59
415.79	2523.10
415.98	2724.38
416.17	2684.59
416.36	2766.51
416.55	2665.87
416.74	2771.19
416.93	2733.75
417.12	2792.26
417.31	2951.42
417.50	2787.58
417.69	2937.37
417.88	2836.73
418.07	2820.35
418.26	2965.46
418.45	2935.03
418.64	3042.70
418.83	2958.44
419.02	2977.16
419.21	2960.78
419.39	3082.49
419.58	3112.91
419.77	2998.23
419.96	3112.91
420.15	3197.17
420.34	3056.74
420.53	3150.36
420.72	3258.03
420.91	3346.97
421.10	3204.19
421.29	3222.92
421.48	3126.96
421.67	3267.39
421.86	3255.69
422.05	3243.98
422.24	3178.45
422.43	3335.26
422.61	3342.28
422.80	3382.07
422.99	3358.67
423.18	3456.97
423.37	3503.78
423.56	3295.47
423.75	3321.22
423.94	3445.27
424.13	3101.21
424.32	3241.64
424.50	3463.99
424.69	3403.14
424.88	3531.87
425.07	3499.10
425.26	3297.81
425.45	3442.93
425.64	3375.05
425.83	3342.28
426.01	3400.80
426.20	3449.95
426.39	3375.05
426.58	3426.54
426.77	3471.01
426.96	3428.88
427.15	3454.63
427.33	3456.97
427.52	3361.01
427.71	3536.55
427.90	3501.44
428.09	3637.19
428.28	3646.55
428.46	3611.45
428.65	3676.98
428.84	3698.05
429.03	3744.86
429.22	3555.27
429.40	3735.50
429.59	3899.33
429.78	3684.00
429.97	3630.17
430.16	3779.97
430.34	3798.69
430.53	3901.67
430.72	3754.22
430.91	3796.35
431.10	3911.04
431.28	3824.44
431.47	3962.53
431.66	3936.78
431.85	3843.16
432.03	4014.02
432.22	4004.66
432.41	3985.93
432.60	3920.40
432.79	4063.17
432.97	4007.00
433.16	4070.19
433.35	4037.42
433.54	4032.74
433.72	4203.60
433.91	4152.11
434.10	4095.94
434.28	4100.62
434.47	4149.77
434.66	4285.52
434.85	4222.33
435.03	4187.22
435.22	4070.19
435.41	4374.46
435.59	4308.93
435.78	4334.67
435.97	4198.92
436.16	4449.36
436.34	4325.31
436.53	4234.03
436.72	4470.42
436.90	4301.90
437.09	4458.72
437.28	4329.99
437.46	4397.87
437.65	4624.90
437.84	4662.35
438.02	4685.75
438.21	4636.60
438.40	4313.61
438.58	4620.22
438.77	4767.67
438.96	4755.97
439.14	4681.07
439.33	4882.36
439.52	4821.50
439.70	4856.61
439.89	4912.78
440.08	4924.49
440.26	4973.64
440.45	5046.20
440.63	5004.07
440.82	4933.85
441.01	4865.97
441.19	5217.05
441.38	5315.36
441.57	5179.61
441.75	5135.14
441.94	5359.83
442.12	5308.34
442.31	5357.49
442.50	5399.62
442.68	5418.34
442.87	5327.06
443.05	5425.36
443.24	5376.21
443.43	5329.40
443.61	5458.13
443.80	5701.54
443.98	5298.97
444.17	5205.35
444.35	5483.88
444.54	5600.90
444.73	5397.28
444.91	5572.82
445.10	5624.31
445.28	5570.48
445.47	5528.35
445.65	5799.85
445.84	5526.00
446.02	5764.74
446.21	5678.14
446.39	5659.42
446.58	5696.86
446.77	5675.80
446.95	5638.35
447.14	5701.54
447.32	5612.60
447.51	5778.78
447.69	5767.08
447.88	5551.75
448.06	5680.48
448.25	5523.66
448.43	5720.27
448.62	5900.49
448.80	5872.40
448.99	5830.27
449.17	5874.74
449.36	5792.83
449.54	5778.78
449.73	5837.30
449.91	5984.75
450.10	5947.30
450.28	5987.09
450.46	6211.78
450.65	5987.09
450.83	5956.66
451.02	6064.33
451.20	6181.35
451.39	6239.87
451.57	6012.84
451.76	6038.58
451.94	6076.03
452.13	6228.17
452.31	6104.12
452.49	6111.14
452.68	6396.68
452.86	6218.80
453.05	6345.19
453.23	6314.77
453.42	6225.82
453.60	6305.40
453.78	6445.84
453.97	6342.85
454.15	6312.42
454.34	6230.51
454.52	6392.00
454.70	6520.73
454.89	6513.71
455.07	6483.28
455.26	6487.96
455.44	6621.38
455.62	6513.71
455.81	6656.48
455.99	6630.74
456.17	6684.57
456.36	6607.33
456.54	6825.00
456.73	6820.32
456.91	7033.31
457.09	7012.24
457.28	6972.46
457.46	6909.26
457.64	7007.56
457.83	7014.59
458.01	6862.45
458.19	7084.80
458.38	6981.82
458.56	7040.33
458.74	6970.12
458.93	7105.87
459.11	7171.40
459.29	7166.72
459.48	7178.42
459.66	7164.38
459.84	7082.46
460.03	7405.46
460.21	7180.76
460.39	7346.94
460.57	7232.26
460.76	7360.98
460.94	7536.52
461.12	7279.07
461.31	7454.61
461.49	7466.31
461.67	7239.28
461.85	7613.76
462.04	7604.40
462.22	8051.44
462.40	7702.70
462.59	7637.17
462.77	7524.82
462.95	7646.53
463.13	7698.02
463.32	7616.10
463.50	7831.43
463.68	7763.56
463.86	7793.98
464.05	7665.25
464.23	7585.68
464.41	7719.09
464.59	7651.21
464.78	7948.46
464.96	7810.37
465.14	7838.45
465.32	7791.64
465.50	8011.65
465.69	8023.36
465.87	8072.51
466.05	8051.44
466.23	8035.06
466.41	8063.15
466.60	8084.21
466.78	7913.35
466.96	7992.93
467.14	8126.34
467.32	8365.07
467.51	8311.24
467.69	8018.68
467.87	8042.08
468.05	8217.62
468.23	8339.33
468.41	8229.32
468.60	8463.38
468.78	8355.71
468.96	8411.89
469.14	8493.80
469.32	8655.30
469.50	8465.72
469.69	8521.89
469.87	8456.36
470.05	8699.77
470.23	8732.54
470.41	8821.48
470.59	8648.28
470.77	8882.33
470.95	8863.61
471.14	8851.91
471.32	8751.26
471.50	8788.71
471.68	8957.23
471.86	8922.12
472.04	9001.70
472.22	9139.79
472.40	9055.53
472.58	9001.70
472.77	9177.24
472.95	9472.15
473.13	9577.47
473.31	9221.71
473.49	9221.71
473.67	9210.01
473.85	9408.95
474.03	9839.61
474.21	9668.75
474.39	9657.05
474.57	9528.32
474.75	9617.26
474.93	9923.87
475.12	9830.25
475.30	9762.37
475.48	9825.57
475.66	9734.29
475.84	9893.44
476.02	9851.31
476.20	10134.52
476.38	10387.30
476.56	10516.03
476.74	10361.55
476.92	10195.37
477.10	10499.64
477.28	10373.25
477.46	10532.41
477.64	10719.65
477.82	10628.37
478.00	11126.91
478.18	11019.24
478.36	11096.48
478.54	11047.33
478.72	10897.53
478.90	11461.60
479.08	11466.28
479.26	11494.37
479.44	11585.65
479.62	11562.25
479.80	11604.38
479.98	11819.71
480.16	12166.10
480.34	11822.05
480.52	11915.67
480.70	12102.91
480.88	12355.69
481.06	12149.72
481.24	12196.53
481.41	12374.41
481.59	12343.99
481.77	12533.57
481.95	12556.97
482.13	12681.02
482.31	12807.41
482.49	13046.15
482.67	13055.51
482.85	13116.36
483.03	13319.99
483.21	13429.99
483.39	13500.21
483.57	13657.03
483.74	13741.29
483.92	13797.46
484.10	13722.56
484.28	14153.22
484.46	14251.52
484.64	14363.87
484.82	14232.80
485.00	14558.13
485.18	14810.91
485.35	14703.25
485.53	14939.64
485.71	14904.53
485.89	14937.30
486.07	14988.79
486.25	15115.18
486.43	15000.49
486.61	15356.25
486.78	15503.71
486.96	15733.08
487.14	15772.87
487.32	15803.30
487.50	16042.03
487.68	15981.18
487.85	16233.96
488.03	16451.63
488.21	16681.00
488.39	16901.01
488.57	16924.41
488.75	16821.43
488.92	17011.01
489.10	17462.74
489.28	17446.35
489.46	17378.48
489.64	17509.55
489.81	17736.58
489.99	17568.06
490.17	17834.88
490.35	18218.73
490.53	18321.71
490.70	18537.04
490.88	18544.06
491.06	18565.13
491.24	18326.39
491.41	18717.26
491.59	18761.73
491.77	18923.23
491.95	19152.60
492.13	19147.92
492.30	19499.00
492.48	19300.06
492.66	19562.20
492.84	19583.26
493.01	19922.64
493.19	19840.72
493.37	20123.93
493.54	20152.01
493.72	20365.00
493.90	20210.53
494.08	20400.11
494.25	20648.21
494.43	20690.34
494.61	20781.62
494.79	20842.47
494.96	20905.66
495.14	21029.71
495.32	21413.56
495.49	21282.49
495.67	21741.24
495.85	21336.32
496.02	21458.03
496.20	22050.19
496.38	22452.76
496.55	22214.02
496.73	22621.28
496.91	22295.94
497.09	22724.26
497.26	22527.66
497.44	22340.41
497.62	22726.60
497.79	22977.04
497.97	22792.14
498.14	22916.19
498.32	23295.35
498.50	23374.93
498.67	23461.53
498.85	23445.15
499.03	23693.24
499.20	23620.69
499.38	23871.12
499.56	23899.21
499.73	24119.22
499.91	24135.60
500.08	24432.85
500.26	24037.30
500.44	24381.36
500.61	24709.04
500.79	24285.40
500.97	24886.92
501.14	24814.36
501.32	24975.86
501.49	24987.56
501.67	24870.53
501.84	25256.72
502.02	24922.02
502.20	24950.11
502.37	25333.96
502.55	25172.46
502.72	25458.01
502.90	25678.02
503.07	25390.13
503.25	25619.50
503.43	25626.53
503.60	25888.67
503.78	25979.95
503.95	26068.89
504.13	26270.17
504.30	26094.63
504.48	26403.58
504.65	26267.83
504.83	26445.71
505.01	26614.23
505.18	26548.70
505.36	26677.43
505.53	26773.39
505.71	27096.38
505.88	27049.57
506.06	27140.85
506.23	27197.02
506.41	26955.95
506.58	27498.95
506.76	27412.35
506.93	27566.83
507.11	27447.46
507.28	27796.20
507.46	27821.95
507.63	27747.05
507.81	28142.60
507.98	28023.23
508.16	27908.55
508.33	28063.02
508.50	28231.54
508.68	28283.03
508.85	28587.30
509.03	28198.77
509.20	28292.40
509.38	29146.69
509.55	28807.31
509.73	28847.10
509.90	29116.26
510.08	28912.64
510.25	29441.60
510.42	29270.74
510.60	29226.27
510.77	29158.39
510.95	29689.70
511.12	29319.89
511.30	29596.07
511.47	29446.28
511.64	29256.70
511.82	29867.58
511.99	29998.65
512.17	30143.76
512.34	30054.82
512.51	30256.11
512.69	30328.66
512.86	30349.73
513.04	30417.60
513.21	30630.59
513.38	30553.35
513.56	30686.76
513.73	30609.53
513.90	30661.02
514.08	30462.07
514.25	31154.87
514.43	31157.21
514.60	30675.06
514.77	31054.23
514.95	31133.81
515.12	31028.48
515.29	31126.78
515.47	31131.47
515.64	31615.96
515.81	31304.67
515.99	31585.53
516.16	31562.12
516.33	32233.86
516.51	31838.31
516.68	32236.20
516.85	32144.92
517.03	32236.20
517.20	32320.46
517.37	32393.01
517.54	32350.88
517.72	32149.60
517.89	32556.85
518.06	32921.98
518.24	32350.88
518.41	32271.31
518.58	32643.45
518.75	32526.42
518.93	32617.71
519.10	32957.08
519.27	32961.76
519.45	33031.98
519.62	33172.41
519.79	33392.42
519.96	32900.91
520.14	33102.20
520.31	33287.10
520.48	33848.83
520.65	33677.97
520.83	33649.88
521.00	33762.23
521.17	33993.94
521.34	33734.14
521.52	33881.60
521.69	33762.23
521.86	34141.39
522.03	33970.54
522.20	34057.14
522.38	34567.37
522.55	34766.32
522.72	34298.21
522.89	34190.55
523.07	34969.94
523.24	34742.91
523.41	34679.72
523.58	34546.31
523.75	34710.14
523.92	35009.73
524.10	34927.81
524.27	35143.14
524.44	35091.65
524.61	35466.14
524.78	35098.67
524.96	35360.81
525.13	35409.96
525.30	35206.34
525.47	35601.89
525.64	35367.84
525.81	35721.26
525.98	35782.11
526.16	35316.34
526.33	35896.80
526.50	35660.40
526.67	35735.30
526.84	36053.61
527.01	35927.22
527.18	36177.66
527.36	36126.17
527.53	36397.67
527.70	36594.28
527.87	36708.96
528.04	36165.96
528.21	36325.11
528.38	36254.90
528.55	36629.38
528.72	36694.92
528.89	36203.41
529.07	36678.54
529.24	36456.18
529.41	37031.96
529.58	36638.75
529.75	37120.90
529.92	37333.89
530.09	36985.15
530.26	37179.41
530.43	37258.99
530.60	36945.36
530.77	36926.63
530.94	37237.92
531.11	37174.73
531.28	37385.38
531.46	37851.14
531.63	37560.92
531.80	37453.25
531.97	37399.42
532.14	37668.58
532.31	37457.93
532.48	37972.85
532.65	38092.22
532.82	37975.19
532.99	37940.08
533.16	37890.93
533.33	37830.08
533.50	38314.57
533.67	38230.31
533.84	38019.66
534.01	38246.69
534.18	37893.27
534.35	38941.83
534.52	38672.67
534.69	38719.48
534.86	38960.56
535.03	38803.74
535.20	39065.88
535.37	39138.44
535.54	39182.91
535.71	38637.56
535.88	39222.70
536.05	38801.40
536.22	39473.13
536.38	38675.01
536.55	38703.10
536.72	39192.27
536.89	39510.58
537.06	39477.82
537.23	39868.69
537.40	39501.22
537.57	39440.37
537.74	39098.65
537.91	39449.73
538.08	39489.52
538.25	38960.56
538.42	39761.02
538.59	39784.43
538.75	39695.49
538.92	39786.77
539.09	40453.82
539.26	39854.64
539.43	39569.10
539.60	39468.45
539.77	40172.96
539.94	40100.40
540.11	40156.57
540.28	40198.70
540.44	39948.26
540.61	40123.80
540.78	39992.73
540.95	40163.59
541.12	40013.80
541.29	40301.68
541.46	40463.18
541.62	40252.53
541.79	40399.99
541.96	40158.91
542.13	40416.37
542.30	40308.71
542.47	40573.19
542.63	40996.82
542.80	41048.32
542.97	41251.94
543.14	41212.15
543.31	40973.42
543.48	40924.27
543.64	41755.16
543.81	41130.23
543.98	41347.90
544.15	41322.16
544.32	41380.67
544.48	41956.44
544.65	41172.36
544.82	41528.13
544.99	41698.98
545.16	41537.49
545.32	41584.30
545.49	42108.58
545.66	41792.61
545.83	41832.39
546.00	41830.05
546.16	41717.71
546.33	41509.40
546.50	41991.55
546.67	42197.52
546.83	41633.45
547.00	41823.03
547.17	42190.50
547.34	42291.14
547.50	42241.99
547.67	42597.75
547.84	42476.04
548.00	42658.60
548.17	42892.66
548.34	42555.62
548.51	42330.93
548.67	43180.54
548.84	42157.73
549.01	42735.84
549.18	42586.05
549.34	42810.74
549.51	42555.62
549.68	43082.24
549.84	42415.19
550.01	42452.64
550.18	42497.11
550.34	42639.88
550.51	43377.15
550.68	43292.89
550.84	42600.09
551.01	43119.69
551.18	42581.37
551.34	43098.62
551.51	43292.89
551.68	43051.81
551.84	43061.18
552.01	43281.19
552.18	43461.41
552.34	43344.38
552.51	43302.25
552.68	43711.84
552.84	43225.01
553.01	43384.17
553.18	43519.92
553.34	43531.62
553.51	43391.19
553.67	43798.44
553.84	43683.76
554.01	43688.44
554.17	43423.96
554.34	43826.53
554.51	43489.49
554.67	44041.86
554.84	44170.59
555.00	44020.80
555.17	43604.18
555.33	44098.03
555.50	44198.68
555.67	43910.79
555.83	44123.78
556.00	43847.60
556.16	44390.60
556.33	44002.07
556.50	43899.09
556.66	43908.45
556.83	44121.44
556.99	44257.19
557.16	44488.90
557.32	44608.27
557.49	44411.67
557.65	44273.57
557.82	44531.03
557.98	44376.56
558.15	44360.17
558.32	44608.27
558.48	44296.98
558.65	44423.37
558.81	44287.62
558.98	44458.48
559.14	44425.71
559.31	44451.45
559.47	44708.91
559.64	44875.09
559.80	44687.85
559.97	45235.53
560.13	44582.52
560.30	44797.85
560.46	45326.81
560.63	44502.95
560.79	44872.75
560.96	45366.60
561.12	45200.43
561.29	45015.52
561.45	44893.82
561.61	44839.98
561.78	44823.60
561.94	44652.74
562.11	44816.58
562.27	44968.71
562.44	45305.75
562.60	44961.69
562.77	44966.37
562.93	45146.59
563.10	45254.26
563.26	45127.87
563.42	45371.28
563.59	44870.41
563.75	45382.99
563.92	45216.81
564.08	45397.03
564.24	45303.41
564.41	45038.93
564.57	45294.05
564.74	45212.13
564.90	45319.79
565.07	45237.87
565.23	45605.34
565.39	45507.04
565.56	45448.52
565.72	45455.54
565.88	45434.48
566.05	45729.39
566.21	45413.41
566.38	45207.45
566.54	45539.80
566.70	45588.95
566.87	45546.82
567.03	45308.09
567.19	45347.88
567.36	45528.10
567.52	45317.45
567.68	45720.02
567.85	45801.94
568.01	45698.96
568.17	45830.03
568.34	45617.04
568.50	45804.28
568.66	45661.51
568.83	45862.80
568.99	45921.31
569.15	46021.95
569.32	45640.45
569.48	45443.84
569.64	46307.50
569.81	45844.07
569.97	45909.61
570.13	45680.24
570.30	45799.60
570.46	46036.00
570.62	46075.79
570.78	45762.15
570.95	45439.16
571.11	46398.78
571.27	45586.61
571.43	46113.23
571.60	46087.49
571.76	45722.37
571.92	45944.72
572.09	45769.18
572.25	45769.18
572.41	46251.33
572.57	46003.23
572.74	46248.99
572.90	45694.28
573.06	46263.03
573.22	45923.65
573.38	46529.85
573.55	45904.93
573.71	46298.14
573.87	46667.94
574.03	46431.55
574.20	46705.39
574.36	46569.64
574.52	46190.47
574.68	46440.91
574.84	46508.79
575.01	46192.81
575.17	46564.96
575.33	46642.20
575.49	45722.37
575.65	46579.00
575.82	46466.66
575.98	45813.65
576.14	46571.98
576.30	46466.66
576.46	46211.54
576.62	46061.74
576.79	46373.03
576.95	45935.35
577.11	46651.56
577.27	46478.36
577.43	46440.91
577.59	46050.04
577.75	46300.48
577.92	45825.35
578.08	46005.57
578.24	45991.53
578.40	46328.56
578.56	46267.71
578.72	46239.62
578.88	46597.73
579.04	46408.14
579.21	46176.43
579.37	46356.65
579.53	46777.95
579.69	46394.10
579.85	46124.94
580.01	46527.51
580.17	46571.98
580.33	46160.05
580.49	46590.70
580.65	46504.10
580.82	46450.27
580.98	46326.22
581.14	46396.44
581.30	46693.69
581.46	46319.20
581.62	46457.29
581.78	46206.86
581.94	46848.16
582.10	46705.39
582.26	46600.07
582.42	46342.61
582.58	46710.07
582.74	46686.67
582.90	46373.03
583.06	46459.63
583.22	46298.14
583.38	46775.61
583.54	46583.68
583.70	46508.79
583.86	46836.46
584.02	46958.17
584.18	47084.56
584.34	46981.57
584.50	47143.07
584.66	47185.20
584.82	46920.72
584.98	47028.38
585.14	46405.80
585.30	46408.14
585.46	46674.96
585.62	46440.91
585.78	46632.83
585.94	46347.29
586.10	46569.64
586.26	46527.51
586.42	46635.17
586.58	46595.38
586.74	46665.60
586.90	46405.80
587.06	46394.10
587.22	46850.50
587.38	46658.58
587.54	47136.05
587.70	46958.17
587.86	47068.17
588.02	46761.56
588.18	46686.67
588.34	46777.95
588.49	46595.38
588.65	46871.57
588.81	46871.57
588.97	46841.14
589.13	46597.73
589.29	46384.74
589.45	46953.49
589.61	47201.58
589.77	47136.05
589.93	46871.57
590.08	47105.62
590.24	47526.92
590.40	47370.10
590.56	46766.24
590.72	46911.36
590.88	46703.05
591.04	47187.54
591.20	47430.96
591.35	47459.04
591.51	47400.53
591.67	47147.75
591.83	47573.73
591.99	46834.12
592.15	46873.91
592.31	47342.02
592.46	47021.36
592.62	47185.20
592.78	47112.64
592.94	47489.47
593.10	47550.32
593.26	46986.25
593.41	47571.39
593.57	47468.40
593.73	47056.47
593.89	47758.63
594.05	47749.27
594.20	47412.23
594.36	47800.76
594.52	47559.69
594.68	47636.92
594.84	47419.25
594.99	48065.24
595.15	47241.37
595.31	47454.36
595.47	47363.08
595.62	47363.08
595.78	47515.22
595.94	47456.70
596.10	47650.97
596.25	47627.56
596.41	47538.62
596.57	47044.77
596.73	47538.62
596.88	47461.38
597.04	47374.78
597.20	47372.44
597.36	47320.95
597.51	47573.73
597.67	47248.39
597.83	47316.27
597.99	47707.14
598.14	47157.11
598.30	47573.73
598.46	47386.49
598.61	47817.14
598.77	47498.83
598.93	47913.11
599.09	47452.02
599.24	48137.80
599.40	47739.91
599.56	47620.54
599.71	47838.21
599.87	47950.56
600.03	47749.27
600.18	47152.43
600.34	47620.54
600.50	47356.06
600.65	47789.06
600.81	48086.31
600.97	47760.97
601.12	47807.78
601.28	47583.09
601.44	47611.18
601.59	47524.58
601.75	47505.85
601.91	47847.57
602.06	47789.06
602.22	47597.13
602.37	47346.70
602.53	47707.14
602.69	48095.67
602.84	47576.07
603.00	47388.83
603.16	47309.25
603.31	47550.32
603.47	47576.07
603.62	47255.42
603.78	47627.56
603.94	47569.05
604.09	47580.75
604.25	47557.35
604.40	47332.65
604.56	47632.24
604.71	48032.47
604.87	48102.69
605.03	47311.59
605.18	47796.08
605.34	47618.20
605.49	47388.83
605.65	47814.80
605.80	47356.06
605.96	47243.71
606.12	47622.88
606.27	47562.03
606.43	47578.41
606.58	47688.42
606.74	47487.13
606.89	47550.32
607.05	47838.21
607.20	47676.71
607.36	47540.96
607.51	47400.53
607.67	47536.28
607.82	46997.96
607.98	47913.11
608.13	46913.70
608.29	47208.61
608.44	47416.91
608.60	47803.10
608.75	47363.08
608.91	47358.40
609.06	47033.07
609.22	47978.64
609.37	47283.50
609.53	47140.73
609.68	47524.58
609.84	47412.23
609.99	47552.66
610.15	47023.70
610.30	47388.83
610.46	46897.31
610.61	47625.22
610.76	47342.02
610.92	47220.31
611.07	47337.33
611.23	46909.02
611.38	47021.36
611.54	47313.93
611.69	47035.41
611.84	47388.83
612.00	47054.13
612.15	47136.05
612.31	47316.27
612.46	46883.27
612.62	47051.79
612.77	46780.29
612.92	47089.24
613.08	46756.88
613.23	47262.44
613.39	46660.92
613.54	46848.16
613.69	47002.64
613.85	46845.82
614.00	46766.24
614.15	47171.16
614.31	46586.02
614.46	46555.60
614.62	46672.62
614.77	46653.90
614.92	46986.25
615.08	46878.59
615.23	46873.91
615.38	47138.39
615.54	46953.49
615.69	47042.43
615.84	46656.24
616.00	47379.46
616.15	46721.77
616.30	47004.98
616.46	46745.18
616.61	46621.13
616.76	46731.14
616.92	46464.32
617.07	46733.48
617.22	46419.84
617.37	46202.18
617.53	46644.54
617.68	46513.47
617.83	46691.35
617.99	46880.93
618.14	47131.37
618.29	46347.29
618.45	46103.87
618.60	46548.57
618.75	46225.58
618.90	46431.55
619.06	46337.93
619.21	46265.37
619.36	46302.82
619.51	46672.62
619.67	46251.33
619.82	46326.22
619.97	46494.74
620.12	46017.27
620.28	46148.34
620.43	46092.17
620.58	46471.34
620.73	46422.19
620.89	46209.20
621.04	46588.36
621.19	46082.81
621.34	46143.66
621.49	46096.85
621.65	45925.99
621.80	46167.07
621.95	45940.04
622.10	46253.67
622.25	45851.09
622.41	45867.48
622.56	46246.65
622.71	46012.59
622.86	45659.17
623.01	45937.69
623.16	45755.13
623.32	45806.62
623.47	45804.28
623.62	45556.19
623.77	45944.72
623.92	46052.38
624.07	45954.08
624.23	46134.30
624.38	45778.54
624.53	45766.84
624.68	45338.52
624.83	45542.14
624.98	45677.90
625.13	45441.50
625.29	45422.78
625.44	45621.72
625.59	45420.44
625.74	45497.67
625.89	45399.37
626.04	45617.04
626.19	45900.25
626.34	45682.58
626.49	45357.24
626.65	45191.06
626.80	45357.24
626.95	45102.12
627.10	45104.46
627.25	45546.82
627.40	44975.73
627.55	45001.48
627.70	44772.11
627.85	45497.67
628.00	45029.57
628.15	45441.50
628.30	44617.63
628.45	44769.77
628.60	44559.12
628.76	45371.28
628.91	45277.66
629.06	44610.61
629.21	44737.00
629.36	44945.31
629.51	45099.78
629.66	45118.51
629.81	44865.73
629.96	44804.88
630.11	44886.79
630.26	44783.81
630.41	44837.64
630.56	44758.06
630.71	44673.81
630.86	44416.35
631.01	44236.12
631.16	44444.43
631.31	44722.96
631.46	44619.97
631.61	44996.80
631.76	44615.29
631.91	44409.32
632.06	44643.38
632.21	44839.98
632.36	44868.07
632.51	44175.27
632.66	44811.90
632.81	44257.19
632.96	44502.95
633.10	44203.36
633.25	44524.01
633.40	44025.48
633.55	44402.30
633.70	44287.62
633.85	43943.56
634.00	43793.76
634.15	44041.86
634.30	43985.69
634.45	44069.95
634.60	44161.23
634.75	44203.36
634.90	44212.72
635.05	44451.45
635.19	43688.44
635.34	43452.05
635.49	44378.90
635.64	43885.04
635.79	44488.90
635.94	44037.18
636.09	44046.54
636.24	43704.82
636.39	44182.29
636.53	44158.89
636.68	43409.92
636.83	43470.77
636.98	43634.61
637.13	43159.48
637.28	43283.53
637.43	43512.90
637.57	43882.70
637.72	43494.18
637.87	43051.81
638.02	43599.50
638.17	43543.33
638.32	43573.75
638.46	43351.40
638.61	43084.58
638.76	43405.23
638.91	43924.83
639.06	43412.26
639.20	43084.58
639.35	43210.97
639.50	43180.54
639.65	43236.72
639.80	43571.41
639.94	43318.64
640.09	43192.25
640.24	43351.40
640.39	42932.45
640.54	42808.40
640.68	42710.10
640.83	43519.92
640.98	42628.18
641.13	42768.61
641.27	43140.75
641.42	42693.71
641.57	42920.74
641.72	42969.90
641.86	42899.68
642.01	42361.36
642.16	42857.55
642.31	42239.65
642.45	42806.06
642.60	42550.94
642.75	42562.64
642.90	42859.89
643.04	42298.16
643.19	42391.78
643.34	42429.23
643.48	42080.49
643.63	42555.62
643.78	42951.17
643.93	42630.52
644.07	42436.25
644.22	42344.97
644.37	42359.02
644.51	42618.81
644.66	42534.56
644.81	42595.41
644.95	42499.45
645.10	42593.07
645.25	42227.95
645.39	42405.83
645.54	42335.61
645.69	41972.83
645.83	41998.57
645.98	42073.47
646.13	42183.48
646.27	41713.03
646.42	41801.97
646.57	42281.78
646.71	42127.30
646.86	42368.38
647.00	42293.48
647.15	42019.64
647.30	41956.44
647.44	41968.15
647.59	41832.39
647.74	41841.76
647.88	42108.58
648.03	42162.41
648.17	42344.97
648.32	42134.32
648.47	41968.15
648.61	41649.83
648.76	41371.31
648.90	41610.04
649.05	41837.08
649.20	41722.39
649.34	41902.61
649.49	41563.23
649.63	42031.34
649.78	41659.20
649.92	41696.64
650.07	42101.56
650.21	42029.00
650.36	41823.03
650.51	42017.30
650.65	41893.25
650.80	41476.63
650.94	41303.43
651.09	41151.30
651.23	40982.78
651.38	41432.16
651.52	41235.56
651.67	41450.89
651.81	41186.41
651.96	41024.91
652.10	41181.73
652.25	40666.81
652.39	40865.75
652.54	41446.21
652.68	41338.54
652.83	41186.41
652.97	41155.98
653.12	40722.98
653.26	40996.82
653.41	41111.51
653.55	41247.26
653.70	41223.86
653.84	41207.47
653.99	41177.04
654.13	40720.64
654.27	40947.67
654.42	40968.74
654.56	41125.55
654.71	41200.45
654.85	41294.07
655.00	40868.09
655.14	41013.21
655.29	41003.85
655.43	40687.87
655.57	40554.46
655.72	40603.61
655.86	41062.36
656.01	40465.52
656.15	40130.83
656.30	40659.79
656.44	40664.47
656.58	40374.24
656.73	40350.84
656.87	40179.98
657.01	40194.02
657.16	40428.07
657.30	40439.78
657.45	40364.88
657.59	40030.18
657.73	40102.74
657.88	39985.71
658.02	40282.96
658.16	40353.18
658.31	40596.59
658.45	40128.48
658.60	39976.35
658.74	40034.86
658.88	40116.78
659.03	39533.99
659.17	39903.79
659.31	39845.28
659.46	39559.73
659.60	39908.47
659.74	39599.52
659.89	39426.32
660.03	39215.68
660.17	39470.79
660.32	38925.45
660.46	39164.18
660.60	39250.78
660.74	39494.20
660.89	39264.83
661.03	38824.81
661.17	38899.70
661.32	39119.71
661.46	39428.66
661.60	39126.74
661.74	39054.18
661.89	38843.53
662.03	38754.59
662.17	38490.11
662.31	38244.35
662.46	38948.85
662.60	38665.65
662.74	38422.23
662.88	38508.83
663.03	38431.60
663.17	37904.98
663.31	38206.90
663.45	38565.01
663.60	38845.87
663.74	38632.88
663.88	38300.53
664.02	38225.63
664.17	38588.41
664.31	38188.18
664.45	38099.24
664.59	37975.19
664.73	37897.95
664.88	37825.40
665.02	37357.29
665.16	37713.05
665.30	37670.92
665.44	37801.99
665.59	37558.58
665.73	37591.34
665.87	36870.46
666.01	37638.15
666.15	37116.22
666.29	37453.25
666.44	37280.05
666.58	37422.83
666.72	36933.65
666.86	37160.69
667.00	36807.26
667.14	36737.05
667.28	36907.91
667.43	37015.57
667.57	37071.75
667.71	37244.94
667.85	36980.46
667.99	36945.36
668.13	36669.17
668.27	36367.24
668.41	36294.69
668.56	35875.73
668.70	36098.08
668.84	35854.67
668.98	36100.42
669.12	36016.16
669.26	36168.30
669.40	36030.21
669.54	36430.44
669.68	35997.44
669.82	35573.80
669.96	35470.82
670.10	35225.06
670.25	35545.72
670.39	35431.03
670.53	35749.34
670.67	35379.54
670.81	35400.60
670.95	36006.80
671.09	35531.67
671.23	35016.75
671.37	35367.84
671.51	35133.78
671.65	35108.04
671.79	34721.85
671.93	35304.64
672.07	34995.69
672.21	34834.19
672.35	34288.85
672.49	34733.55
672.63	34459.71
672.77	34438.64
672.91	34726.53
673.05	34522.90
673.19	34029.05
673.33	34057.14
673.47	34562.69
673.61	33635.84
673.75	33757.55
673.89	33731.80
674.03	34085.22
674.17	33708.40
674.31	33237.95
674.45	33474.34
674.59	33404.13
674.73	33387.74
674.87	33118.58
675.01	33074.11
675.15	32741.75
675.29	32917.29
675.43	32488.98
675.56	33024.96
675.70	32655.15
675.84	32662.18
675.98	31798.52
676.12	32423.44
676.26	32734.73
676.40	32421.10
676.54	32292.37
676.68	32210.45
676.82	31599.57
676.96	31922.57
677.10	32224.50
677.23	31679.15
677.37	31840.65
677.51	31793.84
677.65	31487.23
677.79	31243.81
677.93	31400.63
678.07	31360.84
678.21	31335.09
678.34	30876.35
678.48	30817.83
678.62	30852.94
678.76	30504.20
678.90	30487.82
679.04	30838.90
679.18	30850.60
679.31	30017.37
679.45	30284.19
679.59	30195.25
679.73	30272.49
679.87	30059.50
680.00	29666.29
680.14	30162.48
680.28	29783.32
680.42	30038.44
680.56	29535.22
680.70	29256.70
680.83	29677.99
680.97	29109.24
681.11	29345.64
681.25	29256.70
681.39	28783.91
681.52	29024.98
681.66	28528.79
681.80	28596.67
681.94	28465.60
682.07	28292.40
682.21	28276.01
682.35	28388.36
682.49	28297.08
682.62	28088.77
682.76	28056.00
682.90	28219.84
683.04	28020.89
683.17	27665.13
683.31	27576.19
683.45	27665.13
683.59	27222.77
683.72	27335.12
683.86	26984.04
684.00	27241.50
684.13	27388.95
684.27	26668.06
684.41	26778.07
684.55	27101.06
684.68	26867.01
684.82	26621.25
684.96	26426.99
685.09	26333.37
685.23	26546.36
685.37	26838.92
685.50	26843.60
685.64	26263.15
685.78	26022.08
685.91	25902.71
686.05	25905.05
686.19	25404.17
686.32	25436.94
686.46	24943.09
686.60	25415.88
686.73	25219.27
686.87	24809.68
687.01	25322.26
687.14	25275.45
687.28	24716.06
687.42	25055.43
687.55	24996.92
687.69	24636.48
687.82	24364.98
687.96	24507.75
688.10	24205.82
688.23	24332.21
688.37	24240.93
688.50	24250.29
688.64	24280.72
688.78	23936.66
688.91	23828.99
689.05	24254.97
689.18	23381.95
689.32	22923.21
689.46	23087.04
689.59	23213.43
689.73	23543.45
689.86	23585.58
690.00	23190.03
690.13	23138.54
690.27	22939.59
690.41	23234.50
690.54	23014.49
690.68	22719.58
690.81	22464.46
690.95	22558.08
691.08	22625.96
691.22	22405.95
691.35	22438.72
691.49	22588.51
691.62	22129.77
691.76	21717.83
691.89	21575.06
692.03	21219.30
692.16	21422.92
692.30	22019.76
692.43	21561.02
692.57	21165.46
692.70	21303.56
692.84	21312.92
692.97	20954.82
693.11	21022.69
693.24	20837.79
693.38	20671.61
693.51	20580.33
693.65	20699.70
693.78	20423.51
693.92	20652.89
694.05	20297.13
694.19	20404.79
694.32	20418.83
694.45	20252.66
694.59	20217.55
694.72	20229.25
694.86	19995.20
694.99	19623.05
695.13	19960.09
695.26	19726.04
695.39	19037.92
695.53	19545.81
695.66	19337.51
695.80	19047.28
695.93	19213.46
696.07	18995.79
696.20	18857.70
696.33	18455.12
696.47	18743.01
696.60	18686.84
696.73	18752.37
696.87	18492.57
697.00	18719.60
697.14	18363.84
697.27	18288.95
697.40	18431.72
697.54	17989.36
697.67	18080.64
697.80	18015.10
697.94	18059.57
698.07	17568.06
698.21	17827.86
698.34	17790.41
698.47	17579.76
698.61	17373.80
698.74	17252.09
698.87	17331.67
699.01	17081.23
699.14	16987.61
699.27	17214.64
699.40	17170.17
699.54	16908.03
699.67	17249.75
699.80	16819.09
699.94	16641.21
700.07	16386.09
700.20	16678.66
700.34	16463.33
700.47	16395.45
700.60	16470.35
700.73	16460.99
700.87	15761.17
701.00	16156.72
701.13	15985.86
701.26	15651.16
701.40	15854.79
701.53	15651.16
701.66	15838.41
701.79	15758.83
701.93	15353.91
702.06	15314.13
702.19	15314.13
702.32	15290.72
702.46	15274.34
702.59	15300.08
702.72	15269.66
702.85	15042.62
702.99	15260.29
703.12	14993.47
703.25	14743.03
703.38	14813.25
703.51	14803.89
703.65	14448.13
703.78	14382.59
703.91	14331.10
704.04	14310.04
704.17	14265.57
704.31	14171.94
704.44	14057.26
704.57	14092.37
704.70	13837.25
704.83	13914.48
704.96	13790.44
705.10	13715.54
705.23	13760.01
>>>>>End Processed Spectral Data<<<<<
