SpectraSuite Data File
++++++++++++++++++++++++++++++++++++
Date: Fri Oct 25 10:44:46 EDT 2013
User: price-jones
Dark Spectrum Present: No
Reference Spectrum Present: No
Number of Sampled Component Spectra: 1
Spectrometers: USB2+H05261
Integration Time (usec): 100000 (USB2+H05261)
Spectra Averaged: 1 (USB2+H05261)
Boxcar Smoothing: 0 (USB2+H05261)
Correct for Electrical Dark: No (USB2+H05261)
Strobe/Lamp Enabled: No (USB2+H05261)
Correct for Detector Non-linearity: No (USB2+H05261)
Correct for Stray Light: No (USB2+H05261)
Number of Pixels in Processed Spectrum: 2048
>>>>>Begin Processed Spectral Data<<<<<
365.73	166.18
365.92	166.18
366.12	166.18
366.32	0.00
366.52	91.28
366.72	70.22
366.91	0.00
367.11	14.04
367.31	95.96
367.51	21.06
367.70	37.45
367.90	30.43
368.10	11.70
368.30	32.77
368.49	39.79
368.69	37.45
368.89	49.15
369.09	91.28
369.28	0.00
369.48	39.79
369.68	42.13
369.87	81.92
370.07	119.37
370.27	93.62
370.47	205.97
370.66	395.55
370.86	423.64
371.06	414.27
371.25	447.04
371.45	451.72
371.65	496.19
371.84	351.08
372.04	351.08
372.24	454.06
372.44	500.87
372.63	369.80
372.83	458.74
373.03	496.19
373.22	437.68
373.42	552.37
373.62	531.30
373.81	491.51
374.01	524.28
374.21	538.32
374.40	552.37
374.60	526.62
374.79	528.96
374.99	524.28
375.19	559.39
375.38	589.82
375.58	629.60
375.78	543.00
375.97	589.82
376.17	634.29
376.37	514.92
376.56	622.58
376.76	592.16
376.95	521.94
377.15	669.39
377.35	624.92
377.54	561.73
377.74	601.52
377.93	571.09
378.13	643.65
378.33	624.92
378.52	606.20
378.72	589.82
378.91	617.90
379.11	566.41
379.31	650.67
379.50	589.82
379.70	671.73
379.89	706.84
380.09	706.84
380.28	603.86
380.48	606.20
380.68	688.12
380.87	650.67
381.07	655.35
381.26	704.50
381.46	655.35
381.65	582.79
381.85	603.86
382.04	655.35
382.24	662.37
382.43	713.86
382.63	674.07
382.83	692.80
383.02	730.25
383.22	676.41
383.41	709.18
383.61	753.65
383.80	695.14
384.00	669.39
384.19	739.61
384.39	730.25
384.58	734.93
384.78	741.95
384.97	751.31
385.17	821.53
385.36	793.44
385.56	793.44
385.75	781.74
385.95	802.80
386.14	784.08
386.34	690.46
386.53	847.27
386.72	819.19
386.92	863.66
387.11	866.00
387.31	802.80
387.50	802.80
387.70	823.87
387.89	802.80
388.09	774.72
388.28	830.89
388.48	898.77
388.67	891.74
388.86	866.00
389.06	875.36
389.25	924.51
389.45	870.68
389.64	877.70
389.84	1013.45
390.03	849.61
390.22	873.02
390.42	856.64
390.61	887.06
390.81	908.13
391.00	1029.84
391.19	961.96
391.39	905.79
391.58	968.98
391.78	1041.54
391.97	901.11
392.16	978.34
392.36	947.92
392.55	954.94
392.75	945.58
392.94	926.85
393.13	1004.09
393.33	947.92
393.52	952.60
393.71	1095.37
393.91	1032.18
394.10	1043.88
394.29	1029.84
394.49	1050.90
394.68	1121.12
394.88	1125.80
395.07	1132.82
395.26	1102.39
395.46	1139.84
395.65	1142.18
395.84	1181.97
396.04	1172.61
396.23	1116.44
396.42	1083.67
396.62	1125.80
396.81	1158.57
397.00	1100.05
397.19	1186.65
397.39	1256.87
397.58	1280.27
397.77	1291.98
397.97	1355.17
398.16	1306.02
398.35	1320.06
398.55	1301.34
398.74	1308.36
398.93	1387.94
399.12	1273.25
399.32	1331.76
399.51	1373.89
399.70	1448.79
399.90	1371.55
400.09	1427.73
400.28	1453.47
400.47	1373.89
400.67	1451.13
400.86	1504.96
401.05	1416.02
401.24	1495.60
401.44	1502.62
401.63	1413.68
401.82	1507.30
402.01	1497.94
402.21	1551.78
402.40	1551.78
402.59	1551.78
402.78	1549.43
402.97	1516.67
403.17	1535.39
403.36	1626.67
403.55	1521.35
403.74	1685.19
403.93	1638.38
404.13	1645.40
404.32	1825.62
404.51	1589.22
404.70	1675.82
404.89	1675.82
405.09	1790.51
405.28	1668.80
405.47	1757.74
405.66	1844.34
405.85	1846.68
406.05	1823.28
406.24	1858.39
406.43	1846.68
406.62	1909.88
406.81	1909.88
407.00	1750.72
407.20	1713.27
407.39	1870.09
407.58	1944.99
407.77	1980.09
407.96	2003.50
408.15	1977.75
408.34	1912.22
408.54	2022.22
408.73	2038.61
408.92	2047.97
409.11	2052.65
409.30	2024.56
409.49	2071.37
409.68	2085.42
409.87	2036.27
410.07	2078.40
410.26	2143.93
410.45	2146.27
410.64	2284.36
410.83	2134.57
411.02	2129.89
411.21	2354.58
411.40	2286.70
411.59	2410.75
411.78	2349.90
411.98	2349.90
412.17	2373.30
412.36	2403.73
412.55	2415.43
412.74	2588.63
412.93	2473.95
413.12	2310.11
413.31	2593.31
413.50	2551.18
413.69	2630.76
413.88	2668.21
414.07	2558.21
414.26	2633.10
414.45	2651.83
414.64	2679.91
414.83	2775.88
415.02	2698.64
415.22	2736.09
415.41	2843.75
415.60	2841.41
415.79	2860.13
415.98	3000.57
416.17	2963.12
416.36	2848.43
416.55	2979.50
416.74	2920.99
416.93	2953.76
417.12	3033.33
417.31	2892.90
417.50	2972.48
417.69	3211.22
417.88	3166.74
418.07	3141.00
418.26	3012.27
418.45	3073.12
418.64	3166.74
418.83	3089.51
419.02	3141.00
419.21	3236.96
419.39	3279.09
419.58	3178.45
419.77	3117.59
419.96	3311.86
420.15	3372.71
420.34	3405.48
420.53	3342.28
420.72	3414.84
420.91	3454.63
421.10	3503.78
421.29	3452.29
421.48	3412.50
421.67	3459.31
421.86	3440.59
422.05	3393.78
422.24	3393.78
422.43	3386.76
422.61	3606.77
422.80	3543.57
422.99	3527.19
423.18	3536.55
423.37	3534.21
423.56	3555.27
423.75	3463.99
423.94	3410.16
424.13	3295.47
424.32	3454.63
424.50	3520.17
424.69	3548.25
424.88	3522.51
425.07	3665.28
425.26	3592.72
425.45	3506.12
425.64	3585.70
425.83	3506.12
426.01	3611.45
426.20	3616.13
426.39	3609.11
426.58	3487.40
426.77	3574.00
426.96	3604.42
427.15	3597.40
427.33	3831.46
427.52	3730.81
427.71	3751.88
427.90	3684.00
428.09	3775.28
428.28	3749.54
428.46	3847.84
428.65	3737.84
428.84	3882.95
429.03	3948.48
429.22	3761.24
429.40	3726.13
429.59	4004.66
429.78	3737.84
429.97	3461.65
430.16	3712.09
430.34	3702.73
430.53	3810.39
430.72	3857.20
430.91	3999.98
431.10	3988.27
431.28	4056.15
431.47	4180.20
431.66	4407.23
431.85	4222.33
432.03	4184.88
432.22	4362.76
432.41	4170.83
432.60	4393.19
432.79	4311.27
432.97	4273.82
433.16	4234.03
433.35	4212.96
433.54	4294.88
433.72	4402.55
433.91	4334.67
434.10	4292.54
434.28	4292.54
434.47	4526.60
434.66	4451.70
434.85	4294.88
435.03	4557.02
435.22	4498.51
435.41	4519.57
435.59	4507.87
435.78	4526.60
435.97	4538.30
436.16	4648.30
436.34	4641.28
436.53	4608.51
436.72	4781.71
436.90	4718.52
437.09	4805.12
437.28	4580.43
437.46	4608.51
437.65	4798.10
437.84	4786.40
438.02	4671.71
438.21	4805.12
438.40	4517.23
438.58	4873.00
438.77	4896.40
438.96	4926.83
439.14	5029.81
439.33	5078.96
439.52	5170.24
439.70	5212.37
439.89	5217.05
440.08	5139.82
440.26	5273.23
440.45	5118.75
440.63	5350.46
440.82	5406.64
441.01	5385.57
441.19	5458.13
441.38	5544.73
441.57	5469.83
441.75	5600.90
441.94	5722.61
442.12	5621.97
442.31	5572.82
442.50	5708.57
442.68	5713.25
442.87	5734.31
443.05	5724.95
443.24	5762.40
443.43	5954.32
443.61	5736.65
443.80	6127.52
443.98	5614.95
444.17	5731.97
444.35	5778.78
444.54	6087.73
444.73	5991.77
444.91	5713.25
445.10	5858.36
445.28	5916.87
445.47	5795.17
445.65	5722.61
445.84	5898.15
446.02	5947.30
446.21	5926.24
446.39	6017.52
446.58	6085.39
446.77	6148.59
446.95	5874.74
447.14	6267.95
447.32	6080.71
447.51	6057.31
447.69	5863.04
447.88	6104.12
448.06	5926.24
448.25	6059.65
448.43	5921.56
448.62	6113.48
448.80	6085.39
448.99	6146.25
449.17	6209.44
449.36	6047.94
449.54	6387.32
449.73	6237.53
449.91	6284.34
450.10	6331.15
450.28	6417.75
450.46	6413.07
450.65	6530.09
450.83	6607.33
451.02	6516.05
451.20	6466.90
451.39	6572.22
451.57	6567.54
451.76	6518.39
451.94	6494.99
452.13	6600.31
452.31	6630.74
452.49	6490.31
452.68	6698.61
452.86	6548.82
453.05	6670.53
453.23	6808.62
453.42	6693.93
453.60	6654.14
453.78	6796.92
453.97	6738.40
454.15	6682.23
454.34	6607.33
454.52	6897.56
454.70	6789.89
454.89	6792.23
455.07	6946.71
455.26	6661.16
455.44	6923.30
455.62	6885.86
455.81	6780.53
455.99	7070.76
456.17	7157.36
456.36	7056.72
456.54	7030.97
456.73	7255.66
456.91	7391.41
457.09	7431.20
457.28	7468.65
457.46	7171.40
457.64	7349.28
457.83	7377.37
458.01	7171.40
458.19	7534.18
458.38	7473.33
458.56	7288.43
458.74	7407.80
458.93	7597.38
459.11	7466.31
459.29	7538.87
459.48	7452.27
459.66	7625.47
459.84	7618.44
460.03	7705.04
460.21	7714.41
460.39	7798.66
460.57	7691.00
460.76	7808.03
460.94	7798.66
461.12	7707.38
461.31	7756.54
461.49	7782.28
461.67	7824.41
461.85	7889.95
462.04	8124.00
462.22	8266.77
462.40	8074.85
462.59	8063.15
462.77	8030.38
462.95	8175.49
463.13	7967.18
463.32	8053.78
463.50	8259.75
463.68	8411.89
463.86	8102.93
464.05	8152.09
464.23	8046.76
464.41	8262.09
464.59	8266.77
464.78	8435.29
464.96	8418.91
465.14	8276.13
465.32	8327.63
465.50	8493.80
465.69	8432.95
465.87	8491.46
466.05	8297.20
466.23	8533.59
466.41	8580.40
466.60	8596.79
466.78	8423.59
466.96	8416.57
467.14	8578.06
467.32	8475.08
467.51	8493.80
467.69	8507.85
467.87	8636.58
468.05	8872.97
468.23	8451.67
468.41	8573.38
468.60	8769.99
468.78	8828.50
468.96	8699.77
469.14	8706.79
469.32	9046.17
469.50	8664.66
469.69	9027.45
469.87	9067.24
470.05	8987.66
470.23	8933.82
470.41	8884.67
470.59	9001.70
470.77	9085.96
470.95	9114.05
471.14	9071.92
471.32	9128.09
471.50	9544.70
471.68	9305.97
471.86	9364.48
472.04	9350.44
472.22	9879.40
472.40	9282.56
472.58	9638.33
472.77	9572.79
472.95	9685.14
473.13	10097.07
473.31	9633.64
473.49	9490.87
473.67	9626.62
473.85	9799.82
474.03	10068.98
474.21	10001.11
474.39	10090.05
474.57	10094.73
474.75	10078.35
474.93	10352.19
475.12	10073.67
475.30	10197.71
475.48	10338.15
475.66	10466.88
475.84	10483.26
476.02	10530.07
476.20	10406.02
476.38	10464.54
476.56	10817.96
476.74	10619.01
476.92	10670.50
477.10	11005.20
477.28	11117.54
477.46	11126.91
477.64	11300.11
477.82	11405.43
478.00	11447.56
478.18	11557.57
478.36	11524.80
478.54	11733.11
478.72	11695.66
478.90	11960.14
479.08	11716.72
479.26	11852.47
479.44	11866.52
479.62	12133.34
479.80	12009.29
479.98	12421.22
480.16	12325.26
480.34	12631.87
480.52	12697.41
480.70	12718.47
480.88	12528.89
481.06	12549.95
481.24	12592.08
481.41	13076.57
481.59	12957.21
481.77	13245.09
481.95	13081.25
482.13	13315.31
482.31	13341.05
482.49	13628.94
482.67	13738.94
482.85	13783.41
483.03	13851.29
483.21	14008.11
483.39	14242.16
483.57	14139.18
483.74	14328.76
483.92	14317.06
484.10	14185.99
484.28	14628.35
484.46	14736.01
484.64	14993.47
484.82	14640.05
485.00	14829.63
485.18	15459.24
485.35	15227.53
485.53	15185.40
485.71	14827.29
485.89	15370.30
486.07	15494.35
486.25	15314.13
486.43	15644.14
486.61	15513.07
486.78	16093.52
486.96	16023.31
487.14	16163.74
487.32	16299.49
487.50	16414.18
487.68	16716.11
487.85	16772.28
488.03	17296.56
488.21	17172.51
488.39	17345.71
488.57	17137.40
488.75	17366.78
488.92	17720.20
489.10	18019.78
489.28	17809.14
489.46	18075.96
489.64	18073.62
489.81	18731.31
489.99	18412.99
490.17	18691.52
490.35	18778.12
490.53	18735.99
490.70	19019.19
490.88	18853.02
491.06	19206.44
491.24	19126.86
491.41	19204.10
491.59	19082.39
491.77	19342.19
491.95	19534.11
492.13	19660.50
492.30	19772.85
492.48	20119.24
492.66	20072.43
492.84	19983.49
493.01	20306.49
493.19	20255.00
493.37	20554.58
493.54	20680.97
493.72	21001.63
493.90	20828.43
494.08	20926.73
494.25	21486.12
494.43	21387.82
494.61	21607.83
494.79	21589.10
494.96	21582.08
495.14	21886.35
495.32	22155.51
495.49	22061.89
495.67	22111.04
495.85	22171.89
496.02	22202.32
496.20	22375.52
496.38	22876.40
496.55	22754.69
496.73	22904.48
496.91	22906.82
497.09	22998.10
497.26	23204.07
497.44	23323.44
497.62	23571.54
497.79	23534.09
497.97	23534.09
498.14	23660.48
498.32	23503.66
498.50	23910.91
498.67	24025.60
498.85	24030.28
499.03	24364.98
499.20	23889.85
499.38	24336.89
499.56	24587.33
499.73	24416.47
499.91	24484.34
500.08	24638.82
500.26	24858.83
500.44	24694.99
500.61	24781.59
500.79	24999.26
500.97	24835.42
501.14	25092.88
501.32	25589.08
501.49	25333.96
501.67	25078.84
501.84	25177.14
502.02	25673.34
502.20	25722.49
502.37	26155.49
502.55	25703.76
502.72	25635.89
502.90	25799.73
503.07	25886.32
503.25	26033.78
503.43	25855.90
503.60	26302.94
503.78	25993.99
503.95	25984.63
504.13	26403.58
504.30	26197.62
504.48	26464.44
504.65	26981.70
504.83	26899.78
505.01	27391.29
505.18	27271.92
505.36	27178.30
505.53	26993.40
505.71	27690.88
505.88	27461.51
506.06	27580.87
506.23	27955.36
506.41	27936.63
506.58	27817.27
506.76	27969.40
506.93	27875.78
507.11	27866.42
507.28	27875.78
507.46	28053.66
507.63	27859.40
507.81	28402.40
507.98	28025.57
508.16	28393.04
508.33	28620.07
508.50	28350.91
508.68	28657.52
508.85	28856.46
509.03	28706.67
509.20	28734.76
509.38	29048.39
509.55	28933.70
509.73	29167.76
509.90	28987.53
510.08	28973.49
510.25	29355.00
510.42	29584.37
510.60	29834.81
510.77	29961.20
510.95	30029.07
511.12	29778.64
511.30	30295.89
511.47	30136.74
511.64	30139.08
511.82	30279.51
511.99	29883.96
512.17	30291.21
512.34	30169.51
512.51	30621.23
512.69	30719.53
512.86	30646.97
513.04	30579.10
513.21	30174.19
513.38	30918.48
513.56	30682.08
513.73	30726.55
513.90	31129.12
514.08	30937.20
514.25	31248.49
514.43	30876.35
514.60	31271.90
514.77	31339.77
514.95	31714.26
515.12	31915.54
515.29	31407.65
515.47	31772.77
515.64	32142.58
515.81	31428.71
515.99	31887.46
516.16	31531.70
516.33	31672.13
516.51	31749.37
516.68	31253.17
516.85	32027.89
517.03	31566.81
517.20	32060.66
517.37	32077.04
517.54	32191.73
517.72	31941.29
517.89	31791.50
518.06	32488.98
518.24	32512.38
518.41	32446.85
518.58	32535.79
518.75	32444.51
518.93	32786.22
519.10	32711.33
519.27	32914.95
519.45	32943.04
519.62	32837.72
519.79	33453.28
519.96	33146.67
520.14	33184.12
520.31	33305.82
520.48	33195.82
520.65	33376.04
520.83	33750.52
521.00	33923.72
521.17	34204.59
521.34	33797.34
521.52	33886.28
521.69	33909.68
521.86	34054.79
522.03	33975.22
522.20	34359.06
522.38	34646.95
522.55	34277.15
522.72	34316.93
522.89	34665.67
523.07	34583.76
523.24	34197.57
523.41	34855.26
523.58	34586.10
523.75	34586.10
523.92	35281.24
524.10	35136.12
524.27	34930.16
524.44	35309.32
524.61	35264.85
524.78	35644.02
524.96	35054.20
525.13	35262.51
525.30	35543.38
525.47	35655.72
525.64	35330.39
525.81	35627.63
525.98	35585.50
526.16	35491.88
526.33	35211.02
526.50	35225.06
526.67	35337.41
526.84	35892.12
527.01	35363.15
527.18	35587.85
527.36	36189.36
527.53	35793.81
527.70	36430.44
527.87	36229.15
528.04	36301.71
528.21	35754.02
528.38	36395.33
528.55	36128.51
528.72	36238.51
528.89	36535.76
529.07	36559.17
529.24	36350.86
529.41	36751.09
529.58	36645.77
529.75	36364.90
529.92	36896.20
530.09	36912.59
530.26	37118.56
530.43	36989.83
530.60	36603.64
530.77	36950.04
530.94	37574.96
531.11	37186.43
531.28	37010.89
531.46	37165.37
531.63	37357.29
531.80	37179.41
531.97	37177.07
532.14	37127.92
532.31	36961.74
532.48	37385.38
532.65	37387.72
532.82	37734.12
532.99	37675.60
533.16	37177.07
533.33	37806.67
533.50	38307.55
533.67	38036.05
533.84	37586.66
534.01	38019.66
534.18	37734.12
534.35	38045.41
534.52	37879.23
534.69	38059.45
534.86	38230.31
535.03	38139.03
535.20	38520.54
535.37	38431.60
535.54	38782.68
535.71	38373.08
535.88	38291.16
536.05	38726.50
536.22	38944.17
536.38	38607.14
536.55	38698.42
536.72	38789.70
536.89	38146.05
537.06	38785.02
537.23	38829.49
537.40	38663.31
537.57	38773.31
537.74	38888.00
537.91	39098.65
538.08	39171.21
538.25	38752.25
538.42	38508.83
538.59	39688.46
538.75	39103.33
538.92	39295.25
539.09	39562.08
539.26	38941.83
539.43	39262.49
539.60	39632.29
539.77	39304.62
539.94	39433.35
540.11	39510.58
540.28	39288.23
540.44	39643.99
540.61	39739.96
540.78	39714.21
540.95	39669.74
541.12	39234.40
541.29	39583.14
541.46	39746.98
541.62	39770.38
541.79	39878.05
541.96	39746.98
542.13	39906.13
542.30	39814.85
542.47	39782.09
542.63	40208.06
542.80	40397.65
542.97	40596.59
543.14	40460.84
543.31	40261.90
543.48	40421.05
543.64	41003.85
543.81	40612.98
543.98	40638.72
544.15	40641.06
544.32	41247.26
544.48	40783.83
544.65	40837.67
544.82	40964.06
544.99	40650.42
545.16	40804.90
545.32	41230.88
545.49	41069.38
545.66	41317.48
545.83	41333.86
546.00	41649.83
546.16	40975.76
546.33	40868.09
546.50	40966.40
546.67	41359.61
546.83	40605.95
547.00	41317.48
547.17	40893.84
547.34	41298.75
547.50	41296.41
547.67	41471.95
547.84	41462.59
548.00	42064.11
548.17	41806.65
548.34	41879.21
548.51	41797.29
548.67	41825.37
548.84	41846.44
549.01	41586.64
549.18	41642.81
549.34	41516.42
549.51	41661.54
549.68	41940.06
549.84	41715.37
550.01	42021.98
550.18	41537.49
550.34	42251.35
550.51	41888.57
550.68	41951.76
550.84	41773.88
551.01	42241.99
551.18	41680.26
551.34	42155.39
551.51	42347.31
551.68	42555.62
551.84	42691.37
552.01	42394.12
552.18	42094.53
552.34	42129.64
552.51	42541.58
552.68	42057.09
552.84	41872.18
553.01	42745.20
553.18	42754.57
553.34	42260.71
553.51	42431.57
553.67	42536.90
553.84	42731.16
554.01	42490.09
554.17	42852.87
554.34	42253.69
554.51	42693.71
554.67	42815.42
554.84	42873.93
555.00	42567.32
555.17	42738.18
555.33	43075.22
555.50	42674.99
555.67	42684.35
555.83	42497.11
556.00	42906.70
556.16	43222.67
556.33	42689.03
556.50	42850.53
556.66	43356.08
556.83	43122.03
556.99	43278.85
557.16	43299.91
557.32	42927.77
557.49	43386.51
557.65	42876.27
557.82	42803.72
557.98	43107.99
558.15	42876.27
558.32	43384.17
558.48	43320.98
558.65	42995.64
558.81	42993.30
558.98	43138.41
559.14	43105.65
559.31	43140.75
559.47	43690.78
559.64	43770.36
559.80	43676.74
559.97	43196.93
560.13	43435.66
560.30	43131.39
560.46	43306.93
560.63	43533.96
560.79	43309.27
560.96	43896.75
561.12	43505.88
561.29	43468.43
561.45	43761.00
561.61	43840.57
561.78	43187.56
561.94	43138.41
562.11	43899.09
562.27	43775.04
562.44	43709.50
562.60	43845.26
562.77	43391.19
562.93	43613.54
563.10	43440.34
563.26	43393.53
563.42	43988.03
563.59	43463.75
563.75	43529.28
563.92	43641.63
564.08	43950.58
564.24	43817.17
564.41	43730.57
564.57	43784.40
564.74	43761.00
564.90	43950.58
565.07	43629.93
565.23	43571.41
565.39	43590.14
565.56	44067.61
565.72	43880.36
565.88	43971.64
566.05	43976.33
566.21	43945.90
566.38	43690.78
566.54	43810.15
566.70	44219.74
566.87	44264.21
567.03	44016.11
567.19	44261.87
567.36	43866.32
567.52	44208.04
567.68	44191.65
567.85	44083.99
568.01	43945.90
568.17	44072.29
568.34	43981.01
568.50	43941.22
568.66	44034.84
568.83	44069.95
568.99	43648.65
569.15	43550.35
569.32	43969.30
569.48	43807.81
569.64	44100.37
569.81	44395.28
569.97	44217.40
570.13	44175.27
570.30	44018.46
570.46	43730.57
570.62	44039.52
570.78	43672.06
570.95	43812.49
571.11	44095.69
571.27	43952.92
571.43	43903.77
571.60	44229.10
571.76	43929.51
571.92	44449.11
572.09	44261.87
572.25	44062.93
572.41	43728.23
572.57	43945.90
572.74	44938.29
572.90	44236.12
573.06	43903.77
573.22	44552.10
573.38	44128.46
573.55	44100.37
573.71	44556.78
573.87	44172.93
574.03	44140.16
574.20	44091.01
574.36	44076.97
574.52	44261.87
574.68	44170.59
574.84	44224.42
575.01	44493.58
575.17	44341.45
575.33	44009.09
575.49	44343.79
575.65	44357.83
575.82	44708.91
575.98	44573.16
576.14	44552.10
576.30	44561.46
576.46	44486.56
576.62	44425.71
576.79	44598.91
576.95	43929.51
577.11	44458.48
577.27	44655.08
577.43	44741.68
577.59	44055.90
577.75	44664.44
577.92	43620.56
578.08	44210.38
578.24	44605.93
578.40	44676.15
578.56	44226.76
578.72	44107.40
578.88	44718.28
579.04	44741.68
579.21	44044.20
579.37	44402.30
579.53	44526.35
579.69	44189.31
579.85	44786.15
580.01	44727.64
580.17	44259.53
580.33	44711.25
580.49	44535.71
580.65	44554.44
580.82	44414.01
580.98	43718.87
581.14	44399.96
581.30	44615.29
581.46	44442.09
581.62	44538.05
581.78	44538.05
581.94	44842.32
582.10	44561.46
582.26	44538.05
582.42	44538.05
582.58	44514.65
582.74	44856.37
582.90	44914.88
583.06	44556.78
583.22	44708.91
583.38	44959.35
583.54	44575.50
583.70	44872.75
583.86	44634.02
584.02	44404.64
584.18	44673.81
584.34	44720.62
584.50	44516.99
584.66	43873.34
584.82	44547.42
584.98	44589.55
585.14	45036.59
585.30	44493.58
585.46	44549.76
585.62	44460.82
585.78	44339.11
585.94	44264.21
586.10	44554.44
586.26	44566.14
586.42	44479.54
586.58	44877.43
586.74	44360.17
586.90	44666.78
587.06	44247.83
587.22	44673.81
587.38	44280.60
587.54	44519.33
587.70	45003.82
587.86	44762.75
588.02	44666.78
588.18	44786.15
588.34	44676.15
588.49	44432.73
588.65	44175.27
588.81	44247.83
588.97	44341.45
589.13	44509.97
589.29	44547.42
589.45	44610.61
589.61	44446.77
589.77	44385.92
589.93	44666.78
590.08	44898.50
590.24	44832.96
590.40	44933.60
590.56	44877.43
590.72	45186.38
590.88	44776.79
591.04	44725.30
591.20	45141.91
591.35	45139.57
591.51	45280.00
591.67	45099.78
591.83	45050.63
591.99	44685.51
592.15	44779.13
592.31	44832.96
592.46	44657.42
592.62	44697.21
592.78	45106.80
592.94	44914.88
593.10	45167.66
593.26	45071.70
593.41	44811.90
593.57	44830.62
593.73	44512.31
593.89	44793.17
594.05	44818.92
594.20	45095.10
594.36	45078.72
594.52	45059.99
594.68	44835.30
594.84	44542.74
594.99	44978.07
595.15	45029.57
595.31	45067.02
595.47	44933.60
595.62	44917.22
595.78	45043.61
595.94	45130.21
596.10	44907.86
596.25	45015.52
596.41	45085.74
596.57	45034.25
596.73	45237.87
596.88	44751.04
597.04	44872.75
597.20	44615.29
597.36	45214.47
597.51	44814.24
597.67	45198.09
597.83	45090.42
597.99	45326.81
598.14	44882.11
598.30	45167.66
598.46	45027.23
598.61	44847.00
598.77	44737.00
598.93	44591.89
599.09	44992.12
599.24	45624.06
599.40	45408.73
599.56	45287.03
599.71	44783.81
599.87	45130.21
600.03	45158.30
600.18	44886.79
600.34	44729.98
600.50	45366.60
600.65	44842.32
600.81	45048.29
600.97	45015.52
601.12	45326.81
601.28	45390.01
601.44	44980.42
601.59	45148.93
601.75	44514.65
601.91	44781.47
602.06	44753.38
602.22	45249.58
602.37	44800.19
602.53	45029.57
602.69	45434.48
602.84	44561.46
603.00	44788.49
603.16	44872.75
603.31	44898.50
603.47	44884.45
603.62	44474.86
603.78	44800.19
603.94	44973.39
604.09	45102.12
604.25	45055.31
604.40	45214.47
604.56	44659.76
604.71	44961.69
604.87	44481.88
605.03	44634.02
605.18	44439.75
605.34	44662.10
605.49	44320.38
605.65	44584.86
605.80	44554.44
605.96	45034.25
606.12	45162.98
606.27	45263.62
606.43	44793.17
606.58	44802.53
606.74	44839.98
606.89	44701.89
607.05	44577.84
607.20	44692.53
607.36	44793.17
607.51	44884.45
607.67	44811.90
607.82	44992.12
607.98	44552.10
608.13	44697.21
608.29	44151.87
608.44	44423.37
608.60	44046.54
608.75	44435.07
608.91	44650.40
609.06	44301.66
609.22	44458.48
609.37	44259.53
609.53	44540.39
609.68	44264.21
609.84	43878.02
609.99	44315.70
610.15	43999.73
610.30	44449.11
610.46	43896.75
610.61	44514.65
610.76	44287.62
610.92	44584.86
611.07	44238.47
611.23	44896.16
611.38	44694.87
611.54	44507.63
611.69	44217.40
611.84	44112.08
612.00	44573.16
612.15	44449.11
612.31	44392.94
612.46	44126.12
612.62	44559.12
612.77	43929.51
612.92	44367.20
613.08	44151.87
613.23	44215.06
613.39	44018.46
613.54	43693.12
613.69	43913.13
613.85	43826.53
614.00	44060.58
614.15	44208.04
614.31	44479.54
614.46	44552.10
614.62	44322.72
614.77	43981.01
614.92	43859.30
615.08	43969.30
615.23	43559.71
615.38	43636.95
615.54	43454.39
615.69	43763.34
615.84	43753.97
616.00	44069.95
616.15	44020.80
616.30	43779.72
616.46	42972.24
616.61	43414.60
616.76	43650.99
616.92	43026.07
617.07	43297.57
617.22	43105.65
617.37	42993.30
617.53	43948.24
617.68	44432.73
617.83	43372.47
617.99	43634.61
618.14	43346.72
618.29	43328.00
618.45	43299.91
618.60	43225.01
618.75	43283.53
618.90	43562.05
619.06	43503.54
619.21	43473.11
619.36	44069.95
619.51	43360.76
619.67	43061.18
619.82	43529.28
619.97	43569.07
620.12	42890.32
620.28	43316.29
620.43	42763.93
620.58	43063.52
620.73	43157.14
620.89	42677.33
621.04	42667.97
621.19	42660.94
621.34	43278.85
621.49	42810.74
621.65	43136.07
621.80	42934.79
621.95	42644.56
622.10	42696.05
622.25	42401.14
622.41	42223.26
622.56	42452.64
622.71	42639.88
622.86	42801.38
623.01	42618.81
623.16	42880.95
623.32	42419.87
623.47	42611.79
623.62	42602.43
623.77	42087.51
623.92	42614.13
624.07	41736.43
624.23	42274.76
624.38	42625.84
624.53	41911.97
624.68	42518.17
624.83	42440.93
624.98	42492.43
625.13	42450.30
625.29	42024.32
625.44	42014.96
625.59	42068.79
625.74	42068.79
625.89	41904.95
626.04	42146.03
626.19	41790.27
626.34	42094.53
626.49	42459.66
626.65	42312.20
626.80	42373.06
626.95	41933.04
627.10	41839.42
627.25	41982.19
627.40	41652.17
627.55	41493.02
627.70	41191.09
627.85	41596.00
628.00	41738.77
628.15	41446.21
628.30	41549.19
628.45	41858.14
628.60	41886.23
628.76	41460.25
628.91	42033.68
629.06	41158.32
629.21	41350.24
629.36	41198.11
629.51	40996.82
629.66	41303.43
629.81	41053.00
629.96	40961.72
630.11	41727.07
630.26	41287.05
630.41	41361.95
630.56	41284.71
630.71	41249.60
630.86	41331.52
631.01	40971.08
631.16	41312.80
631.31	40837.67
631.46	40884.48
631.61	41141.94
631.76	41167.68
631.91	41097.47
632.06	41275.35
632.21	41251.94
632.36	41001.50
632.51	40907.88
632.66	40800.22
632.81	40486.59
632.96	40362.54
633.10	40395.31
633.25	40767.45
633.40	41116.19
633.55	40950.01
633.70	40730.00
633.85	40685.53
634.00	40942.99
634.15	40823.62
634.30	40896.18
634.45	40809.58
634.60	40788.52
634.75	40683.19
634.90	40170.61
635.05	40545.10
635.19	40271.26
635.34	40598.93
635.49	40360.20
635.64	40287.64
635.79	40320.41
635.94	40336.79
636.09	40266.58
636.24	40540.42
636.39	40250.19
636.53	39966.99
636.68	39952.94
636.83	39927.20
636.98	40484.25
637.13	40107.42
637.28	40158.91
637.43	40502.97
637.57	40161.25
637.72	39981.03
637.87	39796.13
638.02	40121.46
638.17	40151.89
638.32	40025.50
638.46	39861.66
638.61	39648.68
638.76	39613.57
638.91	40254.87
639.06	39864.00
639.20	40004.44
639.35	39847.62
639.50	40243.17
639.65	40392.97
639.80	40172.96
639.94	39566.76
640.09	39576.12
640.24	39290.57
640.39	39262.49
640.54	39140.78
640.68	39276.53
640.83	39412.28
640.98	39276.53
641.13	38969.92
641.27	39763.36
641.42	39475.48
641.57	39475.48
641.72	39143.12
641.86	39068.22
642.01	39014.39
642.16	39016.73
642.31	39215.68
642.45	39283.55
642.60	38937.15
642.75	38883.32
642.90	39236.74
643.04	39030.77
643.19	38593.09
643.34	39337.38
643.48	38827.15
643.63	39187.59
643.78	38911.41
643.93	38782.68
644.07	38799.06
644.22	39056.52
644.37	38752.25
644.51	38548.62
644.66	38778.00
644.81	39386.54
644.95	38667.99
645.10	39000.35
645.25	38782.68
645.39	39030.77
645.54	38490.11
645.69	38628.20
645.83	38740.55
645.98	38969.92
646.13	38543.94
646.27	38813.10
646.42	38738.21
646.57	38766.29
646.71	38490.11
646.86	38808.42
647.00	38871.62
647.15	38918.43
647.30	38642.24
647.44	38485.43
647.59	38274.78
647.74	38024.34
647.88	38335.63
648.03	38735.87
648.17	38335.63
648.32	38033.71
648.47	37823.06
648.61	38387.13
648.76	38185.84
648.90	38342.66
649.05	38071.15
649.20	38061.79
649.34	38153.07
649.49	38150.73
649.63	37890.93
649.78	37729.44
649.92	38361.38
650.07	38223.29
650.21	37773.91
650.36	37787.95
650.51	38078.18
650.65	38094.56
650.80	38120.31
650.94	37776.25
651.09	37727.10
651.23	37879.23
651.38	37778.59
651.52	37745.82
651.67	37610.07
651.81	37696.67
651.96	37544.53
652.10	37202.82
652.25	37556.24
652.39	37502.40
652.54	37816.04
652.68	37724.75
652.83	37570.28
652.97	37764.54
653.12	37282.39
653.26	37263.67
653.41	37333.89
653.55	36954.72
653.70	36641.09
653.84	37766.88
653.99	37645.18
654.13	37778.59
654.27	37387.72
654.42	36947.70
654.56	36741.73
654.71	37226.22
654.85	37160.69
655.00	36947.70
655.14	36975.78
655.29	36802.58
655.43	36664.49
655.57	36898.55
655.72	36697.26
655.86	36868.12
656.01	36755.77
656.15	36594.28
656.30	36746.41
656.44	36814.29
656.58	36800.24
656.73	36561.51
656.87	36512.36
657.01	36437.46
657.16	37006.21
657.30	36893.86
657.45	36140.21
657.59	36582.57
657.73	36439.80
657.88	36744.07
658.02	36542.78
658.16	36739.39
658.31	36917.27
658.45	36921.95
658.60	36381.29
658.74	36264.26
658.88	36226.81
659.03	36439.80
659.17	35852.33
659.31	35931.90
659.46	36147.23
659.60	36264.26
659.74	36435.12
659.89	36048.93
660.03	35564.44
660.17	35615.93
660.32	35842.96
660.46	36135.53
660.60	35849.99
660.74	35824.24
660.89	35796.15
661.03	35742.32
661.17	35419.33
661.32	35091.65
661.46	35349.11
661.60	35648.70
661.74	35676.79
661.89	35431.03
662.03	35606.57
662.17	35154.85
662.31	35063.57
662.46	35299.96
662.60	35571.46
662.74	35370.18
662.88	34995.69
663.03	34815.47
663.17	34845.90
663.31	34616.52
663.45	34581.42
663.60	34590.78
663.74	34733.55
663.88	34876.32
664.02	34504.18
664.17	34782.70
664.31	34700.78
664.45	34815.47
664.59	34419.92
664.73	34710.14
664.88	34373.11
665.02	34188.21
665.16	34361.40
665.30	34452.69
665.44	34209.27
665.59	34080.54
665.73	33837.12
665.87	33930.75
666.01	33991.60
666.15	33830.10
666.29	34199.91
666.44	33853.51
666.58	33848.83
666.72	33450.94
666.86	34302.89
667.00	33780.95
667.14	33811.38
667.28	33532.86
667.43	33153.69
667.57	33677.97
667.71	33383.06
667.85	33008.58
667.99	33317.53
668.13	33420.51
668.27	33490.73
668.41	33684.99
668.56	33064.75
668.70	32924.32
668.84	33144.33
668.98	33013.26
669.12	33048.36
669.26	32280.67
669.40	32414.08
669.54	32325.14
669.68	32744.09
669.82	32488.98
669.96	32568.55
670.10	32350.88
670.25	32510.04
670.39	32624.73
670.53	32137.90
670.67	32292.37
670.81	32779.20
670.95	32479.61
671.09	32304.07
671.23	32306.41
671.37	32236.20
671.51	32184.71
671.65	31854.69
671.79	31618.30
671.93	31800.86
672.07	31974.06
672.21	31658.09
672.35	31704.90
672.49	31702.56
672.63	31740.00
672.77	31136.15
672.91	31510.63
673.05	31187.64
673.19	31243.81
673.33	31199.34
673.47	30679.74
673.61	30731.23
673.75	30672.72
673.89	31007.42
674.03	30422.28
674.17	30501.86
674.31	30532.29
674.45	30792.09
674.59	31005.08
674.73	31012.10
674.87	30469.09
675.01	30326.32
675.15	30321.64
675.29	29977.58
675.43	30494.84
675.56	30174.19
675.70	29764.59
675.84	30246.74
675.98	29469.69
676.12	30139.08
676.26	30110.99
676.40	30087.59
676.54	29841.83
676.68	29919.07
676.82	29053.07
676.96	29280.10
677.10	29333.93
677.23	29668.63
677.37	29137.33
677.51	29160.73
677.65	28994.56
677.79	28437.51
677.93	29069.45
678.07	28837.74
678.21	28446.87
678.34	28100.47
678.48	28065.36
678.62	27775.14
678.76	27789.18
678.90	27864.08
679.04	27515.34
679.18	27978.76
679.31	27393.63
679.45	27337.46
679.59	27332.78
679.73	27452.14
679.87	27583.21
680.00	27498.95
680.14	27143.19
680.28	27335.12
680.42	27269.58
680.56	27323.41
680.70	27044.89
680.83	27384.27
680.97	26862.33
681.11	27101.06
681.25	26693.81
681.39	26654.02
681.52	26747.64
681.66	26441.03
681.80	26485.50
681.94	26927.86
682.07	26544.02
682.21	26258.47
682.35	25975.27
682.49	26047.82
682.62	26150.81
682.76	25893.35
682.90	25926.11
683.04	25308.21
683.17	25460.35
683.31	25106.93
683.45	25582.06
683.59	24957.13
683.72	24950.11
683.86	25050.75
684.00	25205.23
684.13	25001.60
684.27	24982.88
684.41	24868.19
684.55	24769.89
684.68	24383.70
684.82	24592.01
684.96	24496.05
685.09	24692.65
685.23	24269.01
685.37	24402.43
685.50	24144.97
685.64	24065.39
685.78	23999.85
685.91	23981.13
686.05	24004.53
686.19	23562.17
686.32	23878.15
686.46	23138.54
686.60	23328.12
686.73	23159.60
686.87	23194.71
687.01	22923.21
687.14	22923.21
687.28	23094.07
687.42	22925.55
687.55	22960.66
687.69	22892.78
687.82	22644.68
687.96	22632.98
688.10	22408.29
688.23	22494.89
688.37	21977.63
688.50	22232.75
688.64	22178.92
688.78	22181.26
688.91	22270.20
689.05	22211.68
689.18	22040.82
689.32	21671.02
689.46	21778.68
689.59	21841.88
689.73	21818.47
689.86	21565.70
690.00	21451.01
690.13	21371.43
690.27	21528.25
690.41	21369.09
690.54	21158.44
690.68	20917.37
690.81	20837.79
690.95	21128.02
691.08	20554.58
691.22	20826.09
691.35	20765.23
691.49	20655.23
691.62	20835.45
691.76	20507.77
691.89	20510.11
692.03	20460.96
692.16	20042.01
692.30	20187.12
692.43	20236.27
692.57	19829.02
692.70	19669.86
692.84	19756.46
692.97	19697.95
693.11	19644.12
693.24	19307.08
693.38	19239.20
693.51	19494.32
693.65	19735.40
693.78	19557.52
693.92	19433.47
694.05	19190.05
694.19	19166.65
694.32	18806.20
694.45	18757.05
694.59	18476.19
694.72	18719.60
694.86	18759.39
694.99	18438.74
695.13	18544.06
695.26	18384.91
695.39	18204.69
695.53	18375.55
695.66	18501.93
695.80	18382.57
695.93	18017.44
696.07	17947.23
696.20	17987.02
696.33	18143.83
696.47	17659.34
696.60	17661.68
696.73	17748.28
696.87	17603.17
697.00	17617.21
697.14	17439.33
697.27	17507.21
697.40	17184.21
697.54	17434.65
697.67	17202.94
697.80	16961.86
697.94	16861.22
698.07	16774.62
698.21	16706.74
698.34	16673.98
698.47	16521.84
698.61	16280.77
698.74	16264.38
698.87	16470.35
699.01	16119.27
699.14	16374.39
699.27	16226.93
699.40	15866.49
699.54	15957.77
699.67	15873.51
699.80	15988.20
699.94	15810.32
700.07	15695.63
700.20	15501.37
700.34	15665.21
700.47	15531.80
700.60	15939.05
700.73	15775.21
700.87	15499.03
701.00	15232.21
701.13	15597.33
701.26	15304.76
701.40	15435.83
701.53	15105.82
701.66	15026.24
701.79	14890.49
701.93	15140.93
702.06	14675.16
702.19	14864.74
702.32	14750.06
702.46	14398.98
702.59	14310.04
702.72	14441.11
702.85	14396.64
702.99	14558.13
703.12	14516.00
703.25	14263.22
703.38	14003.43
703.51	13921.51
703.65	14113.43
703.78	14141.52
703.91	13827.88
704.04	13956.61
704.17	13970.66
704.31	13827.88
704.44	13444.04
704.57	13923.85
704.70	13635.96
704.83	13722.56
704.96	13778.73
705.10	13570.43
705.23	13345.73
>>>>>End Processed Spectral Data<<<<<
