SpectraSuite Data File
++++++++++++++++++++++++++++++++++++
Date: Fri Oct 25 10:46:59 EDT 2013
User: price-jones
Dark Spectrum Present: No
Reference Spectrum Present: No
Number of Sampled Component Spectra: 1
Spectrometers: USB2+H05261
Integration Time (usec): 100000 (USB2+H05261)
Spectra Averaged: 1 (USB2+H05261)
Boxcar Smoothing: 0 (USB2+H05261)
Correct for Electrical Dark: No (USB2+H05261)
Strobe/Lamp Enabled: No (USB2+H05261)
Correct for Detector Non-linearity: No (USB2+H05261)
Correct for Stray Light: No (USB2+H05261)
Number of Pixels in Processed Spectrum: 2048
>>>>>Begin Processed Spectral Data<<<<<
365.73	152.13
365.92	152.13
366.12	152.13
366.32	77.24
366.52	21.06
366.72	131.07
366.91	58.51
367.11	67.88
367.31	100.64
367.51	42.13
367.70	0.00
367.90	70.22
368.10	21.06
368.30	86.60
368.49	53.83
368.69	105.32
368.89	88.94
369.09	37.45
369.28	11.70
369.48	114.69
369.68	67.88
369.87	105.32
370.07	56.17
370.27	65.54
370.47	149.79
370.66	367.46
370.86	395.55
371.06	477.47
371.25	535.98
371.45	447.04
371.65	517.26
371.84	416.62
372.04	514.92
372.24	500.87
372.44	503.22
372.63	517.26
372.83	510.24
373.03	561.73
373.22	479.81
373.42	521.94
373.62	645.99
373.81	559.39
374.01	578.11
374.21	535.98
374.40	561.73
374.60	566.41
374.79	585.13
374.99	559.39
375.19	524.28
375.38	559.39
375.58	610.88
375.78	629.60
375.97	566.41
376.17	615.56
376.37	568.75
376.56	606.20
376.76	566.41
376.95	582.79
377.15	634.29
377.35	706.84
377.54	711.52
377.74	653.01
377.93	650.67
378.13	589.82
378.33	571.09
378.52	620.24
378.72	650.67
378.91	678.76
379.11	706.84
379.31	713.86
379.50	561.73
379.70	669.39
379.89	720.88
380.09	692.80
380.28	660.03
380.48	631.94
380.68	697.48
380.87	674.07
381.07	634.29
381.26	760.67
381.46	662.37
381.65	711.52
381.85	608.54
382.04	709.18
382.24	746.63
382.43	781.74
382.63	629.60
382.83	657.69
383.02	739.61
383.22	763.01
383.41	746.63
383.61	699.82
383.80	809.83
384.00	734.93
384.19	788.76
384.39	770.04
384.58	753.65
384.78	809.83
384.97	809.83
385.17	788.76
385.36	734.93
385.56	788.76
385.75	774.72
385.95	732.59
386.14	807.48
386.34	884.72
386.53	847.27
386.72	809.83
386.92	954.94
387.11	835.57
387.31	905.79
387.50	802.80
387.70	898.77
387.89	875.36
388.09	894.08
388.28	819.19
388.48	830.89
388.67	940.90
388.86	936.21
389.06	964.30
389.25	1013.45
389.45	856.64
389.64	959.62
389.84	983.02
390.03	968.98
390.22	1034.52
390.42	1025.15
390.61	954.94
390.81	966.64
391.00	1062.60
391.19	990.05
391.39	929.19
391.58	1011.11
391.78	1114.10
391.97	1165.59
392.16	1039.20
392.36	1034.52
392.55	992.39
392.75	1001.75
392.94	1062.60
393.13	994.73
393.33	980.68
393.52	1071.97
393.71	1064.94
393.91	1064.94
394.10	1043.88
394.29	1025.15
394.49	1111.75
394.68	1104.73
394.88	1167.93
395.07	1198.35
395.26	1198.35
395.46	1128.14
395.65	1132.82
395.84	1167.93
396.04	1231.12
396.23	1336.45
396.42	1142.18
396.62	1153.88
396.81	1121.12
397.00	1217.08
397.19	1266.23
397.39	1296.66
397.58	1334.11
397.77	1315.38
397.97	1308.36
398.16	1317.72
398.35	1341.13
398.55	1343.47
398.74	1394.96
398.93	1432.41
399.12	1483.90
399.32	1409.00
399.51	1439.43
399.70	1551.78
399.90	1521.35
400.09	1603.27
400.28	1626.67
400.47	1385.60
400.67	1490.92
400.86	1568.16
401.05	1540.07
401.24	1633.69
401.44	1551.78
401.63	1605.61
401.82	1516.67
402.01	1633.69
402.21	1629.01
402.40	1696.89
402.59	1596.25
402.78	1694.55
402.97	1666.46
403.17	1572.84
403.36	1804.55
403.55	1746.04
403.74	1846.68
403.93	1811.57
404.13	1802.21
404.32	1769.44
404.51	1729.66
404.70	1832.64
404.89	1743.70
405.09	1879.45
405.28	1874.77
405.47	1790.51
405.66	1853.70
405.85	1870.09
406.05	1816.26
406.24	1820.94
406.43	1940.30
406.62	1966.05
406.81	2003.50
407.00	1893.49
407.20	1863.07
407.39	1968.39
407.58	2038.61
407.77	2083.08
407.96	2052.65
408.15	2003.50
408.34	2092.44
408.54	2204.78
408.73	2223.51
408.92	2127.55
409.11	2200.10
409.30	2111.16
409.49	2230.53
409.68	2139.25
409.87	2235.21
410.07	2265.64
410.26	2253.94
410.45	2186.06
410.64	2347.56
410.83	2289.04
411.02	2406.07
411.21	2443.52
411.40	2356.92
411.59	2382.67
411.78	2438.84
411.98	2356.92
412.17	2492.67
412.36	2583.95
412.55	2595.65
412.74	2644.81
412.93	2548.84
413.12	2567.57
413.31	2656.51
413.50	2637.78
413.69	2722.04
413.88	2708.00
414.07	2623.74
414.26	2918.65
414.45	2675.23
414.64	2834.39
414.83	2874.18
415.02	2953.76
415.22	2810.98
415.41	2981.84
415.60	2963.12
415.79	2918.65
415.98	3002.91
416.17	3059.08
416.36	3000.57
416.55	3070.78
416.74	3005.25
416.93	3047.38
417.12	3063.76
417.31	3227.60
417.50	3260.37
417.69	3321.22
417.88	3332.92
418.07	3229.94
418.26	3251.00
418.45	3328.24
418.64	3307.18
418.83	3314.20
419.02	3251.00
419.21	3461.65
419.39	3382.07
419.58	3361.01
419.77	3316.54
419.96	3449.95
420.15	3459.31
420.34	3506.12
420.53	3562.30
420.72	3581.02
420.91	3618.47
421.10	3702.73
421.29	3676.98
421.48	3534.21
421.67	3669.96
421.86	3749.54
422.05	3698.05
422.24	3581.02
422.43	3665.28
422.61	3646.55
422.80	3716.77
422.99	3733.15
423.18	3707.41
423.37	3784.65
423.56	3786.99
423.75	3784.65
423.94	3651.24
424.13	3543.57
424.32	3681.66
424.50	3723.79
424.69	3859.54
424.88	3794.01
425.07	3758.90
425.26	3810.39
425.45	3859.54
425.64	3789.33
425.83	3789.33
426.01	3964.87
426.20	3976.57
426.39	3810.39
426.58	3775.28
426.77	3812.73
426.96	3896.99
427.15	3847.84
427.33	3868.91
427.52	3824.44
427.71	3948.48
427.90	3831.46
428.09	3995.29
428.28	3843.16
428.46	3990.61
428.65	3901.67
428.84	4070.19
429.03	4042.11
429.22	4023.38
429.40	3845.50
429.59	4011.68
429.78	3789.33
429.97	3908.69
430.16	3913.38
430.34	3957.85
430.53	3934.44
430.72	4109.98
430.91	3932.10
431.10	4053.81
431.28	4266.80
431.47	4416.59
431.66	4395.53
431.85	4292.54
432.03	4292.54
432.22	4379.14
432.41	4390.84
432.60	4521.92
432.79	4351.06
432.97	4517.23
433.16	4472.76
433.35	4472.76
433.54	4454.04
433.72	4540.64
433.91	4472.76
434.10	4622.56
434.28	4475.10
434.47	4571.07
434.66	4538.30
434.85	4645.96
435.03	4716.18
435.22	4748.95
435.41	4748.95
435.59	4840.23
435.78	4802.78
435.97	4744.27
436.16	4685.75
436.34	4779.37
436.53	4992.36
436.72	5095.35
436.90	4847.25
437.09	4835.55
437.28	4812.14
437.46	4919.81
437.65	4999.38
437.84	5018.11
438.02	5083.64
438.21	4898.74
438.40	4964.28
438.58	5060.24
438.77	5093.01
438.96	5125.77
439.14	5179.61
439.33	5401.96
439.52	5394.93
439.70	5373.87
439.89	5472.17
440.08	5483.88
440.26	5453.45
440.45	5373.87
440.63	5561.11
440.82	5589.20
441.01	5603.24
441.19	5769.42
441.38	5633.67
441.57	5753.04
441.75	5823.25
441.94	5966.03
442.12	5905.17
442.31	6108.80
442.50	5820.91
442.68	6097.10
442.87	5966.03
443.05	5926.24
443.24	6197.74
443.43	5923.90
443.61	6164.97
443.80	6328.81
443.98	6031.56
444.17	5736.65
444.35	6076.03
444.54	6256.25
444.73	6167.31
444.91	6258.59
445.10	6127.52
445.28	6204.76
445.47	6036.24
445.65	6242.21
445.84	6340.51
446.02	6296.04
446.21	6179.01
446.39	6134.54
446.58	6216.46
446.77	6122.84
446.95	6134.54
447.14	6490.31
447.32	6455.20
447.51	6289.02
447.69	6249.23
447.88	6132.20
448.06	6314.77
448.25	6333.49
448.43	6429.45
448.62	6406.05
448.80	6464.56
448.99	6377.96
449.17	6707.98
449.36	6509.03
449.54	6604.99
449.73	6738.40
449.91	6834.36
450.10	6712.66
450.28	6899.90
450.46	6796.92
450.65	6799.26
450.83	6846.07
451.02	6850.75
451.20	6930.33
451.39	6881.18
451.57	6712.66
451.76	6675.21
451.94	6820.32
452.13	6970.12
452.31	6771.17
452.49	6803.94
452.68	6977.14
452.86	6897.56
453.05	6956.07
453.23	7075.44
453.42	6932.67
453.60	6860.11
453.78	7112.89
453.97	7023.95
454.15	7007.56
454.34	6998.20
454.52	7157.36
454.70	7075.44
454.89	7260.34
455.07	7063.74
455.26	7199.49
455.44	7323.54
455.62	7300.13
455.81	7368.01
455.99	7501.42
456.17	7379.71
456.36	7611.42
456.54	7499.08
456.73	7424.18
456.91	7749.51
457.09	7595.04
457.28	7698.02
457.46	7524.82
457.64	7871.22
457.83	7667.60
458.01	7611.42
458.19	7772.92
458.38	7583.34
458.56	7948.46
458.74	7983.57
458.93	7889.95
459.11	7981.23
459.29	7927.39
459.48	7906.33
459.66	7857.18
459.84	7999.95
460.03	8121.66
460.21	8009.31
460.39	8245.71
460.57	8044.42
460.76	7779.94
460.94	8252.73
461.12	8430.61
461.31	8245.71
461.49	8201.24
461.67	8088.89
461.85	8306.56
462.04	8355.71
462.22	8905.74
462.40	8407.20
462.59	8280.82
462.77	8624.87
462.95	8631.90
463.13	8339.33
463.32	8432.95
463.50	8568.70
463.68	8561.68
463.86	8496.14
464.05	8404.86
464.23	8622.53
464.41	8718.50
464.59	8547.64
464.78	8793.39
464.96	8603.81
465.14	8636.58
465.32	8620.19
465.50	9032.13
465.69	8947.87
465.87	8711.47
466.05	8755.94
466.23	8652.96
466.41	8898.72
466.60	9057.87
466.78	8627.21
466.96	8896.38
467.14	9011.06
467.32	9088.30
467.51	9100.00
467.69	9071.92
467.87	8765.31
468.05	9064.89
468.23	8945.53
468.41	9032.13
468.60	9186.60
468.78	9149.15
468.96	9156.18
469.14	9069.58
469.32	9408.95
469.50	9064.89
469.69	9411.29
469.87	9446.40
470.05	9385.55
470.23	9401.93
470.41	9469.81
470.59	9362.14
470.77	9380.87
470.95	9472.15
471.14	9568.11
471.32	9554.07
471.50	9797.48
471.68	9692.16
471.86	9694.50
472.04	9914.51
472.22	10026.86
472.40	9736.63
472.58	9823.23
472.77	10015.15
472.95	10113.45
473.13	10363.89
473.31	10104.09
473.49	10122.82
473.67	10216.44
473.85	10473.90
474.03	10532.41
474.21	10347.51
474.39	10501.98
474.57	10759.44
474.75	10672.84
474.93	10696.25
475.12	10824.98
475.30	10960.73
475.48	10506.66
475.66	10705.61
475.84	10836.68
476.02	10960.73
476.20	10792.21
476.38	11211.17
476.56	11321.17
476.74	11314.15
476.92	11255.64
477.10	11220.53
477.28	11559.91
477.46	11646.51
477.64	11754.17
477.82	11829.07
478.00	11960.14
478.18	11985.88
478.36	12042.06
478.54	12198.87
478.72	12173.13
478.90	12549.95
479.08	12351.01
479.26	12552.29
479.44	12486.76
479.62	12767.62
479.80	12779.32
479.98	12587.40
480.16	12982.95
480.34	12786.35
480.52	13160.83
480.70	13104.66
480.88	13053.17
481.06	13048.49
481.24	13277.86
481.41	13551.70
481.59	13645.32
481.77	13666.39
481.95	13692.13
482.13	13902.78
482.31	13893.42
482.49	14083.00
482.67	14295.99
482.85	14420.04
483.03	14422.38
483.21	14647.07
483.39	14572.18
483.57	14668.14
483.74	14834.32
483.92	14668.14
484.10	15105.82
484.28	15152.63
484.46	15304.76
484.64	15557.54
484.82	15403.07
485.00	15763.51
485.18	15765.85
485.35	15662.86
485.53	15623.08
485.71	15573.92
485.89	15826.70
486.07	15847.77
486.25	16035.01
486.43	16343.96
486.61	16460.99
486.78	16676.32
486.96	16627.17
487.14	17060.16
487.32	17326.99
487.50	17343.37
487.68	17404.22
487.85	17752.96
488.03	17776.37
488.21	17869.99
488.39	17778.71
488.57	18031.49
488.75	18249.16
488.92	18436.40
489.10	18787.48
489.28	18553.43
489.46	19087.07
489.64	18911.53
489.81	19711.99
489.99	19115.16
490.17	19484.96
490.35	19407.72
490.53	19412.40
490.70	19587.94
490.88	19779.87
491.06	20088.82
491.24	20112.22
491.41	19896.89
491.59	19927.32
491.77	20184.78
491.95	20252.66
492.13	20444.58
492.30	20933.75
492.48	20601.40
492.66	20975.88
492.84	21088.23
493.01	21137.38
493.19	21202.91
493.37	21495.48
493.54	21441.65
493.72	21500.16
493.90	21544.63
494.08	21881.67
494.25	22333.39
494.43	22157.85
494.61	22539.36
494.79	22625.96
494.96	22450.42
495.14	22380.20
495.32	22857.67
495.49	22876.40
495.67	22843.63
495.85	23159.60
496.02	23285.99
496.20	23396.00
496.38	23253.22
496.55	23655.79
496.73	24018.58
496.91	23803.25
497.09	23962.40
497.26	24009.22
497.44	24126.24
497.62	24444.56
497.79	24339.23
497.97	24339.23
498.14	24364.98
498.32	24926.71
498.50	24547.54
498.67	25483.75
498.85	25097.56
499.03	25025.01
499.20	25130.33
499.38	25317.57
499.56	25617.16
499.73	25619.50
499.91	25663.97
500.08	25963.56
500.26	25434.60
500.44	26134.42
500.61	26031.44
500.79	25874.62
500.97	26038.46
501.14	26298.26
501.32	26331.03
501.49	26426.99
501.67	26087.61
501.84	26515.93
502.02	26422.31
502.20	26799.13
502.37	27014.46
502.55	26937.23
502.72	26941.91
502.90	27096.38
503.07	27164.26
503.25	27356.18
503.43	27257.88
503.60	27531.72
503.78	27243.84
503.95	27536.40
504.13	27225.11
504.30	27585.55
504.48	27625.34
504.65	27880.46
504.83	28168.35
505.01	28531.13
505.18	28067.70
505.36	27990.47
505.53	28486.66
505.71	28510.07
505.88	28744.12
506.06	28498.36
506.23	28790.93
506.41	28627.09
506.58	28692.63
506.76	28919.66
506.93	28877.53
507.11	29043.71
507.28	29029.66
507.46	28987.53
507.63	29209.89
507.81	29322.23
507.98	29076.48
508.16	29666.29
508.33	29474.37
508.50	29668.63
508.68	29596.07
508.85	30349.73
509.03	30073.54
509.20	29926.09
509.38	30438.67
509.55	30256.11
509.73	30155.46
509.90	30408.24
510.08	30394.20
510.25	30361.43
510.42	30314.62
510.60	30780.39
510.77	30543.99
510.95	31077.63
511.12	30682.08
511.30	31138.49
511.47	31278.92
511.64	31136.15
511.82	31012.10
511.99	31082.31
512.17	31388.92
512.34	31229.77
512.51	31517.65
512.69	31665.11
512.86	31487.23
513.04	32205.77
513.21	31924.91
513.38	31997.46
513.56	32063.00
513.73	32137.90
513.90	32093.43
514.08	32301.73
514.25	32173.00
514.43	32690.26
514.60	32165.98
514.77	32135.56
514.95	32868.14
515.12	32982.83
515.29	32875.16
515.47	32856.44
515.64	33523.49
515.81	32755.80
515.99	32851.76
516.16	33081.13
516.33	33031.98
516.51	32900.91
516.68	32364.93
516.85	32264.28
517.03	32882.19
517.20	33254.33
517.37	32835.38
517.54	33663.93
517.72	33474.34
517.89	33305.82
518.06	33626.48
518.24	33862.87
518.41	33479.02
518.58	33591.37
518.75	33701.37
518.93	34462.05
519.10	33797.34
519.27	33905.00
519.45	33965.85
519.62	34232.68
519.79	34497.16
519.96	34494.82
520.14	34506.52
520.31	34101.61
520.48	34609.50
520.65	34927.81
520.83	34801.43
521.00	34998.03
521.17	35105.70
521.34	34843.56
521.52	35288.26
521.69	35477.84
521.86	35098.67
522.03	35218.04
522.20	35014.41
522.38	35461.46
522.55	36135.53
522.72	35166.55
522.89	35433.37
523.07	35913.18
523.24	35737.64
523.41	35985.74
523.58	35419.33
523.75	36495.97
523.92	36041.91
524.10	35997.44
524.27	36332.14
524.44	36430.44
524.61	36257.24
524.78	36608.32
524.96	36603.64
525.13	36505.34
525.30	36797.90
525.47	36587.25
525.64	36505.34
525.81	37256.65
525.98	36662.15
526.16	36533.42
526.33	36851.73
526.50	36933.65
526.67	36879.82
526.84	36486.61
527.01	36687.90
527.18	36748.75
527.36	37017.91
527.53	37654.54
527.70	37806.67
527.87	37528.15
528.04	37706.03
528.21	37638.15
528.38	37607.73
528.55	37727.10
528.72	37567.94
528.89	37350.27
529.07	37909.66
529.24	37881.57
529.41	37919.02
529.58	37603.05
529.75	37780.93
529.92	37738.80
530.09	37904.98
530.26	37951.79
530.43	38478.41
530.60	37780.93
530.77	38284.14
530.94	38485.43
531.11	38323.93
531.28	38328.61
531.46	38951.20
531.63	38948.85
531.80	38658.63
531.97	38581.39
532.14	38483.09
532.31	38047.75
532.48	38913.75
532.65	39168.87
532.82	38314.57
532.99	38841.19
533.16	38555.64
533.33	38850.55
533.50	38724.16
533.67	39222.70
533.84	38920.77
534.01	39290.57
534.18	39096.31
534.35	39709.53
534.52	39292.91
534.69	39414.62
534.86	39620.59
535.03	39363.13
535.20	39856.98
535.37	40133.17
535.54	39625.27
535.71	39445.05
535.88	39915.50
536.05	39442.71
536.22	39318.66
536.38	40156.57
536.55	39716.55
536.72	39784.43
536.89	39370.15
537.06	40065.29
537.23	40350.84
537.40	40011.46
537.57	39814.85
537.74	40233.81
537.91	40147.21
538.08	40587.23
538.25	40034.86
538.42	40465.52
538.59	40872.78
538.75	40367.22
538.92	40811.92
539.09	40081.67
539.26	40570.85
539.43	40605.95
539.60	40355.52
539.77	40666.81
539.94	40512.33
540.11	40786.18
540.28	40669.15
540.44	40694.89
540.61	40847.03
540.78	40641.06
540.95	40818.94
541.12	40650.42
541.29	40933.63
541.46	41041.29
541.62	40957.03
541.79	41364.29
541.96	40989.80
542.13	41118.53
542.30	41130.23
542.47	41179.39
542.63	41345.56
542.80	41511.74
542.97	42061.77
543.14	41717.71
543.31	41813.67
543.48	41902.61
543.64	42333.27
543.81	42190.50
543.98	41876.86
544.15	41839.42
544.32	42342.63
544.48	42103.90
544.65	42412.85
544.82	42251.35
544.99	42024.32
545.16	42115.60
545.32	41909.63
545.49	42183.48
545.66	42050.06
545.83	42204.54
546.00	42452.64
546.16	42260.71
546.33	42429.23
546.50	42078.15
546.67	42211.56
546.83	42052.41
547.00	42642.22
547.17	42373.06
547.34	42527.53
547.50	42712.44
547.67	43089.26
547.84	42799.04
548.00	42583.71
548.17	43274.16
548.34	42806.06
548.51	43175.86
548.67	43021.39
548.84	43140.75
549.01	43096.28
549.18	42831.80
549.34	43208.63
549.51	43536.30
549.68	43227.35
549.84	43456.73
550.01	43730.57
550.18	43222.67
550.34	43180.54
550.51	43196.93
550.68	43323.32
550.84	42890.32
551.01	42651.58
551.18	43239.06
551.34	43278.85
551.51	43522.26
551.68	43683.76
551.84	43487.15
552.01	43475.45
552.18	43423.96
552.34	43203.95
552.51	43889.73
552.68	43302.25
552.84	43866.32
553.01	43564.39
553.18	43655.67
553.34	43377.15
553.51	43636.95
553.67	43402.89
553.84	44287.62
554.01	43910.79
554.17	43819.51
554.34	44266.55
554.51	44226.76
554.67	44378.90
554.84	44130.80
555.00	43962.28
555.17	44154.21
555.33	44690.19
555.50	43875.68
555.67	44247.83
555.83	44254.85
556.00	44055.90
556.16	44411.67
556.33	44416.35
556.50	44018.46
556.66	44374.22
556.83	43906.11
556.99	44524.01
557.16	44535.71
557.32	44594.23
557.49	44570.82
557.65	44062.93
557.82	44254.85
557.98	44336.77
558.15	44177.61
558.32	44634.02
558.48	44500.61
558.65	44421.03
558.81	44217.40
558.98	44704.23
559.14	44556.78
559.31	43981.01
559.47	44816.58
559.64	44725.30
559.80	44545.08
559.97	44839.98
560.13	44907.86
560.30	44315.70
560.46	44818.92
560.63	45057.65
560.79	44477.20
560.96	44814.24
561.12	45109.14
561.29	45059.99
561.45	44708.91
561.61	45113.83
561.78	45158.30
561.94	44500.61
562.11	44900.84
562.27	44828.28
562.44	44278.25
562.60	44741.68
562.77	44945.31
562.93	44968.71
563.10	45364.26
563.26	44921.90
563.42	45120.85
563.59	44584.86
563.75	44921.90
563.92	44900.84
564.08	44690.19
564.24	44753.38
564.41	45551.51
564.57	45104.46
564.74	45207.45
564.90	45343.20
565.07	45514.06
565.23	45041.27
565.39	44952.33
565.56	45368.94
565.72	45289.37
565.88	45015.52
566.05	45097.44
566.21	45069.36
566.38	45265.96
566.54	45429.80
566.70	45249.58
566.87	45385.33
567.03	45144.25
567.19	45605.34
567.36	45251.92
567.52	45242.56
567.68	45460.23
567.85	45069.36
568.01	45111.49
568.17	45265.96
568.34	45104.46
568.50	45008.50
568.66	45446.18
568.83	44919.56
568.99	44903.18
569.15	45399.37
569.32	45450.86
569.48	44961.69
569.64	45785.56
569.81	45083.40
569.97	45556.19
570.13	45256.60
570.30	45195.74
570.46	45195.74
570.62	45221.49
570.78	45095.10
570.95	44938.29
571.11	45265.96
571.27	45434.48
571.43	45539.80
571.60	45649.81
571.76	45179.36
571.92	45148.93
572.09	45469.59
572.25	45427.46
572.41	45406.39
572.57	45762.15
572.74	45909.61
572.90	45631.08
573.06	45483.63
573.22	45586.61
573.38	45560.87
573.55	45579.59
573.71	45998.55
573.87	45558.53
574.03	45471.93
574.20	45687.26
574.36	45474.27
574.52	45453.20
574.68	45406.39
574.84	45352.56
575.01	45504.70
575.17	45794.92
575.33	45406.39
575.49	45481.29
575.65	45862.80
575.82	45652.15
575.98	45736.41
576.14	46045.36
576.30	45858.12
576.46	45261.28
576.62	45303.41
576.79	45303.41
576.95	45570.23
577.11	45574.91
577.27	45745.77
577.43	46031.32
577.59	45113.83
577.75	45312.77
577.92	45525.76
578.08	45558.53
578.24	45572.57
578.40	45764.49
578.56	45301.07
578.72	45984.51
578.88	46071.10
579.04	45937.69
579.21	45368.94
579.37	45680.24
579.53	45621.72
579.69	45469.59
579.85	46099.19
580.01	45813.65
580.17	45998.55
580.33	45825.35
580.49	45757.47
580.65	45893.22
580.82	46026.63
580.98	45804.28
581.14	45216.81
581.30	46108.55
581.46	45610.02
581.62	46047.70
581.78	45783.22
581.94	46244.30
582.10	45680.24
582.26	45677.90
582.42	45834.71
582.58	45862.80
582.74	45808.96
582.90	45366.60
583.06	45841.73
583.22	45808.96
583.38	46148.34
583.54	45904.93
583.70	45425.12
583.86	45626.40
584.02	45759.81
584.18	45914.29
584.34	45670.87
584.50	45708.32
584.66	45649.81
584.82	45684.92
584.98	45869.82
585.14	45343.20
585.30	45691.94
585.46	45628.74
585.62	45876.84
585.78	46073.45
585.94	45113.83
586.10	46005.57
586.26	45689.60
586.42	45762.15
586.58	45911.95
586.74	45617.04
586.90	45471.93
587.06	45244.90
587.22	46038.34
587.38	45638.11
587.54	45783.22
587.70	45556.19
587.86	46005.57
588.02	45944.72
588.18	46178.77
588.34	45748.11
588.49	45387.67
588.65	45357.24
588.81	45469.59
588.97	45890.88
589.13	45525.76
589.29	45834.71
589.45	45731.73
589.61	45682.58
589.77	46099.19
589.93	46064.08
590.08	46087.49
590.24	45895.56
590.40	45797.26
590.56	46237.28
590.72	45823.01
590.88	45572.57
591.04	46356.65
591.20	46337.93
591.35	46012.59
591.51	46422.19
591.67	45954.08
591.83	46153.02
591.99	45516.40
592.15	45436.82
592.31	46096.85
592.46	46061.74
592.62	46080.47
592.78	46138.98
592.94	46213.88
593.10	46288.77
593.26	46005.57
593.41	45883.86
593.57	46014.93
593.73	45933.01
593.89	46047.70
594.05	45766.84
594.20	46202.18
594.36	46263.03
594.52	46043.02
594.68	45485.97
594.84	45911.95
594.99	45827.69
595.15	45944.72
595.31	45968.12
595.47	46466.66
595.62	46291.12
595.78	46232.60
595.94	46244.30
596.10	46274.73
596.25	46394.10
596.41	46129.62
596.57	46134.30
596.73	46302.82
596.88	46103.87
597.04	46162.39
597.20	46099.19
597.36	46026.63
597.51	46536.87
597.67	46417.50
597.83	46167.07
597.99	46440.91
598.14	46230.26
598.30	46536.87
598.46	45745.77
598.61	46253.67
598.77	46167.07
598.93	46223.24
599.09	46377.72
599.24	46913.70
599.40	46564.96
599.56	46644.54
599.71	46459.63
599.87	46412.82
600.03	46712.41
600.18	46326.22
600.34	46391.76
600.50	46178.77
600.65	46050.04
600.81	46443.25
600.97	46096.85
601.12	46527.51
601.28	46630.49
601.44	46155.36
601.59	46143.66
601.75	45717.68
601.91	46082.81
602.06	45961.10
602.22	45827.69
602.37	45930.67
602.53	46117.92
602.69	46581.34
602.84	45998.55
603.00	45916.63
603.16	46546.23
603.31	45713.00
603.47	45881.52
603.62	45741.09
603.78	46068.76
603.94	46082.81
604.09	46548.57
604.25	46019.61
604.40	45783.22
604.56	45982.16
604.71	46232.60
604.87	45808.96
605.03	46246.65
605.18	46195.15
605.34	46213.88
605.49	45778.54
605.65	46061.74
605.80	46181.11
605.96	46092.17
606.12	46054.72
606.27	46403.46
606.43	46028.98
606.58	45972.80
606.74	45900.25
606.89	45741.09
607.05	45916.63
607.20	45776.20
607.36	46047.70
607.51	45806.62
607.67	45478.95
607.82	45771.52
607.98	45588.95
608.13	46026.63
608.29	45773.86
608.44	45244.90
608.60	45434.48
608.75	45588.95
608.91	45272.98
609.06	45558.53
609.22	45963.44
609.37	45455.54
609.53	45476.61
609.68	45691.94
609.84	45572.57
609.99	45900.25
610.15	45738.75
610.30	45455.54
610.46	45490.65
610.61	45436.82
610.76	45610.02
610.92	45478.95
611.07	45659.17
611.23	45640.45
611.38	45500.01
611.54	45092.76
611.69	45153.62
611.84	45048.29
612.00	45265.96
612.15	45099.78
612.31	45549.17
612.46	45930.67
612.62	45158.30
612.77	45226.17
612.92	45717.68
613.08	45464.91
613.23	45106.80
613.39	45237.87
613.54	44989.78
613.69	44875.09
613.85	45228.51
614.00	45310.43
614.15	44973.39
614.31	45256.60
614.46	45324.47
614.62	45097.44
614.77	45357.24
614.92	45214.47
615.08	45373.63
615.23	44446.77
615.38	45132.55
615.54	44414.01
615.69	44486.56
615.84	44346.13
616.00	44882.11
616.15	44854.03
616.30	45240.21
616.46	44172.93
616.61	44535.71
616.76	44669.12
616.92	44605.93
617.07	44488.90
617.22	44481.88
617.37	43772.70
617.53	44715.93
617.68	44144.84
617.83	44739.34
617.99	45207.45
618.14	44980.42
618.29	44542.74
618.45	44603.59
618.60	44491.24
618.75	44648.06
618.90	44729.98
619.06	44416.35
619.21	44718.28
619.36	44208.04
619.51	44025.48
619.67	44161.23
619.82	44353.15
619.97	44226.76
620.12	44186.97
620.28	44023.14
620.43	44133.14
620.58	44194.00
620.73	44039.52
620.89	43800.79
621.04	44055.90
621.19	44589.55
621.34	43966.96
621.49	43985.69
621.65	44020.80
621.80	44177.61
621.95	43831.21
622.10	44027.82
622.25	43316.29
622.41	43473.11
622.56	43763.34
622.71	43770.36
622.86	43992.71
623.01	44275.91
623.16	43260.12
623.32	43409.92
623.47	44086.33
623.62	43817.17
623.77	43503.54
623.92	43854.62
624.07	43625.25
624.23	43838.23
624.38	43023.73
624.53	43297.57
624.68	43257.78
624.83	43824.19
624.98	43377.15
625.13	43620.56
625.29	43503.54
625.44	43557.37
625.59	43178.20
625.74	43180.54
625.89	42815.42
626.04	42902.02
626.19	43271.82
626.34	43538.65
626.49	43545.67
626.65	43037.77
626.80	42775.63
626.95	42756.91
627.10	43021.39
627.25	42930.11
627.40	42955.85
627.55	42433.91
627.70	42115.60
627.85	41874.52
628.00	42220.92
628.15	42925.42
628.30	42160.07
628.45	42979.26
628.60	42653.92
628.76	43206.29
628.91	42897.34
629.06	42789.67
629.21	42827.12
629.36	42251.35
629.51	42323.91
629.66	42525.19
629.81	42246.67
629.96	42623.50
630.11	42344.97
630.26	42080.49
630.41	42899.68
630.56	42632.86
630.71	42674.99
630.86	42754.57
631.01	42206.88
631.16	42239.65
631.31	41998.57
631.46	41839.42
631.61	41963.46
631.76	42518.17
631.91	42419.87
632.06	42117.94
632.21	42101.56
632.36	42321.57
632.51	41717.71
632.66	42162.41
632.81	41874.52
632.96	41930.70
633.10	42012.62
633.25	42169.43
633.40	42036.02
633.55	41991.55
633.70	42286.46
633.85	41750.48
634.00	41841.76
634.15	41724.73
634.30	41502.38
634.45	41839.42
634.60	41254.28
634.75	41649.83
634.90	41387.69
635.05	41670.90
635.19	41401.74
635.34	41516.42
635.49	41895.59
635.64	41287.05
635.79	41326.84
635.94	41071.72
636.09	41242.58
636.24	41223.86
636.39	41067.04
636.53	41038.95
636.68	40730.00
636.83	40978.10
636.98	40870.43
637.13	41418.12
637.28	41591.32
637.43	41614.72
637.57	41764.52
637.72	41170.02
637.87	41151.30
638.02	41411.10
638.17	41273.01
638.32	41029.59
638.46	40261.90
638.61	41067.04
638.76	40526.38
638.91	40353.18
639.06	40832.99
639.20	41289.39
639.35	41195.77
639.50	40903.20
639.65	40643.40
639.80	41205.13
639.94	40898.52
640.09	40942.99
640.24	40500.63
640.39	40538.08
640.54	40399.99
640.68	40608.29
640.83	40603.61
640.98	40964.06
641.13	40603.61
641.27	40942.99
641.42	40666.81
641.57	40423.39
641.72	40786.18
641.86	39889.75
642.01	39889.75
642.16	40343.81
642.31	39803.15
642.45	39770.38
642.60	40240.83
642.75	40360.20
642.90	40231.47
643.04	40039.54
643.19	40144.87
643.34	40098.06
643.48	40210.40
643.63	39714.21
643.78	39931.88
643.93	40121.46
644.07	39983.37
644.22	40404.67
644.37	39826.56
644.51	39763.36
644.66	39814.85
644.81	39789.11
644.95	39723.57
645.10	40044.23
645.25	40051.25
645.39	39746.98
645.54	39917.84
645.69	39100.99
645.83	39222.70
645.98	39704.85
646.13	39587.82
646.27	39782.09
646.42	39393.56
646.57	39629.95
646.71	39592.50
646.86	39761.02
647.00	39129.08
647.15	39442.71
647.30	39782.09
647.44	39274.19
647.59	39288.23
647.74	39302.28
647.88	39189.93
648.03	39641.65
648.17	39257.81
648.32	38623.52
648.47	38906.73
648.61	38740.55
648.76	39372.49
648.90	39173.55
649.05	39531.65
649.20	39288.23
649.34	39379.51
649.49	38925.45
649.63	39082.27
649.78	39218.02
649.92	38836.51
650.07	39536.33
650.21	38923.11
650.36	39182.91
650.51	39185.25
650.65	39028.43
650.80	39187.59
650.94	39077.58
651.09	38951.20
651.23	38520.54
651.38	38410.53
651.52	38227.97
651.67	38307.55
651.81	38857.57
651.96	38096.90
652.10	38820.13
652.25	38279.46
652.39	38780.34
652.54	38705.44
652.68	38576.71
652.83	38838.85
652.97	38476.07
653.12	38581.39
653.26	38646.93
653.41	38752.25
653.55	38099.24
653.70	38410.53
653.84	38305.21
653.99	38756.93
654.13	38801.40
654.27	38178.82
654.42	38197.54
654.56	38106.26
654.71	37792.63
654.85	38176.48
655.00	38146.05
655.14	38132.01
655.29	37940.08
655.43	37816.04
655.57	37479.00
655.72	37317.50
655.86	37462.61
656.01	37305.80
656.15	37429.85
656.30	37453.25
656.44	37432.19
656.58	37008.55
656.73	37387.72
656.87	37493.04
657.01	37467.30
657.16	37696.67
657.30	37345.59
657.45	37376.01
657.59	37207.50
657.73	36996.85
657.88	36907.91
658.02	37933.06
658.16	37865.19
658.31	37354.95
658.45	37539.85
658.60	37453.25
658.74	37600.71
658.88	37387.72
659.03	37017.91
659.17	36917.27
659.31	36931.31
659.46	36865.78
659.60	36746.41
659.74	36762.79
659.89	36580.23
660.03	36547.47
660.17	36964.08
660.32	36634.06
660.46	36753.43
660.60	36554.49
660.74	36800.24
660.89	36659.81
661.03	36168.30
661.17	36657.47
661.32	36250.22
661.46	36240.86
661.60	36030.21
661.74	36596.62
661.89	36222.13
662.03	36926.63
662.17	36280.64
662.31	35990.42
662.46	36624.70
662.60	36257.24
662.74	36378.95
662.88	36095.74
663.03	36051.27
663.17	35679.13
663.31	35948.29
663.45	35730.62
663.60	35395.92
663.74	35826.58
663.88	35590.19
664.02	35480.18
664.17	35264.85
664.31	35475.50
664.45	35459.12
664.59	35449.75
664.73	35281.24
664.88	35215.70
665.02	35241.45
665.16	34920.79
665.30	35051.86
665.44	35072.93
665.59	34848.24
665.73	34998.03
665.87	34810.79
666.01	34714.83
666.15	34590.78
666.29	34775.68
666.44	34838.87
666.58	34464.39
666.72	34600.14
666.86	35173.57
667.00	35269.53
667.14	34567.37
667.28	34426.94
667.43	33963.51
667.57	34623.54
667.71	34665.67
667.85	34408.22
667.99	34232.68
668.13	33975.22
668.27	34555.67
668.41	33984.58
668.56	33745.84
668.70	34216.29
668.84	34398.85
668.98	33846.49
669.12	33853.51
669.26	33837.12
669.40	34249.06
669.54	33359.66
669.68	33909.68
669.82	34073.52
669.96	33539.88
670.10	33071.77
670.25	33291.78
670.39	33462.64
670.53	33762.23
670.67	33425.19
670.81	33448.60
670.95	32989.85
671.09	33298.80
671.23	33163.05
671.37	32943.04
671.51	32807.29
671.65	32488.98
671.79	32189.39
671.93	32652.81
672.07	32793.25
672.21	32835.38
672.35	32009.17
672.49	32713.67
672.63	32486.64
672.77	32381.31
672.91	32268.97
673.05	32257.26
673.19	31988.10
673.33	32374.29
673.47	31913.20
673.61	31850.01
673.75	31784.48
673.89	31716.60
674.03	31536.38
674.17	31419.35
674.31	31180.62
674.45	31398.29
674.59	31522.34
674.73	31388.92
674.87	31342.11
675.01	31211.04
675.15	31426.37
675.29	31400.63
675.43	31433.39
675.56	31234.45
675.70	31049.55
675.84	30618.89
675.98	30017.37
676.12	30485.48
676.26	30490.16
676.40	30300.58
676.54	30031.41
676.68	30333.34
676.82	29624.16
676.96	29881.62
677.10	29813.74
677.23	29532.88
677.37	30263.13
677.51	29764.59
677.65	29993.97
677.79	29546.92
677.93	29729.48
678.07	29331.59
678.21	29186.48
678.34	29291.80
678.48	29013.28
678.62	29111.58
678.76	28650.50
678.90	28826.04
679.04	29013.28
679.18	28821.36
679.31	28280.69
679.45	28245.58
679.59	28194.09
679.73	28084.09
679.87	28130.90
680.00	27878.12
680.14	28109.83
680.28	27541.08
680.42	28018.55
680.56	27903.87
680.70	27765.78
680.83	27733.01
680.97	27679.18
681.11	27398.31
681.25	27564.49
681.39	27040.21
681.52	27468.53
681.66	27199.37
681.80	26761.69
681.94	26930.20
682.07	27229.79
682.21	27070.64
682.35	27040.21
682.49	27026.17
682.62	26881.05
682.76	26532.31
682.90	26139.10
683.04	26424.65
683.17	26497.20
683.31	26197.62
683.45	26068.89
683.59	26045.48
683.72	25762.28
683.86	25418.22
684.00	25680.36
684.13	25921.43
684.27	25654.61
684.41	25408.86
684.55	25022.67
684.68	25340.98
684.82	25387.79
684.96	25275.45
685.09	25076.50
685.23	24606.05
685.37	24868.19
685.50	24678.61
685.64	24783.93
685.78	24669.25
685.91	24772.23
686.05	24580.31
686.19	24283.06
686.32	24238.59
686.46	24201.14
686.60	23814.95
686.73	23814.95
686.87	23889.85
687.01	23576.22
687.14	23367.91
687.28	23236.84
687.42	23410.04
687.55	23281.31
687.69	23192.37
687.82	23185.35
687.96	22967.68
688.10	22822.56
688.23	23239.18
688.37	22560.42
688.50	22412.97
688.64	22670.43
688.78	22614.26
688.91	22324.03
689.05	22361.48
689.18	22139.13
689.32	22087.64
689.46	22401.27
689.59	22342.75
689.73	22232.75
689.86	22118.06
690.00	21898.05
690.13	22031.46
690.27	21818.47
690.41	21961.25
690.54	21429.94
690.68	21570.38
690.81	21376.11
690.95	21228.66
691.08	21261.43
691.22	21142.06
691.35	21128.02
691.49	21483.78
691.62	21254.40
691.76	21036.74
691.89	20896.30
692.03	20439.90
692.16	20477.35
692.30	20439.90
692.43	20484.37
692.57	20386.07
692.70	20423.51
692.84	20255.00
692.97	20105.20
693.11	20306.49
693.24	19997.54
693.38	20255.00
693.51	19875.83
693.65	19744.76
693.78	19665.18
693.92	19765.82
694.05	19756.46
694.19	19271.97
694.32	19644.12
694.45	19501.34
694.59	19229.84
694.72	19442.83
694.86	19278.99
694.99	19201.76
695.13	19225.16
695.26	18995.79
695.39	18738.33
695.53	18867.06
695.66	18719.60
695.80	18672.79
695.93	18036.17
696.07	18506.62
696.20	18345.12
696.33	18029.15
696.47	18192.98
696.60	18064.25
696.73	17949.57
696.87	17781.05
697.00	17799.77
697.14	17802.11
697.27	17694.45
697.40	17717.86
697.54	17549.34
697.67	17359.75
697.80	17565.72
697.94	17460.40
698.07	17348.05
698.21	17254.43
698.34	17551.68
698.47	17060.16
698.61	16929.09
698.74	16823.77
698.87	17055.48
699.01	17041.44
699.14	16414.18
699.27	16458.65
699.40	16414.18
699.54	16334.60
699.67	16313.53
699.80	16315.87
699.94	16334.60
700.07	16446.94
700.20	16130.97
700.34	16004.58
700.47	16042.03
700.60	16339.28
700.73	16107.57
700.87	16191.83
701.00	15712.02
701.13	15632.44
701.26	15562.22
701.40	15623.08
701.53	15353.91
701.66	15396.04
701.79	15063.69
701.93	15461.58
702.06	15227.53
702.19	14988.79
702.32	14949.00
702.46	14829.63
702.59	14827.29
702.72	14923.26
702.85	14750.06
702.99	14785.16
703.12	14895.17
703.25	14759.42
703.38	14583.88
703.51	14518.34
703.65	14450.47
703.78	14288.97
703.91	14487.92
704.04	14544.09
704.17	14317.06
704.31	14209.39
704.44	14054.92
704.57	13888.74
704.70	13909.80
704.83	13495.53
704.96	13867.67
705.10	13774.05
705.23	13816.18
>>>>>End Processed Spectral Data<<<<<
