SpectraSuite Data File
++++++++++++++++++++++++++++++++++++
Date: Fri Oct 25 11:33:35 EDT 2013
User: price-jones
Dark Spectrum Present: No
Reference Spectrum Present: No
Number of Sampled Component Spectra: 1
Spectrometers: USB2+H05261
Integration Time (usec): 100000 (USB2+H05261)
Spectra Averaged: 1 (USB2+H05261)
Boxcar Smoothing: 0 (USB2+H05261)
Correct for Electrical Dark: No (USB2+H05261)
Strobe/Lamp Enabled: No (USB2+H05261)
Correct for Detector Non-linearity: No (USB2+H05261)
Correct for Stray Light: No (USB2+H05261)
Number of Pixels in Processed Spectrum: 2048
>>>>>Begin Processed Spectral Data<<<<<
365.73	264.48
365.92	264.48
366.12	264.48
366.32	173.20
366.52	210.65
366.72	175.54
366.91	187.24
367.11	203.63
367.31	210.65
367.51	163.84
367.70	229.37
367.90	163.84
368.10	156.82
368.30	182.56
368.49	210.65
368.69	245.76
368.89	182.56
369.09	168.52
369.28	243.42
369.48	182.56
369.68	196.60
369.87	262.14
370.07	283.20
370.27	315.97
370.47	290.23
370.66	505.56
370.86	535.98
371.06	582.79
371.25	566.41
371.45	486.83
371.65	606.20
371.84	526.62
372.04	564.07
372.24	650.67
372.44	622.58
372.63	538.32
372.83	585.13
373.03	573.43
373.22	613.22
373.42	592.16
373.62	638.97
373.81	615.56
374.01	613.22
374.21	706.84
374.40	645.99
374.60	610.88
374.79	622.58
374.99	706.84
375.19	638.97
375.38	655.35
375.58	716.20
375.78	690.46
375.97	695.14
376.17	678.76
376.37	755.99
376.56	671.73
376.76	603.86
376.95	667.05
377.15	690.46
377.35	683.44
377.54	613.22
377.74	713.86
377.93	716.20
378.13	648.33
378.33	650.67
378.52	706.84
378.72	695.14
378.91	786.42
379.11	716.20
379.31	653.01
379.50	643.65
379.70	772.38
379.89	765.36
380.09	718.54
380.28	727.91
380.48	772.38
380.68	718.54
380.87	702.16
381.07	730.25
381.26	753.65
381.46	795.78
381.65	863.66
381.85	706.84
382.04	695.14
382.24	716.20
382.43	744.29
382.63	755.99
382.83	732.59
383.02	800.46
383.22	828.55
383.41	723.23
383.61	720.88
383.80	905.79
384.00	823.87
384.19	767.70
384.39	847.27
384.58	805.14
384.78	830.89
384.97	793.44
385.17	744.29
385.36	823.87
385.56	835.57
385.75	833.23
385.95	791.10
386.14	882.38
386.34	851.96
386.53	856.64
386.72	863.66
386.92	887.06
387.11	791.10
387.31	926.85
387.50	924.51
387.70	901.11
387.89	933.87
388.09	837.91
388.28	908.13
388.48	950.26
388.67	936.21
388.86	884.72
389.06	891.74
389.25	978.34
389.45	940.90
389.64	936.21
389.84	936.21
390.03	947.92
390.22	980.68
390.42	966.64
390.61	1015.79
390.81	968.98
391.00	961.96
391.19	968.98
391.39	1020.47
391.58	1006.43
391.78	976.00
391.97	1088.35
392.16	952.60
392.36	1041.54
392.55	1086.01
392.75	1043.88
392.94	1097.71
393.13	1151.54
393.33	959.62
393.52	1086.01
393.71	1095.37
393.91	1153.88
394.10	1029.84
394.29	1060.26
394.49	1102.39
394.68	1137.50
394.88	1198.35
395.07	1107.07
395.26	1181.97
395.46	1153.88
395.65	1137.50
395.84	1266.23
396.04	1212.40
396.23	1149.20
396.42	1217.08
396.62	1179.63
396.81	1259.21
397.00	1137.50
397.19	1282.61
397.39	1235.80
397.58	1275.59
397.77	1184.31
397.97	1270.91
398.16	1299.00
398.35	1313.04
398.55	1245.16
398.74	1238.14
398.93	1406.66
399.12	1341.13
399.32	1280.27
399.51	1301.34
399.70	1345.81
399.90	1315.38
400.09	1320.06
400.28	1420.71
400.47	1355.17
400.67	1448.79
400.86	1413.68
401.05	1437.09
401.24	1451.13
401.44	1416.02
401.63	1401.98
401.82	1427.73
402.01	1481.56
402.21	1394.96
402.40	1535.39
402.59	1544.75
402.78	1453.47
402.97	1509.65
403.17	1561.14
403.36	1519.01
403.55	1572.84
403.74	1591.56
403.93	1537.73
404.13	1523.69
404.32	1561.14
404.51	1633.69
404.70	1771.79
404.89	1701.57
405.09	1661.78
405.28	1666.46
405.47	1657.10
405.66	1827.96
405.85	1717.95
406.05	1764.76
406.24	1837.32
406.43	1750.72
406.62	1774.13
406.81	1954.35
407.00	1837.32
407.20	1809.23
407.39	1743.70
407.58	1837.32
407.77	1825.62
407.96	1870.09
408.15	1856.04
408.34	1790.51
408.54	1895.83
408.73	1881.79
408.92	1919.24
409.11	1912.22
409.30	1991.80
409.49	2047.97
409.68	1987.11
409.87	2031.58
410.07	2076.06
410.26	2031.58
410.45	2073.71
410.64	2111.16
410.83	2111.16
411.02	2087.76
411.21	2125.21
411.40	2146.27
411.59	2235.21
411.78	2200.10
411.98	2239.89
412.17	2282.02
412.36	2284.36
412.55	2382.67
412.74	2401.39
412.93	2324.15
413.12	2338.20
413.31	2448.20
413.50	2293.72
413.69	2429.48
413.88	2509.05
414.07	2518.42
414.26	2483.31
414.45	2527.78
414.64	2497.35
414.83	2597.99
415.02	2623.74
415.22	2616.72
415.41	2703.32
415.60	2724.38
415.79	2619.06
415.98	2759.49
416.17	2719.70
416.36	2883.54
416.55	2794.60
416.74	2754.81
416.93	2710.34
417.12	2818.00
417.31	2855.45
417.50	2913.97
417.69	3021.63
417.88	2937.37
418.07	2841.41
418.26	2841.41
418.45	2953.76
418.64	3119.93
418.83	2949.08
419.02	2960.78
419.21	3030.99
419.39	3045.04
419.58	3014.61
419.77	3206.53
419.96	3255.69
420.15	3187.81
420.34	3218.24
420.53	3342.28
420.72	3229.94
420.91	3295.47
421.10	3253.34
421.29	3316.54
421.48	3269.73
421.67	3365.69
421.86	3206.53
422.05	3377.39
422.24	3342.28
422.43	3274.41
422.61	3344.63
422.80	3311.86
422.99	3368.03
423.18	3445.27
423.37	3400.80
423.56	3463.99
423.75	3478.04
423.94	3386.76
424.13	3222.92
424.32	3440.59
424.50	3508.46
424.69	3604.42
424.88	3616.13
425.07	3424.20
425.26	3344.63
425.45	3323.56
425.64	3309.52
425.83	3410.16
426.01	3384.41
426.20	3527.19
426.39	3513.14
426.58	3520.17
426.77	3489.74
426.96	3445.27
427.15	3627.83
427.33	3552.93
427.52	3480.38
427.71	3777.62
427.90	3623.15
428.09	3564.64
428.28	3702.73
428.46	3632.51
428.65	3660.60
428.84	3974.23
429.03	3810.39
429.22	3627.83
429.40	3817.41
429.59	3686.34
429.78	3735.50
429.97	3611.45
430.16	3672.30
430.34	3845.50
430.53	3847.84
430.72	3777.62
430.91	3918.06
431.10	3864.22
431.28	3995.29
431.47	3990.61
431.66	4025.72
431.85	3995.29
432.03	4234.03
432.22	4264.46
432.41	3985.93
432.60	4032.74
432.79	4079.55
432.97	4107.64
433.16	4292.54
433.35	4168.49
433.54	4358.08
433.72	4304.25
433.91	4269.14
434.10	4287.86
434.28	4168.49
434.47	4339.35
434.66	4304.25
434.85	4395.53
435.03	4442.34
435.22	4236.37
435.41	4447.02
435.59	4451.70
435.78	4367.44
435.97	4482.13
436.16	4500.85
436.34	4423.61
436.53	4353.40
436.72	4465.74
436.90	4533.62
437.09	4505.53
437.28	4442.34
437.46	4402.55
437.65	4444.68
437.84	4667.03
438.02	4601.49
438.21	4638.94
438.40	4484.47
438.58	4533.62
438.77	4795.76
438.96	4634.26
439.14	4896.40
439.33	4744.27
439.52	4812.14
439.70	4980.66
439.89	4910.44
440.08	4957.25
440.26	5008.75
440.45	4983.00
440.63	5121.09
440.82	5210.03
441.01	5254.50
441.19	5200.67
441.38	5231.10
441.57	5200.67
441.75	5277.91
441.94	5420.68
442.12	5453.45
442.31	5359.83
442.50	5380.89
442.68	5411.32
442.87	5582.18
443.05	5476.85
443.24	5528.35
443.43	5453.45
443.61	5731.97
443.80	5720.27
443.98	5453.45
444.17	5301.31
444.35	5488.56
444.54	5659.42
444.73	5638.35
444.91	5582.18
445.10	5481.53
445.28	5565.79
445.47	5661.76
445.65	5633.67
445.84	5741.33
446.02	5860.70
446.21	5717.93
446.39	5575.16
446.58	5891.13
446.77	5738.99
446.95	5586.86
447.14	5673.46
447.32	5888.79
447.51	5816.23
447.69	5657.07
447.88	5717.93
448.06	5870.06
448.25	5643.03
448.43	5846.66
448.62	5858.36
448.80	5823.25
448.99	5769.42
449.17	5923.90
449.36	5846.66
449.54	5930.92
449.73	6099.44
449.91	6153.27
450.10	6092.41
450.28	6134.54
450.46	6132.20
450.65	6200.08
450.83	6160.29
451.02	6167.31
451.20	6197.74
451.39	6015.18
451.57	6211.78
451.76	6104.12
451.94	6174.33
452.13	6450.52
452.31	6298.38
452.49	6235.19
452.68	6314.77
452.86	6324.13
453.05	6272.64
453.23	6513.71
453.42	6380.30
453.60	6319.45
453.78	6548.82
453.97	6361.58
454.15	6392.00
454.34	6356.90
454.52	6558.18
454.70	6586.27
454.89	6579.25
455.07	6576.91
455.26	6455.20
455.44	6689.25
455.62	6712.66
455.81	6612.01
455.99	6661.16
456.17	6885.86
456.36	6658.82
456.54	6848.41
456.73	6871.81
456.91	6944.37
457.09	6899.90
457.28	7068.42
457.46	6960.75
457.64	7157.36
457.83	7042.67
458.01	6977.14
458.19	7314.17
458.38	7089.48
458.56	7265.02
458.74	7021.61
458.93	7220.55
459.11	7169.06
459.29	7295.45
459.48	7258.00
459.66	7206.51
459.84	7426.52
460.03	7513.12
460.21	7372.69
460.39	7438.22
460.57	7515.46
460.76	7548.23
460.94	7517.80
461.12	7403.11
461.31	7597.38
461.49	7377.37
461.67	7466.31
461.85	7602.06
462.04	7716.75
462.22	7997.61
462.40	7730.79
462.59	7667.60
462.77	7716.75
462.95	7765.90
463.13	7861.86
463.32	7716.75
463.50	7786.96
463.68	7779.94
463.86	8011.65
464.05	7641.85
464.23	7882.92
464.41	7978.89
464.59	7831.43
464.78	8058.46
464.96	7999.95
465.14	7901.65
465.32	7812.71
465.50	8257.41
465.69	8238.69
465.87	8187.19
466.05	7960.16
466.23	8210.60
466.41	7962.50
466.60	8397.84
466.78	8131.02
466.96	8184.85
467.14	8124.00
467.32	8540.61
467.51	8446.99
467.69	8234.00
467.87	8327.63
468.05	8365.07
468.23	8313.58
468.41	8379.12
468.60	8559.34
468.78	8428.27
468.96	8428.27
469.14	8535.93
469.32	8802.75
469.50	8468.06
469.69	8828.50
469.87	8798.07
470.05	8657.64
470.23	8720.84
470.41	8891.70
470.59	8905.74
470.77	8765.31
470.95	8905.74
471.14	8940.85
471.32	8891.70
471.50	9001.70
471.68	9022.77
471.86	9062.55
472.04	9170.22
472.22	9233.41
472.40	9144.47
472.58	9268.52
472.77	9369.16
472.95	9411.29
473.13	9699.18
473.31	9493.21
473.49	9495.55
473.67	9376.19
473.85	9778.76
474.03	9654.71
474.21	9717.90
474.39	9760.03
474.57	9757.69
474.75	9753.01
474.93	10200.05
475.12	9956.64
475.30	9989.41
475.48	9909.83
475.66	10073.67
475.84	10094.73
476.02	10188.35
476.20	10366.23
476.38	10377.94
476.56	10593.26
476.74	10689.23
476.92	10633.05
477.10	10579.22
477.28	10490.28
477.46	10827.32
477.64	10813.28
477.82	10855.40
478.00	11133.93
478.18	11206.48
478.36	11349.26
478.54	11477.99
478.72	11279.04
478.90	11382.03
479.08	11775.24
479.26	11810.34
479.44	11845.45
479.62	11974.18
479.80	11920.35
479.98	11934.39
480.16	12374.41
480.34	12273.77
480.52	12531.23
480.70	12217.60
480.88	12336.96
481.06	12418.88
481.24	12650.60
481.41	12802.73
481.59	12716.13
481.77	13029.76
481.95	12746.56
482.13	13074.23
482.31	13027.42
482.49	13429.99
482.67	13373.82
482.85	13614.90
483.03	13516.59
483.21	13586.81
483.39	13736.60
483.57	13729.58
483.74	13802.14
483.92	13912.14
484.10	13877.04
484.28	14265.57
484.46	14654.09
484.64	14649.41
484.82	14377.91
485.00	14576.86
485.18	15068.37
485.35	15152.63
485.53	14888.15
485.71	15180.71
485.89	15515.41
486.07	15419.45
486.25	15492.01
486.43	15557.54
486.61	15726.06
486.78	16049.05
486.96	15763.51
487.14	16056.08
487.32	16383.75
487.50	16198.85
487.68	16414.18
487.85	16552.27
488.03	16805.05
488.21	17186.55
488.39	16833.13
488.57	16952.50
488.75	17022.72
488.92	17366.78
489.10	17827.86
489.28	17539.97
489.46	17703.81
489.64	17855.95
489.81	18342.78
489.99	18230.43
490.17	18487.89
490.35	18504.28
490.53	18401.29
490.70	18670.45
490.88	18822.59
491.06	18654.07
491.24	18808.54
491.41	18995.79
491.59	19506.02
491.77	19183.03
491.95	19276.65
492.13	19482.62
492.30	19686.25
492.48	19711.99
492.66	19903.92
492.84	19941.36
493.01	20212.87
493.19	19990.52
493.37	20435.22
493.54	20233.93
493.72	20699.70
493.90	20767.57
494.08	20669.27
494.25	21006.31
494.43	20863.54
494.61	21088.23
494.79	21149.08
494.96	21376.11
495.14	21511.86
495.32	21603.14
495.49	21855.92
495.67	21816.13
495.85	22022.10
496.02	22148.49
496.20	22579.15
496.38	22672.77
496.55	22696.17
496.73	22654.05
496.91	22560.42
497.09	22745.33
497.26	22871.72
497.44	23000.44
497.62	23084.70
497.79	23185.35
497.97	23082.36
498.14	23388.97
498.32	23983.47
498.50	23864.10
498.67	24093.47
498.85	23520.04
499.03	23889.85
499.20	24086.45
499.38	24245.61
499.56	24252.63
499.73	24416.47
499.91	24336.89
500.08	24779.25
500.26	24615.41
500.44	24716.06
500.61	24655.20
500.79	24727.76
500.97	24734.78
501.14	25563.33
501.32	25275.45
501.49	25228.63
501.67	25130.33
501.84	25603.12
502.02	25469.71
502.20	25687.38
502.37	25811.43
502.55	25631.21
502.72	26148.46
502.90	26155.49
503.07	26181.23
503.25	26160.17
503.43	26066.55
503.60	26108.68
503.78	26618.91
503.95	26391.88
504.13	26644.66
504.30	26632.96
504.48	27058.93
504.65	26958.29
504.83	27044.89
505.01	27253.20
505.18	27236.81
505.36	27498.95
505.53	27323.41
505.71	27065.96
505.88	27541.08
506.06	27363.20
506.23	27908.55
506.41	27349.16
506.58	27592.58
506.76	27754.07
506.93	28290.06
507.11	27967.06
507.28	28058.34
507.46	28280.69
507.63	28416.44
507.81	28634.11
507.98	28905.62
508.16	28320.48
508.33	28594.32
508.50	28713.69
508.68	29050.73
508.85	28741.78
509.03	28746.46
509.20	29205.20
509.38	29336.27
509.55	29376.06
509.73	29563.31
509.90	29607.78
510.08	29406.49
510.25	29340.96
510.42	29734.17
510.60	29713.10
510.77	29788.00
510.95	30050.14
511.12	29855.87
511.30	29762.25
511.47	30242.06
511.64	30415.26
511.82	30590.80
511.99	30251.42
512.17	30810.81
512.34	30277.17
512.51	31115.08
512.69	30976.99
512.86	30998.06
513.04	30869.33
513.21	30981.67
513.38	31040.18
513.56	31482.55
513.73	30895.07
513.90	30981.67
514.08	31276.58
514.25	31669.79
514.43	32055.98
514.60	31630.00
514.77	31311.69
514.95	31868.73
515.12	31630.00
515.29	31630.00
515.47	31868.73
515.64	31878.10
515.81	31667.45
515.99	32095.77
516.16	32552.17
516.33	32224.50
516.51	32446.85
516.68	32095.77
516.85	32196.41
517.03	32334.50
517.20	32493.66
517.37	32797.93
517.54	32694.94
517.72	33046.02
517.89	33165.39
518.06	33015.60
518.24	32655.15
518.41	33226.24
518.58	33228.59
518.75	32945.38
518.93	33305.82
519.10	33362.00
519.27	33497.75
519.45	33240.29
519.62	33982.24
519.79	33872.23
519.96	33762.23
520.14	34258.42
520.31	33890.96
520.48	33947.13
520.65	33977.56
520.83	34569.71
521.00	34291.19
521.17	34668.02
521.34	34396.51
521.52	34354.38
521.69	34621.20
521.86	34944.20
522.03	34888.03
522.20	35519.97
522.38	34869.30
522.55	34831.85
522.72	34892.71
522.89	35264.85
523.07	35541.03
523.24	35351.45
523.41	35084.63
523.58	35054.20
523.75	35454.44
523.92	35243.79
524.10	35435.71
524.27	35913.18
524.44	35903.82
524.61	36006.80
524.78	35154.85
524.96	35931.90
525.13	36367.24
525.30	36093.40
525.47	35936.59
525.64	36048.93
525.81	36292.35
525.98	36109.78
526.16	36414.05
526.33	36105.10
526.50	36292.35
526.67	35990.42
526.84	36570.87
527.01	36767.48
527.18	36739.39
527.36	36535.76
527.53	37254.31
527.70	37406.44
527.87	37479.00
528.04	36790.88
528.21	37113.87
528.38	37191.11
528.55	37474.32
528.72	37652.20
528.89	37359.63
529.07	37418.14
529.24	37132.60
529.41	37553.90
529.58	37549.21
529.75	37532.83
529.92	37703.69
530.09	37345.59
530.26	37965.83
530.43	38284.14
530.60	37427.51
530.77	38059.45
530.94	37935.40
531.11	37846.46
531.28	37687.31
531.46	37816.04
531.63	37874.55
531.80	38249.03
531.97	38562.67
532.14	38487.77
532.31	38263.08
532.48	38450.32
532.65	38721.82
532.82	38761.61
532.99	38787.36
533.16	38394.15
533.33	38866.94
533.50	38611.82
533.67	38721.82
533.84	38237.33
534.01	38714.80
534.18	38979.28
534.35	39309.30
534.52	39159.50
534.69	39526.97
534.86	39566.76
535.03	39321.00
535.20	39201.63
535.37	39548.03
535.54	39480.16
535.71	39299.94
535.88	39903.79
536.05	39416.96
536.22	39442.71
536.38	39611.23
536.55	39587.82
536.72	40362.54
536.89	39552.71
537.06	40091.04
537.23	39969.33
537.40	39711.87
537.57	39746.98
537.74	39985.71
537.91	39803.15
538.08	39854.64
538.25	39861.66
538.42	40336.79
538.59	40823.62
538.75	40439.78
538.92	40505.31
539.09	40381.26
539.26	40364.88
539.43	40219.77
539.60	40776.81
539.77	40392.97
539.94	40533.40
540.11	40669.15
540.28	40931.29
540.44	40568.51
540.61	40608.29
540.78	40975.76
540.95	40996.82
541.12	40921.93
541.29	40882.14
541.46	40788.52
541.62	41144.28
541.79	41092.79
541.96	40926.61
542.13	41184.07
542.30	41273.01
542.47	41067.04
542.63	41673.24
542.80	41722.39
542.97	42157.73
543.14	41965.81
543.31	41675.58
543.48	41813.67
543.64	42567.32
543.81	41801.97
543.98	42183.48
544.15	42103.90
544.32	42153.05
544.48	42398.80
544.65	42080.49
544.82	42457.32
544.99	42206.88
545.16	42363.70
545.32	42096.88
545.49	42749.88
545.66	42763.93
545.83	42600.09
546.00	42476.04
546.16	42703.07
546.33	42679.67
546.50	42181.13
546.67	42742.86
546.83	42050.06
547.00	42574.34
547.17	42492.43
547.34	42831.80
547.50	43304.59
547.67	43241.40
547.84	43571.41
548.00	43178.20
548.17	43531.62
548.34	43173.52
548.51	43503.54
548.67	43363.11
548.84	43552.69
549.01	43007.34
549.18	43318.64
549.34	43625.25
549.51	43800.79
549.68	43550.35
549.84	43407.58
550.01	43643.97
550.18	43433.32
550.34	43386.51
550.51	43519.92
550.68	43917.81
550.84	43220.33
551.01	44287.62
551.18	43775.04
551.34	43976.33
551.51	44023.14
551.68	43810.15
551.84	44109.74
552.01	43515.24
552.18	43981.01
552.34	44172.93
552.51	44189.31
552.68	43540.99
552.84	43988.03
553.01	44257.19
553.18	43981.01
553.34	44657.42
553.51	43901.43
553.67	44105.06
553.84	44954.67
554.01	44598.91
554.17	44680.83
554.34	44357.83
554.51	44765.09
554.67	44774.45
554.84	44390.60
555.00	44748.70
555.17	44535.71
555.33	44804.88
555.50	44545.08
555.67	44751.04
555.83	44524.01
556.00	44739.34
556.16	45439.16
556.33	44863.39
556.50	44856.37
556.66	44624.65
556.83	44807.22
556.99	45130.21
557.16	45074.04
557.32	45275.32
557.49	45158.30
557.65	45373.63
557.82	45397.03
557.98	45413.41
558.15	45294.05
558.32	45284.68
558.48	45205.11
558.65	45532.78
558.81	45188.72
558.98	45205.11
559.14	45095.10
559.31	45167.66
559.47	45158.30
559.64	45514.06
559.80	45076.38
559.97	45467.25
560.13	45289.37
560.30	45846.41
560.46	45933.01
560.63	45766.84
560.79	45251.92
560.96	45539.80
561.12	46103.87
561.29	45940.04
561.45	45654.49
561.61	45614.70
561.78	45626.40
561.94	45450.86
562.11	45668.53
562.27	45888.54
562.44	45993.87
562.60	45965.78
562.77	46080.47
562.93	45668.53
563.10	45958.76
563.26	45745.77
563.42	46017.27
563.59	46080.47
563.75	45951.74
563.92	46071.10
564.08	45965.78
564.24	46045.36
564.41	45834.71
564.57	46363.67
564.74	46305.16
564.90	46174.09
565.07	45801.94
565.23	46333.24
565.39	46398.78
565.56	46466.66
565.72	46115.58
565.88	46403.46
566.05	45914.29
566.21	46057.06
566.38	46120.26
566.54	46485.38
566.70	46361.33
566.87	46674.96
567.03	46321.54
567.19	46604.75
567.36	46312.18
567.52	46237.28
567.68	46445.59
567.85	46586.02
568.01	46728.80
568.17	46469.00
568.34	46511.13
568.50	46574.32
568.66	46457.29
568.83	46492.40
568.99	46246.65
569.15	46777.95
569.32	46892.63
569.48	46244.30
569.64	46595.38
569.81	46855.18
569.97	46855.18
570.13	46820.08
570.30	46408.14
570.46	47395.85
570.62	46960.51
570.78	46513.47
570.95	46674.96
571.11	46834.12
571.27	46742.84
571.43	46532.19
571.60	46752.20
571.76	46829.44
571.92	46667.94
572.09	46955.83
572.25	46745.18
572.41	46543.89
572.57	46611.77
572.74	46583.68
572.90	47119.66
573.06	47047.11
573.22	46787.31
573.38	46660.92
573.55	46944.12
573.71	46972.21
573.87	46887.95
574.03	47028.38
574.20	47189.88
574.36	46567.30
574.52	46906.68
574.68	47194.56
574.84	46923.06
575.01	47498.83
575.17	47028.38
575.33	47194.56
575.49	46927.74
575.65	47243.71
575.82	46738.16
575.98	46972.21
576.14	47468.40
576.30	47796.08
576.46	47309.25
576.62	46873.91
576.79	46885.61
576.95	46887.95
577.11	47054.13
577.27	46988.60
577.43	46761.56
577.59	46646.88
577.75	46824.76
577.92	46775.61
578.08	46934.76
578.24	47337.33
578.40	47346.70
578.56	47164.14
578.72	47152.43
578.88	47173.50
579.04	47517.56
579.21	47026.04
579.37	47445.00
579.53	47470.75
579.69	47129.03
579.85	47042.43
580.01	47295.21
580.17	47126.69
580.33	47414.57
580.49	47274.14
580.65	47042.43
580.82	47164.14
580.98	47189.88
581.14	47262.44
581.30	47147.75
581.46	47372.44
581.62	47133.71
581.78	47421.59
581.94	47114.98
582.10	47267.12
582.26	47370.10
582.42	47395.85
582.58	47332.65
582.74	47040.09
582.90	47356.06
583.06	47370.10
583.22	47000.30
583.38	47445.00
583.54	47400.53
583.70	47313.93
583.86	47496.49
584.02	47217.97
584.18	47601.82
584.34	47562.03
584.50	47667.35
584.66	47763.31
584.82	47398.19
584.98	48062.90
585.14	47267.12
585.30	47327.97
585.46	47086.90
585.62	47463.72
585.78	47526.92
585.94	46923.06
586.10	47657.99
586.26	47171.16
586.42	47178.18
586.58	47653.31
586.74	47725.86
586.90	47267.12
587.06	47264.78
587.22	47604.16
587.38	47327.97
587.54	47833.53
587.70	47505.85
587.86	47878.00
588.02	47608.84
588.18	47388.83
588.34	47709.48
588.49	47695.44
588.65	47290.52
588.81	47585.43
588.97	47650.97
589.13	47208.61
589.29	47629.90
589.45	47709.48
589.61	48044.18
589.77	47927.15
589.93	47660.33
590.08	47880.34
590.24	47379.46
590.40	47901.40
590.56	47632.24
590.72	47697.78
590.88	47988.00
591.04	47732.89
591.20	48100.35
591.35	47562.03
591.51	48421.00
591.67	48130.78
591.83	47980.98
591.99	47753.95
592.15	47952.90
592.31	47742.25
592.46	47732.89
592.62	48083.97
592.78	47557.35
592.94	48374.19
593.10	48577.82
593.26	48086.31
593.41	48259.51
593.57	48273.55
593.73	47807.78
593.89	48495.90
594.05	48243.12
594.20	47969.28
594.36	48481.86
594.52	48037.16
594.68	48224.40
594.84	47751.61
594.99	48451.43
595.15	47863.96
595.31	48273.55
595.47	48069.92
595.62	47922.47
595.78	48037.16
595.94	48278.23
596.10	48133.12
596.25	48292.27
596.41	48423.34
596.57	48046.52
596.73	48587.18
596.88	48065.24
597.04	48360.15
597.20	48289.93
597.36	48339.08
597.51	48222.06
597.67	48046.52
597.83	48016.09
597.99	48273.55
598.14	48200.99
598.30	48465.47
598.46	48498.24
598.61	48318.02
598.77	48296.95
598.93	48357.81
599.09	48198.65
599.24	48643.35
599.40	48044.18
599.56	48362.49
599.71	48311.00
599.87	48479.52
600.03	48357.81
600.18	48229.08
600.34	48704.21
600.50	48491.22
600.65	48643.35
600.81	48701.87
600.97	48442.07
601.12	48549.73
601.28	48030.13
601.44	48622.29
601.59	48083.97
601.75	48610.59
601.91	48617.61
602.06	48203.33
602.22	48280.57
602.37	48156.52
602.53	48666.76
602.69	48729.95
602.84	48325.04
603.00	48278.23
603.16	48685.48
603.31	48575.48
603.47	48355.47
603.62	48535.69
603.78	48322.70
603.94	48062.90
604.09	48390.58
604.25	48442.07
604.40	48371.85
604.56	48058.22
604.71	48753.36
604.87	48456.11
605.03	48559.09
605.18	48156.52
605.34	48413.98
605.49	48280.57
605.65	48652.72
605.80	47828.85
605.96	47622.88
606.12	48133.12
606.27	48708.89
606.43	48383.55
606.58	48154.18
606.74	48453.77
606.89	48013.75
607.05	48289.93
607.20	48332.06
607.36	48112.05
607.51	47980.98
607.67	48193.97
607.82	48350.79
607.98	47920.13
608.13	48266.53
608.29	48013.75
608.44	48252.48
608.60	47805.44
608.75	48051.20
608.91	48526.33
609.06	47952.90
609.22	48280.57
609.37	48222.06
609.53	48154.18
609.68	47927.15
609.84	47906.08
609.99	48088.65
610.15	48271.21
610.30	48013.75
610.46	47824.17
610.61	48027.79
610.76	47838.21
610.92	48186.95
611.07	47873.32
611.23	47430.96
611.38	48147.16
611.54	48140.14
611.69	48545.05
611.84	47828.85
612.00	47936.51
612.15	47601.82
612.31	47536.28
612.46	47770.33
612.62	47920.13
612.77	47861.61
612.92	47950.56
613.08	47779.70
613.23	48168.22
613.39	47758.63
613.54	47557.35
613.69	47901.40
613.85	47931.83
614.00	47873.32
614.15	48095.67
614.31	47863.96
614.46	47650.97
614.62	47501.17
614.77	47859.27
614.92	47721.18
615.08	47639.26
615.23	47384.15
615.38	47929.49
615.54	47461.38
615.69	47772.67
615.84	47421.59
616.00	47547.98
616.15	47461.38
616.30	47206.26
616.46	47618.20
616.61	47562.03
616.76	47894.38
616.92	47330.31
617.07	47445.00
617.22	47203.92
617.37	47203.92
617.53	47297.55
617.68	47323.29
617.83	47334.99
617.99	47512.88
618.14	47728.20
618.29	47140.73
618.45	47208.61
618.60	46934.76
618.75	46784.97
618.90	47136.05
619.06	47332.65
619.21	47065.83
619.36	47611.18
619.51	46906.68
619.67	47023.70
619.82	47033.07
619.97	47519.90
620.12	46827.10
620.28	46717.09
620.43	47557.35
620.58	47199.24
620.73	46869.23
620.89	47276.48
621.04	47344.36
621.19	46920.72
621.34	46653.90
621.49	46614.11
621.65	46948.81
621.80	47430.96
621.95	47161.79
622.10	46883.27
622.25	46955.83
622.41	46862.21
622.56	46824.76
622.71	46693.69
622.86	46775.61
623.01	46644.54
623.16	46808.37
623.32	46328.56
623.47	46726.46
623.62	46038.34
623.77	46653.90
623.92	46684.33
624.07	46218.56
624.23	47028.38
624.38	46855.18
624.53	46520.49
624.68	46078.13
624.83	46366.01
624.98	46279.41
625.13	46410.48
625.29	45963.44
625.44	46401.12
625.59	46225.58
625.74	46454.95
625.89	46073.45
626.04	46270.05
626.19	46419.84
626.34	46134.30
626.49	45893.22
626.65	45823.01
626.80	46190.47
626.95	45888.54
627.10	45635.77
627.25	46064.08
627.40	46075.79
627.55	45993.87
627.70	46134.30
627.85	45989.19
628.00	45640.45
628.15	45762.15
628.30	45446.18
628.45	45663.85
628.60	45338.52
628.76	45815.99
628.91	45769.18
629.06	45160.64
629.21	45041.27
629.36	45790.24
629.51	46206.86
629.66	45916.63
629.81	45308.09
629.96	45691.94
630.11	45326.81
630.26	45165.32
630.41	45935.35
630.56	45663.85
630.71	45418.10
630.86	45338.52
631.01	45125.53
631.16	45207.45
631.31	45331.50
631.46	45345.54
631.61	45769.18
631.76	45329.16
631.91	45500.01
632.06	45745.77
632.21	45626.40
632.36	45823.01
632.51	44968.71
632.66	45265.96
632.81	44980.42
632.96	45198.09
633.10	45200.43
633.25	45076.38
633.40	44968.71
633.55	45099.78
633.70	45261.28
633.85	44779.13
634.00	44985.10
634.15	45010.84
634.30	44935.95
634.45	44966.37
634.60	44828.28
634.75	44949.99
634.90	44957.01
635.05	45010.84
635.19	45132.55
635.34	44886.79
635.49	44610.61
635.64	44912.54
635.79	45069.36
635.94	45031.91
636.09	44779.13
636.24	44748.70
636.39	44863.39
636.53	44655.08
636.68	44325.07
636.83	44315.70
636.98	44268.89
637.13	44264.21
637.28	44184.63
637.43	44304.00
637.57	44367.20
637.72	44198.68
637.87	44364.85
638.02	44261.87
638.17	44048.88
638.32	44004.41
638.46	44130.80
638.61	43901.43
638.76	44285.28
638.91	44044.20
639.06	44009.09
639.20	44060.58
639.35	43791.42
639.50	43599.50
639.65	44041.86
639.80	44215.06
639.94	44156.55
640.09	44442.09
640.24	44018.46
640.39	43718.87
640.54	43629.93
640.68	43920.15
640.83	43676.74
640.98	43459.07
641.13	43552.69
641.27	43203.95
641.42	43950.58
641.57	43786.74
641.72	43683.76
641.86	43777.38
642.01	43295.23
642.16	43643.97
642.31	43086.92
642.45	43667.37
642.60	43349.06
642.75	43482.47
642.90	43751.63
643.04	43739.93
643.19	43618.22
643.34	43290.55
643.48	43168.84
643.63	43405.23
643.78	43426.30
643.93	43407.58
644.07	42890.32
644.22	43470.77
644.37	43175.86
644.51	43005.00
644.66	43138.41
644.81	43309.27
644.95	42937.13
645.10	43124.37
645.25	43019.05
645.39	42684.35
645.54	42841.17
645.69	42351.99
645.83	42621.16
645.98	42651.58
646.13	42600.09
646.27	42436.25
646.42	42454.98
646.57	43377.15
646.71	43217.99
646.86	43206.29
647.00	43063.52
647.15	42831.80
647.30	42452.64
647.44	42927.77
647.59	42405.83
647.74	42939.47
647.88	42834.14
648.03	42536.90
648.17	43143.09
648.32	42775.63
648.47	43044.79
648.61	42602.43
648.76	42305.18
648.90	42574.34
649.05	42766.27
649.20	42492.43
649.34	42370.72
649.49	42122.62
649.63	42642.22
649.78	42569.66
649.92	42653.92
650.07	42698.39
650.21	42534.56
650.36	42473.70
650.51	42265.39
650.65	42672.65
650.80	42969.90
650.94	42326.25
651.09	42150.71
651.23	42078.15
651.38	41975.17
651.52	41734.09
651.67	42263.05
651.81	41858.14
651.96	41963.46
652.10	41560.89
652.25	41649.83
652.39	42160.07
652.54	41713.03
652.68	41832.39
652.83	42115.60
652.97	42281.78
653.12	41715.37
653.26	41738.77
653.41	42136.66
653.55	41453.23
653.70	42110.92
653.84	42089.85
653.99	42131.98
654.13	41914.31
654.27	41345.56
654.42	41780.90
654.56	41581.96
654.71	41666.22
654.85	41511.74
655.00	41897.93
655.14	41244.92
655.29	41724.73
655.43	41769.20
655.57	41317.48
655.72	41085.76
655.86	41411.10
656.01	41368.97
656.15	41254.28
656.30	41324.50
656.44	41394.71
656.58	41394.71
656.73	41476.63
656.87	41273.01
657.01	40430.41
657.16	40996.82
657.30	40968.74
657.45	40694.89
657.59	41057.68
657.73	40732.34
657.88	40968.74
658.02	41144.28
658.16	41097.47
658.31	40964.06
658.45	41170.02
658.60	40591.91
658.74	40631.70
658.88	40945.33
659.03	40392.97
659.17	40383.60
659.31	40179.98
659.46	40596.59
659.60	40818.94
659.74	39786.77
659.89	39817.19
660.03	40229.13
660.17	40474.88
660.32	40095.72
660.46	40493.61
660.60	39840.60
660.74	39896.77
660.89	39878.05
661.03	39508.24
661.17	39709.53
661.32	39573.78
661.46	39765.70
661.60	39660.38
661.74	39833.58
661.89	39744.64
662.03	39381.85
662.17	39147.80
662.31	39356.11
662.46	39367.81
662.60	39407.60
662.74	38890.34
662.88	39302.28
663.03	38820.13
663.17	39264.83
663.31	38850.55
663.45	39232.06
663.60	39264.83
663.74	39009.71
663.88	39042.48
664.02	38850.55
664.17	39105.67
664.31	38646.93
664.45	38639.90
664.59	38527.56
664.73	39082.27
664.88	38799.06
665.02	38361.38
665.16	38719.48
665.30	38469.04
665.44	38522.88
665.59	38286.48
665.73	38443.30
665.87	37764.54
666.01	38319.25
666.15	38518.20
666.29	37846.46
666.44	38440.96
666.58	38178.82
666.72	37603.05
666.86	37560.92
667.00	37312.82
667.14	37806.67
667.28	37593.68
667.43	37560.92
667.57	38080.52
667.71	37663.90
667.85	37624.11
667.99	37727.10
668.13	36840.03
668.27	37031.96
668.41	37156.00
668.56	36772.16
668.70	36992.17
668.84	37125.58
668.98	36795.56
669.12	37106.85
669.26	36519.38
669.40	36589.59
669.54	37010.89
669.68	36987.49
669.82	37081.11
669.96	35941.27
670.10	36507.68
670.25	36149.57
670.39	36144.89
670.53	36318.09
670.67	36390.65
670.81	36622.36
670.95	35880.41
671.09	35990.42
671.23	35779.77
671.37	36098.08
671.51	36172.98
671.65	36165.96
671.79	36065.31
671.93	35887.43
672.07	35695.51
672.21	35449.75
672.35	35325.71
672.49	35409.96
672.63	35557.42
672.77	35009.73
672.91	35236.77
673.05	35449.75
673.19	34792.06
673.33	34651.63
673.47	34679.72
673.61	34672.70
673.75	34466.73
673.89	34462.05
674.03	34338.00
674.17	34532.26
674.31	34431.62
674.45	34115.65
674.59	34323.96
674.73	34326.30
674.87	33991.60
675.01	33551.58
675.15	33500.09
675.29	33558.60
675.43	33521.15
675.56	33699.03
675.70	33729.46
675.84	33324.55
675.98	32409.40
676.12	33429.87
676.26	33530.51
676.40	32645.79
676.54	32830.69
676.68	32858.78
676.82	32421.10
676.96	33081.13
677.10	32589.62
677.23	32423.44
677.37	32421.10
677.51	32519.40
677.65	31938.95
677.79	31896.82
677.93	31868.73
678.07	31824.26
678.21	31976.40
678.34	31964.70
678.48	31431.05
678.62	31473.18
678.76	30909.11
678.90	31360.84
679.04	31548.08
679.18	31264.88
679.31	30796.77
679.45	31360.84
679.59	30787.41
679.73	30635.27
679.87	30555.69
680.00	30539.31
680.14	30492.50
680.28	30518.25
680.42	30424.62
680.56	30424.62
680.70	29830.13
680.83	30080.56
680.97	29954.18
681.11	29703.74
681.25	29757.57
681.39	29696.72
681.52	29673.31
681.66	29326.91
681.80	28851.78
681.94	28959.45
682.07	28966.47
682.21	28889.23
682.35	28706.67
682.49	28877.53
682.62	28652.84
682.76	29048.39
682.90	28566.24
683.04	28517.09
683.17	28575.60
683.31	28313.46
683.45	27861.74
683.59	27999.83
683.72	27583.21
683.86	27623.00
684.00	27566.83
684.13	27875.78
684.27	27601.94
684.41	27356.18
684.55	27562.15
684.68	27658.11
684.82	27194.68
684.96	27201.71
685.09	26932.54
685.23	27089.36
685.37	27377.25
685.50	27335.12
685.64	26670.40
685.78	26614.23
685.91	26326.35
686.05	26504.23
686.19	25928.45
686.32	25846.54
686.46	25846.54
686.60	25762.28
686.73	25687.38
686.87	25729.51
687.01	25706.10
687.14	25738.87
687.28	25422.90
687.42	25600.78
687.55	25326.94
687.69	25422.90
687.82	24673.93
687.96	25050.75
688.10	24989.90
688.23	25123.31
688.37	25408.86
688.50	24926.71
688.64	24547.54
688.78	24367.32
688.91	24287.74
689.05	24821.38
689.18	24077.09
689.32	23707.29
689.46	23606.64
689.59	24027.94
689.73	24362.64
689.86	24149.65
690.00	23747.08
690.13	23733.03
690.27	23484.94
690.41	23325.78
690.54	23126.83
690.68	23449.83
690.81	22834.27
690.95	22951.29
691.08	22745.33
691.22	22742.99
691.35	22834.27
691.49	22911.50
691.62	22852.99
691.76	22387.22
691.89	22057.21
692.03	21923.80
692.16	22136.79
692.30	21905.07
692.43	22078.27
692.57	21432.29
692.70	21834.86
692.84	21439.31
692.97	21291.85
693.11	21493.14
693.24	21074.18
693.38	21303.56
693.51	20858.85
693.65	21319.94
693.78	20886.94
693.92	20706.72
694.05	20886.94
694.19	20718.42
694.32	20798.00
694.45	20900.98
694.59	20535.86
694.72	20814.38
694.86	20311.17
694.99	20187.12
695.13	19927.32
695.26	19906.26
695.39	19723.69
695.53	19749.44
695.66	20077.12
695.80	19594.96
695.93	19714.33
696.07	19264.95
696.20	19297.72
696.33	19073.03
696.47	19342.19
696.60	19094.09
696.73	19154.94
696.87	18831.95
697.00	18860.04
697.14	18831.95
697.27	18518.32
697.40	18607.26
697.54	18881.10
697.67	18515.98
697.80	18459.81
697.94	18267.88
698.07	18235.11
698.21	18253.84
698.34	18045.53
698.47	18008.08
698.61	17944.89
698.74	17687.43
698.87	17809.14
699.01	17481.46
699.14	17579.76
699.27	17343.37
699.40	17472.10
699.54	17249.75
699.67	17289.54
699.80	17069.53
699.94	16996.97
700.07	17191.23
700.20	16919.73
700.34	16833.13
700.47	17020.38
700.60	17322.30
700.73	16659.93
700.87	16725.47
701.00	16044.37
701.13	16430.56
701.26	15976.50
701.40	16086.50
701.53	15953.09
701.66	16105.23
701.79	15995.22
701.93	15634.78
702.06	15822.02
702.19	15723.72
702.32	15728.40
702.46	15695.63
702.59	15702.65
702.72	15393.70
702.85	15660.52
702.99	15295.40
703.12	15353.91
703.25	15089.43
703.38	14843.68
703.51	15030.92
703.65	14892.83
703.78	14387.27
703.91	14544.09
704.04	14527.71
704.17	14349.82
704.31	14672.82
704.44	14534.73
704.57	14317.06
704.70	14478.55
704.83	14251.52
704.96	14008.11
705.10	13991.72
705.23	13846.61
>>>>>End Processed Spectral Data<<<<<
