SpectraSuite Data File
++++++++++++++++++++++++++++++++++++
Date: Fri Oct 25 10:47:03 EDT 2013
User: price-jones
Dark Spectrum Present: No
Reference Spectrum Present: No
Number of Sampled Component Spectra: 1
Spectrometers: USB2+H05261
Integration Time (usec): 100000 (USB2+H05261)
Spectra Averaged: 1 (USB2+H05261)
Boxcar Smoothing: 0 (USB2+H05261)
Correct for Electrical Dark: No (USB2+H05261)
Strobe/Lamp Enabled: No (USB2+H05261)
Correct for Detector Non-linearity: No (USB2+H05261)
Correct for Stray Light: No (USB2+H05261)
Number of Pixels in Processed Spectrum: 2048
>>>>>Begin Processed Spectral Data<<<<<
365.73	128.73
365.92	128.73
366.12	128.73
366.32	56.17
366.52	0.00
366.72	32.77
366.91	79.58
367.11	60.85
367.31	105.32
367.51	11.70
367.70	0.00
367.90	28.09
368.10	21.06
368.30	88.94
368.49	28.09
368.69	98.30
368.89	93.62
369.09	60.85
369.28	44.47
369.48	25.75
369.68	49.15
369.87	105.32
370.07	114.69
370.27	170.86
370.47	215.33
370.66	330.02
370.86	409.59
371.06	475.13
371.25	526.62
371.45	400.23
371.65	440.02
371.84	430.66
372.04	425.98
372.24	435.34
372.44	521.94
372.63	526.62
372.83	510.24
373.03	489.17
373.22	507.90
373.42	514.92
373.62	491.51
373.81	533.64
374.01	545.34
374.21	510.24
374.40	543.00
374.60	514.92
374.79	475.13
374.99	599.18
375.19	543.00
375.38	669.39
375.58	491.51
375.78	622.58
375.97	585.13
376.17	606.20
376.37	535.98
376.56	524.28
376.76	561.73
376.95	545.34
377.15	573.43
377.35	622.58
377.54	627.26
377.74	610.88
377.93	606.20
378.13	568.75
378.33	629.60
378.52	636.63
378.72	723.23
378.91	648.33
379.11	573.43
379.31	528.96
379.50	580.45
379.70	664.71
379.89	664.71
380.09	685.78
380.28	685.78
380.48	653.01
380.68	706.84
380.87	664.71
381.07	697.48
381.26	702.16
381.46	699.82
381.65	589.82
381.85	624.92
382.04	657.69
382.24	650.67
382.43	746.63
382.63	709.18
382.83	713.86
383.02	725.57
383.22	786.42
383.41	746.63
383.61	748.97
383.80	767.70
384.00	791.10
384.19	683.44
384.39	760.67
384.58	779.40
384.78	826.21
384.97	826.21
385.17	805.14
385.36	828.55
385.56	779.40
385.75	720.88
385.95	774.72
386.14	758.33
386.34	795.78
386.53	833.23
386.72	699.82
386.92	800.46
387.11	835.57
387.31	861.32
387.50	875.36
387.70	847.27
387.89	901.11
388.09	826.21
388.28	826.21
388.48	957.28
388.67	910.47
388.86	866.00
389.06	889.40
389.25	936.21
389.45	922.17
389.64	917.49
389.84	868.34
390.03	980.68
390.22	931.53
390.42	961.96
390.61	931.53
390.81	943.24
391.00	980.68
391.19	1018.13
391.39	999.41
391.58	992.39
391.78	964.30
391.97	971.32
392.16	1015.79
392.36	966.64
392.55	973.66
392.75	994.73
392.94	910.47
393.13	1029.84
393.33	940.90
393.52	1004.09
393.71	1050.90
393.91	1067.28
394.10	1048.56
394.29	1116.44
394.49	1062.60
394.68	1125.80
394.88	1142.18
395.07	1048.56
395.26	1156.22
395.46	1172.61
395.65	1233.46
395.84	1158.57
396.04	1153.88
396.23	1048.56
396.42	1142.18
396.62	1081.33
396.81	1266.23
397.00	1256.87
397.19	1184.31
397.39	1270.91
397.58	1280.27
397.77	1282.61
397.97	1287.29
398.16	1282.61
398.35	1308.36
398.55	1266.23
398.74	1394.96
398.93	1385.60
399.12	1310.70
399.32	1277.93
399.51	1355.17
399.70	1497.94
399.90	1373.89
400.09	1516.67
400.28	1420.71
400.47	1441.77
400.67	1446.45
400.86	1547.09
401.05	1577.52
401.24	1502.62
401.44	1607.95
401.63	1500.28
401.82	1507.30
402.01	1540.07
402.21	1607.95
402.40	1556.46
402.59	1540.07
402.78	1643.06
402.97	1607.95
403.17	1554.12
403.36	1654.76
403.55	1624.33
403.74	1703.91
403.93	1654.76
404.13	1645.40
404.32	1687.53
404.51	1743.70
404.70	1816.26
404.89	1666.46
405.09	1816.26
405.28	1727.32
405.47	1743.70
405.66	1790.51
405.85	1860.73
406.05	1785.83
406.24	1851.36
406.43	1830.30
406.62	1872.43
406.81	1860.73
407.00	1813.92
407.20	1797.53
407.39	1919.24
407.58	1944.99
407.77	1930.94
407.96	1912.22
408.15	2043.29
408.34	2012.86
408.54	2085.42
408.73	2146.27
408.92	2073.71
409.11	2090.10
409.30	2078.40
409.49	2108.82
409.68	2066.69
409.87	2101.80
410.07	2223.51
410.26	2141.59
410.45	2211.81
410.64	2132.23
410.83	2209.47
411.02	2347.56
411.21	2338.20
411.40	2293.72
411.59	2331.17
411.78	2342.88
411.98	2349.90
412.17	2289.04
412.36	2392.03
412.55	2370.96
412.74	2478.63
412.93	2537.14
413.12	2434.16
413.31	2605.02
413.50	2504.37
413.69	2600.34
413.88	2581.61
414.07	2478.63
414.26	2719.70
414.45	2705.66
414.64	2745.45
414.83	2731.41
415.02	2841.41
415.22	2747.79
415.41	2766.51
415.60	2974.82
415.79	2937.37
415.98	2972.48
416.17	2993.55
416.36	2846.09
416.55	2935.03
416.74	2991.20
416.93	3005.25
417.12	2979.50
417.31	3054.40
417.50	3110.57
417.69	3026.31
417.88	3192.49
418.07	3073.12
418.26	3211.22
418.45	3150.36
418.64	3255.69
418.83	3131.64
419.02	3166.74
419.21	3260.37
419.39	3349.31
419.58	3152.70
419.77	3269.73
419.96	3258.03
420.15	3424.20
420.34	3187.81
420.53	3372.71
420.72	3431.23
420.91	3368.03
421.10	3485.06
421.29	3562.30
421.48	3478.04
421.67	3592.72
421.86	3449.95
422.05	3454.63
422.24	3552.93
422.43	3513.14
422.61	3508.46
422.80	3585.70
422.99	3552.93
423.18	3595.06
423.37	3684.00
423.56	3695.71
423.75	3559.95
423.94	3646.55
424.13	3456.97
424.32	3454.63
424.50	3569.32
424.69	3733.15
424.88	3688.68
425.07	3552.93
425.26	3389.10
425.45	3658.26
425.64	3609.11
425.83	3719.11
426.01	3695.71
426.20	3534.21
426.39	3705.07
426.58	3758.90
426.77	3726.13
426.96	3672.30
427.15	3630.17
427.33	3808.05
427.52	3817.41
427.71	3868.91
427.90	3768.26
428.09	3918.06
428.28	3768.26
428.46	3875.93
428.65	3777.62
428.84	3955.51
429.03	4063.17
429.22	3918.06
429.40	3934.44
429.59	3889.97
429.78	3627.83
429.97	3674.64
430.16	3812.73
430.34	3875.93
430.53	3953.16
430.72	4058.49
430.91	4014.02
431.10	4028.06
431.28	4095.94
431.47	4072.53
431.66	4264.46
431.85	4189.56
432.03	4173.18
432.22	4280.84
432.41	4163.81
432.60	4344.03
432.79	4257.43
432.97	4311.27
433.16	4402.55
433.35	4365.10
433.54	4344.03
433.72	4437.66
433.91	4449.36
434.10	4451.70
434.28	4458.72
434.47	4657.67
434.66	4454.04
434.85	4500.85
435.03	4674.05
435.22	4514.89
435.41	4798.10
435.59	4622.56
435.78	4524.26
435.97	4711.50
436.16	4681.07
436.34	4580.43
436.53	4718.52
436.72	4802.78
436.90	4645.96
437.09	4762.99
437.28	4709.16
437.46	4744.27
437.65	4739.58
437.84	4755.97
438.02	4648.30
438.21	4922.15
438.40	4755.97
438.58	4812.14
438.77	4940.87
438.96	4961.94
439.14	5032.15
439.33	5097.69
439.52	5170.24
439.70	5224.08
439.89	5233.44
440.08	5118.75
440.26	5191.31
440.45	5305.99
440.63	5310.68
440.82	5554.09
441.01	5437.06
441.19	5518.98
441.38	5502.60
441.57	5579.84
441.75	5577.50
441.94	5809.21
442.12	5717.93
442.31	5713.25
442.50	5671.12
442.68	5788.14
442.87	5860.70
443.05	5872.40
443.24	5991.77
443.43	5909.85
443.61	5870.06
443.80	6038.58
443.98	5837.30
444.17	5776.44
444.35	5893.47
444.54	6061.99
444.73	5940.28
444.91	5949.64
445.10	5935.60
445.28	6120.50
445.47	5881.77
445.65	5750.70
445.84	5961.34
446.02	6099.44
446.21	6139.23
446.39	5982.41
446.58	6071.35
446.77	6085.39
446.95	6010.50
447.14	6136.88
447.32	6136.88
447.51	6054.97
447.69	6171.99
447.88	6148.59
448.06	6258.59
448.25	6031.56
448.43	6305.40
448.62	6267.95
448.80	6279.66
448.99	6319.45
449.17	6249.23
449.36	6134.54
449.54	6179.01
449.73	6579.25
449.91	6527.75
450.10	6455.20
450.28	6490.31
450.46	6363.92
450.65	6530.09
450.83	6455.20
451.02	6574.56
451.20	6525.41
451.39	6530.09
451.57	6546.48
451.76	6516.05
451.94	6630.74
452.13	6637.76
452.31	6640.10
452.49	6450.52
452.68	6562.86
452.86	6691.59
453.05	6794.58
453.23	6771.17
453.42	6684.57
453.60	6888.20
453.78	6913.94
453.97	6670.53
454.15	6731.38
454.34	6780.53
454.52	6841.39
454.70	6761.81
454.89	7122.25
455.07	7122.25
455.26	7073.10
455.44	7061.40
455.62	7150.34
455.81	7225.23
455.99	7152.68
456.17	7353.96
456.36	7232.26
456.54	7124.59
456.73	7096.50
456.91	7543.55
457.09	7459.29
457.28	7515.46
457.46	7545.89
457.64	7564.61
457.83	7658.23
458.01	7508.44
458.19	7665.25
458.38	7447.58
458.56	7538.87
458.74	7618.44
458.93	7595.04
459.11	7702.70
459.29	7623.12
459.48	7676.96
459.66	7616.10
459.84	7854.84
460.03	7845.48
460.21	7775.26
460.39	7751.85
460.57	7644.19
460.76	7868.88
460.94	8009.31
461.12	7962.50
461.31	8100.59
461.49	8018.68
461.67	7990.59
461.85	8053.78
462.04	8006.97
462.22	8475.08
462.40	8315.92
462.59	8219.96
462.77	8163.79
462.95	8234.00
463.13	8070.17
463.32	8322.94
463.50	8266.77
463.68	8418.91
463.86	8329.97
464.05	8407.20
464.23	8217.62
464.41	8528.91
464.59	8224.64
464.78	8559.34
464.96	8355.71
465.14	8362.73
465.32	8510.19
465.50	8435.29
465.69	8610.83
465.87	8709.13
466.05	8507.85
466.23	8568.70
466.41	8484.44
466.60	8690.41
466.78	8489.12
466.96	8414.23
467.14	8702.11
467.32	8720.84
467.51	8856.59
467.69	8470.40
467.87	8795.73
468.05	8730.20
468.23	8697.43
468.41	8615.51
468.60	8837.86
468.78	8877.65
468.96	8709.13
469.14	8882.33
469.32	8936.17
469.50	8879.99
469.69	9029.79
469.87	8980.64
470.05	9060.21
470.23	8908.08
470.41	9032.13
470.59	9085.96
470.77	9029.79
470.95	9352.78
471.14	9411.29
471.32	9228.73
471.50	9387.89
471.68	9366.82
471.86	9488.53
472.04	9465.13
472.22	9626.62
472.40	9472.15
472.58	9621.94
472.77	9652.37
472.95	9743.65
473.13	10122.82
473.31	9614.92
473.49	9865.36
473.67	9919.19
473.85	9984.73
474.03	10033.88
474.21	10045.58
474.39	10347.51
474.57	10207.08
474.75	10291.34
474.93	10239.84
475.12	10352.19
475.30	10464.54
475.48	10300.70
475.66	10527.73
475.84	10703.27
476.02	10619.01
476.20	10480.92
476.38	10665.82
476.56	10934.98
476.74	11023.92
476.92	10860.09
477.10	10775.83
477.28	11218.19
477.46	11164.36
477.64	11438.20
477.82	11365.64
478.00	11559.91
478.18	11726.08
478.36	11421.81
478.54	11847.79
478.72	11779.92
478.90	11822.05
479.08	12044.40
479.26	12189.51
479.44	12362.71
479.62	12376.75
479.80	12294.83
479.98	12404.84
480.16	12886.99
480.34	12512.50
480.52	12695.07
480.70	12798.05
480.88	12805.07
481.06	12819.11
481.24	12947.84
481.41	13123.38
481.59	13284.88
481.77	13242.75
481.95	13401.91
482.13	13352.76
482.31	13322.33
482.49	13549.36
482.67	13858.31
482.85	13827.88
483.03	13935.55
483.21	13989.38
483.39	14258.54
483.57	14244.50
483.74	14778.14
483.92	14530.05
484.10	14436.42
484.28	14553.45
484.46	14951.34
484.64	15021.56
484.82	14719.63
485.00	15145.61
485.18	15405.41
485.35	15667.55
485.53	15281.36
485.71	15302.42
485.89	15276.68
486.07	15583.29
486.25	15599.67
486.43	15936.71
486.61	16109.91
486.78	16198.85
486.96	16086.50
487.14	16498.44
487.32	16723.13
487.50	16575.67
487.68	16791.00
487.85	17118.68
488.03	17249.75
488.21	17432.31
488.39	17422.95
488.57	17474.44
488.75	17504.87
488.92	17818.50
489.10	17947.23
489.28	18153.20
489.46	18331.08
489.64	18389.59
489.81	18911.53
489.99	18630.66
490.17	18445.76
490.35	19035.58
490.53	19098.77
490.70	19218.14
490.88	18925.57
491.06	19253.25
491.24	19438.15
491.41	19508.37
491.59	19597.31
491.77	19346.87
491.95	19662.84
492.13	19878.17
492.30	20517.14
492.48	20528.84
492.66	20519.48
492.84	20453.94
493.01	20563.95
493.19	20765.23
493.37	20732.47
493.54	20807.36
493.72	21223.98
493.90	21046.10
494.08	21109.29
494.25	21476.76
494.43	21783.37
494.61	21722.51
494.79	21804.43
494.96	21579.74
495.14	21935.50
495.32	22181.26
495.49	21979.97
495.67	22195.30
495.85	22160.19
496.02	22740.64
496.20	22782.77
496.38	22993.42
496.55	22904.48
496.73	23314.08
496.91	23248.54
497.09	23108.11
497.26	23316.42
497.44	23257.90
497.62	23506.00
497.79	23414.72
497.97	23496.64
498.14	23910.91
498.32	23892.19
498.50	23960.06
498.67	24301.78
498.85	24435.19
499.03	24943.09
499.20	24659.88
499.38	24819.04
499.56	24629.46
499.73	24915.00
499.91	24926.71
500.08	24903.30
500.26	24992.24
500.44	25392.47
500.61	25277.79
500.79	24952.45
500.97	25088.20
501.14	25628.87
501.32	25750.57
501.49	25523.54
501.67	25649.93
501.84	25773.98
502.02	25493.12
502.20	25956.54
502.37	25989.31
502.55	26309.96
502.72	26305.28
502.90	26405.92
503.07	26321.66
503.25	26492.52
503.43	26499.55
503.60	26869.35
503.78	26801.47
503.95	26529.97
504.13	26656.36
504.30	26848.29
504.48	27379.59
504.65	27110.43
504.83	27154.90
505.01	27569.17
505.18	27510.66
505.36	27498.95
505.53	27641.73
505.71	28006.85
505.88	27737.69
506.06	27482.57
506.23	27852.38
506.41	27971.74
506.58	27948.34
506.76	28116.86
506.93	28350.91
507.11	28292.40
507.28	28465.60
507.46	28524.11
507.63	27803.22
507.81	28706.67
507.98	28584.96
508.16	28755.82
508.33	28900.94
508.50	28919.66
508.68	28999.24
508.85	29308.19
509.03	29408.83
509.20	28975.83
509.38	29502.45
509.55	29233.29
509.73	29804.38
509.90	29874.60
510.08	29890.98
510.25	29570.33
510.42	30118.01
510.60	29600.76
510.77	30176.53
510.95	30064.18
511.12	29883.96
511.30	30249.08
511.47	30689.10
511.64	30820.17
511.82	30539.31
511.99	30391.86
512.17	30609.53
512.34	30541.65
512.51	30696.13
512.69	30916.14
512.86	30785.07
513.04	31302.32
513.21	30951.24
513.38	30918.48
513.56	31154.87
513.73	31274.24
513.90	31325.73
514.08	31309.35
514.25	31503.61
514.43	31314.03
514.60	31393.61
514.77	31662.77
514.95	31637.02
515.12	31594.89
515.29	31644.04
515.47	32226.84
515.64	32467.91
515.81	31913.20
515.99	32280.67
516.16	32481.95
516.33	31908.52
516.51	32708.99
516.68	31812.56
516.85	31660.43
517.03	32334.50
517.20	32465.57
517.37	32505.36
517.54	32943.04
517.72	32711.33
517.89	32627.07
518.06	32706.65
518.24	32673.88
518.41	32507.70
518.58	32762.82
518.75	32912.61
518.93	33024.96
519.10	33184.12
519.27	33165.39
519.45	33167.73
519.62	33638.18
519.79	33727.12
519.96	33530.51
520.14	34000.96
520.31	33813.72
520.48	33900.32
520.65	33823.08
520.83	34270.12
521.00	34281.83
521.17	34295.87
521.34	34213.95
521.52	34436.30
521.69	34354.38
521.86	34192.89
522.03	34389.49
522.20	34050.11
522.38	34649.29
522.55	34724.19
522.72	34735.89
522.89	34656.31
523.07	35309.32
523.24	34433.96
523.41	35159.53
523.58	34824.83
523.75	34895.05
523.92	35295.28
524.10	35559.76
524.27	35463.80
524.44	35274.21
524.61	35175.91
524.78	35515.29
524.96	35714.23
525.13	35812.54
525.30	35945.95
525.47	36170.64
525.64	35541.03
525.81	36041.91
525.98	35723.60
526.16	35873.39
526.33	36046.59
526.50	35833.60
526.67	35988.08
526.84	35641.68
527.01	35763.39
527.18	36147.23
527.36	36423.42
527.53	36355.54
527.70	36912.59
527.87	36505.34
528.04	36510.02
528.21	36795.56
528.38	36208.09
528.55	37474.32
528.72	36950.04
528.89	37127.92
529.07	37153.66
529.24	36622.36
529.41	37099.83
529.58	36818.97
529.75	37137.28
529.92	37156.00
530.09	36971.10
530.26	37565.60
530.43	37603.05
530.60	37390.06
530.77	37251.97
530.94	38000.94
531.11	37652.20
531.28	37556.24
531.46	37773.91
531.63	37460.27
531.80	37589.00
531.97	37715.39
532.14	37729.44
532.31	38211.59
532.48	37661.56
532.65	37933.06
532.82	37759.86
532.99	38064.13
533.16	37965.83
533.33	38213.93
533.50	38251.38
533.67	38415.21
533.84	38225.63
534.01	38298.19
534.18	38251.38
534.35	38497.13
534.52	38349.68
534.69	38513.52
534.86	38429.26
535.03	38651.61
535.20	38859.91
535.37	39201.63
535.54	39381.85
535.71	38869.28
535.88	39072.90
536.05	39042.48
536.22	38906.73
536.38	38986.30
536.55	39075.24
536.72	39063.54
536.89	38789.70
537.06	39234.40
537.23	38918.43
537.40	39299.94
537.57	39480.16
537.74	38883.32
537.91	39641.65
538.08	39969.33
538.25	39173.55
538.42	39269.51
538.59	39562.08
538.75	39239.08
538.92	39545.69
539.09	39484.84
539.26	39704.85
539.43	39508.24
539.60	39648.68
539.77	39597.18
539.94	39435.69
540.11	40020.82
540.28	40128.48
540.44	39866.34
540.61	39875.71
540.78	40259.55
540.95	39913.16
541.12	39995.07
541.29	39873.37
541.46	40243.17
541.62	40137.85
541.79	40556.80
541.96	40236.15
542.13	40306.37
542.30	40409.35
542.47	40463.18
542.63	40306.37
542.80	40158.91
542.97	40914.90
543.14	41247.26
543.31	41003.85
543.48	40844.69
543.64	41603.02
543.81	41343.22
543.98	41383.01
544.15	41045.97
544.32	41034.27
544.48	41443.87
544.65	41542.17
544.82	41565.57
544.99	40783.83
545.16	41696.64
545.32	41036.61
545.49	41797.29
545.66	41289.39
545.83	41860.48
546.00	41415.78
546.16	41759.84
546.33	41254.28
546.50	41200.45
546.67	41310.46
546.83	41502.38
547.00	41649.83
547.17	41652.17
547.34	41806.65
547.50	41701.32
547.67	41977.51
547.84	42120.28
548.00	41860.48
548.17	41801.97
548.34	42272.42
548.51	42143.69
548.67	42288.80
548.84	42576.69
549.01	42286.46
549.18	42167.09
549.34	41914.31
549.51	42122.62
549.68	42274.76
549.84	42181.13
550.01	42588.39
550.18	41853.46
550.34	42000.91
550.51	42211.56
550.68	42274.76
550.84	42251.35
551.01	42810.74
551.18	42419.87
551.34	42382.42
551.51	43091.60
551.68	42880.95
551.84	42665.63
552.01	42576.69
552.18	42728.82
552.34	42693.71
552.51	43019.05
552.68	42895.00
552.84	43290.55
553.01	42925.42
553.18	42792.01
553.34	43068.20
553.51	42637.54
553.67	42689.03
553.84	43306.93
554.01	43311.61
554.17	43007.34
554.34	43344.38
554.51	43122.03
554.67	43339.70
554.84	43723.55
555.00	42880.95
555.17	43192.25
555.33	43519.92
555.50	43477.79
555.67	43063.52
555.83	43548.01
556.00	43676.74
556.16	44109.74
556.33	43232.04
556.50	43524.60
556.66	43522.26
556.83	43423.96
556.99	43393.53
557.16	43763.34
557.32	43821.85
557.49	43438.00
557.65	43136.07
557.82	43564.39
557.98	43793.76
558.15	43695.46
558.32	43470.77
558.48	43636.95
558.65	43784.40
558.81	43548.01
558.98	43297.57
559.14	43505.88
559.31	43445.02
559.47	43716.53
559.64	44282.94
559.80	44133.14
559.97	43807.81
560.13	43674.40
560.30	43615.88
560.46	44406.98
560.63	44158.89
560.79	43988.03
560.96	44325.07
561.12	44025.48
561.29	44144.84
561.45	43599.50
561.61	44119.10
561.78	43702.48
561.94	43899.09
562.11	44285.28
562.27	44156.55
562.44	44236.12
562.60	44446.77
562.77	44156.55
562.93	44224.42
563.10	43840.57
563.26	44053.56
563.42	44449.11
563.59	44282.94
563.75	44406.98
563.92	44524.01
564.08	44418.69
564.24	44519.33
564.41	44446.77
564.57	44423.37
564.74	44547.42
564.90	44329.75
565.07	44416.35
565.23	44348.47
565.39	44177.61
565.56	44671.46
565.72	43831.21
565.88	44378.90
566.05	44334.43
566.21	44100.37
566.38	44133.14
566.54	44524.01
566.70	44851.69
566.87	44697.21
567.03	44847.00
567.19	44758.06
567.36	44301.66
567.52	44563.80
567.68	44414.01
567.85	44261.87
568.01	44484.22
568.17	44449.11
568.34	44495.92
568.50	44325.07
568.66	44809.56
568.83	44673.81
568.99	43903.77
569.15	44456.14
569.32	44549.76
569.48	44498.26
569.64	44643.38
569.81	44725.30
569.97	44729.98
570.13	44928.92
570.30	43971.64
570.46	44390.60
570.62	44144.84
570.78	44605.93
570.95	44605.93
571.11	44725.30
571.27	44463.16
571.43	44486.56
571.60	44858.71
571.76	44725.30
571.92	44418.69
572.09	44449.11
572.25	44406.98
572.41	44795.51
572.57	44769.77
572.74	45275.32
572.90	45127.87
573.06	45324.47
573.22	45067.02
573.38	44793.17
573.55	44437.41
573.71	44964.03
573.87	44830.62
574.03	44800.19
574.20	44795.51
574.36	44734.66
574.52	45214.47
574.68	44959.35
574.84	44769.77
575.01	44788.49
575.17	44849.35
575.33	44664.44
575.49	44666.78
575.65	45371.28
575.82	45558.53
575.98	45144.25
576.14	45294.05
576.30	45090.42
576.46	44818.92
576.62	44739.34
576.79	44713.59
576.95	44411.67
577.11	44727.64
577.27	45656.83
577.43	45467.25
577.59	44926.58
577.75	45085.74
577.92	44556.78
578.08	44807.22
578.24	44786.15
578.40	44591.89
578.56	44739.34
578.72	44912.54
578.88	45368.94
579.04	44989.78
579.21	44961.69
579.37	45050.63
579.53	44865.73
579.69	44863.39
579.85	44996.80
580.01	44697.21
580.17	44942.97
580.33	44978.07
580.49	45123.19
580.65	45610.02
580.82	45137.23
580.98	45071.70
581.14	45265.96
581.30	45048.29
581.46	45050.63
581.62	44882.11
581.78	45048.29
581.94	45392.35
582.10	45446.18
582.26	45200.43
582.42	44830.62
582.58	45132.55
582.74	45153.62
582.90	44729.98
583.06	45078.72
583.22	45198.09
583.38	44734.66
583.54	45020.20
583.70	44868.07
583.86	44779.13
584.02	44652.74
584.18	45179.36
584.34	45099.78
584.50	45308.09
584.66	45043.61
584.82	45003.82
584.98	44980.42
585.14	45151.27
585.30	45127.87
585.46	45045.95
585.62	45069.36
585.78	45413.41
585.94	44821.26
586.10	45045.95
586.26	44872.75
586.42	45148.93
586.58	45418.10
586.74	45296.39
586.90	45125.53
587.06	45415.76
587.22	45280.00
587.38	45006.16
587.54	45401.71
587.70	45064.67
587.86	45315.11
588.02	45177.02
588.18	45401.71
588.34	45127.87
588.49	44533.37
588.65	44861.05
588.81	44856.37
588.97	45319.79
589.13	44917.22
589.29	45354.90
589.45	45116.17
589.61	45298.73
589.77	45205.11
589.93	45399.37
590.08	45277.66
590.24	45392.35
590.40	45523.42
590.56	45366.60
590.72	45336.18
590.88	45015.52
591.04	44786.15
591.20	45495.33
591.35	45560.87
591.51	45668.53
591.67	45532.78
591.83	45345.54
591.99	45181.70
592.15	44926.58
592.31	45282.34
592.46	45202.77
592.62	45265.96
592.78	45808.96
592.94	45921.31
593.10	45504.70
593.26	45457.88
593.41	45331.50
593.57	44992.12
593.73	45127.87
593.89	45186.38
594.05	45556.19
594.20	44893.82
594.36	45614.70
594.52	45890.88
594.68	45427.46
594.84	45521.08
594.99	46106.21
595.15	45656.83
595.31	45551.51
595.47	45333.84
595.62	45572.57
595.78	45654.49
595.94	45584.27
596.10	45893.22
596.25	45886.20
596.41	45570.23
596.57	45406.39
596.73	45607.68
596.88	45385.33
597.04	45631.08
597.20	45338.52
597.36	45130.21
597.51	45701.30
597.67	45340.86
597.83	45713.00
597.99	45787.90
598.14	45481.29
598.30	45504.70
598.46	45502.35
598.61	45785.56
598.77	45254.26
598.93	45612.36
599.09	45841.73
599.24	45918.97
599.40	45804.28
599.56	45317.45
599.71	45879.18
599.87	46153.02
600.03	45411.07
600.18	45158.30
600.34	45284.68
600.50	45691.94
600.65	45586.61
600.81	45385.33
600.97	46103.87
601.12	46078.13
601.28	45612.36
601.44	45228.51
601.59	45759.81
601.75	45038.93
601.91	45308.09
602.06	45488.31
602.22	45830.03
602.37	45635.77
602.53	45457.88
602.69	45441.50
602.84	45474.27
603.00	45289.37
603.16	45319.79
603.31	45251.92
603.47	45411.07
603.62	45020.20
603.78	45085.74
603.94	45539.80
604.09	45984.51
604.25	45724.71
604.40	45780.88
604.56	45514.06
604.71	45017.86
604.87	45324.47
605.03	45666.19
605.18	45062.33
605.34	45378.31
605.49	45340.86
605.65	45464.91
605.80	45095.10
605.96	45352.56
606.12	45361.92
606.27	45897.91
606.43	45186.38
606.58	45280.00
606.74	44875.09
606.89	45249.58
607.05	45425.12
607.20	45209.79
607.36	45354.90
607.51	45895.56
607.67	45446.18
607.82	45310.43
607.98	45076.38
608.13	45401.71
608.29	45029.57
608.44	44402.30
608.60	44832.96
608.75	44704.23
608.91	45013.18
609.06	44959.35
609.22	45691.94
609.37	45034.25
609.53	45088.08
609.68	45291.71
609.84	44973.39
609.99	45113.83
610.15	44835.30
610.30	44924.24
610.46	44957.01
610.61	45162.98
610.76	45020.20
610.92	44725.30
611.07	44680.83
611.23	44793.17
611.38	45284.68
611.54	44528.69
611.69	44622.31
611.84	45022.54
612.00	44619.97
612.15	44655.08
612.31	44849.35
612.46	44964.03
612.62	44973.39
612.77	44568.48
612.92	44858.71
613.08	44772.11
613.23	44421.03
613.39	44835.30
613.54	44217.40
613.69	44481.88
613.85	44472.52
614.00	44957.01
614.15	44711.25
614.31	44725.30
614.46	45067.02
614.62	44514.65
614.77	44891.48
614.92	44460.82
615.08	43997.39
615.23	44601.25
615.38	44212.72
615.54	44046.54
615.69	44020.80
615.84	43789.08
616.00	44060.58
616.15	44170.59
616.30	44502.95
616.46	43688.44
616.61	43784.40
616.76	43955.26
616.92	43742.27
617.07	44034.84
617.22	43440.34
617.37	44182.29
617.53	44055.90
617.68	43739.93
617.83	43821.85
617.99	44362.51
618.14	44357.83
618.29	43842.92
618.45	43583.12
618.60	43915.47
618.75	43959.94
618.90	44058.24
619.06	43807.81
619.21	43784.40
619.36	43768.02
619.51	43613.54
619.67	43863.98
619.82	43643.97
619.97	43676.74
620.12	43515.24
620.28	43264.80
620.43	43557.37
620.58	43866.32
620.73	43737.59
620.89	43449.70
621.04	43784.40
621.19	43377.15
621.34	43711.84
621.49	43732.91
621.65	43384.17
621.80	43264.80
621.95	43147.78
622.10	43550.35
622.25	43227.35
622.41	43515.24
622.56	43098.62
622.71	43449.70
622.86	43583.12
623.01	43309.27
623.16	43526.94
623.32	42983.94
623.47	43416.94
623.62	43215.65
623.77	42997.98
623.92	42855.21
624.07	42902.02
624.23	43068.20
624.38	42827.12
624.53	42782.65
624.68	42930.11
624.83	42953.51
624.98	42564.98
625.13	42944.15
625.29	42656.26
625.44	42869.25
625.59	42469.02
625.74	42703.07
625.89	42501.79
626.04	42178.79
626.19	42300.50
626.34	42560.30
626.49	42471.36
626.65	42618.81
626.80	42672.65
626.95	42670.31
627.10	42319.23
627.25	42483.06
627.40	42359.02
627.55	41879.21
627.70	41560.89
627.85	42157.73
628.00	41766.86
628.15	42408.17
628.30	42403.49
628.45	42677.33
628.60	42302.84
628.76	42408.17
628.91	42073.47
629.06	42230.29
629.21	41673.24
629.36	42038.36
629.51	41949.42
629.66	42010.28
629.81	41675.58
629.96	41673.24
630.11	41701.32
630.26	42113.26
630.41	41851.12
630.56	42071.13
630.71	42227.95
630.86	41825.37
631.01	41989.21
631.16	41865.16
631.31	41647.49
631.46	41556.21
631.61	41610.04
631.76	41961.12
631.91	41275.35
632.06	41656.85
632.21	41504.72
632.36	41677.92
632.51	41663.88
632.66	41722.39
632.81	41413.44
632.96	41638.13
633.10	41165.34
633.25	41200.45
633.40	41429.82
633.55	41418.12
633.70	41371.31
633.85	41081.08
634.00	41251.94
634.15	40973.42
634.30	41038.95
634.45	41200.45
634.60	40903.20
634.75	41163.00
634.90	40823.62
635.05	41308.11
635.19	41193.43
635.34	41490.68
635.49	41375.99
635.64	40992.14
635.79	40603.61
635.94	40470.20
636.09	40765.11
636.24	40669.15
636.39	40725.32
636.53	40491.27
636.68	40664.47
636.83	40603.61
636.98	41390.03
637.13	40502.97
637.28	40594.25
637.43	40730.00
637.57	41202.79
637.72	40484.25
637.87	40509.99
638.02	40371.90
638.17	40493.61
638.32	40144.87
638.46	40172.96
638.61	40224.45
638.76	39674.42
638.91	40641.06
639.06	40346.15
639.20	40374.24
639.35	40931.29
639.50	40203.38
639.65	40446.80
639.80	40519.35
639.94	40257.21
640.09	40325.09
640.24	40280.62
640.39	39758.68
640.54	39765.70
640.68	39988.05
640.83	39871.03
640.98	39683.78
641.13	39922.52
641.27	40355.52
641.42	40116.78
641.57	39833.58
641.72	40039.54
641.86	39674.42
642.01	39501.22
642.16	39555.05
642.31	39414.62
642.45	39526.97
642.60	39189.93
642.75	39194.61
642.90	39744.64
643.04	39480.16
643.19	39576.12
643.34	39929.54
643.48	39313.98
643.63	39379.51
643.78	39105.67
643.93	39473.13
644.07	39161.84
644.22	39501.22
644.37	39108.01
644.51	38820.13
644.66	39175.89
644.81	39042.48
644.95	39641.65
645.10	39475.48
645.25	39594.84
645.39	39515.26
645.54	39431.01
645.69	38993.32
645.83	38871.62
645.98	39168.87
646.13	39206.31
646.27	39765.70
646.42	39393.56
646.57	39210.99
646.71	39203.97
646.86	39105.67
647.00	39531.65
647.15	39367.81
647.30	39189.93
647.44	39178.23
647.59	39054.18
647.74	38452.66
647.88	38375.42
648.03	38801.40
648.17	38675.01
648.32	38455.00
648.47	38550.96
648.61	38485.43
648.76	38775.66
648.90	39082.27
649.05	38948.85
649.20	38817.78
649.34	38986.30
649.49	39248.44
649.63	38321.59
649.78	38848.21
649.92	38239.67
650.07	38731.18
650.21	38295.85
650.36	38763.95
650.51	38478.41
650.65	38759.27
650.80	38834.17
650.94	38583.73
651.09	38637.56
651.23	38536.92
651.38	38405.85
651.52	37933.06
651.67	38286.48
651.81	38169.46
651.96	37855.82
652.10	38174.14
652.25	37851.14
652.39	38029.02
652.54	38220.95
652.68	38455.00
652.83	38190.52
652.97	38265.42
653.12	38047.75
653.26	38377.76
653.41	37965.83
653.55	37921.36
653.70	38078.18
653.84	38110.94
653.99	37895.61
654.13	37752.84
654.27	38281.80
654.42	38153.07
654.56	38031.36
654.71	38026.68
654.85	38085.20
655.00	37528.15
655.14	37427.51
655.29	37579.64
655.43	37682.62
655.57	36884.50
655.72	37216.86
655.86	36783.86
656.01	36943.02
656.15	37303.46
656.30	37071.75
656.44	37198.13
656.58	37237.92
656.73	37289.42
656.87	36952.38
657.01	37088.13
657.16	36971.10
657.30	36889.18
657.45	37165.37
657.59	36945.36
657.73	36917.27
657.88	37509.43
658.02	37064.72
658.16	37251.97
658.31	37174.73
658.45	36931.31
658.60	36905.57
658.74	37099.83
658.88	36662.15
659.03	36540.44
659.17	36751.09
659.31	36201.07
659.46	36357.88
659.60	36266.60
659.74	36584.91
659.89	35768.07
660.03	36346.18
660.17	36788.54
660.32	36198.73
660.46	36697.26
660.60	36067.66
660.74	36505.34
660.89	36226.81
661.03	36140.21
661.17	35903.82
661.32	35716.58
661.46	35796.15
661.60	36252.56
661.74	35943.61
661.89	35498.91
662.03	36044.25
662.17	35739.98
662.31	35688.49
662.46	36140.21
662.60	35608.91
662.74	35782.11
662.88	35721.26
663.03	35510.61
663.17	35962.33
663.31	35281.24
663.45	35370.18
663.60	35426.35
663.74	35115.06
663.88	34768.66
664.02	34918.45
664.17	35393.58
664.31	35157.19
664.45	35065.91
664.59	35349.11
664.73	35030.80
664.88	35332.73
665.02	34455.03
665.16	34822.49
665.30	34824.83
665.44	35037.82
665.59	34445.66
665.73	34293.53
665.87	34045.43
666.01	34539.29
666.15	34396.51
666.29	34235.02
666.44	34794.40
666.58	34078.20
666.72	34007.98
666.86	34494.82
667.00	34249.06
667.14	34497.16
667.28	33895.64
667.43	33914.36
667.57	33479.02
667.71	33813.72
667.85	33507.11
667.99	33680.31
668.13	33607.75
668.27	33525.83
668.41	34485.45
668.56	33415.83
668.70	33944.79
668.84	33420.51
668.98	33645.20
669.12	33553.92
669.26	33535.20
669.40	33319.87
669.54	33443.91
669.68	33118.58
669.82	33413.49
669.96	32807.29
670.10	32830.69
670.25	33031.98
670.39	33172.41
670.53	32781.54
670.67	32559.19
670.81	32811.97
670.95	33088.15
671.09	32708.99
671.23	33057.73
671.37	32748.78
671.51	32446.85
671.65	32219.81
671.79	32093.43
671.93	32077.04
672.07	32746.44
672.21	32503.02
672.35	32187.05
672.49	31999.80
672.63	32245.56
672.77	32046.62
672.91	31835.97
673.05	31260.20
673.19	31545.74
673.33	31810.22
673.47	31536.38
673.61	31124.44
673.75	31232.11
673.89	31173.60
674.03	30998.06
674.17	30789.75
674.31	31335.09
674.45	31075.29
674.59	30974.65
674.73	31021.46
674.87	31084.65
675.01	30930.18
675.15	31101.04
675.29	30984.01
675.43	30883.37
675.56	30771.02
675.70	30710.17
675.84	30445.69
675.98	29310.53
676.12	30345.05
676.26	30323.98
676.40	30082.91
676.54	30284.19
676.68	30061.84
676.82	29465.00
676.96	29914.39
677.10	29186.48
677.23	29378.40
677.37	29696.72
677.51	29465.00
677.65	29188.82
677.79	29144.35
677.93	29043.71
678.07	29020.30
678.21	28779.23
678.34	29226.27
678.48	28758.16
678.62	28725.39
678.76	28751.14
678.90	28584.96
679.04	28669.22
679.18	28238.56
679.31	28121.54
679.45	27857.06
679.59	27955.36
679.73	27962.38
679.87	28095.79
680.00	27714.28
680.14	27901.53
680.28	27494.27
680.42	27800.88
680.56	27527.04
680.70	27365.54
680.83	27309.37
680.97	27035.53
681.11	27316.39
681.25	27250.86
681.39	26958.29
681.52	27222.77
681.66	27157.24
681.80	26398.90
681.94	26237.41
682.07	26639.98
682.21	26953.61
682.35	26618.91
682.49	26649.34
682.62	26773.39
682.76	25888.67
682.90	26305.28
683.04	25949.52
683.17	25979.95
683.31	26040.80
683.45	25827.81
683.59	25481.41
683.72	25649.93
683.86	25364.39
684.00	25263.74
684.13	25240.34
684.27	25654.61
684.41	25111.61
684.55	25139.69
684.68	24884.58
684.82	24865.85
684.96	25090.54
685.09	24830.74
685.23	24657.54
685.37	24690.31
685.50	24177.73
685.64	24699.67
685.78	24343.91
685.91	24467.96
686.05	24264.33
686.19	24020.92
686.32	23517.70
686.46	24032.62
686.60	23559.83
686.73	23489.62
686.87	23510.68
687.01	23168.96
687.14	23218.11
687.28	23379.61
687.42	23126.83
687.55	23108.11
687.69	23307.05
687.82	23019.17
687.96	22621.28
688.10	23009.81
688.23	22731.28
688.37	22654.05
688.50	22452.76
688.64	22506.59
688.78	22508.93
688.91	22197.64
689.05	22253.81
689.18	22087.64
689.32	21673.36
689.46	22040.82
689.59	22225.73
689.73	22239.77
689.86	21783.37
690.00	21802.09
690.13	22019.76
690.27	21530.59
690.41	21584.42
690.54	21282.49
690.68	21238.02
690.81	21333.98
690.95	20961.84
691.08	20814.38
691.22	21022.69
691.35	21177.17
691.49	20884.60
691.62	21095.25
691.76	20739.49
691.89	21067.16
692.03	20453.94
692.16	20152.01
692.30	20308.83
692.43	20269.04
692.57	20114.56
692.70	20231.59
692.84	20091.16
692.97	20070.09
693.11	19969.45
693.24	19924.98
693.38	19679.22
693.51	19496.66
693.65	19300.06
693.78	19353.89
693.92	19693.27
694.05	19653.48
694.19	19257.93
694.32	19197.07
694.45	19236.86
694.59	18827.27
694.72	18834.29
694.86	18897.49
694.99	18974.72
695.13	18764.07
695.26	18754.71
695.39	18469.17
695.53	18443.42
695.66	18054.89
695.80	18523.00
695.93	18118.09
696.07	18019.78
696.20	18092.34
696.33	18169.58
696.47	18108.72
696.60	17987.02
696.73	17769.35
696.87	17813.82
697.00	17722.54
697.14	17748.28
697.27	17750.62
697.40	17738.92
697.54	17355.07
697.67	17401.88
697.80	17474.44
697.94	17212.30
698.07	17507.21
698.21	16903.35
698.34	17123.36
698.47	17128.04
698.61	17001.65
698.74	16744.19
698.87	16627.17
699.01	16601.42
699.14	16369.71
699.27	16428.22
699.40	16418.86
699.54	16067.78
699.67	16119.27
699.80	16245.66
699.94	16013.95
700.07	15971.82
700.20	16163.74
700.34	15868.83
700.47	15889.90
700.60	15992.88
700.73	15822.02
700.87	15763.51
701.00	15358.60
701.13	15686.27
701.26	15250.93
701.40	15609.03
701.53	15503.71
701.66	15269.66
701.79	15279.02
701.93	15091.77
702.06	14998.15
702.19	14984.11
702.32	14979.43
702.46	14867.08
702.59	15007.52
702.72	14689.20
702.85	14878.79
702.99	14871.76
703.12	14579.20
703.25	14476.21
703.38	14398.98
703.51	14370.89
703.65	14321.74
703.78	14036.19
703.91	13844.27
704.04	14324.08
704.17	14134.50
704.31	13991.72
704.44	13841.93
704.57	13923.85
704.70	13652.34
704.83	13638.30
704.96	13561.06
705.10	13598.51
705.23	13771.71
>>>>>End Processed Spectral Data<<<<<
