SpectraSuite Data File
++++++++++++++++++++++++++++++++++++
Date: Fri Oct 25 10:44:45 EDT 2013
User: price-jones
Dark Spectrum Present: No
Reference Spectrum Present: No
Number of Sampled Component Spectra: 1
Spectrometers: USB2+H05261
Integration Time (usec): 100000 (USB2+H05261)
Spectra Averaged: 1 (USB2+H05261)
Boxcar Smoothing: 0 (USB2+H05261)
Correct for Electrical Dark: No (USB2+H05261)
Strobe/Lamp Enabled: No (USB2+H05261)
Correct for Detector Non-linearity: No (USB2+H05261)
Correct for Stray Light: No (USB2+H05261)
Number of Pixels in Processed Spectrum: 2048
>>>>>Begin Processed Spectral Data<<<<<
365.73	149.79
365.92	149.79
366.12	149.79
366.32	25.75
366.52	0.00
366.72	63.19
366.91	46.81
367.11	28.09
367.31	56.17
367.51	86.60
367.70	0.00
367.90	25.75
368.10	28.09
368.30	21.06
368.49	49.15
368.69	51.49
368.89	65.54
369.09	0.00
369.28	37.45
369.48	81.92
369.68	86.60
369.87	93.62
370.07	105.32
370.27	135.75
370.47	161.50
370.66	299.59
370.86	397.89
371.06	454.06
371.25	404.91
371.45	383.85
371.65	360.44
371.84	435.34
372.04	411.93
372.24	465.77
372.44	437.68
372.63	521.94
372.83	528.96
373.03	440.02
373.22	458.74
373.42	500.87
373.62	526.62
373.81	463.43
374.01	461.09
374.21	510.24
374.40	442.36
374.60	631.94
374.79	517.26
374.99	578.11
375.19	521.94
375.38	664.71
375.58	568.75
375.78	545.34
375.97	566.41
376.17	617.90
376.37	559.39
376.56	528.96
376.76	479.81
376.95	538.32
377.15	622.58
377.35	589.82
377.54	578.11
377.74	538.32
377.93	589.82
378.13	594.50
378.33	674.07
378.52	601.52
378.72	645.99
378.91	517.26
379.11	662.37
379.31	596.84
379.50	645.99
379.70	585.13
379.89	620.24
380.09	657.69
380.28	622.58
380.48	585.13
380.68	660.03
380.87	568.75
381.07	643.65
381.26	683.44
381.46	655.35
381.65	669.39
381.85	643.65
382.04	671.73
382.24	739.61
382.43	713.86
382.63	613.22
382.83	676.41
383.02	688.12
383.22	648.33
383.41	753.65
383.61	681.10
383.80	746.63
384.00	692.80
384.19	688.12
384.39	830.89
384.58	739.61
384.78	821.53
384.97	713.86
385.17	732.59
385.36	744.29
385.56	755.99
385.75	737.27
385.95	753.65
386.14	770.04
386.34	791.10
386.53	697.48
386.72	732.59
386.92	894.08
387.11	823.87
387.31	840.25
387.50	795.78
387.70	748.97
387.89	809.83
388.09	856.64
388.28	788.76
388.48	851.96
388.67	849.61
388.86	901.11
389.06	856.64
389.25	917.49
389.45	875.36
389.64	908.13
389.84	952.60
390.03	901.11
390.22	978.34
390.42	929.19
390.61	971.32
390.81	919.83
391.00	905.79
391.19	992.39
391.39	1015.79
391.58	924.51
391.78	1074.31
391.97	943.24
392.16	915.15
392.36	1050.90
392.55	943.24
392.75	959.62
392.94	924.51
393.13	1015.79
393.33	954.94
393.52	1036.86
393.71	950.26
393.91	1029.84
394.10	1046.22
394.29	1032.18
394.49	1172.61
394.68	1188.99
394.88	1078.99
395.07	1158.57
395.26	1088.35
395.46	1118.78
395.65	1207.72
395.84	1170.27
396.04	1205.38
396.23	1203.04
396.42	1020.47
396.62	1139.84
396.81	1097.71
397.00	1160.91
397.19	1191.33
397.39	1299.00
397.58	1254.53
397.77	1291.98
397.97	1254.53
398.16	1306.02
398.35	1385.60
398.55	1294.32
398.74	1359.85
398.93	1350.49
399.12	1284.95
399.32	1331.76
399.51	1336.45
399.70	1427.73
399.90	1313.04
400.09	1380.92
400.28	1306.02
400.47	1348.15
400.67	1427.73
400.86	1481.56
401.05	1493.26
401.24	1437.09
401.44	1488.58
401.63	1547.09
401.82	1575.18
402.01	1528.37
402.21	1523.69
402.40	1507.30
402.59	1511.99
402.78	1661.78
402.97	1645.40
403.17	1598.59
403.36	1584.54
403.55	1748.38
403.74	1696.89
403.93	1614.97
404.13	1556.46
404.32	1638.38
404.51	1699.23
404.70	1626.67
404.89	1701.57
405.09	1811.57
405.28	1675.82
405.47	1746.04
405.66	1926.26
405.85	1720.29
406.05	1715.61
406.24	1746.04
406.43	1678.16
406.62	1863.07
406.81	1893.49
407.00	1909.88
407.20	1877.11
407.39	1909.88
407.58	1919.24
407.77	1975.41
407.96	1949.67
408.15	2064.35
408.34	1952.01
408.54	2097.12
408.73	2120.53
408.92	2155.63
409.11	2064.35
409.30	2024.56
409.49	2087.76
409.68	2162.66
409.87	2092.44
410.07	2169.68
410.26	2136.91
410.45	2150.95
410.64	2216.49
410.83	2207.13
411.02	2265.64
411.21	2253.94
411.40	2382.67
411.59	2349.90
411.78	2289.04
411.98	2333.51
412.17	2408.41
412.36	2356.92
412.55	2473.95
412.74	2539.48
412.93	2548.84
413.12	2441.18
413.31	2476.29
413.50	2630.76
413.69	2546.50
413.88	2705.66
414.07	2661.19
414.26	2626.08
414.45	2602.68
414.64	2712.68
414.83	2656.51
415.02	2700.98
415.22	2916.31
415.41	2899.92
415.60	2731.41
415.79	2780.56
415.98	2930.35
416.17	2928.01
416.36	2738.43
416.55	2864.82
416.74	2902.26
416.93	2932.69
417.12	3038.02
417.31	2946.73
417.50	2993.55
417.69	3131.64
417.88	3056.74
418.07	3173.77
418.26	3049.72
418.45	3056.74
418.64	3206.53
418.83	3267.39
419.02	3213.56
419.21	3290.79
419.39	3272.07
419.58	3220.58
419.77	3063.76
419.96	3255.69
420.15	3286.11
420.34	3332.92
420.53	3337.60
420.72	3454.63
420.91	3534.21
421.10	3396.12
421.29	3487.40
421.48	3335.26
421.67	3452.29
421.86	3503.78
422.05	3405.48
422.24	3382.07
422.43	3400.80
422.61	3632.51
422.80	3466.33
422.99	3648.90
423.18	3494.42
423.37	3618.47
423.56	3637.19
423.75	3613.79
423.94	3599.74
424.13	3485.06
424.32	3492.08
424.50	3581.02
424.69	3679.32
424.88	3639.53
425.07	3684.00
425.26	3674.64
425.45	3637.19
425.64	3655.92
425.83	3578.68
426.01	3768.26
426.20	3768.26
426.39	3754.22
426.58	3597.40
426.77	3623.15
426.96	3627.83
427.15	3758.90
427.33	3700.39
427.52	3723.79
427.71	3789.33
427.90	3838.48
428.09	3796.35
428.28	3772.94
428.46	3733.15
428.65	3786.99
428.84	3955.51
429.03	3911.04
429.22	3868.91
429.40	3770.60
429.59	3913.38
429.78	3693.37
429.97	3672.30
430.16	3808.05
430.34	3826.78
430.53	3887.63
430.72	3955.51
430.91	3992.95
431.10	3999.98
431.28	4077.21
431.47	4112.32
431.66	4248.07
431.85	4219.99
432.03	4224.67
432.22	4276.16
432.41	4234.03
432.60	4329.99
432.79	4325.31
432.97	4351.06
433.16	4285.52
433.35	4231.69
433.54	4334.67
433.72	4299.56
433.91	4381.48
434.10	4341.69
434.28	4278.50
434.47	4542.98
434.66	4498.51
434.85	4489.15
435.03	4582.77
435.22	4360.42
435.41	4578.09
435.59	4496.17
435.78	4585.11
435.97	4655.33
436.16	4613.20
436.34	4561.70
436.53	4660.01
436.72	4908.10
436.90	4596.81
437.09	4816.82
437.28	4725.54
437.46	4784.06
437.65	4809.80
437.84	4844.91
438.02	4830.87
438.21	4624.90
438.40	4713.84
438.58	4968.96
438.77	4898.74
438.96	4966.62
439.14	4990.02
439.33	5170.24
439.52	5153.86
439.70	5240.46
439.89	5205.35
440.08	5212.37
440.26	5235.78
440.45	5055.56
440.63	5214.71
440.82	5406.64
441.01	5233.44
441.19	5526.00
441.38	5383.23
441.57	5373.87
441.75	5722.61
441.94	5650.05
442.12	5495.58
442.31	5809.21
442.50	5605.58
442.68	5748.36
442.87	5668.78
443.05	5713.25
443.24	5916.87
443.43	5912.19
443.61	5926.24
443.80	6073.69
443.98	5727.29
444.17	5689.84
444.35	5966.03
444.54	5912.19
444.73	5888.79
444.91	6003.47
445.10	5942.62
445.28	5755.38
445.47	5781.12
445.65	5844.32
445.84	5928.58
446.02	5933.26
446.21	6050.28
446.39	5898.15
446.58	6019.86
446.77	6129.86
446.95	6031.56
447.14	5991.77
447.32	6274.98
447.51	5977.73
447.69	5980.07
447.88	6108.80
448.06	6237.53
448.25	6274.98
448.43	6015.18
448.62	6164.97
448.80	6129.86
448.99	6150.93
449.17	6408.39
449.36	6270.30
449.54	6403.71
449.73	6399.02
449.91	6497.33
450.10	6392.00
450.28	6616.69
450.46	6476.26
450.65	6511.37
450.83	6480.94
451.02	6537.12
451.20	6544.14
451.39	6588.61
451.57	6487.96
451.76	6466.90
451.94	6640.10
452.13	6642.44
452.31	6527.75
452.49	6457.54
452.68	6551.16
452.86	6623.72
453.05	6684.57
453.23	6642.44
453.42	6715.00
453.60	6665.85
453.78	6684.57
453.97	6743.08
454.15	6602.65
454.34	6700.95
454.52	6860.11
454.70	6817.98
454.89	7005.22
455.07	6787.55
455.26	7035.65
455.44	6970.12
455.62	7007.56
455.81	6995.86
455.99	7105.87
456.17	7045.01
456.36	7304.81
456.54	7145.66
456.73	7258.00
456.91	7410.14
457.09	7459.29
457.28	7459.29
457.46	7414.82
457.64	7602.06
457.83	7419.50
458.01	7456.95
458.19	7370.35
458.38	7431.20
458.56	7571.63
458.74	7489.71
458.93	7566.95
459.11	7604.40
459.29	7669.94
459.48	7564.61
459.66	7667.60
459.84	7700.36
460.03	7847.82
460.21	7707.38
460.39	7775.26
460.57	7719.09
460.76	7822.07
460.94	7803.35
461.12	7948.46
461.31	7810.37
461.49	7815.05
461.67	7819.73
461.85	8060.80
462.04	7866.54
462.22	7885.26
462.40	8126.34
462.59	8131.02
462.77	8049.10
462.95	8212.94
463.13	8013.99
463.32	8187.19
463.50	8175.49
463.68	8243.37
463.86	8435.29
464.05	8152.09
464.23	8208.26
464.41	8381.46
464.59	8023.36
464.78	8430.61
464.96	8435.29
465.14	8203.58
465.32	8468.06
465.50	8439.97
465.69	8430.61
465.87	8519.55
466.05	8470.40
466.23	8224.64
466.41	8477.42
466.60	8617.85
466.78	8465.72
466.96	8421.25
467.14	8353.37
467.32	8603.81
467.51	8589.77
467.69	8482.10
467.87	8755.94
468.05	8669.34
468.23	8510.19
468.41	8695.09
468.60	8809.78
468.78	8795.73
468.96	8830.84
469.14	8982.98
469.32	9081.28
469.50	8720.84
469.69	9004.04
469.87	8926.80
470.05	9088.30
470.23	8950.21
470.41	8997.02
470.59	9132.77
470.77	9076.60
470.95	9170.22
471.14	9350.44
471.32	9261.50
471.50	9694.50
471.68	9282.56
471.86	9287.25
472.04	9448.74
472.22	9647.69
472.40	9530.66
472.58	9734.29
472.77	9652.37
472.95	9753.01
473.13	10078.35
473.31	9561.09
473.49	9563.43
473.67	9760.03
473.85	9771.74
474.03	10078.35
474.21	9947.28
474.39	10111.11
474.57	10370.91
474.75	10125.16
474.93	10438.79
475.12	10190.69
475.30	10420.06
475.48	10265.59
475.66	10389.64
475.84	10413.04
476.02	10370.91
476.20	10527.73
476.38	10628.37
476.56	10998.18
476.74	10967.75
476.92	10906.90
477.10	11070.73
477.28	11227.55
477.46	11005.20
477.64	11307.13
477.82	11438.20
478.00	11705.02
478.18	11328.19
478.36	11569.27
478.54	11719.06
478.72	11740.13
478.90	11817.36
479.08	11796.30
479.26	11962.48
479.44	11955.46
479.62	12046.74
479.80	12351.01
479.98	12381.43
480.16	12683.36
480.34	12346.33
480.52	12821.45
480.70	12615.49
480.88	12699.75
481.06	12886.99
481.24	12854.22
481.41	13224.03
481.59	13284.88
481.77	13334.03
481.95	13146.79
482.13	13411.27
482.31	13425.31
482.49	13722.56
482.67	13708.52
482.85	13937.89
483.03	14115.77
483.21	14193.01
483.39	13961.30
483.57	14001.08
483.74	14452.81
483.92	14359.19
484.10	14279.61
484.28	14483.24
484.46	14693.88
484.64	14993.47
484.82	14916.23
485.00	15103.48
485.18	15094.11
485.35	15234.55
485.53	15021.56
485.71	15154.97
485.89	15543.50
486.07	15421.79
486.25	15279.02
486.43	15988.20
486.61	15878.19
486.78	16156.72
486.96	16100.55
487.14	16390.77
487.32	16613.12
487.50	17029.74
487.68	16725.47
487.85	17275.49
488.03	17032.08
488.21	17486.14
488.39	17123.36
488.57	17467.42
488.75	17444.01
488.92	17846.58
489.10	17759.98
489.28	18038.51
489.46	18249.16
489.64	18171.92
489.81	18515.98
489.99	18782.80
490.17	18782.80
490.35	18876.42
490.53	18785.14
490.70	18883.44
490.88	18970.04
491.06	19126.86
491.24	19213.46
491.41	19126.86
491.59	19309.42
491.77	19414.74
491.95	19850.08
492.13	19932.00
492.30	19812.63
492.48	20130.95
492.66	20367.34
492.84	20121.59
493.01	20229.25
493.19	20482.03
493.37	20900.98
493.54	20837.79
493.72	21256.75
493.90	20889.28
494.08	21249.72
494.25	21345.69
494.43	21525.91
494.61	21558.67
494.79	21584.42
494.96	21596.12
495.14	21736.56
495.32	21977.63
495.49	22387.22
495.67	22092.32
495.85	22485.53
496.02	22464.46
496.20	22092.32
496.38	22738.30
496.55	22871.72
496.73	22986.40
496.91	22817.88
497.09	22963.00
497.26	23414.72
497.44	23129.17
497.62	23660.48
497.79	23662.82
497.97	23241.52
498.14	23599.62
498.32	23765.80
498.50	23880.49
498.67	24327.53
498.85	24006.87
499.03	24493.71
499.20	24386.04
499.38	24638.82
499.56	24411.79
499.73	24577.97
499.91	24807.34
500.08	24903.30
500.26	24524.13
500.44	25149.06
500.61	24940.75
500.79	24982.88
500.97	25013.31
501.14	24964.15
501.32	25333.96
501.49	25511.84
501.67	25156.08
501.84	25617.16
502.02	25654.61
502.20	26019.74
502.37	25729.51
502.55	25975.27
502.72	26342.73
502.90	25888.67
503.07	26169.53
503.25	26099.31
503.43	26506.57
503.60	26417.63
503.78	26326.35
503.95	26239.75
504.13	26389.54
504.30	26906.80
504.48	27028.51
504.65	26958.29
504.83	26958.29
505.01	26986.38
505.18	27255.54
505.36	27545.76
505.53	27714.28
505.71	27674.49
505.88	27623.00
506.06	27594.92
506.23	27494.27
506.41	27845.35
506.58	27835.99
506.76	27590.24
506.93	28224.52
507.11	27985.79
507.28	28254.95
507.46	28048.98
507.63	28098.13
507.81	28203.46
507.98	28180.05
508.16	28638.80
508.33	28444.53
508.50	28589.64
508.68	28652.84
508.85	29357.34
509.03	29214.57
509.20	29090.52
509.38	28992.22
509.55	29345.64
509.73	29163.08
509.90	29289.46
510.08	29680.33
510.25	29649.91
510.42	29596.07
510.60	29841.83
510.77	29577.35
510.95	29921.41
511.12	29797.36
511.30	30012.69
511.47	30387.18
511.64	30581.44
511.82	30511.22
511.99	30108.65
512.17	30333.34
512.34	30424.62
512.51	30312.28
512.69	30686.76
512.86	30883.37
513.04	31030.82
513.21	30953.58
513.38	30925.50
513.56	30953.58
513.73	30639.95
513.90	31192.32
514.08	31047.21
514.25	31215.72
514.43	31468.50
514.60	31182.96
514.77	31374.88
514.95	31686.17
515.12	31550.42
515.29	32039.59
515.47	31831.29
515.64	32348.54
515.81	31721.28
515.99	31529.36
516.16	32065.34
516.33	31672.13
516.51	32184.71
516.68	32048.96
516.85	31728.30
517.03	31716.60
517.20	32264.28
517.37	32470.25
517.54	32163.64
517.72	32353.23
517.89	31915.54
518.06	32320.46
518.24	32201.09
518.41	32084.06
518.58	32751.12
518.75	32563.87
518.93	32938.36
519.10	32861.12
519.27	33067.09
519.45	32975.81
519.62	33226.24
519.79	33481.36
519.96	33205.18
520.14	33434.55
520.31	33193.48
520.48	33757.55
520.65	33350.29
520.83	34176.50
521.00	33975.22
521.17	33589.03
521.34	34012.66
521.52	33907.34
521.69	34057.14
521.86	34125.01
522.03	33778.61
522.20	34553.33
522.38	34848.24
522.55	34267.78
522.72	34440.98
522.89	34338.00
523.07	34649.29
523.24	34054.79
523.41	34909.09
523.58	34878.66
523.75	35262.51
523.92	34967.60
524.10	35491.88
524.27	35091.65
524.44	35016.75
524.61	35204.00
524.78	35777.43
524.96	35321.02
525.13	35482.52
525.30	35519.97
525.47	35395.92
525.64	35634.66
525.81	35353.79
525.98	35548.06
526.16	35204.00
526.33	35339.75
526.50	36055.95
526.67	35370.18
526.84	35849.99
527.01	35651.04
527.18	36098.08
527.36	36285.33
527.53	36292.35
527.70	36589.59
527.87	36203.41
528.04	36348.52
528.21	36503.00
528.38	36367.24
528.55	36697.26
528.72	36601.30
528.89	36505.34
529.07	36275.96
529.24	36505.34
529.41	37020.25
529.58	36720.66
529.75	36467.89
529.92	37172.39
530.09	37240.26
530.26	37034.30
530.43	37434.53
530.60	36952.38
530.77	37067.06
530.94	37148.98
531.11	37296.44
531.28	37453.25
531.46	37446.23
531.63	37675.60
531.80	36973.44
531.97	37041.32
532.14	37909.66
532.31	37497.72
532.48	37504.74
532.65	37677.94
532.82	37579.64
532.99	37951.79
533.16	37476.66
533.33	37998.60
533.50	37998.60
533.67	38139.03
533.84	37811.35
534.01	37968.17
534.18	37673.26
534.35	38010.30
534.52	37656.88
534.69	37883.91
534.86	38471.39
535.03	38022.00
535.20	38939.49
535.37	38857.57
535.54	38813.10
535.71	38359.04
535.88	38660.97
536.05	38789.70
536.22	38962.90
536.38	38990.98
536.55	38728.84
536.72	39047.16
536.89	38766.29
537.06	38843.53
537.23	38857.57
537.40	38775.66
537.57	38719.48
537.74	38969.92
537.91	39494.20
538.08	39281.21
538.25	39199.29
538.42	39143.12
538.59	39145.46
538.75	39028.43
538.92	39505.90
539.09	38836.51
539.26	39433.35
539.43	39339.72
539.60	39033.11
539.77	38930.13
539.94	39342.06
540.11	39264.83
540.28	39239.08
540.44	39262.49
540.61	39531.65
540.78	39487.18
540.95	39871.03
541.12	39662.72
541.29	39976.35
541.46	39484.84
541.62	39337.38
541.79	40098.06
541.96	39833.58
542.13	40032.52
542.30	39868.69
542.47	40280.62
542.63	40172.96
542.80	40318.07
542.97	40229.13
543.14	40751.07
543.31	40704.26
543.48	40685.53
543.64	41275.35
543.81	40835.33
543.98	41081.08
544.15	40730.00
544.32	40938.31
544.48	41315.14
544.65	40875.12
544.82	40912.56
544.99	40823.62
545.16	41050.66
545.32	40989.80
545.49	41329.18
545.66	41331.52
545.83	41048.32
546.00	41507.06
546.16	41024.91
546.33	41137.26
546.50	40861.07
546.67	41181.73
546.83	40994.48
547.00	41610.04
547.17	41303.43
547.34	41209.81
547.50	41488.34
547.67	42047.72
547.84	41776.22
548.00	41673.24
548.17	41918.99
548.34	41940.06
548.51	41989.21
548.67	41897.93
548.84	41874.52
549.01	41701.32
549.18	42162.41
549.34	41808.99
549.51	41944.74
549.68	42188.16
549.84	41827.71
550.01	42171.77
550.18	42405.83
550.34	42115.60
550.51	41970.49
550.68	41918.99
550.84	41867.50
551.01	42120.28
551.18	42351.99
551.34	42082.83
551.51	42232.63
551.68	42557.96
551.84	42642.22
552.01	42202.20
552.18	42600.09
552.34	42078.15
552.51	42546.26
552.68	42403.49
552.84	42990.96
553.01	42611.79
553.18	42447.96
553.34	42506.47
553.51	42424.55
553.67	42511.15
553.84	42686.69
554.01	42375.40
554.17	42595.41
554.34	42815.42
554.51	42588.39
554.67	42820.10
554.84	43145.44
555.00	42635.20
555.17	43037.77
555.33	43377.15
555.50	42518.17
555.67	42927.77
555.83	42871.59
556.00	42988.62
556.16	43529.28
556.33	43012.02
556.50	43061.18
556.66	42983.94
556.83	42913.72
556.99	43508.22
557.16	43482.47
557.32	43615.88
557.49	43459.07
557.65	43243.74
557.82	43292.89
557.98	43646.31
558.15	43459.07
558.32	43159.48
558.48	43159.48
558.65	43477.79
558.81	43107.99
558.98	43531.62
559.14	43414.60
559.31	43213.31
559.47	43171.18
559.64	43875.68
559.80	43576.09
559.97	43625.25
560.13	43281.19
560.30	43129.05
560.46	43618.22
560.63	43739.93
560.79	43723.55
560.96	43819.51
561.12	43466.09
561.29	43337.36
561.45	43878.02
561.61	43849.94
561.78	43229.69
561.94	43744.61
562.11	43791.42
562.27	43686.10
562.44	43861.64
562.60	43739.93
562.77	44175.27
562.93	44018.46
563.10	43620.56
563.26	43295.23
563.42	43590.14
563.59	44074.63
563.75	43686.10
563.92	43917.81
564.08	43800.79
564.24	43758.66
564.41	43931.86
564.57	44023.14
564.74	43831.21
564.90	43789.08
565.07	44154.21
565.23	44619.97
565.39	43945.90
565.56	43924.83
565.72	43800.79
565.88	44135.48
566.05	44194.00
566.21	43831.21
566.38	43838.23
566.54	43999.73
566.70	44336.77
566.87	44521.67
567.03	43896.75
567.19	44406.98
567.36	44399.96
567.52	43653.33
567.68	44264.21
567.85	44201.02
568.01	43943.56
568.17	44009.09
568.34	44619.97
568.50	44175.27
568.66	44058.24
568.83	44479.54
568.99	43824.19
569.15	44367.20
569.32	44168.25
569.48	44100.37
569.64	44392.94
569.81	44287.62
569.97	44395.28
570.13	44327.41
570.30	44432.73
570.46	44285.28
570.62	43831.21
570.78	44004.41
570.95	44128.46
571.11	44226.76
571.27	44301.66
571.43	44371.88
571.60	44486.56
571.76	44079.31
571.92	44039.52
572.09	44247.83
572.25	44334.43
572.41	44495.92
572.57	44545.08
572.74	44516.99
572.90	44816.58
573.06	44170.59
573.22	44140.16
573.38	44425.71
573.55	44421.03
573.71	44465.50
573.87	44453.79
574.03	44091.01
574.20	44273.57
574.36	44287.62
574.52	44460.82
574.68	44641.04
574.84	44296.98
575.01	44559.12
575.17	44460.82
575.33	44304.00
575.49	44233.78
575.65	44524.01
575.82	44591.89
575.98	44418.69
576.14	44769.77
576.30	44708.91
576.46	44683.17
576.62	44367.20
576.79	44540.39
576.95	44397.62
577.11	44208.04
577.27	44477.20
577.43	44479.54
577.59	44306.34
577.75	44044.20
577.92	44278.25
578.08	44414.01
578.24	44636.36
578.40	44435.07
578.56	44348.47
578.72	44631.68
578.88	44643.38
579.04	44449.11
579.21	44622.31
579.37	44751.04
579.53	44540.39
579.69	44472.52
579.85	44617.63
580.01	44315.70
580.17	44406.98
580.33	44795.51
580.49	44292.30
580.65	44814.24
580.82	44725.30
580.98	44353.15
581.14	44371.88
581.30	44987.44
581.46	44907.86
581.62	45057.65
581.78	44465.50
581.94	44451.45
582.10	44868.07
582.26	44662.10
582.42	44313.36
582.58	44821.26
582.74	44526.35
582.90	44847.00
583.06	45167.66
583.22	45085.74
583.38	44842.32
583.54	44788.49
583.70	44741.68
583.86	44786.15
584.02	44243.15
584.18	44891.48
584.34	44561.46
584.50	44690.19
584.66	44772.11
584.82	44327.41
584.98	45221.49
585.14	44704.23
585.30	44409.32
585.46	44535.71
585.62	44219.74
585.78	44657.42
585.94	44205.70
586.10	44704.23
586.26	44362.51
586.42	44809.56
586.58	45202.77
586.74	44858.71
586.90	44720.62
587.06	44800.19
587.22	44634.02
587.38	43978.67
587.54	44701.89
587.70	44729.98
587.86	45057.65
588.02	44737.00
588.18	44802.53
588.34	44535.71
588.49	44594.23
588.65	44177.61
588.81	44687.85
588.97	44641.04
589.13	44418.69
589.29	44807.22
589.45	44582.52
589.61	45010.84
589.77	44751.04
589.93	44793.17
590.08	45102.12
590.24	45272.98
590.40	44996.80
590.56	44865.73
590.72	44947.65
590.88	45027.23
591.04	45038.93
591.20	45359.58
591.35	45261.28
591.51	45495.33
591.67	45099.78
591.83	44964.03
591.99	45118.51
592.15	45186.38
592.31	45059.99
592.46	45083.40
592.62	44713.59
592.78	45118.51
592.94	44973.39
593.10	44498.26
593.26	45422.78
593.41	44889.13
593.57	45031.91
593.73	45240.21
593.89	45118.51
594.05	45008.50
594.20	44811.90
594.36	44891.48
594.52	45071.70
594.68	45242.56
594.84	44662.10
594.99	45127.87
595.15	45052.97
595.31	45205.11
595.47	45015.52
595.62	45003.82
595.78	44985.10
595.94	45631.08
596.10	45450.86
596.25	45495.33
596.41	45001.48
596.57	45172.34
596.73	45167.66
596.88	44921.90
597.04	44914.88
597.20	44624.65
597.36	44854.03
597.51	45661.51
597.67	45420.44
597.83	45492.99
597.99	45397.03
598.14	45280.00
598.30	45165.32
598.46	44779.13
598.61	44748.70
598.77	45013.18
598.93	44978.07
599.09	45144.25
599.24	45605.34
599.40	45628.74
599.56	45701.30
599.71	45315.11
599.87	45357.24
600.03	45378.31
600.18	45048.29
600.34	44949.99
600.50	45038.93
600.65	45148.93
600.81	45270.64
600.97	45102.12
601.12	45170.00
601.28	45485.97
601.44	44828.28
601.59	45008.50
601.75	44746.36
601.91	45240.21
602.06	44924.24
602.22	45329.16
602.37	44900.84
602.53	45045.95
602.69	44987.44
602.84	45001.48
603.00	44818.92
603.16	44847.00
603.31	44760.40
603.47	45092.76
603.62	45008.50
603.78	45008.50
603.94	45090.42
604.09	45425.12
604.25	45181.70
604.40	45457.88
604.56	44844.66
604.71	45132.55
604.87	44645.72
605.03	44835.30
605.18	44409.32
605.34	44931.26
605.49	44938.29
605.65	45043.61
605.80	45045.95
605.96	45013.18
606.12	45045.95
606.27	45673.21
606.43	45193.40
606.58	44870.41
606.74	44945.31
606.89	45029.57
607.05	44502.95
607.20	44980.42
607.36	45261.28
607.51	44851.69
607.67	44802.53
607.82	45043.61
607.98	44636.36
608.13	44339.11
608.29	44905.52
608.44	44554.44
608.60	44369.54
608.75	44624.65
608.91	44444.43
609.06	44140.16
609.22	44919.56
609.37	44327.41
609.53	44891.48
609.68	44612.95
609.84	44451.45
609.99	44612.95
610.15	44294.64
610.30	44549.76
610.46	44404.64
610.61	44505.29
610.76	44568.48
610.92	44737.00
611.07	44690.19
611.23	44561.46
611.38	44219.74
611.54	44264.21
611.69	44474.86
611.84	43929.51
612.00	44222.08
612.15	44275.91
612.31	44189.31
612.46	44201.02
612.62	44020.80
612.77	44402.30
612.92	44685.51
613.08	44233.78
613.23	44222.08
613.39	44158.89
613.54	43758.66
613.69	43782.06
613.85	43973.98
614.00	44395.28
614.15	44353.15
614.31	44271.23
614.46	44589.55
614.62	44219.74
614.77	43702.48
614.92	44168.25
615.08	44069.95
615.23	44020.80
615.38	44002.07
615.54	44011.43
615.69	43695.46
615.84	43899.09
616.00	43807.81
616.15	43981.01
616.30	43819.51
616.46	43643.97
616.61	43391.19
616.76	43304.59
616.92	43225.01
617.07	43344.38
617.22	43360.76
617.37	43578.43
617.53	43950.58
617.68	43929.51
617.83	43709.50
617.99	43545.67
618.14	43484.81
618.29	43428.64
618.45	43643.97
618.60	43372.47
618.75	43599.50
618.90	42939.47
619.06	43302.25
619.21	43550.35
619.36	43789.08
619.51	43274.16
619.67	43419.28
619.82	43412.26
619.97	43709.50
620.12	43622.90
620.28	43196.93
620.43	43353.74
620.58	43274.16
620.73	42946.49
620.89	43196.93
621.04	42906.70
621.19	42747.54
621.34	43784.40
621.49	42939.47
621.65	42948.83
621.80	43236.72
621.95	42918.40
622.10	42824.78
622.25	42965.21
622.41	42473.70
622.56	42590.73
622.71	43143.09
622.86	43012.02
623.01	42810.74
623.16	42866.91
623.32	42841.17
623.47	43042.45
623.62	42712.44
623.77	42089.85
623.92	42625.84
624.07	42799.04
624.23	42782.65
624.38	42183.48
624.53	42335.61
624.68	42707.76
624.83	42506.47
624.98	42705.41
625.13	42337.95
625.29	42099.22
625.44	42146.03
625.59	42026.66
625.74	41825.37
625.89	42014.96
626.04	41881.55
626.19	42256.03
626.34	41897.93
626.49	42546.26
626.65	42082.83
626.80	41825.37
626.95	42464.34
627.10	41975.17
627.25	41928.36
627.40	41773.88
627.55	41921.34
627.70	41474.29
627.85	41488.34
628.00	41579.62
628.15	41565.57
628.30	41509.40
628.45	41851.12
628.60	41858.14
628.76	41965.81
628.91	41900.27
629.06	41743.45
629.21	41708.35
629.36	41656.85
629.51	41312.80
629.66	41743.45
629.81	41163.00
629.96	41640.47
630.11	41677.92
630.26	41476.63
630.41	41340.88
630.56	41368.97
630.71	41546.85
630.86	41359.61
631.01	40996.82
631.16	41202.79
631.31	41214.49
631.46	40744.05
631.61	41375.99
631.76	41427.48
631.91	41172.36
632.06	40924.27
632.21	41392.37
632.36	41361.95
632.51	40610.64
632.66	41184.07
632.81	40409.35
632.96	40971.08
633.10	40545.10
633.25	40493.61
633.40	40928.95
633.55	40971.08
633.70	40720.64
633.85	40643.40
634.00	40809.58
634.15	40751.07
634.30	40739.36
634.45	40954.69
634.60	40774.47
634.75	40797.88
634.90	40725.32
635.05	40577.87
635.19	40320.41
635.34	40177.64
635.49	40020.82
635.64	40692.55
635.79	40587.23
635.94	40397.65
636.09	40561.48
636.24	39983.37
636.39	39976.35
636.53	40123.80
636.68	40034.86
636.83	40252.53
636.98	40364.88
637.13	40280.62
637.28	40399.99
637.43	40226.79
637.57	40437.44
637.72	40362.54
637.87	40449.14
638.02	40444.46
638.17	39957.63
638.32	39892.09
638.46	39840.60
638.61	40095.72
638.76	40030.18
638.91	40350.84
639.06	40065.29
639.20	39793.79
639.35	39646.33
639.50	40025.50
639.65	40210.40
639.80	39826.56
639.94	39920.18
640.09	39882.73
640.24	39662.72
640.39	39335.04
640.54	39288.23
640.68	39791.45
640.83	39810.17
640.98	39213.34
641.13	39049.50
641.27	39936.56
641.42	39751.66
641.57	39564.42
641.72	39349.09
641.86	38883.32
642.01	39124.40
642.16	39143.12
642.31	39484.84
642.45	39573.78
642.60	39051.84
642.75	39435.69
642.90	39372.49
643.04	39201.63
643.19	39171.21
643.34	39000.35
643.48	39255.46
643.63	38974.60
643.78	38855.23
643.93	38869.28
644.07	38789.70
644.22	38911.41
644.37	38880.98
644.51	38948.85
644.66	38843.53
644.81	39129.08
644.95	38845.87
645.10	39138.44
645.25	39199.29
645.39	38878.64
645.54	39063.54
645.69	38363.72
645.83	39093.97
645.98	38476.07
646.13	39002.69
646.27	38799.06
646.42	38637.56
646.57	38611.82
646.71	38792.04
646.86	38960.56
647.00	38614.16
647.15	38707.78
647.30	38225.63
647.44	38513.52
647.59	38660.97
647.74	38244.35
647.88	38347.34
648.03	38618.84
648.17	38653.95
648.32	38103.92
648.47	38316.91
648.61	37872.21
648.76	38492.45
648.90	38625.86
649.05	38213.93
649.20	38022.00
649.34	38110.94
649.49	38066.47
649.63	37930.72
649.78	38185.84
649.92	38071.15
650.07	38450.32
650.21	38064.13
650.36	38139.03
650.51	37837.10
650.65	38031.36
650.80	38064.13
650.94	38253.72
651.09	37715.39
651.23	37947.11
651.38	37783.27
651.52	37830.08
651.67	37956.47
651.81	37457.93
651.96	37848.80
652.10	37792.63
652.25	37298.78
652.39	37738.80
652.54	37598.37
652.68	37656.88
652.83	37741.14
652.97	37851.14
653.12	37958.81
653.26	37294.10
653.41	37392.40
653.55	37434.53
653.70	37106.85
653.84	37631.13
653.99	37170.05
654.13	37123.24
654.27	37043.66
654.42	37244.94
654.56	37247.29
654.71	37691.99
654.85	37371.33
655.00	37699.01
655.14	37027.28
655.29	37001.53
655.43	37258.99
655.57	36844.71
655.72	36921.95
655.86	36802.58
656.01	36666.83
656.15	36690.24
656.30	37006.21
656.44	36823.65
656.58	37041.32
656.73	36414.05
656.87	36313.41
657.01	36760.45
657.16	36755.77
657.30	36875.14
657.45	36580.23
657.59	36795.56
657.73	36219.79
657.88	36620.02
658.02	36786.20
658.16	36767.48
658.31	36634.06
658.45	36697.26
658.60	36271.28
658.74	36706.62
658.88	36271.28
659.03	36467.89
659.17	36449.16
659.31	36016.16
659.46	36374.27
659.60	36734.71
659.74	36353.20
659.89	35761.05
660.03	35974.03
660.17	35941.27
660.32	36095.74
660.46	36392.99
660.60	36217.45
660.74	36156.60
660.89	36048.93
661.03	35569.12
661.17	35833.60
661.32	35644.02
661.46	35079.95
661.60	35082.29
661.74	35246.13
661.89	35672.10
662.03	35545.72
662.17	35194.64
662.31	35377.20
662.46	35384.22
662.60	35248.47
662.74	35316.34
662.88	34951.22
663.03	35115.06
663.17	35122.08
663.31	34555.67
663.45	34717.17
663.60	35084.63
663.74	34665.67
663.88	35012.07
664.02	34862.28
664.17	35147.82
664.31	34433.96
664.45	34415.24
664.59	35019.10
664.73	34616.52
664.88	34515.88
665.02	34478.43
665.16	34532.26
665.30	34506.52
665.44	34347.36
665.59	33907.34
665.73	33993.94
665.87	33956.49
666.01	34330.98
666.15	34349.70
666.29	33984.58
666.44	34022.03
666.58	34115.65
666.72	34096.92
666.86	34150.76
667.00	33907.34
667.14	33755.21
667.28	33469.66
667.43	33338.59
667.57	33668.61
667.71	33493.07
667.85	33490.73
667.99	33572.64
668.13	33401.79
668.27	33427.53
668.41	33144.33
668.56	32856.44
668.70	33336.25
668.84	33366.68
668.98	32830.69
669.12	32907.93
669.26	33209.86
669.40	32460.89
669.54	32936.02
669.68	32758.14
669.82	32900.91
669.96	32432.80
670.10	32442.17
670.25	32776.86
670.39	32723.03
670.53	32481.95
670.67	32245.56
670.81	32615.37
670.95	32615.37
671.09	32381.31
671.23	32498.34
671.37	32198.75
671.51	31852.35
671.65	31793.84
671.79	31903.84
671.93	31714.26
672.07	31957.67
672.21	31571.49
672.35	31662.77
672.49	31484.89
672.63	31927.25
672.77	31543.40
672.91	31323.39
673.05	31285.94
673.19	31440.42
673.33	30958.27
673.47	30925.50
673.61	31058.91
673.75	30981.67
673.89	30693.79
674.03	30747.62
674.17	30937.20
674.31	31082.31
674.45	30815.49
674.59	30778.04
674.73	31051.89
674.87	30707.83
675.01	30658.68
675.15	30574.42
675.29	30532.29
675.43	30141.42
675.56	30382.49
675.70	30127.38
675.84	29876.94
675.98	29156.05
676.12	30017.37
676.26	30204.61
676.40	29692.04
676.54	29942.47
676.68	29811.40
676.82	29163.08
676.96	29738.85
677.10	29163.08
677.23	29406.49
677.37	29109.24
677.51	29027.32
677.65	28856.46
677.79	28650.50
677.93	28575.60
678.07	28699.65
678.21	28240.90
678.34	28301.76
678.48	28205.80
678.62	27913.23
678.76	27660.45
678.90	27784.50
679.04	27882.80
679.18	28030.26
679.31	27089.36
679.45	27880.46
679.59	27489.59
679.73	27433.42
679.87	27604.28
680.00	27250.86
680.14	27637.05
680.28	27110.43
680.42	26850.63
680.56	27421.72
680.70	27070.64
680.83	27351.50
680.97	27335.12
681.11	27288.31
681.25	26693.81
681.39	26506.57
681.52	26616.57
681.66	26670.40
681.80	26684.45
681.94	26192.94
682.07	26480.82
682.21	26253.79
682.35	25741.21
682.49	26544.02
682.62	26029.10
682.76	26045.48
682.90	25923.77
683.04	25469.71
683.17	25783.34
683.31	25348.00
683.45	25450.99
683.59	25380.77
683.72	25270.76
683.86	25062.46
684.00	25198.21
684.13	25479.07
684.27	25090.54
684.41	24702.01
684.55	24858.83
684.68	24694.99
684.82	24404.77
684.96	24423.49
685.09	24589.67
685.23	24552.22
685.37	24503.07
685.50	24397.74
685.64	23899.21
685.78	24084.11
685.91	23828.99
686.05	23777.50
686.19	23887.51
686.32	23454.51
686.46	23075.34
686.60	23257.90
686.73	22909.16
686.87	23250.88
687.01	23129.17
687.14	22855.33
687.28	22728.94
687.42	22920.87
687.55	22707.88
687.69	22789.80
687.82	22845.97
687.96	22647.02
688.10	22888.10
688.23	22192.96
688.37	22572.13
688.50	22108.70
688.64	22232.75
688.78	22106.36
688.91	21986.99
689.05	22272.54
689.18	22246.79
689.32	21472.07
689.46	21802.09
689.59	21675.70
689.73	21802.09
689.86	21675.70
690.00	21415.90
690.13	21802.09
690.27	21198.23
690.41	21350.37
690.54	21366.75
690.68	20577.99
690.81	20744.17
690.95	20872.90
691.08	20798.00
691.22	20758.21
691.35	20943.11
691.49	20929.07
691.62	20844.81
691.76	20435.22
691.89	20161.37
692.03	20390.75
692.16	19974.13
692.30	20329.89
692.43	19885.19
692.57	19723.69
692.70	19875.83
692.84	19517.73
692.97	19543.47
693.11	19499.00
693.24	19484.96
693.38	19220.48
693.51	19419.42
693.65	19103.45
693.78	19421.77
693.92	19103.45
694.05	18878.76
694.19	19009.83
694.32	19019.19
694.45	18803.86
694.59	18523.00
694.72	18927.91
694.86	18574.49
694.99	18431.72
695.13	18457.46
695.26	18178.94
695.39	18015.10
695.53	18331.08
695.66	18668.11
695.80	18361.50
695.93	18314.69
696.07	18253.84
696.20	17984.68
696.33	18045.53
696.47	17891.06
696.60	17888.71
696.73	17610.19
696.87	17755.30
697.00	17755.30
697.14	17266.13
697.27	17441.67
697.40	17467.42
697.54	17680.41
697.67	17125.70
697.80	17034.42
697.94	16952.50
698.07	16702.06
698.21	16676.32
698.34	16889.31
698.47	16774.62
698.61	16879.94
698.74	16603.76
698.87	16315.87
699.01	16013.95
699.14	15915.64
699.27	15934.37
699.40	16126.29
699.54	16006.92
699.67	16002.24
699.80	15983.52
699.94	16016.29
700.07	15960.11
700.20	15632.44
700.34	15927.35
700.47	15620.74
700.60	15894.58
700.73	15747.12
700.87	15674.57
701.00	15384.34
701.13	15482.64
701.26	15220.50
701.40	15358.60
701.53	15283.70
701.66	14986.45
701.79	14883.47
701.93	15030.92
702.06	14759.42
702.19	14829.63
702.32	14951.34
702.46	14693.88
702.59	14745.38
702.72	14518.34
702.85	14677.50
702.99	14494.94
703.12	14354.51
703.25	14324.08
703.38	14207.05
703.51	13937.89
703.65	14125.13
703.78	14054.92
703.91	13935.55
704.04	13699.16
704.17	14122.79
704.31	13893.42
704.44	13795.12
704.57	13729.58
704.70	13439.36
704.83	13495.53
704.96	13589.15
705.10	13451.06
705.23	13453.40
>>>>>End Processed Spectral Data<<<<<
