SpectraSuite Data File
++++++++++++++++++++++++++++++++++++
Date: Fri Oct 25 10:48:32 EDT 2013
User: price-jones
Dark Spectrum Present: No
Reference Spectrum Present: No
Number of Sampled Component Spectra: 1
Spectrometers: USB2+H05261
Integration Time (usec): 100000 (USB2+H05261)
Spectra Averaged: 1 (USB2+H05261)
Boxcar Smoothing: 0 (USB2+H05261)
Correct for Electrical Dark: No (USB2+H05261)
Strobe/Lamp Enabled: No (USB2+H05261)
Correct for Detector Non-linearity: No (USB2+H05261)
Correct for Stray Light: No (USB2+H05261)
Number of Pixels in Processed Spectrum: 2048
>>>>>Begin Processed Spectral Data<<<<<
365.73	124.05
365.92	124.05
366.12	124.05
366.32	18.72
366.52	44.47
366.72	84.26
366.91	133.41
367.11	0.00
367.31	88.94
367.51	56.17
367.70	53.83
367.90	2.34
368.10	0.00
368.30	67.88
368.49	0.00
368.69	51.49
368.89	121.71
369.09	0.00
369.28	0.00
369.48	56.17
369.68	77.24
369.87	147.45
370.07	138.09
370.27	184.90
370.47	163.84
370.66	360.44
370.86	475.13
371.06	440.02
371.25	507.90
371.45	411.93
371.65	451.72
371.84	428.32
372.04	489.17
372.24	575.77
372.44	503.22
372.63	519.60
372.83	538.32
373.03	484.49
373.22	540.66
373.42	554.71
373.62	564.07
373.81	540.66
374.01	550.03
374.21	580.45
374.40	514.92
374.60	592.16
374.79	610.88
374.99	622.58
375.19	613.22
375.38	634.29
375.58	620.24
375.78	552.37
375.97	645.99
376.17	641.31
376.37	624.92
376.56	622.58
376.76	671.73
376.95	695.14
377.15	627.26
377.35	622.58
377.54	734.93
377.74	622.58
377.93	650.67
378.13	702.16
378.33	718.54
378.52	746.63
378.72	669.39
378.91	706.84
379.11	634.29
379.31	629.60
379.50	566.41
379.70	704.50
379.89	786.42
380.09	718.54
380.28	765.36
380.48	727.91
380.68	777.06
380.87	760.67
381.07	711.52
381.26	753.65
381.46	791.10
381.65	819.19
381.85	699.82
382.04	716.20
382.24	709.18
382.43	751.31
382.63	688.12
382.83	826.21
383.02	854.30
383.22	814.51
383.41	802.80
383.61	779.40
383.80	751.31
384.00	812.17
384.19	823.87
384.39	875.36
384.58	849.61
384.78	847.27
384.97	866.00
385.17	896.43
385.36	763.01
385.56	767.70
385.75	866.00
385.95	882.38
386.14	861.32
386.34	947.92
386.53	908.13
386.72	807.48
386.92	987.71
387.11	922.17
387.31	896.43
387.50	898.77
387.70	826.21
387.89	887.06
388.09	884.72
388.28	978.34
388.48	833.23
388.67	931.53
388.86	1015.79
389.06	1015.79
389.25	1083.67
389.45	976.00
389.64	1074.31
389.84	1004.09
390.03	1069.62
390.22	997.07
390.42	1104.73
390.61	1032.18
390.81	1158.57
391.00	1090.69
391.19	1046.22
391.39	1104.73
391.58	1111.75
391.78	1062.60
391.97	1039.20
392.16	1041.54
392.36	1057.92
392.55	1125.80
392.75	1050.90
392.94	1036.86
393.13	1020.47
393.33	1006.43
393.52	1121.12
393.71	1177.29
393.91	1231.12
394.10	1116.44
394.29	1231.12
394.49	1172.61
394.68	1245.16
394.88	1287.29
395.07	1296.66
395.26	1320.06
395.46	1282.61
395.65	1334.11
395.84	1273.25
396.04	1245.16
396.23	1228.78
396.42	1200.69
396.62	1179.63
396.81	1329.42
397.00	1291.98
397.19	1284.95
397.39	1263.89
397.58	1416.02
397.77	1416.02
397.97	1448.79
398.16	1558.80
398.35	1453.47
398.55	1460.49
398.74	1551.78
398.93	1467.52
399.12	1521.35
399.32	1547.09
399.51	1570.50
399.70	1542.41
399.90	1563.48
400.09	1603.27
400.28	1577.52
400.47	1640.72
400.67	1675.82
400.86	1685.19
401.05	1799.87
401.24	1762.42
401.44	1771.79
401.63	1797.53
401.82	1863.07
402.01	1783.49
402.21	1767.10
402.40	1881.79
402.59	1902.86
402.78	1720.29
402.97	1708.59
403.17	1895.83
403.36	1865.41
403.55	1870.09
403.74	1865.41
403.93	1804.55
404.13	1935.62
404.32	1898.17
404.51	1881.79
404.70	2033.93
404.89	2069.03
405.09	1961.37
405.28	1996.48
405.47	2106.48
405.66	1956.69
405.85	2066.69
406.05	1914.56
406.24	2062.01
406.43	2106.48
406.62	2160.31
406.81	2272.66
407.00	2111.16
407.20	2101.80
407.39	2094.78
407.58	2232.87
407.77	2225.85
407.96	2190.74
408.15	2291.38
408.34	2333.51
408.54	2310.11
408.73	2373.30
408.92	2235.21
409.11	2349.90
409.30	2307.77
409.49	2399.05
409.68	2293.72
409.87	2244.57
410.07	2363.94
410.26	2448.20
410.45	2499.69
410.64	2429.48
410.83	2434.16
411.02	2576.93
411.21	2565.23
411.40	2686.94
411.59	2703.32
411.78	2621.40
411.98	2637.78
412.17	2759.49
412.36	2691.62
412.55	2855.45
412.74	2815.66
412.93	2778.22
413.12	2799.28
413.31	2960.78
413.50	2892.90
413.69	2911.63
413.88	3033.33
414.07	2925.67
414.26	2977.16
414.45	3035.67
414.64	2956.10
414.83	3023.97
415.02	3000.57
415.22	3192.49
415.41	3150.36
415.60	3227.60
415.79	3353.99
415.98	3478.04
416.17	3279.09
416.36	3304.84
416.55	3279.09
416.74	3232.28
416.93	3471.01
417.12	3307.18
417.31	3339.94
417.50	3482.72
417.69	3597.40
417.88	3445.27
418.07	3435.91
418.26	3480.38
418.45	3602.08
418.64	3632.51
418.83	3602.08
419.02	3705.07
419.21	3590.38
419.39	3686.34
419.58	3569.32
419.77	3571.66
419.96	3681.66
420.15	3688.68
420.34	3796.35
420.53	3854.86
420.72	3777.62
420.91	3896.99
421.10	3885.29
421.29	3913.38
421.48	3709.75
421.67	3920.40
421.86	3838.48
422.05	3974.23
422.24	3751.88
422.43	3859.54
422.61	3840.82
422.80	4051.47
422.99	4074.87
423.18	4037.42
423.37	4121.68
423.56	4128.70
423.75	3974.23
423.94	3948.48
424.13	3875.93
424.32	3894.65
424.50	3985.93
424.69	4058.49
424.88	3969.55
425.07	3985.93
425.26	4030.40
425.45	4018.70
425.64	4042.11
425.83	3990.61
426.01	4175.52
426.20	4011.68
426.39	3990.61
426.58	3988.27
426.77	4023.38
426.96	4023.38
427.15	4072.53
427.33	4252.75
427.52	4114.66
427.71	4259.78
427.90	4166.15
428.09	4224.67
428.28	4210.62
428.46	4231.69
428.65	4208.28
428.84	4428.29
429.03	4430.63
429.22	4231.69
429.40	4142.75
429.59	4299.56
429.78	4109.98
429.97	3976.57
430.16	4023.38
430.34	4170.83
430.53	4255.09
430.72	4290.20
430.91	4278.50
431.10	4456.38
431.28	4711.50
431.47	4685.75
431.66	4770.01
431.85	4566.39
432.03	4582.77
432.22	4751.29
432.41	4664.69
432.60	4809.80
432.79	4854.27
432.97	4704.48
433.16	4870.65
433.35	4734.90
433.54	4720.86
433.72	4823.84
433.91	4671.71
434.10	4805.12
434.28	4737.24
434.47	4961.94
434.66	4901.08
434.85	5153.86
435.03	5191.31
435.22	5167.90
435.41	5261.52
435.59	5135.14
435.78	5069.60
435.97	5324.72
436.16	5231.10
436.34	5294.29
436.53	5114.07
436.72	5397.28
436.90	5184.29
437.09	5369.19
437.28	5177.26
437.46	5359.83
437.65	5240.46
437.84	5352.81
438.02	5217.05
438.21	5214.71
438.40	5408.98
438.58	5621.97
438.77	5565.79
438.96	5516.64
439.14	5696.86
439.33	5668.78
439.52	5743.67
439.70	5657.07
439.89	5860.70
440.08	5771.76
440.26	5841.98
440.45	5797.51
440.63	5877.09
440.82	5998.79
441.01	6043.26
441.19	6113.48
441.38	6188.38
441.57	6223.48
441.75	6188.38
441.94	6340.51
442.12	6345.19
442.31	6541.80
442.50	6413.07
442.68	6370.94
442.87	6417.75
443.05	6455.20
443.24	6761.81
443.43	6392.00
443.61	6619.04
443.80	6640.10
443.98	6445.84
444.17	6305.40
444.35	6579.25
444.54	6927.99
444.73	6703.29
444.91	6604.99
445.10	6532.44
445.28	6539.46
445.47	6558.18
445.65	6649.46
445.84	6682.23
446.02	6738.40
446.21	6689.25
446.39	6731.38
446.58	6768.83
446.77	6850.75
446.95	6513.71
447.14	6722.02
447.32	6761.81
447.51	6857.77
447.69	6799.26
447.88	6937.35
448.06	6761.81
448.25	6768.83
448.43	6792.23
448.62	6967.77
448.80	6675.21
448.99	6958.41
449.17	7045.01
449.36	6909.26
449.54	7166.72
449.73	7110.55
449.91	7178.42
450.10	7101.19
450.28	7461.63
450.46	7115.23
450.65	7253.32
450.83	7234.60
451.02	7218.21
451.20	7365.67
451.39	7243.96
451.57	7304.81
451.76	7405.46
451.94	7323.54
452.13	7503.76
452.31	7403.11
452.49	7187.79
452.68	7419.50
452.86	7286.09
453.05	7424.18
453.23	7438.22
453.42	7382.05
453.60	7513.12
453.78	7592.70
453.97	7445.24
454.15	7592.70
454.34	7520.14
454.52	7658.23
454.70	7566.95
454.89	7431.20
455.07	7719.09
455.26	7721.43
455.44	7768.24
455.62	7913.35
455.81	7744.83
455.99	7978.89
456.17	7831.43
456.36	8049.10
456.54	8138.04
456.73	8264.43
456.91	8142.72
457.09	8262.09
457.28	8461.04
457.46	8138.04
457.64	8294.86
457.83	8262.09
458.01	8152.09
458.19	8329.97
458.38	8102.93
458.56	8573.38
458.74	8278.47
458.93	8203.58
459.11	8470.40
459.29	8446.99
459.48	8641.26
459.66	8500.83
459.84	8608.49
460.03	8699.77
460.21	8877.65
460.39	8704.45
460.57	8643.60
460.76	8685.73
460.94	9008.72
461.12	8704.45
461.31	8709.13
461.49	8727.86
461.67	8748.92
461.85	8936.17
462.04	8973.61
462.22	9284.91
462.40	9170.22
462.59	9111.71
462.77	8966.59
462.95	8896.38
463.13	9135.11
463.32	9053.19
463.50	9172.56
463.68	9179.58
463.86	9158.52
464.05	8971.27
464.23	9092.98
464.41	9345.76
464.59	9212.35
464.78	9277.88
464.96	9371.50
465.14	9118.73
465.32	9460.45
465.50	9486.19
465.69	9420.66
465.87	9287.25
466.05	9373.85
466.23	9191.28
466.41	9210.01
466.60	9507.26
466.78	9291.93
466.96	9479.17
467.14	9591.52
467.32	9654.71
467.51	9628.96
467.69	9284.91
467.87	9556.41
468.05	9760.03
468.23	9376.19
468.41	9561.09
468.60	9462.79
468.78	9996.43
468.96	9596.20
469.14	9856.00
469.32	10019.83
469.50	9626.62
469.69	9881.74
469.87	9820.89
470.05	10118.14
470.23	10026.86
470.41	9958.98
470.59	10029.20
470.77	10012.81
470.95	10120.48
471.14	10356.87
471.32	10019.83
471.50	10394.32
471.68	10317.08
471.86	10380.28
472.04	10597.95
472.22	10642.42
472.40	10277.29
472.58	10518.37
472.77	10537.09
472.95	10855.40
473.13	11197.12
473.31	10785.19
473.49	10799.23
473.67	10803.91
473.85	10916.26
474.03	11197.12
474.21	10977.11
474.39	11283.72
474.57	11208.83
474.75	11426.50
474.93	11206.48
475.12	11393.73
475.30	11330.53
475.48	11276.70
475.66	11550.54
475.84	11470.97
476.02	11880.56
476.20	11548.20
476.38	11733.11
476.56	12074.82
476.74	11896.94
476.92	12341.64
477.10	12058.44
477.28	12283.13
477.46	12004.61
477.64	12194.19
477.82	12711.45
478.00	12802.73
478.18	12683.36
478.36	12561.66
478.54	12805.07
478.72	12912.74
478.90	13331.69
479.08	13289.56
479.26	13378.50
479.44	13357.44
479.62	13472.12
479.80	13921.51
479.98	13532.98
480.16	13823.20
480.34	13729.58
480.52	13977.68
480.70	14141.52
480.88	13928.53
481.06	14078.32
481.24	14244.50
481.41	14740.69
481.59	14513.66
481.77	14892.83
481.95	14920.92
482.13	14738.35
482.31	14607.28
482.49	15136.24
482.67	15136.24
482.85	15176.03
483.03	15625.42
483.21	15543.50
483.39	15613.71
483.57	15529.45
483.74	15765.85
483.92	15946.07
484.10	15845.43
484.28	15920.32
484.46	16695.04
484.64	16444.60
484.82	16137.99
485.00	16451.63
485.18	16816.75
485.35	16795.68
485.53	16655.25
485.71	16339.28
485.89	16783.98
486.07	16746.53
486.25	16765.26
486.43	17268.47
486.61	17214.64
486.78	17472.10
486.96	18059.57
487.14	18134.47
487.32	17851.27
487.50	17923.82
487.68	18588.53
487.85	18476.19
488.03	19044.94
488.21	18806.20
488.39	18876.42
488.57	19014.51
488.75	19152.60
488.92	19260.27
489.10	19861.79
489.28	19604.33
489.46	20219.89
489.64	20208.19
489.81	20306.49
489.99	20416.49
490.17	20500.75
490.35	20603.74
490.53	20725.44
490.70	20779.28
490.88	20793.32
491.06	21467.39
491.24	21186.53
491.41	21418.24
491.59	21291.85
491.77	21273.13
491.95	21628.89
492.13	21809.11
492.30	21813.79
492.48	22167.21
492.66	22092.32
492.84	22419.99
493.01	22759.37
493.19	22192.96
493.37	23002.78
493.54	23089.38
493.72	23110.45
493.90	23283.65
494.08	23278.97
494.25	23557.49
494.43	23386.63
494.61	23779.84
494.79	23812.61
494.96	23857.08
495.14	23761.12
495.32	23931.98
495.49	24393.06
495.67	24346.25
495.85	24573.28
496.02	24905.64
496.20	24664.57
496.38	24812.02
496.55	24802.66
496.73	25806.75
496.91	25511.84
497.09	25715.47
497.26	25624.18
497.44	25296.51
497.62	25525.88
497.79	25614.82
497.97	25696.74
498.14	25926.11
498.32	26082.93
498.50	26078.25
498.67	26377.84
498.85	26485.50
499.03	26925.52
499.20	26696.15
499.38	26906.80
499.56	26714.87
499.73	26916.16
499.91	27094.04
500.08	27065.96
500.26	26665.72
500.44	26815.52
500.61	27447.46
500.79	27496.61
500.97	27548.11
501.14	27440.44
501.32	27243.84
501.49	27665.13
501.67	27716.62
501.84	27990.47
502.02	28208.14
502.20	28371.97
502.37	28254.95
502.55	28287.71
502.72	28247.93
502.90	28692.63
503.07	28414.10
503.25	28699.65
503.43	28697.31
503.60	28606.03
503.78	28624.75
503.95	29156.05
504.13	29301.17
504.30	29181.80
504.48	28788.59
504.65	29392.45
504.83	29881.62
505.01	29876.94
505.18	29738.85
505.36	29855.87
505.53	29806.72
505.71	29902.68
505.88	30270.15
506.06	30066.52
506.23	30153.12
506.41	30047.80
506.58	30118.01
506.76	30162.48
506.93	30635.27
507.11	30433.99
507.28	30490.16
507.46	30579.10
507.63	30630.59
507.81	30925.50
507.98	30441.01
508.16	31199.34
508.33	31545.74
508.50	31108.06
508.68	31562.12
508.85	31505.95
509.03	31564.46
509.20	31842.99
509.38	31826.60
509.55	31906.18
509.73	31592.55
509.90	32163.64
510.08	31742.35
510.25	31955.33
510.42	32240.88
510.60	32292.37
510.77	32308.76
510.95	32507.70
511.12	32568.55
511.30	32486.64
511.47	33116.24
511.64	32980.49
511.82	32926.66
511.99	32517.06
512.17	32968.79
512.34	32800.27
512.51	33394.76
512.69	33354.97
512.86	33263.69
513.04	33713.08
513.21	33359.66
513.38	33591.37
513.56	33291.78
513.73	33163.05
513.90	33832.44
514.08	33385.40
514.25	33766.91
514.43	33907.34
514.60	33628.82
514.77	33472.00
514.95	34309.91
515.12	34293.53
515.29	34368.43
515.47	34703.12
515.64	35143.14
515.81	34799.08
515.99	34389.49
516.16	34335.66
516.33	34389.49
516.51	34199.91
516.68	33996.28
516.85	34085.22
517.03	34483.11
517.20	34679.72
517.37	34602.48
517.54	34955.90
517.72	34958.24
517.89	34132.03
518.06	34787.38
518.24	34703.12
518.41	34721.85
518.58	35082.29
518.75	35051.86
518.93	35651.04
519.10	35559.76
519.27	35641.68
519.45	35498.91
519.62	36060.63
519.79	35899.14
519.96	35847.64
520.14	36105.10
520.31	35688.49
520.48	36177.66
520.65	36371.92
520.83	36715.98
521.00	36390.65
521.17	36627.04
521.34	36732.37
521.52	37038.98
521.69	37144.30
521.86	37235.58
522.03	36959.40
522.20	36980.46
522.38	36765.14
522.55	36893.86
522.72	37151.32
522.89	37111.53
523.07	37385.38
523.24	37371.33
523.41	37818.38
523.58	37441.55
523.75	38244.35
523.92	38045.41
524.10	38117.96
524.27	38031.36
524.44	37778.59
524.61	38579.05
524.78	38157.75
524.96	38651.61
525.13	38352.02
525.30	38270.10
525.47	38927.79
525.64	38258.40
525.81	38455.00
525.98	38139.03
526.16	38075.84
526.33	38007.96
526.50	38256.06
526.67	38094.56
526.84	37947.11
527.01	38043.07
527.18	38476.07
527.36	39040.14
527.53	39093.97
527.70	39154.82
527.87	39281.21
528.04	39112.69
528.21	38897.36
528.38	39335.04
528.55	39295.25
528.72	39501.22
528.89	39599.52
529.07	39990.39
529.24	39178.23
529.41	39608.89
529.58	38995.67
529.75	39737.62
529.92	39695.49
530.09	39845.28
530.26	40179.98
530.43	39995.07
530.60	39772.72
530.77	40116.78
530.94	40076.99
531.11	40058.27
531.28	40584.89
531.46	40121.46
531.63	40278.28
531.80	40261.90
531.97	40362.54
532.14	40179.98
532.31	39765.70
532.48	40172.96
532.65	40620.00
532.82	40423.39
532.99	40917.25
533.16	40587.23
533.33	40612.98
533.50	40776.81
533.67	40804.90
533.84	40795.54
534.01	40657.45
534.18	40879.80
534.35	41291.73
534.52	40732.34
534.69	41706.01
534.86	41273.01
535.03	40996.82
535.20	41560.89
535.37	41743.45
535.54	41488.34
535.71	41244.92
535.88	41366.63
536.05	41312.80
536.22	41680.26
536.38	41544.51
536.55	41378.33
536.72	41464.93
536.89	41177.04
537.06	41329.18
537.23	41820.69
537.40	41659.20
537.57	41837.08
537.74	41886.23
537.91	41954.10
538.08	42363.70
538.25	41755.16
538.42	42347.31
538.59	42356.67
538.75	42092.19
538.92	42064.11
539.09	42230.29
539.26	42206.88
539.43	42263.05
539.60	42050.06
539.77	41853.46
539.94	42539.24
540.11	42066.45
540.28	41710.69
540.44	41862.82
540.61	42040.70
540.78	42071.13
540.95	42340.29
541.12	42408.17
541.29	42700.73
541.46	42447.96
541.62	42906.70
541.79	43026.07
541.96	42340.29
542.13	42513.49
542.30	42951.17
542.47	43068.20
542.63	43012.02
542.80	42777.97
542.97	43423.96
543.14	43374.81
543.31	43208.63
543.48	43524.60
543.64	43885.04
543.81	44016.11
543.98	43342.04
544.15	44102.71
544.32	43365.45
544.48	43962.28
544.65	43941.22
544.82	43276.51
544.99	43594.82
545.16	43533.96
545.32	43498.86
545.49	43751.63
545.66	44282.94
545.83	43744.61
546.00	44041.86
546.16	43999.73
546.33	44203.36
546.50	43590.14
546.67	43880.36
546.83	44091.01
547.00	43927.17
547.17	43922.49
547.34	43920.15
547.50	44409.32
547.67	44910.20
547.84	44664.44
548.00	44521.67
548.17	44870.41
548.34	44617.63
548.51	44538.05
548.67	44587.21
548.84	44879.77
549.01	44662.10
549.18	44587.21
549.34	44725.30
549.51	45099.78
549.68	44528.69
549.84	44788.49
550.01	44755.72
550.18	44779.13
550.34	44919.56
550.51	44650.40
550.68	44863.39
550.84	44261.87
551.01	44638.70
551.18	44395.28
551.34	45263.62
551.51	45125.53
551.68	45024.89
551.84	45317.45
552.01	45305.75
552.18	44877.43
552.34	44638.70
552.51	45219.15
552.68	44992.12
552.84	45127.87
553.01	45392.35
553.18	45284.68
553.34	45071.70
553.51	44949.99
553.67	45418.10
553.84	45516.40
554.01	45460.23
554.17	45586.61
554.34	45766.84
554.51	45591.30
554.67	45869.82
554.84	45649.81
555.00	45069.36
555.17	45425.12
555.33	46087.49
555.50	45867.48
555.67	45560.87
555.83	45757.47
556.00	45883.86
556.16	46059.40
556.33	46120.26
556.50	45794.92
556.66	45914.29
556.83	45624.06
556.99	45750.45
557.16	45923.65
557.32	45787.90
557.49	45815.99
557.65	45394.69
557.82	45715.34
557.98	45968.12
558.15	45675.55
558.32	45776.20
558.48	46230.26
558.65	45654.49
558.81	46021.95
558.98	46064.08
559.14	46146.00
559.31	45993.87
559.47	46183.45
559.64	46230.26
559.80	46541.55
559.97	46656.24
560.13	46361.33
560.30	45851.09
560.46	46483.04
560.63	46110.89
560.79	46321.54
560.96	46735.82
561.12	46323.88
561.29	46576.66
561.45	46373.03
561.61	46476.02
561.78	46447.93
561.94	45916.63
562.11	45811.31
562.27	46188.13
562.44	46197.49
562.60	46174.09
562.77	46361.33
562.93	46361.33
563.10	46663.26
563.26	46429.21
563.42	46506.44
563.59	46777.95
563.75	46628.15
563.92	46799.01
564.08	46810.71
564.24	46686.67
564.41	46419.84
564.57	46920.72
564.74	46909.02
564.90	46609.43
565.07	46705.39
565.23	46487.72
565.39	46497.08
565.56	46827.10
565.72	46422.19
565.88	46492.40
566.05	46377.72
566.21	46646.88
566.38	46817.74
566.54	46873.91
566.70	46770.93
566.87	46815.40
567.03	46541.55
567.19	47372.44
567.36	47089.24
567.52	46564.96
567.68	46787.31
567.85	47044.77
568.01	46813.05
568.17	46658.58
568.34	46726.46
568.50	46887.95
568.66	46775.61
568.83	46953.49
568.99	46714.75
569.15	46665.60
569.32	46581.34
569.48	46525.17
569.64	47072.85
569.81	46651.56
569.97	46951.15
570.13	46651.56
570.30	46300.48
570.46	46541.55
570.62	46459.63
570.78	46508.79
570.95	46724.11
571.11	46611.77
571.27	46623.47
571.43	46721.77
571.60	46890.29
571.76	46476.02
571.92	46691.35
572.09	47145.41
572.25	46607.09
572.41	47203.92
572.57	47054.13
572.74	47360.74
572.90	46990.94
573.06	46937.10
573.22	47065.83
573.38	46967.53
573.55	47068.17
573.71	46899.65
573.87	47440.32
574.03	46450.27
574.20	47093.92
574.36	46644.54
574.52	47501.17
574.68	47288.18
574.84	47049.45
575.01	46988.60
575.17	47096.26
575.33	46408.14
575.49	46700.71
575.65	46969.87
575.82	47021.36
575.98	47054.13
576.14	47157.11
576.30	47192.22
576.46	46883.27
576.62	46756.88
576.79	47100.94
576.95	46476.02
577.11	46836.46
577.27	46878.59
577.43	46955.83
577.59	47257.76
577.75	47189.88
577.92	46752.20
578.08	46209.20
578.24	46813.05
578.40	46567.30
578.56	46518.15
578.72	46611.77
578.88	47040.09
579.04	47119.66
579.21	47154.77
579.37	46733.48
579.53	46787.31
579.69	46894.97
579.85	47051.79
580.01	47012.00
580.17	47107.96
580.33	47243.71
580.49	46696.03
580.65	47402.87
580.82	47224.99
580.98	46932.42
581.14	46887.95
581.30	47442.66
581.46	46990.94
581.62	47264.78
581.78	46857.52
581.94	47381.80
582.10	47173.50
582.26	47063.49
582.42	46934.76
582.58	46892.63
582.74	46967.53
582.90	47210.95
583.06	47318.61
583.22	47339.68
583.38	47068.17
583.54	46960.51
583.70	47571.39
583.86	47189.88
584.02	46738.16
584.18	47173.50
584.34	47054.13
584.50	47114.98
584.66	46728.80
584.82	46927.74
584.98	47512.88
585.14	47185.20
585.30	47068.17
585.46	46878.59
585.62	46941.78
585.78	47105.62
585.94	46749.86
586.10	46850.50
586.26	46920.72
586.42	47248.39
586.58	47178.18
586.74	46817.74
586.90	46883.27
587.06	47014.34
587.22	47051.79
587.38	46815.40
587.54	47206.26
587.70	47725.86
587.86	46850.50
588.02	47304.57
588.18	47320.95
588.34	46784.97
588.49	46827.10
588.65	46466.66
588.81	46721.77
588.97	46782.63
589.13	46646.88
589.29	46787.31
589.45	46948.81
589.61	47009.66
589.77	47372.44
589.93	47159.45
590.08	47206.26
590.24	47145.41
590.40	47667.35
590.56	47311.59
590.72	47203.92
590.88	47154.77
591.04	47227.33
591.20	47421.59
591.35	47100.94
591.51	47276.48
591.67	47117.32
591.83	47203.92
591.99	46885.61
592.15	47367.76
592.31	47353.72
592.46	47407.55
592.62	46864.55
592.78	47550.32
592.94	47330.31
593.10	47215.63
593.26	47611.18
593.41	47470.75
593.57	47002.64
593.73	47215.63
593.89	47475.43
594.05	47079.88
594.20	47201.58
594.36	47440.32
594.52	47318.61
594.68	47365.42
594.84	47318.61
594.99	47585.43
595.15	47395.85
595.31	47419.25
595.47	47210.95
595.62	47082.22
595.78	47241.37
595.94	47168.82
596.10	47613.52
596.25	47667.35
596.41	47131.37
596.57	47728.20
596.73	47414.57
596.88	47264.78
597.04	47016.68
597.20	46916.04
597.36	47206.26
597.51	47775.02
597.67	47686.07
597.83	47657.99
597.99	47686.07
598.14	47459.04
598.30	47232.01
598.46	47299.89
598.61	47178.18
598.77	47194.56
598.93	47440.32
599.09	47508.19
599.24	47611.18
599.40	47597.13
599.56	47501.17
599.71	47452.02
599.87	47353.72
600.03	47522.24
600.18	47611.18
600.34	47107.96
600.50	47110.30
600.65	47145.41
600.81	47456.70
600.97	47515.22
601.12	47547.98
601.28	47501.17
601.44	47632.24
601.59	47136.05
601.75	47159.45
601.91	47505.85
602.06	47014.34
602.22	47267.12
602.37	47224.99
602.53	47463.72
602.69	47580.75
602.84	47463.72
603.00	47180.52
603.16	46983.91
603.31	47601.82
603.47	47147.75
603.62	47044.77
603.78	47292.86
603.94	47452.02
604.09	47613.52
604.25	47058.81
604.40	47437.98
604.56	47164.14
604.71	47049.45
604.87	47241.37
605.03	47393.51
605.18	47241.37
605.34	47189.88
605.49	46820.08
605.65	47224.99
605.80	47014.34
605.96	47304.57
606.12	47306.91
606.27	47412.23
606.43	46735.82
606.58	47402.87
606.74	47035.41
606.89	46976.89
607.05	46934.76
607.20	47114.98
607.36	47189.88
607.51	47140.73
607.67	47042.43
607.82	47105.62
607.98	47098.60
608.13	46972.21
608.29	46747.52
608.44	46707.73
608.60	46473.68
608.75	46646.88
608.91	46932.42
609.06	46742.84
609.22	46834.12
609.37	46859.87
609.53	46953.49
609.68	46607.09
609.84	46600.07
609.99	47224.99
610.15	46799.01
610.30	46717.09
610.46	46586.02
610.61	46735.82
610.76	46562.62
610.92	46260.69
611.07	46525.17
611.23	46227.92
611.38	46944.12
611.54	46548.57
611.69	46560.28
611.84	46436.23
612.00	46508.79
612.15	46515.81
612.31	46796.67
612.46	46241.96
612.62	46478.36
612.77	46377.72
612.92	46754.54
613.08	46490.06
613.23	46358.99
613.39	46195.15
613.54	45666.19
613.69	46169.41
613.85	46155.36
614.00	46457.29
614.15	46401.12
614.31	46616.45
614.46	46326.22
614.62	46373.03
614.77	46019.61
614.92	45710.66
615.08	46185.79
615.23	46277.07
615.38	46012.59
615.54	45642.79
615.69	45907.27
615.84	45595.98
616.00	45897.91
616.15	45858.12
616.30	45668.53
616.46	45673.21
616.61	45158.30
616.76	45537.46
616.92	45612.36
617.07	45621.72
617.22	45808.96
617.37	45659.17
617.53	45895.56
617.68	45673.21
617.83	45940.04
617.99	45656.83
618.14	46068.76
618.29	45565.55
618.45	46021.95
618.60	45394.69
618.75	45418.10
618.90	45247.24
619.06	45869.82
619.21	45638.11
619.36	45263.62
619.51	45467.25
619.67	45277.66
619.82	45546.82
619.97	45553.85
620.12	45254.26
620.28	45214.47
620.43	44886.79
620.58	45418.10
620.73	45020.20
620.89	45478.95
621.04	45336.18
621.19	44975.73
621.34	45312.77
621.49	45165.32
621.65	45015.52
621.80	44774.45
621.95	45219.15
622.10	44722.96
622.25	44624.65
622.41	44500.61
622.56	44811.90
622.71	45050.63
622.86	44708.91
623.01	44879.77
623.16	45102.12
623.32	44760.40
623.47	44849.35
623.62	44788.49
623.77	44488.90
623.92	44912.54
624.07	44608.27
624.23	44416.35
624.38	44037.18
624.53	44594.23
624.68	44737.00
624.83	44411.67
624.98	44449.11
625.13	43973.98
625.29	43704.82
625.44	44701.89
625.59	44067.61
625.74	44191.65
625.89	43871.00
626.04	43512.90
626.19	44392.94
626.34	44570.82
626.49	44369.54
626.65	44458.48
626.80	44261.87
626.95	44091.01
627.10	43590.14
627.25	43669.72
627.40	43662.69
627.55	43470.77
627.70	43112.67
627.85	43239.06
628.00	43351.40
628.15	43819.51
628.30	43648.65
628.45	43796.10
628.60	43395.87
628.76	43924.83
628.91	44004.41
629.06	44053.56
629.21	43337.36
629.36	43423.96
629.51	43433.32
629.66	43510.56
629.81	43136.07
629.96	43267.14
630.11	43438.00
630.26	43407.58
630.41	43697.80
630.56	43058.84
630.71	43016.71
630.86	43182.88
631.01	43103.31
631.16	43487.15
631.31	43037.77
631.46	42431.57
631.61	43243.74
631.76	43316.29
631.91	43269.48
632.06	43370.13
632.21	43569.07
632.36	43428.64
632.51	42632.86
632.66	43206.29
632.81	42677.33
632.96	42721.80
633.10	42801.38
633.25	42705.41
633.40	42717.12
633.55	43264.80
633.70	42859.89
633.85	43019.05
634.00	43065.86
634.15	42946.49
634.30	42438.59
634.45	43143.09
634.60	42508.81
634.75	42747.54
634.90	42588.39
635.05	42658.60
635.19	42265.39
635.34	42726.48
635.49	42440.93
635.64	42637.54
635.79	42176.45
635.94	42251.35
636.09	41907.29
636.24	42162.41
636.39	42265.39
636.53	42206.88
636.68	41935.38
636.83	41940.06
636.98	42883.30
637.13	42073.47
637.28	42389.44
637.43	41961.12
637.57	42216.24
637.72	42609.45
637.87	42106.24
638.02	42337.95
638.17	42113.26
638.32	42005.59
638.46	41888.57
638.61	41687.28
638.76	41855.80
638.91	41649.83
639.06	41776.22
639.20	41876.86
639.35	42253.69
639.50	41507.06
639.65	42223.26
639.80	41748.14
639.94	41811.33
640.09	41343.22
640.24	41467.27
640.39	41167.68
640.54	41661.54
640.68	41469.61
640.83	41787.92
640.98	41385.35
641.13	41584.30
641.27	41942.40
641.42	41539.83
641.57	41823.03
641.72	41411.10
641.86	40825.96
642.01	41258.96
642.16	41015.55
642.31	40964.06
642.45	40973.42
642.60	40886.82
642.75	41027.25
642.90	41031.93
643.04	41139.60
643.19	40463.18
643.34	41113.85
643.48	40807.24
643.63	41134.92
643.78	40620.00
643.93	40832.99
644.07	40718.30
644.22	41181.73
644.37	40596.59
644.51	40715.96
644.66	40884.48
644.81	40933.63
644.95	40624.68
645.10	40533.40
645.25	41481.31
645.39	41074.06
645.54	40762.77
645.69	40708.94
645.83	40652.76
645.98	40540.42
646.13	40683.19
646.27	40748.73
646.42	40439.78
646.57	40519.35
646.71	40407.01
646.86	40055.93
647.00	40376.58
647.15	39997.41
647.30	40507.65
647.44	40184.66
647.59	40196.36
647.74	40451.48
647.88	39873.37
648.03	39622.93
648.17	40304.02
648.32	39931.88
648.47	40467.86
648.61	39871.03
648.76	40605.95
648.90	40222.11
649.05	39831.24
649.20	39835.92
649.34	40481.91
649.49	39496.54
649.63	39452.07
649.78	39831.24
649.92	39917.84
650.07	39674.42
650.21	39842.94
650.36	39910.82
650.51	39800.81
650.65	40327.43
650.80	39969.33
650.94	40210.40
651.09	39543.35
651.23	39777.40
651.38	39828.90
651.52	39697.83
651.67	39613.57
651.81	39732.93
651.96	39136.10
652.10	39337.38
652.25	39105.67
652.39	39452.07
652.54	39353.77
652.68	39826.56
652.83	39494.20
652.97	39395.90
653.12	39562.08
653.26	39229.72
653.41	39643.99
653.55	38728.84
653.70	39192.27
653.84	39358.45
653.99	39269.51
654.13	39243.76
654.27	39058.86
654.42	39351.43
654.56	38934.81
654.71	38888.00
654.85	39005.03
655.00	38726.50
655.14	39035.45
655.29	38780.34
655.43	38831.83
655.57	38630.54
655.72	38089.88
655.86	38431.60
656.01	38031.36
656.15	38007.96
656.30	37963.49
656.44	38150.73
656.58	38801.40
656.73	38096.90
656.87	38171.80
657.01	38267.76
657.16	38078.18
657.30	37998.60
657.45	38401.17
657.59	38225.63
657.73	37923.70
657.88	38534.58
658.02	38052.43
658.16	37961.15
658.31	38660.97
658.45	38440.96
658.60	38101.58
658.74	38740.55
658.88	38312.23
659.03	37858.17
659.17	37860.51
659.31	37565.60
659.46	37326.86
659.60	37717.73
659.74	37631.13
659.89	37951.79
660.03	37614.75
660.17	37888.59
660.32	37986.89
660.46	38094.56
660.60	37668.58
660.74	37991.58
660.89	37549.21
661.03	37181.75
661.17	37083.45
661.32	37308.14
661.46	37179.41
661.60	37296.44
661.74	36910.25
661.89	37186.43
662.03	37551.56
662.17	37029.62
662.31	36987.49
662.46	37312.82
662.60	37209.84
662.74	36472.57
662.88	37116.22
663.03	36900.89
663.17	36753.43
663.31	36676.19
663.45	36641.09
663.60	36804.92
663.74	36409.37
663.88	35934.24
664.02	36306.39
664.17	36112.13
664.31	35943.61
664.45	36259.58
664.59	36498.31
664.73	36364.90
664.88	36198.73
665.02	35992.76
665.16	35974.03
665.30	36383.63
665.44	36086.38
665.59	35721.26
665.73	35662.74
665.87	35421.67
666.01	35344.43
666.15	35587.85
666.29	35644.02
666.44	35957.65
666.58	35161.87
666.72	35566.78
666.86	35840.62
667.00	35747.00
667.14	34939.52
667.28	35091.65
667.43	35187.61
667.57	35253.15
667.71	34862.28
667.85	34888.03
667.99	34930.16
668.13	34836.53
668.27	34834.19
668.41	34714.83
668.56	34724.19
668.70	34834.19
668.84	34653.97
668.98	34792.06
669.12	34396.51
669.26	34597.80
669.40	34199.91
669.54	34349.70
669.68	34338.00
669.82	33848.83
669.96	33642.86
670.10	34033.73
670.25	34272.46
670.39	34548.65
670.53	33535.20
670.67	33954.15
670.81	34387.15
670.95	34246.72
671.09	34029.05
671.23	33996.28
671.37	33750.52
671.51	33301.14
671.65	33848.83
671.79	33518.81
671.93	33418.17
672.07	33212.20
672.21	33420.51
672.35	33193.48
672.49	33249.65
672.63	32973.47
672.77	32961.76
672.91	33312.84
673.05	32566.21
673.19	32861.12
673.33	32477.27
673.47	32559.19
673.61	32465.57
673.75	32423.44
673.89	32058.32
674.03	32133.21
674.17	31922.57
674.31	32203.43
674.45	31976.40
674.59	32086.40
674.73	32027.89
674.87	31945.97
675.01	31913.20
675.15	31819.58
675.29	31861.71
675.43	32046.62
675.56	31358.50
675.70	31400.63
675.84	31644.04
675.98	30298.23
676.12	31047.21
676.26	30927.84
676.40	30672.72
676.54	31150.19
676.68	30829.54
676.82	30265.47
676.96	30300.58
677.10	30604.84
677.23	30377.81
677.37	30342.70
677.51	30431.65
677.65	30183.55
677.79	30019.71
677.93	30288.87
678.07	29748.21
678.21	29893.32
678.34	29919.07
678.48	29656.93
678.62	29553.94
678.76	29514.16
678.90	29427.56
679.04	29570.33
679.18	29376.06
679.31	29420.53
679.45	28992.22
679.59	28589.64
679.73	29022.64
679.87	29184.14
680.00	28933.70
680.14	28676.24
680.28	28474.96
680.42	28458.57
680.56	28678.58
680.70	28166.01
680.83	28334.53
680.97	28133.24
681.11	28006.85
681.25	27754.07
681.39	27714.28
681.52	28048.98
681.66	27662.79
681.80	27981.10
681.94	27564.49
682.07	27330.44
682.21	27625.34
682.35	27410.01
682.49	27480.23
682.62	27388.95
682.76	27103.40
682.90	27330.44
683.04	27030.85
683.17	27187.66
683.31	26565.08
683.45	26888.07
683.59	26614.23
683.72	26529.97
683.86	26101.65
684.00	26106.34
684.13	26185.91
684.27	26274.85
684.41	26068.89
684.55	25820.79
684.68	25469.71
684.82	25453.33
684.96	25687.38
685.09	25617.16
685.23	25593.76
685.37	25333.96
685.50	25495.46
685.64	25455.67
685.78	25120.97
685.91	25046.07
686.05	25350.34
686.19	24383.70
686.32	24922.02
686.46	24533.50
686.60	24093.47
686.73	23922.62
686.87	23765.80
687.01	23971.77
687.14	23859.42
687.28	23557.49
687.42	23812.61
687.55	23447.49
687.69	23967.09
687.82	23487.28
687.96	23510.68
688.10	23206.41
688.23	23459.19
688.37	23166.62
688.50	22913.84
688.64	23159.60
688.78	23150.24
688.91	22651.70
689.05	22998.10
689.18	22443.40
689.32	22216.36
689.46	22436.38
689.59	22506.59
689.73	22375.52
689.86	22656.39
690.00	22635.32
690.13	22548.72
690.27	22136.79
690.41	22328.71
690.54	22192.96
690.68	22230.41
690.81	21605.49
690.95	21411.22
691.08	21640.59
691.22	21855.92
691.35	21612.51
691.49	21303.56
691.62	21502.50
691.76	21525.91
691.89	21523.57
692.03	21076.52
692.16	21060.14
692.30	21078.86
692.43	20865.88
692.57	20638.84
692.70	20889.28
692.84	20879.92
692.97	20617.78
693.11	20716.08
693.24	20423.51
693.38	20250.32
693.51	19936.68
693.65	20205.84
693.78	20098.18
693.92	20257.34
694.05	20114.56
694.19	20114.56
694.32	19861.79
694.45	20114.56
694.59	19758.80
694.72	19501.34
694.86	19367.93
694.99	19335.17
695.13	19290.70
695.26	19236.86
695.39	18766.42
695.53	18993.45
695.66	19227.50
695.80	19126.86
695.93	19023.87
696.07	18684.50
696.20	18965.36
696.33	18752.37
696.47	18590.88
696.60	18396.61
696.73	18611.94
696.87	18499.59
697.00	18361.50
697.14	18223.41
697.27	18012.76
697.40	18176.60
697.54	17954.25
697.67	18071.28
697.80	17886.37
697.94	17572.74
698.07	17682.75
698.21	17397.20
698.34	17481.46
698.47	17291.88
698.61	16842.50
698.74	17163.15
698.87	16968.88
699.01	16872.92
699.14	16732.49
699.27	16966.54
699.40	17209.96
699.54	16819.09
699.67	16837.81
699.80	16706.74
699.94	16528.86
700.07	16748.87
700.20	16641.21
700.34	16191.83
700.47	16250.34
700.60	16404.81
700.73	16287.79
700.87	16262.04
701.00	15868.83
701.13	15929.69
701.26	15922.66
701.40	15999.90
701.53	15714.36
701.66	15810.32
701.79	15676.91
701.93	15353.91
702.06	15342.21
702.19	15339.87
702.32	15597.33
702.46	15243.91
702.59	15276.68
702.72	15218.16
702.85	15051.99
702.99	15229.87
703.12	15110.50
703.25	15208.80
703.38	14963.04
703.51	14916.23
703.65	14871.76
703.78	14806.23
703.91	14548.77
704.04	14597.92
704.17	14834.32
704.31	14193.01
704.44	14448.13
704.57	14391.95
704.70	14059.60
704.83	13933.21
704.96	14167.26
705.10	13858.31
705.23	14223.44
>>>>>End Processed Spectral Data<<<<<
