SpectraSuite Data File
++++++++++++++++++++++++++++++++++++
Date: Fri Oct 25 11:33:32 EDT 2013
User: price-jones
Dark Spectrum Present: No
Reference Spectrum Present: No
Number of Sampled Component Spectra: 1
Spectrometers: USB2+H05261
Integration Time (usec): 100000 (USB2+H05261)
Spectra Averaged: 1 (USB2+H05261)
Boxcar Smoothing: 0 (USB2+H05261)
Correct for Electrical Dark: No (USB2+H05261)
Strobe/Lamp Enabled: No (USB2+H05261)
Correct for Detector Non-linearity: No (USB2+H05261)
Correct for Stray Light: No (USB2+H05261)
Number of Pixels in Processed Spectrum: 2048
>>>>>Begin Processed Spectral Data<<<<<
365.73	271.50
365.92	271.50
366.12	271.50
366.32	191.92
366.52	135.75
366.72	119.37
366.91	175.54
367.11	201.29
367.31	182.56
367.51	152.13
367.70	234.05
367.90	196.60
368.10	189.58
368.30	184.90
368.49	159.16
368.69	170.86
368.89	119.37
369.09	196.60
369.28	184.90
369.48	210.65
369.68	229.37
369.87	205.97
370.07	255.12
370.27	285.55
370.47	379.17
370.66	479.81
370.86	454.06
371.06	505.56
371.25	617.90
371.45	479.81
371.65	519.60
371.84	566.41
372.04	559.39
372.24	566.41
372.44	533.64
372.63	557.05
372.83	610.88
373.03	645.99
373.22	653.01
373.42	641.31
373.62	610.88
373.81	610.88
374.01	613.22
374.21	585.13
374.40	589.82
374.60	603.86
374.79	664.71
374.99	613.22
375.19	669.39
375.38	629.60
375.58	638.97
375.78	660.03
375.97	655.35
376.17	664.71
376.37	662.37
376.56	643.65
376.76	664.71
376.95	702.16
377.15	695.14
377.35	706.84
377.54	718.54
377.74	657.69
377.93	720.88
378.13	704.50
378.33	671.73
378.52	671.73
378.72	758.33
378.91	793.44
379.11	720.88
379.31	674.07
379.50	667.05
379.70	748.97
379.89	755.99
380.09	636.63
380.28	657.69
380.48	674.07
380.68	695.14
380.87	805.14
381.07	695.14
381.26	755.99
381.46	779.40
381.65	823.87
381.85	737.27
382.04	791.10
382.24	730.25
382.43	781.74
382.63	711.52
382.83	821.53
383.02	793.44
383.22	835.57
383.41	826.21
383.61	763.01
383.80	816.85
384.00	821.53
384.19	800.46
384.39	809.83
384.58	753.65
384.78	819.19
384.97	788.76
385.17	791.10
385.36	884.72
385.56	837.91
385.75	849.61
385.95	812.17
386.14	952.60
386.34	840.25
386.53	858.98
386.72	823.87
386.92	894.08
387.11	901.11
387.31	940.90
387.50	901.11
387.70	880.04
387.89	851.96
388.09	875.36
388.28	875.36
388.48	875.36
388.67	917.49
388.86	992.39
389.06	940.90
389.25	901.11
389.45	926.85
389.64	877.70
389.84	976.00
390.03	992.39
390.22	961.96
390.42	994.73
390.61	905.79
390.81	919.83
391.00	983.02
391.19	950.26
391.39	966.64
391.58	1043.88
391.78	1055.58
391.97	994.73
392.16	971.32
392.36	1022.81
392.55	1104.73
392.75	1053.24
392.94	1156.22
393.13	1029.84
393.33	1029.84
393.52	1020.47
393.71	1139.84
393.91	1069.62
394.10	1078.99
394.29	1128.14
394.49	1074.31
394.68	1034.52
394.88	1081.33
395.07	1107.07
395.26	1088.35
395.46	1177.29
395.65	1139.84
395.84	1146.86
396.04	1296.66
396.23	1268.57
396.42	1280.27
396.62	1205.38
396.81	1263.89
397.00	1233.46
397.19	1301.34
397.39	1217.08
397.58	1249.85
397.77	1214.74
397.97	1247.51
398.16	1301.34
398.35	1362.19
398.55	1273.25
398.74	1331.76
398.93	1343.47
399.12	1256.87
399.32	1284.95
399.51	1341.13
399.70	1338.79
399.90	1306.02
400.09	1406.66
400.28	1411.34
400.47	1401.98
400.67	1427.73
400.86	1401.98
401.05	1416.02
401.24	1411.34
401.44	1399.64
401.63	1357.51
401.82	1500.28
402.01	1406.66
402.21	1504.96
402.40	1544.75
402.59	1511.99
402.78	1516.67
402.97	1507.30
403.17	1514.33
403.36	1448.79
403.55	1519.01
403.74	1607.95
403.93	1652.42
404.13	1633.69
404.32	1610.29
404.51	1596.25
404.70	1661.78
404.89	1563.48
405.09	1586.88
405.28	1605.61
405.47	1750.72
405.66	1724.97
405.85	1762.42
406.05	1682.85
406.24	1799.87
406.43	1802.21
406.62	1823.28
406.81	1818.60
407.00	1753.06
407.20	1825.62
407.39	1809.23
407.58	1839.66
407.77	1811.57
407.96	1905.20
408.15	1823.28
408.34	1884.13
408.54	1937.96
408.73	1952.01
408.92	1944.99
409.11	1991.80
409.30	1994.14
409.49	2022.22
409.68	2026.90
409.87	2104.14
410.07	2136.91
410.26	2078.40
410.45	2054.99
410.64	2043.29
410.83	2127.55
411.02	2052.65
411.21	2169.68
411.40	2083.08
411.59	2223.51
411.78	2249.25
411.98	2221.17
412.17	2232.87
412.36	2235.21
412.55	2267.98
412.74	2293.72
412.93	2342.88
413.12	2298.41
413.31	2366.28
413.50	2438.84
413.69	2466.92
413.88	2427.14
414.07	2401.39
414.26	2452.88
414.45	2546.50
414.64	2520.76
414.83	2612.04
415.02	2754.81
415.22	2607.36
415.41	2686.94
415.60	2579.27
415.79	2668.21
415.98	2944.39
416.17	2712.68
416.36	2825.03
416.55	2745.45
416.74	2785.24
416.93	2794.60
417.12	2778.22
417.31	2827.37
417.50	2906.95
417.69	2932.69
417.88	2963.12
418.07	3049.72
418.26	3026.31
418.45	2888.22
418.64	3075.46
418.83	3122.27
419.02	3087.17
419.21	3105.89
419.39	3234.62
419.58	3047.38
419.77	3019.29
419.96	3148.02
420.15	3171.43
420.34	3133.98
420.53	3131.64
420.72	3215.90
420.91	3218.24
421.10	3190.15
421.29	3316.54
421.48	3220.58
421.67	3330.58
421.86	3356.33
422.05	3335.26
422.24	3375.05
422.43	3272.07
422.61	3372.71
422.80	3466.33
422.99	3503.78
423.18	3407.82
423.37	3442.93
423.56	3412.50
423.75	3342.28
423.94	3283.77
424.13	3176.11
424.32	3309.52
424.50	3435.91
424.69	3627.83
424.88	3442.93
425.07	3321.22
425.26	3442.93
425.45	3412.50
425.64	3473.36
425.83	3442.93
426.01	3478.04
426.20	3482.72
426.39	3515.48
426.58	3452.29
426.77	3487.40
426.96	3534.21
427.15	3391.44
427.33	3463.99
427.52	3606.77
427.71	3639.53
427.90	3676.98
428.09	3679.32
428.28	3555.27
428.46	3592.72
428.65	3693.37
428.84	3892.31
429.03	3826.78
429.22	3754.22
429.40	3733.15
429.59	3620.81
429.78	3499.10
429.97	3597.40
430.16	3669.96
430.34	3868.91
430.53	3847.84
430.72	4011.68
430.91	3981.25
431.10	3932.10
431.28	3875.93
431.47	3967.21
431.66	3915.72
431.85	4007.00
432.03	4021.04
432.22	4060.83
432.41	4077.21
432.60	4025.72
432.79	4088.92
432.97	4205.94
433.16	4107.64
433.35	4166.15
433.54	4074.87
433.72	4161.47
433.91	4191.90
434.10	4215.30
434.28	4149.77
434.47	4287.86
434.66	4301.90
434.85	4255.09
435.03	4259.78
435.22	4278.50
435.41	4337.01
435.59	4299.56
435.78	4491.49
435.97	4568.73
436.16	4365.10
436.34	4407.23
436.53	4411.91
436.72	4613.20
436.90	4528.94
437.09	4454.04
437.28	4444.68
437.46	4547.66
437.65	4447.02
437.84	4627.24
438.02	4589.79
438.21	4596.81
438.40	4610.86
438.58	4744.27
438.77	5013.43
438.96	4671.71
439.14	4774.69
439.33	4891.72
439.52	4781.71
439.70	4940.87
439.89	4910.44
440.08	4954.91
440.26	4940.87
440.45	4973.64
440.63	5144.50
440.82	5034.49
441.01	5102.37
441.19	5116.41
441.38	5179.61
441.57	5327.06
441.75	5313.02
441.94	5437.06
442.12	5366.85
442.31	5446.43
442.50	5458.13
442.68	5430.04
442.87	5483.88
443.05	5434.72
443.24	5647.71
443.43	5568.13
443.61	5518.98
443.80	5727.29
443.98	5554.09
444.17	5249.82
444.35	5509.62
444.54	5776.44
444.73	5799.85
444.91	5638.35
445.10	5584.52
445.28	5703.89
445.47	5640.69
445.65	5575.16
445.84	5778.78
446.02	5626.65
446.21	5579.84
446.39	5647.71
446.58	5680.48
446.77	5764.74
446.95	5626.65
447.14	5778.78
447.32	5930.92
447.51	5724.95
447.69	5736.65
447.88	5626.65
448.06	5827.93
448.25	5879.43
448.43	5849.00
448.62	5877.09
448.80	5760.06
448.99	5872.40
449.17	5764.74
449.36	5748.36
449.54	5834.96
449.73	5942.62
449.91	6167.31
450.10	6061.99
450.28	6197.74
450.46	6087.73
450.65	6080.71
450.83	6246.89
451.02	6188.38
451.20	6190.72
451.39	6069.01
451.57	6122.84
451.76	6085.39
451.94	6258.59
452.13	6214.12
452.31	6321.79
452.49	6249.23
452.68	6368.60
452.86	6176.67
453.05	6310.08
453.23	6455.20
453.42	6162.63
453.60	6310.08
453.78	6485.62
453.97	6321.79
454.15	6380.30
454.34	6207.10
454.52	6492.65
454.70	6487.96
454.89	6473.92
455.07	6513.71
455.26	6712.66
455.44	6504.35
455.62	6806.28
455.81	6628.40
455.99	6785.21
456.17	6722.02
456.36	6846.07
456.54	6904.58
456.73	6909.26
456.91	7059.06
457.09	6848.41
457.28	7145.66
457.46	6918.62
457.64	7276.73
457.83	7089.48
458.01	6916.28
458.19	7133.95
458.38	7021.61
458.56	7108.21
458.74	7304.81
458.93	7007.56
459.11	7166.72
459.29	7143.32
459.48	7281.41
459.66	7222.89
459.84	7372.69
460.03	7470.99
460.21	7517.80
460.39	7461.63
460.57	7456.95
460.76	7438.22
460.94	7356.30
461.12	7595.04
461.31	7433.54
461.49	7555.25
461.67	7475.67
461.85	7566.95
462.04	7578.65
462.22	8194.22
462.40	7599.72
462.59	7700.36
462.77	7679.30
462.95	7651.21
463.13	7857.18
463.32	7892.29
463.50	7836.11
463.68	7812.71
463.86	7885.26
464.05	7824.41
464.23	7801.01
464.41	7894.63
464.59	7847.82
464.78	8004.63
464.96	8224.64
465.14	7976.55
465.32	7974.21
465.50	8238.69
465.69	8299.54
465.87	8067.83
466.05	8159.11
466.23	8077.19
466.41	8168.47
466.60	8301.88
466.78	8128.68
466.96	8306.56
467.14	8243.37
467.32	8388.48
467.51	8411.89
467.69	8079.53
467.87	8423.59
468.05	8320.60
468.23	8482.10
468.41	8140.38
468.60	8531.25
468.78	8531.25
468.96	8234.00
469.14	8674.03
469.32	8674.03
469.50	8367.42
469.69	8655.30
469.87	8542.96
470.05	8655.30
470.23	9029.79
470.41	8844.88
470.59	8947.87
470.77	8730.20
470.95	8732.54
471.14	9111.71
471.32	8875.31
471.50	9139.79
471.68	9008.72
471.86	9050.85
472.04	9205.33
472.22	9355.12
472.40	9104.68
472.58	9252.14
472.77	9350.44
472.95	9437.04
473.13	9701.52
473.31	9383.21
473.49	9366.82
473.67	9603.22
473.85	9617.26
474.03	9795.14
474.21	9872.38
474.39	9715.56
474.57	9666.41
474.75	9823.23
474.93	10047.92
475.12	9966.00
475.30	10132.18
475.48	9785.78
475.66	10209.42
475.84	10326.44
476.02	10293.68
476.20	10286.65
476.38	10396.66
476.56	10506.66
476.74	10775.83
476.92	10399.00
477.10	10441.13
477.28	10633.05
477.46	10679.86
477.64	10750.08
477.82	10782.85
478.00	11094.14
478.18	11077.76
478.36	11129.25
478.54	11239.25
478.72	11592.67
478.90	11485.01
479.08	11763.53
479.26	11531.82
479.44	11786.94
479.62	11728.42
479.80	11730.76
479.98	11971.84
480.16	12212.92
480.34	12079.50
480.52	12252.70
480.70	12308.88
480.88	12114.61
481.06	12287.81
481.24	12285.47
481.41	12538.25
481.59	12772.30
481.77	12896.35
481.95	12865.92
482.13	12905.71
482.31	13291.90
482.49	13383.18
482.67	13366.80
482.85	13460.42
483.03	13561.06
483.21	13701.50
483.39	13687.45
483.57	13722.56
483.74	13872.36
483.92	13881.72
484.10	14314.72
484.28	14307.69
484.46	14450.47
484.64	14630.69
484.82	14642.39
485.00	14707.93
485.18	14965.39
485.35	15314.13
485.53	15311.78
485.71	14984.11
485.89	15616.05
486.07	15279.02
486.25	15417.11
486.43	15482.64
486.61	15882.88
486.78	15847.77
486.96	15822.02
487.14	16037.35
487.32	16004.58
487.50	16198.85
487.68	16313.53
487.85	16496.10
488.03	16657.59
488.21	17041.44
488.39	16999.31
488.57	17238.05
488.75	17266.13
488.92	17514.23
489.10	17905.10
489.28	17640.62
489.46	17638.28
489.64	17579.76
489.81	18434.06
489.99	18064.25
490.17	17963.61
490.35	18471.51
490.53	18668.11
490.70	18815.57
490.88	18733.65
491.06	18958.34
491.24	18743.01
491.41	18787.48
491.59	19087.07
491.77	19176.01
491.95	19466.24
492.13	19700.29
492.30	19843.06
492.48	19857.10
492.66	19864.13
492.84	19878.17
493.01	19967.11
493.19	20262.02
493.37	20107.54
493.54	20456.28
493.72	20823.75
493.90	20650.55
494.08	20769.91
494.25	20582.67
494.43	21050.78
494.61	21135.04
494.79	21144.40
494.96	21069.50
495.14	21465.05
495.32	22001.04
495.49	21404.20
495.67	21802.09
495.85	22022.10
496.02	22370.84
496.20	22567.45
496.38	22338.07
496.55	22312.33
496.73	23098.75
496.91	22335.73
497.09	23070.66
497.26	23023.85
497.44	22923.21
497.62	23274.29
497.79	23508.34
497.97	23438.12
498.14	23726.01
498.32	24046.66
498.50	23889.85
498.67	24049.00
498.85	23812.61
499.03	24074.75
499.20	23653.45
499.38	24128.58
499.56	24292.42
499.73	24278.38
499.91	24393.06
500.08	24833.08
500.26	24861.17
500.44	24863.51
500.61	24893.94
500.79	24837.76
500.97	24987.56
501.14	25102.25
501.32	25509.50
501.49	25233.32
501.67	25940.16
501.84	25350.34
502.02	25678.02
502.20	25652.27
502.37	25844.20
502.55	25970.58
502.72	25914.41
502.90	26209.32
503.07	26080.59
503.25	25874.62
503.43	26101.65
503.60	26216.34
503.78	26473.80
503.95	26216.34
504.13	26506.57
504.30	26761.69
504.48	27056.59
504.65	26806.16
504.83	27089.36
505.01	26934.88
505.18	27051.91
505.36	27129.15
505.53	27309.37
505.71	27442.78
505.88	27604.28
506.06	27410.01
506.23	27583.21
506.41	27725.99
506.58	27807.90
506.76	27819.61
506.93	27761.09
507.11	27983.44
507.28	28254.95
507.46	28318.14
507.63	28631.77
507.81	28615.39
507.98	28343.89
508.16	28280.69
508.33	28662.20
508.50	28587.30
508.68	28851.78
508.85	28872.85
509.03	29074.13
509.20	28884.55
509.38	28903.28
509.55	29479.05
509.73	29493.09
509.90	29476.71
510.08	29249.67
510.25	29551.60
510.42	30022.05
510.60	29642.88
510.77	29895.66
510.95	29949.50
511.12	30012.69
511.30	30174.19
511.47	30433.99
511.64	30092.27
511.82	30398.88
511.99	30323.98
512.17	30635.27
512.34	30335.68
512.51	30747.62
512.69	30654.00
512.86	30632.93
513.04	30845.92
513.21	30532.29
513.38	31466.16
513.56	31299.98
513.73	30995.71
513.90	30984.01
514.08	31346.79
514.25	31667.45
514.43	31566.81
514.60	31367.86
514.77	31782.13
514.95	31990.44
515.12	31604.25
515.29	31559.78
515.47	32098.11
515.64	32163.64
515.81	31955.33
515.99	31945.97
516.16	32355.57
516.33	32318.12
516.51	32676.22
516.68	32308.76
516.85	32517.06
517.03	32919.63
517.20	32720.69
517.37	33041.34
517.54	32884.53
517.72	32910.27
517.89	32914.95
518.06	33127.94
518.24	33034.32
518.41	33022.62
518.58	33607.75
518.75	33081.13
518.93	33352.63
519.10	33102.20
519.27	33663.93
519.45	33666.27
519.62	33977.56
519.79	33413.49
519.96	33785.63
520.14	33949.47
520.31	33263.69
520.48	34237.36
520.65	34012.66
520.83	34408.22
521.00	34686.74
521.17	34801.43
521.34	34532.26
521.52	34714.83
521.69	34501.84
521.86	34473.75
522.03	34707.80
522.20	34927.81
522.38	35459.12
522.55	35276.55
522.72	34679.72
522.89	35007.39
523.07	35489.54
523.24	35562.10
523.41	35555.08
523.58	35229.74
523.75	35744.66
523.92	35913.18
524.10	35651.04
524.27	35424.01
524.44	35688.49
524.61	35805.52
524.78	36233.83
524.96	36034.89
525.13	36364.90
525.30	36304.05
525.47	36299.37
525.64	36140.21
525.81	36273.62
525.98	36556.83
526.16	36133.19
526.33	36184.68
526.50	36465.55
526.67	36996.85
526.84	36931.31
527.01	36353.20
527.18	36493.63
527.36	36893.86
527.53	37027.28
527.70	36924.29
527.87	37109.19
528.04	36966.42
528.21	37282.39
528.38	37280.05
528.55	37329.20
528.72	37184.09
528.89	37923.70
529.07	37443.89
529.24	37050.68
529.41	37450.91
529.58	37453.25
529.75	37497.72
529.92	37876.89
530.09	37584.32
530.26	37607.73
530.43	38024.34
530.60	37549.21
530.77	37542.19
530.94	37743.48
531.11	37883.91
531.28	38164.78
531.46	38019.66
531.63	38141.37
531.80	38607.14
531.97	38569.69
532.14	38553.30
532.31	37865.19
532.48	38410.53
532.65	39091.63
532.82	38658.63
532.99	38913.75
533.16	38845.87
533.33	38705.44
533.50	38838.85
533.67	38778.00
533.84	38635.22
534.01	38705.44
534.18	39227.38
534.35	39489.52
534.52	39171.21
534.69	39171.21
534.86	39267.17
535.03	39536.33
535.20	39494.20
535.37	39772.72
535.54	39433.35
535.71	39646.33
535.88	39732.93
536.05	39154.82
536.22	39498.88
536.38	39676.76
536.55	39917.84
536.72	39861.66
536.89	39643.99
537.06	39892.09
537.23	40116.78
537.40	39730.59
537.57	39746.98
537.74	39686.12
537.91	40332.11
538.08	40051.25
538.25	39599.52
538.42	40535.74
538.59	40563.82
538.75	40528.72
538.92	40453.82
539.09	40570.85
539.26	40517.01
539.43	40390.62
539.60	40673.83
539.77	40460.84
539.94	40809.58
540.11	40760.43
540.28	41261.30
540.44	40945.33
540.61	41081.08
540.78	40748.73
540.95	41127.89
541.12	40964.06
541.29	40851.71
541.46	40957.03
541.62	41099.81
541.79	41214.49
541.96	40751.07
542.13	40828.30
542.30	41284.71
542.47	41448.55
542.63	41315.14
542.80	41642.81
542.97	41982.19
543.14	42403.49
543.31	41909.63
543.48	41104.49
543.64	42424.55
543.81	41773.88
543.98	41968.15
544.15	42190.50
544.32	41888.57
544.48	42202.20
544.65	42307.52
544.82	42525.19
544.99	42260.71
545.16	42234.97
545.32	42651.58
545.49	42450.30
545.66	42712.44
545.83	42932.45
546.00	42862.23
546.16	42644.56
546.33	42981.60
546.50	42319.23
546.67	42747.54
546.83	42557.96
547.00	42717.12
547.17	42768.61
547.34	42878.61
547.50	43374.81
547.67	43681.42
547.84	42969.90
548.00	43112.67
548.17	43178.20
548.34	43028.41
548.51	43473.11
548.67	43229.69
548.84	43250.76
549.01	43115.01
549.18	43187.56
549.34	43203.95
549.51	43655.67
549.68	43679.08
549.84	43800.79
550.01	43838.23
550.18	43538.65
550.34	43643.97
550.51	43578.43
550.68	43435.66
550.84	43236.72
551.01	44435.07
551.18	43873.34
551.34	43805.47
551.51	43779.72
551.68	44177.61
551.84	43676.74
552.01	43749.29
552.18	43763.34
552.34	43739.93
552.51	43929.51
552.68	43952.92
552.84	44041.86
553.01	44362.51
553.18	43873.34
553.34	44404.64
553.51	44175.27
553.67	44175.27
553.84	44545.08
554.01	44570.82
554.17	44334.43
554.34	44760.40
554.51	44519.33
554.67	44552.10
554.84	44769.77
555.00	44612.95
555.17	44875.09
555.33	44816.58
555.50	44886.79
555.67	45024.89
555.83	45186.38
556.00	44900.84
556.16	45214.47
556.33	44641.04
556.50	45244.90
556.66	44601.25
556.83	44575.50
556.99	45455.54
557.16	45104.46
557.32	45352.56
557.49	45392.35
557.65	44694.87
557.82	44996.80
557.98	45235.53
558.15	45441.50
558.32	45184.04
558.48	45059.99
558.65	45354.90
558.81	45595.98
558.98	45029.57
559.14	45270.64
559.31	44989.78
559.47	45022.54
559.64	45539.80
559.80	45642.79
559.97	45425.12
560.13	45024.89
560.30	45308.09
560.46	45876.84
560.63	45361.92
560.79	46071.10
560.96	45979.82
561.12	45736.41
561.29	45745.77
561.45	45642.79
561.61	45614.70
561.78	45436.82
561.94	45556.19
562.11	46148.34
562.27	45820.67
562.44	45593.64
562.60	46206.86
562.77	45853.44
562.93	46024.29
563.10	46087.49
563.26	45872.16
563.42	46459.63
563.59	45797.26
563.75	45841.73
563.92	46267.71
564.08	45661.51
564.24	46321.54
564.41	45865.14
564.57	45876.84
564.74	46508.79
564.90	45942.38
565.07	46047.70
565.23	46174.09
565.39	46061.74
565.56	46532.19
565.72	46312.18
565.88	45991.53
566.05	46473.68
566.21	46267.71
566.38	46007.91
566.54	46160.05
566.70	46539.21
566.87	46401.12
567.03	45759.81
567.19	46681.98
567.36	46227.92
567.52	46389.42
567.68	46794.33
567.85	46560.28
568.01	46894.97
568.17	46644.54
568.34	46740.50
568.50	46532.19
568.66	46134.30
568.83	46679.64
568.99	46349.63
569.15	46717.09
569.32	46525.17
569.48	46579.00
569.64	47000.30
569.81	46564.96
569.97	46333.24
570.13	46539.21
570.30	46153.02
570.46	46880.93
570.62	47042.43
570.78	46920.72
570.95	46712.41
571.11	46703.05
571.27	46473.68
571.43	46836.46
571.60	46560.28
571.76	46452.61
571.92	46916.04
572.09	46480.70
572.25	46707.73
572.41	46742.84
572.57	46845.82
572.74	47363.08
572.90	46707.73
573.06	46817.74
573.22	46944.12
573.38	46667.94
573.55	46953.49
573.71	47346.70
573.87	47269.46
574.03	47051.79
574.20	47224.99
574.36	46972.21
574.52	46937.10
574.68	46939.44
574.84	47054.13
575.01	47145.41
575.17	47281.16
575.33	47430.96
575.49	46777.95
575.65	47421.59
575.82	47342.02
575.98	47276.48
576.14	46995.62
576.30	47206.26
576.46	47035.41
576.62	46869.23
576.79	47065.83
576.95	46429.21
577.11	47334.99
577.27	47271.80
577.43	47187.54
577.59	46845.82
577.75	46916.04
577.92	46953.49
578.08	47138.39
578.24	47012.00
578.40	47051.79
578.56	47166.48
578.72	47042.43
578.88	47400.53
579.04	47285.84
579.21	47496.49
579.37	47180.52
579.53	47103.28
579.69	47047.11
579.85	46887.95
580.01	47594.79
580.17	47421.59
580.33	47550.32
580.49	47606.50
580.65	47070.51
580.82	47412.23
580.98	47164.14
581.14	47292.86
581.30	47391.17
581.46	47084.56
581.62	47105.62
581.78	47093.92
581.94	47531.60
582.10	47168.82
582.26	47175.84
582.42	47533.94
582.58	47199.24
582.74	47416.91
582.90	47297.55
583.06	47547.98
583.22	46899.65
583.38	47016.68
583.54	47243.71
583.70	47421.59
583.86	47688.42
584.02	47522.24
584.18	47533.94
584.34	47517.56
584.50	47547.98
584.66	47239.03
584.82	47620.54
584.98	47704.80
585.14	48020.77
585.30	47566.71
585.46	47267.12
585.62	47459.04
585.78	47732.89
585.94	47290.52
586.10	47180.52
586.26	47056.47
586.42	47426.28
586.58	47363.08
586.74	47627.56
586.90	47515.22
587.06	47416.91
587.22	47393.51
587.38	47452.02
587.54	47751.61
587.70	48193.97
587.86	47526.92
588.02	47351.38
588.18	47089.24
588.34	47337.33
588.49	47597.13
588.65	47566.71
588.81	47423.93
588.97	47962.26
589.13	47573.73
589.29	47847.57
589.45	47758.63
589.61	47686.07
589.77	47838.21
589.93	47782.04
590.08	47770.33
590.24	48060.56
590.40	47964.60
590.56	48126.10
590.72	47807.78
590.88	47386.49
591.04	47746.93
591.20	47950.56
591.35	48051.20
591.51	48179.93
591.67	48210.35
591.83	48264.19
591.99	47983.32
592.15	47751.61
592.31	48140.14
592.46	47791.40
592.62	48233.76
592.78	47903.74
592.94	47927.15
593.10	48292.27
593.26	48053.54
593.41	48266.53
593.57	47765.65
593.73	47915.45
593.89	48648.03
594.05	48193.97
594.20	47973.96
594.36	48720.59
594.52	48053.54
594.68	48294.61
594.84	48020.77
594.99	48303.98
595.15	47924.81
595.31	48402.28
595.47	48147.16
595.62	48037.16
595.78	48163.54
595.94	48182.27
596.10	48055.88
596.25	48238.44
596.41	48186.95
596.57	48257.17
596.73	48582.50
596.88	48268.87
597.04	47976.30
597.20	48329.72
597.36	48144.82
597.51	48547.39
597.67	47957.58
597.83	47934.17
597.99	48229.08
598.14	47751.61
598.30	48521.65
598.46	48193.97
598.61	48109.71
598.77	48292.27
598.93	48360.15
599.09	48505.26
599.24	48671.44
599.40	48664.42
599.56	48388.24
599.71	48486.54
599.87	48891.45
600.03	48624.63
600.18	48299.30
600.34	48369.51
600.50	48320.36
600.65	48191.63
600.81	48406.96
600.97	48540.37
601.12	48528.67
601.28	48495.90
601.44	48341.42
601.59	48217.38
601.75	48095.67
601.91	48238.44
602.06	48112.05
602.22	48704.21
602.37	48472.49
602.53	48437.39
602.69	48650.38
602.84	48336.74
603.00	48339.08
603.16	48069.92
603.31	48215.04
603.47	48509.94
603.62	48636.33
603.78	48587.18
603.94	48542.71
604.09	48690.16
604.25	48519.31
604.40	48327.38
604.56	48430.36
604.71	48858.68
604.87	48245.46
605.03	48098.01
605.18	48280.57
605.34	48587.18
605.49	47950.56
605.65	47983.32
605.80	48432.71
605.96	48067.58
606.12	48449.09
606.27	48402.28
606.43	48217.38
606.58	48746.34
606.74	48250.14
606.89	48404.62
607.05	48318.02
607.20	48369.51
607.36	48060.56
607.51	48154.18
607.67	47941.19
607.82	48016.09
607.98	48123.75
608.13	48535.69
608.29	48257.17
608.44	48439.73
608.60	48179.93
608.75	48404.62
608.91	48182.27
609.06	48013.75
609.22	48245.46
609.37	47894.38
609.53	48306.32
609.68	48325.04
609.84	48121.41
609.99	48034.81
610.15	48069.92
610.30	48203.33
610.46	47545.64
610.61	47988.00
610.76	47882.68
610.92	47887.36
611.07	48144.82
611.23	47760.97
611.38	47906.08
611.54	47903.74
611.69	48076.94
611.84	47985.66
612.00	47447.34
612.15	47810.12
612.31	47817.14
612.46	47927.15
612.62	47772.67
612.77	47540.96
612.92	48186.95
613.08	48076.94
613.23	47812.46
613.39	48100.35
613.54	47253.08
613.69	47791.40
613.85	47861.61
614.00	47665.01
614.15	47810.12
614.31	47746.93
614.46	47681.39
614.62	47650.97
614.77	47627.56
614.92	47505.85
615.08	47487.13
615.23	47618.20
615.38	47555.00
615.54	47370.10
615.69	47833.53
615.84	47440.32
616.00	47887.36
616.15	47751.61
616.30	47676.71
616.46	47489.47
616.61	47477.77
616.76	47625.22
616.92	47309.25
617.07	47346.70
617.22	47173.50
617.37	47143.07
617.53	47601.82
617.68	47318.61
617.83	47295.21
617.99	47426.28
618.14	47557.35
618.29	47274.14
618.45	46916.04
618.60	47320.95
618.75	46747.52
618.90	47093.92
619.06	47398.19
619.21	46478.36
619.36	47278.82
619.51	47136.05
619.67	47351.38
619.82	46927.74
619.97	47194.56
620.12	47246.05
620.28	47117.32
620.43	47384.15
620.58	46850.50
620.73	47234.35
620.89	46969.87
621.04	47402.87
621.19	46873.91
621.34	47742.25
621.49	47012.00
621.65	46794.33
621.80	47222.65
621.95	46983.91
622.10	46717.09
622.25	46738.16
622.41	46529.85
622.56	46504.10
622.71	46497.08
622.86	46768.58
623.01	47056.47
623.16	46700.71
623.32	46703.05
623.47	46677.30
623.62	46478.36
623.77	46731.14
623.92	46691.35
624.07	46452.61
624.23	46672.62
624.38	46843.48
624.53	46394.10
624.68	46291.12
624.83	46218.56
624.98	46340.27
625.13	46071.10
625.29	46265.37
625.44	46604.75
625.59	46410.48
625.74	46567.30
625.89	46000.89
626.04	46401.12
626.19	45954.08
626.34	46155.36
626.49	46342.61
626.65	45808.96
626.80	46300.48
626.95	45963.44
627.10	45748.11
627.25	45979.82
627.40	46265.37
627.55	46174.09
627.70	45841.73
627.85	46492.40
628.00	46190.47
628.15	46241.96
628.30	45645.13
628.45	45703.64
628.60	45137.23
628.76	45830.03
628.91	45914.29
629.06	45345.54
629.21	45500.01
629.36	45731.73
629.51	45603.00
629.66	46171.75
629.81	45869.82
629.96	45834.71
630.11	45418.10
630.26	45294.05
630.41	45736.41
630.56	45354.90
630.71	45294.05
630.86	45258.94
631.01	45280.00
631.16	45378.31
631.31	45095.10
631.46	45244.90
631.61	45371.28
631.76	45382.99
631.91	45446.18
632.06	45675.55
632.21	45708.32
632.36	45418.10
632.51	45062.33
632.66	45237.87
632.81	44992.12
632.96	45371.28
633.10	45392.35
633.25	45509.38
633.40	45382.99
633.55	45340.86
633.70	45184.04
633.85	45338.52
634.00	44729.98
634.15	44624.65
634.30	45113.83
634.45	45141.91
634.60	45439.16
634.75	45085.74
634.90	44746.36
635.05	44655.08
635.19	44971.05
635.34	44863.39
635.49	44591.89
635.64	44769.77
635.79	44889.13
635.94	44797.85
636.09	45270.64
636.24	44875.09
636.39	44729.98
636.53	44659.76
636.68	44376.56
636.83	44285.28
636.98	44385.92
637.13	44135.48
637.28	44147.18
637.43	44215.06
637.57	44545.08
637.72	44170.59
637.87	44261.87
638.02	44416.35
638.17	43871.00
638.32	44135.48
638.46	44069.95
638.61	44030.16
638.76	43789.08
638.91	44353.15
639.06	44547.42
639.20	43889.73
639.35	44105.06
639.50	43674.40
639.65	44229.10
639.80	43988.03
639.94	44231.44
640.09	44194.00
640.24	43929.51
640.39	43697.80
640.54	43569.07
640.68	43831.21
640.83	44039.52
640.98	43487.15
641.13	43751.63
641.27	43938.88
641.42	43393.53
641.57	44385.92
641.72	43543.33
641.86	43433.32
642.01	43143.09
642.16	43316.29
642.31	43152.46
642.45	43749.29
642.60	43260.12
642.75	43580.78
642.90	43810.15
643.04	43835.89
643.19	43248.42
643.34	43531.62
643.48	43061.18
643.63	43054.15
643.78	43447.36
643.93	43416.94
644.07	43416.94
644.22	43215.65
644.37	43297.57
644.51	43435.66
644.66	43171.18
644.81	43019.05
644.95	43002.66
645.10	43196.93
645.25	43311.61
645.39	42775.63
645.54	43194.59
645.69	42651.58
645.83	42906.70
645.98	42305.18
646.13	42923.08
646.27	42829.46
646.42	42969.90
646.57	42731.16
646.71	43021.39
646.86	42887.98
647.00	43203.95
647.15	42541.58
647.30	42925.42
647.44	42946.49
647.59	43009.68
647.74	42831.80
647.88	42663.28
648.03	43159.48
648.17	43325.66
648.32	42981.60
648.47	43213.31
648.61	42398.80
648.76	42768.61
648.90	42532.22
649.05	42815.42
649.20	42394.12
649.34	42440.93
649.49	42443.27
649.63	42630.52
649.78	42660.94
649.92	42422.21
650.07	42841.17
650.21	42635.20
650.36	42747.54
650.51	42197.52
650.65	42618.81
650.80	42473.70
650.94	42422.21
651.09	42096.88
651.23	41755.16
651.38	41759.84
651.52	41642.81
651.67	42286.46
651.81	42253.69
651.96	42108.58
652.10	41790.27
652.25	41539.83
652.39	41617.07
652.54	41640.47
652.68	41708.35
652.83	41397.06
652.97	42031.34
653.12	41731.75
653.26	41457.91
653.41	41776.22
653.55	41647.49
653.70	41577.28
653.84	41844.10
653.99	42195.18
654.13	41837.08
654.27	41436.84
654.42	41713.03
654.56	41216.83
654.71	41427.48
654.85	42059.43
655.00	41427.48
655.14	41670.90
655.29	41635.79
655.43	41429.82
655.57	41462.59
655.72	41390.03
655.86	41406.42
656.01	40959.38
656.15	40741.71
656.30	41060.02
656.44	41418.12
656.58	41413.44
656.73	41158.32
656.87	40942.99
657.01	40737.02
657.16	41151.30
657.30	41219.17
657.45	41008.53
657.59	40987.46
657.73	40346.15
657.88	40734.68
658.02	41287.05
658.16	40797.88
658.31	40638.72
658.45	40528.72
658.60	40861.07
658.74	40914.90
658.88	40802.56
659.03	40364.88
659.17	40559.14
659.31	40481.91
659.46	40243.17
659.60	40425.73
659.74	40549.78
659.89	39988.05
660.03	39922.52
660.17	40381.26
660.32	40264.24
660.46	40067.63
660.60	40044.23
660.74	40294.66
660.89	39791.45
661.03	39655.70
661.17	39428.66
661.32	39796.13
661.46	40055.93
661.60	39826.56
661.74	39653.36
661.89	39655.70
662.03	39864.00
662.17	39803.15
662.31	39344.41
662.46	39615.91
662.60	39536.33
662.74	39587.82
662.88	39044.82
663.03	39194.61
663.17	39325.68
663.31	38450.32
663.45	39105.67
663.60	39302.28
663.74	39194.61
663.88	39274.19
664.02	39110.35
664.17	39304.62
664.31	38529.90
664.45	38609.48
664.59	38660.97
664.73	38595.43
664.88	39047.16
665.02	38204.56
665.16	38251.38
665.30	38293.50
665.44	38546.28
665.59	38162.43
665.73	38150.73
665.87	37773.91
666.01	38298.19
666.15	38153.07
666.29	37804.33
666.44	37816.04
666.58	38059.45
666.72	37523.47
666.86	37745.82
667.00	37689.65
667.14	37865.19
667.28	37205.16
667.43	37457.93
667.57	37694.33
667.71	37912.00
667.85	37670.92
667.99	37734.12
668.13	37411.12
668.27	37493.04
668.41	37006.21
668.56	36844.71
668.70	37134.94
668.84	36545.12
668.98	36566.19
669.12	36678.54
669.26	37163.03
669.40	36989.83
669.54	37542.19
669.68	36872.80
669.82	36744.07
669.96	36378.95
670.10	36470.23
670.25	36341.50
670.39	36123.83
670.53	36477.25
670.67	36299.37
670.81	36470.23
670.95	36250.22
671.09	35988.08
671.23	35938.93
671.37	36070.00
671.51	35786.79
671.65	36044.25
671.79	35976.37
671.93	35475.50
672.07	35695.51
672.21	35665.08
672.35	35213.36
672.49	35658.06
672.63	35545.72
672.77	35264.85
672.91	35349.11
673.05	35297.62
673.19	34962.92
673.33	35070.59
673.47	34831.85
673.61	34761.64
673.75	34265.44
673.89	34944.20
674.03	34754.61
674.17	34452.69
674.31	33860.53
674.45	34036.07
674.59	34279.49
674.73	34375.45
674.87	33769.25
675.01	33928.41
675.15	33858.19
675.29	33507.11
675.43	33490.73
675.56	33743.50
675.70	33266.03
675.84	33308.16
675.98	32273.65
676.12	33563.28
676.26	33654.56
676.40	33010.92
676.54	32542.81
676.68	32968.79
676.82	32465.57
676.96	32854.10
677.10	32575.58
677.23	32416.42
677.37	32870.48
677.51	32601.32
677.65	32304.07
677.79	31936.61
677.93	32226.84
678.07	32121.51
678.21	32275.99
678.34	31714.26
678.48	31454.46
678.62	31878.10
678.76	31253.17
678.90	31208.70
679.04	30866.98
679.18	31578.51
679.31	31103.38
679.45	30672.72
679.59	30639.95
679.73	31094.02
679.87	30609.53
680.00	30820.17
680.14	30749.96
680.28	30661.02
680.42	30312.28
680.56	30209.29
680.70	29780.98
680.83	30185.89
680.97	29907.37
681.11	29951.84
681.25	29589.05
681.39	29273.08
681.52	29380.74
681.66	29303.51
681.80	28570.92
681.94	29163.08
682.07	28879.87
682.21	29074.13
682.35	28772.21
682.49	28889.23
682.62	28589.64
682.76	28591.98
682.90	28491.34
683.04	28510.07
683.17	28666.88
683.31	28390.70
683.45	28048.98
683.59	27953.02
683.72	27672.15
683.86	28081.75
684.00	27711.94
684.13	27997.49
684.27	27569.17
684.41	27374.91
684.55	27421.72
684.68	27098.72
684.82	27173.62
684.96	27159.58
685.09	27363.20
685.23	27473.21
685.37	27363.20
685.50	27332.78
685.64	26843.60
685.78	26415.29
685.91	26593.17
686.05	26108.68
686.19	25729.51
686.32	25802.07
686.46	25727.17
686.60	25729.51
686.73	25769.30
686.87	25626.53
687.01	25720.15
687.14	25680.36
687.28	25214.59
687.42	25397.15
687.55	25659.29
687.69	25252.04
687.82	25017.99
687.96	24910.32
688.10	24783.93
688.23	24856.49
688.37	25034.37
688.50	24915.00
688.64	24992.24
688.78	24800.32
688.91	24456.26
689.05	24191.78
689.18	24292.42
689.32	23351.52
689.46	23718.99
689.59	23758.78
689.73	24032.62
689.86	23871.12
690.00	23515.36
690.13	24070.07
690.27	23702.61
690.41	23847.72
690.54	23335.14
690.68	23201.73
690.81	23246.20
690.95	22789.80
691.08	22885.76
691.22	22864.69
691.35	22773.41
691.49	22738.30
691.62	22986.40
691.76	22431.69
691.89	21876.99
692.03	21876.99
692.16	21884.01
692.30	21907.41
692.43	21839.54
692.57	21638.25
692.70	21940.18
692.84	22033.80
692.97	21546.97
693.11	21558.67
693.24	21106.95
693.38	21172.49
693.51	21212.28
693.65	20922.05
693.78	20882.26
693.92	20769.91
694.05	20568.63
694.19	20655.23
694.32	20570.97
694.45	20587.35
694.59	20877.58
694.72	20552.24
694.86	20306.49
694.99	20130.95
695.13	19960.09
695.26	19969.45
695.39	19735.40
695.53	19880.51
695.66	19887.53
695.80	19669.86
695.93	19800.93
696.07	19611.35
696.20	19089.41
696.33	19033.24
696.47	18902.17
696.60	19389.00
696.73	18946.64
696.87	19124.52
697.00	18916.21
697.14	18757.05
697.27	18387.25
697.40	18675.13
697.54	18857.70
697.67	18649.39
697.80	18607.26
697.94	18335.76
698.07	18361.50
698.21	18106.38
698.34	18342.78
698.47	17783.39
698.61	17539.97
698.74	17839.56
698.87	17401.88
699.01	17680.41
699.14	17369.12
699.27	17579.76
699.40	17326.99
699.54	17142.08
699.67	17095.27
699.80	17282.52
699.94	16875.26
700.07	16910.37
700.20	16985.27
700.34	16858.88
700.47	16840.15
700.60	16741.85
700.73	16893.99
700.87	16582.70
701.00	16510.14
701.13	16194.17
701.26	16264.38
701.40	16177.78
701.53	16072.46
701.66	15990.54
701.79	15910.96
701.93	15709.68
702.06	15686.27
702.19	15859.47
702.32	15819.68
702.46	15520.09
702.59	15515.41
702.72	15800.96
702.85	15587.97
702.99	15386.68
703.12	15164.33
703.25	15110.50
703.38	15159.65
703.51	14743.03
703.65	15021.56
703.78	14740.69
703.91	14693.88
704.04	14342.80
704.17	14689.20
704.31	14361.53
704.44	14651.75
704.57	14370.89
704.70	14214.07
704.83	14047.90
704.96	14075.98
705.10	14068.96
705.23	13905.12
>>>>>End Processed Spectral Data<<<<<
