SpectraSuite Data File
++++++++++++++++++++++++++++++++++++
Date: Fri Oct 25 11:33:35 EDT 2013
User: price-jones
Dark Spectrum Present: No
Reference Spectrum Present: No
Number of Sampled Component Spectra: 1
Spectrometers: USB2+H05261
Integration Time (usec): 100000 (USB2+H05261)
Spectra Averaged: 1 (USB2+H05261)
Boxcar Smoothing: 0 (USB2+H05261)
Correct for Electrical Dark: No (USB2+H05261)
Strobe/Lamp Enabled: No (USB2+H05261)
Correct for Detector Non-linearity: No (USB2+H05261)
Correct for Stray Light: No (USB2+H05261)
Number of Pixels in Processed Spectrum: 2048
>>>>>Begin Processed Spectral Data<<<<<
365.73	325.33
365.92	325.33
366.12	325.33
366.32	166.18
366.52	173.20
366.72	212.99
366.91	154.48
367.11	203.63
367.31	203.63
367.51	182.56
367.70	154.48
367.90	182.56
368.10	154.48
368.30	227.03
368.49	229.37
368.69	201.29
368.89	191.92
369.09	138.09
369.28	227.03
369.48	184.90
369.68	147.45
369.87	196.60
370.07	215.33
370.27	346.40
370.47	348.74
370.66	524.28
370.86	503.22
371.06	540.66
371.25	514.92
371.45	533.64
371.65	554.71
371.84	573.43
372.04	587.47
372.24	596.84
372.44	580.45
372.63	568.75
372.83	603.86
373.03	606.20
373.22	648.33
373.42	617.90
373.62	702.16
373.81	592.16
374.01	699.82
374.21	613.22
374.40	685.78
374.60	753.65
374.79	655.35
374.99	653.01
375.19	657.69
375.38	706.84
375.58	669.39
375.78	557.05
375.97	669.39
376.17	788.76
376.37	641.31
376.56	713.86
376.76	662.37
376.95	676.41
377.15	674.07
377.35	713.86
377.54	657.69
377.74	648.33
377.93	638.97
378.13	688.12
378.33	770.04
378.52	730.25
378.72	667.05
378.91	697.48
379.11	732.59
379.31	734.93
379.50	788.76
379.70	777.06
379.89	683.44
380.09	671.73
380.28	777.06
380.48	699.82
380.68	699.82
380.87	727.91
381.07	784.08
381.26	819.19
381.46	716.20
381.65	674.07
381.85	713.86
382.04	840.25
382.24	781.74
382.43	807.48
382.63	791.10
382.83	795.78
383.02	791.10
383.22	812.17
383.41	898.77
383.61	856.64
383.80	800.46
384.00	849.61
384.19	763.01
384.39	816.85
384.58	823.87
384.78	823.87
384.97	896.43
385.17	760.67
385.36	858.98
385.56	800.46
385.75	828.55
385.95	877.70
386.14	854.30
386.34	760.67
386.53	856.64
386.72	837.91
386.92	891.74
387.11	851.96
387.31	861.32
387.50	877.70
387.70	908.13
387.89	945.58
388.09	931.53
388.28	961.96
388.48	943.24
388.67	943.24
388.86	954.94
389.06	999.41
389.25	938.55
389.45	978.34
389.64	901.11
389.84	999.41
390.03	973.66
390.22	985.37
390.42	1006.43
390.61	931.53
390.81	950.26
391.00	938.55
391.19	994.73
391.39	1039.20
391.58	978.34
391.78	1008.77
391.97	1048.56
392.16	1015.79
392.36	1039.20
392.55	1100.05
392.75	1130.48
392.94	987.71
393.13	1029.84
393.33	1153.88
393.52	1020.47
393.71	1114.10
393.91	1025.15
394.10	1008.77
394.29	1179.63
394.49	1039.20
394.68	1069.62
394.88	1156.22
395.07	1137.50
395.26	1128.14
395.46	1097.71
395.65	1090.69
395.84	1200.69
396.04	1249.85
396.23	1203.04
396.42	1308.36
396.62	1263.89
396.81	1224.10
397.00	1287.29
397.19	1235.80
397.39	1238.14
397.58	1270.91
397.77	1163.25
397.97	1228.78
398.16	1203.04
398.35	1350.49
398.55	1273.25
398.74	1376.24
398.93	1172.61
399.12	1343.47
399.32	1261.55
399.51	1266.23
399.70	1380.92
399.90	1350.49
400.09	1341.13
400.28	1455.81
400.47	1383.26
400.67	1462.83
400.86	1327.08
401.05	1369.21
401.24	1378.58
401.44	1446.45
401.63	1413.68
401.82	1490.92
402.01	1479.22
402.21	1479.22
402.40	1565.82
402.59	1568.16
402.78	1507.30
402.97	1509.65
403.17	1568.16
403.36	1535.39
403.55	1497.94
403.74	1612.63
403.93	1584.54
404.13	1659.44
404.32	1643.06
404.51	1643.06
404.70	1659.44
404.89	1582.20
405.09	1633.69
405.28	1696.89
405.47	1687.53
405.66	1661.78
405.85	1717.95
406.05	1589.22
406.24	1839.66
406.43	1755.40
406.62	1816.26
406.81	1694.55
407.00	1818.60
407.20	1715.61
407.39	1734.34
407.58	1792.85
407.77	1769.44
407.96	1849.02
408.15	1856.04
408.34	1872.43
408.54	1928.60
408.73	1949.67
408.92	1919.24
409.11	1844.34
409.30	1947.33
409.49	1926.26
409.68	1858.39
409.87	1966.05
410.07	2038.61
410.26	2008.18
410.45	2019.88
410.64	2104.14
410.83	2092.44
411.02	2242.23
411.21	2202.44
411.40	2136.91
411.59	2235.21
411.78	2216.49
411.98	2338.20
412.17	2218.83
412.36	2282.02
412.55	2331.17
412.74	2361.60
412.93	2359.26
413.12	2457.56
413.31	2434.16
413.50	2305.43
413.69	2394.37
413.88	2478.63
414.07	2523.10
414.26	2431.82
414.45	2509.05
414.64	2530.12
414.83	2607.36
415.02	2537.14
415.22	2600.34
415.41	2761.83
415.60	2574.59
415.79	2736.09
415.98	2761.83
416.17	2775.88
416.36	2726.72
416.55	2757.15
416.74	2775.88
416.93	2782.90
417.12	2850.77
417.31	2916.31
417.50	2827.37
417.69	2949.08
417.88	2827.37
418.07	2787.58
418.26	3108.23
418.45	2909.29
418.64	3117.59
418.83	3042.70
419.02	3016.95
419.21	3030.99
419.39	3080.14
419.58	3159.72
419.77	3176.11
419.96	3197.17
420.15	3178.45
420.34	3176.11
420.53	3096.53
420.72	3222.92
420.91	3229.94
421.10	3346.97
421.29	3236.96
421.48	3180.79
421.67	3258.03
421.86	3136.32
422.05	3220.58
422.24	3302.50
422.43	3442.93
422.61	3368.03
422.80	3426.54
422.99	3330.58
423.18	3314.20
423.37	3510.80
423.56	3417.18
423.75	3361.01
423.94	3272.07
424.13	3211.22
424.32	3342.28
424.50	3412.50
424.69	3527.19
424.88	3407.82
425.07	3456.97
425.26	3421.86
425.45	3337.60
425.64	3440.59
425.83	3522.51
426.01	3361.01
426.20	3566.98
426.39	3424.20
426.58	3431.23
426.77	3538.89
426.96	3459.31
427.15	3552.93
427.33	3595.06
427.52	3669.96
427.71	3655.92
427.90	3634.85
428.09	3758.90
428.28	3686.34
428.46	3705.07
428.65	3744.86
428.84	3747.20
429.03	3779.97
429.22	3796.35
429.40	3674.64
429.59	3826.78
429.78	3581.02
429.97	3611.45
430.16	3784.65
430.34	3805.71
430.53	3810.39
430.72	3887.63
430.91	3885.29
431.10	3847.84
431.28	3889.97
431.47	4021.04
431.66	3978.91
431.85	3934.44
432.03	3981.25
432.22	4177.86
432.41	4114.66
432.60	4063.17
432.79	4011.68
432.97	4138.07
433.16	4025.72
433.35	4032.74
433.54	4133.39
433.72	4234.03
433.91	4067.85
434.10	4217.65
434.28	4124.02
434.47	4194.24
434.66	4266.80
434.85	4318.29
435.03	4393.19
435.22	4205.94
435.41	4456.38
435.59	4341.69
435.78	4503.19
435.97	4311.27
436.16	4491.49
436.34	4362.76
436.53	4491.49
436.72	4447.02
436.90	4442.34
437.09	4500.85
437.28	4414.25
437.46	4596.81
437.65	4461.06
437.84	4568.73
438.02	4695.11
438.21	4587.45
438.40	4636.60
438.58	4652.98
438.77	4882.36
438.96	4748.95
439.14	4863.63
439.33	4929.17
439.52	5011.09
439.70	4975.98
439.89	5015.77
440.08	5048.54
440.26	5041.51
440.45	4922.15
440.63	5076.62
440.82	5151.52
441.01	5212.37
441.19	5198.33
441.38	5226.42
441.57	5130.45
441.75	5184.29
441.94	5338.76
442.12	5451.11
442.31	5427.70
442.50	5462.81
442.68	5247.48
442.87	5497.92
443.05	5544.73
443.24	5575.16
443.43	5521.32
443.61	5607.92
443.80	5647.71
443.98	5427.70
444.17	5282.59
444.35	5544.73
444.54	5664.10
444.73	5682.82
444.91	5717.93
445.10	5596.22
445.28	5671.12
445.47	5654.73
445.65	5589.20
445.84	5673.46
446.02	5596.22
446.21	5591.54
446.39	5659.42
446.58	5727.29
446.77	5804.53
446.95	5514.30
447.14	5703.89
447.32	5783.46
447.51	5799.85
447.69	5736.65
447.88	5867.72
448.06	5727.29
448.25	5783.46
448.43	5748.36
448.62	5940.28
448.80	5778.78
448.99	5806.87
449.17	6052.63
449.36	5849.00
449.54	5987.09
449.73	5895.81
449.91	6036.24
450.10	6029.22
450.28	6174.33
450.46	6033.90
450.65	6097.10
450.83	6230.51
451.02	6223.48
451.20	6235.19
451.39	6122.84
451.57	6160.29
451.76	6183.70
451.94	6314.77
452.13	6253.91
452.31	6162.63
452.49	6200.08
452.68	6258.59
452.86	6370.94
453.05	6338.17
453.23	6443.49
453.42	6363.92
453.60	6338.17
453.78	6403.71
453.97	6504.35
454.15	6328.81
454.34	6530.09
454.52	6457.54
454.70	6487.96
454.89	6394.34
455.07	6497.33
455.26	6715.00
455.44	6829.68
455.62	6494.99
455.81	6670.53
455.99	6738.40
456.17	6595.63
456.36	6799.26
456.54	6857.77
456.73	6920.96
456.91	6965.43
457.09	6995.86
457.28	7056.72
457.46	6801.60
457.64	7098.84
457.83	7030.97
458.01	7037.99
458.19	7337.58
458.38	7148.00
458.56	7112.89
458.74	7108.21
458.93	7190.13
459.11	7248.64
459.29	7304.81
459.48	7152.68
459.66	7368.01
459.84	7428.86
460.03	7463.97
460.21	7426.52
460.39	7386.73
460.57	7365.67
460.76	7459.29
460.94	7660.57
461.12	7681.64
461.31	7356.30
461.49	7564.61
461.67	7489.71
461.85	7688.66
462.04	7487.37
462.22	8116.98
462.40	7772.92
462.59	7831.43
462.77	7707.38
462.95	7948.46
463.13	7801.01
463.32	7665.25
463.50	7927.39
463.68	7747.17
463.86	7875.90
464.05	7826.75
464.23	7847.82
464.41	7901.65
464.59	7674.62
464.78	8241.03
464.96	8072.51
465.14	7990.59
465.32	8124.00
465.50	8152.09
465.69	8191.88
465.87	8290.18
466.05	8154.43
466.23	8109.96
466.41	8149.75
466.60	8414.23
466.78	8138.04
466.96	8140.38
467.14	8252.73
467.32	8231.66
467.51	8360.39
467.69	8339.33
467.87	8339.33
468.05	8580.40
468.23	8325.29
468.41	8313.58
468.60	8393.16
468.78	8594.45
468.96	8269.11
469.14	8716.16
469.32	8559.34
469.50	8468.06
469.69	8643.60
469.87	8655.30
470.05	8718.50
470.23	8793.39
470.41	8777.01
470.59	8753.60
470.77	8793.39
470.95	8837.86
471.14	9160.86
471.32	9064.89
471.50	8889.35
471.68	9100.00
471.86	9139.79
472.04	9235.75
472.22	9331.72
472.40	9114.05
472.58	9039.15
472.77	9392.57
472.95	9451.08
473.13	9607.90
473.31	9345.76
473.49	9472.15
473.67	9584.49
473.85	9490.87
474.03	9549.39
474.21	9593.86
474.39	9745.99
474.57	9530.66
474.75	10010.47
474.93	10143.88
475.12	10026.86
475.30	10031.54
475.48	10040.90
475.66	10022.17
475.84	10122.82
476.02	10146.22
476.20	10281.97
476.38	10516.03
476.56	10583.90
476.74	10581.56
476.92	10548.79
477.10	10499.64
477.28	10651.78
477.46	10684.55
477.64	10864.77
477.82	10707.95
478.00	11267.34
478.18	11098.82
478.36	11190.10
478.54	11367.98
478.72	11309.47
478.90	11604.38
479.08	11609.06
479.26	11644.17
479.44	11655.87
479.62	11756.51
479.80	11892.26
479.98	12081.85
480.16	12306.54
480.34	12138.02
480.52	12156.74
480.70	12528.89
480.88	12233.98
481.06	12388.46
481.24	12430.59
481.41	12442.29
481.59	12786.35
481.77	12800.39
481.95	13008.70
482.13	12837.84
482.31	13118.70
482.49	13392.55
482.67	13121.04
482.85	13453.40
483.03	13635.96
483.21	13577.45
483.39	13905.12
483.57	13591.49
483.74	13862.99
483.92	14071.30
484.10	13870.01
484.28	14242.16
484.46	14651.75
484.64	14759.42
484.82	14555.79
485.00	14801.55
485.18	15051.99
485.35	15169.01
485.53	15002.83
485.71	14679.84
485.89	15339.87
486.07	15286.04
486.25	15529.45
486.43	15733.08
486.61	15791.59
486.78	15819.68
486.96	15831.38
487.14	16231.62
487.32	16236.30
487.50	16477.37
487.68	16397.79
487.85	16322.90
488.03	16802.71
488.21	16924.41
488.39	16793.34
488.57	17341.03
488.75	17308.26
488.92	17467.42
489.10	17362.09
489.28	17881.69
489.46	17858.29
489.64	17872.33
489.81	18111.07
489.99	18195.32
490.17	18211.71
490.35	18438.74
490.53	18541.72
490.70	18663.43
490.88	18473.85
491.06	18710.24
491.24	18993.45
491.41	18939.62
491.59	19290.70
491.77	19222.82
491.95	19428.79
492.13	19545.81
492.30	19704.97
492.48	19917.96
492.66	19903.92
492.84	19721.35
493.01	20269.04
493.19	19946.05
493.37	20690.34
493.54	20531.18
493.72	20732.47
493.90	20774.60
494.08	20486.71
494.25	20985.24
494.43	21158.44
494.61	21263.77
494.79	21064.82
494.96	21043.76
495.14	21387.82
495.32	21912.10
495.49	21682.72
495.67	21907.41
495.85	22024.44
496.02	21935.50
496.20	22382.54
496.38	22469.14
496.55	22525.32
496.73	22902.14
496.91	22843.63
497.09	23147.90
497.26	23250.88
497.44	22838.95
497.62	22998.10
497.79	23419.40
497.97	23335.14
498.14	23250.88
498.32	23709.63
498.50	23754.10
498.67	23639.41
498.85	23971.77
499.03	23924.96
499.20	24063.05
499.38	24135.60
499.56	24554.56
499.73	24364.98
499.91	24252.63
500.08	24929.05
500.26	24301.78
500.44	24683.29
500.61	24694.99
500.79	24968.84
500.97	25238.00
501.14	25312.89
501.32	25584.40
501.49	25369.07
501.67	25450.99
501.84	25572.69
502.02	25539.93
502.20	25376.09
502.37	25617.16
502.55	25607.80
502.72	26462.10
502.90	25462.69
503.07	25984.63
503.25	25811.43
503.43	26085.27
503.60	26230.38
503.78	26499.55
503.95	26359.11
504.13	26422.31
504.30	26621.25
504.48	26466.78
504.65	26862.33
504.83	26859.99
505.01	27211.07
505.18	26955.95
505.36	27257.88
505.53	27330.44
505.71	27262.56
505.88	27520.02
506.06	27491.93
506.23	27473.21
506.41	27424.06
506.58	27704.92
506.76	27906.21
506.93	28261.97
507.11	27810.25
507.28	28236.22
507.46	28105.15
507.63	28053.66
507.81	28350.91
507.98	28119.20
508.16	28606.03
508.33	28634.11
508.50	28416.44
508.68	28535.81
508.85	28854.12
509.03	29102.22
509.20	29177.12
509.38	29256.70
509.55	29120.95
509.73	29312.87
509.90	29064.77
510.08	29523.52
510.25	29565.65
510.42	29743.53
510.60	29734.17
510.77	29685.01
510.95	30216.32
511.12	29518.84
511.30	29820.77
511.47	30183.55
511.64	30370.79
511.82	30445.69
511.99	30389.52
512.17	30249.08
512.34	30120.35
512.51	30881.03
512.69	30838.90
512.86	30576.76
513.04	31199.34
513.21	30752.30
513.38	31072.95
513.56	31061.25
513.73	30885.71
513.90	31154.87
514.08	31288.28
514.25	31545.74
514.43	31637.02
514.60	31515.31
514.77	31218.07
514.95	31592.55
515.12	31765.75
515.29	31498.93
515.47	32098.11
515.64	32196.41
515.81	31945.97
515.99	32233.86
516.16	32088.74
516.33	32449.19
516.51	32385.99
516.68	32233.86
516.85	32617.71
517.03	32879.85
517.20	32629.41
517.37	32964.10
517.54	32844.74
517.72	33153.69
517.89	32772.18
518.06	32865.80
518.24	33060.07
518.41	32987.51
518.58	33230.93
518.75	32910.27
518.93	33383.06
519.10	33034.32
519.27	33448.60
519.45	33701.37
519.62	33897.98
519.79	33376.04
519.96	33586.69
520.14	33453.28
520.31	33607.75
520.48	33914.36
520.65	34288.85
520.83	34113.31
521.00	34108.63
521.17	34082.88
521.34	34047.77
521.52	34429.28
521.69	34588.44
521.86	34749.93
522.03	34829.51
522.20	35093.99
522.38	35281.24
522.55	34834.19
522.72	35042.50
522.89	35232.08
523.07	35526.99
523.24	35007.39
523.41	35534.01
523.58	34981.65
523.75	35601.89
523.92	35054.20
524.10	35796.15
524.27	35854.67
524.44	35681.47
524.61	35782.11
524.78	35606.57
524.96	35969.35
525.13	35910.84
525.30	36039.57
525.47	36058.29
525.64	36238.51
525.81	35948.29
525.98	36601.30
526.16	36016.16
526.33	36446.82
526.50	36851.73
526.67	36086.38
526.84	36641.09
527.01	36690.24
527.18	36790.88
527.36	36907.91
527.53	37053.02
527.70	37043.66
527.87	37036.64
528.04	37123.24
528.21	36924.29
528.38	36982.80
528.55	37226.22
528.72	37212.18
528.89	37050.68
529.07	37214.52
529.24	36957.06
529.41	37574.96
529.58	37373.67
529.75	37212.18
529.92	37984.55
530.09	37720.07
530.26	37736.46
530.43	37881.57
530.60	37490.70
530.77	38000.94
530.94	37605.39
531.11	37872.21
531.28	37818.38
531.46	38242.01
531.63	37954.13
531.80	38499.47
531.97	38321.59
532.14	38398.83
532.31	38232.65
532.48	38382.45
532.65	38717.14
532.82	38462.02
532.99	38670.33
533.16	38227.97
533.33	38565.01
533.50	38548.62
533.67	38754.59
533.84	38366.06
534.01	39082.27
534.18	38443.30
534.35	39253.12
534.52	38941.83
534.69	39182.91
534.86	39433.35
535.03	38932.47
535.20	39412.28
535.37	39414.62
535.54	39049.50
535.71	39622.93
535.88	39756.34
536.05	39564.42
536.22	39966.99
536.38	39615.91
536.55	39531.65
536.72	39896.77
536.89	39812.51
537.06	40526.38
537.23	40444.46
537.40	39875.71
537.57	39831.24
537.74	40170.61
537.91	40514.67
538.08	39824.22
538.25	40233.81
538.42	40304.02
538.59	40247.85
538.75	39859.32
538.92	41010.87
539.09	39981.03
539.26	40488.93
539.43	40306.37
539.60	40708.94
539.77	40566.16
539.94	40830.65
540.11	40563.82
540.28	40561.48
540.44	40587.23
540.61	40350.84
540.78	40439.78
540.95	40893.84
541.12	40713.62
541.29	40746.39
541.46	40783.83
541.62	41226.20
541.79	41518.76
541.96	41031.93
542.13	40755.75
542.30	41397.06
542.47	41287.05
542.63	41729.41
542.80	41670.90
542.97	41539.83
543.14	42064.11
543.31	41914.31
543.48	41701.32
543.64	42103.90
543.81	42150.71
543.98	41713.03
544.15	41844.10
544.32	42450.30
544.48	42572.00
544.65	42024.32
544.82	42171.77
544.99	42106.24
545.16	42253.69
545.32	42234.97
545.49	42906.70
545.66	42759.25
545.83	42824.78
546.00	42469.02
546.16	42597.75
546.33	42131.98
546.50	42635.20
546.67	42834.14
546.83	42321.57
547.00	42361.36
547.17	42969.90
547.34	42918.40
547.50	43323.32
547.67	43346.72
547.84	42667.97
548.00	43405.23
548.17	42897.34
548.34	43295.23
548.51	42810.74
548.67	43367.79
548.84	42822.44
549.01	43026.07
549.18	43220.33
549.34	43154.80
549.51	43758.66
549.68	43374.81
549.84	43180.54
550.01	43367.79
550.18	43505.88
550.34	43559.71
550.51	43936.54
550.68	43737.59
550.84	43594.82
551.01	43985.69
551.18	43599.50
551.34	43494.18
551.51	43938.88
551.68	43849.94
551.84	43885.04
552.01	43702.48
552.18	43761.00
552.34	43676.74
552.51	44065.27
552.68	44182.29
552.84	43782.06
553.01	44210.38
553.18	43463.75
553.34	44453.79
553.51	43758.66
553.67	44322.72
553.84	44224.42
554.01	44634.02
554.17	44849.35
554.34	44435.07
554.51	44575.50
554.67	44601.25
554.84	44524.01
555.00	44371.88
555.17	44437.41
555.33	44966.37
555.50	44737.00
555.67	44858.71
555.83	44172.93
556.00	44790.83
556.16	45125.53
556.33	44957.01
556.50	44949.99
556.66	44715.93
556.83	44725.30
556.99	45170.00
557.16	44811.90
557.32	44949.99
557.49	45031.91
557.65	45074.04
557.82	45181.70
557.98	45338.52
558.15	44903.18
558.32	44938.29
558.48	45193.40
558.65	44903.18
558.81	45296.39
558.98	45162.98
559.14	45289.37
559.31	45345.54
559.47	45191.06
559.64	45301.07
559.80	45387.67
559.97	45595.98
560.13	45539.80
560.30	45078.72
560.46	45764.49
560.63	45530.44
560.79	45219.15
560.96	45500.01
561.12	45722.37
561.29	45720.02
561.45	45958.76
561.61	45640.45
561.78	45755.13
561.94	45804.28
562.11	45640.45
562.27	45813.65
562.44	45523.42
562.60	46307.50
562.77	45588.95
562.93	45523.42
563.10	46073.45
563.26	45862.80
563.42	46452.61
563.59	45851.09
563.75	45617.04
563.92	45766.84
564.08	45766.84
564.24	46440.91
564.41	45766.84
564.57	46033.66
564.74	46127.28
564.90	45949.40
565.07	46010.25
565.23	45942.38
565.39	46092.17
565.56	46099.19
565.72	45815.99
565.88	45792.58
566.05	46396.44
566.21	46106.21
566.38	45815.99
566.54	46127.28
566.70	46366.01
566.87	46134.30
567.03	46014.93
567.19	46546.23
567.36	46405.80
567.52	46595.38
567.68	46677.30
567.85	46487.72
568.01	46663.26
568.17	46579.00
568.34	46363.67
568.50	46686.67
568.66	46616.45
568.83	46454.95
568.99	46138.98
569.15	46499.42
569.32	46340.27
569.48	46307.50
569.64	47065.83
569.81	46506.44
569.97	46806.03
570.13	46705.39
570.30	46752.20
570.46	46871.57
570.62	46724.11
570.78	46796.67
570.95	46651.56
571.11	47002.64
571.27	46780.29
571.43	46279.41
571.60	46646.88
571.76	46607.09
571.92	46429.21
572.09	47021.36
572.25	46995.62
572.41	46410.48
572.57	47129.03
572.74	47210.95
572.90	46564.96
573.06	47068.17
573.22	47037.75
573.38	46979.23
573.55	46930.08
573.71	46796.67
573.87	47070.51
574.03	46670.28
574.20	47096.26
574.36	47182.86
574.52	46829.44
574.68	47110.30
574.84	47021.36
575.01	47398.19
575.17	47173.50
575.33	47084.56
575.49	46941.78
575.65	47224.99
575.82	47173.50
575.98	46871.57
576.14	46918.38
576.30	47423.93
576.46	46852.84
576.62	46885.61
576.79	47189.88
576.95	46937.10
577.11	46777.95
577.27	47349.04
577.43	46789.65
577.59	46951.15
577.75	46902.00
577.92	46691.35
578.08	46873.91
578.24	46902.00
578.40	46925.40
578.56	47288.18
578.72	46700.71
578.88	47412.23
579.04	47199.24
579.21	47136.05
579.37	46752.20
579.53	47700.12
579.69	47084.56
579.85	46639.86
580.01	47143.07
580.17	46948.81
580.33	47304.57
580.49	46972.21
580.65	47278.82
580.82	46820.08
580.98	46962.85
581.14	46869.23
581.30	47140.73
581.46	47119.66
581.62	47152.43
581.78	47154.77
581.94	47215.63
582.10	46679.64
582.26	47391.17
582.42	46871.57
582.58	47129.03
582.74	47793.74
582.90	47250.74
583.06	47585.43
583.22	46721.77
583.38	47166.48
583.54	47199.24
583.70	47210.95
583.86	47283.50
584.02	47342.02
584.18	47709.48
584.34	47821.83
584.50	47381.80
584.66	47463.72
584.82	47082.22
584.98	47840.55
585.14	47515.22
585.30	47241.37
585.46	47227.33
585.62	47393.51
585.78	47636.92
585.94	47016.68
586.10	47091.58
586.26	47042.43
586.42	47152.43
586.58	47639.26
586.74	47030.72
586.90	47365.42
587.06	47594.79
587.22	47461.38
587.38	47360.74
587.54	47346.70
587.70	47873.32
587.86	47686.07
588.02	47105.62
588.18	47604.16
588.34	47215.63
588.49	47849.91
588.65	47409.89
588.81	47332.65
588.97	47583.09
589.13	47758.63
589.29	47236.69
589.45	47964.60
589.61	47641.60
589.77	47997.37
589.93	47627.56
590.08	47620.54
590.24	47700.12
590.40	47833.53
590.56	48067.58
590.72	47812.46
590.88	47896.72
591.04	47723.52
591.20	47686.07
591.35	47735.23
591.51	48430.36
591.67	48016.09
591.83	48364.83
591.99	47810.12
592.15	47772.67
592.31	47435.64
592.46	47339.68
592.62	47833.53
592.78	47903.74
592.94	48289.93
593.10	48203.33
593.26	48430.36
593.41	48233.76
593.57	48004.39
593.73	48081.63
593.89	48245.46
594.05	48512.28
594.20	48353.13
594.36	48573.14
594.52	48685.48
594.68	48182.27
594.84	48027.79
594.99	48381.21
595.15	48069.92
595.31	47971.62
595.47	48236.10
595.62	47842.89
595.78	47845.23
595.94	48397.60
596.10	48133.12
596.25	47810.12
596.41	48198.65
596.57	48481.86
596.73	48540.37
596.88	48189.29
597.04	47969.28
597.20	48072.26
597.36	47789.06
597.51	48446.75
597.67	48067.58
597.83	47863.96
597.99	48072.26
598.14	48156.52
598.30	47854.59
598.46	47861.61
598.61	48378.87
598.77	48081.63
598.93	48133.12
599.09	48287.59
599.24	48549.73
599.40	48158.86
599.56	48006.73
599.71	48690.16
599.87	48842.30
600.03	48346.11
600.18	48369.51
600.34	48526.33
600.50	48282.91
600.65	48287.59
600.81	48755.70
600.97	48519.31
601.12	48540.37
601.28	48081.63
601.44	48261.85
601.59	48282.91
601.75	48327.38
601.91	48666.76
602.06	48416.32
602.22	48271.21
602.37	48233.76
602.53	48341.42
602.69	48327.38
602.84	48144.82
603.00	48210.35
603.16	48140.14
603.31	48184.61
603.47	48458.45
603.62	48250.14
603.78	48669.10
603.94	48156.52
604.09	48339.08
604.25	48465.47
604.40	48116.73
604.56	48552.07
604.71	48226.74
604.87	48325.04
605.03	48217.38
605.18	48119.07
605.34	48374.19
605.49	47938.85
605.65	47983.32
605.80	48013.75
605.96	48189.29
606.12	48210.35
606.27	48549.73
606.43	47878.00
606.58	48318.02
606.74	48236.10
606.89	48259.51
607.05	48671.44
607.20	47922.47
607.36	48465.47
607.51	48140.14
607.67	47810.12
607.82	48137.80
607.98	47887.36
608.13	48236.10
608.29	48126.10
608.44	48172.91
608.60	47810.12
608.75	48186.95
608.91	47824.17
609.06	48088.65
609.22	48430.36
609.37	47833.53
609.53	47824.17
609.68	48210.35
609.84	47964.60
609.99	47964.60
610.15	48186.95
610.30	48072.26
610.46	47360.74
610.61	47880.34
610.76	47995.03
610.92	47875.66
611.07	47887.36
611.23	47611.18
611.38	47814.80
611.54	47782.04
611.69	48336.74
611.84	48030.13
612.00	47587.77
612.15	47980.98
612.31	48002.05
612.46	47849.91
612.62	47657.99
612.77	47746.93
612.92	48451.43
613.08	47627.56
613.23	48243.12
613.39	47739.91
613.54	47517.56
613.69	47906.08
613.85	47845.23
614.00	47660.33
614.15	47737.57
614.31	47721.18
614.46	47611.18
614.62	47648.63
614.77	47522.24
614.92	47660.33
615.08	47356.06
615.23	47931.83
615.38	47524.58
615.54	47393.51
615.69	47739.91
615.84	47327.97
616.00	47716.50
616.15	47522.24
616.30	47117.32
616.46	47395.85
616.61	47519.90
616.76	47365.42
616.92	47014.34
617.07	47723.52
617.22	47435.64
617.37	46967.53
617.53	47693.10
617.68	47033.07
617.83	47110.30
617.99	47334.99
618.14	47531.60
618.29	47456.70
618.45	46710.07
618.60	46990.94
618.75	46747.52
618.90	46717.09
619.06	46799.01
619.21	47051.79
619.36	47274.14
619.51	46738.16
619.67	46726.46
619.82	46937.10
619.97	47114.98
620.12	47084.56
620.28	46721.77
620.43	47075.19
620.58	47367.76
620.73	46969.87
620.89	47016.68
621.04	47337.33
621.19	46794.33
621.34	46724.11
621.49	46782.63
621.65	46595.38
621.80	46972.21
621.95	46979.23
622.10	47030.72
622.25	46625.81
622.41	46431.55
622.56	46974.55
622.71	47327.97
622.86	47093.92
623.01	46923.06
623.16	46511.13
623.32	46478.36
623.47	46862.21
623.62	46333.24
623.77	46335.59
623.92	46703.05
624.07	46705.39
624.23	46370.69
624.38	46724.11
624.53	46674.96
624.68	46174.09
624.83	46459.63
624.98	46377.72
625.13	46012.59
625.29	45886.20
625.44	46628.15
625.59	46183.45
625.74	46183.45
625.89	45830.03
626.04	46333.24
626.19	46340.27
626.34	46108.55
626.49	45888.54
626.65	45883.86
626.80	46396.44
626.95	45998.55
627.10	45460.23
627.25	46064.08
627.40	46005.57
627.55	45787.90
627.70	46047.70
627.85	46251.33
628.00	46043.02
628.15	46225.58
628.30	45598.32
628.45	45553.85
628.60	45404.05
628.76	45895.56
628.91	45619.38
629.06	45439.16
629.21	45607.68
629.36	45228.51
629.51	45361.92
629.66	45862.80
629.81	45434.48
629.96	45668.53
630.11	45492.99
630.26	45624.06
630.41	45432.14
630.56	45397.03
630.71	45546.82
630.86	45546.82
631.01	44938.29
631.16	45289.37
631.31	45275.32
631.46	45134.89
631.61	45544.48
631.76	45684.92
631.91	45422.78
632.06	45298.73
632.21	45645.13
632.36	45462.57
632.51	44708.91
632.66	45294.05
632.81	45167.66
632.96	45045.95
633.10	45263.62
633.25	44825.94
633.40	45373.63
633.55	45382.99
633.70	45184.04
633.85	44645.72
634.00	44615.29
634.15	45174.68
634.30	44474.86
634.45	44861.05
634.60	44802.53
634.75	44935.95
634.90	44739.34
635.05	44814.24
635.19	44921.90
635.34	44643.38
635.49	44634.02
635.64	44596.57
635.79	44947.65
635.94	45088.08
636.09	44924.24
636.24	44364.85
636.39	44708.91
636.53	44266.55
636.68	44334.43
636.83	44444.43
636.98	44149.53
637.13	43885.04
637.28	44388.26
637.43	44072.29
637.57	44119.10
637.72	44301.66
637.87	44339.11
638.02	44163.57
638.17	44603.59
638.32	43838.23
638.46	43728.23
638.61	43915.47
638.76	43578.43
638.91	43777.38
639.06	44126.12
639.20	43627.59
639.35	43763.34
639.50	43538.65
639.65	44320.38
639.80	44385.92
639.94	44177.61
640.09	44428.05
640.24	43969.30
640.39	43503.54
640.54	43196.93
640.68	44072.29
640.83	44158.89
640.98	43428.64
641.13	43171.18
641.27	43835.89
641.42	43871.00
641.57	43601.84
641.72	43828.87
641.86	43629.93
642.01	43365.45
642.16	43641.63
642.31	43430.98
642.45	43533.96
642.60	43430.98
642.75	43388.85
642.90	43512.90
643.04	43466.09
643.19	43124.37
643.34	43269.48
643.48	43098.62
643.63	43320.98
643.78	43262.46
643.93	43241.40
644.07	43292.89
644.22	43000.32
644.37	43005.00
644.51	43524.60
644.66	43421.62
644.81	43316.29
644.95	43573.75
645.10	43100.97
645.25	42780.31
645.39	42700.73
645.54	42770.95
645.69	42508.81
645.83	42667.97
645.98	42515.83
646.13	42433.91
646.27	42457.32
646.42	42417.53
646.57	42623.50
646.71	42930.11
646.86	43267.14
647.00	42569.66
647.15	43058.84
647.30	42780.31
647.44	42677.33
647.59	42880.95
647.74	42728.82
647.88	42806.06
648.03	42684.35
648.17	43028.41
648.32	42618.81
648.47	42499.45
648.61	42480.72
648.76	42017.30
648.90	42277.10
649.05	41944.74
649.20	42438.59
649.34	42309.86
649.49	42700.73
649.63	42646.90
649.78	42845.85
649.92	42527.53
650.07	42726.48
650.21	42440.93
650.36	42424.55
650.51	42246.67
650.65	42782.65
650.80	42801.38
650.94	42426.89
651.09	42293.48
651.23	42000.91
651.38	41961.12
651.52	41638.13
651.67	41722.39
651.81	42199.86
651.96	41703.67
652.10	41647.49
652.25	41455.57
652.39	41790.27
652.54	42171.77
652.68	41844.10
652.83	41806.65
652.97	42134.32
653.12	41965.81
653.26	41790.27
653.41	41572.60
653.55	41727.07
653.70	41895.59
653.84	42160.07
653.99	41598.34
654.13	41605.36
654.27	41567.91
654.42	41478.97
654.56	41418.12
654.71	41792.61
654.85	41464.93
655.00	41514.08
655.14	41907.29
655.29	41757.50
655.43	41703.67
655.57	41315.14
655.72	41282.37
655.86	41329.18
656.01	41127.89
656.15	41303.43
656.30	41478.97
656.44	41476.63
656.58	41202.79
656.73	41361.95
656.87	40891.50
657.01	40917.25
657.16	41453.23
657.30	41125.55
657.45	40966.40
657.59	41198.11
657.73	40821.28
657.88	41029.59
658.02	40914.90
658.16	41095.13
658.31	40877.46
658.45	41106.83
658.60	40488.93
658.74	40996.82
658.88	40697.24
659.03	40327.43
659.17	40512.33
659.31	40715.96
659.46	40570.85
659.60	40559.14
659.74	40451.48
659.89	40053.59
660.03	39997.41
660.17	39903.79
660.32	40233.81
660.46	40304.02
660.60	39742.30
660.74	40229.13
660.89	40353.18
661.03	39744.64
661.17	39384.19
661.32	39632.29
661.46	39952.94
661.60	39835.92
661.74	40037.20
661.89	39796.13
662.03	39484.84
662.17	39412.28
662.31	39531.65
662.46	39482.50
662.60	38885.66
662.74	39367.81
662.88	38993.32
663.03	39021.41
663.17	38962.90
663.31	39047.16
663.45	39313.98
663.60	39075.24
663.74	39370.15
663.88	39143.12
664.02	38656.29
664.17	39215.68
664.31	38986.30
664.45	38890.34
664.59	38550.96
664.73	38520.54
664.88	39124.40
665.02	38733.53
665.16	38419.89
665.30	38422.23
665.44	38080.52
665.59	37958.81
665.73	38150.73
665.87	38014.98
666.01	38366.06
666.15	37881.57
666.29	38150.73
666.44	38071.15
666.58	38110.94
666.72	37476.66
666.86	38136.69
667.00	37605.39
667.14	38012.64
667.28	37612.41
667.43	37488.36
667.57	37837.10
667.71	37773.91
667.85	37757.52
667.99	37347.93
668.13	37184.09
668.27	37230.90
668.41	36893.86
668.56	36744.07
668.70	36683.22
668.84	36500.65
668.98	36381.29
669.12	37017.91
669.26	36921.95
669.40	36856.42
669.54	36823.65
669.68	36919.61
669.82	36704.28
669.96	36638.75
670.10	35929.56
670.25	36016.16
670.39	36280.64
670.53	36229.15
670.67	36297.03
670.81	36699.60
670.95	36376.61
671.09	35842.96
671.23	35887.43
671.37	35737.64
671.51	36009.14
671.65	35889.77
671.79	35906.16
671.93	35484.86
672.07	35779.77
672.21	35283.58
672.35	35583.16
672.49	35358.47
672.63	35075.27
672.77	35295.28
672.91	35189.95
673.05	35276.55
673.19	34934.84
673.33	34700.78
673.47	34848.24
673.61	34541.63
673.75	34286.51
673.89	34260.76
674.03	34562.69
674.17	34113.31
674.31	34258.42
674.45	33472.00
674.59	33975.22
674.73	33832.44
674.87	33867.55
675.01	34265.44
675.15	33483.70
675.29	33511.79
675.43	33364.34
675.56	33841.81
675.70	33371.36
675.84	33188.80
675.98	32385.99
676.12	33516.47
676.26	33347.95
676.40	32900.91
676.54	32645.79
676.68	32872.82
676.82	32177.68
676.96	32957.08
677.10	32980.49
677.23	32627.07
677.37	32488.98
677.51	32189.39
677.65	31950.65
677.79	31817.24
677.93	32210.45
678.07	32297.05
678.21	31988.10
678.34	31943.63
678.48	31632.34
678.62	31365.52
678.76	31365.52
678.90	31344.45
679.04	31140.83
679.18	31414.67
679.31	31215.72
679.45	30946.56
679.59	30778.04
679.73	30960.61
679.87	30604.84
680.00	30651.66
680.14	30630.59
680.28	30527.61
680.42	30235.04
680.56	30583.78
680.70	29839.49
680.83	30164.82
680.97	29586.71
681.11	29731.83
681.25	29652.25
681.39	29479.05
681.52	29408.83
681.66	28954.77
681.80	28741.78
681.94	28491.34
682.07	29064.77
682.21	28786.25
682.35	28711.35
682.49	28477.30
682.62	28442.19
682.76	28753.48
682.90	28439.85
683.04	28088.77
683.17	28313.46
683.31	27985.79
683.45	28243.24
683.59	27791.52
683.72	27662.79
683.86	27784.50
684.00	27733.01
684.13	27278.94
684.27	27543.42
684.41	27445.12
684.55	27234.47
684.68	27278.94
684.82	27037.87
684.96	27075.32
685.09	26899.78
685.23	27103.40
685.37	27229.79
685.50	27433.42
685.64	26799.13
685.78	26228.04
685.91	26331.03
686.05	25986.97
686.19	25853.56
686.32	26457.42
686.46	25804.41
686.60	25535.24
686.73	25603.12
686.87	25893.35
687.01	25729.51
687.14	25818.45
687.28	25867.60
687.42	25427.58
687.55	25242.68
687.69	25212.25
687.82	24819.04
687.96	24959.47
688.10	24915.00
688.23	24680.95
688.37	24762.87
688.50	24924.36
688.64	24751.17
688.78	24453.92
688.91	24175.39
689.05	24512.43
689.18	24030.28
689.32	23583.24
689.46	23702.61
689.59	23737.71
689.73	24259.65
689.86	23948.36
690.00	23651.11
690.13	23618.35
690.27	23168.96
690.41	23426.42
690.54	23033.21
690.68	23070.66
690.81	23056.62
690.95	22782.77
691.08	22836.61
691.22	22909.16
691.35	22487.87
691.49	22761.71
691.62	22635.32
691.76	22134.45
691.89	22178.92
692.03	21954.22
692.16	21680.38
692.30	21783.37
692.43	22127.42
692.57	21532.93
692.70	21951.88
692.84	21612.51
692.97	21355.05
693.11	21369.09
693.24	21219.30
693.38	21144.40
693.51	21018.01
693.65	21034.39
693.78	21029.71
693.92	21106.95
694.05	20966.52
694.19	20952.48
694.32	20695.02
694.45	20812.04
694.59	21062.48
694.72	20737.15
694.86	20334.57
694.99	20170.74
695.13	19784.55
695.26	19868.81
695.39	19557.52
695.53	19648.80
695.66	19751.78
695.80	19796.25
695.93	19880.51
696.07	19386.66
696.20	19185.37
696.33	19094.09
696.47	19033.24
696.60	19061.32
696.73	19005.15
696.87	19051.96
697.00	18768.76
697.14	18792.16
697.27	18604.92
697.40	18668.11
697.54	18916.21
697.67	18487.89
697.80	18600.24
697.94	18497.25
698.07	18129.79
698.21	17965.95
698.34	18033.83
698.47	17755.30
698.61	17542.32
698.74	17462.74
698.87	17661.68
699.01	17378.48
699.14	17696.79
699.27	17366.78
699.40	17724.88
699.54	17198.26
699.67	17078.89
699.80	17104.64
699.94	16872.92
700.07	17130.38
700.20	16783.98
700.34	16496.10
700.47	16688.02
700.60	16999.31
700.73	16910.37
700.87	16549.93
701.00	16170.76
701.13	16367.37
701.26	16065.44
701.40	15845.43
701.53	15976.50
701.66	16168.42
701.79	16030.33
701.93	15903.94
702.06	15562.22
702.19	15578.61
702.32	15761.17
702.46	15641.80
702.59	15634.78
702.72	15641.80
702.85	15747.12
702.99	15239.23
703.12	15431.15
703.25	15255.61
703.38	15178.37
703.51	15012.20
703.65	15089.43
703.78	14689.20
703.91	14513.66
704.04	14473.87
704.17	14684.52
704.31	14513.66
704.44	14452.81
704.57	14384.93
704.70	14448.13
704.83	14043.21
704.96	14143.86
705.10	14061.94
705.23	13827.88
>>>>>End Processed Spectral Data<<<<<
