SpectraSuite Data File
++++++++++++++++++++++++++++++++++++
Date: Fri Oct 25 11:33:08 EDT 2013
User: price-jones
Dark Spectrum Present: No
Reference Spectrum Present: No
Number of Sampled Component Spectra: 1
Spectrometers: USB2+H05261
Integration Time (usec): 100000 (USB2+H05261)
Spectra Averaged: 1 (USB2+H05261)
Boxcar Smoothing: 0 (USB2+H05261)
Correct for Electrical Dark: No (USB2+H05261)
Strobe/Lamp Enabled: No (USB2+H05261)
Correct for Detector Non-linearity: No (USB2+H05261)
Correct for Stray Light: No (USB2+H05261)
Number of Pixels in Processed Spectrum: 2048
>>>>>Begin Processed Spectral Data<<<<<
365.73	278.52
365.92	278.52
366.12	278.52
366.32	168.52
366.52	140.43
366.72	152.13
366.91	117.03
367.11	189.58
367.31	191.92
367.51	126.39
367.70	177.88
367.90	212.99
368.10	124.05
368.30	236.39
368.49	161.50
368.69	140.43
368.89	147.45
369.09	212.99
369.28	191.92
369.48	255.12
369.68	227.03
369.87	177.88
370.07	212.99
370.27	210.65
370.47	301.93
370.66	358.10
370.86	463.43
371.06	526.62
371.25	561.73
371.45	500.87
371.65	547.69
371.84	533.64
372.04	533.64
372.24	500.87
372.44	592.16
372.63	615.56
372.83	603.86
373.03	582.79
373.22	606.20
373.42	620.24
373.62	587.47
373.81	582.79
374.01	585.13
374.21	667.05
374.40	690.46
374.60	685.78
374.79	622.58
374.99	688.12
375.19	610.88
375.38	688.12
375.58	660.03
375.78	664.71
375.97	685.78
376.17	727.91
376.37	629.60
376.56	751.31
376.76	699.82
376.95	760.67
377.15	608.54
377.35	709.18
377.54	669.39
377.74	706.84
377.93	720.88
378.13	770.04
378.33	667.05
378.52	711.52
378.72	692.80
378.91	781.74
379.11	760.67
379.31	793.44
379.50	688.12
379.70	760.67
379.89	706.84
380.09	704.50
380.28	746.63
380.48	763.01
380.68	716.20
380.87	744.29
381.07	788.76
381.26	807.48
381.46	746.63
381.65	683.44
381.85	739.61
382.04	786.42
382.24	781.74
382.43	774.72
382.63	858.98
382.83	779.40
383.02	847.27
383.22	795.78
383.41	826.21
383.61	753.65
383.80	770.04
384.00	826.21
384.19	835.57
384.39	833.23
384.58	837.91
384.78	849.61
384.97	858.98
385.17	809.83
385.36	833.23
385.56	807.48
385.75	809.83
385.95	828.55
386.14	826.21
386.34	915.15
386.53	880.04
386.72	823.87
386.92	812.17
387.11	917.49
387.31	933.87
387.50	873.02
387.70	870.68
387.89	966.64
388.09	847.27
388.28	903.45
388.48	973.66
388.67	866.00
388.86	821.53
389.06	908.13
389.25	866.00
389.45	919.83
389.64	961.96
389.84	1006.43
390.03	905.79
390.22	964.30
390.42	954.94
390.61	950.26
390.81	1015.79
391.00	964.30
391.19	1050.90
391.39	1116.44
391.58	1008.77
391.78	1039.20
391.97	1100.05
392.16	976.00
392.36	1011.11
392.55	1060.26
392.75	1074.31
392.94	1029.84
393.13	1041.54
393.33	968.98
393.52	1069.62
393.71	1076.65
393.91	1062.60
394.10	1081.33
394.29	1118.78
394.49	1081.33
394.68	1125.80
394.88	1137.50
395.07	1186.65
395.26	1128.14
395.46	1090.69
395.65	1177.29
395.84	1179.63
396.04	1210.06
396.23	1177.29
396.42	1142.18
396.62	1170.27
396.81	1158.57
397.00	1203.04
397.19	1301.34
397.39	1160.91
397.58	1275.59
397.77	1196.01
397.97	1270.91
398.16	1348.15
398.35	1313.04
398.55	1249.85
398.74	1240.48
398.93	1336.45
399.12	1357.51
399.32	1376.24
399.51	1350.49
399.70	1331.76
399.90	1327.08
400.09	1334.11
400.28	1399.64
400.47	1320.06
400.67	1430.07
400.86	1493.26
401.05	1458.15
401.24	1387.94
401.44	1369.21
401.63	1535.39
401.82	1446.45
402.01	1451.13
402.21	1502.62
402.40	1509.65
402.59	1462.83
402.78	1570.50
402.97	1483.90
403.17	1540.07
403.36	1577.52
403.55	1439.43
403.74	1556.46
403.93	1603.27
404.13	1591.56
404.32	1556.46
404.51	1631.35
404.70	1696.89
404.89	1671.14
405.09	1617.31
405.28	1636.03
405.47	1764.76
405.66	1741.36
405.85	1783.49
406.05	1736.68
406.24	1764.76
406.43	1715.61
406.62	1858.39
406.81	1834.98
407.00	1727.32
407.20	1823.28
407.39	1753.06
407.58	1921.58
407.77	1818.60
407.96	1968.39
408.15	2026.90
408.34	1867.75
408.54	1865.41
408.73	1916.90
408.92	1961.37
409.11	1834.98
409.30	2054.99
409.49	2090.10
409.68	2024.56
409.87	1959.03
410.07	2005.84
410.26	2104.14
410.45	1944.99
410.64	2078.40
410.83	2043.29
411.02	2197.76
411.21	2146.27
411.40	2193.08
411.59	2284.36
411.78	2258.62
411.98	2303.09
412.17	2249.25
412.36	2282.02
412.55	2370.96
412.74	2377.98
412.93	2422.45
413.12	2326.49
413.31	2436.50
413.50	2235.21
413.69	2361.60
413.88	2532.46
414.07	2445.86
414.26	2523.10
414.45	2621.40
414.64	2504.37
414.83	2565.23
415.02	2567.57
415.22	2668.21
415.41	2700.98
415.60	2572.25
415.79	2789.92
415.98	2761.83
416.17	2766.51
416.36	2691.62
416.55	2759.49
416.74	2862.48
416.93	2874.18
417.12	2839.07
417.31	2825.03
417.50	2878.86
417.69	2867.16
417.88	2988.86
418.07	2911.63
418.26	2878.86
418.45	2984.18
418.64	3061.42
418.83	3124.62
419.02	3108.23
419.21	3087.17
419.39	3178.45
419.58	3019.29
419.77	3059.08
419.96	3236.96
420.15	3194.83
420.34	3187.81
420.53	3045.04
420.72	3201.85
420.91	3241.64
421.10	3356.33
421.29	3332.92
421.48	3201.85
421.67	3262.71
421.86	3293.13
422.05	3342.28
422.24	3290.79
422.43	3325.90
422.61	3353.99
422.80	3321.22
422.99	3478.04
423.18	3398.46
423.37	3396.12
423.56	3442.93
423.75	3421.86
423.94	3412.50
424.13	3178.45
424.32	3276.75
424.50	3482.72
424.69	3674.64
424.88	3445.27
425.07	3377.39
425.26	3379.73
425.45	3527.19
425.64	3513.14
425.83	3510.80
426.01	3396.12
426.20	3513.14
426.39	3449.95
426.58	3620.81
426.77	3480.38
426.96	3634.85
427.15	3669.96
427.33	3618.47
427.52	3602.08
427.71	3634.85
427.90	3669.96
428.09	3641.87
428.28	3700.39
428.46	3751.88
428.65	3786.99
428.84	3803.37
429.03	3880.61
429.22	3765.92
429.40	3719.11
429.59	3801.03
429.78	3653.58
429.97	3679.32
430.16	3840.82
430.34	3810.39
430.53	3906.35
430.72	3896.99
430.91	3915.72
431.10	3805.71
431.28	3866.56
431.47	3997.64
431.66	3985.93
431.85	3831.46
432.03	4095.94
432.22	4224.67
432.41	4049.13
432.60	4037.42
432.79	3950.82
432.97	4142.75
433.16	4046.79
433.35	3962.53
433.54	4086.58
433.72	4290.20
433.91	4262.12
434.10	4131.05
434.28	4128.70
434.47	4217.65
434.66	4304.25
434.85	4259.78
435.03	4355.74
435.22	4215.30
435.41	4369.78
435.59	4475.10
435.78	4517.23
435.97	4458.72
436.16	4332.33
436.34	4447.02
436.53	4425.95
436.72	4582.77
436.90	4318.29
437.09	4372.12
437.28	4428.29
437.46	4601.49
437.65	4512.55
437.84	4727.88
438.02	4599.15
438.21	4606.17
438.40	4791.08
438.58	4753.63
438.77	4685.75
438.96	4727.88
439.14	4809.80
439.33	5034.49
439.52	4931.51
439.70	4931.51
439.89	4896.40
440.08	5116.41
440.26	5118.75
440.45	5032.15
440.63	5132.79
440.82	5114.07
441.01	5132.79
441.19	5268.55
441.38	5245.14
441.57	5284.93
441.75	5195.99
441.94	5493.24
442.12	5460.47
442.31	5600.90
442.50	5483.88
442.68	5493.24
442.87	5556.43
443.05	5500.26
443.24	5687.50
443.43	5493.24
443.61	5558.77
443.80	5701.54
443.98	5521.32
444.17	5298.97
444.35	5584.52
444.54	5865.38
444.73	5617.29
444.91	5717.93
445.10	5748.36
445.28	5650.05
445.47	5605.58
445.65	5755.38
445.84	5717.93
446.02	5736.65
446.21	5598.56
446.39	5650.05
446.58	5923.90
446.77	5738.99
446.95	5502.60
447.14	5760.06
447.32	5813.89
447.51	5900.49
447.69	5839.64
447.88	5724.95
448.06	5724.95
448.25	5888.79
448.43	5902.83
448.62	5799.85
448.80	5720.27
448.99	5802.19
449.17	5884.11
449.36	5865.38
449.54	5912.19
449.73	6019.86
449.91	6031.56
450.10	6284.34
450.28	6090.07
450.46	6087.73
450.65	6085.39
450.83	6094.76
451.02	6204.76
451.20	6167.31
451.39	6106.46
451.57	6122.84
451.76	6223.48
451.94	6349.87
452.13	6300.72
452.31	6352.21
452.49	6204.76
452.68	6169.65
452.86	6328.81
453.05	6380.30
453.23	6541.80
453.42	6284.34
453.60	6228.17
453.78	6478.60
453.97	6368.60
454.15	6567.54
454.34	6448.18
454.52	6602.65
454.70	6525.41
454.89	6658.82
455.07	6607.33
455.26	6722.02
455.44	6794.58
455.62	6604.99
455.81	6754.79
455.99	6717.34
456.17	6920.96
456.36	6953.73
456.54	6665.85
456.73	6909.26
456.91	7037.99
457.09	7028.63
457.28	7140.97
457.46	6843.73
457.64	7070.76
457.83	7229.91
458.01	7105.87
458.19	7143.32
458.38	7236.94
458.56	7232.26
458.74	7236.94
458.93	7272.04
459.11	7239.28
459.29	7309.49
459.48	7321.20
459.66	7220.55
459.84	7370.35
460.03	7581.00
460.21	7529.50
460.39	7206.51
460.57	7403.11
460.76	7620.78
460.94	7674.62
461.12	7513.12
461.31	7562.27
461.49	7468.65
461.67	7527.16
461.85	7618.44
462.04	7602.06
462.22	8201.24
462.40	7768.24
462.59	7777.60
462.77	7791.64
462.95	7747.17
463.13	7786.96
463.32	7941.44
463.50	7906.33
463.68	7988.25
463.86	8109.96
464.05	7695.68
464.23	7768.24
464.41	8042.08
464.59	7817.39
464.78	8135.70
464.96	7988.25
465.14	7892.29
465.32	7997.61
465.50	8060.80
465.69	8463.38
465.87	8297.20
466.05	8107.62
466.23	8098.25
466.41	8329.97
466.60	8430.61
466.78	8355.71
466.96	8339.33
467.14	8161.45
467.32	8374.44
467.51	8470.40
467.69	8182.51
467.87	8348.69
468.05	8617.85
468.23	8259.75
468.41	8348.69
468.60	8397.84
468.78	8503.17
468.96	8367.42
469.14	8730.20
469.32	8589.77
469.50	8681.05
469.69	8938.51
469.87	8812.12
470.05	8943.19
470.23	8978.30
470.41	8889.35
470.59	8943.19
470.77	8835.52
470.95	8739.56
471.14	9025.11
471.32	8856.59
471.50	9179.58
471.68	9242.78
471.86	9188.94
472.04	9167.88
472.22	9273.20
472.40	9263.84
472.58	9406.61
472.77	9224.05
472.95	9600.88
473.13	9745.99
473.31	9441.72
473.49	9446.40
473.67	9462.79
473.85	9554.07
474.03	9781.10
474.21	9774.08
474.39	9916.85
474.57	9877.06
474.75	9935.57
474.93	9912.17
475.12	9987.07
475.30	10265.59
475.48	9961.32
475.66	10178.99
475.84	10057.28
476.02	10251.55
476.20	10260.91
476.38	10619.01
476.56	10459.85
476.74	10658.80
476.92	10441.13
477.10	10537.09
477.28	10820.30
477.46	10824.98
477.64	10832.00
477.82	11042.65
478.00	11269.68
478.18	11201.80
478.36	11232.23
478.54	11335.21
478.72	11480.33
478.90	11541.18
479.08	11833.75
479.26	11735.45
479.44	11777.58
479.62	11854.81
479.80	11850.13
479.98	12208.23
480.16	12468.03
480.34	12074.82
480.52	12465.69
480.70	12507.82
480.88	12236.32
481.06	12446.97
481.24	12723.15
481.41	12755.92
481.59	12669.32
481.77	12912.74
481.95	13032.10
482.13	13036.78
482.31	13329.35
482.49	13366.80
482.67	13523.62
482.85	13671.07
483.03	13603.19
483.21	13839.59
483.39	13743.63
483.57	13965.98
483.74	14115.77
483.92	14225.78
484.10	14038.53
484.28	14562.81
484.46	14438.76
484.64	14775.80
484.82	14775.80
485.00	14827.29
485.18	15014.54
485.35	15393.70
485.53	14934.96
485.71	15377.32
485.89	15613.71
486.07	15695.63
486.25	15438.17
486.43	15623.08
486.61	15772.87
486.78	15819.68
486.96	15819.68
487.14	16315.87
487.32	16376.73
487.50	16524.18
487.68	16755.90
487.85	16737.17
488.03	16732.49
488.21	17034.42
488.39	17144.42
488.57	17390.18
488.75	17259.11
488.92	17511.89
489.10	17830.20
489.28	17680.41
489.46	18214.05
489.64	17776.37
489.81	18181.28
489.99	18251.50
490.17	18597.90
490.35	18422.36
490.53	18810.89
490.70	18843.65
490.88	18815.57
491.06	19108.13
491.24	19351.55
491.41	19316.44
491.59	19541.13
491.77	19393.68
491.95	19800.93
492.13	19803.27
492.30	19852.42
492.48	19850.08
492.66	19859.45
492.84	19791.57
493.01	20187.12
493.19	20514.80
493.37	20678.63
493.54	20379.04
493.72	20856.51
493.90	20800.34
494.08	21036.74
494.25	21118.65
494.43	21167.80
494.61	21429.94
494.79	21600.80
494.96	21500.16
495.14	21502.50
495.32	22017.42
495.49	22026.78
495.67	22277.22
495.85	21921.46
496.02	22134.45
496.20	22522.98
496.38	22656.39
496.55	22448.08
496.73	23232.16
496.91	23000.44
497.09	22675.11
497.26	23157.26
497.44	23201.73
497.62	23274.29
497.79	23637.07
497.97	23288.33
498.14	23763.46
498.32	23908.57
498.50	24175.39
498.67	24105.18
498.85	24259.65
499.03	24133.26
499.20	24430.51
499.38	24376.68
499.56	24596.69
499.73	24650.52
499.91	24482.00
500.08	25010.96
500.26	24800.32
500.44	25139.69
500.61	25076.50
500.79	25085.86
500.97	25378.43
501.14	25216.93
501.32	25504.82
501.49	25575.03
501.67	25301.19
501.84	25895.69
502.02	25886.32
502.20	26052.50
502.37	25928.45
502.55	25624.18
502.72	26359.11
502.90	26038.46
503.07	26143.78
503.25	26174.21
503.43	26473.80
503.60	26742.96
503.78	26981.70
503.95	26515.93
504.13	26775.73
504.30	26874.03
504.48	27012.12
504.65	26899.78
504.83	27147.87
505.01	27150.21
505.18	27702.58
505.36	27400.65
505.53	27545.76
505.71	27576.19
505.88	27761.09
506.06	27285.97
506.23	27725.99
506.41	27559.81
506.58	27936.63
506.76	27967.06
506.93	28353.25
507.11	28395.38
507.28	28526.45
507.46	28119.20
507.63	28308.78
507.81	28704.33
507.98	28631.77
508.16	28786.25
508.33	29008.60
508.50	29029.66
508.68	29034.35
508.85	28872.85
509.03	29048.39
509.20	29479.05
509.38	29249.67
509.55	29783.32
509.73	29392.45
509.90	29802.04
510.08	29537.56
510.25	29621.82
510.42	29900.34
510.60	30267.81
510.77	29940.13
510.95	30319.30
511.12	30087.59
511.30	30377.81
511.47	30347.39
511.64	30286.53
511.82	30340.36
511.99	30478.46
512.17	30593.14
512.34	30682.08
512.51	30951.24
512.69	30984.01
512.86	31110.40
513.04	31246.15
513.21	31187.64
513.38	31384.24
513.56	31718.94
513.73	31339.77
513.90	31260.20
514.08	31360.84
514.25	32081.72
514.43	31910.86
514.60	31850.01
514.77	31978.74
514.95	31931.93
515.12	32212.79
515.29	32467.91
515.47	32231.52
515.64	32528.77
515.81	32521.74
515.99	32334.50
516.16	32914.95
516.33	32538.13
516.51	32996.87
516.68	32622.39
516.85	32786.22
517.03	33125.60
517.20	32893.89
517.37	33095.18
517.54	32671.54
517.72	33378.38
517.89	33392.42
518.06	33448.60
518.24	33619.46
518.41	33095.18
518.58	33432.21
518.75	33071.77
518.93	33661.58
519.10	33682.65
519.27	33839.47
519.45	33972.88
519.62	33750.52
519.79	34047.77
519.96	34052.45
520.14	34188.21
520.31	33970.54
520.48	34560.35
520.65	34712.49
520.83	34586.10
521.00	34581.42
521.17	34415.24
521.34	34883.34
521.52	35171.23
521.69	34632.91
521.86	34843.56
522.03	35105.70
522.20	34983.99
522.38	35285.92
522.55	35391.24
522.72	35559.76
522.89	35192.30
523.07	35908.50
523.24	35501.25
523.41	35803.17
523.58	35524.65
523.75	35735.30
523.92	35917.86
524.10	35875.73
524.27	36238.51
524.44	36144.89
524.61	36107.44
524.78	36168.30
524.96	36400.01
525.13	36428.10
525.30	36680.88
525.47	36428.10
525.64	36355.54
525.81	36847.05
525.98	36645.77
526.16	36694.92
526.33	37125.58
526.50	36650.45
526.67	36692.58
526.84	37230.90
527.01	36940.68
527.18	36776.84
527.36	36971.10
527.53	37031.96
527.70	37565.60
527.87	37383.04
528.04	37102.17
528.21	37209.84
528.38	37666.24
528.55	37823.06
528.72	37528.15
528.89	37720.07
529.07	37610.07
529.24	37551.56
529.41	37673.26
529.58	37872.21
529.75	37612.41
529.92	37890.93
530.09	38150.73
530.26	37998.60
530.43	38263.08
530.60	38148.39
530.77	37762.20
530.94	38007.96
531.11	38424.57
531.28	38359.04
531.46	38623.52
531.63	38857.57
531.80	38438.62
531.97	38504.15
532.14	38171.80
532.31	38639.90
532.48	38572.03
532.65	39171.21
532.82	38682.03
532.99	39009.71
533.16	38838.85
533.33	38850.55
533.50	39297.59
533.67	39065.88
533.84	38712.46
534.01	39505.90
534.18	39337.38
534.35	39693.15
534.52	39594.84
534.69	39723.57
534.86	39402.92
535.03	39796.13
535.20	39917.84
535.37	39709.53
535.54	40287.64
535.71	39716.55
535.88	39746.98
536.05	39971.67
536.22	40355.52
536.38	40172.96
536.55	40074.65
536.72	40158.91
536.89	40336.79
537.06	39798.47
537.23	40643.40
537.40	40086.36
537.57	40486.59
537.74	39894.43
537.91	40603.61
538.08	40545.10
538.25	40095.72
538.42	40491.27
538.59	40605.95
538.75	40355.52
538.92	41017.89
539.09	40772.13
539.26	41153.64
539.43	40449.14
539.60	41017.89
539.77	40959.38
539.94	41432.16
540.11	41104.49
540.28	41303.43
540.44	41567.91
540.61	40994.48
540.78	40928.95
540.95	41261.30
541.12	41476.63
541.29	41268.33
541.46	41457.91
541.62	41619.41
541.79	41577.28
541.96	40992.14
542.13	41338.54
542.30	41635.79
542.47	41474.29
542.63	41471.95
542.80	42052.41
542.97	42080.49
543.14	42199.86
543.31	42092.19
543.48	41951.76
543.64	42394.12
543.81	42181.13
543.98	42480.72
544.15	42684.35
544.32	42939.47
544.48	42909.04
544.65	42703.07
544.82	42567.32
544.99	42579.03
545.16	42237.31
545.32	42471.36
545.49	42773.29
545.66	42504.13
545.83	42698.39
546.00	43009.68
546.16	43309.27
546.33	42768.61
546.50	42918.40
546.67	43316.29
546.83	42623.50
547.00	42656.26
547.17	42759.25
547.34	42714.78
547.50	43243.74
547.67	43751.63
547.84	43189.91
548.00	43320.98
548.17	43772.70
548.34	43360.76
548.51	43728.23
548.67	43990.37
548.84	43316.29
549.01	44020.80
549.18	43639.29
549.34	43777.38
549.51	43992.71
549.68	43655.67
549.84	43789.08
550.01	43995.05
550.18	43604.18
550.34	44432.73
550.51	44137.82
550.68	43966.96
550.84	43681.42
551.01	44472.52
551.18	43885.04
551.34	44203.36
551.51	44198.68
551.68	44362.51
551.84	44449.11
552.01	44116.76
552.18	44849.35
552.34	43821.85
552.51	44252.51
552.68	44404.64
552.84	44472.52
553.01	44516.99
553.18	44690.19
553.34	44678.49
553.51	44706.57
553.67	44563.80
553.84	44856.37
554.01	44795.51
554.17	44779.13
554.34	45272.98
554.51	44804.88
554.67	45062.33
554.84	44980.42
555.00	45226.17
555.17	44671.46
555.33	44952.33
555.50	45127.87
555.67	45015.52
555.83	44631.68
556.00	45165.32
556.16	45825.35
556.33	45434.48
556.50	45228.51
556.66	45130.21
556.83	44657.42
556.99	45675.55
557.16	45815.99
557.32	45900.25
557.49	45329.16
557.65	45329.16
557.82	45434.48
557.98	45656.83
558.15	45495.33
558.32	45736.41
558.48	45668.53
558.65	45441.50
558.81	45516.40
558.98	45296.39
559.14	45425.12
559.31	45743.43
559.47	46157.70
559.64	45893.22
559.80	45703.64
559.97	46052.38
560.13	44945.31
560.30	45741.09
560.46	46085.15
560.63	45710.66
560.79	46220.90
560.96	45808.96
561.12	46071.10
561.29	45996.21
561.45	46288.77
561.61	45893.22
561.78	46160.05
561.94	46373.03
562.11	45827.69
562.27	45996.21
562.44	45911.95
562.60	46382.40
562.77	46291.12
562.93	45876.84
563.10	46478.36
563.26	45925.99
563.42	46651.56
563.59	46274.73
563.75	46375.37
563.92	46738.16
564.08	46122.60
564.24	46726.46
564.41	46637.51
564.57	46138.98
564.74	46712.41
564.90	46300.48
565.07	45851.09
565.23	46529.85
565.39	46078.13
565.56	46412.82
565.72	46770.93
565.88	46672.62
566.05	46335.59
566.21	46656.24
566.38	46616.45
566.54	46703.05
566.70	46951.15
566.87	46206.86
567.03	46834.12
567.19	46358.99
567.36	46681.98
567.52	46651.56
567.68	47126.69
567.85	46904.34
568.01	46983.91
568.17	46225.58
568.34	46902.00
568.50	46817.74
568.66	47145.41
568.83	46777.95
568.99	46822.42
569.15	46333.24
569.32	46485.38
569.48	46644.54
569.64	47320.95
569.81	47028.38
569.97	47274.14
570.13	47217.97
570.30	46576.66
570.46	46902.00
570.62	47126.69
570.78	47208.61
570.95	47042.43
571.11	47075.19
571.27	46869.23
571.43	47105.62
571.60	47435.64
571.76	46770.93
571.92	46906.68
572.09	47365.42
572.25	47082.22
572.41	47210.95
572.57	47000.30
572.74	47398.19
572.90	47393.51
573.06	47414.57
573.22	47232.01
573.38	47346.70
573.55	47405.21
573.71	47622.88
573.87	47447.34
574.03	47143.07
574.20	47463.72
574.36	47316.27
574.52	47749.27
574.68	47318.61
574.84	47515.22
575.01	47590.11
575.17	47840.55
575.33	47372.44
575.49	47229.67
575.65	47938.85
575.82	47789.06
575.98	47426.28
576.14	47627.56
576.30	47980.98
576.46	47035.41
576.62	47445.00
576.79	47398.19
576.95	46894.97
577.11	47480.11
577.27	47292.86
577.43	47634.58
577.59	47522.24
577.75	47342.02
577.92	46934.76
578.08	47255.42
578.24	47374.78
578.40	47585.43
578.56	47533.94
578.72	47166.48
578.88	47995.03
579.04	47473.09
579.21	47430.96
579.37	47798.42
579.53	47784.38
579.69	47332.65
579.85	47480.11
580.01	47901.40
580.17	47627.56
580.33	47264.78
580.49	47585.43
580.65	47833.53
580.82	47248.39
580.98	47278.82
581.14	47173.50
581.30	47784.38
581.46	47248.39
581.62	47285.84
581.78	47454.36
581.94	47908.43
582.10	47669.69
582.26	48142.48
582.42	47683.73
582.58	47686.07
582.74	47770.33
582.90	47693.10
583.06	47753.95
583.22	47854.59
583.38	47426.28
583.54	47899.06
583.70	47503.51
583.86	47742.25
584.02	47400.53
584.18	47784.38
584.34	47716.50
584.50	48179.93
584.66	47807.78
584.82	48252.48
584.98	48301.64
585.14	48025.45
585.30	47545.64
585.46	47693.10
585.62	47870.98
585.78	48023.11
585.94	47760.97
586.10	47814.80
586.26	47447.34
586.42	47587.77
586.58	47313.93
586.74	47625.22
586.90	47665.01
587.06	47482.45
587.22	48282.91
587.38	47648.63
587.54	47718.84
587.70	48100.35
587.86	47824.17
588.02	47693.10
588.18	47686.07
588.34	47826.51
588.49	48088.65
588.65	47922.47
588.81	47758.63
588.97	47995.03
589.13	47767.99
589.29	47868.64
589.45	48423.34
589.61	48116.73
589.77	48259.51
589.93	47852.25
590.08	47870.98
590.24	48577.82
590.40	48392.92
590.56	48341.42
590.72	48470.15
590.88	48060.56
591.04	47873.32
591.20	48289.93
591.35	48509.94
591.51	48612.93
591.67	48472.49
591.83	48385.89
591.99	48229.08
592.15	48090.99
592.31	48505.26
592.46	47798.42
592.62	47920.13
592.78	48484.20
592.94	49074.01
593.10	48385.89
593.26	48570.80
593.41	48397.60
593.57	48435.05
593.73	48210.35
593.89	48959.33
594.05	48830.60
594.20	48608.25
594.36	48521.65
594.52	48818.89
594.68	48582.50
594.84	47983.32
594.99	48926.56
595.15	48505.26
595.31	48348.45
595.47	48421.00
595.62	48374.19
595.78	48556.75
595.94	48699.53
596.10	48519.31
596.25	48676.12
596.41	48849.32
596.57	48390.58
596.73	48718.25
596.88	48685.48
597.04	48568.46
597.20	48369.51
597.36	48421.00
597.51	48669.10
597.67	48126.10
597.83	48617.61
597.99	48243.12
598.14	48327.38
598.30	48484.20
598.46	48762.72
598.61	48751.02
598.77	48704.21
598.93	48767.40
599.09	48788.47
599.24	48765.06
599.40	48491.22
599.56	48898.47
599.71	48589.52
599.87	49158.27
600.03	49083.37
600.18	48617.61
600.34	48762.72
600.50	48687.82
600.65	48360.15
600.81	48697.19
600.97	48828.26
601.12	48732.29
601.28	48528.67
601.44	48547.39
601.59	48858.68
601.75	48580.16
601.91	48797.83
602.06	48254.82
602.22	48718.25
602.37	48357.81
602.53	48846.98
602.69	48666.76
602.84	48470.15
603.00	48502.92
603.16	48573.14
603.31	48545.05
603.47	48744.00
603.62	48390.58
603.78	49099.76
603.94	49017.84
604.09	48886.77
604.25	48449.09
604.40	48566.12
604.56	48755.70
604.71	48849.32
604.87	48598.88
605.03	48355.47
605.18	48573.14
605.34	48381.21
605.49	48687.82
605.65	48657.40
605.80	48603.56
605.96	48502.92
606.12	48516.96
606.27	48413.98
606.43	48662.08
606.58	48793.15
606.74	48666.76
606.89	48854.00
607.05	49017.84
607.20	48545.05
607.36	48505.26
607.51	48198.65
607.67	48481.86
607.82	48250.14
607.98	48666.76
608.13	48341.42
608.29	48435.05
608.44	48589.52
608.60	48088.65
608.75	48802.51
608.91	48383.55
609.06	48041.84
609.22	48762.72
609.37	47847.57
609.53	48872.73
609.68	48711.23
609.84	48266.53
609.99	48495.90
610.15	48280.57
610.30	48776.76
610.46	48437.39
610.61	48016.09
610.76	48238.44
610.92	48275.89
611.07	48046.52
611.23	48243.12
611.38	48348.45
611.54	48058.22
611.69	48495.90
611.84	48601.22
612.00	48257.17
612.15	48355.47
612.31	48219.72
612.46	48055.88
612.62	48032.47
612.77	47805.44
612.92	48278.23
613.08	48425.68
613.23	48353.13
613.39	47955.24
613.54	48193.97
613.69	48488.88
613.85	47409.89
614.00	47983.32
614.15	48130.78
614.31	47941.19
614.46	48149.50
614.62	47842.89
614.77	48088.65
614.92	47669.69
615.08	48311.00
615.23	47892.04
615.38	47976.30
615.54	47931.83
615.69	48154.18
615.84	47728.20
616.00	48299.30
616.15	48477.18
616.30	47906.08
616.46	47732.89
616.61	47557.35
616.76	47875.66
616.92	47379.46
617.07	47838.21
617.22	48002.05
617.37	47412.23
617.53	47791.40
617.68	47714.16
617.83	47657.99
617.99	47744.59
618.14	47870.98
618.29	47185.20
618.45	47344.36
618.60	47531.60
618.75	46948.81
618.90	47192.22
619.06	47461.38
619.21	47430.96
619.36	47999.71
619.51	47136.05
619.67	47201.58
619.82	47538.62
619.97	47601.82
620.12	47599.47
620.28	47239.03
620.43	47496.49
620.58	47210.95
620.73	47114.98
620.89	47529.26
621.04	47730.54
621.19	47009.66
621.34	47311.59
621.49	47189.88
621.65	47133.71
621.80	47339.68
621.95	47246.05
622.10	47639.26
622.25	46850.50
622.41	46850.50
622.56	47227.33
622.71	47285.84
622.86	47136.05
623.01	47007.32
623.16	47302.23
623.32	46698.37
623.47	47264.78
623.62	46986.25
623.77	47072.85
623.92	47096.26
624.07	46944.12
624.23	47297.55
624.38	47164.14
624.53	46827.10
624.68	46738.16
624.83	46681.98
624.98	47182.86
625.13	46646.88
625.29	46473.68
625.44	46756.88
625.59	46948.81
625.74	46597.73
625.89	46408.14
626.04	46309.84
626.19	46660.92
626.34	46541.55
626.49	46398.78
626.65	46305.16
626.80	46749.86
626.95	46131.96
627.10	46368.35
627.25	46569.64
627.40	46447.93
627.55	46618.79
627.70	46389.42
627.85	46515.81
628.00	46429.21
628.15	46504.10
628.30	45823.01
628.45	45481.29
628.60	45560.87
628.76	45982.16
628.91	45900.25
629.06	45464.91
629.21	46108.55
629.36	45780.88
629.51	46028.98
629.66	46380.06
629.81	46218.56
629.96	46209.20
630.11	45682.58
630.26	45825.35
630.41	45865.14
630.56	45837.05
630.71	46237.28
630.86	45682.58
631.01	45387.67
631.16	46148.34
631.31	45560.87
631.46	45595.98
631.61	45888.54
631.76	45947.06
631.91	45708.32
632.06	46019.61
632.21	45865.14
632.36	46153.02
632.51	45134.89
632.66	45797.26
632.81	45603.00
632.96	45507.04
633.10	45177.02
633.25	45546.82
633.40	45495.33
633.55	45673.21
633.70	45275.32
633.85	44978.07
634.00	45287.03
634.15	45113.83
634.30	45359.58
634.45	45404.05
634.60	45490.65
634.75	45666.19
634.90	45170.00
635.05	44992.12
635.19	45186.38
635.34	45448.52
635.49	45265.96
635.64	45062.33
635.79	45214.47
635.94	45034.25
636.09	45207.45
636.24	45118.51
636.39	44643.38
636.53	45212.13
636.68	44807.22
636.83	44280.60
636.98	44535.71
637.13	44037.18
637.28	44449.11
637.43	44666.78
637.57	45003.82
637.72	44856.37
637.87	44744.02
638.02	44554.44
638.17	44664.44
638.32	44285.28
638.46	44320.38
638.61	44327.41
638.76	44758.06
638.91	44339.11
639.06	44493.58
639.20	44147.18
639.35	43885.04
639.50	44432.73
639.65	44392.94
639.80	44589.55
639.94	44500.61
640.09	44561.46
640.24	44154.21
640.39	43990.37
640.54	44095.69
640.68	44147.18
640.83	44467.84
640.98	44285.28
641.13	43505.88
641.27	44729.98
641.42	44201.02
641.57	44065.27
641.72	44114.42
641.86	43995.05
642.01	44069.95
642.16	44121.44
642.31	43545.67
642.45	43587.80
642.60	43908.45
642.75	44072.29
642.90	44245.49
643.04	44105.06
643.19	44112.08
643.34	43409.92
643.48	43014.37
643.63	43608.86
643.78	43496.52
643.93	43559.71
644.07	43629.93
644.22	43508.22
644.37	43690.78
644.51	43430.98
644.66	43765.68
644.81	43377.15
644.95	43412.26
645.10	43508.22
645.25	43416.94
645.39	43187.56
645.54	42958.19
645.69	43096.28
645.83	43196.93
645.98	42946.49
646.13	43021.39
646.27	43175.86
646.42	43150.12
646.57	43739.93
646.71	43484.81
646.86	43337.36
647.00	43283.53
647.15	43332.68
647.30	43445.02
647.44	43091.60
647.59	42986.28
647.74	42770.95
647.88	43316.29
648.03	43377.15
648.17	43168.84
648.32	43414.60
648.47	43367.79
648.61	42974.58
648.76	43086.92
648.90	42567.32
649.05	42775.63
649.20	43229.69
649.34	42883.30
649.49	42822.44
649.63	42923.08
649.78	42836.48
649.92	42581.37
650.07	43178.20
650.21	43040.11
650.36	42754.57
650.51	42780.31
650.65	42644.56
650.80	42810.74
650.94	42658.60
651.09	42885.64
651.23	42658.60
651.38	42328.59
651.52	41968.15
651.67	42485.40
651.81	42340.29
651.96	42124.96
652.10	42146.03
652.25	42005.59
652.39	41797.29
652.54	42241.99
652.68	42281.78
652.83	42403.49
652.97	42127.30
653.12	42146.03
653.26	42078.15
653.41	42064.11
653.55	41968.15
653.70	41942.40
653.84	42312.20
653.99	42241.99
654.13	41942.40
654.27	41867.50
654.42	42003.25
654.56	41530.47
654.71	42382.42
654.85	41773.88
655.00	41794.95
655.14	42333.27
655.29	42120.28
655.43	42300.50
655.57	41935.38
655.72	41368.97
655.86	41298.75
656.01	41062.36
656.15	41268.33
656.30	41691.96
656.44	41762.18
656.58	41818.35
656.73	41354.93
656.87	40994.48
657.01	41359.61
657.16	41696.64
657.30	41226.20
657.45	41371.31
657.59	41078.74
657.73	40893.84
657.88	41375.99
658.02	41462.59
658.16	41626.43
658.31	41478.97
658.45	41336.20
658.60	41024.91
658.74	41198.11
658.88	40910.22
659.03	40989.80
659.17	40849.37
659.31	40802.56
659.46	40627.02
659.60	40875.12
659.74	40636.38
659.89	40102.74
660.03	40341.47
660.17	41038.95
660.32	40498.29
660.46	40769.79
660.60	40196.36
660.74	40011.46
660.89	40928.95
661.03	39875.71
661.17	40215.08
661.32	40060.61
661.46	40706.60
661.60	39842.94
661.74	40481.91
661.89	40004.44
662.03	40158.91
662.17	39765.70
662.31	39906.13
662.46	39714.21
662.60	39648.68
662.74	39597.18
662.88	39292.91
663.03	39290.57
663.17	38693.74
663.31	39210.99
663.45	39519.95
663.60	39452.07
663.74	39103.33
663.88	39555.05
664.02	39440.37
664.17	39798.47
664.31	38731.18
664.45	38848.21
664.59	39218.02
664.73	38820.13
664.88	39295.25
665.02	38745.23
665.16	38864.60
665.30	38773.31
665.44	38909.07
665.59	38763.95
665.73	38932.47
665.87	37926.04
666.01	38548.62
666.15	38440.96
666.29	38267.76
666.44	38644.59
666.58	38450.32
666.72	38087.54
666.86	37773.91
667.00	38089.88
667.14	37619.43
667.28	37961.15
667.43	38022.00
667.57	38249.03
667.71	38054.77
667.85	38216.27
667.99	37986.89
668.13	37305.80
668.27	37287.07
668.41	37462.61
668.56	37116.22
668.70	37244.94
668.84	37198.13
668.98	37242.60
669.12	37137.28
669.26	37055.36
669.40	36840.03
669.54	36938.33
669.68	37340.91
669.82	36755.77
669.96	36842.37
670.10	36800.24
670.25	36833.01
670.39	36687.90
670.53	36664.49
670.67	36526.40
670.81	36851.73
670.95	36467.89
671.09	36292.35
671.23	35941.27
671.37	36390.65
671.51	36257.24
671.65	36315.75
671.79	35805.52
671.93	36053.61
672.07	35927.22
672.21	36233.83
672.35	35526.99
672.49	35866.37
672.63	35768.07
672.77	35414.65
672.91	35321.02
673.05	35660.40
673.19	35365.49
673.33	34995.69
673.47	35232.08
673.61	35381.88
673.75	34768.66
673.89	34707.80
674.03	34705.46
674.17	34529.92
674.31	34583.76
674.45	34525.24
674.59	34342.68
674.73	34448.00
674.87	34029.05
675.01	34029.05
675.15	34171.82
675.29	33432.21
675.43	33783.29
675.56	34007.98
675.70	34293.53
675.84	33666.27
675.98	32584.94
676.12	33890.96
676.26	33708.40
676.40	33460.30
676.54	33233.27
676.68	33141.99
676.82	32704.31
676.96	33266.03
677.10	33029.64
677.23	32643.45
677.37	33195.82
677.51	32091.09
677.65	32833.04
677.79	32481.95
677.93	32301.73
678.07	32313.44
678.21	31573.83
678.34	32004.49
678.48	31847.67
678.62	31707.24
678.76	31838.31
678.90	31758.73
679.04	31608.93
679.18	31660.43
679.31	31037.84
679.45	31222.75
679.59	30976.99
679.73	31517.65
679.87	31161.89
680.00	30628.25
680.14	31028.48
680.28	30841.24
680.42	30801.45
680.56	30885.71
680.70	30525.27
680.83	30242.06
680.97	30274.83
681.11	30026.73
681.25	29773.95
681.39	29586.71
681.52	29935.45
681.66	29537.56
681.80	29350.32
681.94	29303.51
682.07	29165.42
682.21	28943.06
682.35	29013.28
682.49	28999.24
682.62	28964.13
682.76	29041.37
682.90	29076.48
683.04	28496.02
683.17	28484.32
683.31	28198.77
683.45	28554.54
683.59	28067.70
683.72	27985.79
683.86	28641.14
684.00	27772.80
684.13	28137.92
684.27	27733.01
684.41	27594.92
684.55	27840.67
684.68	27543.42
684.82	27257.88
684.96	26862.33
685.09	27337.46
685.23	27335.12
685.37	27555.13
685.50	27880.46
685.64	27065.96
685.78	26504.23
685.91	26850.63
686.05	26506.57
686.19	25954.20
686.32	26316.98
686.46	26038.46
686.60	25979.95
686.73	25935.48
686.87	25853.56
687.01	25986.97
687.14	26307.62
687.28	25783.34
687.42	26043.14
687.55	25532.90
687.69	25556.31
687.82	25427.58
687.96	25247.36
688.10	25476.73
688.23	25296.51
688.37	25476.73
688.50	25111.61
688.64	25188.85
688.78	24812.02
688.91	24800.32
689.05	24587.33
689.18	24381.36
689.32	24004.53
689.46	23726.01
689.59	24105.18
689.73	24086.45
689.86	24098.16
690.00	23955.38
690.13	24224.54
690.27	23655.79
690.41	23559.83
690.54	23543.45
690.68	23695.58
690.81	23475.57
690.95	22946.61
691.08	22948.95
691.22	22637.66
691.35	23047.26
691.49	22932.57
691.62	22967.68
691.76	22616.60
691.89	22176.58
692.03	22120.40
692.16	22099.34
692.30	22361.48
692.43	22125.08
692.57	22242.11
692.70	21975.29
692.84	21830.18
692.97	21561.02
693.11	21649.96
693.24	21102.27
693.38	21453.35
693.51	20877.58
693.65	21125.68
693.78	21120.99
693.92	21184.19
694.05	20496.07
694.19	20999.29
694.32	20688.00
694.45	21018.01
694.59	20996.95
694.72	20954.82
694.86	20517.14
694.99	20456.28
695.13	20240.95
695.26	19995.20
695.39	19700.29
695.53	19971.79
695.66	20004.56
695.80	19723.69
695.93	19599.65
696.07	19480.28
696.20	19396.02
696.33	19503.68
696.47	19358.57
696.60	18979.40
696.73	19515.39
696.87	19110.47
697.00	18967.70
697.14	18953.66
697.27	18881.10
697.40	19143.24
697.54	18766.42
697.67	18618.96
697.80	18464.49
697.94	18520.66
698.07	18263.20
698.21	18359.16
698.34	18162.56
698.47	17886.37
698.61	17811.48
698.74	17944.89
698.87	17741.26
699.01	17708.49
699.14	17640.62
699.27	17715.51
699.40	17706.15
699.54	17429.97
699.67	17493.16
699.80	17603.17
699.94	17359.75
700.07	17102.29
700.20	16872.92
700.34	17118.68
700.47	16978.25
700.60	17128.04
700.73	16603.76
700.87	16638.87
701.00	16423.54
701.13	16442.26
701.26	16276.09
701.40	16191.83
701.53	16196.51
701.66	16283.11
701.79	16421.20
701.93	15943.73
702.06	15594.99
702.19	15854.79
702.32	15892.24
702.46	15702.65
702.59	15995.22
702.72	15913.30
702.85	15700.31
702.99	15613.71
703.12	15819.68
703.25	15559.88
703.38	15351.57
703.51	15215.82
703.65	15019.22
703.78	14806.23
703.91	14654.09
704.04	14658.78
704.17	14817.93
704.31	14581.54
704.44	14539.41
704.57	14691.54
704.70	14387.27
704.83	14352.16
704.96	14310.04
705.10	14153.22
705.23	13895.76
>>>>>End Processed Spectral Data<<<<<
