SpectraSuite Data File
++++++++++++++++++++++++++++++++++++
Date: Fri Oct 25 11:33:58 EDT 2013
User: price-jones
Dark Spectrum Present: No
Reference Spectrum Present: No
Number of Sampled Component Spectra: 1
Spectrometers: USB2+H05261
Integration Time (usec): 100000 (USB2+H05261)
Spectra Averaged: 1 (USB2+H05261)
Boxcar Smoothing: 0 (USB2+H05261)
Correct for Electrical Dark: No (USB2+H05261)
Strobe/Lamp Enabled: No (USB2+H05261)
Correct for Detector Non-linearity: No (USB2+H05261)
Correct for Stray Light: No (USB2+H05261)
Number of Pixels in Processed Spectrum: 2048
>>>>>Begin Processed Spectral Data<<<<<
365.73	220.01
365.92	220.01
366.12	220.01
366.32	194.26
366.52	224.69
366.72	238.73
366.91	205.97
367.11	173.20
367.31	142.77
367.51	194.26
367.70	166.18
367.90	142.77
368.10	184.90
368.30	187.24
368.49	191.92
368.69	194.26
368.89	159.16
369.09	201.29
369.28	236.39
369.48	208.31
369.68	142.77
369.87	243.42
370.07	285.55
370.27	241.08
370.47	386.19
370.66	528.96
370.86	561.73
371.06	528.96
371.25	606.20
371.45	528.96
371.65	500.87
371.84	606.20
372.04	554.71
372.24	587.47
372.44	627.26
372.63	540.66
372.83	578.11
373.03	610.88
373.22	606.20
373.42	575.77
373.62	566.41
373.81	674.07
374.01	660.03
374.21	709.18
374.40	683.44
374.60	627.26
374.79	692.80
374.99	711.52
375.19	690.46
375.38	671.73
375.58	629.60
375.78	617.90
375.97	758.33
376.17	645.99
376.37	669.39
376.56	662.37
376.76	641.31
376.95	620.24
377.15	688.12
377.35	688.12
377.54	695.14
377.74	629.60
377.93	627.26
378.13	713.86
378.33	713.86
378.52	716.20
378.72	695.14
378.91	713.86
379.11	681.10
379.31	718.54
379.50	706.84
379.70	779.40
379.89	758.33
380.09	688.12
380.28	739.61
380.48	812.17
380.68	725.57
380.87	746.63
381.07	784.08
381.26	758.33
381.46	748.97
381.65	781.74
381.85	732.59
382.04	755.99
382.24	781.74
382.43	851.96
382.63	802.80
382.83	767.70
383.02	807.48
383.22	772.38
383.41	725.57
383.61	786.42
383.80	882.38
384.00	823.87
384.19	847.27
384.39	858.98
384.58	884.72
384.78	842.59
384.97	826.21
385.17	784.08
385.36	791.10
385.56	880.04
385.75	823.87
385.95	856.64
386.14	875.36
386.34	795.78
386.53	910.47
386.72	903.45
386.92	854.30
387.11	856.64
387.31	901.11
387.50	894.08
387.70	903.45
387.89	847.27
388.09	842.59
388.28	959.62
388.48	959.62
388.67	983.02
388.86	987.71
389.06	908.13
389.25	959.62
389.45	901.11
389.64	880.04
389.84	1029.84
390.03	968.98
390.22	992.39
390.42	952.60
390.61	926.85
390.81	933.87
391.00	954.94
391.19	1029.84
391.39	978.34
391.58	999.41
391.78	1053.24
391.97	1062.60
392.16	1001.75
392.36	1032.18
392.55	1055.58
392.75	1032.18
392.94	1025.15
393.13	968.98
393.33	1048.56
393.52	1100.05
393.71	1048.56
393.91	1076.65
394.10	1048.56
394.29	1053.24
394.49	1114.10
394.68	1067.28
394.88	1160.91
395.07	1144.52
395.26	1053.24
395.46	1163.25
395.65	1165.59
395.84	1240.48
396.04	1266.23
396.23	1135.16
396.42	1097.71
396.62	1259.21
396.81	1315.38
397.00	1123.46
397.19	1270.91
397.39	1181.97
397.58	1270.91
397.77	1317.72
397.97	1299.00
398.16	1343.47
398.35	1301.34
398.55	1210.06
398.74	1345.81
398.93	1301.34
399.12	1303.68
399.32	1373.89
399.51	1266.23
399.70	1394.96
399.90	1343.47
400.09	1320.06
400.28	1383.26
400.47	1383.26
400.67	1387.94
400.86	1430.07
401.05	1430.07
401.24	1444.11
401.44	1472.20
401.63	1448.79
401.82	1434.75
402.01	1423.05
402.21	1446.45
402.40	1523.69
402.59	1472.20
402.78	1519.01
402.97	1488.58
403.17	1509.65
403.36	1582.20
403.55	1488.58
403.74	1528.37
403.93	1558.80
404.13	1596.25
404.32	1575.18
404.51	1593.90
404.70	1542.41
404.89	1521.35
405.09	1661.78
405.28	1577.52
405.47	1680.50
405.66	1734.34
405.85	1743.70
406.05	1671.14
406.24	1785.83
406.43	1682.85
406.62	1792.85
406.81	1755.40
407.00	1760.08
407.20	1746.04
407.39	1802.21
407.58	1778.81
407.77	1820.94
407.96	1797.53
408.15	1935.62
408.34	1888.81
408.54	1919.24
408.73	1975.41
408.92	1804.55
409.11	2022.22
409.30	1987.11
409.49	1973.07
409.68	1935.62
409.87	1968.39
410.07	2106.48
410.26	2146.27
410.45	1998.82
410.64	2076.06
410.83	2118.18
411.02	2033.93
411.21	2172.02
411.40	2057.33
411.59	2153.29
411.78	2186.06
411.98	2232.87
412.17	2174.36
412.36	2223.51
412.55	2211.81
412.74	2244.57
412.93	2394.37
413.12	2216.49
413.31	2445.86
413.50	2478.63
413.69	2342.88
413.88	2429.48
414.07	2459.90
414.26	2478.63
414.45	2572.25
414.64	2504.37
414.83	2490.33
415.02	2558.21
415.22	2771.19
415.41	2626.08
415.60	2590.97
415.79	2640.12
415.98	2546.50
416.17	2757.15
416.36	2654.17
416.55	2754.81
416.74	2794.60
416.93	2637.78
417.12	2768.85
417.31	2780.56
417.50	2867.16
417.69	2937.37
417.88	2988.86
418.07	2918.65
418.26	3047.38
418.45	2970.14
418.64	3180.79
418.83	2979.50
419.02	3091.85
419.21	3164.40
419.39	3038.02
419.58	2998.23
419.77	3040.36
419.96	3087.17
420.15	3089.51
420.34	3056.74
420.53	3101.21
420.72	3180.79
420.91	3115.25
421.10	3187.81
421.29	3274.41
421.48	3213.56
421.67	3389.10
421.86	3234.62
422.05	3253.34
422.24	3164.40
422.43	3255.69
422.61	3330.58
422.80	3454.63
422.99	3456.97
423.18	3243.98
423.37	3552.93
423.56	3337.60
423.75	3363.35
423.94	3176.11
424.13	3103.55
424.32	3150.36
424.50	3246.32
424.69	3499.10
424.88	3581.02
425.07	3372.71
425.26	3295.47
425.45	3452.29
425.64	3400.80
425.83	3393.78
426.01	3496.76
426.20	3473.36
426.39	3478.04
426.58	3297.81
426.77	3545.91
426.96	3487.40
427.15	3581.02
427.33	3559.95
427.52	3574.00
427.71	3562.30
427.90	3641.87
428.09	3660.60
428.28	3672.30
428.46	3604.42
428.65	3590.38
428.84	3705.07
429.03	3758.90
429.22	3604.42
429.40	3665.28
429.59	3705.07
429.78	3641.87
429.97	3644.21
430.16	3744.86
430.34	3918.06
430.53	3770.60
430.72	3819.75
430.91	3779.97
431.10	3758.90
431.28	3878.27
431.47	3918.06
431.66	3875.93
431.85	3918.06
432.03	3936.78
432.22	4091.26
432.41	3997.64
432.60	4177.86
432.79	3894.65
432.97	4121.68
433.16	4180.20
433.35	4067.85
433.54	4102.96
433.72	4117.00
433.91	4248.07
434.10	4205.94
434.28	4121.68
434.47	4159.13
434.66	4201.26
434.85	4327.65
435.03	4161.47
435.22	4301.90
435.41	4456.38
435.59	4346.37
435.78	4454.04
435.97	4416.59
436.16	4468.08
436.34	4629.58
436.53	4540.64
436.72	4409.57
436.90	4456.38
437.09	4414.25
437.28	4468.08
437.46	4322.97
437.65	4645.96
437.84	4479.79
438.02	4517.23
438.21	4629.58
438.40	4454.04
438.58	4779.37
438.77	4746.61
438.96	4650.64
439.14	4638.94
439.33	4968.96
439.52	4931.51
439.70	4896.40
439.89	4947.89
440.08	5064.92
440.26	4940.87
440.45	5071.94
440.63	5060.24
440.82	5172.58
441.01	5076.62
441.19	5226.42
441.38	5238.12
441.57	5081.30
441.75	5287.27
441.94	5357.49
442.12	5263.86
442.31	5280.25
442.50	5338.76
442.68	5371.53
442.87	5242.80
443.05	5507.28
443.24	5404.30
443.43	5338.76
443.61	5533.03
443.80	5575.16
443.98	5411.32
444.17	5355.15
444.35	5586.86
444.54	5509.62
444.73	5472.17
444.91	5507.28
445.10	5687.50
445.28	5666.44
445.47	5603.24
445.65	5664.10
445.84	5582.18
446.02	5743.67
446.21	5743.67
446.39	5696.86
446.58	5743.67
446.77	5607.92
446.95	5556.43
447.14	5741.33
447.32	5680.48
447.51	5736.65
447.69	5675.80
447.88	5802.19
448.06	5865.38
448.25	5764.74
448.43	5799.85
448.62	5736.65
448.80	5715.59
448.99	5781.12
449.17	5886.45
449.36	5736.65
449.54	6066.67
449.73	6026.88
449.91	6017.52
450.10	6087.73
450.28	6129.86
450.46	6050.28
450.65	6106.46
450.83	5982.41
451.02	5916.87
451.20	6122.84
451.39	6059.65
451.57	6022.20
451.76	6043.26
451.94	6085.39
452.13	6153.27
452.31	6118.16
452.49	6239.87
452.68	6317.11
452.86	6324.13
453.05	6239.87
453.23	6251.57
453.42	6237.53
453.60	6516.05
453.78	6546.48
453.97	6289.02
454.15	6384.98
454.34	6513.71
454.52	6583.93
454.70	6609.67
454.89	6707.98
455.07	6466.90
455.26	6509.03
455.44	6628.40
455.62	6530.09
455.81	6733.72
455.99	6656.48
456.17	6612.01
456.36	6684.57
456.54	6846.07
456.73	6885.86
456.91	6979.48
457.09	7042.67
457.28	7005.22
457.46	6853.09
457.64	6998.20
457.83	6930.33
458.01	6810.96
458.19	7321.20
458.38	6888.20
458.56	7192.47
458.74	7119.91
458.93	7276.73
459.11	7241.62
459.29	7194.81
459.48	7321.20
459.66	7162.04
459.84	7272.04
460.03	7365.67
460.21	7318.86
460.39	7311.83
460.57	7328.22
460.76	7466.31
460.94	7501.42
461.12	7583.34
461.31	7356.30
461.49	7620.78
461.67	7506.10
461.85	7513.12
462.04	7648.87
462.22	8116.98
462.40	7646.53
462.59	7676.96
462.77	7681.64
462.95	7548.23
463.13	7791.64
463.32	7761.22
463.50	7744.83
463.68	7920.37
463.86	7770.58
464.05	7840.79
464.23	7719.09
464.41	7922.71
464.59	7824.41
464.78	8009.31
464.96	7995.27
465.14	7740.15
465.32	8091.23
465.50	8049.10
465.69	8105.28
465.87	7927.39
466.05	7925.05
466.23	8011.65
466.41	8084.21
466.60	8379.12
466.78	8180.17
466.96	8210.60
467.14	8187.19
467.32	8329.97
467.51	8290.18
467.69	8025.70
467.87	8229.32
468.05	8437.63
468.23	8266.77
468.41	8189.53
468.60	8353.37
468.78	8428.27
468.96	8308.90
469.14	8521.89
469.32	8615.51
469.50	8393.16
469.69	8662.32
469.87	8547.64
470.05	8393.16
470.23	8819.14
470.41	8709.13
470.59	8606.15
470.77	8610.83
470.95	8947.87
471.14	8821.48
471.32	8847.22
471.50	8870.63
471.68	8943.19
471.86	8929.14
472.04	9132.77
472.22	9366.82
472.40	8971.27
472.58	9146.81
472.77	9233.41
472.95	9399.59
473.13	9554.07
473.31	9121.07
473.49	9118.73
473.67	9261.50
473.85	9420.66
474.03	9624.28
474.21	9638.33
474.39	9874.72
474.57	9820.89
474.75	9769.40
474.93	9902.81
475.12	9785.78
475.30	10155.58
475.48	9792.80
475.66	10057.28
475.84	10054.94
476.02	10200.05
476.20	10211.76
476.38	10401.34
476.56	10382.62
476.74	10490.28
476.92	10626.03
477.10	10445.81
477.28	10600.29
477.46	10509.01
477.64	10789.87
477.82	10988.82
478.00	11044.99
478.18	11023.92
478.36	11009.88
478.54	11211.17
478.72	11431.18
478.90	11456.92
479.08	11384.37
479.26	11740.13
479.44	11494.37
479.62	11756.51
479.80	11702.68
479.98	11887.58
480.16	12273.77
480.34	11854.81
480.52	12341.64
480.70	12175.47
480.88	12063.12
481.06	12521.87
481.24	12519.53
481.41	12482.08
481.59	12854.22
481.77	12697.41
481.95	12858.90
482.13	12982.95
482.31	12809.75
482.49	13191.26
482.67	13156.15
482.85	13284.88
483.03	13315.31
483.21	13373.82
483.39	13757.67
483.57	13659.37
483.74	13767.03
483.92	13692.13
484.10	13706.18
484.28	14043.21
484.46	14445.79
484.64	14569.83
484.82	14202.37
485.00	14576.86
485.18	14761.76
485.35	14998.15
485.53	14831.97
485.71	14724.31
485.89	15150.29
486.07	15353.91
486.25	15377.32
486.43	15583.29
486.61	15494.35
486.78	15646.48
486.96	15840.75
487.14	16030.33
487.32	15894.58
487.50	16126.29
487.68	16350.98
487.85	16517.16
488.03	16538.23
488.21	16933.78
488.39	17027.40
488.57	16994.63
488.75	16978.25
488.92	17359.75
489.10	17404.22
489.28	17352.73
489.46	17542.32
489.64	17493.16
489.81	18225.75
489.99	17767.01
490.17	17958.93
490.35	18099.36
490.53	18052.55
490.70	18628.32
490.88	18448.10
491.06	18637.69
491.24	18625.98
491.41	18937.27
491.59	18988.77
491.77	18806.20
491.95	19164.31
492.13	19105.79
492.30	19866.47
492.48	19599.65
492.66	19674.54
492.84	19847.74
493.01	20161.37
493.19	20027.96
493.37	20592.03
493.54	20184.78
493.72	20458.62
493.90	20367.34
494.08	20798.00
494.25	20908.01
494.43	20917.37
494.61	20933.75
494.79	20940.77
494.96	21048.44
495.14	21102.27
495.32	21551.65
495.49	21401.86
495.67	21696.77
495.85	21830.18
496.02	21865.28
496.20	22089.98
496.38	21837.20
496.55	22288.92
496.73	22698.52
496.91	22705.54
497.09	22909.16
497.26	22672.77
497.44	22632.98
497.62	22581.49
497.79	23154.92
497.97	23108.11
498.14	23433.44
498.32	23506.00
498.50	23473.23
498.67	23779.84
498.85	23482.59
499.03	23931.98
499.20	23763.46
499.38	24037.30
499.56	24006.87
499.73	24341.57
499.91	24575.62
500.08	24512.43
500.26	24369.66
500.44	24694.99
500.61	24451.58
500.79	24669.25
500.97	24627.12
501.14	25230.98
501.32	25387.79
501.49	25067.14
501.67	24833.08
501.84	25235.66
502.02	25104.59
502.20	25172.46
502.37	25553.97
502.55	25511.84
502.72	25446.30
502.90	25673.34
503.07	25678.02
503.25	25846.54
503.43	25713.13
503.60	26202.30
503.78	25886.32
503.95	26195.28
504.13	26167.19
504.30	26452.73
504.48	26029.10
504.65	26934.88
504.83	26780.41
505.01	27182.98
505.18	26988.72
505.36	26761.69
505.53	26969.99
505.71	26969.99
505.88	27262.56
506.06	27131.49
506.23	27716.62
506.41	27211.07
506.58	27580.87
506.76	27522.36
506.93	27828.97
507.11	27908.55
507.28	28432.83
507.46	27927.27
507.63	28236.22
507.81	28355.59
507.98	28023.23
508.16	28121.54
508.33	27988.13
508.50	28711.35
508.68	28599.01
508.85	28886.89
509.03	28481.98
509.20	28533.47
509.38	29191.16
509.55	29067.11
509.73	29181.80
509.90	29301.17
510.08	29223.93
510.25	29123.29
510.42	29570.33
510.60	29708.42
510.77	29481.39
510.95	29640.54
511.12	29490.75
511.30	29553.94
511.47	29823.11
511.64	29757.57
511.82	30094.61
511.99	29790.34
512.17	30155.46
512.34	30305.26
512.51	30693.79
512.69	30424.62
512.86	30473.78
513.04	30799.11
513.21	30775.70
513.38	30607.19
513.56	30646.97
513.73	31068.27
513.90	31131.47
514.08	30904.43
514.25	31058.91
514.43	31227.43
514.60	31398.29
514.77	31817.24
514.95	31608.93
515.12	31225.09
515.29	31452.12
515.47	31379.56
515.64	31440.42
515.81	31915.54
515.99	31857.03
516.16	32196.41
516.33	32194.07
516.51	32039.59
516.68	32072.36
516.85	32362.59
517.03	32268.97
517.20	32299.39
517.37	32294.71
517.54	32542.81
517.72	32884.53
517.89	32727.71
518.06	32514.72
518.24	32964.10
518.41	32933.68
518.58	32830.69
518.75	33062.41
518.93	33319.87
519.10	32893.89
519.27	33354.97
519.45	33481.36
519.62	33158.37
519.79	33401.79
519.96	33273.06
520.14	33474.34
520.31	33696.69
520.48	33418.17
520.65	33778.61
520.83	33787.97
521.00	34099.26
521.17	33668.61
521.34	34033.73
521.52	34054.79
521.69	34281.83
521.86	34576.73
522.03	34478.43
522.20	34873.98
522.38	34752.27
522.55	34670.36
522.72	34794.40
522.89	35129.10
523.07	34834.19
523.24	34487.79
523.41	35325.71
523.58	34981.65
523.75	35204.00
523.92	35028.46
524.10	35086.97
524.27	35440.39
524.44	35466.14
524.61	35875.73
524.78	35662.74
524.96	35433.37
525.13	35941.27
525.30	35967.01
525.47	35859.35
525.64	36023.19
525.81	36282.98
525.98	36084.04
526.16	35693.17
526.33	35943.61
526.50	36268.94
526.67	36140.21
526.84	36114.47
527.01	36095.74
527.18	36542.78
527.36	36055.95
527.53	36884.50
527.70	37109.19
527.87	36692.58
528.04	36531.08
528.21	36851.73
528.38	36634.06
528.55	37184.09
528.72	36734.71
528.89	36793.22
529.07	36945.36
529.24	36797.90
529.41	37303.46
529.58	36999.19
529.75	37266.01
529.92	37296.44
530.09	37148.98
530.26	37439.21
530.43	37619.43
530.60	37130.26
530.77	37565.60
530.94	37710.71
531.11	37432.19
531.28	37921.36
531.46	37539.85
531.63	37694.33
531.80	38057.11
531.97	38319.25
532.14	38337.98
532.31	37872.21
532.48	38239.67
532.65	38778.00
532.82	38192.86
532.99	38190.52
533.16	38014.98
533.33	38504.15
533.50	38366.06
533.67	38391.81
533.84	38096.90
534.01	38590.75
534.18	38382.45
534.35	38766.29
534.52	38684.37
534.69	38885.66
534.86	38803.74
535.03	39093.97
535.20	38988.64
535.37	38843.53
535.54	39246.10
535.71	39531.65
535.88	39077.58
536.05	39180.57
536.22	39412.28
536.38	38880.98
536.55	39136.10
536.72	39428.66
536.89	39276.53
537.06	39620.59
537.23	39461.43
537.40	39480.16
537.57	39480.16
537.74	39765.70
537.91	39917.84
538.08	39742.30
538.25	39494.20
538.42	40189.34
538.59	39999.76
538.75	39686.12
538.92	40198.70
539.09	40252.53
539.26	40142.53
539.43	39995.07
539.60	40514.67
539.77	40067.63
539.94	40500.63
540.11	40369.56
540.28	40456.16
540.44	40161.25
540.61	40470.20
540.78	40556.80
540.95	40348.50
541.12	40287.64
541.29	40591.91
541.46	40659.79
541.62	40781.49
541.79	41219.17
541.96	40987.46
542.13	40708.94
542.30	41170.02
542.47	40985.12
542.63	40465.52
542.80	41291.73
542.97	41429.82
543.14	41418.12
543.31	41614.72
543.48	41617.07
543.64	41710.69
543.81	41357.27
543.98	41776.22
544.15	41895.59
544.32	41848.78
544.48	42099.22
544.65	41942.40
544.82	42005.59
544.99	41778.56
545.16	41624.09
545.32	42113.26
545.49	42639.88
545.66	42284.12
545.83	42150.71
546.00	42286.46
546.16	42188.16
546.33	41975.17
546.50	42036.02
546.67	42326.25
546.83	42202.20
547.00	42321.57
547.17	42139.00
547.34	42052.41
547.50	42700.73
547.67	42539.24
547.84	42600.09
548.00	42923.08
548.17	42691.37
548.34	42705.41
548.51	43295.23
548.67	42593.07
548.84	43040.11
549.01	43030.75
549.18	42880.95
549.34	43171.18
549.51	42958.19
549.68	43349.06
549.84	43222.67
550.01	43105.65
550.18	43044.79
550.34	43377.15
550.51	43360.76
550.68	43288.21
550.84	43035.43
551.01	43402.89
551.18	43105.65
551.34	43239.06
551.51	43690.78
551.68	43405.23
551.84	43583.12
552.01	43079.90
552.18	43683.76
552.34	43632.27
552.51	43693.12
552.68	43597.16
552.84	43814.83
553.01	43880.36
553.18	43330.34
553.34	43964.62
553.51	43758.66
553.67	43660.35
553.84	44273.57
554.01	43842.92
554.17	44027.82
554.34	44191.65
554.51	44250.17
554.67	44158.89
554.84	43910.79
555.00	43854.62
555.17	44083.99
555.33	44275.91
555.50	44093.35
555.67	44538.05
555.83	44591.89
556.00	44570.82
556.16	45064.67
556.33	44573.16
556.50	44388.26
556.66	44650.40
556.83	44144.84
556.99	44896.16
557.16	44821.26
557.32	44856.37
557.49	44793.17
557.65	44357.83
557.82	44428.05
557.98	44406.98
558.15	44823.60
558.32	44802.53
558.48	45006.16
558.65	44793.17
558.81	44854.03
558.98	44568.48
559.14	44428.05
559.31	45067.02
559.47	44949.99
559.64	45109.14
559.80	44849.35
559.97	45460.23
560.13	44697.21
560.30	45008.50
560.46	45050.63
560.63	45247.24
560.79	45432.14
560.96	45818.33
561.12	45123.19
561.29	45144.25
561.45	45591.30
561.61	45322.13
561.78	45137.23
561.94	45577.25
562.11	44914.88
562.27	45507.04
562.44	45361.92
562.60	45748.11
562.77	45165.32
562.93	45085.74
563.10	45682.58
563.26	45670.87
563.42	45675.55
563.59	45654.49
563.75	44917.22
563.92	45155.96
564.08	45265.96
564.24	45914.29
564.41	45511.72
564.57	45617.04
564.74	45743.43
564.90	45408.73
565.07	46082.81
565.23	45984.51
565.39	45858.12
565.56	45797.26
565.72	45581.93
565.88	45977.48
566.05	45855.78
566.21	45703.64
566.38	45663.85
566.54	45544.48
566.70	46202.18
566.87	46162.39
567.03	45846.41
567.19	45979.82
567.36	46096.85
567.52	45710.66
567.68	46021.95
567.85	46443.25
568.01	45837.05
568.17	46005.57
568.34	46342.61
568.50	46209.20
568.66	45895.56
568.83	45949.40
568.99	46272.39
569.15	46036.00
569.32	46094.51
569.48	45956.42
569.64	46335.59
569.81	46550.91
569.97	46007.91
570.13	46150.68
570.30	45902.59
570.46	46265.37
570.62	46281.75
570.78	46298.14
570.95	46333.24
571.11	46258.35
571.27	46274.73
571.43	46087.49
571.60	46471.34
571.76	46260.69
571.92	46347.29
572.09	46497.08
572.25	45996.21
572.41	46061.74
572.57	46623.47
572.74	46803.69
572.90	46321.54
573.06	46375.37
573.22	46878.59
573.38	46373.03
573.55	46351.97
573.71	46813.05
573.87	46536.87
574.03	46501.76
574.20	46822.42
574.36	46920.72
574.52	46593.04
574.68	46677.30
574.84	46852.84
575.01	46742.84
575.17	46859.87
575.33	46550.91
575.49	46181.11
575.65	46461.97
575.82	46684.33
575.98	46560.28
576.14	46944.12
576.30	47037.75
576.46	46534.53
576.62	46691.35
576.79	46700.71
576.95	46326.22
577.11	45883.86
577.27	46522.83
577.43	46635.17
577.59	46625.81
577.75	46546.23
577.92	46822.42
578.08	46681.98
578.24	46791.99
578.40	46946.47
578.56	46796.67
578.72	46890.29
578.88	46579.00
579.04	46513.47
579.21	46700.71
579.37	46525.17
579.53	47026.04
579.69	46894.97
579.85	46232.60
580.01	46930.08
580.17	46663.26
580.33	47215.63
580.49	46529.85
580.65	47136.05
580.82	46770.93
580.98	46574.32
581.14	46492.40
581.30	46534.53
581.46	46845.82
581.62	46646.88
581.78	46574.32
581.94	47098.60
582.10	46773.27
582.26	46768.58
582.42	46670.28
582.58	46946.47
582.74	46775.61
582.90	47213.29
583.06	46852.84
583.22	47054.13
583.38	46813.05
583.54	46487.72
583.70	46791.99
583.86	46815.40
584.02	47159.45
584.18	47042.43
584.34	47033.07
584.50	47131.37
584.66	47260.10
584.82	47093.92
584.98	47203.92
585.14	46962.85
585.30	47040.09
585.46	46979.23
585.62	47208.61
585.78	47454.36
585.94	46759.22
586.10	46728.80
586.26	46944.12
586.42	46962.85
586.58	46873.91
586.74	46756.88
586.90	47049.45
587.06	46806.03
587.22	47208.61
587.38	46735.82
587.54	46920.72
587.70	47096.26
587.86	46986.25
588.02	47110.30
588.18	47107.96
588.34	47398.19
588.49	47012.00
588.65	47285.84
588.81	47096.26
588.97	47215.63
589.13	47122.01
589.29	47070.51
589.45	47311.59
589.61	47540.96
589.77	47573.73
589.93	47185.20
590.08	47257.76
590.24	47484.79
590.40	47395.85
590.56	47775.02
590.72	47351.38
590.88	47437.98
591.04	47000.30
591.20	47320.95
591.35	47248.39
591.51	47936.51
591.67	47323.29
591.83	47700.12
591.99	47339.68
592.15	47480.11
592.31	47168.82
592.46	47437.98
592.62	47281.16
592.78	47676.71
592.94	47959.92
593.10	47569.05
593.26	48105.03
593.41	48044.18
593.57	47276.48
593.73	47875.66
593.89	47882.68
594.05	47723.52
594.20	47786.72
594.36	48025.45
594.52	47915.45
594.68	47639.26
594.84	47697.78
594.99	47835.87
595.15	47540.96
595.31	48039.50
595.47	47777.36
595.62	48030.13
595.78	47400.53
595.94	47613.52
596.10	47100.94
596.25	48069.92
596.41	47583.09
596.57	47587.77
596.73	47634.58
596.88	47716.50
597.04	48048.86
597.20	47681.39
597.36	47889.70
597.51	47611.18
597.67	47484.79
597.83	47419.25
597.99	47594.79
598.14	47695.44
598.30	47906.08
598.46	47714.16
598.61	48006.73
598.77	47917.79
598.93	47683.73
599.09	48168.22
599.24	48289.93
599.40	47751.61
599.56	48046.52
599.71	48060.56
599.87	48371.85
600.03	48456.11
600.18	47798.42
600.34	47845.23
600.50	47716.50
600.65	47426.28
600.81	47845.23
600.97	47938.85
601.12	47777.36
601.28	47929.49
601.44	47929.49
601.59	48090.99
601.75	47777.36
601.91	48226.74
602.06	48088.65
602.22	47955.24
602.37	47875.66
602.53	47742.25
602.69	48114.39
602.84	47966.94
603.00	47653.31
603.16	47922.47
603.31	48184.61
603.47	48193.97
603.62	48130.78
603.78	47992.68
603.94	48095.67
604.09	47641.60
604.25	47702.46
604.40	47629.90
604.56	48278.23
604.71	48240.78
604.87	47833.53
605.03	47959.92
605.18	47915.45
605.34	47835.87
605.49	47547.98
605.65	47913.11
605.80	47730.54
605.96	47657.99
606.12	47657.99
606.27	47976.30
606.43	47983.32
606.58	48303.98
606.74	48034.81
606.89	47730.54
607.05	48018.43
607.20	47798.42
607.36	47859.27
607.51	47924.81
607.67	47665.01
607.82	47735.23
607.98	47437.98
608.13	47854.59
608.29	47878.00
608.44	47831.19
608.60	47440.32
608.75	47693.10
608.91	47709.48
609.06	47360.74
609.22	47665.01
609.37	47569.05
609.53	47908.43
609.68	47571.39
609.84	47618.20
609.99	47569.05
610.15	47538.62
610.30	47304.57
610.46	47732.89
610.61	47304.57
610.76	47576.07
610.92	47419.25
611.07	47161.79
611.23	47508.19
611.38	47166.48
611.54	47732.89
611.69	47737.57
611.84	47674.37
612.00	47145.41
612.15	47126.69
612.31	47714.16
612.46	47159.45
612.62	47269.46
612.77	47173.50
612.92	47594.79
613.08	47374.78
613.23	47262.44
613.39	47255.42
613.54	47000.30
613.69	47524.58
613.85	47070.51
614.00	47196.90
614.15	47229.67
614.31	46880.93
614.46	47325.63
614.62	46892.63
614.77	47285.84
614.92	47096.26
615.08	47342.02
615.23	47276.48
615.38	47285.84
615.54	47466.06
615.69	47210.95
615.84	47150.09
616.00	46965.19
616.15	47098.60
616.30	47246.05
616.46	47033.07
616.61	46909.02
616.76	47150.09
616.92	46941.78
617.07	46972.21
617.22	46979.23
617.37	46499.42
617.53	47063.49
617.68	46740.50
617.83	46600.07
617.99	46845.82
618.14	46728.80
618.29	46630.49
618.45	46642.20
618.60	46698.37
618.75	46424.53
618.90	46089.83
619.06	46087.49
619.21	46787.31
619.36	46976.89
619.51	46281.75
619.67	46253.67
619.82	46529.85
619.97	46579.00
620.12	46534.53
620.28	46375.37
620.43	46920.72
620.58	46447.93
620.73	46574.32
620.89	46546.23
621.04	46293.46
621.19	46663.26
621.34	46515.81
621.49	46204.52
621.65	46234.94
621.80	46450.27
621.95	46368.35
622.10	46529.85
622.25	45923.65
622.41	46251.33
622.56	46293.46
622.71	46382.40
622.86	46239.62
623.01	46279.41
623.16	46052.38
623.32	46230.26
623.47	46351.97
623.62	46150.68
623.77	46071.10
623.92	46197.49
624.07	46143.66
624.23	46321.54
624.38	46106.21
624.53	46410.48
624.68	45736.41
624.83	45865.14
624.98	45869.82
625.13	45940.04
625.29	45682.58
625.44	46129.62
625.59	45902.59
625.74	45354.90
625.89	45925.99
626.04	45771.52
626.19	45453.20
626.34	45446.18
626.49	45254.26
626.65	45254.26
626.80	45345.54
626.95	45144.25
627.10	45104.46
627.25	45455.54
627.40	45446.18
627.55	45741.09
627.70	45474.27
627.85	45542.14
628.00	45691.94
628.15	45553.85
628.30	44673.81
628.45	45172.34
628.60	44729.98
628.76	45280.00
628.91	45289.37
629.06	44877.43
629.21	44839.98
629.36	45254.26
629.51	45439.16
629.66	45280.00
629.81	45167.66
629.96	45382.99
630.11	45125.53
630.26	44514.65
630.41	44776.79
630.56	44844.66
630.71	44907.86
630.86	45153.62
631.01	44477.20
631.16	45001.48
631.31	45003.82
631.46	44774.45
631.61	45186.38
631.76	45010.84
631.91	44631.68
632.06	44804.88
632.21	44886.79
632.36	45289.37
632.51	44446.77
632.66	44701.89
632.81	44870.41
632.96	44914.88
633.10	44603.59
633.25	44505.29
633.40	45148.93
633.55	45106.80
633.70	44739.34
633.85	44465.50
634.00	44376.56
634.15	44252.51
634.30	44360.17
634.45	44201.02
634.60	44247.83
634.75	44367.20
634.90	44278.25
635.05	43969.30
635.19	44680.83
635.34	44561.46
635.49	44091.01
635.64	44102.71
635.79	44685.51
635.94	43988.03
636.09	44154.21
636.24	43824.19
636.39	44020.80
636.53	44247.83
636.68	43838.23
636.83	43615.88
636.98	43964.62
637.13	43531.62
637.28	43679.08
637.43	43765.68
637.57	43466.09
637.72	43562.05
637.87	43648.65
638.02	43856.96
638.17	43824.19
638.32	43796.10
638.46	43648.65
638.61	43480.13
638.76	43505.88
638.91	43447.36
639.06	43407.58
639.20	43323.32
639.35	43262.46
639.50	43489.49
639.65	43838.23
639.80	43601.84
639.94	43716.53
640.09	43924.83
640.24	43503.54
640.39	43159.48
640.54	43000.32
640.68	43295.23
640.83	43861.64
640.98	42988.62
641.13	42775.63
641.27	43730.57
641.42	42862.23
641.57	43320.98
641.72	43707.16
641.86	43068.20
642.01	43243.74
642.16	42735.84
642.31	43007.34
642.45	43030.75
642.60	42672.65
642.75	42815.42
642.90	43330.34
643.04	43002.66
643.19	42953.51
643.34	42583.71
643.48	42398.80
643.63	42712.44
643.78	43115.01
643.93	42979.26
644.07	42934.79
644.22	42703.07
644.37	42651.58
644.51	43002.66
644.66	42665.63
644.81	42632.86
644.95	42820.10
645.10	42696.05
645.25	42209.22
645.39	42443.27
645.54	42316.89
645.69	42267.73
645.83	42113.26
645.98	42108.58
646.13	42403.49
646.27	42164.75
646.42	41832.39
646.57	42637.54
646.71	42871.59
646.86	42698.39
647.00	43012.02
647.15	42213.90
647.30	41956.44
647.44	42204.54
647.59	42047.72
647.74	41738.77
647.88	42066.45
648.03	42485.40
648.17	42632.86
648.32	42174.11
648.47	42504.13
648.61	41799.63
648.76	42007.94
648.90	41771.54
649.05	41797.29
649.20	41436.84
649.34	41951.76
649.49	42000.91
649.63	42150.71
649.78	42153.05
649.92	41787.92
650.07	42616.47
650.21	42351.99
650.36	42141.35
650.51	41902.61
650.65	41832.39
650.80	41525.78
650.94	41628.77
651.09	41593.66
651.23	41329.18
651.38	41434.50
651.52	41261.30
651.67	41865.16
651.81	41567.91
651.96	41560.89
652.10	41205.13
652.25	41291.73
652.39	41490.68
652.54	41186.41
652.68	41432.16
652.83	41448.55
652.97	41570.25
653.12	41560.89
653.26	41038.95
653.41	41193.43
653.55	41090.44
653.70	41148.96
653.84	41593.66
653.99	41397.06
654.13	41186.41
654.27	40938.31
654.42	41460.25
654.56	41041.29
654.71	41340.88
654.85	41509.40
655.00	41153.64
655.14	41127.89
655.29	41249.60
655.43	41071.72
655.57	41329.18
655.72	40631.70
655.86	40575.53
656.01	40636.38
656.15	40573.19
656.30	41198.11
656.44	40856.39
656.58	40739.36
656.73	40683.19
656.87	40435.10
657.01	40411.69
657.16	40615.32
657.30	41130.23
657.45	40411.69
657.59	39950.60
657.73	40069.97
657.88	40407.01
658.02	40643.40
658.16	40465.52
658.31	40533.40
658.45	40313.39
658.60	40037.20
658.74	40404.67
658.88	40577.87
659.03	40409.35
659.17	39889.75
659.31	39725.91
659.46	40030.18
659.60	40432.75
659.74	39819.53
659.89	39756.34
660.03	39402.92
660.17	39791.45
660.32	39583.14
660.46	39938.90
660.60	39168.87
660.74	39573.78
660.89	39861.66
661.03	38883.32
661.17	39007.37
661.32	39239.08
661.46	39391.22
661.60	39374.83
661.74	39428.66
661.89	39384.19
662.03	39400.58
662.17	39058.86
662.31	38799.06
662.46	39260.15
662.60	38782.68
662.74	38623.52
662.88	38176.48
663.03	38986.30
663.17	38609.48
663.31	38150.73
663.45	38904.38
663.60	38904.38
663.74	38419.89
663.88	38548.62
664.02	38064.13
664.17	38747.57
664.31	38265.42
664.45	38375.42
664.59	37961.15
664.73	38501.81
664.88	38321.59
665.02	38213.93
665.16	38129.67
665.30	37954.13
665.44	38019.66
665.59	37656.88
665.73	37368.99
665.87	37577.30
666.01	37851.14
666.15	37310.48
666.29	37303.46
666.44	37579.64
666.58	37184.09
666.72	37331.54
666.86	37586.66
667.00	37359.63
667.14	37237.92
667.28	37177.07
667.43	37511.77
667.57	37378.36
667.71	37378.36
667.85	37326.86
667.99	36865.78
668.13	36879.82
668.27	36500.65
668.41	36718.32
668.56	36102.76
668.70	36369.58
668.84	36259.58
668.98	36034.89
669.12	36744.07
669.26	36580.23
669.40	35969.35
669.54	36147.23
669.68	36556.83
669.82	36196.38
669.96	36027.87
670.10	35950.63
670.25	35789.13
670.39	35578.48
670.53	35969.35
670.67	35494.22
670.81	36175.32
670.95	35938.93
671.09	35145.48
671.23	35178.25
671.37	35831.26
671.51	35196.98
671.65	35150.17
671.79	35447.41
671.93	35288.26
672.07	35835.94
672.21	35173.57
672.35	34534.60
672.49	34911.43
672.63	34913.77
672.77	34815.47
672.91	34548.65
673.05	34532.26
673.19	34235.02
673.33	34471.41
673.47	34485.45
673.61	34064.16
673.75	33975.22
673.89	34110.97
674.03	33951.81
674.17	33905.00
674.31	33867.55
674.45	33731.80
674.59	33851.17
674.73	33336.25
674.87	33422.85
675.01	33551.58
675.15	33219.22
675.29	33036.66
675.43	32889.21
675.56	33537.54
675.70	33151.35
675.84	33090.49
675.98	31655.75
676.12	32903.25
676.26	33170.07
676.40	32556.85
676.54	32641.11
676.68	32556.85
676.82	31693.19
676.96	32584.94
677.10	32673.88
677.23	32126.19
677.37	32369.61
677.51	31740.00
677.65	31931.93
677.79	31637.02
677.93	31821.92
678.07	31721.28
678.21	31674.47
678.34	31288.28
678.48	31374.88
678.62	31077.63
678.76	31051.89
678.90	30874.01
679.04	31171.25
679.18	30913.80
679.31	30422.28
679.45	30228.02
679.59	30717.19
679.73	30803.79
679.87	30333.34
680.00	30274.83
680.14	30319.30
680.28	30125.04
680.42	29799.70
680.56	29677.99
680.70	29867.58
680.83	29633.52
680.97	29514.16
681.11	29371.38
681.25	29127.97
681.39	28802.63
681.52	29134.99
681.66	28758.16
681.80	28547.51
681.94	28173.03
682.07	28364.95
682.21	28386.02
682.35	28472.62
682.49	28311.12
682.62	28371.97
682.76	28411.76
682.90	28280.69
683.04	28280.69
683.17	27878.12
683.31	27798.54
683.45	27997.49
683.59	27220.43
683.72	27384.27
683.86	27613.64
684.00	27138.51
684.13	27515.34
684.27	27197.02
684.41	27072.98
684.55	26986.38
684.68	27103.40
684.82	26801.47
684.96	26824.88
685.09	26668.06
685.23	26909.14
685.37	26696.15
685.50	26740.62
685.64	26319.32
685.78	26693.81
685.91	26239.75
686.05	25867.60
686.19	25273.10
686.32	25675.68
686.46	25490.77
686.60	25450.99
686.73	25696.74
686.87	25329.28
687.01	25305.87
687.14	25493.12
687.28	24847.13
687.42	25088.20
687.55	24910.32
687.69	24889.26
687.82	24620.10
687.96	24690.31
688.10	24699.67
688.23	24444.56
688.37	24678.61
688.50	24657.54
688.64	24535.84
688.78	24231.57
688.91	23723.67
689.05	24074.75
689.18	24004.53
689.32	23290.67
689.46	23484.94
689.59	23360.89
689.73	23686.22
689.86	23690.90
690.00	23307.05
690.13	23288.33
690.27	23271.95
690.41	22899.80
690.54	22974.70
690.68	22913.84
690.81	22707.88
690.95	22394.25
691.08	22473.82
691.22	22434.03
691.35	22319.35
691.49	22527.66
691.62	22796.82
691.76	21930.82
691.89	22104.02
692.03	21666.34
692.16	21584.42
692.30	21713.15
692.43	21626.55
692.57	21341.00
692.70	21345.69
692.84	21188.87
692.97	21153.76
693.11	21046.10
693.24	20982.90
693.38	20830.77
693.51	20622.46
693.65	20695.02
693.78	20734.81
693.92	20718.42
694.05	20362.66
694.19	20231.59
694.32	20107.54
694.45	20166.06
694.59	20496.07
694.72	20666.93
694.86	19889.87
694.99	19857.10
695.13	19590.28
695.26	19833.70
695.39	19707.31
695.53	19627.73
695.66	19438.15
695.80	19477.94
695.93	19290.70
696.07	18958.34
696.20	19021.53
696.33	18937.27
696.47	18845.99
696.60	18920.89
696.73	18721.95
696.87	18794.50
697.00	18829.61
697.14	18747.69
697.27	18466.83
697.40	18387.25
697.54	18515.98
697.67	18195.32
697.80	18424.70
697.94	18082.98
698.07	17867.65
698.21	17743.60
698.34	18068.94
698.47	17710.83
698.61	17179.53
698.74	17729.56
698.87	17242.73
699.01	17355.07
699.14	17465.08
699.27	17378.48
699.40	17186.55
699.54	17116.34
699.67	17106.98
699.80	16767.60
699.94	16903.35
700.07	16842.50
700.20	16793.34
700.34	16533.54
700.47	16451.63
700.60	16636.53
700.73	16603.76
700.87	16100.55
701.00	16194.17
701.13	15845.43
701.26	15885.22
701.40	16044.37
701.53	15789.25
701.66	15756.49
701.79	15697.97
701.93	15524.77
702.06	15648.82
702.19	15674.57
702.32	15555.20
702.46	15754.15
702.59	15618.39
702.72	15393.70
702.85	15300.08
702.99	15201.78
703.12	14944.32
703.25	14979.43
703.38	14874.10
703.51	14499.62
703.65	14586.22
703.78	14293.65
703.91	14326.42
704.04	14347.48
704.17	14342.80
704.31	14314.72
704.44	14452.81
704.57	14239.82
704.70	14129.81
704.83	13980.02
704.96	13752.99
705.10	13736.60
705.23	13760.01
>>>>>End Processed Spectral Data<<<<<
