SpectraSuite Data File
++++++++++++++++++++++++++++++++++++
Date: Fri Oct 25 10:44:02 EDT 2013
User: price-jones
Dark Spectrum Present: No
Reference Spectrum Present: No
Number of Sampled Component Spectra: 1
Spectrometers: USB2+H05261
Integration Time (usec): 100000 (USB2+H05261)
Spectra Averaged: 1 (USB2+H05261)
Boxcar Smoothing: 0 (USB2+H05261)
Correct for Electrical Dark: No (USB2+H05261)
Strobe/Lamp Enabled: No (USB2+H05261)
Correct for Detector Non-linearity: No (USB2+H05261)
Correct for Stray Light: No (USB2+H05261)
Number of Pixels in Processed Spectrum: 2048
>>>>>Begin Processed Spectral Data<<<<<
365.73	124.05
365.92	124.05
366.12	124.05
366.32	77.24
366.52	65.54
366.72	95.96
366.91	18.72
367.11	2.34
367.31	4.68
367.51	0.00
367.70	28.09
367.90	46.81
368.10	30.43
368.30	42.13
368.49	42.13
368.69	65.54
368.89	56.17
369.09	44.47
369.28	60.85
369.48	98.30
369.68	35.11
369.87	81.92
370.07	95.96
370.27	163.84
370.47	177.88
370.66	395.55
370.86	447.04
371.06	458.74
371.25	486.83
371.45	425.98
371.65	414.27
371.84	447.04
372.04	489.17
372.24	524.28
372.44	521.94
372.63	468.11
372.83	566.41
373.03	517.26
373.22	533.64
373.42	547.69
373.62	433.00
373.81	566.41
374.01	610.88
374.21	552.37
374.40	578.11
374.60	671.73
374.79	557.05
374.99	526.62
375.19	636.63
375.38	648.33
375.58	617.90
375.78	645.99
375.97	653.01
376.17	681.10
376.37	669.39
376.56	603.86
376.76	648.33
376.95	706.84
377.15	610.88
377.35	648.33
377.54	650.67
377.74	657.69
377.93	641.31
378.13	697.48
378.33	655.35
378.52	702.16
378.72	734.93
378.91	704.50
379.11	667.05
379.31	667.05
379.50	627.26
379.70	730.25
379.89	741.95
380.09	699.82
380.28	624.92
380.48	737.27
380.68	800.46
380.87	786.42
381.07	777.06
381.26	709.18
381.46	711.52
381.65	725.57
381.85	645.99
382.04	690.46
382.24	753.65
382.43	730.25
382.63	732.59
382.83	793.44
383.02	798.12
383.22	774.72
383.41	702.16
383.61	718.54
383.80	828.55
384.00	828.55
384.19	837.91
384.39	866.00
384.58	858.98
384.78	894.08
384.97	751.31
385.17	767.70
385.36	781.74
385.56	793.44
385.75	823.87
385.95	854.30
386.14	985.37
386.34	863.66
386.53	877.70
386.72	812.17
386.92	903.45
387.11	880.04
387.31	947.92
387.50	912.81
387.70	837.91
387.89	922.17
388.09	844.93
388.28	999.41
388.48	922.17
388.67	990.05
388.86	1027.50
389.06	964.30
389.25	959.62
389.45	947.92
389.64	976.00
389.84	990.05
390.03	1011.11
390.22	1095.37
390.42	1057.92
390.61	1008.77
390.81	994.73
391.00	1123.46
391.19	1181.97
391.39	1062.60
391.58	1067.28
391.78	1100.05
391.97	1048.56
392.16	1025.15
392.36	1125.80
392.55	1020.47
392.75	985.37
392.94	1020.47
393.13	1069.62
393.33	1048.56
393.52	1095.37
393.71	1172.61
393.91	1156.22
394.10	1170.27
394.29	1235.80
394.49	1196.01
394.68	1263.89
394.88	1322.40
395.07	1327.08
395.26	1289.64
395.46	1299.00
395.65	1345.81
395.84	1341.13
396.04	1306.02
396.23	1336.45
396.42	1146.86
396.62	1235.80
396.81	1233.46
397.00	1249.85
397.19	1329.42
397.39	1483.90
397.58	1441.77
397.77	1500.28
397.97	1458.15
398.16	1469.86
398.35	1467.52
398.55	1441.77
398.74	1500.28
398.93	1694.55
399.12	1636.03
399.32	1511.99
399.51	1605.61
399.70	1605.61
399.90	1678.16
400.09	1750.72
400.28	1607.95
400.47	1687.53
400.67	1760.08
400.86	1729.66
401.05	1795.19
401.24	1802.21
401.44	1788.17
401.63	1722.63
401.82	1849.02
402.01	1781.15
402.21	1783.49
402.40	1856.04
402.59	1909.88
402.78	1785.83
402.97	1846.68
403.17	1823.28
403.36	1891.15
403.55	1940.30
403.74	1914.56
403.93	1914.56
404.13	1930.94
404.32	1893.49
404.51	1949.67
404.70	1891.15
404.89	2059.67
405.09	2064.35
405.28	2080.74
405.47	1982.43
405.66	1994.14
405.85	2031.58
406.05	2045.63
406.24	2181.38
406.43	2080.74
406.62	2169.68
406.81	2218.83
407.00	2125.21
407.20	2204.78
407.39	2197.76
407.58	2244.57
407.77	2286.70
407.96	2312.45
408.15	2303.09
408.34	2279.68
408.54	2424.80
408.73	2396.71
408.92	2436.50
409.11	2317.13
409.30	2537.14
409.49	2373.30
409.68	2289.04
409.87	2347.56
410.07	2406.07
410.26	2462.24
410.45	2471.61
410.64	2499.69
410.83	2569.91
411.02	2609.70
411.21	2691.62
411.40	2623.74
411.59	2848.43
411.78	2612.04
411.98	2637.78
412.17	2665.87
412.36	2832.05
412.55	2895.24
412.74	2906.95
412.93	2855.45
413.12	2764.17
413.31	3026.31
413.50	2829.71
413.69	2967.80
413.88	3000.57
414.07	2956.10
414.26	3108.23
414.45	3061.42
414.64	3220.58
414.83	3035.67
415.02	3159.72
415.22	3208.87
415.41	3199.51
415.60	3379.73
415.79	3309.52
415.98	3304.84
416.17	3410.16
416.36	3393.78
416.55	3346.97
416.74	3372.71
416.93	3346.97
417.12	3445.27
417.31	3396.12
417.50	3473.36
417.69	3686.34
417.88	3541.23
418.07	3550.59
418.26	3480.38
418.45	3489.74
418.64	3595.06
418.83	3789.33
419.02	3709.75
419.21	3798.69
419.39	3763.58
419.58	3749.54
419.77	3667.62
419.96	3873.59
420.15	3758.90
420.34	3779.97
420.53	3803.37
420.72	3999.98
420.91	3990.61
421.10	4067.85
421.29	3967.21
421.48	3906.35
421.67	4037.42
421.86	3976.57
422.05	3838.48
422.24	3801.03
422.43	4056.15
422.61	3974.23
422.80	3976.57
422.99	4009.34
423.18	4271.48
423.37	4156.79
423.56	4149.77
423.75	4217.65
423.94	4077.21
424.13	3763.58
424.32	3815.07
424.50	4217.65
424.69	4133.39
424.88	4297.22
425.07	4002.32
425.26	3932.10
425.45	4028.06
425.64	4152.11
425.83	4067.85
426.01	4135.73
426.20	4112.32
426.39	4236.37
426.58	4119.34
426.77	4037.42
426.96	4023.38
427.15	4032.74
427.33	4285.52
427.52	4304.25
427.71	4285.52
427.90	4306.59
428.09	4290.20
428.28	4337.01
428.46	4227.01
428.65	4360.42
428.84	4416.59
429.03	4447.02
429.22	4259.78
429.40	4374.46
429.59	4301.90
429.78	4072.53
429.97	4053.81
430.16	4222.33
430.34	4292.54
430.53	4217.65
430.72	4414.25
430.91	4322.97
431.10	4613.20
431.28	4688.09
431.47	4856.61
431.66	4966.62
431.85	4676.39
432.03	4823.84
432.22	4856.61
432.41	4809.80
432.60	4772.35
432.79	4931.51
432.97	4924.49
433.16	5004.07
433.35	4730.22
433.54	4884.70
433.72	4851.93
433.91	4805.12
434.10	4910.44
434.28	5011.09
434.47	4966.62
434.66	5057.90
434.85	5027.47
435.03	5121.09
435.22	4973.64
435.41	5191.31
435.59	5277.91
435.78	5156.20
435.97	5224.08
436.16	5294.29
436.34	5275.57
436.53	5256.84
436.72	5516.64
436.90	5423.02
437.09	5465.15
437.28	5310.68
437.46	5425.36
437.65	5270.89
437.84	5397.28
438.02	5291.95
438.21	5371.53
438.40	5310.68
438.58	5549.41
438.77	5631.33
438.96	5729.63
439.14	5846.66
439.33	5863.04
439.52	5923.90
439.70	5797.51
439.89	5954.32
440.08	5830.27
440.26	5727.29
440.45	5888.79
440.63	6108.80
440.82	6160.29
441.01	6071.35
441.19	6179.01
441.38	6321.79
441.57	6312.42
441.75	6464.56
441.94	6328.81
442.12	6408.39
442.31	6415.41
442.50	6513.71
442.68	6562.86
442.87	6722.02
443.05	6523.07
443.24	6787.55
443.43	6782.87
443.61	6722.02
443.80	6930.33
443.98	6609.67
444.17	6558.18
444.35	6567.54
444.54	6916.28
444.73	6736.06
444.91	6796.92
445.10	6635.42
445.28	6703.29
445.47	6567.54
445.65	6537.12
445.84	6869.47
446.02	7012.24
446.21	6935.01
446.39	6766.49
446.58	6920.96
446.77	6970.12
446.95	6665.85
447.14	6869.47
447.32	7002.88
447.51	6998.20
447.69	6974.80
447.88	6923.30
448.06	6815.64
448.25	7047.35
448.43	6895.22
448.62	6881.18
448.80	6981.82
448.99	7049.69
449.17	7124.59
449.36	6846.07
449.54	7276.73
449.73	7365.67
449.91	7351.62
450.10	7323.54
450.28	7433.54
450.46	7506.10
450.65	7466.31
450.83	7485.03
451.02	7396.09
451.20	7581.00
451.39	7740.15
451.57	7468.65
451.76	7559.93
451.94	7421.84
452.13	7627.81
452.31	7494.40
452.49	7335.24
452.68	7527.16
452.86	7358.64
453.05	7665.25
453.23	7478.01
453.42	7531.84
453.60	7613.76
453.78	7747.17
453.97	7618.44
454.15	7473.33
454.34	7400.77
454.52	7789.30
454.70	7815.05
454.89	7662.91
455.07	7850.16
455.26	7845.48
455.44	7939.10
455.62	8187.19
455.81	8046.76
455.99	8067.83
456.17	8198.90
456.36	8098.25
456.54	8131.02
456.73	8201.24
456.91	8421.25
457.09	8379.12
457.28	8606.15
457.46	8482.10
457.64	8573.38
457.83	8353.37
458.01	8315.92
458.19	8442.31
458.38	8416.57
458.56	8659.98
458.74	8613.17
458.93	8329.97
459.11	8599.13
459.29	8629.56
459.48	8718.50
459.66	8699.77
459.84	8617.85
460.03	8887.01
460.21	8819.14
460.39	8819.14
460.57	8868.29
460.76	8847.22
460.94	9015.74
461.12	9111.71
461.31	8727.86
461.49	8957.23
461.67	8982.98
461.85	9076.60
462.04	9118.73
462.22	9678.12
462.40	9195.96
462.59	8973.61
462.77	9341.08
462.95	9334.06
463.13	9252.14
463.32	9577.47
463.50	9350.44
463.68	9385.55
463.86	9287.25
464.05	9146.81
464.23	9390.23
464.41	9481.51
464.59	9294.27
464.78	9472.15
464.96	9376.19
465.14	9469.81
465.32	9493.21
465.50	9640.67
465.69	9525.98
465.87	9451.08
466.05	9544.70
466.23	9441.72
466.41	9413.63
466.60	9579.81
466.78	9362.14
466.96	9645.35
467.14	9549.39
467.32	9647.69
467.51	9596.20
467.69	9631.30
467.87	9654.71
468.05	9919.19
468.23	9806.84
468.41	9640.67
468.60	9783.44
468.78	10008.13
468.96	9914.51
469.14	9947.28
469.32	10209.42
469.50	9643.01
469.69	10047.92
469.87	10113.45
470.05	10239.84
470.23	9961.32
470.41	10134.52
470.59	10363.89
470.77	10256.23
470.95	10331.12
471.14	10471.56
471.32	10244.52
471.50	10656.46
471.68	10565.18
471.86	10839.02
472.04	10822.64
472.22	10820.30
472.40	10644.76
472.58	10565.18
472.77	10920.94
472.95	10944.34
473.13	11201.80
473.31	10820.30
473.49	10988.82
473.67	11023.92
473.85	11309.47
474.03	11398.41
474.21	11410.11
474.39	11396.07
474.57	11449.90
474.75	11375.00
474.93	11604.38
475.12	11332.87
475.30	11667.57
475.48	11499.05
475.66	11623.10
475.84	11627.78
476.02	11819.71
476.20	11803.32
476.38	12084.19
476.56	12301.86
476.74	12252.70
476.92	12243.34
477.10	12156.74
477.28	12486.76
477.46	12437.61
477.64	12744.22
477.82	12788.69
478.00	12840.18
478.18	12971.25
478.36	12734.85
478.54	13163.17
478.72	13369.14
478.90	13327.01
479.08	13661.71
479.26	13537.66
479.44	13380.84
479.62	13511.91
479.80	13879.38
479.98	13673.41
480.16	14040.87
480.34	13823.20
480.52	14349.82
480.70	14251.52
480.88	14078.32
481.06	14427.06
481.24	14691.54
481.41	14642.39
481.59	14771.12
481.77	14796.87
481.95	15037.94
482.13	14993.47
482.31	15108.16
482.49	15494.35
482.67	15510.73
482.85	15749.46
483.03	15637.12
483.21	15815.00
483.39	16039.69
483.57	15611.37
483.74	16093.52
483.92	16112.25
484.10	16166.08
484.28	16304.17
484.46	16788.66
484.64	16999.31
484.82	16570.99
485.00	16910.37
485.18	16732.49
485.35	17158.47
485.53	16545.25
485.71	16575.67
485.89	16954.84
486.07	16922.07
486.25	17228.68
486.43	17331.67
486.61	17699.13
486.78	17860.63
486.96	18031.49
487.14	18134.47
487.32	18181.28
487.50	18796.84
487.68	18998.13
487.85	18843.65
488.03	19168.99
488.21	19157.28
488.39	19131.54
488.57	19297.72
488.75	19227.50
488.92	19531.77
489.10	19915.62
489.28	19878.17
489.46	20362.66
489.64	20238.61
489.81	20870.56
489.99	20886.94
490.17	20861.19
490.35	21256.75
490.53	20737.15
490.70	21167.80
490.88	21205.25
491.06	21661.66
491.24	21249.72
491.41	21088.23
491.59	21439.31
491.77	21479.10
491.95	21656.98
492.13	21986.99
492.30	22284.24
492.48	22143.81
492.66	22546.38
492.84	22679.79
493.01	22656.39
493.19	22838.95
493.37	22927.89
493.54	23005.13
493.72	23159.60
493.90	23520.04
494.08	23555.15
494.25	24161.35
494.43	23960.06
494.61	24276.04
494.79	24264.33
494.96	24215.18
495.14	24306.46
495.32	24711.38
495.49	24496.05
495.67	24381.36
495.85	25032.03
496.02	24861.17
496.20	25263.74
496.38	25598.44
496.55	25280.13
496.73	25703.76
496.91	25596.10
497.09	25764.62
497.26	25579.71
497.44	25537.59
497.62	25734.19
497.79	26267.83
497.97	26054.84
498.14	26331.03
498.32	26492.52
498.50	26354.43
498.67	26796.79
498.85	26782.75
499.03	27138.51
499.20	27119.79
499.38	26909.14
499.56	26897.44
499.73	27384.27
499.91	27405.33
500.08	27520.02
500.26	27234.47
500.44	27482.57
500.61	27566.83
500.79	27459.16
500.97	27604.28
501.14	27786.84
501.32	27988.13
501.49	27924.93
501.67	28048.98
501.84	28163.67
502.02	28510.07
502.20	28568.58
502.37	28524.11
502.55	28711.35
502.72	28961.79
502.90	28629.43
503.07	28507.72
503.25	29214.57
503.43	28992.22
503.60	29003.92
503.78	28833.06
503.95	28954.77
504.13	29312.87
504.30	29387.77
504.48	29654.59
504.65	29827.79
504.83	29898.00
505.01	30263.13
505.18	29677.99
505.36	29951.84
505.53	30333.34
505.71	30590.80
505.88	30471.43
506.06	30534.63
506.23	30754.64
506.41	30614.21
506.58	30696.13
506.76	30412.92
506.93	30834.22
507.11	30588.46
507.28	30745.28
507.46	30410.58
507.63	30852.94
507.81	31033.16
507.98	31079.97
508.16	31077.63
508.33	31428.71
508.50	31321.05
508.68	31740.00
508.85	31789.16
509.03	32027.89
509.20	32121.51
509.38	32119.17
509.55	32081.72
509.73	31955.33
509.90	32376.63
510.08	32306.41
510.25	32371.95
510.42	32673.88
510.60	32631.75
510.77	32917.29
510.95	32863.46
511.12	32889.21
511.30	33003.89
511.47	33577.33
511.64	33574.98
511.82	33457.96
511.99	32907.93
512.17	33181.77
512.34	32882.19
512.51	33181.77
512.69	33504.77
512.86	33923.72
513.04	34099.26
513.21	33647.54
513.38	33303.48
513.56	34141.39
513.73	33268.37
513.90	33734.14
514.08	33986.92
514.25	33715.42
514.43	34010.32
514.60	34052.45
514.77	34515.88
514.95	34342.68
515.12	34586.10
515.29	34653.97
515.47	35072.93
515.64	34838.87
515.81	34380.13
515.99	34785.04
516.16	34653.97
516.33	34239.70
516.51	34745.25
516.68	33848.83
516.85	34167.14
517.03	34712.49
517.20	34756.96
517.37	35133.78
517.54	35557.42
517.72	34483.11
517.89	34904.41
518.06	34890.37
518.24	34712.49
518.41	35297.62
518.58	35257.83
518.75	35557.42
518.93	35772.75
519.10	35725.94
519.27	35952.97
519.45	35990.42
519.62	35875.73
519.79	36016.16
519.96	36390.65
520.14	36472.57
520.31	36268.94
520.48	36409.37
520.65	36744.07
520.83	36741.73
521.00	37099.83
521.17	36605.98
521.34	36823.65
521.52	37167.71
521.69	37202.82
521.86	37399.42
522.03	37137.28
522.20	37560.92
522.38	36856.42
522.55	37565.60
522.72	37179.41
522.89	37060.04
523.07	37619.43
523.24	37713.05
523.41	37656.88
523.58	37809.01
523.75	38167.12
523.92	38141.37
524.10	38012.64
524.27	38401.17
524.44	38199.88
524.61	38452.66
524.78	38199.88
524.96	38469.04
525.13	38455.00
525.30	39072.90
525.47	39302.28
525.64	38581.39
525.81	38375.42
525.98	38684.37
526.16	38363.72
526.33	38300.53
526.50	38333.29
526.67	38031.36
526.84	37947.11
527.01	38253.72
527.18	38522.88
527.36	38801.40
527.53	39393.56
527.70	39323.34
527.87	39440.37
528.04	39100.99
528.21	39524.63
528.38	39700.17
528.55	39964.65
528.72	39604.20
528.89	39955.29
529.07	39608.89
529.24	39576.12
529.41	39803.15
529.58	39711.87
529.75	39583.14
529.92	39768.04
530.09	39782.09
530.26	40287.64
530.43	40172.96
530.60	40095.72
530.77	40039.54
530.94	40442.12
531.11	40072.31
531.28	40395.31
531.46	40737.02
531.63	40683.19
531.80	40811.92
531.97	40133.17
532.14	40332.11
532.31	39901.45
532.48	40158.91
532.65	40737.02
532.82	40610.64
532.99	40610.64
533.16	40715.96
533.33	41048.32
533.50	41198.11
533.67	40835.33
533.84	40868.09
534.01	41118.53
534.18	40741.71
534.35	41064.70
534.52	41200.45
534.69	41425.14
534.86	41794.95
535.03	41799.63
535.20	41776.22
535.37	41984.53
535.54	41741.11
535.71	41661.54
535.88	41860.48
536.05	41750.48
536.22	41572.60
536.38	41879.21
536.55	41631.11
536.72	41591.32
536.89	41572.60
537.06	41532.81
537.23	41888.57
537.40	41792.61
537.57	42375.40
537.74	42115.60
537.91	42244.33
538.08	42424.55
538.25	41881.55
538.42	42206.88
538.59	42361.36
538.75	42337.95
538.92	42080.49
539.09	42415.19
539.26	42288.80
539.43	42635.20
539.60	42389.44
539.77	42342.63
539.94	42293.48
540.11	42249.01
540.28	42471.36
540.44	42534.56
540.61	42244.33
540.78	42319.23
540.95	42674.99
541.12	42478.38
541.29	42092.19
541.46	42511.15
541.62	42951.17
541.79	43295.23
541.96	42513.49
542.13	42920.74
542.30	42873.93
542.47	43281.19
542.63	43093.94
542.80	43086.92
542.97	43180.54
543.14	43686.10
543.31	43372.47
543.48	43578.43
543.64	44100.37
543.81	44140.16
543.98	43739.93
544.15	44133.14
544.32	43798.44
544.48	44369.54
544.65	44278.25
544.82	43964.62
544.99	43615.88
545.16	43976.33
545.32	44006.75
545.49	44533.37
545.66	44444.43
545.83	44268.89
546.00	44095.69
546.16	44168.25
546.33	43880.36
546.50	43749.29
546.67	44362.51
546.83	44032.50
547.00	44147.18
547.17	44519.33
547.34	44266.55
547.50	43875.68
547.67	44830.62
547.84	44196.34
548.00	44697.21
548.17	44966.37
548.34	44912.54
548.51	44786.15
548.67	44802.53
548.84	44629.34
549.01	44540.39
549.18	44994.46
549.34	44851.69
549.51	44655.08
549.68	45177.02
549.84	44727.64
550.01	45467.25
550.18	44617.63
550.34	45097.44
550.51	44760.40
550.68	44580.18
550.84	44973.39
551.01	45010.84
551.18	45198.09
551.34	45003.82
551.51	45043.61
551.68	45750.45
551.84	45539.80
552.01	44975.73
552.18	45219.15
552.34	45155.96
552.51	45078.72
552.68	45258.94
552.84	45144.25
553.01	45570.23
553.18	44999.14
553.34	45551.51
553.51	45120.85
553.67	45322.13
553.84	45743.43
554.01	45373.63
554.17	45635.77
554.34	45610.02
554.51	45698.96
554.67	45998.55
554.84	45626.40
555.00	45422.78
555.17	45652.15
555.33	45532.78
555.50	45724.71
555.67	45708.32
555.83	45488.31
556.00	45830.03
556.16	45975.14
556.33	46202.18
556.50	45764.49
556.66	45525.76
556.83	45390.01
556.99	46005.57
557.16	46096.85
557.32	45893.22
557.49	46103.87
557.65	45736.41
557.82	45815.99
557.98	46047.70
558.15	46124.94
558.32	45841.73
558.48	45853.44
558.65	45666.19
558.81	45698.96
558.98	46026.63
559.14	45958.76
559.31	46014.93
559.47	46108.55
559.64	46251.33
559.80	46209.20
559.97	46571.98
560.13	45858.12
560.30	45940.04
560.46	46239.62
560.63	46466.66
560.79	46270.05
560.96	46351.97
561.12	46234.94
561.29	45895.56
561.45	46291.12
561.61	46398.78
561.78	46480.70
561.94	46007.91
562.11	46071.10
562.27	45886.20
562.44	46710.07
562.60	46679.64
562.77	46380.06
562.93	46178.77
563.10	46913.70
563.26	46117.92
563.42	47023.70
563.59	46199.83
563.75	46265.37
563.92	46611.77
564.08	46677.30
564.24	46567.30
564.41	46628.15
564.57	46403.46
564.74	46490.06
564.90	46590.70
565.07	46333.24
565.23	46260.69
565.39	46653.90
565.56	46904.34
565.72	46092.17
565.88	46464.32
566.05	46670.28
566.21	46178.77
566.38	46550.91
566.54	46129.62
566.70	46375.37
566.87	46445.59
567.03	46658.58
567.19	46972.21
567.36	46972.21
567.52	46937.10
567.68	46766.24
567.85	46443.25
568.01	46838.80
568.17	46363.67
568.34	46440.91
568.50	46639.86
568.66	46461.97
568.83	46775.61
568.99	46181.11
569.15	46485.38
569.32	46195.15
569.48	46527.51
569.64	47000.30
569.81	47000.30
569.97	46457.29
570.13	46438.57
570.30	46696.03
570.46	46361.33
570.62	46593.04
570.78	46375.37
570.95	46459.63
571.11	46658.58
571.27	46541.55
571.43	46843.48
571.60	46768.58
571.76	46689.01
571.92	46752.20
572.09	46429.21
572.25	46579.00
572.41	46705.39
572.57	47009.66
572.74	47157.11
572.90	46499.42
573.06	46775.61
573.22	47021.36
573.38	46822.42
573.55	46581.34
573.71	47260.10
573.87	46777.95
574.03	46726.46
574.20	46934.76
574.36	46571.98
574.52	46609.43
574.68	46656.24
574.84	46939.44
575.01	46920.72
575.17	46876.25
575.33	46710.07
575.49	46532.19
575.65	46871.57
575.82	47166.48
575.98	46653.90
576.14	46717.09
576.30	46429.21
576.46	46630.49
576.62	46979.23
576.79	46923.06
576.95	46480.70
577.11	46710.07
577.27	46944.12
577.43	46857.52
577.59	46667.94
577.75	46218.56
577.92	46220.90
578.08	46574.32
578.24	46536.87
578.40	46485.38
578.56	46824.76
578.72	47030.72
578.88	46733.48
579.04	47000.30
579.21	46555.60
579.37	46817.74
579.53	46904.34
579.69	46368.35
579.85	46508.79
580.01	46909.02
580.17	46674.96
580.33	46710.07
580.49	47047.11
580.65	47138.39
580.82	47049.45
580.98	46770.93
581.14	46782.63
581.30	47192.22
581.46	47002.64
581.62	47346.70
581.78	47178.18
581.94	47220.31
582.10	46733.48
582.26	47377.12
582.42	46719.43
582.58	47091.58
582.74	46909.02
582.90	46752.20
583.06	47159.45
583.22	47103.28
583.38	47320.95
583.54	47672.03
583.70	46930.08
583.86	47082.22
584.02	46623.47
584.18	46979.23
584.34	46817.74
584.50	47119.66
584.66	46766.24
584.82	46171.75
584.98	46995.62
585.14	46972.21
585.30	46791.99
585.46	46773.27
585.62	46162.39
585.78	46916.04
585.94	46220.90
586.10	46557.94
586.26	46815.40
586.42	46766.24
586.58	47182.86
586.74	46990.94
586.90	46920.72
587.06	46937.10
587.22	46784.97
587.38	46674.96
587.54	47185.20
587.70	47224.99
587.86	46904.34
588.02	47056.47
588.18	46796.67
588.34	47171.16
588.49	46373.03
588.65	46014.93
588.81	46356.65
588.97	46536.87
589.13	46195.15
589.29	46681.98
589.45	46906.68
589.61	46635.17
589.77	46822.42
589.93	46782.63
590.08	47262.44
590.24	47086.90
590.40	47309.25
590.56	47297.55
590.72	47201.58
590.88	47267.12
591.04	46930.08
591.20	47316.27
591.35	47643.94
591.51	47248.39
591.67	47119.66
591.83	47227.33
591.99	46906.68
592.15	47192.22
592.31	47257.76
592.46	47126.69
592.62	46902.00
592.78	47222.65
592.94	47339.68
593.10	46972.21
593.26	46689.01
593.41	47217.97
593.57	46630.49
593.73	46829.44
593.89	47283.50
594.05	46972.21
594.20	47217.97
594.36	47000.30
594.52	46885.61
594.68	46913.70
594.84	46841.14
594.99	47428.62
595.15	46990.94
595.31	47267.12
595.47	47014.34
595.62	47236.69
595.78	46827.10
595.94	47255.42
596.10	47180.52
596.25	47253.08
596.41	46965.19
596.57	47040.09
596.73	47334.99
596.88	47103.28
597.04	47323.29
597.20	47194.56
597.36	47075.19
597.51	47297.55
597.67	46899.65
597.83	46726.46
597.99	47388.83
598.14	47192.22
598.30	47068.17
598.46	46899.65
598.61	46777.95
598.77	47000.30
598.93	47009.66
599.09	47344.36
599.24	47412.23
599.40	47379.46
599.56	47482.45
599.71	46969.87
599.87	47089.24
600.03	47061.15
600.18	47138.39
600.34	46611.77
600.50	47012.00
600.65	47168.82
600.81	47290.52
600.97	46930.08
601.12	47058.81
601.28	47440.32
601.44	46972.21
601.59	46948.81
601.75	46281.75
601.91	46464.32
602.06	46742.84
602.22	46801.35
602.37	47070.51
602.53	46761.56
602.69	47093.92
602.84	46880.93
603.00	46801.35
603.16	47089.24
603.31	47086.90
603.47	47047.11
603.62	47192.22
603.78	47239.03
603.94	47332.65
604.09	47217.97
604.25	47082.22
604.40	46899.65
604.56	47049.45
604.71	47086.90
604.87	46852.84
605.03	47178.18
605.18	46852.84
605.34	46820.08
605.49	46555.60
605.65	46806.03
605.80	46951.15
605.96	47002.64
606.12	46962.85
606.27	47306.91
606.43	47019.02
606.58	47023.70
606.74	46639.86
606.89	46548.57
607.05	46595.38
607.20	46735.82
607.36	46511.13
607.51	46447.93
607.67	46787.31
607.82	46721.77
607.98	46691.35
608.13	46796.67
608.29	46611.77
608.44	45801.94
608.60	46520.49
608.75	46522.83
608.91	46506.44
609.06	46831.78
609.22	46579.00
609.37	46689.01
609.53	46036.00
609.68	46677.30
609.84	46373.03
609.99	46508.79
610.15	46499.42
610.30	46309.84
610.46	46218.56
610.61	45886.20
610.76	46270.05
610.92	46387.08
611.07	46351.97
611.23	46569.64
611.38	46300.48
611.54	45567.89
611.69	45862.80
611.84	46480.70
612.00	46419.84
612.15	45705.98
612.31	46232.60
612.46	46066.42
612.62	46117.92
612.77	45993.87
612.92	46471.34
613.08	45982.16
613.23	46169.41
613.39	46131.96
613.54	45895.56
613.69	46171.75
613.85	45666.19
614.00	46143.66
614.15	46071.10
614.31	45947.06
614.46	45771.52
614.62	46277.07
614.77	45862.80
614.92	46143.66
615.08	45654.49
615.23	45666.19
615.38	46003.23
615.54	45399.37
615.69	45914.29
615.84	46160.05
616.00	45485.97
616.15	45511.72
616.30	45408.73
616.46	45514.06
616.61	45371.28
616.76	45656.83
616.92	45474.27
617.07	44978.07
617.22	45235.53
617.37	45298.73
617.53	45998.55
617.68	45542.14
617.83	45406.39
617.99	45469.59
618.14	45418.10
618.29	45177.02
618.45	45315.11
618.60	44938.29
618.75	44935.95
618.90	45017.86
619.06	45155.96
619.21	45588.95
619.36	45076.38
619.51	45116.17
619.67	45193.40
619.82	45170.00
619.97	45078.72
620.12	44598.91
620.28	44762.75
620.43	44844.66
620.58	45223.83
620.73	45106.80
620.89	44711.25
621.04	44739.34
621.19	44612.95
621.34	45099.78
621.49	44580.18
621.65	44364.85
621.80	45020.20
621.95	44680.83
622.10	44854.03
622.25	44334.43
622.41	44060.58
622.56	44619.97
622.71	44818.92
622.86	44402.30
623.01	44559.12
623.16	44617.63
623.32	44514.65
623.47	44406.98
623.62	44318.04
623.77	44004.41
623.92	44652.74
624.07	44416.35
624.23	44032.50
624.38	44009.09
624.53	43875.68
624.68	44067.61
624.83	44119.10
624.98	44116.76
625.13	43636.95
625.29	44217.40
625.44	43849.94
625.59	43405.23
625.74	43377.15
625.89	43283.53
626.04	43824.19
626.19	43662.69
626.34	43831.21
626.49	43861.64
626.65	44048.88
626.80	44196.34
626.95	43920.15
627.10	43409.92
627.25	43323.32
627.40	43000.32
627.55	43227.35
627.70	43009.68
627.85	42918.40
628.00	43126.71
628.15	43267.14
628.30	43042.45
628.45	43489.49
628.60	43313.95
628.76	43526.94
628.91	43395.87
629.06	43241.40
629.21	42902.02
629.36	42986.28
629.51	43030.75
629.66	42958.19
629.81	42808.40
629.96	42944.15
630.11	43213.31
630.26	43068.20
630.41	43297.57
630.56	43363.11
630.71	42958.19
630.86	42829.46
631.01	42738.18
631.16	42719.46
631.31	42700.73
631.46	42581.37
631.61	43241.40
631.76	42588.39
631.91	42394.12
632.06	42497.11
632.21	42969.90
632.36	43058.84
632.51	42382.42
632.66	42672.65
632.81	42426.89
632.96	42415.19
633.10	42504.13
633.25	42705.41
633.40	42696.05
633.55	42632.86
633.70	41888.57
633.85	42150.71
634.00	42419.87
634.15	42403.49
634.30	42192.84
634.45	42162.41
634.60	42560.30
634.75	42738.18
634.90	42096.88
635.05	41743.45
635.19	41806.65
635.34	42321.57
635.49	42043.04
635.64	42045.38
635.79	42164.75
635.94	41752.82
636.09	42490.09
636.24	42117.94
636.39	41219.17
636.53	42054.75
636.68	41804.31
636.83	42312.20
636.98	41933.04
637.13	41598.34
637.28	41607.70
637.43	41830.05
637.57	41860.48
637.72	41771.54
637.87	41970.49
638.02	41757.50
638.17	41406.42
638.32	41848.78
638.46	41794.95
638.61	41783.24
638.76	41186.41
638.91	41598.34
639.06	41701.32
639.20	41411.10
639.35	41579.62
639.50	41612.38
639.65	41404.08
639.80	41991.55
639.94	41298.75
640.09	41205.13
640.24	41588.98
640.39	40830.65
640.54	41102.15
640.68	41071.72
640.83	41036.61
640.98	40926.61
641.13	40575.53
641.27	41193.43
641.42	40861.07
641.57	40765.11
641.72	41010.87
641.86	40701.92
642.01	40910.22
642.16	40722.98
642.31	40491.27
642.45	41113.85
642.60	40645.74
642.75	40601.27
642.90	40851.71
643.04	40437.44
643.19	41062.36
643.34	40830.65
643.48	40493.61
643.63	40509.99
643.78	40308.71
643.93	40737.02
644.07	40418.71
644.22	40329.77
644.37	39943.58
644.51	40210.40
644.66	40442.12
644.81	40603.61
644.95	40708.94
645.10	40301.68
645.25	40371.90
645.39	39990.39
645.54	40481.91
645.69	39952.94
645.83	40502.97
645.98	40102.74
646.13	39845.28
646.27	40081.67
646.42	40217.43
646.57	39761.02
646.71	39746.98
646.86	40215.08
647.00	40458.50
647.15	39681.44
647.30	40032.52
647.44	39847.62
647.59	39892.09
647.74	39838.26
647.88	39466.11
648.03	39819.53
648.17	39835.92
648.32	39573.78
648.47	39508.24
648.61	39295.25
648.76	39423.98
648.90	39597.18
649.05	39524.63
649.20	39412.28
649.34	39229.72
649.49	39108.01
649.63	39608.89
649.78	39068.22
649.92	39299.94
650.07	39590.16
650.21	39161.84
650.36	39487.18
650.51	39639.31
650.65	39648.68
650.80	39971.67
650.94	39260.15
651.09	39494.20
651.23	39189.93
651.38	39098.65
651.52	38953.54
651.67	39110.35
651.81	38806.08
651.96	39042.48
652.10	39180.57
652.25	39159.50
652.39	39079.92
652.54	38787.36
652.68	39150.14
652.83	39093.97
652.97	39196.95
653.12	39442.71
653.26	38574.37
653.41	38576.71
653.55	38426.92
653.70	38579.05
653.84	38525.22
653.99	38941.83
654.13	38635.22
654.27	38586.07
654.42	38249.03
654.56	38096.90
654.71	38686.71
654.85	38583.73
655.00	38490.11
655.14	38536.92
655.29	38087.54
655.43	38113.28
655.57	37930.72
655.72	37790.29
655.86	37722.41
656.01	37462.61
656.15	37429.85
656.30	37401.76
656.44	37797.31
656.58	37502.40
656.73	38085.20
656.87	38122.65
657.01	38263.08
657.16	37923.70
657.30	37581.98
657.45	37453.25
657.59	37750.50
657.73	37696.67
657.88	38190.52
658.02	38567.35
658.16	38031.36
658.31	37684.97
658.45	38024.34
658.60	37811.35
658.74	38127.33
658.88	37668.58
659.03	37460.27
659.17	37584.32
659.31	37324.52
659.46	37303.46
659.60	37432.19
659.74	37729.44
659.89	37251.97
660.03	37256.65
660.17	37598.37
660.32	36924.29
660.46	37350.27
660.60	37081.11
660.74	37050.68
660.89	36833.01
661.03	36781.52
661.17	36591.94
661.32	36577.89
661.46	36556.83
661.60	37097.49
661.74	36484.27
661.89	37137.28
662.03	36491.29
662.17	36421.08
662.31	36472.57
662.46	36940.68
662.60	36631.72
662.74	36690.24
662.88	36465.55
663.03	36060.63
663.17	36217.45
663.31	35864.03
663.45	36114.47
663.60	36517.04
663.74	36210.43
663.88	36102.76
664.02	35634.66
664.17	36067.66
664.31	36041.91
664.45	36168.30
664.59	35370.18
664.73	35632.32
664.88	35793.81
665.02	35587.85
665.16	35665.08
665.30	35344.43
665.44	35342.09
665.59	35356.13
665.73	35138.46
665.87	35047.18
666.01	35346.77
666.15	35330.39
666.29	35124.42
666.44	35077.61
666.58	35002.71
666.72	35007.39
666.86	35143.14
667.00	35206.34
667.14	34628.23
667.28	34670.36
667.43	34909.09
667.57	34794.40
667.71	34483.11
667.85	34611.84
667.99	35051.86
668.13	34539.29
668.27	34422.26
668.41	34515.88
668.56	34157.78
668.70	34401.19
668.84	34490.13
668.98	33860.53
669.12	34050.11
669.26	33804.36
669.40	34078.20
669.54	33998.62
669.68	33961.17
669.82	33453.28
669.96	33579.67
670.10	33291.78
670.25	33673.29
670.39	33619.46
670.53	33326.89
670.67	33366.68
670.81	33418.17
670.95	33090.49
671.09	32875.16
671.23	32898.57
671.37	32910.27
671.51	33097.52
671.65	32959.42
671.79	32617.71
671.93	32879.85
672.07	33013.26
672.21	32863.46
672.35	32701.96
672.49	32886.87
672.63	32893.89
672.77	32912.61
672.91	32254.92
673.05	32704.31
673.19	32425.78
673.33	32233.86
673.47	31899.16
673.61	31779.79
673.75	31976.40
673.89	31578.51
674.03	31871.07
674.17	32081.72
674.31	31751.71
674.45	31791.50
674.59	31580.85
674.73	31578.51
674.87	31648.72
675.01	31271.90
675.15	31337.43
675.29	31058.91
675.43	31009.76
675.56	31192.32
675.70	30972.31
675.84	31194.66
675.98	30103.97
676.12	30710.17
676.26	30824.86
676.40	30937.20
676.54	31122.10
676.68	30712.51
676.82	30349.73
676.96	30448.03
677.10	30443.35
677.23	30492.50
677.37	29649.91
677.51	29858.21
677.65	30141.42
677.79	29369.04
677.93	29565.65
678.07	29310.53
678.21	29207.55
678.34	28765.18
678.48	28856.46
678.62	28975.83
678.76	28884.55
678.90	28826.04
679.04	28985.19
679.18	28863.49
679.31	28762.84
679.45	28671.56
679.59	28489.00
679.73	28622.41
679.87	27967.06
680.00	28360.27
680.14	28238.56
680.28	27896.85
680.42	28077.07
680.56	28081.75
680.70	27840.67
680.83	28102.81
680.97	27599.60
681.11	27770.46
681.25	27381.93
681.39	27697.90
681.52	27513.00
681.66	27466.19
681.80	27269.58
681.94	27342.14
682.07	27117.45
682.21	26899.78
682.35	27285.97
682.49	27159.58
682.62	26979.36
682.76	26829.56
682.90	26569.76
683.04	26342.73
683.17	26581.46
683.31	26279.54
683.45	26125.06
683.59	26253.79
683.72	25919.09
683.86	25869.94
684.00	26429.33
684.13	25731.85
684.27	25940.16
684.41	25738.87
684.55	25490.77
684.68	25319.92
684.82	25385.45
684.96	25202.89
685.09	25385.45
685.23	24978.20
685.37	24884.58
685.50	25053.09
685.64	24758.19
685.78	24648.18
685.91	24762.87
686.05	24664.57
686.19	24208.16
686.32	23899.21
686.46	23520.04
686.60	23475.57
686.73	23704.95
686.87	23201.73
687.01	23084.70
687.14	23201.73
687.28	23403.02
687.42	23089.38
687.55	23201.73
687.69	23131.51
687.82	23056.62
687.96	23585.58
688.10	23096.41
688.23	22892.78
688.37	22565.10
688.50	22815.54
688.64	22787.46
688.78	22710.22
688.91	22483.19
689.05	22567.45
689.18	22841.29
689.32	21884.01
689.46	22199.98
689.59	22586.17
689.73	22349.78
689.86	22097.00
690.00	21619.53
690.13	22125.08
690.27	21748.26
690.41	21820.81
690.54	21057.80
690.68	21179.51
690.81	21582.08
690.95	21495.48
691.08	21408.88
691.22	21343.35
691.35	21305.90
691.49	21502.50
691.62	21165.46
691.76	21432.29
691.89	21076.52
692.03	21022.69
692.16	20812.04
692.30	20603.74
692.43	20554.58
692.57	20475.01
692.70	20547.56
692.84	20180.10
692.97	20224.57
693.11	20318.19
693.24	20166.06
693.38	19770.51
693.51	20004.56
693.65	20004.56
693.78	19796.25
693.92	19719.01
694.05	19915.62
694.19	19594.96
694.32	19339.85
694.45	19403.04
694.59	19342.19
694.72	19489.64
694.86	19206.44
694.99	19164.31
695.13	19187.71
695.26	18904.51
695.39	18911.53
695.53	18703.22
695.66	18853.02
695.80	18881.10
695.93	18448.10
696.07	18548.75
696.20	18487.89
696.33	18239.79
696.47	18225.75
696.60	18368.52
696.73	18122.77
696.87	18054.89
697.00	17933.18
697.14	17809.14
697.27	18064.25
697.40	17846.58
697.54	17549.34
697.67	17731.90
697.80	17380.82
697.94	17020.38
698.07	17322.30
698.21	17186.55
698.34	17083.57
698.47	17226.34
698.61	17078.89
698.74	16720.79
698.87	16840.15
699.01	16652.91
699.14	16456.31
699.27	16741.85
699.40	16620.14
699.54	16322.90
699.67	16276.09
699.80	16306.51
699.94	16105.23
700.07	16044.37
700.20	16049.05
700.34	15950.75
700.47	16222.25
700.60	16304.17
700.73	16074.80
700.87	15878.19
701.00	15871.17
701.13	15742.44
701.26	15583.29
701.40	15456.90
701.53	15264.97
701.66	15492.01
701.79	15286.04
701.93	15309.44
702.06	14871.76
702.19	15433.49
702.32	15393.70
702.46	15061.35
702.59	15002.83
702.72	14953.68
702.85	14906.87
702.99	14750.06
703.12	14490.26
703.25	14504.30
703.38	14581.54
703.51	14476.21
703.65	14232.80
703.78	14485.58
703.91	14106.41
704.04	14118.11
704.17	14443.45
704.31	14211.73
704.44	13994.06
704.57	14108.75
704.70	13914.48
704.83	13951.93
704.96	13891.08
705.10	13944.91
705.23	13994.06
>>>>>End Processed Spectral Data<<<<<
