SpectraSuite Data File
++++++++++++++++++++++++++++++++++++
Date: Fri Oct 25 10:43:27 EDT 2013
User: price-jones
Dark Spectrum Present: No
Reference Spectrum Present: No
Number of Sampled Component Spectra: 1
Spectrometers: USB2+H05261
Integration Time (usec): 100000 (USB2+H05261)
Spectra Averaged: 1 (USB2+H05261)
Boxcar Smoothing: 0 (USB2+H05261)
Correct for Electrical Dark: No (USB2+H05261)
Strobe/Lamp Enabled: No (USB2+H05261)
Correct for Detector Non-linearity: No (USB2+H05261)
Correct for Stray Light: No (USB2+H05261)
Number of Pixels in Processed Spectrum: 2048
>>>>>Begin Processed Spectral Data<<<<<
365.73	156.82
365.92	156.82
366.12	156.82
366.32	11.70
366.52	0.00
366.72	121.71
366.91	53.83
367.11	16.38
367.31	4.68
367.51	2.34
367.70	0.00
367.90	84.26
368.10	88.94
368.30	0.00
368.49	77.24
368.69	65.54
368.89	77.24
369.09	32.77
369.28	0.00
369.48	49.15
369.68	95.96
369.87	163.84
370.07	23.41
370.27	140.43
370.47	156.82
370.66	353.42
370.86	416.62
371.06	386.19
371.25	468.11
371.45	482.15
371.65	505.56
371.84	444.70
372.04	449.38
372.24	470.45
372.44	489.17
372.63	531.30
372.83	470.45
373.03	430.66
373.22	496.19
373.42	564.07
373.62	540.66
373.81	545.34
374.01	596.84
374.21	557.05
374.40	594.50
374.60	585.13
374.79	510.24
374.99	554.71
375.19	594.50
375.38	557.05
375.58	535.98
375.78	582.79
375.97	617.90
376.17	692.80
376.37	552.37
376.56	699.82
376.76	624.92
376.95	587.47
377.15	564.07
377.35	606.20
377.54	678.76
377.74	624.92
377.93	613.22
378.13	617.90
378.33	631.94
378.52	631.94
378.72	683.44
378.91	606.20
379.11	608.54
379.31	620.24
379.50	634.29
379.70	641.31
379.89	664.71
380.09	645.99
380.28	617.90
380.48	730.25
380.68	755.99
380.87	667.05
381.07	671.73
381.26	683.44
381.46	692.80
381.65	727.91
381.85	699.82
382.04	547.69
382.24	610.88
382.43	678.76
382.63	741.95
382.83	706.84
383.02	660.03
383.22	774.72
383.41	688.12
383.61	765.36
383.80	816.85
384.00	746.63
384.19	755.99
384.39	772.38
384.58	828.55
384.78	814.51
384.97	713.86
385.17	732.59
385.36	784.08
385.56	772.38
385.75	830.89
385.95	779.40
386.14	830.89
386.34	795.78
386.53	758.33
386.72	823.87
386.92	858.98
387.11	777.06
387.31	863.66
387.50	816.85
387.70	931.53
387.89	847.27
388.09	926.85
388.28	791.10
388.48	840.25
388.67	866.00
388.86	868.34
389.06	922.17
389.25	931.53
389.45	924.51
389.64	1013.45
389.84	1034.52
390.03	992.39
390.22	1001.75
390.42	987.71
390.61	987.71
390.81	978.34
391.00	1055.58
391.19	1067.28
391.39	1090.69
391.58	1086.01
391.78	1107.07
391.97	980.68
392.16	1048.56
392.36	1048.56
392.55	1060.26
392.75	1039.20
392.94	943.24
393.13	924.51
393.33	964.30
393.52	1088.35
393.71	1064.94
393.91	1135.16
394.10	1060.26
394.29	1055.58
394.49	1142.18
394.68	1132.82
394.88	1165.59
395.07	1165.59
395.26	1146.86
395.46	1142.18
395.65	1291.98
395.84	1217.08
396.04	1303.68
396.23	1203.04
396.42	1097.71
396.62	1160.91
396.81	1188.99
397.00	1156.22
397.19	1266.23
397.39	1256.87
397.58	1327.08
397.77	1493.26
397.97	1355.17
398.16	1460.49
398.35	1343.47
398.55	1401.98
398.74	1371.55
398.93	1366.87
399.12	1495.60
399.32	1420.71
399.51	1554.12
399.70	1526.03
399.90	1516.67
400.09	1514.33
400.28	1575.18
400.47	1556.46
400.67	1572.84
400.86	1621.99
401.05	1645.40
401.24	1614.97
401.44	1692.21
401.63	1638.38
401.82	1739.02
402.01	1671.14
402.21	1624.33
402.40	1724.97
402.59	1652.42
402.78	1727.32
402.97	1739.02
403.17	1816.26
403.36	1767.10
403.55	1722.63
403.74	1860.73
403.93	1867.75
404.13	1802.21
404.32	1811.57
404.51	1916.90
404.70	1872.43
404.89	1816.26
405.09	1912.22
405.28	1977.75
405.47	1881.79
405.66	1933.28
405.85	2003.50
406.05	1919.24
406.24	1982.43
406.43	2045.63
406.62	2069.03
406.81	2097.12
407.00	2101.80
407.20	1970.73
407.39	2057.33
407.58	2045.63
407.77	2204.78
407.96	2200.10
408.15	2190.74
408.34	2249.25
408.54	2174.36
408.73	2267.98
408.92	2267.98
409.11	2246.91
409.30	2230.53
409.49	2267.98
409.68	2242.23
409.87	2321.81
410.07	2260.96
410.26	2429.48
410.45	2342.88
410.64	2485.65
410.83	2532.46
411.02	2445.86
411.21	2408.41
411.40	2490.33
411.59	2574.59
411.78	2595.65
411.98	2544.16
412.17	2607.36
412.36	2565.23
412.55	2661.19
412.74	2644.81
412.93	2747.79
413.12	2682.25
413.31	2803.96
413.50	2757.15
413.69	2754.81
413.88	2843.75
414.07	2878.86
414.26	2899.92
414.45	2951.42
414.64	2885.88
414.83	3082.49
415.02	2956.10
415.22	2953.76
415.41	3133.98
415.60	3061.42
415.79	3199.51
415.98	3290.79
416.17	3251.00
416.36	3159.72
416.55	3183.13
416.74	3229.94
416.93	3105.89
417.12	3173.77
417.31	3253.34
417.50	3353.99
417.69	3428.88
417.88	3410.16
418.07	3456.97
418.26	3262.71
418.45	3351.65
418.64	3494.42
418.83	3398.46
419.02	3461.65
419.21	3522.51
419.39	3475.70
419.58	3597.40
419.77	3552.93
419.96	3531.87
420.15	3559.95
420.34	3613.79
420.53	3599.74
420.72	3688.68
420.91	3831.46
421.10	3768.26
421.29	3852.52
421.48	3786.99
421.67	3829.12
421.86	3751.88
422.05	3751.88
422.24	3655.92
422.43	3775.28
422.61	3826.78
422.80	3775.28
422.99	3868.91
423.18	3934.44
423.37	4030.40
423.56	3805.71
423.75	3899.33
423.94	3831.46
424.13	3698.05
424.32	3684.00
424.50	3866.56
424.69	3843.16
424.88	3967.21
425.07	3733.15
425.26	3906.35
425.45	3786.99
425.64	3946.14
425.83	3873.59
426.01	4072.53
426.20	3988.27
426.39	3922.74
426.58	3969.55
426.77	3852.52
426.96	3983.59
427.15	3964.87
427.33	4067.85
427.52	3999.98
427.71	4163.81
427.90	4161.47
428.09	4184.88
428.28	4156.79
428.46	4044.45
428.65	4105.30
428.84	4145.09
429.03	4184.88
429.22	4081.89
429.40	4114.66
429.59	3971.89
429.78	3960.19
429.97	3681.66
430.16	3997.64
430.34	3925.08
430.53	3953.16
430.72	4107.64
430.91	4072.53
431.10	4304.25
431.28	4482.13
431.47	4559.36
431.66	4603.83
431.85	4416.59
432.03	4573.41
432.22	4629.58
432.41	4606.17
432.60	4531.28
432.79	4638.94
432.97	4678.73
433.16	4493.83
433.35	4622.56
433.54	4620.22
433.72	4690.43
433.91	4566.39
434.10	4683.41
434.28	4645.96
434.47	4770.01
434.66	4816.82
434.85	4968.96
435.03	4858.95
435.22	4889.38
435.41	4961.94
435.59	4999.38
435.78	5114.07
435.97	5146.84
436.16	4917.47
436.34	5111.73
436.53	4980.66
436.72	5238.12
436.90	5069.60
437.09	5006.41
437.28	5013.43
437.46	5151.52
437.65	5160.88
437.84	5107.05
438.02	5078.96
438.21	5081.30
438.40	5013.43
438.58	5235.78
438.77	5151.52
438.96	5350.46
439.14	5420.68
439.33	5474.51
439.52	5626.65
439.70	5469.83
439.89	5378.55
440.08	5657.07
440.26	5666.44
440.45	5598.56
440.63	5778.78
440.82	5731.97
441.01	5940.28
441.19	6104.12
441.38	5940.28
441.57	6076.03
441.75	6090.07
441.94	6218.80
442.12	6157.95
442.31	6209.44
442.50	6296.04
442.68	6008.16
442.87	6155.61
443.05	6244.55
443.24	6305.40
443.43	6310.08
443.61	6420.09
443.80	6588.61
443.98	6244.55
444.17	6155.61
444.35	6387.32
444.54	6483.28
444.73	6319.45
444.91	6424.77
445.10	6441.15
445.28	6394.34
445.47	6221.14
445.65	6193.06
445.84	6530.09
446.02	6590.95
446.21	6619.04
446.39	6394.34
446.58	6612.01
446.77	6502.01
446.95	6420.09
447.14	6670.53
447.32	6817.98
447.51	6534.78
447.69	6497.33
447.88	6527.75
448.06	6635.42
448.25	6679.89
448.43	6560.52
448.62	6637.76
448.80	6672.87
448.99	6796.92
449.17	6956.07
449.36	6775.85
449.54	6792.23
449.73	7009.90
449.91	7000.54
450.10	6993.52
450.28	7070.76
450.46	7089.48
450.65	7080.12
450.83	7084.80
451.02	7082.46
451.20	7183.10
451.39	6998.20
451.57	7075.44
451.76	7061.40
451.94	7091.82
452.13	7136.29
452.31	7150.34
452.49	6944.37
452.68	7014.59
452.86	7112.89
453.05	7119.91
453.23	7258.00
453.42	7349.28
453.60	7152.68
453.78	7318.86
453.97	7204.17
454.15	7293.11
454.34	7290.77
454.52	7506.10
454.70	7618.44
454.89	7676.96
455.07	7541.21
455.26	7616.10
455.44	7606.74
455.62	7536.52
455.81	7569.29
455.99	7712.07
456.17	7639.51
456.36	7676.96
456.54	7819.73
456.73	7683.98
456.91	8063.15
457.09	7901.65
457.28	7988.25
457.46	7864.20
457.64	7976.55
457.83	7999.95
458.01	7962.50
458.19	8205.92
458.38	7737.81
458.56	8205.92
458.74	8039.74
458.93	8086.55
459.11	8168.47
459.29	8273.79
459.48	8023.36
459.66	7988.25
459.84	8322.94
460.03	8451.67
460.21	8128.68
460.39	8538.27
460.57	8285.50
460.76	8365.07
460.94	8428.27
461.12	8533.59
461.31	8629.56
461.49	8437.63
461.67	8578.06
461.85	8568.70
462.04	8638.92
462.22	8837.86
462.40	8699.77
462.59	8819.14
462.77	8887.01
462.95	8997.02
463.13	8737.22
463.32	8723.18
463.50	8990.00
463.68	8807.44
463.86	9041.49
464.05	8711.47
464.23	8936.17
464.41	8858.93
464.59	8690.41
464.78	9085.96
464.96	8940.85
465.14	9067.24
465.32	9359.80
465.50	8912.76
465.69	9233.41
465.87	9015.74
466.05	9041.49
466.23	8971.27
466.41	8835.52
466.60	9153.84
466.78	9125.75
466.96	9198.31
467.14	9235.75
467.32	9261.50
467.51	9195.96
467.69	9172.56
467.87	9266.18
468.05	9441.72
468.23	9441.72
468.41	9256.82
468.60	9327.03
468.78	9425.34
468.96	9479.17
469.14	9476.83
469.32	9741.31
469.50	9479.17
469.69	9540.02
469.87	9570.45
470.05	9643.01
470.23	9717.90
470.41	9701.52
470.59	9703.86
470.77	9430.02
470.95	9977.70
471.14	9982.38
471.32	9879.40
471.50	10284.31
471.68	9980.04
471.86	10183.67
472.04	10305.38
472.22	10347.51
472.40	10061.96
472.58	10092.39
472.77	10218.78
472.95	10324.10
473.13	10607.31
473.31	10314.74
473.49	10406.02
473.67	10387.30
473.85	10778.17
474.03	10789.87
474.21	10864.77
474.39	10766.46
474.57	10895.19
474.75	11084.78
474.93	11002.86
475.12	10876.47
475.30	11302.45
475.48	11061.37
475.66	11232.23
475.84	11272.02
476.02	11145.63
476.20	11314.15
476.38	11559.91
476.56	11639.48
476.74	11573.95
476.92	11751.83
477.10	11595.01
477.28	11920.35
477.46	11971.84
477.64	12067.80
477.82	12039.72
478.00	12524.21
478.18	12404.84
478.36	12610.81
478.54	12533.57
478.72	12561.66
478.90	12716.13
479.08	12877.63
479.26	12791.03
479.44	12823.80
479.62	13118.70
479.80	12957.21
479.98	12898.69
480.16	13429.99
480.34	13439.36
480.52	13537.66
480.70	13270.84
480.88	13699.16
481.06	13584.47
481.24	13790.44
481.41	14071.30
481.59	14146.20
481.77	14263.22
481.95	14497.28
482.13	14429.40
482.31	14345.14
482.49	14560.47
482.67	14628.35
482.85	15037.94
483.03	15044.96
483.21	15211.14
483.39	15180.71
483.57	15030.92
483.74	15159.65
483.92	15377.32
484.10	15281.36
484.28	15772.87
484.46	15744.78
484.64	16156.72
484.82	15819.68
485.00	15981.18
485.18	16093.52
485.35	16521.84
485.53	15941.39
485.71	15847.77
485.89	16238.64
486.07	16379.07
486.25	16098.20
486.43	16833.13
486.61	16699.72
486.78	16980.59
486.96	17046.12
487.14	17509.55
487.32	17500.19
487.50	17659.34
487.68	17940.21
487.85	17685.09
488.03	18045.53
488.21	18218.73
488.39	18216.39
488.57	18033.83
488.75	18544.06
488.92	19066.00
489.10	18787.48
489.28	18913.87
489.46	19309.42
489.64	19419.42
489.81	19943.70
489.99	19723.69
490.17	19704.97
490.35	19917.96
490.53	20257.34
490.70	20362.66
490.88	20224.57
491.06	20379.04
491.24	20400.11
491.41	20280.74
491.59	20493.73
491.77	20383.73
491.95	20872.90
492.13	21245.04
492.30	21167.80
492.48	21214.62
492.66	21252.06
492.84	21446.33
493.01	21846.56
493.19	21778.68
493.37	22139.13
493.54	22043.17
493.72	22129.77
493.90	22183.60
494.08	22504.25
494.25	22724.26
494.43	23147.90
494.61	22986.40
494.79	22848.31
494.96	23002.78
495.14	22867.03
495.32	23524.72
495.49	23110.45
495.67	23491.96
495.85	23618.35
496.02	24027.94
496.20	23974.11
496.38	23962.40
496.55	24077.09
496.73	24531.15
496.91	24320.51
497.09	24503.07
497.26	24730.10
497.44	24950.11
497.62	24966.49
497.79	25013.31
497.97	24828.40
498.14	24907.98
498.32	25418.22
498.50	25106.93
498.67	25584.40
498.85	25603.12
499.03	25799.73
499.20	25603.12
499.38	25799.73
499.56	25668.66
499.73	26003.35
499.91	26094.63
500.08	26291.24
500.26	25898.03
500.44	26380.18
500.61	26396.56
500.79	26270.17
500.97	26183.57
501.14	26768.71
501.32	26670.40
501.49	26714.87
501.67	26527.63
501.84	27173.62
502.02	26808.50
502.20	27178.30
502.37	26932.54
502.55	27566.83
502.72	27594.92
502.90	27510.66
503.07	27133.83
503.25	27782.16
503.43	27552.79
503.60	27978.76
503.78	27803.22
503.95	28056.00
504.13	27903.87
504.30	28268.99
504.48	28217.50
504.65	28474.96
504.83	28414.10
505.01	28776.89
505.18	28730.08
505.36	29001.58
505.53	29188.82
505.71	29291.80
505.88	29191.16
506.06	29036.69
506.23	29446.28
506.41	28933.70
506.58	29383.09
506.76	29490.75
506.93	29532.88
507.11	29422.87
507.28	29586.71
507.46	29399.47
507.63	29516.50
507.81	29788.00
507.98	29736.51
508.16	29972.90
508.33	29890.98
508.50	30125.04
508.68	30169.51
508.85	30658.68
509.03	30677.40
509.20	30782.73
509.38	31042.53
509.55	30806.13
509.73	31026.14
509.90	30998.06
510.08	30611.87
510.25	30731.23
510.42	30993.37
510.60	31070.61
510.77	31381.90
510.95	31648.72
511.12	31349.14
511.30	31667.45
511.47	31798.52
511.64	31559.78
511.82	31899.16
511.99	31758.73
512.17	31894.48
512.34	31833.63
512.51	31929.59
512.69	32287.69
512.86	32182.37
513.04	32353.23
513.21	32348.54
513.38	32348.54
513.56	32280.67
513.73	32343.86
513.90	32470.25
514.08	32467.91
514.25	32601.32
514.43	32858.78
514.60	32828.35
514.77	33027.30
514.95	33172.41
515.12	33207.52
515.29	32800.27
515.47	33453.28
515.64	33961.17
515.81	33446.26
515.99	33319.87
516.16	33174.75
516.33	33628.82
516.51	33509.45
516.68	32795.59
516.85	32730.05
517.03	33294.12
517.20	33598.39
517.37	33792.65
517.54	33792.65
517.72	33579.67
517.89	33656.90
518.06	33317.53
518.24	33530.51
518.41	33853.51
518.58	34192.89
518.75	34089.90
518.93	34176.50
519.10	34656.31
519.27	34543.97
519.45	34607.16
519.62	34534.60
519.79	34855.26
519.96	35590.19
520.14	35044.84
520.31	34890.37
520.48	35367.84
520.65	34850.58
520.83	35388.90
521.00	35426.35
521.17	35416.99
521.34	35548.06
521.52	35725.94
521.69	35793.81
521.86	35866.37
522.03	35978.72
522.20	35941.27
522.38	36112.13
522.55	35852.33
522.72	35962.33
522.89	35749.34
523.07	36472.57
523.24	36081.70
523.41	36346.18
523.58	36301.71
523.75	36437.46
523.92	36868.12
524.10	36889.18
524.27	36711.30
524.44	36818.97
524.61	37118.56
524.78	36762.79
524.96	36605.98
525.13	36774.50
525.30	37364.31
525.47	37720.07
525.64	37027.28
525.81	37324.52
525.98	36699.60
526.16	36566.19
526.33	36676.19
526.50	37010.89
526.67	36804.92
526.84	37298.78
527.01	36957.06
527.18	37305.80
527.36	37659.22
527.53	37841.78
527.70	38330.95
527.87	37926.04
528.04	37804.33
528.21	37626.45
528.38	37940.08
528.55	38040.73
528.72	38370.74
528.89	38469.04
529.07	37993.92
529.24	38213.93
529.41	38017.32
529.58	38412.87
529.75	38284.14
529.92	38880.98
530.09	38667.99
530.26	38684.37
530.43	38909.07
530.60	38569.69
530.77	38574.37
530.94	38885.66
531.11	38958.22
531.28	39082.27
531.46	38927.79
531.63	39044.82
531.80	38902.04
531.97	38969.92
532.14	38909.07
532.31	38614.16
532.48	38787.36
532.65	39150.14
532.82	38766.29
532.99	39470.79
533.16	39377.17
533.33	39449.73
533.50	39739.96
533.67	39447.39
533.84	39384.19
534.01	39601.86
534.18	39976.35
534.35	39800.81
534.52	39934.22
534.69	39824.22
534.86	39885.07
535.03	39426.32
535.20	39906.13
535.37	40332.11
535.54	40308.71
535.71	40137.85
535.88	39952.94
536.05	40032.52
536.22	40404.67
536.38	40308.71
536.55	40201.04
536.72	40062.95
536.89	39751.66
537.06	40058.27
537.23	40608.29
537.40	40612.98
537.57	40500.63
537.74	40559.14
537.91	41170.02
538.08	40449.14
538.25	40428.07
538.42	40495.95
538.59	40959.38
538.75	40783.83
538.92	40945.33
539.09	41326.84
539.26	41148.96
539.43	40900.86
539.60	41092.79
539.77	40837.67
539.94	41167.68
540.11	41029.59
540.28	40648.08
540.44	40879.80
540.61	41041.29
540.78	41013.21
540.95	40598.93
541.12	41198.11
541.29	40978.10
541.46	40643.40
541.62	41216.83
541.79	41469.61
541.96	40624.68
542.13	41366.63
542.30	41535.15
542.47	41200.45
542.63	41425.14
542.80	41574.94
542.97	42218.58
543.14	42096.88
543.31	42003.25
543.48	42101.56
543.64	41827.71
543.81	42010.28
543.98	42340.29
544.15	42368.38
544.32	42686.69
544.48	42684.35
544.65	42131.98
544.82	42646.90
544.99	42316.89
545.16	42197.52
545.32	42796.70
545.49	42834.14
545.66	42899.68
545.83	42253.69
546.00	42735.84
546.16	42330.93
546.33	42185.82
546.50	42258.37
546.67	42684.35
546.83	42553.28
547.00	42726.48
547.17	42916.06
547.34	42483.06
547.50	43009.68
547.67	42972.24
547.84	43084.58
548.00	43222.67
548.17	43262.46
548.34	43203.95
548.51	42822.44
548.67	43295.23
548.84	43089.26
549.01	43299.91
549.18	43096.28
549.34	42855.21
549.51	43299.91
549.68	43569.07
549.84	43000.32
550.01	43274.16
550.18	43496.52
550.34	43868.66
550.51	43131.39
550.68	43318.64
550.84	42876.27
551.01	43255.44
551.18	43311.61
551.34	43306.93
551.51	43276.51
551.68	43835.89
551.84	43468.43
552.01	43133.73
552.18	43622.90
552.34	43217.99
552.51	43606.52
552.68	43601.84
552.84	43934.20
553.01	43983.35
553.18	43782.06
553.34	43803.13
553.51	43934.20
553.67	44311.02
553.84	44346.13
554.01	44322.72
554.17	44416.35
554.34	44170.59
554.51	44385.92
554.67	44161.23
554.84	44107.40
555.00	43906.11
555.17	43768.02
555.33	43927.17
555.50	44360.17
555.67	44165.91
555.83	44009.09
556.00	44175.27
556.16	44509.97
556.33	44137.82
556.50	44091.01
556.66	44322.72
556.83	44067.61
556.99	44175.27
557.16	44179.95
557.32	44584.86
557.49	44610.61
557.65	44641.04
557.82	44437.41
557.98	44399.96
558.15	44959.35
558.32	44430.39
558.48	44336.77
558.65	44243.15
558.81	44161.23
558.98	44343.79
559.14	44957.01
559.31	44083.99
559.47	44500.61
559.64	44280.60
559.80	44687.85
559.97	44896.16
560.13	44332.09
560.30	44582.52
560.46	44505.29
560.63	44889.13
560.79	44961.69
560.96	45198.09
561.12	44783.81
561.29	45134.89
561.45	44809.56
561.61	45155.96
561.78	44992.12
561.94	44903.18
562.11	44456.14
562.27	44442.09
562.44	44767.43
562.60	45478.95
562.77	45111.49
562.93	44781.47
563.10	45680.24
563.26	45205.11
563.42	45104.46
563.59	44985.10
563.75	44428.05
563.92	45488.31
564.08	44828.28
564.24	45151.27
564.41	44957.01
564.57	44802.53
564.74	45228.51
564.90	45170.00
565.07	45478.95
565.23	45207.45
565.39	45062.33
565.56	45048.29
565.72	44744.02
565.88	44832.96
566.05	45598.32
566.21	45216.81
566.38	44652.74
566.54	45373.63
566.70	45701.30
566.87	45488.31
567.03	45715.34
567.19	45418.10
567.36	45333.84
567.52	45467.25
567.68	45523.42
567.85	45387.67
568.01	45233.19
568.17	45181.70
568.34	45766.84
568.50	45537.46
568.66	44617.63
568.83	45439.16
568.99	45401.71
569.15	44921.90
569.32	45130.21
569.48	45146.59
569.64	45860.46
569.81	45427.46
569.97	45301.07
570.13	45352.56
570.30	44591.89
570.46	44900.84
570.62	44751.04
570.78	44947.65
570.95	44889.13
571.11	45155.96
571.27	45518.74
571.43	45223.83
571.60	45474.27
571.76	45322.13
571.92	45207.45
572.09	45603.00
572.25	45441.50
572.41	45572.57
572.57	45380.65
572.74	45624.06
572.90	45488.31
573.06	45790.24
573.22	45659.17
573.38	45654.49
573.55	45275.32
573.71	45998.55
573.87	45797.26
574.03	45177.02
574.20	45621.72
574.36	45209.79
574.52	45521.08
574.68	45591.30
574.84	45565.55
575.01	45221.49
575.17	45289.37
575.33	45504.70
575.49	45621.72
575.65	45516.40
575.82	45579.59
575.98	45296.39
576.14	45790.24
576.30	45474.27
576.46	45640.45
576.62	45343.20
576.79	45059.99
576.95	45518.74
577.11	45385.33
577.27	45408.73
577.43	45521.08
577.59	45523.42
577.75	45074.04
577.92	45020.20
578.08	45095.10
578.24	45078.72
578.40	45474.27
578.56	45507.04
578.72	45418.10
578.88	45617.04
579.04	45785.56
579.21	45160.64
579.37	45893.22
579.53	45507.04
579.69	45422.78
579.85	45514.06
580.01	45734.07
580.17	45385.33
580.33	45624.06
580.49	45113.83
580.65	45478.95
580.82	45556.19
580.98	45682.58
581.14	45474.27
581.30	45792.58
581.46	45673.21
581.62	45406.39
581.78	45708.32
581.94	46075.79
582.10	45986.85
582.26	45998.55
582.42	45378.31
582.58	45675.55
582.74	45624.06
582.90	45397.03
583.06	45574.91
583.22	45736.41
583.38	45729.39
583.54	45904.93
583.70	45968.12
583.86	45570.23
584.02	45975.14
584.18	45881.52
584.34	45846.41
584.50	45668.53
584.66	45635.77
584.82	45771.52
584.98	46071.10
585.14	45722.37
585.30	45453.20
585.46	45673.21
585.62	45291.71
585.78	45628.74
585.94	45404.05
586.10	45408.73
586.26	45617.04
586.42	46014.93
586.58	45769.18
586.74	45570.23
586.90	45591.30
587.06	45460.23
587.22	45848.75
587.38	45336.18
587.54	45958.76
587.70	45916.63
587.86	45572.57
588.02	45357.24
588.18	45808.96
588.34	45551.51
588.49	45172.34
588.65	45062.33
588.81	45272.98
588.97	44921.90
589.13	45092.76
589.29	45769.18
589.45	45432.14
589.61	45284.68
589.77	45815.99
589.93	45666.19
590.08	45619.38
590.24	45633.42
590.40	46103.87
590.56	45797.26
590.72	45769.18
590.88	45832.37
591.04	45977.48
591.20	46096.85
591.35	46272.39
591.51	46176.43
591.67	45710.66
591.83	45514.06
591.99	45511.72
592.15	45638.11
592.31	45808.96
592.46	45551.51
592.62	45998.55
592.78	45710.66
592.94	45991.53
593.10	45846.41
593.26	46291.12
593.41	45715.34
593.57	45652.15
593.73	45464.91
593.89	45904.93
594.05	46305.16
594.20	46036.00
594.36	45787.90
594.52	45764.49
594.68	45270.64
594.84	45724.71
594.99	45647.47
595.15	45612.36
595.31	45940.04
595.47	45996.21
595.62	46138.98
595.78	46068.76
595.94	45764.49
596.10	45909.61
596.25	45687.26
596.41	45879.18
596.57	45972.80
596.73	45626.40
596.88	45797.26
597.04	45645.13
597.20	45762.15
597.36	45755.13
597.51	46043.02
597.67	45839.39
597.83	45839.39
597.99	46480.70
598.14	45736.41
598.30	45888.54
598.46	45610.02
598.61	46096.85
598.77	45886.20
598.93	46036.00
599.09	45942.38
599.24	46059.40
599.40	45865.14
599.56	45675.55
599.71	45757.47
599.87	46141.32
600.03	45551.51
600.18	45584.27
600.34	46073.45
600.50	45862.80
600.65	45713.00
600.81	45883.86
600.97	46131.96
601.12	46028.98
601.28	45682.58
601.44	45343.20
601.59	46136.64
601.75	45411.07
601.91	45701.30
602.06	45542.14
602.22	45448.52
602.37	45872.16
602.53	45951.74
602.69	45862.80
602.84	45799.60
603.00	46012.59
603.16	45766.84
603.31	45633.42
603.47	46134.30
603.62	45682.58
603.78	45848.75
603.94	46094.51
604.09	46185.79
604.25	45834.71
604.40	45923.65
604.56	45794.92
604.71	46202.18
604.87	45675.55
605.03	46045.36
605.18	45792.58
605.34	45514.06
605.49	45268.30
605.65	45759.81
605.80	46117.92
605.96	45357.24
606.12	45413.41
606.27	45837.05
606.43	45219.15
606.58	45701.30
606.74	45748.11
606.89	45443.84
607.05	45748.11
607.20	45794.92
607.36	45411.07
607.51	45869.82
607.67	45703.64
607.82	45923.65
607.98	45460.23
608.13	45567.89
608.29	45118.51
608.44	45228.51
608.60	45404.05
608.75	45556.19
608.91	45624.06
609.06	45371.28
609.22	45516.40
609.37	45422.78
609.53	45818.33
609.68	45478.95
609.84	45298.73
609.99	45378.31
610.15	45067.02
610.30	45074.04
610.46	44858.71
610.61	45511.72
610.76	45233.19
610.92	45698.96
611.07	45570.23
611.23	45460.23
611.38	45514.06
611.54	45127.87
611.69	45258.94
611.84	44650.40
612.00	45155.96
612.15	44811.90
612.31	45474.27
612.46	44893.82
612.62	45474.27
612.77	44666.78
612.92	45553.85
613.08	44910.20
613.23	44772.11
613.39	44456.14
613.54	44486.56
613.69	44601.25
613.85	44472.52
614.00	44701.89
614.15	44524.01
614.31	44720.62
614.46	45237.87
614.62	44268.89
614.77	44692.53
614.92	44753.38
615.08	44158.89
615.23	44561.46
615.38	44538.05
615.54	44369.54
615.69	44617.63
615.84	44634.02
616.00	44540.39
616.15	44608.27
616.30	44313.36
616.46	44402.30
616.61	44371.88
616.76	44516.99
616.92	44011.43
617.07	44189.31
617.22	44067.61
617.37	44030.16
617.53	44531.03
617.68	44296.98
617.83	44208.04
617.99	44212.72
618.14	44271.23
618.29	43716.53
618.45	43681.42
618.60	43718.87
618.75	43210.97
618.90	43608.86
619.06	43599.50
619.21	43957.60
619.36	44229.10
619.51	43491.83
619.67	43819.51
619.82	43803.13
619.97	43959.94
620.12	43157.14
620.28	43346.72
620.43	43704.82
620.58	43732.91
620.73	43592.48
620.89	43473.11
621.04	43871.00
621.19	43810.15
621.34	43559.71
621.49	43782.06
621.65	43100.97
621.80	43934.20
621.95	43459.07
622.10	43412.26
622.25	43566.73
622.41	43655.67
622.56	43426.30
622.71	43917.81
622.86	43398.21
623.01	43227.35
623.16	43580.78
623.32	43332.68
623.47	43164.16
623.62	43147.78
623.77	43143.09
623.92	43456.73
624.07	42883.30
624.23	42848.19
624.38	42747.54
624.53	43173.52
624.68	43161.82
624.83	43042.45
624.98	43187.56
625.13	42251.35
625.29	42721.80
625.44	42768.61
625.59	42337.95
625.74	42698.39
625.89	42749.88
626.04	42288.80
626.19	42731.16
626.34	42768.61
626.49	42829.46
626.65	42677.33
626.80	42663.28
626.95	42171.77
627.10	42164.75
627.25	42663.28
627.40	41949.42
627.55	41940.06
627.70	41949.42
627.85	42361.36
628.00	42171.77
628.15	42646.90
628.30	42595.41
628.45	42501.79
628.60	42333.27
628.76	42359.02
628.91	42162.41
629.06	42103.90
629.21	42206.88
629.36	41813.67
629.51	41813.67
629.66	41387.69
629.81	41532.81
629.96	41935.38
630.11	41963.46
630.26	41954.10
630.41	42340.29
630.56	41792.61
630.71	42031.34
630.86	41628.77
631.01	41848.78
631.16	41820.69
631.31	41336.20
631.46	41212.15
631.61	41783.24
631.76	41968.15
631.91	41956.44
632.06	41972.83
632.21	41808.99
632.36	41993.89
632.51	41109.17
632.66	41621.75
632.81	41443.87
632.96	41310.46
633.10	41528.13
633.25	41525.78
633.40	41502.38
633.55	41221.52
633.70	41443.87
633.85	41223.86
634.00	41160.66
634.15	41605.36
634.30	41181.73
634.45	40886.82
634.60	40912.56
634.75	41062.36
634.90	41137.26
635.05	41495.36
635.19	40800.22
635.34	41216.83
635.49	40985.12
635.64	40975.76
635.79	40905.54
635.94	41153.64
636.09	40617.66
636.24	40854.05
636.39	40233.81
636.53	40795.54
636.68	40996.82
636.83	40453.82
636.98	40957.03
637.13	40374.24
637.28	40907.88
637.43	40865.75
637.57	41212.15
637.72	40809.58
637.87	40470.20
638.02	40467.86
638.17	40690.21
638.32	40439.78
638.46	40519.35
638.61	40201.04
638.76	40250.19
638.91	39936.56
639.06	40697.24
639.20	40582.55
639.35	40348.50
639.50	40095.72
639.65	40350.84
639.80	40154.23
639.94	40437.44
640.09	40055.93
640.24	39997.41
640.39	39845.28
640.54	39896.77
640.68	40051.25
640.83	39969.33
640.98	40037.20
641.13	39856.98
641.27	39950.60
641.42	39356.11
641.57	39672.08
641.72	39997.41
641.86	39709.53
642.01	39302.28
642.16	39868.69
642.31	39840.60
642.45	40098.06
642.60	39524.63
642.75	39606.55
642.90	40247.85
643.04	39526.97
643.19	39800.81
643.34	39496.54
643.48	39864.00
643.63	39756.34
643.78	39234.40
643.93	39171.21
644.07	39171.21
644.22	39023.75
644.37	39098.65
644.51	39302.28
644.66	39761.02
644.81	39512.92
644.95	39555.05
645.10	39182.91
645.25	39587.82
645.39	39339.72
645.54	39260.15
645.69	39313.98
645.83	39028.43
645.98	39306.96
646.13	39161.84
646.27	39035.45
646.42	38733.53
646.57	38892.68
646.71	39054.18
646.86	39445.05
647.00	39440.37
647.15	38630.54
647.30	38946.51
647.44	38969.92
647.59	39175.89
647.74	38183.50
647.88	38583.73
648.03	38513.52
648.17	38696.08
648.32	38803.74
648.47	38686.71
648.61	38366.06
648.76	38841.19
648.90	38415.21
649.05	39023.75
649.20	38738.21
649.34	38579.05
649.49	38038.39
649.63	38600.12
649.78	38366.06
649.92	38588.41
650.07	38600.12
650.21	38204.56
650.36	38731.18
650.51	38455.00
650.65	38752.25
650.80	38417.55
650.94	38602.46
651.09	38089.88
651.23	38110.94
651.38	37867.53
651.52	37989.24
651.67	37797.31
651.81	37956.47
651.96	37858.17
652.10	38326.27
652.25	37694.33
652.39	38337.98
652.54	38218.61
652.68	37862.85
652.83	37862.85
652.97	38368.40
653.12	38368.40
653.26	37500.06
653.41	37998.60
653.55	37727.10
653.70	37357.29
653.84	37860.51
653.99	37392.40
654.13	37116.22
654.27	38050.09
654.42	37708.37
654.56	37366.65
654.71	37633.47
654.85	37776.25
655.00	37715.39
655.14	37787.95
655.29	37364.31
655.43	37244.94
655.57	37277.71
655.72	37041.32
655.86	37095.15
656.01	37172.39
656.15	36875.14
656.30	36765.14
656.44	36863.44
656.58	36957.06
656.73	36739.39
656.87	37034.30
657.01	36376.61
657.16	36556.83
657.30	36510.02
657.45	36514.70
657.59	37050.68
657.73	36744.07
657.88	37118.56
658.02	37109.19
658.16	36950.04
658.31	37113.87
658.45	36781.52
658.60	36797.90
658.74	36868.12
658.88	36968.76
659.03	37083.45
659.17	36472.57
659.31	36346.18
659.46	36463.21
659.60	36318.09
659.74	36582.57
659.89	36018.50
660.03	36109.78
660.17	36402.35
660.32	36507.68
660.46	36156.60
660.60	36126.17
660.74	36077.02
660.89	36027.87
661.03	36278.30
661.17	35704.87
661.32	35517.63
661.46	35974.03
661.60	35627.63
661.74	35447.41
661.89	35562.10
662.03	36243.20
662.17	35424.01
662.31	35473.16
662.46	36243.20
662.60	35786.79
662.74	35735.30
662.88	35524.65
663.03	34925.47
663.17	35491.88
663.31	34820.15
663.45	35339.75
663.60	35342.09
663.74	35204.00
663.88	35248.47
664.02	34983.99
664.17	35597.21
664.31	34883.34
664.45	34747.59
664.59	35019.10
664.73	34501.84
664.88	34731.21
665.02	34717.17
665.16	34218.63
665.30	34424.60
665.44	34258.42
665.59	34354.38
665.73	34761.64
665.87	34415.24
666.01	34134.37
666.15	34518.22
666.29	34630.57
666.44	34146.08
666.58	34368.43
666.72	33914.36
666.86	33942.45
667.00	34265.44
667.14	33617.11
667.28	34005.64
667.43	34071.18
667.57	34120.33
667.71	33961.17
667.85	33661.58
667.99	34199.91
668.13	33909.68
668.27	33469.66
668.41	33783.29
668.56	33273.06
668.70	33013.26
668.84	32973.47
668.98	33450.94
669.12	33624.14
669.26	33141.99
669.40	32891.55
669.54	32994.53
669.68	33174.75
669.82	32643.45
669.96	32912.61
670.10	32664.52
670.25	32996.87
670.39	32704.31
670.53	32556.85
670.67	32224.50
670.81	32161.30
670.95	32257.26
671.09	32226.84
671.23	32301.73
671.37	32245.56
671.51	32339.18
671.65	32142.58
671.79	32130.87
671.93	31985.76
672.07	31920.23
672.21	31908.52
672.35	31721.28
672.49	31587.87
672.63	31873.42
672.77	31342.11
672.91	32065.34
673.05	31751.71
673.19	31630.00
673.33	31199.34
673.47	31269.56
673.61	31304.67
673.75	30923.16
673.89	31028.48
674.03	31068.27
674.17	31129.12
674.31	31222.75
674.45	31035.50
674.59	31234.45
674.73	31075.29
674.87	30845.92
675.01	30679.74
675.15	30754.64
675.29	30604.84
675.43	30583.78
675.56	30939.54
675.70	30684.42
675.84	30075.88
675.98	29439.26
676.12	29780.98
676.26	30129.72
676.40	30485.48
676.54	29776.30
676.68	29874.60
676.82	29532.88
676.96	29696.72
677.10	29429.90
677.23	29692.04
677.37	29406.49
677.51	29195.84
677.65	29200.52
677.79	28732.42
677.93	28910.30
678.07	28814.34
678.21	28641.14
678.34	28765.18
678.48	28383.68
678.62	27936.63
678.76	28163.67
678.90	27789.18
679.04	28432.83
679.18	27796.20
679.31	27711.94
679.45	27618.32
679.59	27946.00
679.73	27868.76
679.87	27828.97
680.00	27580.87
680.14	27498.95
680.28	27470.87
680.42	27236.81
680.56	27063.61
680.70	26789.77
680.83	27117.45
680.97	27056.59
681.11	27178.30
681.25	27199.37
681.39	26848.29
681.52	26939.57
681.66	26871.69
681.80	26838.92
681.94	26342.73
682.07	26094.63
682.21	26602.53
682.35	26281.88
682.49	26286.56
682.62	26288.90
682.76	25806.75
682.90	25816.11
683.04	25986.97
683.17	25631.21
683.31	25467.37
683.45	25443.96
683.59	25373.75
683.72	25088.20
683.86	25577.37
684.00	24999.26
684.13	25057.78
684.27	24753.51
684.41	24854.15
684.55	25039.05
684.68	24503.07
684.82	24659.88
684.96	24542.86
685.09	24648.18
685.23	24765.21
685.37	24372.00
685.50	24271.36
685.64	24140.29
685.78	24369.66
685.91	23782.18
686.05	24079.43
686.19	23403.02
686.32	23630.05
686.46	23335.14
686.60	23098.75
686.73	22813.20
686.87	23300.03
687.01	22974.70
687.14	22810.86
687.28	22892.78
687.42	22647.02
687.55	22857.67
687.69	22885.76
687.82	22787.46
687.96	22611.92
688.10	22345.09
688.23	22434.03
688.37	22270.20
688.50	22431.69
688.64	22288.92
688.78	22295.94
688.91	21872.31
689.05	21998.70
689.18	21799.75
689.32	21635.91
689.46	21722.51
689.59	21909.75
689.73	21972.95
689.86	21446.33
690.00	21411.22
690.13	21418.24
690.27	21083.55
690.41	21116.31
690.54	20868.22
690.68	21046.10
690.81	20847.15
690.95	20795.66
691.08	20863.54
691.22	21027.37
691.35	20938.43
691.49	20833.11
691.62	20655.23
691.76	20512.46
691.89	20116.90
692.03	20357.98
692.16	20189.46
692.30	20322.87
692.43	20105.20
692.57	20219.89
692.70	19992.86
692.84	19992.86
692.97	19901.58
693.11	19470.92
693.24	19648.80
693.38	19578.58
693.51	19503.68
693.65	19403.04
693.78	19667.52
693.92	19168.99
694.05	19173.67
694.19	19176.01
694.32	19208.78
694.45	19300.06
694.59	19066.00
694.72	18707.90
694.86	18731.31
694.99	18319.37
695.13	18551.09
695.26	18422.36
695.39	18197.67
695.53	18375.55
695.66	18384.91
695.80	18211.71
695.93	18078.30
696.07	18082.98
696.20	18059.57
696.33	18317.03
696.47	17888.71
696.60	17795.09
696.73	17678.07
696.87	17675.73
697.00	17511.89
697.14	17348.05
697.27	17469.76
697.40	17565.72
697.54	17207.62
697.67	17090.59
697.80	17221.66
697.94	17011.01
698.07	16893.99
698.21	16844.84
698.34	17006.33
698.47	17018.04
698.61	16791.00
698.74	16489.07
698.87	16601.42
699.01	16329.92
699.14	16348.64
699.27	16100.55
699.40	16226.93
699.54	16006.92
699.67	16229.27
699.80	15756.49
699.94	15840.75
700.07	16156.72
700.20	15592.65
700.34	15822.02
700.47	15880.53
700.60	15697.97
700.73	15957.77
700.87	15414.77
701.00	15536.48
701.13	15393.70
701.26	15257.95
701.40	15204.12
701.53	15037.94
701.66	15012.20
701.79	14958.36
701.93	14932.62
702.06	14693.88
702.19	14700.90
702.32	14712.61
702.46	14855.38
702.59	14789.85
702.72	14682.18
702.85	14520.68
702.99	14483.24
703.12	14314.72
703.25	13994.06
703.38	14295.99
703.51	14288.97
703.65	14155.56
703.78	13841.93
703.91	13827.88
704.04	13872.36
704.17	13930.87
704.31	13694.47
704.44	13542.34
704.57	13748.31
704.70	13282.54
704.83	13570.43
704.96	13701.50
705.10	13549.36
705.23	13532.98
>>>>>End Processed Spectral Data<<<<<
