SpectraSuite Data File
++++++++++++++++++++++++++++++++++++
Date: Fri Oct 25 11:34:09 EDT 2013
User: price-jones
Dark Spectrum Present: No
Reference Spectrum Present: No
Number of Sampled Component Spectra: 1
Spectrometers: USB2+H05261
Integration Time (usec): 100000 (USB2+H05261)
Spectra Averaged: 1 (USB2+H05261)
Boxcar Smoothing: 0 (USB2+H05261)
Correct for Electrical Dark: No (USB2+H05261)
Strobe/Lamp Enabled: No (USB2+H05261)
Correct for Detector Non-linearity: No (USB2+H05261)
Correct for Stray Light: No (USB2+H05261)
Number of Pixels in Processed Spectrum: 2048
>>>>>Begin Processed Spectral Data<<<<<
365.73	220.01
365.92	220.01
366.12	220.01
366.32	191.92
366.52	212.99
366.72	161.50
366.91	133.41
367.11	145.11
367.31	234.05
367.51	138.09
367.70	212.99
367.90	152.13
368.10	184.90
368.30	161.50
368.49	184.90
368.69	201.29
368.89	156.82
369.09	229.37
369.28	241.08
369.48	177.88
369.68	198.95
369.87	198.95
370.07	301.93
370.27	276.18
370.47	294.91
370.66	449.38
370.86	540.66
371.06	533.64
371.25	585.13
371.45	557.05
371.65	507.90
371.84	517.26
372.04	545.34
372.24	620.24
372.44	610.88
372.63	540.66
372.83	571.09
373.03	643.65
373.22	631.94
373.42	606.20
373.62	561.73
373.81	660.03
374.01	671.73
374.21	671.73
374.40	622.58
374.60	690.46
374.79	610.88
374.99	704.50
375.19	706.84
375.38	692.80
375.58	608.54
375.78	683.44
375.97	657.69
376.17	732.59
376.37	676.41
376.56	765.36
376.76	655.35
376.95	681.10
377.15	713.86
377.35	653.01
377.54	727.91
377.74	657.69
377.93	706.84
378.13	702.16
378.33	643.65
378.52	690.46
378.72	660.03
378.91	786.42
379.11	765.36
379.31	734.93
379.50	718.54
379.70	660.03
379.89	727.91
380.09	636.63
380.28	678.76
380.48	713.86
380.68	755.99
380.87	690.46
381.07	699.82
381.26	716.20
381.46	732.59
381.65	760.67
381.85	697.48
382.04	772.38
382.24	748.97
382.43	758.33
382.63	723.23
382.83	753.65
383.02	816.85
383.22	791.10
383.41	760.67
383.61	734.93
383.80	814.51
384.00	653.01
384.19	847.27
384.39	755.99
384.58	800.46
384.78	748.97
384.97	833.23
385.17	812.17
385.36	873.02
385.56	786.42
385.75	788.76
385.95	723.23
386.14	933.87
386.34	866.00
386.53	896.43
386.72	788.76
386.92	882.38
387.11	905.79
387.31	905.79
387.50	861.32
387.70	833.23
387.89	814.51
388.09	894.08
388.28	922.17
388.48	931.53
388.67	940.90
388.86	947.92
389.06	936.21
389.25	980.68
389.45	938.55
389.64	866.00
389.84	908.13
390.03	983.02
390.22	889.40
390.42	943.24
390.61	964.30
390.81	964.30
391.00	978.34
391.19	1069.62
391.39	898.77
391.58	1083.67
391.78	997.07
391.97	1029.84
392.16	992.39
392.36	1071.97
392.55	1069.62
392.75	1046.22
392.94	933.87
393.13	1046.22
393.33	1029.84
393.52	1074.31
393.71	983.02
393.91	1025.15
394.10	1067.28
394.29	1186.65
394.49	1057.92
394.68	1100.05
394.88	1090.69
395.07	1123.46
395.26	1104.73
395.46	1132.82
395.65	1109.41
395.84	1172.61
396.04	1186.65
396.23	1032.18
396.42	1186.65
396.62	1224.10
396.81	1196.01
397.00	1153.88
397.19	1177.29
397.39	1259.21
397.58	1212.40
397.77	1090.69
397.97	1266.23
398.16	1228.78
398.35	1214.74
398.55	1322.40
398.74	1350.49
398.93	1345.81
399.12	1242.82
399.32	1310.70
399.51	1301.34
399.70	1331.76
399.90	1214.74
400.09	1366.87
400.28	1378.58
400.47	1469.86
400.67	1329.42
400.86	1369.21
401.05	1394.96
401.24	1313.04
401.44	1341.13
401.63	1465.18
401.82	1437.09
402.01	1453.47
402.21	1420.71
402.40	1462.83
402.59	1411.34
402.78	1418.36
402.97	1427.73
403.17	1385.60
403.36	1500.28
403.55	1600.93
403.74	1624.33
403.93	1610.29
404.13	1514.33
404.32	1563.48
404.51	1593.90
404.70	1687.53
404.89	1621.99
405.09	1612.63
405.28	1591.56
405.47	1710.93
405.66	1624.33
405.85	1652.42
406.05	1734.34
406.24	1593.90
406.43	1771.79
406.62	1832.64
406.81	1813.92
407.00	1661.78
407.20	1675.82
407.39	1776.47
407.58	1755.40
407.77	1703.91
407.96	1755.40
408.15	1849.02
408.34	1799.87
408.54	1891.15
408.73	1954.35
408.92	1886.47
409.11	1994.14
409.30	1977.75
409.49	1856.04
409.68	1942.64
409.87	1956.69
410.07	1982.43
410.26	2047.97
410.45	2069.03
410.64	2038.61
410.83	2066.69
411.02	2069.03
411.21	2024.56
411.40	2043.29
411.59	2054.99
411.78	2064.35
411.98	2139.25
412.17	2127.55
412.36	2202.44
412.55	2235.21
412.74	2303.09
412.93	2272.66
413.12	2326.49
413.31	2317.13
413.50	2282.02
413.69	2387.35
413.88	2406.07
414.07	2504.37
414.26	2466.92
414.45	2476.29
414.64	2525.44
414.83	2483.31
415.02	2495.01
415.22	2651.83
415.41	2513.74
415.60	2628.42
415.79	2600.34
415.98	2691.62
416.17	2647.15
416.36	2724.38
416.55	2656.51
416.74	2665.87
416.93	2759.49
417.12	2825.03
417.31	2806.30
417.50	2846.09
417.69	2899.92
417.88	2949.08
418.07	2792.26
418.26	2836.73
418.45	2993.55
418.64	3073.12
418.83	3042.70
419.02	2913.97
419.21	2967.80
419.39	2939.71
419.58	3103.55
419.77	3016.95
419.96	3042.70
420.15	3105.89
420.34	3169.09
420.53	3054.40
420.72	3241.64
420.91	3136.32
421.10	3138.66
421.29	3173.77
421.48	3173.77
421.67	3089.51
421.86	3187.81
422.05	3272.07
422.24	3178.45
422.43	3297.81
422.61	3328.24
422.80	3351.65
422.99	3290.79
423.18	3461.65
423.37	3471.01
423.56	3297.81
423.75	3272.07
423.94	3295.47
424.13	3112.91
424.32	3267.39
424.50	3372.71
424.69	3517.83
424.88	3424.20
425.07	3286.11
425.26	3346.97
425.45	3311.86
425.64	3325.90
425.83	3288.45
426.01	3442.93
426.20	3466.33
426.39	3461.65
426.58	3323.56
426.77	3421.86
426.96	3447.61
427.15	3424.20
427.33	3414.84
427.52	3339.94
427.71	3524.85
427.90	3475.70
428.09	3492.08
428.28	3520.17
428.46	3569.32
428.65	3583.36
428.84	3698.05
429.03	3747.20
429.22	3611.45
429.40	3777.62
429.59	3737.84
429.78	3616.13
429.97	3606.77
430.16	3742.52
430.34	3716.77
430.53	3798.69
430.72	3894.65
430.91	3782.31
431.10	3714.43
431.28	3988.27
431.47	3894.65
431.66	3918.06
431.85	3892.31
432.03	3885.29
432.22	4007.00
432.41	4060.83
432.60	4060.83
432.79	4051.47
432.97	4063.17
433.16	4004.66
433.35	4056.15
433.54	4023.38
433.72	4168.49
433.91	3995.29
434.10	4051.47
434.28	4074.87
434.47	4133.39
434.66	4222.33
434.85	4219.99
435.03	4259.78
435.22	4238.71
435.41	4395.53
435.59	4142.75
435.78	4250.41
435.97	4287.86
436.16	4287.86
436.34	4257.43
436.53	4341.69
436.72	4423.61
436.90	4360.42
437.09	4322.97
437.28	4362.76
437.46	4535.96
437.65	4512.55
437.84	4456.38
438.02	4416.59
438.21	4592.13
438.40	4259.78
438.58	4657.67
438.77	4603.83
438.96	4667.03
439.14	4807.46
439.33	4753.63
439.52	4788.74
439.70	4748.95
439.89	4814.48
440.08	4926.83
440.26	4840.23
440.45	4908.10
440.63	4877.68
440.82	5041.51
441.01	5041.51
441.19	4973.64
441.38	5046.20
441.57	5006.41
441.75	5043.85
441.94	5116.41
442.12	5118.75
442.31	5191.31
442.50	5345.78
442.68	5420.68
442.87	5327.06
443.05	5334.08
443.24	5380.89
443.43	5369.19
443.61	5476.85
443.80	5490.90
443.98	5348.12
444.17	5186.63
444.35	5408.98
444.54	5483.88
444.73	5439.40
444.91	5462.81
445.10	5540.05
445.28	5446.43
445.47	5488.56
445.65	5500.26
445.84	5563.45
446.02	5621.97
446.21	5526.00
446.39	5380.89
446.58	5652.39
446.77	5565.79
446.95	5441.75
447.14	5671.12
447.32	5650.05
447.51	5645.37
447.69	5565.79
447.88	5746.02
448.06	5460.47
448.25	5689.84
448.43	5804.53
448.62	5596.22
448.80	5589.20
448.99	5844.32
449.17	5671.12
449.36	5865.38
449.54	5753.04
449.73	6008.16
449.91	6251.57
450.10	6022.20
450.28	5966.03
450.46	6122.84
450.65	6237.53
450.83	6188.38
451.02	5989.43
451.20	6106.46
451.39	6087.73
451.57	6235.19
451.76	5963.68
451.94	6071.35
452.13	6003.47
452.31	6136.88
452.49	6190.72
452.68	6186.04
452.86	5881.77
453.05	6169.65
453.23	6204.76
453.42	6122.84
453.60	6251.57
453.78	6249.23
453.97	6204.76
454.15	6216.46
454.34	6349.87
454.52	6389.66
454.70	6324.13
454.89	6518.39
455.07	6448.18
455.26	6555.84
455.44	6626.06
455.62	6516.05
455.81	6558.18
455.99	6651.80
456.17	6640.10
456.36	6637.76
456.54	6579.25
456.73	6665.85
456.91	6801.60
457.09	6871.81
457.28	6890.54
457.46	6733.72
457.64	6939.69
457.83	6834.36
458.01	6979.48
458.19	7000.54
458.38	6841.39
458.56	7176.08
458.74	6939.69
458.93	7059.06
459.11	7045.01
459.29	7222.89
459.48	7068.42
459.66	6920.96
459.84	7178.42
460.03	7288.43
460.21	7368.01
460.39	7297.79
460.57	7133.95
460.76	7253.32
460.94	7370.35
461.12	7456.95
461.31	7349.28
461.49	7204.17
461.67	7393.75
461.85	7389.07
462.04	7342.26
462.22	7765.90
462.40	7548.23
462.59	7508.44
462.77	7602.06
462.95	7508.44
463.13	7576.31
463.32	7648.87
463.50	7667.60
463.68	7819.73
463.86	7662.91
464.05	7847.82
464.23	7644.19
464.41	7712.07
464.59	7627.81
464.78	7894.63
464.96	7843.14
465.14	7534.18
465.32	8035.06
465.50	7737.81
465.69	7946.12
465.87	7852.50
466.05	8072.51
466.23	7782.28
466.41	7957.82
466.60	8341.67
466.78	8107.62
466.96	7927.39
467.14	7838.45
467.32	8107.62
467.51	8098.25
467.69	7801.01
467.87	7939.10
468.05	8121.66
468.23	8131.02
468.41	8325.29
468.60	8044.42
468.78	8063.15
468.96	8280.82
469.14	8381.46
469.32	8571.04
469.50	8184.85
469.69	8554.66
469.87	8521.89
470.05	8540.61
470.23	8573.38
470.41	8706.79
470.59	8659.98
470.77	8538.27
470.95	8631.90
471.14	8608.49
471.32	8784.03
471.50	8695.09
471.68	8809.78
471.86	8755.94
472.04	8922.12
472.22	9198.31
472.40	9025.11
472.58	9001.70
472.77	9111.71
472.95	9151.49
473.13	9483.85
473.31	9167.88
473.49	9160.86
473.67	9371.50
473.85	9195.96
474.03	9427.68
474.21	9430.02
474.39	9715.56
474.57	9612.58
474.75	9624.28
474.93	9598.54
475.12	9699.18
475.30	9603.22
475.48	9753.01
475.66	9827.91
475.84	9961.32
476.02	10015.15
476.20	10029.20
476.38	9963.66
476.56	10223.46
476.74	10347.51
476.92	10167.29
477.10	10054.94
477.28	10473.90
477.46	10466.88
477.64	10705.61
477.82	10609.65
478.00	10682.20
478.18	10782.85
478.36	11115.20
478.54	11281.38
478.72	11229.89
478.90	11431.18
479.08	11426.50
479.26	11176.06
479.44	11192.44
479.62	11459.26
479.80	11606.72
479.98	11721.40
480.16	11922.69
480.34	11726.08
480.52	12067.80
480.70	12126.32
480.88	11808.00
481.06	12074.82
481.24	12032.69
481.41	12475.06
481.59	12449.31
481.77	12631.87
481.95	12610.81
482.13	12554.63
482.31	12723.15
482.49	13008.70
482.67	13074.23
482.85	13238.07
483.03	13275.52
483.21	13429.99
483.39	13607.87
483.57	13437.02
483.74	13689.79
483.92	13923.85
484.10	13687.45
484.28	14015.13
484.46	14099.39
484.64	14209.39
484.82	13731.92
485.00	14396.64
485.18	14331.10
485.35	14705.59
485.53	14743.03
485.71	14583.88
485.89	15129.22
486.07	15087.09
486.25	14902.19
486.43	15014.54
486.61	15377.32
486.78	15323.49
486.96	15527.11
487.14	15627.76
487.32	15641.80
487.50	15751.81
487.68	15915.64
487.85	16400.13
488.03	16367.37
488.21	16437.58
488.39	16341.62
488.57	16662.27
488.75	16655.25
488.92	17020.38
489.10	17481.46
489.28	17371.46
489.46	17184.21
489.64	17399.54
489.81	17404.22
489.99	17654.66
490.17	17652.32
490.35	18111.07
490.53	18104.04
490.70	18225.75
490.88	18090.00
491.06	18342.78
491.24	18616.62
491.41	18808.54
491.59	18841.31
491.77	18668.11
491.95	18700.88
492.13	19201.76
492.30	19276.65
492.48	19026.21
492.66	19271.97
492.84	19403.04
493.01	19735.40
493.19	19302.40
493.37	19955.41
493.54	20081.80
493.72	19831.36
493.90	19943.70
494.08	20063.07
494.25	20521.82
494.43	20156.69
494.61	20739.49
494.79	21003.97
494.96	20699.70
495.14	20980.56
495.32	21324.62
495.49	21053.12
495.67	21055.46
495.85	21570.38
496.02	21678.04
496.20	21872.31
496.38	21776.34
496.55	21940.18
496.73	22305.31
496.91	22015.08
497.09	22251.47
497.26	22494.89
497.44	22518.29
497.62	22532.34
497.79	22719.58
497.97	22876.40
498.14	22925.55
498.32	23325.78
498.50	22974.70
498.67	23133.86
498.85	23140.88
499.03	23697.92
499.20	23454.51
499.38	23726.01
499.56	23789.20
499.73	23819.63
499.91	23843.04
500.08	24128.58
500.26	24107.52
500.44	24215.18
500.61	24460.94
500.79	24163.69
500.97	24329.87
501.14	24575.62
501.32	24683.29
501.49	24573.28
501.67	24517.11
501.84	24987.56
502.02	24673.93
502.20	25113.95
502.37	25418.22
502.55	25053.09
502.72	25593.76
502.90	25338.64
503.07	25139.69
503.25	25488.43
503.43	25617.16
503.60	25591.42
503.78	25607.80
503.95	25745.89
504.13	25853.56
504.30	25844.20
504.48	26003.35
504.65	26160.17
504.83	26391.88
505.01	26644.66
505.18	26284.22
505.36	26321.66
505.53	26319.32
505.71	26789.77
505.88	26986.38
506.06	26513.59
506.23	26904.46
506.41	26808.50
506.58	26740.62
506.76	27096.38
506.93	27122.13
507.11	27143.19
507.28	27342.14
507.46	27962.38
507.63	27651.09
507.81	28067.70
507.98	27756.41
508.16	27615.98
508.33	27854.72
508.50	28273.67
508.68	28201.11
508.85	28107.49
509.03	27936.63
509.20	28072.39
509.38	28987.53
509.55	28458.57
509.73	28662.20
509.90	28713.69
510.08	28584.96
510.25	28720.71
510.42	28931.36
510.60	28910.30
510.77	28996.90
510.95	28828.38
511.12	28978.17
511.30	29149.03
511.47	29422.87
511.64	29244.99
511.82	29614.80
511.99	29376.06
512.17	29898.00
512.34	29565.65
512.51	29958.86
512.69	29944.81
512.86	29935.45
513.04	30408.24
513.21	29881.62
513.38	30040.78
513.56	30150.78
513.73	30206.95
513.90	30511.22
514.08	30476.12
514.25	30766.34
514.43	30618.89
514.60	30789.75
514.77	30424.62
514.95	30775.70
515.12	30813.15
515.29	30862.30
515.47	31103.38
515.64	31335.09
515.81	30658.68
515.99	31281.26
516.16	31452.12
516.33	31182.96
516.51	31931.93
516.68	31948.31
516.85	31770.43
517.03	32095.77
517.20	31967.04
517.37	32259.60
517.54	32362.59
517.72	32121.51
517.89	32006.83
518.06	31842.99
518.24	32315.78
518.41	31730.64
518.58	32388.33
518.75	32212.79
518.93	32416.42
519.10	32360.25
519.27	32472.59
519.45	32526.42
519.62	32800.27
519.79	32636.43
519.96	32718.35
520.14	33347.95
520.31	32664.52
520.48	33200.50
520.65	33244.97
520.83	33553.92
521.00	33411.15
521.17	33317.53
521.34	33713.08
521.52	33029.64
521.69	33464.98
521.86	33469.66
522.03	34068.84
522.20	34279.49
522.38	34546.31
522.55	34230.33
522.72	33670.95
522.89	34176.50
523.07	34227.99
523.24	34398.85
523.41	34539.29
523.58	34239.70
523.75	34319.28
523.92	34595.46
524.10	34373.11
524.27	34417.58
524.44	34857.60
524.61	35063.57
524.78	35143.14
524.96	34848.24
525.13	34986.33
525.30	35618.27
525.47	35480.18
525.64	35290.60
525.81	35484.86
525.98	35112.72
526.16	35093.99
526.33	35337.41
526.50	35632.32
526.67	35335.07
526.84	35789.13
527.01	35367.84
527.18	35566.78
527.36	35967.01
527.53	35845.30
527.70	36107.44
527.87	36053.61
528.04	36180.00
528.21	36107.44
528.38	36079.36
528.55	36395.33
528.72	36212.77
528.89	36161.28
529.07	36392.99
529.24	36170.64
529.41	36488.95
529.58	36531.08
529.75	36460.87
529.92	36577.89
530.09	36891.52
530.26	37003.87
530.43	36713.64
530.60	37010.89
530.77	36699.60
530.94	36666.83
531.11	36680.88
531.28	37296.44
531.46	37083.45
531.63	37064.72
531.80	37055.36
531.97	37200.47
532.14	37624.11
532.31	37371.33
532.48	36954.72
532.65	37694.33
532.82	37469.64
532.99	37303.46
533.16	37624.11
533.33	37565.60
533.50	38174.14
533.67	37713.05
533.84	37638.15
534.01	37565.60
534.18	38281.80
534.35	37986.89
534.52	37687.31
534.69	38436.28
534.86	38342.66
535.03	38103.92
535.20	38394.15
535.37	38810.76
535.54	38410.53
535.71	38419.89
535.88	38370.74
536.05	38691.40
536.22	39164.18
536.38	38752.25
536.55	38536.92
536.72	38515.86
536.89	38569.69
537.06	38895.02
537.23	39105.67
537.40	38543.94
537.57	38686.71
537.74	38735.87
537.91	39477.82
538.08	39452.07
538.25	38787.36
538.42	38993.32
538.59	39325.68
538.75	38976.94
538.92	39339.72
539.09	39620.59
539.26	39428.66
539.43	39122.05
539.60	39459.09
539.77	39662.72
539.94	39908.47
540.11	39491.86
540.28	39629.95
540.44	39807.83
540.61	39768.04
540.78	40006.78
540.95	39817.19
541.12	39908.47
541.29	39824.22
541.46	39817.19
541.62	39789.11
541.79	40091.04
541.96	39377.17
542.13	39508.24
542.30	40364.88
542.47	39971.67
542.63	40278.28
542.80	40273.60
542.97	40542.76
543.14	40727.66
543.31	40561.48
543.48	40673.83
543.64	41106.83
543.81	41380.67
543.98	40683.19
544.15	40999.16
544.32	40893.84
544.48	41565.57
544.65	40828.30
544.82	41134.92
544.99	40996.82
545.16	40950.01
545.32	41085.76
545.49	41532.81
545.66	41769.20
545.83	41642.81
546.00	41806.65
546.16	41263.64
546.33	41462.59
546.50	41567.91
546.67	41921.34
546.83	41104.49
547.00	41539.83
547.17	41312.80
547.34	41827.71
547.50	41614.72
547.67	42094.53
547.84	41773.88
548.00	42087.51
548.17	42272.42
548.34	42045.38
548.51	42040.70
548.67	42536.90
548.84	42195.18
549.01	42148.37
549.18	41783.24
549.34	42106.24
549.51	42733.50
549.68	42651.58
549.84	42742.86
550.01	42499.45
550.18	42267.73
550.34	42597.75
550.51	42789.67
550.68	42724.14
550.84	42181.13
551.01	42782.65
551.18	42691.37
551.34	42314.55
551.51	42897.34
551.68	42934.79
551.84	42883.30
552.01	42113.26
552.18	42497.11
552.34	42892.66
552.51	43124.37
552.68	42749.88
552.84	42822.44
553.01	43449.70
553.18	43093.94
553.34	43332.68
553.51	42909.04
553.67	43229.69
553.84	43573.75
554.01	43360.76
554.17	43468.43
554.34	43887.39
554.51	43672.06
554.67	43798.44
554.84	43976.33
555.00	43447.36
555.17	43414.60
555.33	43505.88
555.50	43711.84
555.67	43665.03
555.83	43236.72
556.00	43952.92
556.16	44184.63
556.33	44320.38
556.50	43533.96
556.66	43847.60
556.83	43402.89
556.99	43889.73
557.16	44006.75
557.32	44034.84
557.49	43887.39
557.65	43601.84
557.82	43821.85
557.98	43887.39
558.15	44254.85
558.32	43821.85
558.48	44098.03
558.65	43943.56
558.81	44161.23
558.98	43971.64
559.14	43875.68
559.31	44289.96
559.47	44456.14
559.64	44156.55
559.80	44076.97
559.97	44392.94
560.13	44016.11
560.30	44912.54
560.46	44479.54
560.63	44442.09
560.79	44854.03
560.96	44788.49
561.12	44779.13
561.29	44360.17
561.45	44603.59
561.61	44626.99
561.78	44456.14
561.94	44788.49
562.11	44545.08
562.27	44568.48
562.44	44624.65
562.60	45015.52
562.77	45043.61
562.93	44304.00
563.10	44720.62
563.26	44767.43
563.42	44891.48
563.59	44605.93
563.75	44811.90
563.92	45207.45
564.08	44477.20
564.24	44964.03
564.41	44626.99
564.57	44788.49
564.74	44989.78
564.90	44891.48
565.07	44830.62
565.23	44645.72
565.39	45109.14
565.56	45095.10
565.72	44989.78
565.88	44765.09
566.05	45162.98
566.21	45036.59
566.38	45193.40
566.54	45560.87
566.70	45200.43
566.87	45099.78
567.03	45057.65
567.19	45415.76
567.36	45436.82
567.52	45350.22
567.68	45507.04
567.85	45347.88
568.01	45277.66
568.17	45160.64
568.34	45172.34
568.50	45230.85
568.66	45347.88
568.83	45277.66
568.99	45612.36
569.15	45390.01
569.32	45116.17
569.48	45361.92
569.64	45577.25
569.81	45567.89
569.97	45294.05
570.13	45748.11
570.30	45216.81
570.46	45687.26
570.62	45832.37
570.78	45441.50
570.95	45588.95
571.11	46155.36
571.27	45893.22
571.43	45265.96
571.60	45340.86
571.76	45413.41
571.92	45319.79
572.09	45425.12
572.25	45563.21
572.41	45474.27
572.57	45680.24
572.74	46000.89
572.90	45876.84
573.06	45970.46
573.22	45773.86
573.38	46274.73
573.55	45860.46
573.71	46225.58
573.87	45488.31
574.03	45785.56
574.20	46160.05
574.36	45621.72
574.52	46335.59
574.68	45874.50
574.84	46000.89
575.01	45696.62
575.17	46059.40
575.33	46092.17
575.49	45696.62
575.65	45998.55
575.82	45797.26
575.98	45921.31
576.14	46068.76
576.30	46253.67
576.46	45780.88
576.62	45844.07
576.79	45837.05
576.95	45563.21
577.11	45607.68
577.27	45724.71
577.43	46272.39
577.59	46057.06
577.75	45757.47
577.92	45530.44
578.08	45640.45
578.24	45780.88
578.40	46024.29
578.56	46443.25
578.72	45958.76
578.88	46330.90
579.04	46101.53
579.21	45776.20
579.37	46375.37
579.53	46115.58
579.69	46045.36
579.85	46014.93
580.01	46197.49
580.17	45883.86
580.33	46412.82
580.49	46216.22
580.65	46623.47
580.82	46143.66
580.98	45895.56
581.14	45469.59
581.30	45914.29
581.46	46211.54
581.62	46230.26
581.78	45799.60
581.94	46265.37
582.10	46337.93
582.26	46429.21
582.42	46094.51
582.58	46312.18
582.74	46021.95
582.90	46204.52
583.06	46473.68
583.22	45979.82
583.38	46033.66
583.54	46342.61
583.70	46178.77
583.86	46731.14
584.02	46174.09
584.18	46539.21
584.34	46586.02
584.50	46354.31
584.66	46267.71
584.82	46508.79
584.98	46234.94
585.14	46607.09
585.30	46319.20
585.46	46632.83
585.62	46075.79
585.78	46244.30
585.94	45804.28
586.10	46066.42
586.26	46263.03
586.42	46307.50
586.58	46270.05
586.74	46024.29
586.90	46312.18
587.06	46391.76
587.22	46787.31
587.38	46298.14
587.54	46834.12
587.70	46660.92
587.86	46241.96
588.02	46096.85
588.18	46223.24
588.34	46307.50
588.49	46174.09
588.65	46209.20
588.81	46614.11
588.97	46550.91
589.13	46459.63
589.29	46417.50
589.45	46951.15
589.61	46696.03
589.77	46553.26
589.93	46497.08
590.08	46794.33
590.24	47133.71
590.40	46934.76
590.56	46801.35
590.72	46693.69
590.88	46330.90
591.04	46213.88
591.20	46815.40
591.35	46824.76
591.51	47192.22
591.67	47051.79
591.83	47175.84
591.99	46710.07
592.15	46323.88
592.31	46761.56
592.46	46827.10
592.62	46761.56
592.78	46981.57
592.94	47384.15
593.10	46913.70
593.26	47091.58
593.41	47187.54
593.57	46651.56
593.73	47047.11
593.89	47278.82
594.05	47246.05
594.20	46902.00
594.36	47194.56
594.52	47555.00
594.68	46852.84
594.84	46979.23
594.99	47426.28
595.15	47033.07
595.31	46696.03
595.47	46644.54
595.62	47370.10
595.78	46714.75
595.94	47063.49
596.10	46806.03
596.25	47054.13
596.41	46983.91
596.57	46974.55
596.73	47295.21
596.88	47007.32
597.04	47299.89
597.20	47559.69
597.36	46993.28
597.51	46813.05
597.67	46777.95
597.83	47077.54
597.99	46869.23
598.14	47040.09
598.30	46866.89
598.46	46787.31
598.61	47374.78
598.77	46880.93
598.93	47583.09
599.09	47030.72
599.24	47636.92
599.40	46965.19
599.56	47452.02
599.71	47751.61
599.87	47695.44
600.03	46953.49
600.18	47447.34
600.34	47131.37
600.50	46864.55
600.65	47007.32
600.81	47550.32
600.97	47358.40
601.12	47199.24
601.28	47133.71
601.44	47096.26
601.59	47168.82
601.75	47306.91
601.91	47435.64
602.06	47327.97
602.22	47302.23
602.37	46897.31
602.53	47068.17
602.69	47430.96
602.84	46588.36
603.00	46974.55
603.16	46813.05
603.31	47168.82
603.47	47414.57
603.62	47316.27
603.78	47075.19
603.94	47072.85
604.09	47697.78
604.25	47206.26
604.40	47260.10
604.56	47402.87
604.71	47196.90
604.87	47470.75
605.03	47044.77
605.18	47178.18
605.34	47269.46
605.49	47131.37
605.65	47278.82
605.80	46923.06
605.96	47337.33
606.12	46885.61
606.27	47430.96
606.43	46543.89
606.58	47363.08
606.74	47058.81
606.89	47061.15
607.05	46953.49
607.20	47103.28
607.36	47119.66
607.51	46773.27
607.67	46997.96
607.82	46843.48
607.98	46902.00
608.13	47318.61
608.29	47103.28
608.44	46820.08
608.60	46850.50
608.75	47243.71
608.91	46696.03
609.06	46590.70
609.22	47297.55
609.37	46714.75
609.53	47075.19
609.68	46841.14
609.84	46564.96
609.99	47047.11
610.15	47199.24
610.30	47178.18
610.46	46932.42
610.61	46979.23
610.76	46855.18
610.92	47042.43
611.07	46614.11
611.23	46789.65
611.38	46988.60
611.54	46904.34
611.69	47012.00
611.84	46686.67
612.00	46689.01
612.15	47068.17
612.31	47098.60
612.46	46405.80
612.62	46586.02
612.77	46653.90
612.92	47021.36
613.08	46342.61
613.23	46323.88
613.39	46260.69
613.54	46857.52
613.69	47178.18
613.85	46628.15
614.00	46412.82
614.15	46536.87
614.31	46518.15
614.46	46335.59
614.62	46698.37
614.77	45879.18
614.92	46791.99
615.08	46216.22
615.23	46621.13
615.38	46759.22
615.54	46677.30
615.69	46761.56
615.84	46389.42
616.00	46717.09
616.15	46286.43
616.30	46375.37
616.46	46265.37
616.61	46288.77
616.76	46424.53
616.92	45961.10
617.07	46543.89
617.22	46082.81
617.37	45940.04
617.53	45965.78
617.68	46600.07
617.83	46220.90
617.99	46408.14
618.14	46314.52
618.29	46073.45
618.45	45893.22
618.60	45778.54
618.75	45755.13
618.90	46160.05
619.06	45881.52
619.21	46295.80
619.36	46162.39
619.51	45780.88
619.67	45502.35
619.82	46178.77
619.97	46113.23
620.12	45731.73
620.28	45659.17
620.43	45738.75
620.58	46012.59
620.73	46103.87
620.89	45839.39
621.04	45888.54
621.19	45834.71
621.34	45937.69
621.49	45818.33
621.65	45696.62
621.80	45677.90
621.95	45727.05
622.10	46216.22
622.25	45184.04
622.41	45263.62
622.56	45614.70
622.71	45521.08
622.86	45492.99
623.01	45455.54
623.16	45254.26
623.32	45340.86
623.47	45361.92
623.62	45263.62
623.77	45773.86
623.92	45401.71
624.07	45605.34
624.23	45745.77
624.38	45397.03
624.53	45762.15
624.68	44821.26
624.83	45277.66
624.98	44912.54
625.13	44926.58
625.29	45301.07
625.44	45474.27
625.59	44809.56
625.74	45181.70
625.89	44982.76
626.04	44872.75
626.19	44839.98
626.34	45312.77
626.49	44842.32
626.65	44619.97
626.80	44865.73
626.95	44725.30
627.10	44774.45
627.25	44926.58
627.40	44671.46
627.55	44474.86
627.70	44430.39
627.85	45235.53
628.00	45038.93
628.15	44861.05
628.30	44336.77
628.45	44619.97
628.60	43910.79
628.76	44299.32
628.91	44343.79
629.06	44224.42
629.21	44320.38
629.36	44023.14
629.51	44381.24
629.66	44891.48
629.81	44451.45
629.96	44872.75
630.11	44093.35
630.26	44128.46
630.41	44626.99
630.56	44432.73
630.71	44069.95
630.86	44598.91
631.01	44186.97
631.16	44034.84
631.31	44172.93
631.46	43997.39
631.61	44191.65
631.76	44163.57
631.91	44182.29
632.06	44128.46
632.21	44524.01
632.36	44231.44
632.51	43826.53
632.66	44072.29
632.81	44397.62
632.96	43777.38
633.10	43868.66
633.25	43613.54
633.40	43973.98
633.55	43936.54
633.70	43838.23
633.85	44067.61
634.00	43627.59
634.15	43941.22
634.30	43880.36
634.45	43416.94
634.60	43845.26
634.75	43295.23
634.90	43856.96
635.05	43973.98
635.19	43342.04
635.34	43374.81
635.49	43182.88
635.64	43452.05
635.79	43817.17
635.94	43592.48
636.09	43775.04
636.24	43042.45
636.39	43571.41
636.53	43475.45
636.68	43608.86
636.83	43225.01
636.98	43342.04
637.13	43119.69
637.28	42607.11
637.43	43281.19
637.57	43262.46
637.72	42721.80
637.87	43241.40
638.02	43320.98
638.17	42967.55
638.32	43051.81
638.46	42820.10
638.61	42462.00
638.76	42852.87
638.91	42934.79
639.06	42948.83
639.20	42733.50
639.35	42574.34
639.50	42485.40
639.65	42836.48
639.80	42850.53
639.94	42806.06
640.09	42876.27
640.24	42719.46
640.39	42335.61
640.54	42220.92
640.68	43019.05
640.83	43030.75
640.98	42445.62
641.13	42054.75
641.27	43215.65
641.42	42501.79
641.57	42319.23
641.72	42848.19
641.86	42679.67
642.01	42529.87
642.16	42181.13
642.31	41776.22
642.45	42522.85
642.60	41942.40
642.75	41886.23
642.90	41991.55
643.04	42394.12
643.19	41984.53
643.34	42007.94
643.48	41827.71
643.63	42085.17
643.78	42066.45
643.93	42433.91
644.07	42230.29
644.22	42347.31
644.37	42206.88
644.51	42447.96
644.66	42141.35
644.81	42071.13
644.95	42408.17
645.10	41696.64
645.25	41530.47
645.39	41607.70
645.54	41579.62
645.69	41289.39
645.83	41366.63
645.98	41897.93
646.13	42064.11
646.27	41373.65
646.42	41387.69
646.57	41123.21
646.71	42014.96
646.86	41755.16
647.00	41940.06
647.15	41853.46
647.30	41600.68
647.44	41413.44
647.59	41738.77
647.74	41368.97
647.88	41586.64
648.03	41610.04
648.17	42003.25
648.32	41577.28
648.47	41579.62
648.61	41170.02
648.76	41476.63
648.90	41528.13
649.05	41383.01
649.20	41041.29
649.34	41113.85
649.49	41352.58
649.63	40863.41
649.78	40811.92
649.92	41034.27
650.07	41649.83
650.21	41530.47
650.36	41263.64
650.51	41518.76
650.65	41736.43
650.80	41174.70
650.94	41212.15
651.09	41247.26
651.23	40872.78
651.38	41027.25
651.52	40779.15
651.67	40685.53
651.81	41254.28
651.96	40844.69
652.10	40627.02
652.25	40992.14
652.39	40928.95
652.54	40631.70
652.68	40542.76
652.83	40210.40
652.97	41132.57
653.12	40418.71
653.26	40531.06
653.41	40481.91
653.55	40474.88
653.70	40692.55
653.84	40769.79
653.99	41015.55
654.13	40886.82
654.27	40517.01
654.42	40718.30
654.56	40533.40
654.71	40280.62
654.85	40399.99
655.00	40144.87
655.14	40973.42
655.29	40776.81
655.43	40610.64
655.57	40353.18
655.72	39817.19
655.86	39817.19
656.01	39861.66
656.15	39974.01
656.30	39749.32
656.44	40491.27
656.58	39969.33
656.73	39952.94
656.87	39543.35
657.01	39772.72
657.16	39686.12
657.30	40060.61
657.45	39779.74
657.59	40109.76
657.73	39316.32
657.88	39913.16
658.02	39793.79
658.16	40065.29
658.31	39643.99
658.45	39683.78
658.60	39290.57
658.74	39569.10
658.88	39723.57
659.03	39311.64
659.17	39393.56
659.31	39484.84
659.46	39665.06
659.60	39496.54
659.74	39117.37
659.89	38883.32
660.03	38986.30
660.17	38972.26
660.32	38951.20
660.46	39328.02
660.60	38995.67
660.74	38988.64
660.89	38831.83
661.03	38733.53
661.17	38773.31
661.32	38565.01
661.46	38855.23
661.60	38593.09
661.74	38550.96
661.89	38497.13
662.03	38775.66
662.17	38663.31
662.31	38405.85
662.46	38387.13
662.60	38630.54
662.74	38047.75
662.88	37963.49
663.03	37612.41
663.17	37876.89
663.31	37893.27
663.45	37848.80
663.60	38190.52
663.74	38174.14
663.88	37743.48
664.02	37401.76
664.17	37876.89
664.31	37724.75
664.45	37586.66
664.59	37422.83
664.73	37483.68
664.88	37797.31
665.02	37441.55
665.16	37118.56
665.30	37366.65
665.44	37385.38
665.59	37038.98
665.73	37139.62
665.87	36830.67
666.01	36999.19
666.15	36884.50
666.29	37275.37
666.44	37221.54
666.58	36884.50
666.72	36584.91
666.86	36858.76
667.00	36645.77
667.14	36486.61
667.28	36559.17
667.43	36507.68
667.57	36615.34
667.71	35999.78
667.85	36224.47
667.99	36194.04
668.13	36369.58
668.27	35838.28
668.41	35847.64
668.56	35426.35
668.70	35342.09
668.84	35871.05
668.98	35721.26
669.12	35852.33
669.26	35679.13
669.40	35662.74
669.54	35791.47
669.68	35374.86
669.82	35611.25
669.96	35470.82
670.10	35105.70
670.25	35063.57
670.39	35042.50
670.53	35571.46
670.67	34986.33
670.81	35772.75
670.95	35297.62
671.09	34925.47
671.23	34831.85
671.37	34972.28
671.51	34637.59
671.65	34515.88
671.79	34394.17
671.93	34443.32
672.07	34642.27
672.21	34433.96
672.35	33736.48
672.49	34457.37
672.63	34286.51
672.77	34117.99
672.91	34213.95
673.05	34068.84
673.19	33825.42
673.33	33785.63
673.47	33731.80
673.61	33839.47
673.75	33207.52
673.89	33668.61
674.03	33385.40
674.17	33024.96
674.31	32547.49
674.45	33099.86
674.59	33413.49
674.73	33376.04
674.87	32868.14
675.01	32835.38
675.15	32776.86
675.29	32788.56
675.43	32376.63
675.56	32765.16
675.70	32804.95
675.84	32673.88
675.98	31372.54
676.12	32613.02
676.26	32533.45
676.40	31995.12
676.54	31952.99
676.68	31913.20
676.82	31150.19
676.96	31850.01
677.10	31938.95
677.23	31477.86
677.37	31332.75
677.51	31079.97
677.65	31562.12
677.79	31267.22
677.93	31220.41
678.07	31005.08
678.21	30775.70
678.34	30529.95
678.48	30366.11
678.62	30581.44
678.76	30396.54
678.90	30054.82
679.04	30176.53
679.18	30429.30
679.31	29989.28
679.45	29748.21
679.59	30092.27
679.73	29879.28
679.87	29919.07
680.00	29535.22
680.14	29509.47
680.28	29376.06
680.42	29429.90
680.56	29439.26
680.70	29062.43
680.83	28982.85
680.97	28903.28
681.11	29095.20
681.25	28711.35
681.39	28634.11
681.52	28477.30
681.66	28425.81
681.80	28191.75
681.94	28002.17
682.07	27660.45
682.21	28041.96
682.35	27707.26
682.49	27861.74
682.62	27812.59
682.76	27770.46
682.90	27543.42
683.04	27566.83
683.17	27800.88
683.31	27473.21
683.45	27227.45
683.59	27051.91
683.72	26845.94
683.86	26801.47
684.00	26595.51
684.13	26731.26
684.27	26555.72
684.41	26572.10
684.55	26551.04
684.68	26572.10
684.82	25874.62
684.96	26125.06
685.09	26204.64
685.23	26651.68
685.37	26515.93
685.50	26298.26
685.64	26071.23
685.78	25479.07
685.91	25919.09
686.05	25270.76
686.19	25378.43
686.32	25085.86
686.46	24961.81
686.60	25057.78
686.73	25198.21
686.87	25046.07
687.01	25050.75
687.14	24680.95
687.28	24725.42
687.42	24868.19
687.55	24411.79
687.69	24411.79
687.82	24329.87
687.96	24191.78
688.10	24196.46
688.23	24283.06
688.37	24362.64
688.50	24269.01
688.64	23981.13
688.78	23700.26
688.91	23946.02
689.05	23763.46
689.18	23417.06
689.32	22960.66
689.46	23145.56
689.59	23115.13
689.73	23527.06
689.86	23318.76
690.00	23215.77
690.13	23049.60
690.27	22782.77
690.41	22789.80
690.54	22422.33
690.68	22155.51
690.81	22162.53
690.95	22539.36
691.08	22001.04
691.22	22171.89
691.35	21792.73
691.49	21937.84
691.62	21916.78
691.76	21500.16
691.89	21411.22
692.03	21050.78
692.16	21404.20
692.30	21394.84
692.43	21387.82
692.57	21022.69
692.70	21137.38
692.84	20982.90
692.97	20769.91
693.11	20758.21
693.24	20407.13
693.38	20507.77
693.51	20573.31
693.65	20322.87
693.78	20088.82
693.92	20489.05
694.05	20144.99
694.19	19981.15
694.32	20203.50
694.45	20350.96
694.59	19957.75
694.72	20161.37
694.86	19721.35
694.99	19552.84
695.13	19239.20
695.26	19246.23
695.39	19456.87
695.53	19236.86
695.66	19049.62
695.80	19126.86
695.93	19091.75
696.07	18913.87
696.20	18515.98
696.33	18221.07
696.47	18436.40
696.60	18586.19
696.73	18714.92
696.87	18614.28
697.00	18506.62
697.14	17827.86
697.27	18017.44
697.40	18188.30
697.54	18225.75
697.67	17834.88
697.80	18054.89
697.94	17642.96
698.07	17479.12
698.21	17460.40
698.34	17834.88
698.47	17401.88
698.61	17338.69
698.74	17099.95
698.87	16849.52
699.01	16786.32
699.14	16971.22
699.27	16833.13
699.40	16786.32
699.54	16877.60
699.67	16716.11
699.80	16683.34
699.94	16669.30
700.07	16414.18
700.20	16304.17
700.34	16407.16
700.47	16191.83
700.60	16456.31
700.73	16294.81
700.87	15971.82
701.00	15658.18
701.13	15824.36
701.26	15625.42
701.40	15613.71
701.53	15662.86
701.66	15676.91
701.79	15454.56
701.93	15089.43
702.06	15262.63
702.19	15016.88
702.32	15087.09
702.46	15108.16
702.59	15372.64
702.72	15187.74
702.85	15087.09
702.99	14981.77
703.12	14839.00
703.25	14670.48
703.38	14675.16
703.51	14354.51
703.65	14420.04
703.78	14307.69
703.91	14396.64
704.04	14033.85
704.17	13879.38
704.31	14260.88
704.44	14099.39
704.57	13968.32
704.70	13965.98
704.83	13727.24
704.96	13919.17
705.10	13846.61
705.23	13633.62
>>>>>End Processed Spectral Data<<<<<
