SpectraSuite Data File
++++++++++++++++++++++++++++++++++++
Date: Fri Oct 25 10:44:54 EDT 2013
User: price-jones
Dark Spectrum Present: No
Reference Spectrum Present: No
Number of Sampled Component Spectra: 1
Spectrometers: USB2+H05261
Integration Time (usec): 100000 (USB2+H05261)
Spectra Averaged: 1 (USB2+H05261)
Boxcar Smoothing: 0 (USB2+H05261)
Correct for Electrical Dark: No (USB2+H05261)
Strobe/Lamp Enabled: No (USB2+H05261)
Correct for Detector Non-linearity: No (USB2+H05261)
Correct for Stray Light: No (USB2+H05261)
Number of Pixels in Processed Spectrum: 2048
>>>>>Begin Processed Spectral Data<<<<<
365.73	91.28
365.92	91.28
366.12	91.28
366.32	39.79
366.52	51.49
366.72	77.24
366.91	88.94
367.11	28.09
367.31	23.41
367.51	46.81
367.70	30.43
367.90	30.43
368.10	58.51
368.30	84.26
368.49	37.45
368.69	72.56
368.89	37.45
369.09	30.43
369.28	74.90
369.48	7.02
369.68	44.47
369.87	95.96
370.07	37.45
370.27	110.01
370.47	145.11
370.66	407.25
370.86	344.06
371.06	430.66
371.25	517.26
371.45	465.77
371.65	393.21
371.84	400.23
372.04	524.28
372.24	461.09
372.44	461.09
372.63	561.73
372.83	489.17
373.03	461.09
373.22	533.64
373.42	475.13
373.62	458.74
373.81	545.34
374.01	552.37
374.21	482.15
374.40	557.05
374.60	531.30
374.79	599.18
374.99	561.73
375.19	557.05
375.38	650.67
375.58	571.09
375.78	599.18
375.97	695.14
376.17	601.52
376.37	610.88
376.56	601.52
376.76	521.94
376.95	500.87
377.15	620.24
377.35	552.37
377.54	606.20
377.74	617.90
377.93	645.99
378.13	585.13
378.33	638.97
378.52	613.22
378.72	599.18
378.91	664.71
379.11	678.76
379.31	531.30
379.50	636.63
379.70	608.54
379.89	648.33
380.09	645.99
380.28	645.99
380.48	678.76
380.68	535.98
380.87	702.16
381.07	650.67
381.26	699.82
381.46	716.20
381.65	676.41
381.85	699.82
382.04	634.29
382.24	713.86
382.43	692.80
382.63	667.05
382.83	727.91
383.02	688.12
383.22	681.10
383.41	627.26
383.61	641.31
383.80	748.97
384.00	711.52
384.19	739.61
384.39	802.80
384.58	777.06
384.78	755.99
384.97	746.63
385.17	697.48
385.36	830.89
385.56	795.78
385.75	814.51
385.95	683.44
386.14	835.57
386.34	748.97
386.53	755.99
386.72	716.20
386.92	727.91
387.11	791.10
387.31	891.74
387.50	870.68
387.70	863.66
387.89	873.02
388.09	884.72
388.28	781.74
388.48	671.73
388.67	866.00
388.86	835.57
389.06	873.02
389.25	873.02
389.45	891.74
389.64	805.14
389.84	919.83
390.03	868.34
390.22	931.53
390.42	910.47
390.61	926.85
390.81	912.81
391.00	940.90
391.19	994.73
391.39	950.26
391.58	943.24
391.78	990.05
391.97	940.90
392.16	912.81
392.36	983.02
392.55	889.40
392.75	856.64
392.94	917.49
393.13	950.26
393.33	936.21
393.52	938.55
393.71	1043.88
393.91	1048.56
394.10	1039.20
394.29	1008.77
394.49	1036.86
394.68	1142.18
394.88	1139.84
395.07	1135.16
395.26	1039.20
395.46	1158.57
395.65	1095.37
395.84	1107.07
396.04	1039.20
396.23	1100.05
396.42	1128.14
396.62	1121.12
396.81	1165.59
397.00	1135.16
397.19	1086.01
397.39	1242.82
397.58	1273.25
397.77	1188.99
397.97	1270.91
398.16	1217.08
398.35	1294.32
398.55	1331.76
398.74	1273.25
398.93	1329.42
399.12	1376.24
399.32	1357.51
399.51	1308.36
399.70	1378.58
399.90	1284.95
400.09	1355.17
400.28	1439.43
400.47	1500.28
400.67	1465.18
400.86	1444.11
401.05	1448.79
401.24	1497.94
401.44	1451.13
401.63	1535.39
401.82	1425.39
402.01	1511.99
402.21	1631.35
402.40	1589.22
402.59	1556.46
402.78	1526.03
402.97	1474.54
403.17	1423.05
403.36	1577.52
403.55	1577.52
403.74	1556.46
403.93	1586.88
404.13	1661.78
404.32	1692.21
404.51	1621.99
404.70	1710.93
404.89	1694.55
405.09	1813.92
405.28	1760.08
405.47	1689.87
405.66	1760.08
405.85	1788.17
406.05	1753.06
406.24	1783.49
406.43	1746.04
406.62	1905.20
406.81	1947.33
407.00	1776.47
407.20	1750.72
407.39	1813.92
407.58	1797.53
407.77	1916.90
407.96	2005.84
408.15	1949.67
408.34	1996.48
408.54	1984.77
408.73	2008.18
408.92	2003.50
409.11	1912.22
409.30	1970.73
409.49	1977.75
409.68	1996.48
409.87	2017.54
410.07	2136.91
410.26	2029.24
410.45	2090.10
410.64	2150.95
410.83	2249.25
411.02	2244.57
411.21	2260.96
411.40	2181.38
411.59	2225.85
411.78	2403.73
411.98	2258.62
412.17	2380.32
412.36	2314.79
412.55	2473.95
412.74	2569.91
412.93	2459.90
413.12	2401.39
413.31	2576.93
413.50	2490.33
413.69	2448.20
413.88	2553.52
414.07	2572.25
414.26	2670.55
414.45	2619.06
414.64	2705.66
414.83	2761.83
415.02	2773.53
415.22	2693.96
415.41	2850.77
415.60	2801.62
415.79	3009.93
415.98	2871.84
416.17	2977.16
416.36	2768.85
416.55	2942.05
416.74	2972.48
416.93	2953.76
417.12	2918.65
417.31	3021.63
417.50	2995.89
417.69	3096.53
417.88	3105.89
418.07	3005.25
418.26	2939.71
418.45	3061.42
418.64	3204.19
418.83	3218.24
419.02	3124.62
419.21	3297.81
419.39	3077.80
419.58	3218.24
419.77	3117.59
419.96	3255.69
420.15	3440.59
420.34	3267.39
420.53	3234.62
420.72	3459.31
420.91	3426.54
421.10	3379.73
421.29	3569.32
421.48	3323.56
421.67	3581.02
421.86	3456.97
422.05	3421.86
422.24	3314.20
422.43	3419.52
422.61	3482.72
422.80	3590.38
422.99	3543.57
423.18	3552.93
423.37	3618.47
423.56	3508.46
423.75	3574.00
423.94	3564.64
424.13	3262.71
424.32	3311.86
424.50	3442.93
424.69	3555.27
424.88	3576.34
425.07	3513.14
425.26	3536.55
425.45	3382.07
425.64	3403.14
425.83	3482.72
426.01	3597.40
426.20	3719.11
426.39	3559.95
426.58	3583.36
426.77	3604.42
426.96	3604.42
427.15	3609.11
427.33	3662.94
427.52	3581.02
427.71	3758.90
427.90	3712.09
428.09	3768.26
428.28	3798.69
428.46	3831.46
428.65	3786.99
428.84	3758.90
429.03	3836.14
429.22	3684.00
429.40	3812.73
429.59	3742.52
429.78	3604.42
429.97	3681.66
430.16	3847.84
430.34	3730.81
430.53	3819.75
430.72	3784.65
430.91	3805.71
431.10	3911.04
431.28	4084.23
431.47	4109.98
431.66	4175.52
431.85	4088.92
432.03	4133.39
432.22	4241.05
432.41	4177.86
432.60	4320.63
432.79	4152.11
432.97	4201.26
433.16	4243.39
433.35	4262.12
433.54	4327.65
433.72	4292.54
433.91	4182.54
434.10	4271.48
434.28	4329.99
434.47	4259.78
434.66	4503.19
434.85	4421.27
435.03	4432.97
435.22	4465.74
435.41	4622.56
435.59	4472.76
435.78	4645.96
435.97	4458.72
436.16	4496.17
436.34	4510.21
436.53	4627.24
436.72	4662.35
436.90	4538.30
437.09	4545.32
437.28	4547.66
437.46	4568.73
437.65	4709.16
437.84	4650.64
438.02	4603.83
438.21	4706.82
438.40	4606.17
438.58	4847.25
438.77	4828.53
438.96	4903.42
439.14	4983.00
439.33	5013.43
439.52	4901.08
439.70	5050.88
439.89	5121.09
440.08	5139.82
440.26	5130.45
440.45	5128.11
440.63	5315.36
440.82	5423.02
441.01	5221.74
441.19	5188.97
441.38	5533.03
441.57	5284.93
441.75	5540.05
441.94	5636.01
442.12	5521.32
442.31	5556.43
442.50	5544.73
442.68	5591.54
442.87	5514.30
443.05	5636.01
443.24	5720.27
443.43	5792.83
443.61	5762.40
443.80	5940.28
443.98	5746.02
444.17	5572.82
444.35	5916.87
444.54	5928.58
444.73	5959.00
444.91	5954.32
445.10	5743.67
445.28	5668.78
445.47	5760.06
445.65	5664.10
445.84	6052.63
446.02	5928.58
446.21	5804.53
446.39	5853.68
446.58	5790.49
446.77	5846.66
446.95	5818.57
447.14	5926.24
447.32	6132.20
447.51	6120.50
447.69	6223.48
447.88	6104.12
448.06	6057.31
448.25	6092.41
448.43	6157.95
448.62	6040.92
448.80	5944.96
448.99	5982.41
449.17	6181.35
449.36	6008.16
449.54	6160.29
449.73	6195.40
449.91	6279.66
450.10	6476.26
450.28	6216.46
450.46	6410.73
450.65	6504.35
450.83	6525.41
451.02	6464.56
451.20	6518.39
451.39	6520.73
451.57	6567.54
451.76	6345.19
451.94	6291.36
452.13	6546.48
452.31	6497.33
452.49	6410.73
452.68	6338.17
452.86	6190.72
453.05	6445.84
453.23	6518.39
453.42	6497.33
453.60	6691.59
453.78	6766.49
453.97	6537.12
454.15	6726.70
454.34	6642.44
454.52	6630.74
454.70	6775.85
454.89	6876.49
455.07	6668.19
455.26	6757.13
455.44	6970.12
455.62	7052.03
455.81	6932.67
455.99	7028.63
456.17	7054.37
456.36	6937.35
456.54	7356.30
456.73	7122.25
456.91	7276.73
457.09	7213.53
457.28	7365.67
457.46	7253.32
457.64	7346.94
457.83	7414.82
458.01	7262.68
458.19	7269.70
458.38	7300.13
458.56	7459.29
458.74	7262.68
458.93	7428.86
459.11	7651.21
459.29	7405.46
459.48	7499.08
459.66	7414.82
459.84	7552.91
460.03	7838.45
460.21	7571.63
460.39	7728.45
460.57	7658.23
460.76	7749.51
460.94	7857.18
461.12	7882.92
461.31	7913.35
461.49	7709.72
461.67	7840.79
461.85	7992.93
462.04	7749.51
462.22	8114.64
462.40	7868.88
462.59	7988.25
462.77	7995.27
462.95	8037.40
463.13	8051.44
463.32	7964.84
463.50	8266.77
463.68	8180.17
463.86	7995.27
464.05	8105.28
464.23	7985.91
464.41	8032.72
464.59	7978.89
464.78	8491.46
464.96	8369.76
465.14	8180.17
465.32	8362.73
465.50	8367.42
465.69	8116.98
465.87	8116.98
466.05	8229.32
466.23	8224.64
466.41	8519.55
466.60	8493.80
466.78	8334.65
466.96	8561.68
467.14	8493.80
467.32	8568.70
467.51	8505.51
467.69	8510.19
467.87	8500.83
468.05	8540.61
468.23	8482.10
468.41	8671.68
468.60	8491.46
468.78	8777.01
468.96	8557.00
469.14	8933.82
469.32	8781.69
469.50	8685.73
469.69	8882.33
469.87	8992.34
470.05	8685.73
470.23	9006.38
470.41	8765.31
470.59	8891.70
470.77	8987.66
470.95	8891.70
471.14	9308.31
471.32	9123.41
471.50	9275.54
471.68	9231.07
471.86	9167.88
472.04	9345.76
472.22	9549.39
472.40	9111.71
472.58	9387.89
472.77	9430.02
472.95	9458.10
473.13	9820.89
473.31	9476.83
473.49	9415.98
473.67	9535.34
473.85	9647.69
474.03	10047.92
474.21	9867.70
474.39	9937.91
474.57	10073.67
474.75	10132.18
474.93	10146.22
475.12	10246.87
475.30	10071.33
475.48	10237.50
475.66	10286.65
475.84	10214.10
476.02	10462.19
476.20	10221.12
476.38	10717.31
476.56	10661.14
476.74	10485.60
476.92	10850.72
477.10	10731.36
477.28	10963.07
477.46	10808.59
477.64	11059.03
477.82	11056.69
478.00	11438.20
478.18	11524.80
478.36	11557.57
478.54	11487.35
478.72	11590.33
478.90	11520.12
479.08	11765.87
479.26	11894.60
479.44	12072.48
479.62	12231.64
479.80	12065.46
479.98	12116.95
480.16	12409.52
480.34	12348.67
480.52	12456.33
480.70	12475.06
480.88	12126.32
481.06	12589.74
481.24	12524.21
481.41	12816.77
481.59	13130.41
481.77	12894.01
481.95	13034.44
482.13	13238.07
482.31	13186.58
482.49	13591.49
482.67	13668.73
482.85	13460.42
483.03	14010.45
483.21	13930.87
483.39	14253.86
483.57	14139.18
483.74	14104.07
483.92	14225.78
484.10	14207.05
484.28	14464.51
484.46	14649.41
484.64	15040.28
484.82	14892.83
485.00	14855.38
485.18	15005.17
485.35	15185.40
485.53	14717.29
485.71	15201.78
485.89	15288.38
486.07	15400.72
486.25	15398.38
486.43	15538.82
486.61	15800.96
486.78	15985.86
486.96	16067.78
487.14	16332.26
487.32	16226.93
487.50	16407.16
487.68	16360.34
487.85	16830.79
488.03	17191.23
488.21	17006.33
488.39	17294.22
488.57	17249.75
488.75	17212.30
488.92	17504.87
489.10	17488.48
489.28	17598.49
489.46	17762.33
489.64	17715.51
489.81	18469.17
489.99	18459.81
490.17	18450.44
490.35	18752.37
490.53	18501.93
490.70	18579.17
490.88	18731.31
491.06	19110.47
491.24	19147.92
491.41	19267.29
491.59	19330.48
491.77	19073.03
491.95	19288.35
492.13	19768.16
492.30	19873.49
492.48	19843.06
492.66	19796.25
492.84	20009.24
493.01	20322.87
493.19	20273.72
493.37	20374.36
493.54	20222.23
493.72	20245.63
493.90	20762.89
494.08	20893.96
494.25	21289.51
494.43	21472.07
494.61	21507.18
494.79	21582.08
494.96	21483.78
495.14	21582.08
495.32	21865.28
495.49	22073.59
495.67	21809.11
495.85	22242.11
496.02	22340.41
496.20	22391.91
496.38	22054.87
496.55	22410.63
496.73	22878.74
496.91	22972.36
497.09	22827.24
497.26	22930.23
497.44	22827.24
497.62	23082.36
497.79	23332.80
497.97	23316.42
498.14	23421.74
498.32	23580.90
498.50	23866.44
498.67	23929.64
498.85	23922.62
499.03	24280.72
499.20	24442.21
499.38	24315.83
499.56	24353.27
499.73	24362.64
499.91	24507.75
500.08	24599.03
500.26	24683.29
500.44	24563.92
500.61	24680.95
500.79	24957.13
500.97	25048.41
501.14	25240.34
501.32	25088.20
501.49	25078.84
501.67	25160.76
501.84	25603.12
502.02	25537.59
502.20	25439.28
502.37	25956.54
502.55	25848.88
502.72	25907.39
502.90	25935.48
503.07	25731.85
503.25	26054.84
503.43	25958.88
503.60	26068.89
503.78	26279.54
503.95	26214.00
504.13	26501.89
504.30	26663.38
504.48	26572.10
504.65	26675.09
504.83	26890.41
505.01	26967.65
505.18	27072.98
505.36	27278.94
505.53	26871.69
505.71	27164.26
505.88	27468.53
506.06	27211.07
506.23	27253.20
506.41	27433.42
506.58	27459.16
506.76	27129.15
506.93	27924.93
507.11	27852.38
507.28	28154.30
507.46	28032.60
507.63	28091.11
507.81	28126.22
507.98	27632.36
508.16	28379.00
508.33	28563.90
508.50	28290.06
508.68	28552.20
508.85	28994.56
509.03	28620.07
509.20	28676.24
509.38	29118.60
509.55	29123.29
509.73	28957.11
509.90	29083.50
510.08	28828.38
510.25	29046.05
510.42	29605.44
510.60	29457.98
510.77	29509.47
510.95	29722.46
511.12	29666.29
511.30	29834.81
511.47	30054.82
511.64	29986.94
511.82	30426.96
511.99	29820.77
512.17	29972.90
512.34	29951.84
512.51	30487.82
512.69	30639.95
512.86	30403.56
513.04	30614.21
513.21	30794.43
513.38	30773.36
513.56	30785.07
513.73	30590.80
513.90	31019.12
514.08	30876.35
514.25	30862.30
514.43	30745.28
514.60	30590.80
514.77	31316.37
514.95	31489.57
515.12	31016.78
515.29	31168.91
515.47	31679.15
515.64	31704.90
515.81	31384.24
515.99	31431.05
516.16	31742.35
516.33	31412.33
516.51	31854.69
516.68	31569.15
516.85	31583.19
517.03	31428.71
517.20	31580.85
517.37	31775.11
517.54	32437.48
517.72	32346.20
517.89	32093.43
518.06	31971.72
518.24	32196.41
518.41	32004.49
518.58	32264.28
518.75	32788.56
518.93	32559.19
519.10	32830.69
519.27	32622.39
519.45	32617.71
519.62	32877.51
519.79	32872.82
519.96	32884.53
520.14	33607.75
520.31	32762.82
520.48	32947.72
520.65	33055.39
520.83	34125.01
521.00	33617.11
521.17	33996.28
521.34	33537.54
521.52	33589.03
521.69	33748.18
521.86	34120.33
522.03	33841.81
522.20	33914.36
522.38	33769.25
522.55	34469.07
522.72	34178.84
522.89	34258.42
523.07	34375.45
523.24	34246.72
523.41	34754.61
523.58	34309.91
523.75	34955.90
523.92	34941.86
524.10	35241.45
524.27	34892.71
524.44	35145.48
524.61	34824.83
524.78	35449.75
524.96	35143.14
525.13	35321.02
525.30	35360.81
525.47	35737.64
525.64	35639.34
525.81	35407.62
525.98	35414.65
526.16	35442.73
526.33	35108.04
526.50	35379.54
526.67	35072.93
526.84	35330.39
527.01	35702.53
527.18	35765.73
527.36	35667.42
527.53	35807.86
527.70	36479.59
527.87	36048.93
528.04	36191.70
528.21	36196.38
528.38	35990.42
528.55	36217.45
528.72	36346.18
528.89	36395.33
529.07	36290.01
529.24	36254.90
529.41	36348.52
529.58	36575.55
529.75	36589.59
529.92	36423.42
530.09	36713.64
530.26	36161.28
530.43	36840.03
530.60	36823.65
530.77	36730.03
530.94	37420.48
531.11	37158.34
531.28	36774.50
531.46	37266.01
531.63	36994.51
531.80	37273.03
531.97	37453.25
532.14	37256.65
532.31	37081.11
532.48	37144.30
532.65	37228.56
532.82	37446.23
532.99	37589.00
533.16	37268.35
533.33	37275.37
533.50	37787.95
533.67	37610.07
533.84	37486.02
534.01	37701.35
534.18	37834.76
534.35	38340.32
534.52	38211.59
534.69	38281.80
534.86	38335.63
535.03	37837.10
535.20	38178.82
535.37	38567.35
535.54	38593.09
535.71	38501.81
535.88	38340.32
536.05	38902.04
536.22	38871.62
536.38	38340.32
536.55	38389.47
536.72	38822.47
536.89	38387.13
537.06	38548.62
537.23	38792.04
537.40	38766.29
537.57	38660.97
537.74	39215.68
537.91	39285.89
538.08	38941.83
538.25	38866.94
538.42	38597.77
538.59	39402.92
538.75	38960.56
538.92	39225.04
539.09	39391.22
539.26	38923.11
539.43	39297.59
539.60	38876.30
539.77	39126.74
539.94	39541.01
540.11	39484.84
540.28	39421.64
540.44	39372.49
540.61	38967.58
540.78	39288.23
540.95	39529.31
541.12	39398.24
541.29	38892.68
541.46	39517.60
541.62	39325.68
541.79	39845.28
541.96	39339.72
542.13	39838.26
542.30	39629.95
542.47	39704.85
542.63	40226.79
542.80	39964.65
542.97	40072.31
543.14	40407.01
543.31	40407.01
543.48	40149.55
543.64	40896.18
543.81	41088.10
543.98	40933.63
544.15	40652.76
544.32	40690.21
544.48	40863.41
544.65	40598.93
544.82	40645.74
544.99	40554.46
545.16	40933.63
545.32	40910.22
545.49	41008.53
545.66	40978.10
545.83	41282.37
546.00	40928.95
546.16	41118.53
546.33	40971.08
546.50	40746.39
546.67	41027.25
546.83	40594.25
547.00	40959.38
547.17	40711.28
547.34	41022.57
547.50	41322.16
547.67	41776.22
547.84	41839.42
548.00	41347.90
548.17	41748.14
548.34	41467.27
548.51	41287.05
548.67	41904.95
548.84	41509.40
549.01	41563.23
549.18	41708.35
549.34	41158.32
549.51	41565.57
549.68	42136.66
549.84	41645.15
550.01	42288.80
550.18	41287.05
550.34	41865.16
550.51	42249.01
550.68	41888.57
550.84	41584.30
551.01	42033.68
551.18	41975.17
551.34	42014.96
551.51	42000.91
551.68	42466.68
551.84	42293.48
552.01	41968.15
552.18	42024.32
552.34	42064.11
552.51	42342.63
552.68	41801.97
552.84	42188.16
553.01	42564.98
553.18	42543.92
553.34	42281.78
553.51	42139.00
553.67	42153.05
553.84	42810.74
554.01	42241.99
554.17	42452.64
554.34	42937.13
554.51	42986.28
554.67	42541.58
554.84	42600.09
555.00	42548.60
555.17	42424.55
555.33	42735.84
555.50	42394.12
555.67	42522.85
555.83	42504.13
556.00	42990.96
556.16	42784.99
556.33	42534.56
556.50	43037.77
556.66	42974.58
556.83	42895.00
556.99	43075.22
557.16	43140.75
557.32	43407.58
557.49	43508.22
557.65	42693.71
557.82	43290.55
557.98	42916.06
558.15	42944.15
558.32	43379.49
558.48	42969.90
558.65	43512.90
558.81	43435.66
558.98	42583.71
559.14	43339.70
559.31	43641.63
559.47	43445.02
559.64	43650.99
559.80	43529.28
559.97	43320.98
560.13	42941.81
560.30	43217.99
560.46	43014.37
560.63	43550.35
560.79	43433.32
560.96	43461.41
561.12	43398.21
561.29	43452.05
561.45	43381.83
561.61	43267.14
561.78	43452.05
561.94	43215.65
562.11	43466.09
562.27	43849.94
562.44	43599.50
562.60	43557.37
562.77	43725.89
562.93	43564.39
563.10	43753.97
563.26	43501.20
563.42	43470.77
563.59	43856.96
563.75	43576.09
563.92	43569.07
564.08	43346.72
564.24	43826.53
564.41	43508.22
564.57	44002.07
564.74	43681.42
564.90	43445.02
565.07	43735.25
565.23	43643.97
565.39	43683.76
565.56	44046.54
565.72	43770.36
565.88	43594.82
566.05	44046.54
566.21	43950.58
566.38	43751.63
566.54	43936.54
566.70	44203.36
566.87	44371.88
567.03	44179.95
567.19	44538.05
567.36	44273.57
567.52	43910.79
567.68	44271.23
567.85	44037.18
568.01	43863.98
568.17	43714.19
568.34	44053.56
568.50	43693.12
568.66	43835.89
568.83	44385.92
568.99	43489.49
569.15	43758.66
569.32	43761.00
569.48	43821.85
569.64	44519.33
569.81	44374.22
569.97	44048.88
570.13	44016.11
570.30	44350.81
570.46	43585.46
570.62	44058.24
570.78	44069.95
570.95	43735.25
571.11	44100.37
571.27	44315.70
571.43	44044.20
571.60	44177.61
571.76	44032.50
571.92	44222.08
572.09	44154.21
572.25	44179.95
572.41	43922.49
572.57	43931.86
572.74	44392.94
572.90	44119.10
573.06	44116.76
573.22	44212.72
573.38	44311.02
573.55	44411.67
573.71	44301.66
573.87	44547.42
574.03	44020.80
574.20	44383.58
574.36	43920.15
574.52	44444.43
574.68	43992.71
574.84	44699.55
575.01	44191.65
575.17	44172.93
575.33	44168.25
575.49	44287.62
575.65	44217.40
575.82	44435.07
575.98	44521.67
576.14	44348.47
576.30	44650.40
576.46	44713.59
576.62	44683.17
576.79	44524.01
576.95	44350.81
577.11	44484.22
577.27	44851.69
577.43	44268.89
577.59	44329.75
577.75	44313.36
577.92	44016.11
578.08	44114.42
578.24	44350.81
578.40	44425.71
578.56	44264.21
578.72	44222.08
578.88	44322.72
579.04	44432.73
579.21	44327.41
579.37	44362.51
579.53	44364.85
579.69	44563.80
579.85	44430.39
580.01	44966.37
580.17	44306.34
580.33	44807.22
580.49	44701.89
580.65	44715.93
580.82	44687.85
580.98	44055.90
581.14	44362.51
581.30	44601.25
581.46	44605.93
581.62	44858.71
581.78	44175.27
581.94	44636.36
582.10	44133.14
582.26	44397.62
582.42	44364.85
582.58	44575.50
582.74	43971.64
582.90	44594.23
583.06	44830.62
583.22	44657.42
583.38	45006.16
583.54	44608.27
583.70	44549.76
583.86	44446.77
584.02	44261.87
584.18	44596.57
584.34	44634.02
584.50	44369.54
584.66	44177.61
584.82	44128.46
584.98	45120.85
585.14	44793.17
585.30	44444.43
585.46	44788.49
585.62	44411.67
585.78	44566.14
585.94	43819.51
586.10	44322.72
586.26	44449.11
586.42	44872.75
586.58	44596.57
586.74	44914.88
586.90	44397.62
587.06	44500.61
587.22	44650.40
587.38	44332.09
587.54	44498.26
587.70	44699.55
587.86	44615.29
588.02	44666.78
588.18	44266.55
588.34	45017.86
588.49	44245.49
588.65	43948.24
588.81	44339.11
588.97	44729.98
589.13	44287.62
589.29	44671.46
589.45	44865.73
589.61	44378.90
589.77	44643.38
589.93	44718.28
590.08	44818.92
590.24	44549.76
590.40	45059.99
590.56	45106.80
590.72	44762.75
590.88	44708.91
591.04	44521.67
591.20	45209.79
591.35	44982.76
591.51	44790.83
591.67	44779.13
591.83	45038.93
591.99	44800.19
592.15	44783.81
592.31	45031.91
592.46	44931.26
592.62	44767.43
592.78	45064.67
592.94	44832.96
593.10	44959.35
593.26	44818.92
593.41	44851.69
593.57	44912.54
593.73	45081.06
593.89	44942.97
594.05	44744.02
594.20	44882.11
594.36	45322.13
594.52	45141.91
594.68	44861.05
594.84	44659.76
594.99	45347.88
595.15	45375.97
595.31	45057.65
595.47	44779.13
595.62	45027.23
595.78	45230.85
595.94	44877.43
596.10	45406.39
596.25	45148.93
596.41	45455.54
596.57	44708.91
596.73	45106.80
596.88	44690.19
597.04	44610.61
597.20	45069.36
597.36	44940.63
597.51	45427.46
597.67	44975.73
597.83	44999.14
597.99	45230.85
598.14	45071.70
598.30	45181.70
598.46	44671.46
598.61	44973.39
598.77	44669.12
598.93	44816.58
599.09	44758.06
599.24	45518.74
599.40	44865.73
599.56	45184.04
599.71	44374.22
599.87	44938.29
600.03	45090.42
600.18	44987.44
600.34	44779.13
600.50	45076.38
600.65	44940.63
600.81	44940.63
600.97	45202.77
601.12	44921.90
601.28	44800.19
601.44	44835.30
601.59	44900.84
601.75	44847.00
601.91	44734.66
602.06	45003.82
602.22	45081.06
602.37	44617.63
602.53	44741.68
602.69	44900.84
602.84	44540.39
603.00	44921.90
603.16	44751.04
603.31	45228.51
603.47	44938.29
603.62	44809.56
603.78	44699.55
603.94	45181.70
604.09	45193.40
604.25	44828.28
604.40	45099.78
604.56	44460.82
604.71	44985.10
604.87	44996.80
605.03	44690.19
605.18	44964.03
605.34	45038.93
605.49	45001.48
605.65	45024.89
605.80	44910.20
605.96	44617.63
606.12	44739.34
606.27	45361.92
606.43	44758.06
606.58	44875.09
606.74	44598.91
606.89	44921.90
607.05	44641.04
607.20	44713.59
607.36	44898.50
607.51	45291.71
607.67	44762.75
607.82	44486.56
607.98	44488.90
608.13	44072.29
608.29	44573.16
608.44	44409.32
608.60	44154.21
608.75	44414.01
608.91	44306.34
609.06	44301.66
609.22	45041.27
609.37	43789.08
609.53	44648.06
609.68	44313.36
609.84	44259.53
609.99	44498.26
610.15	44039.52
610.30	44381.24
610.46	43985.69
610.61	44825.94
610.76	44587.21
610.92	44236.12
611.07	44219.74
611.23	44587.21
611.38	44968.71
611.54	43697.80
611.69	44481.88
611.84	44282.94
612.00	43896.75
612.15	43924.83
612.31	44245.49
612.46	44243.15
612.62	44076.97
612.77	44392.94
612.92	44336.77
613.08	44435.07
613.23	44495.92
613.39	43981.01
613.54	43915.47
613.69	44360.17
613.85	44058.24
614.00	43988.03
614.15	44598.91
614.31	44170.59
614.46	43915.47
614.62	43910.79
614.77	44011.43
614.92	43929.51
615.08	43847.60
615.23	43512.90
615.38	43931.86
615.54	43416.94
615.69	44179.95
615.84	43723.55
616.00	43856.96
616.15	43566.73
616.30	43697.80
616.46	43562.05
616.61	43412.26
616.76	43335.02
616.92	42920.74
617.07	43157.14
617.22	42969.90
617.37	42866.91
617.53	43552.69
617.68	43969.30
617.83	43782.06
617.99	43536.30
618.14	43526.94
618.29	43723.55
618.45	43225.01
618.60	43557.37
618.75	43072.88
618.90	43889.73
619.06	43285.87
619.21	43681.42
619.36	43407.58
619.51	43166.50
619.67	43482.47
619.82	43548.01
619.97	43157.14
620.12	42712.44
620.28	42965.21
620.43	42948.83
620.58	43035.43
620.73	43143.09
620.89	42796.70
621.04	42817.76
621.19	42815.42
621.34	43091.60
621.49	42923.08
621.65	42883.30
621.80	42759.25
621.95	42892.66
622.10	42862.23
622.25	42557.96
622.41	42632.86
622.56	42916.06
622.71	42637.54
622.86	42588.39
623.01	42597.75
623.16	42576.69
623.32	42607.11
623.47	42609.45
623.62	42183.48
623.77	42696.05
623.92	42267.73
624.07	42590.73
624.23	42529.87
624.38	42789.67
624.53	42066.45
624.68	42375.40
624.83	42562.64
624.98	41984.53
625.13	41596.00
625.29	41984.53
625.44	42328.59
625.59	41909.63
625.74	41865.16
625.89	41544.51
626.04	42007.94
626.19	41783.24
626.34	42150.71
626.49	42101.56
626.65	42164.75
626.80	42403.49
626.95	41933.04
627.10	42047.72
627.25	41757.50
627.40	41886.23
627.55	41333.86
627.70	41380.67
627.85	41443.87
628.00	41659.20
628.15	41558.55
628.30	41745.80
628.45	41532.81
628.60	41900.27
628.76	41673.24
628.91	41879.21
629.06	41387.69
629.21	41481.31
629.36	41347.90
629.51	41439.18
629.66	41453.23
629.81	41322.16
629.96	41312.80
630.11	41352.58
630.26	41338.54
630.41	41631.11
630.56	41436.84
630.71	41216.83
630.86	41088.10
631.01	41158.32
631.16	41588.98
631.31	41069.38
631.46	40683.19
631.61	41113.85
631.76	41013.21
631.91	41146.62
632.06	41010.87
632.21	41340.88
632.36	41338.54
632.51	40673.83
632.66	40893.84
632.81	40715.96
632.96	40933.63
633.10	40898.52
633.25	40730.00
633.40	40811.92
633.55	41029.59
633.70	40524.04
633.85	40456.16
634.00	40713.62
634.15	40858.73
634.30	40521.69
634.45	40664.47
634.60	40767.45
634.75	40634.04
634.90	40563.82
635.05	40664.47
635.19	40479.57
635.34	40442.12
635.49	40676.17
635.64	40641.06
635.79	40505.31
635.94	40084.01
636.09	40542.76
636.24	40086.36
636.39	40187.00
636.53	40236.15
636.68	40074.65
636.83	40346.15
636.98	40285.30
637.13	39838.26
637.28	40407.01
637.43	40179.98
637.57	40409.35
637.72	39978.69
637.87	39807.83
638.02	40196.36
638.17	40037.20
638.32	40151.89
638.46	40093.38
638.61	39941.24
638.76	39903.79
638.91	39695.49
639.06	39917.84
639.20	39906.13
639.35	40027.84
639.50	40142.53
639.65	40458.50
639.80	40109.76
639.94	39992.73
640.09	39948.26
640.24	39482.50
640.39	39278.87
640.54	39220.36
640.68	39400.58
640.83	40076.99
640.98	39482.50
641.13	39044.82
641.27	39739.96
641.42	39777.40
641.57	39421.64
641.72	39697.83
641.86	39072.90
642.01	38759.27
642.16	39332.70
642.31	39049.50
642.45	39721.23
642.60	39346.75
642.75	39241.42
642.90	39086.95
643.04	39136.10
643.19	38780.34
643.34	39414.62
643.48	38550.96
643.63	38550.96
643.78	38705.44
643.93	38937.15
644.07	38752.25
644.22	38829.49
644.37	38897.36
644.51	38876.30
644.66	39175.89
644.81	38820.13
644.95	39103.33
645.10	38822.47
645.25	39318.66
645.39	38703.10
645.54	38705.44
645.69	38813.10
645.83	38728.84
645.98	38955.88
646.13	39014.39
646.27	38831.83
646.42	38859.91
646.57	38562.67
646.71	38476.07
646.86	38770.97
647.00	38532.24
647.15	38679.69
647.30	38705.44
647.44	38312.23
647.59	38464.36
647.74	38361.38
647.88	38227.97
648.03	38499.47
648.17	38370.74
648.32	38342.66
648.47	38333.29
648.61	38466.70
648.76	38593.09
648.90	38382.45
649.05	38061.79
649.20	38429.26
649.34	38078.18
649.49	37591.34
649.63	37766.88
649.78	38211.59
649.92	38127.33
650.07	37993.92
650.21	37806.67
650.36	37757.52
650.51	38110.94
650.65	38380.10
650.80	38019.66
650.94	38204.56
651.09	37888.59
651.23	38029.02
651.38	37867.53
651.52	37764.54
651.67	37778.59
651.81	37780.93
651.96	37329.20
652.10	37298.78
652.25	37392.40
652.39	37785.61
652.54	37734.12
652.68	37682.62
652.83	37500.06
652.97	38057.11
653.12	37570.28
653.26	37368.99
653.41	37294.10
653.55	37291.76
653.70	37074.09
653.84	37558.58
653.99	37350.27
654.13	37324.52
654.27	37635.81
654.42	37434.53
654.56	37450.91
654.71	37244.94
654.85	37191.11
655.00	37397.08
655.14	36914.93
655.29	36879.82
655.43	36891.52
655.57	36779.18
655.72	36460.87
655.86	36835.35
656.01	36779.18
656.15	36645.77
656.30	36442.14
656.44	36687.90
656.58	36568.53
656.73	36739.39
656.87	36858.76
657.01	36240.86
657.16	36973.44
657.30	36648.11
657.45	36531.08
657.59	36465.55
657.73	36341.50
657.88	36898.55
658.02	36875.14
658.16	36865.78
658.31	36921.95
658.45	36589.59
658.60	36147.23
658.74	36807.26
658.88	36212.77
659.03	36144.89
659.17	36252.56
659.31	36004.46
659.46	36039.57
659.60	35990.42
659.74	36081.70
659.89	36205.75
660.03	36222.13
660.17	36144.89
660.32	36140.21
660.46	35992.76
660.60	35620.61
660.74	35992.76
660.89	35875.73
661.03	35620.61
661.17	35475.50
661.32	35597.21
661.46	35154.85
661.60	35335.07
661.74	35597.21
661.89	35828.92
662.03	35503.59
662.17	35358.47
662.31	35381.88
662.46	35044.84
662.60	35332.73
662.74	35154.85
662.88	35033.14
663.03	35023.78
663.17	35023.78
663.31	35030.80
663.45	35213.36
663.60	34925.47
663.74	34672.70
663.88	34899.73
664.02	34864.62
664.17	34553.33
664.31	34714.83
664.45	34754.61
664.59	34892.71
664.73	34398.85
664.88	34576.73
665.02	34256.08
665.16	34359.06
665.30	33996.28
665.44	34267.78
665.59	34452.69
665.73	34183.52
665.87	34094.58
666.01	34157.78
666.15	33684.99
666.29	33687.33
666.44	34249.06
666.58	33869.89
666.72	33879.25
666.86	33462.64
667.00	34047.77
667.14	33612.43
667.28	33289.44
667.43	33198.16
667.57	33715.42
667.71	33408.81
667.85	33359.66
667.99	33198.16
668.13	33151.35
668.27	33193.48
668.41	33593.71
668.56	32823.67
668.70	33046.02
668.84	33207.52
668.98	32912.61
669.12	32493.66
669.26	32919.63
669.40	32512.38
669.54	32465.57
669.68	32720.69
669.82	32620.05
669.96	32659.84
670.10	32362.59
670.25	32151.94
670.39	32587.28
670.53	32343.86
670.67	32339.18
670.81	32418.76
670.95	32500.68
671.09	32488.98
671.23	31847.67
671.37	32376.63
671.51	31929.59
671.65	31981.08
671.79	32077.04
671.93	31995.12
672.07	31770.43
672.21	31983.42
672.35	31793.84
672.49	31644.04
672.63	31948.31
672.77	31807.88
672.91	31171.25
673.05	31262.54
673.19	31182.96
673.33	31295.30
673.47	30937.20
673.61	31122.10
673.75	30827.20
673.89	30656.34
674.03	30717.19
674.17	30359.09
674.31	30897.41
674.45	30756.98
674.59	30169.51
674.73	30899.75
674.87	30986.35
675.01	30326.32
675.15	30504.20
675.29	30426.96
675.43	30267.81
675.56	30078.22
675.70	30045.46
675.84	29977.58
675.98	29270.74
676.12	30328.66
676.26	29628.84
676.40	29401.81
676.54	29708.42
676.68	29392.45
676.82	29095.20
676.96	29743.53
677.10	29647.57
677.23	29436.92
677.37	29092.86
677.51	29160.73
677.65	28933.70
677.79	28699.65
677.93	28725.39
678.07	28641.14
678.21	28376.66
678.34	28514.75
678.48	28154.30
678.62	27929.61
678.76	28140.26
678.90	27723.65
679.04	27936.63
679.18	28070.04
679.31	27379.59
679.45	27653.43
679.59	27601.94
679.73	27686.20
679.87	27325.75
680.00	27412.35
680.14	27372.57
680.28	26977.01
680.42	27168.94
680.56	27250.86
680.70	26869.35
680.83	27019.14
680.97	27033.19
681.11	27168.94
681.25	27063.61
681.39	26532.31
681.52	26925.52
681.66	26951.27
681.80	26314.64
681.94	26469.12
682.07	26314.64
682.21	26389.54
682.35	26073.57
682.49	26279.54
682.62	25991.65
682.76	25975.27
682.90	25736.53
683.04	25486.09
683.17	25500.14
683.31	25509.50
683.45	25284.81
683.59	25518.86
683.72	24802.66
683.86	25252.04
684.00	25525.88
684.13	25219.27
684.27	24800.32
684.41	25130.33
684.55	24793.29
684.68	24320.51
684.82	24482.00
684.96	24718.40
685.09	24592.01
685.23	24231.57
685.37	24772.23
685.50	24519.45
685.64	24142.63
685.78	23831.33
685.91	23735.37
686.05	23910.91
686.19	23531.75
686.32	23477.91
686.46	23293.01
686.60	23358.55
686.73	23417.06
686.87	22916.19
687.01	23168.96
687.14	23040.23
687.28	22850.65
687.42	22897.46
687.55	22967.68
687.69	22953.63
687.82	22810.86
687.96	23061.30
688.10	22640.00
688.23	22647.02
688.37	22270.20
688.50	21977.63
688.64	22160.19
688.78	22326.37
688.91	22094.66
689.05	22396.59
689.18	21942.52
689.32	21736.56
689.46	21572.72
689.59	21783.37
689.73	21755.28
689.86	21303.56
690.00	21500.16
690.13	21497.82
690.27	21575.06
690.41	21069.50
690.54	20847.15
690.68	20725.44
690.81	20975.88
690.95	21020.35
691.08	20868.22
691.22	20734.81
691.35	20477.35
691.49	20905.66
691.62	20613.10
691.76	20397.77
691.89	20449.26
692.03	19936.68
692.16	20144.99
692.30	20318.19
692.43	20348.62
692.57	19637.09
692.70	20013.92
692.84	19953.07
692.97	19557.52
693.11	19559.86
693.24	19611.35
693.38	19524.75
693.51	19370.27
693.65	19328.14
693.78	19318.78
693.92	19363.25
694.05	19178.35
694.19	19152.60
694.32	19180.69
694.45	18623.64
694.59	18541.72
694.72	18670.45
694.86	18618.96
694.99	18548.75
695.13	18431.72
695.26	18558.11
695.39	18490.23
695.53	18508.96
695.66	18459.81
695.80	17802.11
695.93	18326.39
696.07	18001.06
696.20	18017.44
696.33	17968.29
696.47	18101.70
696.60	17720.20
696.73	17563.38
696.87	17319.96
697.00	17490.82
697.14	17561.04
697.27	17411.25
697.40	17668.70
697.54	17338.69
697.67	17022.72
697.80	16980.59
697.94	16748.87
698.07	17067.19
698.21	16961.86
698.34	16690.36
698.47	16622.48
698.61	16088.84
698.74	16545.25
698.87	16294.81
699.01	16091.18
699.14	16159.06
699.27	16042.03
699.40	16264.38
699.54	16341.62
699.67	15810.32
699.80	16166.08
699.94	15859.47
700.07	15688.61
700.20	15730.74
700.34	15562.22
700.47	15613.71
700.60	15616.05
700.73	15843.09
700.87	15936.71
701.00	15384.34
701.13	15538.82
701.26	15363.28
701.40	14946.66
701.53	14876.44
701.66	15215.82
701.79	14600.26
701.93	15084.75
702.06	14724.31
702.19	14794.53
702.32	15049.64
702.46	14595.58
702.59	14736.01
702.72	14593.24
702.85	14794.53
702.99	14373.23
703.12	14443.45
703.25	14008.11
703.38	14068.96
703.51	14024.49
703.65	14188.33
703.78	14181.31
703.91	13935.55
704.04	14090.02
704.17	13996.40
704.31	13853.63
704.44	13851.29
704.57	13631.28
704.70	13516.59
704.83	13334.03
704.96	13692.13
705.10	13561.06
705.23	13444.04
>>>>>End Processed Spectral Data<<<<<
