SpectraSuite Data File
++++++++++++++++++++++++++++++++++++
Date: Fri Oct 25 10:43:25 EDT 2013
User: price-jones
Dark Spectrum Present: No
Reference Spectrum Present: No
Number of Sampled Component Spectra: 1
Spectrometers: USB2+H05261
Integration Time (usec): 100000 (USB2+H05261)
Spectra Averaged: 1 (USB2+H05261)
Boxcar Smoothing: 0 (USB2+H05261)
Correct for Electrical Dark: No (USB2+H05261)
Strobe/Lamp Enabled: No (USB2+H05261)
Correct for Detector Non-linearity: No (USB2+H05261)
Correct for Stray Light: No (USB2+H05261)
Number of Pixels in Processed Spectrum: 2048
>>>>>Begin Processed Spectral Data<<<<<
365.73	77.24
365.92	77.24
366.12	77.24
366.32	46.81
366.52	4.68
366.72	11.70
366.91	32.77
367.11	0.00
367.31	72.56
367.51	0.00
367.70	30.43
367.90	16.38
368.10	95.96
368.30	46.81
368.49	0.00
368.69	0.00
368.89	91.28
369.09	0.00
369.28	51.49
369.48	21.06
369.68	79.58
369.87	51.49
370.07	39.79
370.27	74.90
370.47	175.54
370.66	365.12
370.86	489.17
371.06	468.11
371.25	468.11
371.45	493.85
371.65	397.89
371.84	475.13
372.04	444.70
372.24	538.32
372.44	440.02
372.63	465.77
372.83	540.66
373.03	468.11
373.22	498.53
373.42	505.56
373.62	526.62
373.81	585.13
374.01	557.05
374.21	629.60
374.40	514.92
374.60	491.51
374.79	521.94
374.99	587.47
375.19	521.94
375.38	617.90
375.58	500.87
375.78	601.52
375.97	557.05
376.17	514.92
376.37	585.13
376.56	629.60
376.76	676.41
376.95	578.11
377.15	631.94
377.35	631.94
377.54	622.58
377.74	528.96
377.93	606.20
378.13	638.97
378.33	636.63
378.52	688.12
378.72	702.16
378.91	671.73
379.11	704.50
379.31	573.43
379.50	641.31
379.70	725.57
379.89	709.18
380.09	608.54
380.28	641.31
380.48	662.37
380.68	669.39
380.87	709.18
381.07	643.65
381.26	716.20
381.46	723.23
381.65	636.63
381.85	667.05
382.04	704.50
382.24	664.71
382.43	685.78
382.63	688.12
382.83	730.25
383.02	770.04
383.22	699.82
383.41	713.86
383.61	837.91
383.80	755.99
384.00	767.70
384.19	755.99
384.39	772.38
384.58	727.91
384.78	763.01
384.97	737.27
385.17	704.50
385.36	704.50
385.56	716.20
385.75	727.91
385.95	840.25
386.14	866.00
386.34	903.45
386.53	929.19
386.72	748.97
386.92	814.51
387.11	856.64
387.31	903.45
387.50	844.93
387.70	777.06
387.89	844.93
388.09	887.06
388.28	875.36
388.48	856.64
388.67	887.06
388.86	947.92
389.06	959.62
389.25	997.07
389.45	926.85
389.64	877.70
389.84	997.07
390.03	994.73
390.22	849.61
390.42	968.98
390.61	915.15
390.81	992.39
391.00	994.73
391.19	1036.86
391.39	1022.81
391.58	929.19
391.78	1008.77
391.97	1001.75
392.16	1048.56
392.36	1076.65
392.55	971.32
392.75	1029.84
392.94	997.07
393.13	957.28
393.33	987.71
393.52	1074.31
393.71	1076.65
393.91	1015.79
394.10	1064.94
394.29	1125.80
394.49	1170.27
394.68	1090.69
394.88	1219.42
395.07	1177.29
395.26	1212.40
395.46	1198.35
395.65	1247.51
395.84	1132.82
396.04	1217.08
396.23	1177.29
396.42	1179.63
396.62	1142.18
396.81	1252.19
397.00	1214.74
397.19	1170.27
397.39	1282.61
397.58	1284.95
397.77	1301.34
397.97	1366.87
398.16	1399.64
398.35	1411.34
398.55	1392.62
398.74	1364.53
398.93	1526.03
399.12	1406.66
399.32	1497.94
399.51	1394.96
399.70	1526.03
399.90	1549.43
400.09	1554.12
400.28	1563.48
400.47	1544.75
400.67	1558.80
400.86	1643.06
401.05	1633.69
401.24	1636.03
401.44	1647.74
401.63	1626.67
401.82	1610.29
402.01	1664.12
402.21	1661.78
402.40	1671.14
402.59	1713.27
402.78	1678.16
402.97	1823.28
403.17	1820.94
403.36	1757.74
403.55	1811.57
403.74	1792.85
403.93	1811.57
404.13	1937.96
404.32	1799.87
404.51	1839.66
404.70	1891.15
404.89	1839.66
405.09	1942.64
405.28	1872.43
405.47	1877.11
405.66	1947.33
405.85	1851.36
406.05	1944.99
406.24	1996.48
406.43	2043.29
406.62	2073.71
406.81	2080.74
407.00	2036.27
407.20	2040.95
407.39	1977.75
407.58	2069.03
407.77	2127.55
407.96	2181.38
408.15	2181.38
408.34	2087.76
408.54	2181.38
408.73	2328.83
408.92	2190.74
409.11	2279.68
409.30	2239.89
409.49	2260.96
409.68	2270.32
409.87	2134.57
410.07	2326.49
410.26	2347.56
410.45	2296.07
410.64	2303.09
410.83	2349.90
411.02	2333.51
411.21	2403.73
411.40	2473.95
411.59	2574.59
411.78	2682.25
411.98	2605.02
412.17	2546.50
412.36	2649.49
412.55	2731.41
412.74	2642.46
412.93	2712.68
413.12	2715.02
413.31	2750.13
413.50	2733.75
413.69	2808.64
413.88	2932.69
414.07	2881.20
414.26	2909.29
414.45	2799.28
414.64	2890.56
414.83	2984.18
415.02	2984.18
415.22	2937.37
415.41	3091.85
415.60	3276.75
415.79	3178.45
415.98	3229.94
416.17	3089.51
416.36	3185.47
416.55	3159.72
416.74	3377.39
416.93	3183.13
417.12	3187.81
417.31	3148.02
417.50	3307.18
417.69	3351.65
417.88	3445.27
418.07	3222.92
418.26	3295.47
418.45	3349.31
418.64	3522.51
418.83	3496.76
419.02	3468.67
419.21	3620.81
419.39	3595.06
419.58	3541.23
419.77	3485.06
419.96	3508.46
420.15	3667.62
420.34	3646.55
420.53	3613.79
420.72	3756.56
420.91	3705.07
421.10	3726.13
421.29	3791.67
421.48	3691.02
421.67	3765.92
421.86	3632.51
422.05	3803.37
422.24	3667.62
422.43	3613.79
422.61	3777.62
422.80	3782.31
422.99	3789.33
423.18	3971.89
423.37	3824.44
423.56	3719.11
423.75	3796.35
423.94	3854.86
424.13	3543.57
424.32	3684.00
424.50	3995.29
424.69	3885.29
424.88	3927.42
425.07	3908.69
425.26	3794.01
425.45	3768.26
425.64	3761.24
425.83	3819.75
426.01	3894.65
426.20	3829.12
426.39	3831.46
426.58	3962.53
426.77	3899.33
426.96	3864.22
427.15	3894.65
427.33	3955.51
427.52	3934.44
427.71	3882.95
427.90	3981.25
428.09	3936.78
428.28	4004.66
428.46	3960.19
428.65	3840.82
428.84	4046.79
429.03	4095.94
429.22	3990.61
429.40	4145.09
429.59	4219.99
429.78	3885.29
429.97	3702.73
430.16	3918.06
430.34	4014.02
430.53	4095.94
430.72	4161.47
430.91	4081.89
431.10	4238.71
431.28	4442.34
431.47	4477.44
431.66	4688.09
431.85	4479.79
432.03	4608.51
432.22	4414.25
432.41	4582.77
432.60	4484.47
432.79	4517.23
432.97	4606.17
433.16	4660.01
433.35	4507.87
433.54	4566.39
433.72	4535.96
433.91	4503.19
434.10	4564.04
434.28	4683.41
434.47	4484.47
434.66	4704.48
434.85	4854.27
435.03	4613.20
435.22	4734.90
435.41	4987.68
435.59	4964.28
435.78	4917.47
435.97	4954.91
436.16	5090.67
436.34	4938.53
436.53	5022.79
436.72	5118.75
436.90	4999.38
437.09	4929.17
437.28	4898.74
437.46	4945.55
437.65	4950.23
437.84	5055.56
438.02	4954.91
438.21	5146.84
438.40	5018.11
438.58	5160.88
438.77	5329.40
438.96	5296.63
439.14	5423.02
439.33	5467.49
439.52	5516.64
439.70	5350.46
439.89	5638.35
440.08	5575.16
440.26	5633.67
440.45	5453.45
440.63	5806.87
440.82	5872.40
441.01	5816.23
441.19	5760.06
441.38	5949.64
441.57	5937.94
441.75	6076.03
441.94	6097.10
442.12	6099.44
442.31	6305.40
442.50	6225.82
442.68	6092.41
442.87	6108.80
443.05	6289.02
443.24	6193.06
443.43	6298.38
443.61	6202.42
443.80	6513.71
443.98	6267.95
444.17	6069.01
444.35	6319.45
444.54	6434.13
444.73	6480.94
444.91	6270.30
445.10	6258.59
445.28	6141.57
445.47	6143.91
445.65	6359.24
445.84	6399.02
446.02	6450.52
446.21	6483.28
446.39	6408.39
446.58	6420.09
446.77	6387.32
446.95	6277.32
447.14	6471.58
447.32	6642.44
447.51	6609.67
447.69	6471.58
447.88	6431.79
448.06	6441.15
448.25	6497.33
448.43	6569.88
448.62	6375.62
448.80	6572.22
448.99	6509.03
449.17	6651.80
449.36	6817.98
449.54	6768.83
449.73	6862.45
449.91	6902.24
450.10	6981.82
450.28	6930.33
450.46	7047.35
450.65	6913.94
450.83	7084.80
451.02	7059.06
451.20	7033.31
451.39	7049.69
451.57	6913.94
451.76	7169.06
451.94	7073.10
452.13	6953.73
452.31	7075.44
452.49	6867.13
452.68	6902.24
452.86	7040.33
453.05	7112.89
453.23	7215.87
453.42	7283.75
453.60	7133.95
453.78	7290.77
453.97	7082.46
454.15	7260.34
454.34	7265.02
454.52	7412.48
454.70	7396.09
454.89	7461.63
455.07	7370.35
455.26	7442.90
455.44	7389.07
455.62	7506.10
455.81	7370.35
455.99	7559.93
456.17	7681.64
456.36	7438.22
456.54	7653.55
456.73	7840.79
456.91	8004.63
457.09	7929.74
457.28	7985.91
457.46	7784.62
457.64	7941.44
457.83	7808.03
458.01	7688.66
458.19	7889.95
458.38	7906.33
458.56	7967.18
458.74	7953.14
458.93	7927.39
459.11	8105.28
459.29	8210.60
459.48	8161.45
459.66	7988.25
459.84	8346.35
460.03	8325.29
460.21	8369.76
460.39	8341.67
460.57	8339.33
460.76	8332.31
460.94	8477.42
461.12	8505.51
461.31	8465.72
461.49	8524.23
461.67	8500.83
461.85	8667.00
462.04	8472.74
462.22	9004.04
462.40	8608.49
462.59	8622.53
462.77	8695.09
462.95	8716.16
463.13	8594.45
463.32	8711.47
463.50	8676.37
463.68	8828.50
463.86	8809.78
464.05	8655.30
464.23	8720.84
464.41	8854.25
464.59	8741.90
464.78	8964.25
464.96	8877.65
465.14	8842.54
465.32	9004.04
465.50	9027.45
465.69	9111.71
465.87	9102.34
466.05	9069.58
466.23	8861.27
466.41	8994.68
466.60	9102.34
466.78	8791.05
466.96	8877.65
467.14	9036.81
467.32	9132.77
467.51	9233.41
467.69	9048.51
467.87	9289.59
468.05	9376.19
468.23	9233.41
468.41	9212.35
468.60	9303.63
468.78	9547.05
468.96	9465.13
469.14	9341.08
469.32	9537.68
469.50	9193.62
469.69	9444.06
469.87	9542.36
470.05	9652.37
470.23	9643.01
470.41	9731.95
470.59	9678.12
470.77	9671.09
470.95	9685.14
471.14	9848.97
471.32	9558.75
471.50	10134.52
471.68	10059.62
471.86	10209.42
472.04	10160.27
472.22	10244.52
472.40	9668.75
472.58	10087.71
472.77	10281.97
472.95	10445.81
473.13	10644.76
473.31	10181.33
473.49	10071.33
473.67	10265.59
473.85	10457.51
474.03	10799.23
474.21	10897.53
474.39	10841.36
474.57	10850.72
474.75	10984.13
474.93	10939.66
475.12	10817.96
475.30	11094.14
475.48	10934.98
475.66	11094.14
475.84	10984.13
476.02	11290.74
476.20	11143.29
476.38	11576.29
476.56	11599.70
476.74	11609.06
476.92	11606.72
477.10	11646.51
477.28	11819.71
477.46	12002.27
477.64	11943.75
477.82	11831.41
478.00	12379.09
478.18	12292.49
478.36	12226.96
478.54	12278.45
478.72	12430.59
478.90	12477.40
479.08	12645.91
479.26	12788.69
479.44	12840.18
479.62	12751.24
479.80	12936.14
479.98	13212.32
480.16	13312.97
480.34	13186.58
480.52	13610.22
480.70	13418.29
480.88	13497.87
481.06	13694.47
481.24	13518.93
481.41	14010.45
481.59	13998.74
481.77	13916.83
481.95	13998.74
482.13	14377.91
482.31	14443.45
482.49	14457.49
482.67	14258.54
482.85	14841.34
483.03	14923.26
483.21	14923.26
483.39	15129.22
483.57	14792.19
483.74	15122.20
483.92	15295.40
484.10	15056.67
484.28	15211.14
484.46	15466.26
484.64	15929.69
484.82	15585.63
485.00	15789.25
485.18	15913.30
485.35	16119.27
485.53	15669.89
485.71	15611.37
485.89	16297.15
486.07	16130.97
486.25	16362.69
486.43	16603.76
486.61	16664.61
486.78	16903.35
486.96	16943.14
487.14	17216.98
487.32	17350.39
487.50	17493.16
487.68	17532.95
487.85	17795.09
488.03	17830.20
488.21	18122.77
488.39	18340.44
488.57	18057.23
488.75	18223.41
488.92	18717.26
489.10	19194.73
489.28	18909.19
489.46	18920.89
489.64	19101.11
489.81	19796.25
489.99	19814.98
490.17	19861.79
490.35	19557.52
490.53	20053.71
490.70	20189.46
490.88	19939.02
491.06	20313.51
491.24	20418.83
491.41	20348.62
491.59	20355.64
491.77	20449.26
491.95	20559.27
492.13	20601.40
492.30	20989.92
492.48	21057.80
492.66	21209.93
492.84	21205.25
493.01	21350.37
493.19	21532.93
493.37	21874.65
493.54	21933.16
493.72	22155.51
493.90	21727.19
494.08	22487.87
494.25	22511.27
494.43	22230.41
494.61	22883.42
494.79	23136.20
494.96	22775.75
495.14	23236.84
495.32	23281.31
495.49	23084.70
495.67	23250.88
495.85	23594.94
496.02	23606.64
496.20	23768.14
496.38	24009.22
496.55	23964.75
496.73	24425.83
496.91	24252.63
497.09	24123.90
497.26	24547.54
497.44	24702.01
497.62	24608.39
497.79	24779.25
497.97	24421.15
498.14	25034.37
498.32	24746.48
498.50	25013.31
498.67	25659.29
498.85	25617.16
499.03	25556.31
499.20	25383.11
499.38	25851.22
499.56	25638.23
499.73	26225.70
499.91	26160.17
500.08	26162.51
500.26	25799.73
500.44	25626.53
500.61	26118.04
500.79	26389.54
500.97	26295.92
501.14	26749.98
501.32	26375.50
501.49	26396.56
501.67	26679.77
501.84	26787.43
502.02	26817.86
502.20	27185.32
502.37	27330.44
502.55	27234.47
502.72	27328.10
502.90	27370.22
503.07	27337.46
503.25	27498.95
503.43	27405.33
503.60	27435.76
503.78	27655.77
503.95	27522.36
504.13	28002.17
504.30	27866.42
504.48	27878.12
504.65	28505.38
504.83	28603.69
505.01	28535.81
505.18	28638.80
505.36	28891.57
505.53	28603.69
505.71	28847.10
505.88	29095.20
506.06	28748.80
506.23	29179.46
506.41	28912.64
506.58	29036.69
506.76	28978.17
506.93	29415.85
507.11	28875.19
507.28	29280.10
507.46	29633.52
507.63	28898.59
507.81	29795.02
507.98	29598.41
508.16	29930.77
508.33	30174.19
508.50	30031.41
508.68	30199.93
508.85	30586.12
509.03	30185.89
509.20	30345.05
509.38	30415.26
509.55	30600.16
509.73	30862.30
509.90	30668.04
510.08	30836.56
510.25	30895.07
510.42	30981.67
510.60	30951.24
510.77	31255.51
510.95	31463.82
511.12	31409.99
511.30	31154.87
511.47	31412.33
511.64	31854.69
511.82	31779.79
511.99	31356.16
512.17	31658.09
512.34	31227.43
512.51	31950.65
512.69	32119.17
512.86	31941.29
513.04	32163.64
513.21	31908.52
513.38	32294.71
513.56	32608.34
513.73	32107.47
513.90	32060.66
514.08	32364.93
514.25	32369.61
514.43	32432.80
514.60	32975.81
514.77	32369.61
514.95	32680.90
515.12	32842.40
515.29	33064.75
515.47	33326.89
515.64	33277.74
515.81	32856.44
515.99	33184.12
516.16	33413.49
516.33	32910.27
516.51	33144.33
516.68	32725.37
516.85	32542.81
517.03	33036.66
517.20	33516.47
517.37	33663.93
517.54	33809.04
517.72	33565.62
517.89	33439.23
518.06	33619.46
518.24	33612.43
518.41	34073.52
518.58	34043.09
518.75	34029.05
518.93	33907.34
519.10	34333.32
519.27	34438.64
519.45	34747.59
519.62	34588.44
519.79	34679.72
519.96	34600.14
520.14	34721.85
520.31	34459.71
520.48	35037.82
520.65	34946.54
520.83	35145.48
521.00	35248.47
521.17	35040.16
521.34	35065.91
521.52	35435.71
521.69	35477.84
521.86	35543.38
522.03	35414.65
522.20	35660.40
522.38	35700.19
522.55	35438.05
522.72	36233.83
522.89	35990.42
523.07	36261.92
523.24	35779.77
523.41	36060.63
523.58	36315.75
523.75	36257.24
523.92	36528.74
524.10	36444.48
524.27	36336.82
524.44	36713.64
524.61	36575.55
524.78	36737.05
524.96	36723.01
525.13	36945.36
525.30	37254.31
525.47	37158.34
525.64	36673.85
525.81	36488.95
525.98	37024.93
526.16	36889.18
526.33	36505.34
526.50	37024.93
526.67	36456.18
526.84	36842.37
527.01	36861.10
527.18	37230.90
527.36	37394.74
527.53	37345.59
527.70	37591.34
527.87	37598.37
528.04	37427.51
528.21	37724.75
528.38	37720.07
528.55	38602.46
528.72	38136.69
528.89	38225.63
529.07	38171.80
529.24	37958.81
529.41	37855.82
529.58	38122.65
529.75	38242.01
529.92	37876.89
530.09	38253.72
530.26	38469.04
530.43	38583.73
530.60	38536.92
530.77	38621.18
530.94	38974.60
531.11	38829.49
531.28	38415.21
531.46	38565.01
531.63	39136.10
531.80	38155.41
531.97	38925.45
532.14	38852.89
532.31	38064.13
532.48	38778.00
532.65	38834.17
532.82	38895.02
532.99	39143.12
533.16	38735.87
533.33	39402.92
533.50	39676.76
533.67	39281.21
533.84	39510.58
534.01	39344.41
534.18	38951.20
534.35	39945.92
534.52	39159.50
534.69	39468.45
534.86	39856.98
535.03	39992.73
535.20	40212.74
535.37	40048.91
535.54	40378.92
535.71	39995.07
535.88	40294.66
536.05	40154.23
536.22	39920.18
536.38	39913.16
536.55	40147.21
536.72	39924.86
536.89	39786.77
537.06	39735.27
537.23	40680.85
537.40	40240.83
537.57	40261.90
537.74	40294.66
537.91	40648.08
538.08	40493.61
538.25	40369.56
538.42	40914.90
538.59	40809.58
538.75	40179.98
538.92	40870.43
539.09	40737.02
539.26	40762.77
539.43	40673.83
539.60	40914.90
539.77	40648.08
539.94	40570.85
540.11	40610.64
540.28	40610.64
540.44	40865.75
540.61	40636.38
540.78	40804.90
540.95	40971.08
541.12	40989.80
541.29	40610.64
541.46	41251.94
541.62	41139.60
541.79	41598.34
541.96	40942.99
542.13	41228.54
542.30	41577.28
542.47	41478.97
542.63	41502.38
542.80	41652.17
542.97	41909.63
543.14	41926.02
543.31	41773.88
543.48	42014.96
543.64	42122.62
543.81	42354.33
543.98	42124.96
544.15	41776.22
544.32	42160.07
544.48	42632.86
544.65	41977.51
544.82	42136.66
544.99	41872.18
545.16	42415.19
545.32	42087.51
545.49	42766.27
545.66	42422.21
545.83	42265.39
546.00	42307.52
546.16	42368.38
546.33	42494.77
546.50	42499.45
546.67	42948.83
546.83	42021.98
547.00	42384.76
547.17	42843.51
547.34	42078.15
547.50	42918.40
547.67	43070.54
547.84	43012.02
548.00	42801.38
548.17	43283.53
548.34	43058.84
548.51	43243.74
548.67	43262.46
548.84	43267.14
549.01	42712.44
549.18	42574.34
549.34	43337.36
549.51	43316.29
549.68	42614.13
549.84	43278.85
550.01	43679.08
550.18	43175.86
550.34	43428.64
550.51	43091.60
550.68	43225.01
550.84	43096.28
551.01	43049.47
551.18	43412.26
551.34	43407.58
551.51	43328.00
551.68	44062.93
551.84	43311.61
552.01	43269.48
552.18	43311.61
552.34	43386.51
552.51	43679.08
552.68	43688.44
552.84	43639.29
553.01	43746.95
553.18	43442.68
553.34	43555.03
553.51	43672.06
553.67	44006.75
553.84	44189.31
554.01	44264.21
554.17	44107.40
554.34	43753.97
554.51	43660.35
554.67	44182.29
554.84	44088.67
555.00	43763.34
555.17	44275.91
555.33	44615.29
555.50	44034.84
555.67	44072.29
555.83	44348.47
556.00	44201.02
556.16	44296.98
556.33	44062.93
556.50	44172.93
556.66	44231.44
556.83	43784.40
556.99	44062.93
557.16	44315.70
557.32	43709.50
557.49	44481.88
557.65	43978.67
557.82	44236.12
557.98	44222.08
558.15	44514.65
558.32	44612.95
558.48	44240.81
558.65	44116.76
558.81	44596.57
558.98	44545.08
559.14	44570.82
559.31	44498.26
559.47	44687.85
559.64	44617.63
559.80	44851.69
559.97	44741.68
560.13	44219.74
560.30	44301.66
560.46	44315.70
560.63	45008.50
560.79	45106.80
560.96	44926.58
561.12	44432.73
561.29	44662.10
561.45	44708.91
561.61	44570.82
561.78	44545.08
561.94	44463.16
562.11	44442.09
562.27	44758.06
562.44	44800.19
562.60	44809.56
562.77	44947.65
562.93	45052.97
563.10	45221.49
563.26	44563.80
563.42	45380.65
563.59	45214.47
563.75	44907.86
563.92	45057.65
564.08	44722.96
564.24	45202.77
564.41	45338.52
564.57	44952.33
564.74	44980.42
564.90	44896.16
565.07	44556.78
565.23	45172.34
565.39	44802.53
565.56	44861.05
565.72	44570.82
565.88	44886.79
566.05	44690.19
566.21	44896.16
566.38	45057.65
566.54	45099.78
566.70	45502.35
566.87	45612.36
567.03	44996.80
567.19	45542.14
567.36	45104.46
567.52	45141.91
567.68	45244.90
567.85	44528.69
568.01	45364.26
568.17	45322.13
568.34	45647.47
568.50	44898.50
568.66	45102.12
568.83	45048.29
568.99	45207.45
569.15	45146.59
569.32	45109.14
569.48	45020.20
569.64	45162.98
569.81	45148.93
569.97	45116.17
570.13	45319.79
570.30	45017.86
570.46	44942.97
570.62	45031.91
570.78	44746.36
570.95	44844.66
571.11	45308.09
571.27	45097.44
571.43	45099.78
571.60	45205.11
571.76	45443.84
571.92	45357.24
572.09	45382.99
572.25	45296.39
572.41	45366.60
572.57	45038.93
572.74	45841.73
572.90	45432.14
573.06	45619.38
573.22	45509.38
573.38	45375.97
573.55	45144.25
573.71	45949.40
573.87	45713.00
574.03	45155.96
574.20	45123.19
574.36	45237.87
574.52	45986.85
574.68	45628.74
574.84	45619.38
575.01	45514.06
575.17	45476.61
575.33	45240.21
575.49	45282.34
575.65	45436.82
575.82	45378.31
575.98	45319.79
576.14	45691.94
576.30	45193.40
576.46	45230.85
576.62	45207.45
576.79	45118.51
576.95	45010.84
577.11	45710.66
577.27	44889.13
577.43	45539.80
577.59	45188.72
577.75	45209.79
577.92	44807.22
578.08	45088.08
578.24	45244.90
578.40	45390.01
578.56	45284.68
578.72	45350.22
578.88	45455.54
579.04	45429.80
579.21	45153.62
579.37	45603.00
579.53	45294.05
579.69	45298.73
579.85	45429.80
580.01	45497.67
580.17	45165.32
580.33	45427.46
580.49	45322.13
580.65	45387.67
580.82	45752.79
580.98	44999.14
581.14	45186.38
581.30	45490.65
581.46	45333.84
581.62	45617.04
581.78	45343.20
581.94	45867.48
582.10	45607.68
582.26	45509.38
582.42	45446.18
582.58	45584.27
582.74	45095.10
582.90	45406.39
583.06	45823.01
583.22	45689.60
583.38	45729.39
583.54	45961.10
583.70	45399.37
583.86	46017.27
584.02	45682.58
584.18	45492.99
584.34	45958.76
584.50	45530.44
584.66	45673.21
584.82	45387.67
584.98	46169.41
585.14	45081.06
585.30	45453.20
585.46	45490.65
585.62	45289.37
585.78	45408.73
585.94	45291.71
586.10	45198.09
586.26	45523.42
586.42	45586.61
586.58	45724.71
586.74	45628.74
586.90	45787.90
587.06	45532.78
587.22	45631.08
587.38	45013.18
587.54	45801.94
587.70	45900.25
587.86	45680.24
588.02	45804.28
588.18	45771.52
588.34	45469.59
588.49	44910.20
588.65	45160.64
588.81	45184.04
588.97	44985.10
589.13	44952.33
589.29	45385.33
589.45	45345.54
589.61	45652.15
589.77	45975.14
589.93	45649.81
590.08	45502.35
590.24	46155.36
590.40	45846.41
590.56	46218.56
590.72	45670.87
590.88	45574.91
591.04	45628.74
591.20	45935.35
591.35	45820.67
591.51	46010.25
591.67	45305.75
591.83	45485.97
591.99	45352.56
592.15	45511.72
592.31	45954.08
592.46	45684.92
592.62	45481.29
592.78	45860.46
592.94	45724.71
593.10	45464.91
593.26	45818.33
593.41	45940.04
593.57	45586.61
593.73	45734.07
593.89	46155.36
594.05	45799.60
594.20	45979.82
594.36	45682.58
594.52	45834.71
594.68	45530.44
594.84	45322.13
594.99	46155.36
595.15	45998.55
595.31	46244.30
595.47	46026.63
595.62	45743.43
595.78	45909.61
595.94	46010.25
596.10	45914.29
596.25	45670.87
596.41	45823.01
596.57	45778.54
596.73	45698.96
596.88	45380.65
597.04	45689.60
597.20	45413.41
597.36	45598.32
597.51	45869.82
597.67	45649.81
597.83	45911.95
597.99	46230.26
598.14	46028.98
598.30	45738.75
598.46	45888.54
598.61	45794.92
598.77	45722.37
598.93	45734.07
599.09	46181.11
599.24	45858.12
599.40	46195.15
599.56	45951.74
599.71	45720.02
599.87	45935.35
600.03	45666.19
600.18	45542.14
600.34	45778.54
600.50	45603.00
600.65	45390.01
600.81	45769.18
600.97	45925.99
601.12	45975.14
601.28	45832.37
601.44	45270.64
601.59	46021.95
601.75	45443.84
601.91	45698.96
602.06	45979.82
602.22	45897.91
602.37	46101.53
602.53	45858.12
602.69	46115.58
602.84	45872.16
603.00	45839.39
603.16	46267.71
603.31	45844.07
603.47	45614.70
603.62	45432.14
603.78	45844.07
603.94	45804.28
604.09	45750.45
604.25	45776.20
604.40	45357.24
604.56	45504.70
604.71	45668.53
604.87	45670.87
605.03	45684.92
605.18	45605.34
605.34	45464.91
605.49	45619.38
605.65	45827.69
605.80	45535.12
605.96	45603.00
606.12	45542.14
606.27	45729.39
606.43	45628.74
606.58	45425.12
606.74	45549.17
606.89	45895.56
607.05	45584.27
607.20	45794.92
607.36	45385.33
607.51	46258.35
607.67	45326.81
607.82	45167.66
607.98	45415.76
608.13	45542.14
608.29	45399.37
608.44	45577.25
608.60	44418.69
608.75	45390.01
608.91	45511.72
609.06	44692.53
609.22	45436.82
609.37	45434.48
609.53	45017.86
609.68	45474.27
609.84	45492.99
609.99	44882.11
610.15	45081.06
610.30	44842.32
610.46	45134.89
610.61	44994.46
610.76	44603.59
610.92	45806.62
611.07	45315.11
611.23	45408.73
611.38	45289.37
611.54	44973.39
611.69	44659.76
611.84	44931.26
612.00	44664.44
612.15	45067.02
612.31	44868.07
612.46	45097.44
612.62	45085.74
612.77	44779.13
612.92	44624.65
613.08	45024.89
613.23	44584.86
613.39	44488.90
613.54	44205.70
613.69	44933.60
613.85	44233.78
614.00	44631.68
614.15	44648.06
614.31	44671.46
614.46	45062.33
614.62	45022.54
614.77	44739.34
614.92	44814.24
615.08	44472.52
615.23	44575.50
615.38	44781.47
615.54	44399.96
615.69	44638.70
615.84	43952.92
616.00	44318.04
616.15	44435.07
616.30	44512.31
616.46	44093.35
616.61	44196.34
616.76	44189.31
616.92	43775.04
617.07	43999.73
617.22	43913.13
617.37	44161.23
617.53	44561.46
617.68	44748.70
617.83	44245.49
617.99	43924.83
618.14	44144.84
618.29	43716.53
618.45	43847.60
618.60	43487.15
618.75	43908.45
618.90	43632.27
619.06	44100.37
619.21	43672.06
619.36	44116.76
619.51	43707.16
619.67	43262.46
619.82	43702.48
619.97	43576.09
620.12	43566.73
620.28	43124.37
620.43	43784.40
620.58	43166.50
620.73	43344.38
620.89	43679.08
621.04	43487.15
621.19	43786.74
621.34	43618.22
621.49	43398.21
621.65	43501.20
621.80	44083.99
621.95	43107.99
622.10	43569.07
622.25	43618.22
622.41	43580.78
622.56	43103.31
622.71	43566.73
622.86	43477.79
623.01	43398.21
623.16	43470.77
623.32	42710.10
623.47	43573.75
623.62	43419.28
623.77	43276.51
623.92	43168.84
624.07	42988.62
624.23	42923.08
624.38	42925.42
624.53	43084.58
624.68	43093.94
624.83	42747.54
624.98	42637.54
625.13	43044.79
625.29	42588.39
625.44	42911.38
625.59	42548.60
625.74	42588.39
625.89	42607.11
626.04	42932.45
626.19	42501.79
626.34	42660.94
626.49	42792.01
626.65	42553.28
626.80	42724.14
626.95	42312.20
627.10	42169.43
627.25	42581.37
627.40	42309.86
627.55	42160.07
627.70	42197.52
627.85	41881.55
628.00	42057.09
628.15	42185.82
628.30	42335.61
628.45	42232.63
628.60	42616.47
628.76	42445.62
628.91	42326.25
629.06	41818.35
629.21	42178.79
629.36	42354.33
629.51	42089.85
629.66	41745.80
629.81	41661.54
629.96	41813.67
630.11	42047.72
630.26	41972.83
630.41	41954.10
630.56	42031.34
630.71	41654.51
630.86	41886.23
631.01	41656.85
631.16	41574.94
631.31	41624.09
631.46	41233.22
631.61	41464.93
631.76	41375.99
631.91	41556.21
632.06	41347.90
632.21	41624.09
632.36	41570.25
632.51	41214.49
632.66	41301.09
632.81	41345.56
632.96	41614.72
633.10	41123.21
633.25	41078.74
633.40	41219.17
633.55	41247.26
633.70	40954.69
633.85	41209.81
634.00	41233.22
634.15	41628.77
634.30	40889.16
634.45	40996.82
634.60	41359.61
634.75	40814.26
634.90	40884.48
635.05	40811.92
635.19	41277.69
635.34	41457.91
635.49	41148.96
635.64	40863.41
635.79	41060.02
635.94	40624.68
636.09	40722.98
636.24	40584.89
636.39	40388.28
636.53	40758.09
636.68	40627.02
636.83	40793.20
636.98	41078.74
637.13	40538.08
637.28	41038.95
637.43	40924.27
637.57	40912.56
637.72	40540.42
637.87	40680.85
638.02	40460.84
638.17	40905.54
638.32	40491.27
638.46	40563.82
638.61	40076.99
638.76	40058.27
638.91	39981.03
639.06	40189.34
639.20	40484.25
639.35	40900.86
639.50	40535.74
639.65	40329.77
639.80	40179.98
639.94	40416.37
640.09	40170.61
640.24	40154.23
640.39	40116.78
640.54	40219.77
640.68	39739.96
640.83	39742.30
640.98	39707.19
641.13	39777.40
641.27	39814.85
641.42	39536.33
641.57	39913.16
641.72	40076.99
641.86	39665.06
642.01	39133.76
642.16	39866.34
642.31	39831.24
642.45	39498.88
642.60	39466.11
642.75	39229.72
642.90	39714.21
643.04	39838.26
643.19	39103.33
643.34	39669.74
643.48	39297.59
643.63	39629.95
643.78	39452.07
643.93	39826.56
644.07	39056.52
644.22	39342.06
644.37	39023.75
644.51	39145.46
644.66	39524.63
644.81	39306.96
644.95	39309.30
645.10	39686.12
645.25	39274.19
645.39	39173.55
645.54	39044.82
645.69	38916.09
645.83	38946.51
645.98	38515.86
646.13	38988.64
646.27	38836.51
646.42	39026.09
646.57	38955.88
646.71	39194.61
646.86	38761.61
647.00	38635.22
647.15	38586.07
647.30	39264.83
647.44	38501.81
647.59	38789.70
647.74	38230.31
647.88	38127.33
648.03	38141.37
648.17	38373.08
648.32	38569.69
648.47	38637.56
648.61	38132.01
648.76	38628.20
648.90	38281.80
649.05	38340.32
649.20	38824.81
649.34	38436.28
649.49	38469.04
649.63	38623.52
649.78	38817.78
649.92	38487.77
650.07	38455.00
650.21	38017.32
650.36	38485.43
650.51	38450.32
650.65	38653.95
650.80	38696.08
650.94	38143.71
651.09	38330.95
651.23	38106.26
651.38	38085.20
651.52	37872.21
651.67	37771.57
651.81	37827.74
651.96	37626.45
652.10	37755.18
652.25	38237.33
652.39	37628.79
652.54	37628.79
652.68	37984.55
652.83	38061.79
652.97	38239.67
653.12	37890.93
653.26	37553.90
653.41	37509.43
653.55	37696.67
653.70	37706.03
653.84	38026.68
653.99	37663.90
654.13	37766.88
654.27	37743.48
654.42	37801.99
654.56	38092.22
654.71	37558.58
654.85	37551.56
655.00	37907.32
655.14	37184.09
655.29	37139.62
655.43	37443.89
655.57	36699.60
655.72	37008.55
655.86	37298.78
656.01	37111.53
656.15	36414.05
656.30	36882.16
656.44	37223.88
656.58	36994.51
656.73	37125.58
656.87	36900.89
657.01	36800.24
657.16	36439.80
657.30	36701.94
657.45	36629.38
657.59	36659.81
657.73	36793.22
657.88	36872.80
658.02	37034.30
658.16	36793.22
658.31	36732.37
658.45	37380.70
658.60	36397.67
658.74	36987.49
658.88	37251.97
659.03	36428.10
659.17	36463.21
659.31	35985.74
659.46	36133.19
659.60	36339.16
659.74	36666.83
659.89	36318.09
660.03	36395.33
660.17	36364.90
660.32	36261.92
660.46	36411.71
660.60	36423.42
660.74	36201.07
660.89	36374.27
661.03	35744.66
661.17	35995.10
661.32	35796.15
661.46	36074.68
661.60	35555.08
661.74	35929.56
661.89	35374.86
662.03	35653.38
662.17	35529.33
662.31	35824.24
662.46	35840.62
662.60	35864.03
662.74	35803.17
662.88	35391.24
663.03	35517.63
663.17	35311.66
663.31	35356.13
663.45	35512.95
663.60	35257.83
663.74	34962.92
663.88	34904.41
664.02	34988.67
664.17	35384.22
664.31	34873.98
664.45	34838.87
664.59	34831.85
664.73	34754.61
664.88	34714.83
665.02	34291.19
665.16	34230.33
665.30	34389.49
665.44	34464.39
665.59	34417.58
665.73	34553.33
665.87	33902.66
666.01	34616.52
666.15	34312.25
666.29	34347.36
666.44	34211.61
666.58	34227.99
666.72	33928.41
666.86	34319.28
667.00	34181.18
667.14	33855.85
667.28	33766.91
667.43	33879.25
667.57	33942.45
667.71	33874.57
667.85	33848.83
667.99	34326.30
668.13	34045.43
668.27	33497.75
668.41	33551.58
668.56	33851.17
668.70	33390.08
668.84	33064.75
668.98	32797.93
669.12	33020.28
669.26	33240.29
669.40	33141.99
669.54	33064.75
669.68	32833.04
669.82	32589.62
669.96	32664.52
670.10	32865.80
670.25	32910.27
670.39	32760.48
670.53	32699.62
670.67	32458.55
670.81	32437.48
670.95	32596.64
671.09	32297.05
671.23	31845.33
671.37	32446.85
671.51	32334.50
671.65	32395.35
671.79	31494.25
671.93	32020.87
672.07	32030.23
672.21	31749.37
672.35	31791.50
672.49	31913.20
672.63	31754.05
672.77	31541.06
672.91	31775.11
673.05	31276.58
673.19	31384.24
673.33	31335.09
673.47	31255.51
673.61	31117.42
673.75	30934.86
673.89	31187.64
674.03	31061.25
674.17	31185.30
674.31	30852.94
674.45	30700.81
674.59	31012.10
674.73	31056.57
674.87	30988.69
675.01	30522.93
675.15	30771.02
675.29	30546.33
675.43	30670.38
675.56	30560.37
675.70	30621.23
675.84	30644.63
675.98	29539.90
676.12	30059.50
676.26	30462.07
676.40	30235.04
676.54	30066.52
676.68	29851.19
676.82	29230.95
676.96	29809.06
677.10	29329.25
677.23	29699.06
677.37	29172.44
677.51	29273.08
677.65	28954.77
677.79	28397.72
677.93	28615.39
678.07	28842.42
678.21	27859.40
678.34	28208.14
678.48	28465.60
678.62	28140.26
678.76	28161.33
678.90	28048.98
679.04	28130.90
679.18	27873.44
679.31	27683.86
679.45	27449.80
679.59	27938.97
679.73	27592.58
679.87	27566.83
680.00	27494.27
680.14	27208.73
680.28	27300.01
680.42	27562.15
680.56	26995.74
680.70	27309.37
680.83	27089.36
680.97	26876.37
681.11	26918.50
681.25	26925.52
681.39	26738.28
681.52	26785.09
681.66	26696.15
681.80	26389.54
681.94	26267.83
682.07	26567.42
682.21	26265.49
682.35	26089.95
682.49	26078.25
682.62	26347.41
682.76	25862.92
682.90	25876.96
683.04	25858.24
683.17	25764.62
683.31	25521.20
683.45	25687.38
683.59	25493.12
683.72	25525.88
683.86	25333.96
684.00	25172.46
684.13	25099.90
684.27	24961.81
684.41	24812.02
684.55	24833.08
684.68	25053.09
684.82	24807.34
684.96	24711.38
685.09	24767.55
685.23	24437.53
685.37	24533.50
685.50	24446.90
685.64	24467.96
685.78	23873.46
685.91	23985.81
686.05	23789.20
686.19	23611.32
686.32	23803.25
686.46	23377.27
686.60	23138.54
686.73	22913.84
686.87	23204.07
687.01	23232.16
687.14	22794.48
687.28	23175.98
687.42	22574.47
687.55	23051.94
687.69	22923.21
687.82	22721.92
687.96	22647.02
688.10	22546.38
688.23	22530.00
688.37	22331.05
688.50	22548.72
688.64	22434.03
688.78	22120.40
688.91	21851.24
689.05	21577.40
689.18	21685.06
689.32	21362.07
689.46	21989.33
689.59	21949.54
689.73	21619.53
689.86	21539.95
690.00	21568.04
690.13	21666.34
690.27	21090.57
690.41	21132.70
690.54	20751.19
690.68	20982.90
690.81	21359.73
690.95	20847.15
691.08	21050.78
691.22	21125.68
691.35	20772.25
691.49	20816.72
691.62	20868.22
691.76	20706.72
691.89	20400.11
692.03	20386.07
692.16	20318.19
692.30	20093.50
692.43	20306.49
692.57	20049.03
692.70	19672.20
692.84	19618.37
692.97	19566.88
693.11	19442.83
693.24	19318.78
693.38	19227.50
693.51	19737.74
693.65	19440.49
693.78	19161.97
693.92	19131.54
694.05	18993.45
694.19	19241.54
694.32	18970.04
694.45	19173.67
694.59	18948.98
694.72	18728.97
694.86	18878.76
694.99	18377.89
695.13	18466.83
695.26	18466.83
695.39	18333.42
695.53	18375.55
695.66	18291.29
695.80	18221.07
695.93	18071.28
696.07	17987.02
696.20	18181.28
696.33	18139.15
696.47	17949.57
696.60	17879.35
696.73	17652.32
696.87	17675.73
697.00	17626.57
697.14	17483.80
697.27	17158.47
697.40	17254.43
697.54	17310.60
697.67	17097.61
697.80	17137.40
697.94	16985.27
698.07	17163.15
698.21	16755.90
698.34	17043.78
698.47	16788.66
698.61	16549.93
698.74	16844.84
698.87	16524.18
699.01	16329.92
699.14	16273.74
699.27	15782.23
699.40	16137.99
699.54	15934.37
699.67	15850.11
699.80	15913.30
699.94	15903.94
700.07	15845.43
700.20	15719.04
700.34	15754.15
700.47	15742.44
700.60	15655.84
700.73	15693.29
700.87	15548.18
701.00	15625.42
701.13	15297.74
701.26	15232.21
701.40	15365.62
701.53	15108.16
701.66	15096.46
701.79	14565.15
701.93	14766.44
702.06	14731.33
702.19	14714.95
702.32	14820.27
702.46	14771.12
702.59	14572.18
702.72	14846.02
702.85	14752.40
702.99	14588.56
703.12	14286.63
703.25	14291.31
703.38	14132.15
703.51	14310.04
703.65	14019.81
703.78	14101.73
703.91	13886.40
704.04	14171.94
704.17	13984.70
704.31	13755.33
704.44	13565.74
704.57	13516.59
704.70	13633.62
704.83	13617.24
704.96	13432.33
705.10	13397.23
705.23	13209.98
>>>>>End Processed Spectral Data<<<<<
