SpectraSuite Data File
++++++++++++++++++++++++++++++++++++
Date: Fri Oct 25 11:33:33 EDT 2013
User: price-jones
Dark Spectrum Present: No
Reference Spectrum Present: No
Number of Sampled Component Spectra: 1
Spectrometers: USB2+H05261
Integration Time (usec): 100000 (USB2+H05261)
Spectra Averaged: 1 (USB2+H05261)
Boxcar Smoothing: 0 (USB2+H05261)
Correct for Electrical Dark: No (USB2+H05261)
Strobe/Lamp Enabled: No (USB2+H05261)
Correct for Detector Non-linearity: No (USB2+H05261)
Correct for Stray Light: No (USB2+H05261)
Number of Pixels in Processed Spectrum: 2048
>>>>>Begin Processed Spectral Data<<<<<
365.73	285.55
365.92	285.55
366.12	285.55
366.32	215.33
366.52	191.92
366.72	203.63
366.91	163.84
367.11	210.65
367.31	112.35
367.51	184.90
367.70	152.13
367.90	187.24
368.10	124.05
368.30	201.29
368.49	142.77
368.69	201.29
368.89	229.37
369.09	140.43
369.28	203.63
369.48	175.54
369.68	191.92
369.87	283.20
370.07	205.97
370.27	224.69
370.47	294.91
370.66	470.45
370.86	524.28
371.06	503.22
371.25	557.05
371.45	547.69
371.65	599.18
371.84	559.39
372.04	538.32
372.24	573.43
372.44	571.09
372.63	540.66
372.83	613.22
373.03	573.43
373.22	613.22
373.42	505.56
373.62	695.14
373.81	631.94
374.01	664.71
374.21	634.29
374.40	688.12
374.60	657.69
374.79	650.67
374.99	653.01
375.19	683.44
375.38	608.54
375.58	634.29
375.78	674.07
375.97	592.16
376.17	709.18
376.37	683.44
376.56	641.31
376.76	674.07
376.95	631.94
377.15	683.44
377.35	667.05
377.54	699.82
377.74	688.12
377.93	627.26
378.13	699.82
378.33	674.07
378.52	718.54
378.72	692.80
378.91	688.12
379.11	660.03
379.31	711.52
379.50	688.12
379.70	720.88
379.89	730.25
380.09	802.80
380.28	746.63
380.48	734.93
380.68	709.18
380.87	744.29
381.07	671.73
381.26	786.42
381.46	739.61
381.65	786.42
381.85	718.54
382.04	779.40
382.24	807.48
382.43	779.40
382.63	751.31
382.83	741.95
383.02	755.99
383.22	847.27
383.41	795.78
383.61	835.57
383.80	751.31
384.00	826.21
384.19	863.66
384.39	842.59
384.58	781.74
384.78	877.70
384.97	795.78
385.17	877.70
385.36	884.72
385.56	821.53
385.75	868.34
385.95	924.51
386.14	875.36
386.34	823.87
386.53	837.91
386.72	814.51
386.92	938.55
387.11	823.87
387.31	917.49
387.50	842.59
387.70	915.15
387.89	882.38
388.09	933.87
388.28	924.51
388.48	842.59
388.67	976.00
388.86	880.04
389.06	936.21
389.25	973.66
389.45	950.26
389.64	849.61
389.84	968.98
390.03	987.71
390.22	898.77
390.42	968.98
390.61	971.32
390.81	985.37
391.00	990.05
391.19	1107.07
391.39	973.66
391.58	973.66
391.78	1095.37
391.97	1048.56
392.16	992.39
392.36	1032.18
392.55	1036.86
392.75	1039.20
392.94	1071.97
393.13	1020.47
393.33	1090.69
393.52	1043.88
393.71	1090.69
393.91	1060.26
394.10	1095.37
394.29	1057.92
394.49	1069.62
394.68	1062.60
394.88	1137.50
395.07	1198.35
395.26	1104.73
395.46	1184.31
395.65	1172.61
395.84	1224.10
396.04	1294.32
396.23	1242.82
396.42	1181.97
396.62	1186.65
396.81	1228.78
397.00	1163.25
397.19	1233.46
397.39	1160.91
397.58	1273.25
397.77	1174.95
397.97	1259.21
398.16	1219.42
398.35	1310.70
398.55	1231.12
398.74	1287.29
398.93	1336.45
399.12	1294.32
399.32	1261.55
399.51	1383.26
399.70	1441.77
399.90	1357.51
400.09	1359.85
400.28	1455.81
400.47	1418.36
400.67	1441.77
400.86	1376.24
401.05	1315.38
401.24	1490.92
401.44	1504.96
401.63	1479.22
401.82	1479.22
402.01	1551.78
402.21	1437.09
402.40	1497.94
402.59	1409.00
402.78	1589.22
402.97	1486.24
403.17	1500.28
403.36	1490.92
403.55	1427.73
403.74	1502.62
403.93	1547.09
404.13	1598.59
404.32	1652.42
404.51	1629.01
404.70	1652.42
404.89	1636.03
405.09	1624.33
405.28	1593.90
405.47	1640.72
405.66	1722.63
405.85	1823.28
406.05	1647.74
406.24	1659.44
406.43	1746.04
406.62	1858.39
406.81	1746.04
407.00	1755.40
407.20	1849.02
407.39	1823.28
407.58	1748.38
407.77	1851.36
407.96	1837.32
408.15	1774.13
408.34	1935.62
408.54	1844.34
408.73	1830.30
408.92	1923.92
409.11	1865.41
409.30	1970.73
409.49	2019.88
409.68	2078.40
409.87	2012.86
410.07	2038.61
410.26	2113.50
410.45	2040.95
410.64	2022.22
410.83	2092.44
411.02	2160.31
411.21	2214.15
411.40	2097.12
411.59	2134.57
411.78	2129.89
411.98	2200.10
412.17	2277.34
412.36	2209.47
412.55	2305.43
412.74	2258.62
412.93	2293.72
413.12	2347.56
413.31	2480.97
413.50	2338.20
413.69	2413.09
413.88	2406.07
414.07	2452.88
414.26	2476.29
414.45	2473.95
414.64	2560.55
414.83	2637.78
415.02	2553.52
415.22	2555.86
415.41	2717.36
415.60	2574.59
415.79	2691.62
415.98	2724.38
416.17	2665.87
416.36	2579.27
416.55	2677.57
416.74	2766.51
416.93	2752.47
417.12	2813.32
417.31	2850.77
417.50	2789.92
417.69	2899.92
417.88	2920.99
418.07	2981.84
418.26	3052.06
418.45	3089.51
418.64	2988.86
418.83	3173.77
419.02	3075.46
419.21	3047.38
419.39	3056.74
419.58	3087.17
419.77	3084.83
419.96	3063.76
420.15	3262.71
420.34	3265.05
420.53	3183.13
420.72	3101.21
420.91	3126.96
421.10	3325.90
421.29	3232.28
421.48	3213.56
421.67	3370.37
421.86	3323.56
422.05	3351.65
422.24	3145.68
422.43	3489.74
422.61	3335.26
422.80	3396.12
422.99	3480.38
423.18	3428.88
423.37	3471.01
423.56	3417.18
423.75	3349.31
423.94	3283.77
424.13	3201.85
424.32	3211.22
424.50	3419.52
424.69	3419.52
424.88	3602.08
425.07	3442.93
425.26	3272.07
425.45	3372.71
425.64	3478.04
425.83	3426.54
426.01	3496.76
426.20	3375.05
426.39	3377.39
426.58	3506.12
426.77	3463.99
426.96	3588.04
427.15	3492.08
427.33	3616.13
427.52	3557.61
427.71	3634.85
427.90	3726.13
428.09	3716.77
428.28	3660.60
428.46	3660.60
428.65	3632.51
428.84	3801.03
429.03	3873.59
429.22	3653.58
429.40	3815.07
429.59	3819.75
429.78	3625.49
429.97	3623.15
430.16	3726.13
430.34	3812.73
430.53	3819.75
430.72	3936.78
430.91	3861.88
431.10	3829.12
431.28	3850.18
431.47	3887.63
431.66	3906.35
431.85	3861.88
432.03	3985.93
432.22	4201.26
432.41	4046.79
432.60	3981.25
432.79	3880.61
432.97	3971.89
433.16	4124.02
433.35	4203.60
433.54	4135.73
433.72	4257.43
433.91	4234.03
434.10	4196.58
434.28	4166.15
434.47	4198.92
434.66	4248.07
434.85	4360.42
435.03	4374.46
435.22	4332.33
435.41	4306.59
435.59	4259.78
435.78	4386.16
435.97	4505.53
436.16	4234.03
436.34	4348.72
436.53	4484.47
436.72	4533.62
436.90	4418.93
437.09	4627.24
437.28	4512.55
437.46	4486.81
437.65	4533.62
437.84	4823.84
438.02	4589.79
438.21	4601.49
438.40	4535.96
438.58	4856.61
438.77	4840.23
438.96	4713.84
439.14	4812.14
439.33	4777.03
439.52	4800.44
439.70	4833.21
439.89	4936.19
440.08	5050.88
440.26	4891.72
440.45	4992.36
440.63	5074.28
440.82	5093.01
441.01	5083.64
441.19	5217.05
441.38	5385.57
441.57	5261.52
441.75	5259.18
441.94	5516.64
442.12	5387.91
442.31	5430.04
442.50	5434.72
442.68	5427.70
442.87	5441.75
443.05	5526.00
443.24	5614.95
443.43	5488.56
443.61	5507.28
443.80	5633.67
443.98	5549.41
444.17	5408.98
444.35	5509.62
444.54	5624.31
444.73	5706.23
444.91	5671.12
445.10	5586.86
445.28	5643.03
445.47	5657.07
445.65	5710.91
445.84	5696.86
446.02	5689.84
446.21	5584.52
446.39	5750.70
446.58	5867.72
446.77	5645.37
446.95	5708.57
447.14	5825.59
447.32	5757.72
447.51	5762.40
447.69	5680.48
447.88	5713.25
448.06	5944.96
448.25	5811.55
448.43	5832.62
448.62	5802.19
448.80	5788.14
448.99	5846.66
449.17	5961.34
449.36	5818.57
449.54	6005.81
449.73	5980.07
449.91	5949.64
450.10	6057.31
450.28	6122.84
450.46	6207.10
450.65	5982.41
450.83	6244.55
451.02	6120.50
451.20	6150.93
451.39	6284.34
451.57	6073.69
451.76	6071.35
451.94	6143.91
452.13	6263.27
452.31	6251.57
452.49	6193.06
452.68	6230.51
452.86	6176.67
453.05	6462.22
453.23	6300.72
453.42	6195.40
453.60	6293.70
453.78	6380.30
453.97	6289.02
454.15	6289.02
454.34	6431.79
454.52	6553.50
454.70	6483.28
454.89	6483.28
455.07	6715.00
455.26	6590.95
455.44	6764.15
455.62	6471.58
455.81	6567.54
455.99	6698.61
456.17	6726.70
456.36	6815.64
456.54	6792.23
456.73	6864.79
456.91	6974.80
457.09	7049.69
457.28	7040.33
457.46	6825.00
457.64	7199.49
457.83	6927.99
458.01	6834.36
458.19	7272.04
458.38	6988.84
458.56	7173.74
458.74	7152.68
458.93	7176.08
459.11	7194.81
459.29	7119.91
459.48	7321.20
459.66	7426.52
459.84	7307.15
460.03	7332.90
460.21	7363.33
460.39	7295.45
460.57	7445.24
460.76	7368.01
460.94	7365.67
461.12	7468.65
461.31	7400.77
461.49	7604.40
461.67	7435.88
461.85	7531.84
462.04	7609.08
462.22	7906.33
462.40	7775.26
462.59	7683.98
462.77	7676.96
462.95	7826.75
463.13	7880.58
463.32	7796.32
463.50	7871.22
463.68	7810.37
463.86	7817.39
464.05	7756.54
464.23	8025.70
464.41	8138.04
464.59	7950.80
464.78	8032.72
464.96	7929.74
465.14	8009.31
465.32	8084.21
465.50	8180.17
465.69	8124.00
465.87	8149.75
466.05	8112.30
466.23	8018.68
466.41	8205.92
466.60	8238.69
466.78	8149.75
466.96	8196.56
467.14	8109.96
467.32	8219.96
467.51	8456.36
467.69	7808.03
467.87	8208.26
468.05	8325.29
468.23	8348.69
468.41	8367.42
468.60	8379.12
468.78	8573.38
468.96	8273.79
469.14	8521.89
469.32	8667.00
469.50	8262.09
469.69	8554.66
469.87	8732.54
470.05	8615.51
470.23	8676.37
470.41	8720.84
470.59	8938.51
470.77	8887.01
470.95	8945.53
471.14	9060.21
471.32	8753.60
471.50	8997.02
471.68	9053.19
471.86	9088.30
472.04	9121.07
472.22	9233.41
472.40	9114.05
472.58	9167.88
472.77	9287.25
472.95	9415.98
473.13	9664.07
473.31	9455.76
473.49	9348.10
473.67	9453.42
473.85	9507.26
474.03	9605.56
474.21	9514.28
474.39	9675.77
474.57	9500.23
474.75	9982.38
474.93	9963.66
475.12	9928.55
475.30	10204.74
475.48	10076.01
475.66	10129.84
475.84	10122.82
476.02	10169.63
476.20	10061.96
476.38	10244.52
476.56	10649.44
476.74	10492.62
476.92	10347.51
477.10	10366.23
477.28	10644.76
477.46	10480.92
477.64	10661.14
477.82	10665.82
478.00	11098.82
478.18	11140.95
478.36	11272.02
478.54	11241.59
478.72	11398.41
478.90	11286.06
479.08	11440.54
479.26	11564.59
479.44	11751.83
479.62	11672.25
479.80	11843.11
479.98	11983.54
480.16	12222.28
480.34	12081.85
480.52	12194.19
480.70	12231.64
480.88	12102.91
481.06	12262.07
481.24	12388.46
481.41	12650.60
481.59	12671.66
481.77	12814.43
481.95	12812.09
482.13	13156.15
482.31	12765.28
482.49	13209.98
482.67	13256.79
482.85	13540.00
483.03	13631.28
483.21	13479.15
483.39	13933.21
483.57	13731.92
483.74	13926.19
483.92	14211.73
484.10	13944.91
484.28	14321.74
484.46	14345.14
484.64	14721.97
484.82	14434.08
485.00	14576.86
485.18	14892.83
485.35	15051.99
485.53	14728.99
485.71	15154.97
485.89	15248.59
486.07	15133.90
486.25	15222.84
486.43	15803.30
486.61	15662.86
486.78	15800.96
486.96	15796.28
487.14	15950.75
487.32	16418.86
487.50	16276.09
487.68	16191.83
487.85	16470.35
488.03	16882.28
488.21	16943.14
488.39	16957.18
488.57	17022.72
488.75	16940.80
488.92	17334.01
489.10	17565.72
489.28	17418.27
489.46	17984.68
489.64	17666.36
489.81	18251.50
489.99	18052.55
490.17	18136.81
490.35	18555.77
490.53	18277.24
490.70	18476.19
490.88	18281.92
491.06	18827.27
491.24	19007.49
491.41	19176.01
491.59	19274.31
491.77	18958.34
491.95	19044.94
492.13	19515.39
492.30	19510.71
492.48	19470.92
492.66	19819.66
492.84	19840.72
493.01	19885.19
493.19	20154.35
493.37	20245.63
493.54	20486.71
493.72	20662.25
493.90	20634.16
494.08	20781.62
494.25	20627.14
494.43	20924.39
494.61	21135.04
494.79	20982.90
494.96	21128.02
495.14	21010.99
495.32	21598.46
495.49	21820.81
495.67	21853.58
495.85	21769.32
496.02	22033.80
496.20	22209.34
496.38	22251.47
496.55	22478.50
496.73	23030.87
496.91	22277.22
497.09	22295.94
497.26	23159.60
497.44	22867.03
497.62	23073.00
497.79	23463.87
497.97	23220.45
498.14	23381.95
498.32	23641.75
498.50	23396.00
498.67	23702.61
498.85	23688.56
499.03	24056.03
499.20	24135.60
499.38	24273.70
499.56	24332.21
499.73	24718.40
499.91	24755.85
500.08	24467.96
500.26	24503.07
500.44	24641.16
500.61	24446.90
500.79	24751.17
500.97	25247.36
501.14	25317.57
501.32	25418.22
501.49	25219.27
501.67	25422.90
501.84	25472.05
502.02	25383.11
502.20	25376.09
502.37	25862.92
502.55	25448.64
502.72	25788.02
502.90	25844.20
503.07	25862.92
503.25	26008.03
503.43	26122.72
503.60	26291.24
503.78	26611.89
503.95	26389.54
504.13	26710.19
504.30	26476.14
504.48	26544.02
504.65	26754.66
504.83	26937.23
505.01	27309.37
505.18	27218.09
505.36	27641.73
505.53	27075.32
505.71	27578.53
505.88	27414.69
506.06	27346.82
506.23	27639.39
506.41	27461.51
506.58	27761.09
506.76	27606.62
506.93	27754.07
507.11	28067.70
507.28	28180.05
507.46	28084.09
507.63	28601.35
507.81	28060.68
507.98	28170.69
508.16	28360.27
508.33	28645.82
508.50	28959.45
508.68	28687.95
508.85	28929.02
509.03	28947.75
509.20	29137.33
509.38	28943.06
509.55	29139.67
509.73	29160.73
509.90	28947.75
510.08	29500.11
510.25	29460.32
510.42	29364.36
510.60	29738.85
510.77	29830.13
510.95	29818.42
511.12	29352.66
511.30	29635.86
511.47	29956.52
511.64	29603.10
511.82	30139.08
511.99	30263.13
512.17	30621.23
512.34	30473.78
512.51	30635.27
512.69	30614.21
512.86	30672.72
513.04	31152.53
513.21	31290.62
513.38	31232.11
513.56	31344.45
513.73	31072.95
513.90	31016.78
514.08	31253.17
514.25	30986.35
514.43	31194.66
514.60	31377.22
514.77	31618.30
514.95	31445.10
515.12	31534.04
515.29	31487.23
515.47	32215.13
515.64	32119.17
515.81	31864.05
515.99	32306.41
516.16	32304.07
516.33	32554.51
516.51	32671.54
516.68	32556.85
516.85	32409.40
517.03	32533.45
517.20	32701.96
517.37	32486.64
517.54	32914.95
517.72	32889.21
517.89	32957.08
518.06	32931.34
518.24	33216.88
518.41	32652.81
518.58	33022.62
518.75	32797.93
518.93	33242.63
519.10	33469.66
519.27	33319.87
519.45	33371.36
519.62	33532.86
519.79	33610.09
519.96	33853.51
520.14	34171.82
520.31	33668.61
520.48	33647.54
520.65	33797.34
520.83	34539.29
521.00	34298.21
521.17	34237.36
521.34	34239.70
521.52	34459.71
521.69	34621.20
521.86	34120.33
522.03	34574.39
522.20	34962.92
522.38	35023.78
522.55	35335.07
522.72	34649.29
522.89	35260.17
523.07	35391.24
523.24	35084.63
523.41	35201.66
523.58	34742.91
523.75	35702.53
523.92	35161.87
524.10	35669.76
524.27	35253.15
524.44	35449.75
524.61	35847.64
524.78	35515.29
524.96	36011.48
525.13	35875.73
525.30	35842.96
525.47	35728.28
525.64	35988.08
525.81	36198.73
525.98	36154.26
526.16	35978.72
526.33	36488.95
526.50	36367.24
526.67	36182.34
526.84	36638.75
527.01	36620.02
527.18	36711.30
527.36	36844.71
527.53	37001.53
527.70	36971.10
527.87	37399.42
528.04	36776.84
528.21	36964.08
528.38	37198.13
528.55	37301.12
528.72	36732.37
528.89	37289.42
529.07	36933.65
529.24	36966.42
529.41	37380.70
529.58	36971.10
529.75	37537.51
529.92	37479.00
530.09	37659.22
530.26	37574.96
530.43	37581.98
530.60	37762.20
530.77	37420.48
530.94	37914.34
531.11	37951.79
531.28	37677.94
531.46	38199.88
531.63	38251.38
531.80	37724.75
531.97	38045.41
532.14	38370.74
532.31	38352.02
532.48	38600.12
532.65	38609.48
532.82	38726.50
532.99	38110.94
533.16	38462.02
533.33	38667.99
533.50	38799.06
533.67	38686.71
533.84	38464.36
534.01	38834.17
534.18	39016.73
534.35	38946.51
534.52	39508.24
534.69	39402.92
534.86	39147.80
535.03	38824.81
535.20	39622.93
535.37	38986.30
535.54	39557.39
535.71	39606.55
535.88	40006.78
536.05	39482.50
536.22	39835.92
536.38	39405.26
536.55	39920.18
536.72	39676.76
536.89	39562.08
537.06	39805.49
537.23	39849.96
537.40	39625.27
537.57	39407.60
537.74	39840.60
537.91	40170.61
538.08	39880.39
538.25	39796.13
538.42	40559.14
538.59	40407.01
538.75	39718.89
538.92	40481.91
539.09	40350.84
539.26	40423.39
539.43	40596.59
539.60	41029.59
539.77	40266.58
539.94	40720.64
540.11	40664.47
540.28	40917.25
540.44	41006.19
540.61	40706.60
540.78	40758.09
540.95	40737.02
541.12	40753.41
541.29	40500.63
541.46	41141.94
541.62	41268.33
541.79	41375.99
541.96	41008.53
542.13	40495.95
542.30	41436.84
542.47	41200.45
542.63	41137.26
542.80	41467.27
542.97	41975.17
543.14	42089.85
543.31	41663.88
543.48	41490.68
543.64	42050.06
543.81	41918.99
543.98	41921.34
544.15	42139.00
544.32	41984.53
544.48	42209.22
544.65	42033.68
544.82	42731.16
544.99	42117.94
545.16	42291.14
545.32	42244.33
545.49	42773.29
545.66	42459.66
545.83	42665.63
546.00	42733.50
546.16	42312.20
546.33	42309.86
546.50	42621.16
546.67	42342.63
546.83	42054.75
547.00	42651.58
547.17	42719.46
547.34	42557.96
547.50	42965.21
547.67	42808.40
547.84	42815.42
548.00	43042.45
548.17	43185.22
548.34	42960.53
548.51	43555.03
548.67	43185.22
548.84	43402.89
549.01	43222.67
549.18	43161.82
549.34	43384.17
549.51	43482.47
549.68	43725.89
549.84	43536.30
550.01	43309.27
550.18	43168.84
550.34	43419.28
550.51	43866.32
550.68	43728.23
550.84	43250.76
551.01	43304.59
551.18	43295.23
551.34	43695.46
551.51	43676.74
551.68	43672.06
551.84	43735.25
552.01	43737.59
552.18	43643.97
552.34	43281.19
552.51	43758.66
552.68	43981.01
552.84	43613.54
553.01	44318.04
553.18	44219.74
553.34	44006.75
553.51	43894.41
553.67	44212.72
553.84	44357.83
554.01	44304.00
554.17	44446.77
554.34	44533.37
554.51	44285.28
554.67	44619.97
554.84	44870.41
555.00	44570.82
555.17	44306.34
555.33	44367.20
555.50	44315.70
555.67	44561.46
555.83	44334.43
556.00	44598.91
556.16	45134.89
556.33	44837.64
556.50	44516.99
556.66	44790.83
556.83	44729.98
556.99	45284.68
557.16	44940.63
557.32	45139.57
557.49	45083.40
557.65	44629.34
557.82	44769.77
557.98	44814.24
558.15	44800.19
558.32	45170.00
558.48	45270.64
558.65	45001.48
558.81	45516.40
558.98	45195.74
559.14	45111.49
559.31	45162.98
559.47	45162.98
559.64	45539.80
559.80	45184.04
559.97	45134.89
560.13	44924.24
560.30	45347.88
560.46	45663.85
560.63	45689.60
560.79	46038.34
560.96	45696.62
561.12	45565.55
561.29	45310.43
561.45	46239.62
561.61	45308.09
561.78	45467.25
561.94	45703.64
562.11	45343.20
562.27	45598.32
562.44	46148.34
562.60	45940.04
562.77	45986.85
562.93	46103.87
563.10	45916.63
563.26	45801.94
563.42	46061.74
563.59	45434.48
563.75	45422.78
563.92	45792.58
564.08	45649.81
564.24	45806.62
564.41	46028.98
564.57	46169.41
564.74	45799.60
564.90	45902.59
565.07	45834.71
565.23	46192.81
565.39	46031.32
565.56	46190.47
565.72	46211.54
565.88	46028.98
566.05	46377.72
566.21	46068.76
566.38	46181.11
566.54	46429.21
566.70	46546.23
566.87	45762.15
567.03	45965.78
567.19	46300.48
567.36	46389.42
567.52	46653.90
567.68	46579.00
567.85	46333.24
568.01	46511.13
568.17	46190.47
568.34	46955.83
568.50	46319.20
568.66	46513.47
568.83	46167.07
568.99	46335.59
569.15	46218.56
569.32	46342.61
569.48	46438.57
569.64	46696.03
569.81	46614.11
569.97	46593.04
570.13	46857.52
570.30	46447.93
570.46	46789.65
570.62	46707.73
570.78	46333.24
570.95	46499.42
571.11	46712.41
571.27	46548.57
571.43	46630.49
571.60	46546.23
571.76	46644.54
571.92	46424.53
572.09	46433.89
572.25	46417.50
572.41	46497.08
572.57	46567.30
572.74	47622.88
572.90	46775.61
573.06	46426.87
573.22	47009.66
573.38	47079.88
573.55	46806.03
573.71	46913.70
573.87	46988.60
574.03	46719.43
574.20	46625.81
574.36	47138.39
574.52	46707.73
574.68	46817.74
574.84	46791.99
575.01	46885.61
575.17	47215.63
575.33	46522.83
575.49	46845.82
575.65	47501.17
575.82	47077.54
575.98	46162.39
576.14	46866.89
576.30	46993.28
576.46	46557.94
576.62	46925.40
576.79	47213.29
576.95	46408.14
577.11	46536.87
577.27	47035.41
577.43	47157.11
577.59	47049.45
577.75	46817.74
577.92	46686.67
578.08	46899.65
578.24	47014.34
578.40	46944.12
578.56	46862.21
578.72	47150.09
578.88	47007.32
579.04	46918.38
579.21	47040.09
579.37	47124.35
579.53	47234.35
579.69	47100.94
579.85	46815.40
580.01	47100.94
580.17	46883.27
580.33	47012.00
580.49	47217.97
580.65	46883.27
580.82	47084.56
580.98	46686.67
581.14	46887.95
581.30	47283.50
581.46	46925.40
581.62	47250.74
581.78	47271.80
581.94	47278.82
582.10	46817.74
582.26	46913.70
582.42	47330.31
582.58	47400.53
582.74	47100.94
582.90	47332.65
583.06	47618.20
583.22	47105.62
583.38	46770.93
583.54	47229.67
583.70	47496.49
583.86	47311.59
584.02	47098.60
584.18	47667.35
584.34	47381.80
584.50	47480.11
584.66	47278.82
584.82	47590.11
584.98	47749.27
585.14	47349.04
585.30	47171.16
585.46	47522.24
585.62	47571.39
585.78	47311.59
585.94	46806.03
586.10	47297.55
586.26	47124.35
586.42	47009.66
586.58	47751.61
586.74	47313.93
586.90	47220.31
587.06	47278.82
587.22	47943.53
587.38	47065.83
587.54	47969.28
587.70	47690.76
587.86	47503.51
588.02	47180.52
588.18	47065.83
588.34	47100.94
588.49	47526.92
588.65	47313.93
588.81	47494.15
588.97	47931.83
589.13	47634.58
589.29	47255.42
589.45	47646.29
589.61	47515.22
589.77	47428.62
589.93	47519.90
590.08	47189.88
590.24	48055.88
590.40	47688.42
590.56	47976.30
590.72	47980.98
590.88	47735.23
591.04	47648.63
591.20	48210.35
591.35	47849.91
591.51	47835.87
591.67	47892.04
591.83	48179.93
591.99	47367.76
592.15	47292.86
592.31	47562.03
592.46	47672.03
592.62	47744.59
592.78	47838.21
592.94	48130.78
593.10	48247.80
593.26	48442.07
593.41	48048.86
593.57	48374.19
593.73	48062.90
593.89	48271.21
594.05	48098.01
594.20	47878.00
594.36	48067.58
594.52	48254.82
594.68	48271.21
594.84	47999.71
594.99	48369.51
595.15	47927.15
595.31	48554.41
595.47	48095.67
595.62	48413.98
595.78	47803.10
595.94	48039.50
596.10	47583.09
596.25	48528.67
596.41	48315.68
596.57	48088.65
596.73	48552.07
596.88	48048.86
597.04	48238.44
597.20	48318.02
597.36	48083.97
597.51	47789.06
597.67	47936.51
597.83	48189.29
597.99	48268.87
598.14	47798.42
598.30	48259.51
598.46	47917.79
598.61	48610.59
598.77	47882.68
598.93	48364.83
599.09	48273.55
599.24	48498.24
599.40	48034.81
599.56	48215.04
599.71	48409.30
599.87	48559.09
600.03	48315.68
600.18	48303.98
600.34	48215.04
600.50	48250.14
600.65	48399.94
600.81	48315.68
600.97	48322.70
601.12	48428.02
601.28	48521.65
601.44	48203.33
601.59	48189.29
601.75	47870.98
601.91	48081.63
602.06	48392.92
602.22	48556.75
602.37	47997.37
602.53	48301.64
602.69	48540.37
602.84	47941.19
603.00	48203.33
603.16	48161.20
603.31	48020.77
603.47	48421.00
603.62	48325.04
603.78	48463.13
603.94	48428.02
604.09	48268.87
604.25	48282.91
604.40	48500.58
604.56	48271.21
604.71	48385.89
604.87	48196.31
605.03	48182.27
605.18	47910.77
605.34	48388.24
605.49	47730.54
605.65	47959.92
605.80	48200.99
605.96	47749.27
606.12	48224.40
606.27	48390.58
606.43	48074.60
606.58	48519.31
606.74	48301.64
606.89	48041.84
607.05	48442.07
607.20	48341.42
607.36	48074.60
607.51	47999.71
607.67	47688.42
607.82	48102.69
607.98	47868.64
608.13	47894.38
608.29	48112.05
608.44	47840.55
608.60	48072.26
608.75	48137.80
608.91	47562.03
609.06	47735.23
609.22	48549.73
609.37	47969.28
609.53	48226.74
609.68	47999.71
609.84	48002.05
609.99	47555.00
610.15	48322.70
610.30	47973.96
610.46	47990.34
610.61	47704.80
610.76	47908.43
610.92	47901.40
611.07	47517.56
611.23	47709.48
611.38	47798.42
611.54	47983.32
611.69	47859.27
611.84	47957.58
612.00	47980.98
612.15	47896.72
612.31	47999.71
612.46	47550.32
612.62	47779.70
612.77	47681.39
612.92	47789.06
613.08	47800.76
613.23	47922.47
613.39	47725.86
613.54	47313.93
613.69	47885.02
613.85	47428.62
614.00	47861.61
614.15	47639.26
614.31	47421.59
614.46	47615.86
614.62	47304.57
614.77	47358.40
614.92	47636.92
615.08	47796.08
615.23	47636.92
615.38	47819.49
615.54	47480.11
615.69	47489.47
615.84	47667.35
616.00	47613.52
616.15	47627.56
616.30	47489.47
616.46	47023.70
616.61	47260.10
616.76	47679.05
616.92	47360.74
617.07	47288.18
617.22	47234.35
617.37	47224.99
617.53	47615.86
617.68	47203.92
617.83	47445.00
617.99	47402.87
618.14	47547.98
618.29	46787.31
618.45	46852.84
618.60	46932.42
618.75	46368.35
618.90	47131.37
619.06	46969.87
619.21	46983.91
619.36	47171.16
619.51	46756.88
619.67	47093.92
619.82	46656.24
619.97	47421.59
620.12	47175.84
620.28	46763.90
620.43	46887.95
620.58	46698.37
620.73	46939.44
620.89	47028.38
621.04	47086.90
621.19	46866.89
621.34	46515.81
621.49	46607.09
621.65	47065.83
621.80	46904.34
621.95	46981.57
622.10	46539.21
622.25	46616.45
622.41	46700.71
622.56	46368.35
622.71	46829.44
622.86	46586.02
623.01	46541.55
623.16	46649.22
623.32	46733.48
623.47	46237.28
623.62	46731.14
623.77	46656.24
623.92	46913.70
624.07	46342.61
624.23	46740.50
624.38	46794.33
624.53	46337.93
624.68	46068.76
624.83	46263.03
624.98	46590.70
625.13	46138.98
625.29	46370.69
625.44	46185.79
625.59	46021.95
625.74	46239.62
625.89	45567.89
626.04	45998.55
626.19	45858.12
626.34	45844.07
626.49	45476.61
626.65	45460.23
626.80	46026.63
626.95	45523.42
627.10	45518.74
627.25	46073.45
627.40	45579.59
627.55	45989.19
627.70	45663.85
627.85	46021.95
628.00	46347.29
628.15	46059.40
628.30	45624.06
628.45	45441.50
628.60	45254.26
628.76	45422.78
628.91	45675.55
629.06	45586.61
629.21	45453.20
629.36	45773.86
629.51	45642.79
629.66	45844.07
629.81	45504.70
629.96	45553.85
630.11	45525.76
630.26	45282.34
630.41	45184.04
630.56	45595.98
630.71	45902.59
630.86	45560.87
631.01	44861.05
631.16	45333.84
631.31	44982.76
631.46	45682.58
631.61	45263.62
631.76	45270.64
631.91	45560.87
632.06	45694.28
632.21	45574.91
632.36	45446.18
632.51	45085.74
632.66	44748.70
632.81	45083.40
632.96	45067.02
633.10	45113.83
633.25	44996.80
633.40	44886.79
633.55	44985.10
633.70	44992.12
633.85	44875.09
634.00	44666.78
634.15	44498.26
634.30	44744.02
634.45	44596.57
634.60	44659.76
634.75	44664.44
634.90	44699.55
635.05	44601.25
635.19	44563.80
635.34	44821.26
635.49	45078.72
635.64	44961.69
635.79	44725.30
635.94	44493.58
636.09	44589.55
636.24	44790.83
636.39	44559.12
636.53	44699.55
636.68	44018.46
636.83	43725.89
636.98	43971.64
637.13	44116.76
637.28	43927.17
637.43	44425.71
637.57	44547.42
637.72	43861.64
637.87	43871.00
638.02	44364.85
638.17	44163.57
638.32	44130.80
638.46	43859.30
638.61	43753.97
638.76	44381.24
638.91	43660.35
639.06	44121.44
639.20	43592.48
639.35	44051.22
639.50	43859.30
639.65	43716.53
639.80	43447.36
639.94	44114.42
640.09	44135.48
640.24	44107.40
640.39	43618.22
640.54	43386.51
640.68	43821.85
640.83	44046.54
640.98	43540.99
641.13	43360.76
641.27	44058.24
641.42	43646.31
641.57	43564.39
641.72	44053.56
641.86	43880.36
642.01	43526.94
642.16	43182.88
642.31	43173.52
642.45	43952.92
642.60	43019.05
642.75	43250.76
642.90	43629.93
643.04	43107.99
643.19	43124.37
643.34	42707.76
643.48	43063.52
643.63	42885.64
643.78	43033.09
643.93	43452.05
644.07	43138.41
644.22	43505.88
644.37	42988.62
644.51	42925.42
644.66	43054.15
644.81	43061.18
644.95	43187.56
645.10	42728.82
645.25	42625.84
645.39	42796.70
645.54	42745.20
645.69	42792.01
645.83	42658.60
645.98	42513.49
646.13	42656.26
646.27	42712.44
646.42	42897.34
646.57	42845.85
646.71	43122.03
646.86	42773.29
647.00	42628.18
647.15	42700.73
647.30	42387.10
647.44	42443.27
647.59	42700.73
647.74	42784.99
647.88	42658.60
648.03	42698.39
648.17	42930.11
648.32	42340.29
648.47	42670.31
648.61	42375.40
648.76	42494.77
648.90	42012.62
649.05	42185.82
649.20	42361.36
649.34	42038.36
649.49	42473.70
649.63	42483.06
649.78	42469.02
649.92	42405.83
650.07	42698.39
650.21	42356.67
650.36	42983.94
650.51	42096.88
650.65	42277.10
650.80	42492.43
650.94	41921.34
651.09	42401.14
651.23	41972.83
651.38	41876.86
651.52	41560.89
651.67	42225.60
651.81	42337.95
651.96	42169.43
652.10	41453.23
652.25	41333.86
652.39	41518.76
652.54	41684.94
652.68	41425.14
652.83	41528.13
652.97	41984.53
653.12	41394.71
653.26	41375.99
653.41	41769.20
653.55	42061.77
653.70	41944.74
653.84	42230.29
653.99	41834.74
654.13	41804.31
654.27	41305.77
654.42	41794.95
654.56	41624.09
654.71	41790.27
654.85	41935.38
655.00	41591.32
655.14	41373.65
655.29	41715.37
655.43	41598.34
655.57	41434.50
655.72	41017.89
655.86	41322.16
656.01	41291.73
656.15	41031.93
656.30	41139.60
656.44	41097.47
656.58	41333.86
656.73	41167.68
656.87	40877.46
657.01	40760.43
657.16	41230.88
657.30	40954.69
657.45	41408.76
657.59	40273.60
657.73	41165.34
657.88	40945.33
658.02	40917.25
658.16	41013.21
658.31	40879.80
658.45	40804.90
658.60	40882.14
658.74	40671.49
658.88	40769.79
659.03	40449.14
659.17	40442.12
659.31	40126.14
659.46	40025.50
659.60	40130.83
659.74	39924.86
659.89	39847.62
660.03	39725.91
660.17	40292.32
660.32	40432.75
660.46	40252.53
660.60	39730.59
660.74	39669.74
660.89	40020.82
661.03	39297.59
661.17	39269.51
661.32	39697.83
661.46	40194.02
661.60	39817.19
661.74	39880.39
661.89	39655.70
662.03	39777.40
662.17	39431.01
662.31	39487.18
662.46	39917.84
662.60	39810.17
662.74	39367.81
662.88	39337.38
663.03	38614.16
663.17	39061.20
663.31	39131.42
663.45	39100.99
663.60	39257.81
663.74	38986.30
663.88	38878.64
664.02	38490.11
664.17	39313.98
664.31	38848.21
664.45	38600.12
664.59	39100.99
664.73	38490.11
664.88	38707.78
665.02	38653.95
665.16	38550.96
665.30	38515.86
665.44	38459.68
665.59	38132.01
665.73	38066.47
665.87	37926.04
666.01	37893.27
666.15	38082.86
666.29	37787.95
666.44	37628.79
666.58	38124.99
666.72	37413.46
666.86	37687.31
667.00	37280.05
667.14	37329.20
667.28	37230.90
667.43	37125.58
667.57	37752.84
667.71	37207.50
667.85	37600.71
667.99	37694.33
668.13	37280.05
668.27	37038.98
668.41	36973.44
668.56	36624.70
668.70	37050.68
668.84	36835.35
668.98	36706.62
669.12	37083.45
669.26	36921.95
669.40	37043.66
669.54	36601.30
669.68	36727.69
669.82	36779.18
669.96	36037.23
670.10	36020.84
670.25	36229.15
670.39	36299.37
670.53	36650.45
670.67	36238.51
670.81	36470.23
670.95	36278.30
671.09	35857.01
671.23	36194.04
671.37	35927.22
671.51	35700.19
671.65	35440.39
671.79	35534.01
671.93	35938.93
672.07	35730.62
672.21	35512.95
672.35	35133.78
672.49	35629.98
672.63	35580.82
672.77	34958.24
672.91	35522.31
673.05	35236.77
673.19	34668.02
673.33	34838.87
673.47	34780.36
673.61	34476.09
673.75	34338.00
673.89	34108.63
674.03	34415.24
674.17	33684.99
674.31	34045.43
674.45	33787.97
674.59	33989.26
674.73	34204.59
674.87	33958.83
675.01	33668.61
675.15	33511.79
675.29	33230.93
675.43	33502.43
675.56	33780.95
675.70	33193.48
675.84	33277.74
675.98	32652.81
676.12	33214.54
676.26	32954.74
676.40	32919.63
676.54	32865.80
676.68	32968.79
676.82	32554.51
676.96	32786.22
677.10	32694.94
677.23	33001.55
677.37	32500.68
677.51	32425.78
677.65	32311.10
677.79	31831.29
677.93	31620.64
678.07	32070.02
678.21	32144.92
678.34	31402.97
678.48	31346.79
678.62	31517.65
678.76	31154.87
678.90	31292.96
679.04	31435.74
679.18	31510.63
679.31	30707.83
679.45	30899.75
679.59	30455.05
679.73	31054.23
679.87	30361.43
680.00	30443.35
680.14	30335.68
680.28	30328.66
680.42	30462.07
680.56	30295.89
680.70	30059.50
680.83	29958.86
680.97	30108.65
681.11	29965.88
681.25	29811.40
681.39	29277.76
681.52	29432.24
681.66	29036.69
681.80	28418.78
681.94	28933.70
682.07	28652.84
682.21	29163.08
682.35	28498.36
682.49	28439.85
682.62	28774.55
682.76	28624.75
682.90	28327.50
683.04	28400.06
683.17	28397.72
683.31	28063.02
683.45	28245.58
683.59	27866.42
683.72	27648.75
683.86	27768.12
684.00	27374.91
684.13	27641.73
684.27	27211.07
684.41	27517.68
684.55	27477.89
684.68	27122.13
684.82	27005.10
684.96	26862.33
685.09	27068.30
685.23	26775.73
685.37	27496.61
685.50	27101.06
685.64	26705.51
685.78	26455.08
685.91	26298.26
686.05	26244.43
686.19	25811.43
686.32	25883.98
686.46	25947.18
686.60	25626.53
686.73	25710.78
686.87	25631.21
687.01	25748.23
687.14	25731.85
687.28	25226.29
687.42	25434.60
687.55	24954.79
687.69	25252.04
687.82	25090.54
687.96	25034.37
688.10	24805.00
688.23	24765.21
688.37	25071.82
688.50	25214.59
688.64	24807.34
688.78	24561.58
688.91	24416.47
689.05	24159.01
689.18	24044.32
689.32	23484.94
689.46	23789.20
689.59	23915.59
689.73	24121.56
689.86	24039.64
690.00	23784.52
690.13	23833.68
690.27	23440.47
690.41	23618.35
690.54	22941.93
690.68	22986.40
690.81	22827.24
690.95	22764.05
691.08	22764.05
691.22	22288.92
691.35	22520.63
691.49	22740.64
691.62	22452.76
691.76	22384.88
691.89	22197.64
692.03	21893.37
692.16	21989.33
692.30	22094.66
692.43	22132.11
692.57	21287.17
692.70	21811.45
692.84	21469.73
692.97	21465.05
693.11	21586.76
693.24	21198.23
693.38	21247.38
693.51	20919.71
693.65	21022.69
693.78	20917.37
693.92	20978.22
694.05	20851.83
694.19	20524.16
694.32	20592.03
694.45	21062.48
694.59	20638.84
694.72	20641.18
694.86	20147.33
694.99	20079.46
695.13	20236.27
695.26	19995.20
695.39	19669.86
695.53	19871.15
695.66	20023.28
695.80	19381.98
695.93	19826.68
696.07	19398.36
696.20	19077.71
696.33	19014.51
696.47	19094.09
696.60	19012.17
696.73	19021.53
696.87	18860.04
697.00	18747.69
697.14	18586.19
697.27	18644.71
697.40	18450.44
697.54	18256.18
697.67	18574.49
697.80	18506.62
697.94	18207.03
698.07	18387.25
698.21	18029.15
698.34	18366.18
698.47	17930.84
698.61	17425.29
698.74	17535.29
698.87	17816.16
699.01	17238.05
699.14	17701.47
699.27	17249.75
699.40	17462.74
699.54	17151.45
699.67	17277.83
699.80	17139.74
699.94	17118.68
700.07	16985.27
700.20	16730.15
700.34	16669.30
700.47	16994.63
700.60	16896.33
700.73	16669.30
700.87	16299.49
701.00	16353.32
701.13	16379.07
701.26	16348.64
701.40	16264.38
701.53	15838.41
701.66	16023.31
701.79	15871.17
701.93	15950.75
702.06	15590.31
702.19	15428.81
702.32	15618.39
702.46	15492.01
702.59	15644.14
702.72	15454.56
702.85	15578.61
702.99	15185.40
703.12	15190.08
703.25	15176.03
703.38	14902.19
703.51	14794.53
703.65	14792.19
703.78	14831.97
703.91	14696.22
704.04	14714.95
704.17	14541.75
704.31	14473.87
704.44	14232.80
704.57	14310.04
704.70	14251.52
704.83	14321.74
704.96	14141.52
705.10	13881.72
705.23	13870.01
>>>>>End Processed Spectral Data<<<<<
