SpectraSuite Data File
++++++++++++++++++++++++++++++++++++
Date: Fri Oct 25 10:43:36 EDT 2013
User: price-jones
Dark Spectrum Present: No
Reference Spectrum Present: No
Number of Sampled Component Spectra: 1
Spectrometers: USB2+H05261
Integration Time (usec): 100000 (USB2+H05261)
Spectra Averaged: 1 (USB2+H05261)
Boxcar Smoothing: 0 (USB2+H05261)
Correct for Electrical Dark: No (USB2+H05261)
Strobe/Lamp Enabled: No (USB2+H05261)
Correct for Detector Non-linearity: No (USB2+H05261)
Correct for Stray Light: No (USB2+H05261)
Number of Pixels in Processed Spectrum: 2048
>>>>>Begin Processed Spectral Data<<<<<
365.73	142.77
365.92	142.77
366.12	142.77
366.32	98.30
366.52	21.06
366.72	63.19
366.91	35.11
367.11	51.49
367.31	7.02
367.51	7.02
367.70	25.75
367.90	14.04
368.10	28.09
368.30	46.81
368.49	16.38
368.69	0.00
368.89	72.56
369.09	65.54
369.28	16.38
369.48	58.51
369.68	63.19
369.87	72.56
370.07	46.81
370.27	128.73
370.47	166.18
370.66	351.08
370.86	421.30
371.06	505.56
371.25	535.98
371.45	397.89
371.65	479.81
371.84	557.05
372.04	496.19
372.24	486.83
372.44	454.06
372.63	571.09
372.83	465.77
373.03	512.58
373.22	524.28
373.42	514.92
373.62	543.00
373.81	580.45
374.01	599.18
374.21	557.05
374.40	510.24
374.60	545.34
374.79	636.63
374.99	535.98
375.19	622.58
375.38	599.18
375.58	606.20
375.78	599.18
375.97	526.62
376.17	636.63
376.37	606.20
376.56	631.94
376.76	610.88
376.95	566.41
377.15	669.39
377.35	688.12
377.54	704.50
377.74	678.76
377.93	627.26
378.13	655.35
378.33	706.84
378.52	709.18
378.72	664.71
378.91	688.12
379.11	610.88
379.31	681.10
379.50	702.16
379.70	763.01
379.89	718.54
380.09	643.65
380.28	755.99
380.48	758.33
380.68	709.18
380.87	662.37
381.07	730.25
381.26	688.12
381.46	716.20
381.65	699.82
381.85	697.48
382.04	791.10
382.24	751.31
382.43	774.72
382.63	767.70
382.83	725.57
383.02	744.29
383.22	648.33
383.41	681.10
383.61	746.63
383.80	774.72
384.00	800.46
384.19	753.65
384.39	798.12
384.58	807.48
384.78	830.89
384.97	842.59
385.17	798.12
385.36	781.74
385.56	858.98
385.75	779.40
385.95	755.99
386.14	905.79
386.34	809.83
386.53	779.40
386.72	868.34
386.92	976.00
387.11	837.91
387.31	903.45
387.50	945.58
387.70	950.26
387.89	964.30
388.09	924.51
388.28	851.96
388.48	861.32
388.67	966.64
388.86	980.68
389.06	1013.45
389.25	940.90
389.45	919.83
389.64	952.60
389.84	1029.84
390.03	931.53
390.22	1022.81
390.42	966.64
390.61	990.05
390.81	1086.01
391.00	1137.50
391.19	1041.54
391.39	1076.65
391.58	1167.93
391.78	983.02
391.97	1048.56
392.16	971.32
392.36	1004.09
392.55	1041.54
392.75	1055.58
392.94	1081.33
393.13	1015.79
393.33	997.07
393.52	1050.90
393.71	1081.33
393.91	1188.99
394.10	1149.20
394.29	1069.62
394.49	1181.97
394.68	1191.33
394.88	1308.36
395.07	1308.36
395.26	1174.95
395.46	1277.93
395.65	1240.48
395.84	1306.02
396.04	1233.46
396.23	1198.35
396.42	1210.06
396.62	1177.29
396.81	1252.19
397.00	1261.55
397.19	1284.95
397.39	1310.70
397.58	1401.98
397.77	1406.66
397.97	1439.43
398.16	1420.71
398.35	1490.92
398.55	1514.33
398.74	1593.90
398.93	1577.52
399.12	1540.07
399.32	1598.59
399.51	1537.73
399.70	1692.21
399.90	1617.31
400.09	1584.54
400.28	1563.48
400.47	1624.33
400.67	1717.95
400.86	1717.95
401.05	1774.13
401.24	1666.46
401.44	1842.00
401.63	1713.27
401.82	1675.82
402.01	1652.42
402.21	1830.30
402.40	1717.95
402.59	1769.44
402.78	1837.32
402.97	1729.66
403.17	1844.34
403.36	1865.41
403.55	1944.99
403.74	2033.93
403.93	1872.43
404.13	1846.68
404.32	1842.00
404.51	1886.47
404.70	1959.03
404.89	2054.99
405.09	1984.77
405.28	2080.74
405.47	1959.03
405.66	2045.63
405.85	2052.65
406.05	1984.77
406.24	2113.50
406.43	2047.97
406.62	2097.12
406.81	2246.91
407.00	2069.03
407.20	2010.52
407.39	2165.00
407.58	2172.02
407.77	2172.02
407.96	2305.43
408.15	2237.55
408.34	2319.47
408.54	2321.81
408.73	2338.20
408.92	2237.55
409.11	2354.58
409.30	2333.51
409.49	2354.58
409.68	2319.47
409.87	2342.88
410.07	2417.77
410.26	2286.70
410.45	2380.32
410.64	2450.54
410.83	2520.76
411.02	2464.58
411.21	2658.85
411.40	2579.27
411.59	2616.72
411.78	2586.29
411.98	2649.49
412.17	2607.36
412.36	2597.99
412.55	2644.81
412.74	2871.84
412.93	2712.68
413.12	2808.64
413.31	2916.31
413.50	2918.65
413.69	2834.39
413.88	3054.40
414.07	2993.55
414.26	2984.18
414.45	3016.95
414.64	2972.48
414.83	3094.19
415.02	3110.57
415.22	3236.96
415.41	3358.67
415.60	3293.13
415.79	3269.73
415.98	3351.65
416.17	3300.16
416.36	3356.33
416.55	3321.22
416.74	3426.54
416.93	3309.52
417.12	3288.45
417.31	3321.22
417.50	3309.52
417.69	3571.66
417.88	3550.59
418.07	3466.33
418.26	3557.61
418.45	3557.61
418.64	3758.90
418.83	3602.08
419.02	3576.34
419.21	3627.83
419.39	3679.32
419.58	3571.66
419.77	3595.06
419.96	3688.68
420.15	3742.52
420.34	3693.37
420.53	3751.88
420.72	3971.89
420.91	3929.76
421.10	3934.44
421.29	3911.04
421.48	3955.51
421.67	4149.77
421.86	3843.16
422.05	3882.95
422.24	3812.73
422.43	3829.12
422.61	3906.35
422.80	4060.83
422.99	3925.08
423.18	3960.19
423.37	4070.19
423.56	3946.14
423.75	3927.42
423.94	3950.82
424.13	3679.32
424.32	3850.18
424.50	4032.74
424.69	4149.77
424.88	4025.72
425.07	3934.44
425.26	4007.00
425.45	3992.95
425.64	3995.29
425.83	3892.31
426.01	4093.60
426.20	4056.15
426.39	4086.58
426.58	4060.83
426.77	4042.11
426.96	4046.79
427.15	3978.91
427.33	4072.53
427.52	4084.23
427.71	4311.27
427.90	4294.88
428.09	4166.15
428.28	4290.20
428.46	4278.50
428.65	4318.29
428.84	4180.20
429.03	4292.54
429.22	4063.17
429.40	4121.68
429.59	4168.49
429.78	4037.42
429.97	4074.87
430.16	4091.26
430.34	4152.11
430.53	4229.35
430.72	4088.92
430.91	4168.49
431.10	4402.55
431.28	4638.94
431.47	4622.56
431.66	4732.56
431.85	4671.71
432.03	4702.14
432.22	4660.01
432.41	4667.03
432.60	4784.06
432.79	4718.52
432.97	4936.19
433.16	4737.24
433.35	4809.80
433.54	4585.11
433.72	4737.24
433.91	4688.09
434.10	4725.54
434.28	4826.18
434.47	4868.31
434.66	4919.81
434.85	5050.88
435.03	5095.35
435.22	4973.64
435.41	5118.75
435.59	5123.43
435.78	5172.58
435.97	5380.89
436.16	5146.84
436.34	5043.85
436.53	5163.22
436.72	5289.61
436.90	5107.05
437.09	5221.74
437.28	5254.50
437.46	5289.61
437.65	5186.63
437.84	5298.97
438.02	5029.81
438.21	5160.88
438.40	5153.86
438.58	5516.64
438.77	5451.11
438.96	5465.15
439.14	5535.37
439.33	5757.72
439.52	5849.00
439.70	5664.10
439.89	5713.25
440.08	5727.29
440.26	5755.38
440.45	5783.46
440.63	5919.21
440.82	6043.26
441.01	6033.90
441.19	6101.78
441.38	6069.01
441.57	6054.97
441.75	6375.62
441.94	6480.94
442.12	6516.05
442.31	6640.10
442.50	6401.37
442.68	6469.24
442.87	6291.36
443.05	6583.93
443.24	6579.25
443.43	6551.16
443.61	6551.16
443.80	6707.98
443.98	6555.84
444.17	6401.37
444.35	6602.65
444.54	6670.53
444.73	6757.13
444.91	6604.99
445.10	6422.43
445.28	6462.22
445.47	6513.71
445.65	6607.33
445.84	6597.97
446.02	6848.41
446.21	6829.68
446.39	6513.71
446.58	6965.43
446.77	6850.75
446.95	6736.06
447.14	6902.24
447.32	6829.68
447.51	6766.49
447.69	6691.59
447.88	6658.82
448.06	6729.04
448.25	6881.18
448.43	6836.70
448.62	6810.96
448.80	6787.55
448.99	6902.24
449.17	6890.54
449.36	6974.80
449.54	7185.44
449.73	7117.57
449.91	7180.76
450.10	7300.13
450.28	7531.84
450.46	7178.42
450.65	7396.09
450.83	7213.53
451.02	7328.22
451.20	7428.86
451.39	7227.57
451.57	7421.84
451.76	7169.06
451.94	7485.03
452.13	7506.10
452.31	7379.71
452.49	7115.23
452.68	7248.64
452.86	7360.98
453.05	7417.16
453.23	7445.24
453.42	7358.64
453.60	7407.80
453.78	7489.71
453.97	7211.19
454.15	7545.89
454.34	7513.12
454.52	7602.06
454.70	7658.23
454.89	7602.06
455.07	7637.17
455.26	7754.19
455.44	8009.31
455.62	7976.55
455.81	7981.23
455.99	7962.50
456.17	7969.52
456.36	7962.50
456.54	8201.24
456.73	8243.37
456.91	8222.30
457.09	8358.05
457.28	8531.25
457.46	8109.96
457.64	8266.77
457.83	8102.93
458.01	8276.13
458.19	8524.23
458.38	8407.20
458.56	8411.89
458.74	8271.45
458.93	8135.70
459.11	8505.51
459.29	8416.57
459.48	8315.92
459.66	8505.51
459.84	8379.12
460.03	8720.84
460.21	8465.72
460.39	8746.58
460.57	8793.39
460.76	8568.70
460.94	8945.53
461.12	8882.33
461.31	8966.59
461.49	8769.99
461.67	8936.17
461.85	9041.49
462.04	8980.64
462.22	9523.64
462.40	8945.53
462.59	8933.82
462.77	9022.77
462.95	9160.86
463.13	8982.98
463.32	8929.14
463.50	8971.27
463.68	9202.99
463.86	9025.11
464.05	9029.79
464.23	9273.20
464.41	9366.82
464.59	8936.17
464.78	9521.30
464.96	9224.05
465.14	9006.38
465.32	9511.94
465.50	9144.47
465.69	9455.76
465.87	9558.75
466.05	9294.27
466.23	9322.35
466.41	9362.14
466.60	9757.69
466.78	9355.12
466.96	9317.67
467.14	9338.74
467.32	9596.20
467.51	9518.96
467.69	9401.93
467.87	9404.27
468.05	9514.28
468.23	9467.47
468.41	9715.56
468.60	9572.79
468.78	9710.88
468.96	9582.15
469.14	9881.74
469.32	9753.01
469.50	9671.09
469.69	9809.19
469.87	9781.10
470.05	9820.89
470.23	9914.51
470.41	9856.00
470.59	10092.39
470.77	10019.83
470.95	10200.05
471.14	10228.14
471.32	10169.63
471.50	10256.23
471.68	10513.69
471.86	10731.36
472.04	10733.70
472.22	10644.76
472.40	10305.38
472.58	10485.60
472.77	10441.13
472.95	10768.80
473.13	10993.50
473.31	10672.84
473.49	10546.45
473.67	11002.86
473.85	10972.43
474.03	10967.75
474.21	11236.91
474.39	10972.43
474.57	11234.57
474.75	11522.46
474.93	11246.27
475.12	11496.71
475.30	11323.51
475.48	11311.81
475.66	11461.60
475.84	11480.33
476.02	11681.61
476.20	11646.51
476.38	11831.41
476.56	11889.92
476.74	12163.76
476.92	11941.41
477.10	12173.13
477.28	12264.41
477.46	12201.21
477.64	12262.07
477.82	12341.64
478.00	12805.07
478.18	12381.43
478.36	12636.55
478.54	12622.51
478.72	12926.78
478.90	13050.83
479.08	13205.30
479.26	13465.10
479.44	13287.22
479.62	13329.35
479.80	13657.03
479.98	13500.21
480.16	13867.67
480.34	13802.14
480.52	13947.25
480.70	14029.17
480.88	13792.78
481.06	13975.34
481.24	14321.74
481.41	14506.64
481.59	14686.86
481.77	14752.40
481.95	14806.23
482.13	14771.12
482.31	14965.39
482.49	15328.17
482.67	15124.54
482.85	15290.72
483.03	15414.77
483.21	15712.02
483.39	15742.44
483.57	15592.65
483.74	15573.92
483.92	15969.48
484.10	15651.16
484.28	15899.26
484.46	16606.10
484.64	16758.24
484.82	16217.57
485.00	16180.12
485.18	16741.85
485.35	16716.11
485.53	16236.30
485.71	16318.22
485.89	16425.88
486.07	16697.38
486.25	16802.71
486.43	16968.88
486.61	17376.14
486.78	17673.39
486.96	17607.85
487.14	17799.77
487.32	17837.22
487.50	18162.56
487.68	18305.33
487.85	18761.73
488.03	18689.18
488.21	18918.55
488.39	18803.86
488.57	18881.10
488.75	19005.15
488.92	19082.39
489.10	19620.71
489.28	19655.82
489.46	19864.13
489.64	19822.00
489.81	20365.00
489.99	20325.21
490.17	20592.03
490.35	20622.46
490.53	20606.08
490.70	20828.43
490.88	20863.54
491.06	21207.59
491.24	21060.14
491.41	20648.21
491.59	21041.42
491.77	21158.44
491.95	21605.49
492.13	21584.42
492.30	21888.69
492.48	21584.42
492.66	22366.16
492.84	22036.14
493.01	22621.28
493.19	22342.75
493.37	22174.24
493.54	22590.85
493.72	22693.83
493.90	22930.23
494.08	23426.42
494.25	23496.64
494.43	23173.64
494.61	23520.04
494.79	23730.69
494.96	23672.18
495.14	23810.27
495.32	24170.71
495.49	24009.22
495.67	24067.73
495.85	24283.06
496.02	24622.44
496.20	24512.43
496.38	24559.24
496.55	24809.68
496.73	25673.34
496.91	25060.12
497.09	24978.20
497.26	25156.08
497.44	25202.89
497.62	25483.75
497.79	25783.34
497.97	25575.03
498.14	25490.77
498.32	25879.30
498.50	26251.45
498.67	26279.54
498.85	26244.43
499.03	26504.23
499.20	26506.57
499.38	26494.86
499.56	26752.32
499.73	26534.65
499.91	26675.09
500.08	26881.05
500.26	26469.12
500.44	27215.75
500.61	27105.74
500.79	27154.90
500.97	27152.55
501.14	27412.35
501.32	27314.05
501.49	27505.98
501.67	27751.73
501.84	27847.69
502.02	27791.52
502.20	27892.16
502.37	28187.07
502.55	28048.98
502.72	28280.69
502.90	28636.45
503.07	28252.61
503.25	28683.27
503.43	28379.00
503.60	28430.49
503.78	28648.16
503.95	28566.24
504.13	28629.43
504.30	28910.30
504.48	28889.23
504.65	29336.27
504.83	29275.42
505.01	29759.91
505.18	29165.42
505.36	29926.09
505.53	29783.32
505.71	30246.74
505.88	29862.90
506.06	29792.68
506.23	30340.36
506.41	29867.58
506.58	30012.69
506.76	30258.45
506.93	30321.64
507.11	30450.37
507.28	30096.95
507.46	30663.36
507.63	30618.89
507.81	30103.97
507.98	30588.46
508.16	30808.47
508.33	31199.34
508.50	30771.02
508.68	31236.79
508.85	31349.14
509.03	31096.36
509.20	31372.54
509.38	31847.67
509.55	31424.03
509.73	31630.00
509.90	31564.46
510.08	31721.28
510.25	31768.09
510.42	32037.25
510.60	32198.75
510.77	32275.99
510.95	32140.24
511.12	32266.63
511.30	32163.64
511.47	32793.25
511.64	33029.64
511.82	32847.08
511.99	32624.73
512.17	32800.27
512.34	32723.03
512.51	32659.84
512.69	33219.22
512.86	33062.41
513.04	32959.42
513.21	33397.10
513.38	33095.18
513.56	33251.99
513.73	33106.88
513.90	33736.48
514.08	32978.15
514.25	33432.21
514.43	33502.43
514.60	33635.84
514.77	33825.42
514.95	33776.27
515.12	34064.16
515.29	33722.44
515.47	33989.26
515.64	34635.25
515.81	34235.02
515.99	34380.13
516.16	34300.55
516.33	33387.74
516.51	34047.77
516.68	33701.37
516.85	33841.81
517.03	33701.37
517.20	34279.49
517.37	34902.07
517.54	34787.38
517.72	34649.29
517.89	34209.27
518.06	34043.09
518.24	34419.92
518.41	34529.92
518.58	35002.71
518.75	35119.74
518.93	35070.59
519.10	35409.96
519.27	35145.48
519.45	35604.23
519.62	35690.83
519.79	35608.91
519.96	35688.49
520.14	35779.77
520.31	35758.70
520.48	35505.93
520.65	35503.59
520.83	36425.76
521.00	36474.91
521.17	36105.10
521.34	36034.89
521.52	36627.04
521.69	36140.21
521.86	36720.66
522.03	36313.41
522.20	37008.55
522.38	36278.30
522.55	36636.41
522.72	36858.76
522.89	36870.46
523.07	37027.28
523.24	36957.06
523.41	37174.73
523.58	37530.49
523.75	37755.18
523.92	37404.10
524.10	37202.82
524.27	37710.71
524.44	37460.27
524.61	38272.44
524.78	37694.33
524.96	37469.64
525.13	37776.25
525.30	37553.90
525.47	37668.58
525.64	38101.58
525.81	37989.24
525.98	37818.38
526.16	37567.94
526.33	37598.37
526.50	38040.73
526.67	37359.63
526.84	37706.03
527.01	37654.54
527.18	37935.40
527.36	38143.71
527.53	38242.01
527.70	38841.19
527.87	38288.82
528.04	38899.70
528.21	39129.08
528.38	38876.30
528.55	39194.61
528.72	39711.87
528.89	39423.98
529.07	38983.96
529.24	38946.51
529.41	39363.13
529.58	39117.37
529.75	39491.86
529.92	39470.79
530.09	39482.50
530.26	39304.62
530.43	39653.36
530.60	39419.30
530.77	39356.11
530.94	39833.58
531.11	39548.03
531.28	39704.85
531.46	39969.33
531.63	40062.95
531.80	39819.53
531.97	40500.63
532.14	39931.88
532.31	39433.35
532.48	39690.80
532.65	40266.58
532.82	40109.76
532.99	40325.09
533.16	39817.19
533.33	40212.74
533.50	40271.26
533.67	40067.63
533.84	40275.94
534.01	40446.80
534.18	40477.22
534.35	40264.24
534.52	40402.33
534.69	40498.29
534.86	40961.72
535.03	40715.96
535.20	40999.16
535.37	41041.29
535.54	41497.70
535.71	40467.86
535.88	41050.66
536.05	40582.55
536.22	41322.16
536.38	41373.65
536.55	41174.70
536.72	41188.75
536.89	41010.87
537.06	41127.89
537.23	41188.75
537.40	41333.86
537.57	41263.64
537.74	41343.22
537.91	41951.76
538.08	41558.55
538.25	41261.30
538.42	41511.74
538.59	41759.84
538.75	40804.90
538.92	41368.97
539.09	41588.98
539.26	41354.93
539.43	41832.39
539.60	41827.71
539.77	41223.86
539.94	41453.23
540.11	41804.31
540.28	41811.33
540.44	42178.79
540.61	41914.31
540.78	41579.62
540.95	41670.90
541.12	41738.77
541.29	41895.59
541.46	41923.68
541.62	42309.86
541.79	42490.09
541.96	41855.80
542.13	42277.10
542.30	42440.93
542.47	42244.33
542.63	42693.71
542.80	42721.80
542.97	42951.17
543.14	43051.81
543.31	42834.14
543.48	43115.01
543.64	43365.45
543.81	43351.40
543.98	43400.55
544.15	42930.11
544.32	43189.91
544.48	43515.24
544.65	43276.51
544.82	43346.72
544.99	43157.14
545.16	42944.15
545.32	42937.13
545.49	43496.52
545.66	43894.41
545.83	43229.69
546.00	43363.11
546.16	43496.52
546.33	43395.87
546.50	43152.46
546.67	43966.96
546.83	43030.75
547.00	43732.91
547.17	43655.67
547.34	43323.32
547.50	43732.91
547.67	44020.80
547.84	43344.38
548.00	43772.70
548.17	44268.89
548.34	43784.40
548.51	43971.64
548.67	44172.93
548.84	43901.43
549.01	44355.49
549.18	44168.25
549.34	43583.12
549.51	43709.50
549.68	43922.49
549.84	44549.76
550.01	43988.03
550.18	44378.90
550.34	44308.68
550.51	44378.90
550.68	44285.28
550.84	44109.74
551.01	44414.01
551.18	44404.64
551.34	44236.12
551.51	44879.77
551.68	44624.65
551.84	44692.53
552.01	44304.00
552.18	44484.22
552.34	44224.42
552.51	44608.27
552.68	44624.65
552.84	44797.85
553.01	45052.97
553.18	44926.58
553.34	44685.51
553.51	44797.85
553.67	44685.51
553.84	45558.53
554.01	45382.99
554.17	45153.62
554.34	45008.50
554.51	45595.98
554.67	45352.56
554.84	45059.99
555.00	44701.89
555.17	45008.50
555.33	45165.32
555.50	44947.65
555.67	44732.32
555.83	45013.18
556.00	45303.41
556.16	45336.18
556.33	45326.81
556.50	45031.91
556.66	45141.91
556.83	44875.09
556.99	45455.54
557.16	45488.31
557.32	45155.96
557.49	45832.37
557.65	45188.72
557.82	45441.50
557.98	45111.49
558.15	45558.53
558.32	45418.10
558.48	44964.03
558.65	45429.80
558.81	45347.88
558.98	45247.24
559.14	45333.84
559.31	44996.80
559.47	45649.81
559.64	45481.29
559.80	45057.65
559.97	45277.66
560.13	45422.78
560.30	45862.80
560.46	45565.55
560.63	45535.12
560.79	46178.77
560.96	46043.02
561.12	45687.26
561.29	45492.99
561.45	45284.68
561.61	45734.07
561.78	45588.95
561.94	45649.81
562.11	45134.89
562.27	45677.90
562.44	45895.56
562.60	45755.13
562.77	45689.60
562.93	45895.56
563.10	45778.54
563.26	45848.75
563.42	46333.24
563.59	46181.11
563.75	46178.77
563.92	46211.54
564.08	45869.82
564.24	45853.44
564.41	45488.31
564.57	45963.44
564.74	45291.71
564.90	46057.06
565.07	45977.48
565.23	45834.71
565.39	45933.01
565.56	45954.08
565.72	45642.79
565.88	45872.16
566.05	45778.54
566.21	46316.86
566.38	46073.45
566.54	46227.92
566.70	46213.88
566.87	46227.92
567.03	45846.41
567.19	46721.77
567.36	46272.39
567.52	46759.22
567.68	46188.13
567.85	45621.72
568.01	46089.83
568.17	46106.21
568.34	46089.83
568.50	46270.05
568.66	46237.28
568.83	46183.45
568.99	45951.74
569.15	46216.22
569.32	45745.77
569.48	46021.95
569.64	46319.20
569.81	46588.36
569.97	45773.86
570.13	45663.85
570.30	45762.15
570.46	45633.42
570.62	45598.32
570.78	45713.00
570.95	45713.00
571.11	46113.23
571.27	45670.87
571.43	46054.72
571.60	45848.75
571.76	46117.92
571.92	46349.63
572.09	46309.84
572.25	46237.28
572.41	46415.16
572.57	46595.38
572.74	46777.95
572.90	46450.27
573.06	46373.03
573.22	46131.96
573.38	45998.55
573.55	46078.13
573.71	46550.91
573.87	46178.77
574.03	46021.95
574.20	46368.35
574.36	46337.93
574.52	46394.10
574.68	46148.34
574.84	45907.27
575.01	45949.40
575.17	46436.23
575.33	46082.81
575.49	45827.69
575.65	46415.16
575.82	46508.79
575.98	45830.03
576.14	46253.67
576.30	46085.15
576.46	46248.99
576.62	46394.10
576.79	46251.33
576.95	45851.09
577.11	46522.83
577.27	45841.73
577.43	46082.81
577.59	45713.00
577.75	46106.21
577.92	45820.67
578.08	45701.30
578.24	46096.85
578.40	45928.33
578.56	46007.91
578.72	46579.00
578.88	46134.30
579.04	46312.18
579.21	46099.19
579.37	46096.85
579.53	46330.90
579.69	46447.93
579.85	45909.61
580.01	45977.48
580.17	46366.01
580.33	46106.21
580.49	46204.52
580.65	46197.49
580.82	46309.84
580.98	46092.17
581.14	46391.76
581.30	46136.64
581.46	46248.99
581.62	46766.24
581.78	46251.33
581.94	46663.26
582.10	46274.73
582.26	46508.79
582.42	46422.19
582.58	46492.40
582.74	46155.36
582.90	46653.90
583.06	46768.58
583.22	46230.26
583.38	46555.60
583.54	46576.66
583.70	46433.89
583.86	46686.67
584.02	46108.55
584.18	46459.63
584.34	46256.01
584.50	46625.81
584.66	46763.90
584.82	46438.57
584.98	46515.81
585.14	46286.43
585.30	46131.96
585.46	46473.68
585.62	46206.86
585.78	46153.02
585.94	45495.33
586.10	46213.88
586.26	45911.95
586.42	46279.41
586.58	46581.34
586.74	45993.87
586.90	46529.85
587.06	46366.01
587.22	46473.68
587.38	46436.23
587.54	46579.00
587.70	46377.72
587.86	46487.72
588.02	46164.73
588.18	46419.84
588.34	46368.35
588.49	45823.01
588.65	46244.30
588.81	45996.21
588.97	46026.63
589.13	45642.79
589.29	45881.52
589.45	46265.37
589.61	46319.20
589.77	46756.88
589.93	46277.07
590.08	46328.56
590.24	46717.09
590.40	46536.87
590.56	47166.48
590.72	46660.92
590.88	46508.79
591.04	46707.73
591.20	47124.35
591.35	46562.62
591.51	46667.94
591.67	46213.88
591.83	46377.72
591.99	46031.32
592.15	46637.51
592.31	46279.41
592.46	46330.90
592.62	46684.33
592.78	46705.39
592.94	46791.99
593.10	46541.55
593.26	46845.82
593.41	46784.97
593.57	46649.22
593.73	46155.36
593.89	46536.87
594.05	46934.76
594.20	46635.17
594.36	46504.10
594.52	46307.50
594.68	46658.58
594.84	46588.36
594.99	46499.42
595.15	46501.76
595.31	46733.48
595.47	46747.52
595.62	46501.76
595.78	46564.96
595.94	46911.36
596.10	46583.68
596.25	46415.16
596.41	46188.13
596.57	45972.80
596.73	46202.18
596.88	46295.80
597.04	46597.73
597.20	46337.93
597.36	46717.09
597.51	46799.01
597.67	46541.55
597.83	46546.23
597.99	46490.06
598.14	46363.67
598.30	46358.99
598.46	46382.40
598.61	46660.92
598.77	46206.86
598.93	46429.21
599.09	46499.42
599.24	47171.16
599.40	46534.53
599.56	46656.24
599.71	46689.01
599.87	46937.10
600.03	46740.50
600.18	46670.28
600.34	46230.26
600.50	46052.38
600.65	46433.89
600.81	46546.23
600.97	46777.95
601.12	46726.46
601.28	46387.08
601.44	46459.63
601.59	46698.37
601.75	46667.94
601.91	46335.59
602.06	46181.11
602.22	46520.49
602.37	46082.81
602.53	46356.65
602.69	46677.30
602.84	46424.53
603.00	46864.55
603.16	46787.31
603.31	46248.99
603.47	46429.21
603.62	46174.09
603.78	46574.32
603.94	46719.43
604.09	46820.08
604.25	46295.80
604.40	46061.74
604.56	46101.53
604.71	46775.61
604.87	46890.29
605.03	46576.66
605.18	46354.31
605.34	46113.23
605.49	46265.37
605.65	46454.95
605.80	46117.92
605.96	46686.67
606.12	46319.20
606.27	46066.42
606.43	46244.30
606.58	46225.58
606.74	46370.69
606.89	46316.86
607.05	46515.81
607.20	46309.84
607.36	46164.73
607.51	46375.37
607.67	46253.67
607.82	46520.49
607.98	46117.92
608.13	46476.02
608.29	45736.41
608.44	46010.25
608.60	45610.02
608.75	46028.98
608.91	46057.06
609.06	46223.24
609.22	45986.85
609.37	46192.81
609.53	46176.43
609.68	45755.13
609.84	46164.73
609.99	45762.15
610.15	45586.61
610.30	45698.96
610.46	45422.78
610.61	45586.61
610.76	45972.80
610.92	46185.79
611.07	45605.34
611.23	45808.96
611.38	45869.82
611.54	45558.53
611.69	45598.32
611.84	45507.04
612.00	45565.55
612.15	45485.97
612.31	45886.20
612.46	45605.34
612.62	45841.73
612.77	45811.31
612.92	45684.92
613.08	45453.20
613.23	45511.72
613.39	44985.10
613.54	44879.77
613.69	45518.74
613.85	45212.13
614.00	45516.40
614.15	45759.81
614.31	45755.13
614.46	45579.59
614.62	45448.52
614.77	45371.28
614.92	45659.17
615.08	45214.47
615.23	44957.01
615.38	44884.45
615.54	44996.80
615.69	45052.97
615.84	45198.09
616.00	45462.57
616.15	44786.15
616.30	45399.37
616.46	45036.59
616.61	45076.38
616.76	44802.53
616.92	44577.84
617.07	45095.10
617.22	45109.14
617.37	44676.15
617.53	44830.62
617.68	44889.13
617.83	45160.64
617.99	44697.21
618.14	44692.53
618.29	44662.10
618.45	45064.67
618.60	44577.84
618.75	43999.73
618.90	44877.43
619.06	44502.95
619.21	44692.53
619.36	44690.19
619.51	44643.38
619.67	44608.27
619.82	44194.00
619.97	44699.55
620.12	44304.00
620.28	43997.39
620.43	44549.76
620.58	44601.25
620.73	44421.03
620.89	44217.40
621.04	44697.21
621.19	44802.53
621.34	44615.29
621.49	44079.31
621.65	44247.83
621.80	44388.26
621.95	43880.36
622.10	43885.04
622.25	44488.90
622.41	44154.21
622.56	44107.40
622.71	44348.47
622.86	43955.26
623.01	44037.18
623.16	44158.89
623.32	43852.28
623.47	43903.77
623.62	43852.28
623.77	43569.07
623.92	44018.46
624.07	43225.01
624.23	43768.02
624.38	43704.82
624.53	43370.13
624.68	43763.34
624.83	44053.56
624.98	43496.52
625.13	43608.86
625.29	43433.32
625.44	43290.55
625.59	42873.93
625.74	43107.99
625.89	43084.58
626.04	43199.27
626.19	42988.62
626.34	43161.82
626.49	43278.85
626.65	43533.96
626.80	43482.47
626.95	42925.42
627.10	42981.60
627.25	43274.16
627.40	42747.54
627.55	42918.40
627.70	42794.36
627.85	43072.88
628.00	42855.21
628.15	43267.14
628.30	42951.17
628.45	42497.11
628.60	42843.51
628.76	43037.77
628.91	42597.75
629.06	42361.36
629.21	42394.12
629.36	42213.90
629.51	42862.23
629.66	42698.39
629.81	42188.16
629.96	42277.10
630.11	42693.71
630.26	42997.98
630.41	43054.15
630.56	42368.38
630.71	42639.88
630.86	42557.96
631.01	42335.61
631.16	42384.76
631.31	42305.18
631.46	41867.50
631.61	42394.12
631.76	42616.47
631.91	42232.63
632.06	42377.74
632.21	42576.69
632.36	42417.53
632.51	42330.93
632.66	41926.02
632.81	42054.75
632.96	42099.22
633.10	42134.32
633.25	41923.68
633.40	42143.69
633.55	41968.15
633.70	41977.51
633.85	41893.25
634.00	42548.60
634.15	42043.04
634.30	41928.36
634.45	41762.18
634.60	41542.17
634.75	41675.58
634.90	41801.97
635.05	42000.91
635.19	41647.49
635.34	41895.59
635.49	41579.62
635.64	41420.46
635.79	41375.99
635.94	41141.94
636.09	41170.02
636.24	41081.08
636.39	40872.78
636.53	41322.16
636.68	41265.99
636.83	40989.80
636.98	41624.09
637.13	41057.68
637.28	41586.64
637.43	41340.88
637.57	41654.51
637.72	40851.71
637.87	41163.00
638.02	41172.36
638.17	41050.66
638.32	40933.63
638.46	40947.67
638.61	41076.40
638.76	40765.11
638.91	41359.61
639.06	40907.88
639.20	41230.88
639.35	41469.61
639.50	40767.45
639.65	41020.23
639.80	40645.74
639.94	40575.53
640.09	40879.80
640.24	40678.51
640.39	40538.08
640.54	40519.35
640.68	40566.16
640.83	40395.31
640.98	40102.74
641.13	40037.20
641.27	40610.64
641.42	40306.37
641.57	40210.40
641.72	40718.30
641.86	40311.05
642.01	40217.43
642.16	40201.04
642.31	39948.26
642.45	40580.21
642.60	40315.73
642.75	40179.98
642.90	40135.51
643.04	40137.85
643.19	40133.17
643.34	39901.45
643.48	40095.72
643.63	39966.99
643.78	40187.00
643.93	40032.52
644.07	40074.65
644.22	40107.42
644.37	40100.40
644.51	39679.10
644.66	39676.76
644.81	39981.03
644.95	40236.15
645.10	39812.51
645.25	39910.82
645.39	39793.79
645.54	39859.32
645.69	39913.16
645.83	39426.32
645.98	39856.98
646.13	39189.93
646.27	40074.65
646.42	39119.71
646.57	39363.13
646.71	39189.93
646.86	39887.41
647.00	39522.29
647.15	39187.59
647.30	39325.68
647.44	39131.42
647.59	39864.00
647.74	38951.20
647.88	39248.44
648.03	39040.14
648.17	39117.37
648.32	39112.69
648.47	39332.70
648.61	38930.13
648.76	39606.55
648.90	38705.44
649.05	38761.61
649.20	38979.28
649.34	39112.69
649.49	39065.88
649.63	38684.37
649.78	39182.91
649.92	38698.42
650.07	39386.54
650.21	39040.14
650.36	38869.28
650.51	38988.64
650.65	39292.91
650.80	39641.65
650.94	38979.28
651.09	38703.10
651.23	38686.71
651.38	38733.53
651.52	38321.59
651.67	38251.38
651.81	38476.07
651.96	38330.95
652.10	38422.23
652.25	38499.47
652.39	38848.21
652.54	39239.08
652.68	38728.84
652.83	38834.17
652.97	38958.22
653.12	38476.07
653.26	37741.14
653.41	38234.99
653.55	38251.38
653.70	38513.52
653.84	38611.82
653.99	38316.91
654.13	38492.45
654.27	38253.72
654.42	38532.24
654.56	38333.29
654.71	38096.90
654.85	37996.26
655.00	38312.23
655.14	37844.12
655.29	38064.13
655.43	37603.05
655.57	37113.87
655.72	37448.57
655.86	37326.86
656.01	37179.41
656.15	37404.10
656.30	37200.47
656.44	37406.44
656.58	37680.28
656.73	37764.54
656.87	37432.19
657.01	37331.54
657.16	37340.91
657.30	37163.03
657.45	37476.66
657.59	37361.97
657.73	37453.25
657.88	37645.18
658.02	37404.10
658.16	37652.20
658.31	37750.50
658.45	37450.91
658.60	37102.17
658.74	37778.59
658.88	37621.77
659.03	36947.70
659.17	37104.51
659.31	36786.20
659.46	36758.11
659.60	37294.10
659.74	37404.10
659.89	36685.56
660.03	36374.27
660.17	36751.09
660.32	36919.61
660.46	36491.29
660.60	36666.83
660.74	36720.66
660.89	36591.94
661.03	36528.74
661.17	35978.72
661.32	36236.17
661.46	36336.82
661.60	36135.53
661.74	35997.44
661.89	36273.62
662.03	36369.58
662.17	35957.65
662.31	35864.03
662.46	36622.36
662.60	36271.28
662.74	36189.36
662.88	36102.76
663.03	35634.66
663.17	35901.48
663.31	35552.74
663.45	35594.87
663.60	36046.59
663.74	35627.63
663.88	35545.72
664.02	35332.73
664.17	35491.88
664.31	34939.52
664.45	35585.50
664.59	35400.60
664.73	35739.98
664.88	35136.12
665.02	34993.35
665.16	35304.64
665.30	34787.38
665.44	34773.34
665.59	34384.81
665.73	34644.61
665.87	34618.86
666.01	34684.40
666.15	34869.30
666.29	34721.85
666.44	34724.19
666.58	34747.59
666.72	34586.10
666.86	34794.40
667.00	34763.98
667.14	34370.77
667.28	34122.67
667.43	34338.00
667.57	34312.25
667.71	34153.10
667.85	34291.19
667.99	34513.54
668.13	33773.93
668.27	34373.11
668.41	34087.56
668.56	34211.61
668.70	33839.47
668.84	33490.73
668.98	33216.88
669.12	33692.01
669.26	33638.18
669.40	33572.64
669.54	33521.15
669.68	33247.31
669.82	33251.99
669.96	33329.23
670.10	33298.80
670.25	33177.09
670.39	32994.53
670.53	32907.93
670.67	32662.18
670.81	33490.73
670.95	33041.34
671.09	32842.40
671.23	32933.68
671.37	32594.30
671.51	32620.05
671.65	32664.52
671.79	32687.92
671.93	32327.48
672.07	32107.47
672.21	32650.47
672.35	31945.97
672.49	32496.00
672.63	32154.28
672.77	32414.08
672.91	31889.80
673.05	31779.79
673.19	31637.02
673.33	31730.64
673.47	31756.39
673.61	31871.07
673.75	31407.65
673.89	31292.96
674.03	31674.47
674.17	31470.84
674.31	31321.05
674.45	31522.34
674.59	31501.27
674.73	31749.37
674.87	31281.26
675.01	31012.10
675.15	31126.78
675.29	30925.50
675.43	30850.60
675.56	30567.40
675.70	30520.59
675.84	30567.40
675.98	30017.37
676.12	30869.33
676.26	30644.63
676.40	30663.36
676.54	30185.89
676.68	30499.52
676.82	29476.71
676.96	29823.11
677.10	30216.32
677.23	29757.57
677.37	29610.12
677.51	29872.26
677.65	29177.12
677.79	29244.99
677.93	29422.87
678.07	28833.06
678.21	28711.35
678.34	28393.04
678.48	28741.78
678.62	28521.77
678.76	28706.67
678.90	28584.96
679.04	28802.63
679.18	28271.33
679.31	28329.84
679.45	28325.16
679.59	28278.35
679.73	28086.43
679.87	28481.98
680.00	28142.60
680.14	28126.22
680.28	27592.58
680.42	27747.05
680.56	27768.12
680.70	27566.83
680.83	27604.28
680.97	27667.47
681.11	27644.07
681.25	27395.97
681.39	27417.04
681.52	27517.68
681.66	26993.40
681.80	27257.88
681.94	26745.30
682.07	26630.62
682.21	26300.60
682.35	26576.78
682.49	26508.91
682.62	26431.67
682.76	26522.95
682.90	26298.26
683.04	26176.55
683.17	26171.87
683.31	25919.09
683.45	26066.55
683.59	25593.76
683.72	25881.64
683.86	25837.17
684.00	25404.17
684.13	25671.00
684.27	25282.47
684.41	24943.09
684.55	25081.18
684.68	25130.33
684.82	25046.07
684.96	25057.78
685.09	25034.37
685.23	24620.10
685.37	25289.49
685.50	24793.29
685.64	24491.37
685.78	24617.75
685.91	24222.20
686.05	24009.22
686.19	23969.43
686.32	24133.26
686.46	23510.68
686.60	23140.88
686.73	23236.84
686.87	23356.21
687.01	23454.51
687.14	22955.97
687.28	22806.18
687.42	22991.08
687.55	23040.23
687.69	23225.14
687.82	23026.19
687.96	23105.77
688.10	22565.10
688.23	22602.55
688.37	22707.88
688.50	22551.06
688.64	22780.43
688.78	22391.91
688.91	22497.23
689.05	22085.30
689.18	22317.01
689.32	22008.06
689.46	22347.44
689.59	22270.20
689.73	22221.05
689.86	22024.44
690.00	21785.71
690.13	21598.46
690.27	21312.92
690.41	21331.64
690.54	21266.11
690.68	21635.91
690.81	21245.04
690.95	21109.29
691.08	21142.06
691.22	21071.84
691.35	21036.74
691.49	20980.56
691.62	21167.80
691.76	20685.65
691.89	20945.45
692.03	20477.35
692.16	20535.86
692.30	20144.99
692.43	20374.36
692.57	20034.99
692.70	19903.92
692.84	20177.76
692.97	19637.09
693.11	20116.90
693.24	19786.89
693.38	19733.06
693.51	19707.31
693.65	19899.23
693.78	19194.73
693.92	19328.14
694.05	19510.71
694.19	19562.20
694.32	19700.29
694.45	19517.73
694.59	19168.99
694.72	19047.28
694.86	19056.64
694.99	19110.47
695.13	18932.59
695.26	18937.27
695.39	18813.23
695.53	18958.34
695.66	18834.29
695.80	18277.24
695.93	18452.78
696.07	18246.82
696.20	18501.93
696.33	18134.47
696.47	17989.36
696.60	17958.93
696.73	18167.24
696.87	17642.96
697.00	18075.96
697.14	17422.95
697.27	17743.60
697.40	17563.38
697.54	17322.30
697.67	17310.60
697.80	17254.43
697.94	17186.55
698.07	17106.98
698.21	17256.77
698.34	17114.00
698.47	17198.26
698.61	16943.14
698.74	16678.66
698.87	16774.62
699.01	16559.29
699.14	16475.03
699.27	16306.51
699.40	16383.75
699.54	16280.77
699.67	15906.28
699.80	16109.91
699.94	16013.95
700.07	15997.56
700.20	16252.68
700.34	16002.24
700.47	15908.62
700.60	15829.04
700.73	15873.51
700.87	15721.38
701.00	15515.41
701.13	15585.63
701.26	15599.67
701.40	15585.63
701.53	15449.88
701.66	15044.96
701.79	15105.82
701.93	14789.85
702.06	15051.99
702.19	14867.08
702.32	14913.89
702.46	15037.94
702.59	15061.35
702.72	14888.15
702.85	14899.85
702.99	14829.63
703.12	14541.75
703.25	14225.78
703.38	14265.57
703.51	14382.59
703.65	14464.51
703.78	14075.98
703.91	13947.25
704.04	14010.45
704.17	14073.64
704.31	14001.08
704.44	13771.71
704.57	13790.44
704.70	13689.79
704.83	13696.82
704.96	13685.11
705.10	13596.17
705.23	13671.07
>>>>>End Processed Spectral Data<<<<<
