SpectraSuite Data File
++++++++++++++++++++++++++++++++++++
Date: Fri Oct 25 10:43:41 EDT 2013
User: price-jones
Dark Spectrum Present: No
Reference Spectrum Present: No
Number of Sampled Component Spectra: 1
Spectrometers: USB2+H05261
Integration Time (usec): 100000 (USB2+H05261)
Spectra Averaged: 1 (USB2+H05261)
Boxcar Smoothing: 0 (USB2+H05261)
Correct for Electrical Dark: No (USB2+H05261)
Strobe/Lamp Enabled: No (USB2+H05261)
Correct for Detector Non-linearity: No (USB2+H05261)
Correct for Stray Light: No (USB2+H05261)
Number of Pixels in Processed Spectrum: 2048
>>>>>Begin Processed Spectral Data<<<<<
365.73	135.75
365.92	135.75
366.12	135.75
366.32	0.00
366.52	37.45
366.72	28.09
366.91	16.38
367.11	0.00
367.31	23.41
367.51	0.00
367.70	2.34
367.90	18.72
368.10	91.28
368.30	0.00
368.49	0.00
368.69	46.81
368.89	51.49
369.09	16.38
369.28	25.75
369.48	9.36
369.68	70.22
369.87	93.62
370.07	74.90
370.27	142.77
370.47	198.95
370.66	390.87
370.86	430.66
371.06	486.83
371.25	533.64
371.45	425.98
371.65	430.66
371.84	444.70
372.04	472.79
372.24	493.85
372.44	507.90
372.63	451.72
372.83	578.11
373.03	489.17
373.22	477.47
373.42	559.39
373.62	543.00
373.81	533.64
374.01	552.37
374.21	566.41
374.40	606.20
374.60	547.69
374.79	559.39
374.99	550.03
375.19	566.41
375.38	594.50
375.58	620.24
375.78	627.26
375.97	674.07
376.17	683.44
376.37	580.45
376.56	613.22
376.76	592.16
376.95	531.30
377.15	624.92
377.35	645.99
377.54	638.97
377.74	657.69
377.93	650.67
378.13	676.41
378.33	627.26
378.52	603.86
378.72	674.07
378.91	622.58
379.11	681.10
379.31	704.50
379.50	709.18
379.70	613.22
379.89	638.97
380.09	629.60
380.28	655.35
380.48	657.69
380.68	744.29
380.87	678.76
381.07	795.78
381.26	704.50
381.46	669.39
381.65	741.95
381.85	716.20
382.04	795.78
382.24	779.40
382.43	622.58
382.63	645.99
382.83	690.46
383.02	751.31
383.22	695.14
383.41	800.46
383.61	823.87
383.80	781.74
384.00	720.88
384.19	793.44
384.39	786.42
384.58	781.74
384.78	809.83
384.97	793.44
385.17	751.31
385.36	793.44
385.56	823.87
385.75	716.20
385.95	793.44
386.14	894.08
386.34	821.53
386.53	842.59
386.72	823.87
386.92	828.55
387.11	858.98
387.31	856.64
387.50	863.66
387.70	915.15
387.89	936.21
388.09	805.14
388.28	882.38
388.48	861.32
388.67	1001.75
388.86	856.64
389.06	1004.09
389.25	1036.86
389.45	1006.43
389.64	1050.90
389.84	1081.33
390.03	1015.79
390.22	1020.47
390.42	1011.11
390.61	1128.14
390.81	1048.56
391.00	1111.75
391.19	1107.07
391.39	1078.99
391.58	1036.86
391.78	933.87
391.97	1069.62
392.16	1039.20
392.36	1118.78
392.55	1086.01
392.75	1004.09
392.94	1025.15
393.13	985.37
393.33	990.05
393.52	1071.97
393.71	1062.60
393.91	1102.39
394.10	1163.25
394.29	1214.74
394.49	1121.12
394.68	1149.20
394.88	1203.04
395.07	1252.19
395.26	1294.32
395.46	1219.42
395.65	1287.29
395.84	1219.42
396.04	1235.80
396.23	1184.31
396.42	1231.12
396.62	1170.27
396.81	1156.22
397.00	1355.17
397.19	1259.21
397.39	1289.64
397.58	1406.66
397.77	1430.07
397.97	1413.68
398.16	1439.43
398.35	1451.13
398.55	1401.98
398.74	1535.39
398.93	1554.12
399.12	1432.41
399.32	1568.16
399.51	1610.29
399.70	1582.20
399.90	1570.50
400.09	1572.84
400.28	1617.31
400.47	1617.31
400.67	1717.95
400.86	1617.31
401.05	1661.78
401.24	1687.53
401.44	1783.49
401.63	1769.44
401.82	1692.21
402.01	1624.33
402.21	1816.26
402.40	1795.19
402.59	1797.53
402.78	1834.98
402.97	1797.53
403.17	1809.23
403.36	1832.64
403.55	1952.01
403.74	1935.62
403.93	1825.62
404.13	1886.47
404.32	1809.23
404.51	2026.90
404.70	1947.33
404.89	1921.58
405.09	2019.88
405.28	1982.43
405.47	1980.09
405.66	1963.71
405.85	1973.07
406.05	1966.05
406.24	2015.20
406.43	2106.48
406.62	2066.69
406.81	2153.29
407.00	2047.97
407.20	2132.23
407.39	2094.78
407.58	2218.83
407.77	2216.49
407.96	2282.02
408.15	2169.68
408.34	2242.23
408.54	2310.11
408.73	2399.05
408.92	2282.02
409.11	2387.35
409.30	2333.51
409.49	2377.98
409.68	2289.04
409.87	2457.56
410.07	2359.26
410.26	2417.77
410.45	2424.80
410.64	2410.75
410.83	2487.99
411.02	2612.04
411.21	2696.30
411.40	2609.70
411.59	2600.34
411.78	2605.02
411.98	2597.99
412.17	2724.38
412.36	2686.94
412.55	2771.19
412.74	2799.28
412.93	2738.43
413.12	2766.51
413.31	2923.33
413.50	2747.79
413.69	2942.05
413.88	2949.08
414.07	2829.71
414.26	3040.36
414.45	2956.10
414.64	3021.63
414.83	3122.27
415.02	2960.78
415.22	3197.17
415.41	3206.53
415.60	3255.69
415.79	3248.66
415.98	3325.90
416.17	3159.72
416.36	3304.84
416.55	3279.09
416.74	3225.26
416.93	3328.24
417.12	3337.60
417.31	3372.71
417.50	3431.23
417.69	3487.40
417.88	3482.72
418.07	3438.25
418.26	3400.80
418.45	3407.82
418.64	3646.55
418.83	3513.14
419.02	3485.06
419.21	3684.00
419.39	3529.53
419.58	3557.61
419.77	3576.34
419.96	3719.11
420.15	3798.69
420.34	3791.67
420.53	3805.71
420.72	3894.65
420.91	3831.46
421.10	3803.37
421.29	3894.65
421.48	3854.86
421.67	3871.25
421.86	3857.20
422.05	3936.78
422.24	3775.28
422.43	3803.37
422.61	3920.40
422.80	4074.87
422.99	3925.08
423.18	3829.12
423.37	4175.52
423.56	3906.35
423.75	3819.75
423.94	3981.25
424.13	3623.15
424.32	3843.16
424.50	3990.61
424.69	4077.21
424.88	4049.13
425.07	3873.59
425.26	4063.17
425.45	3939.12
425.64	3976.57
425.83	4079.55
426.01	4086.58
426.20	4028.06
426.39	3969.55
426.58	3941.46
426.77	4077.21
426.96	3969.55
427.15	3962.53
427.33	4042.11
427.52	4145.09
427.71	4107.64
427.90	4121.68
428.09	4142.75
428.28	4088.92
428.46	4294.88
428.65	4121.68
428.84	4374.46
429.03	4332.33
429.22	4112.32
429.40	4173.18
429.59	4088.92
429.78	3936.78
429.97	3983.59
430.16	4140.41
430.34	4161.47
430.53	4231.69
430.72	4147.43
430.91	4255.09
431.10	4315.95
431.28	4559.36
431.47	4725.54
431.66	4737.24
431.85	4496.17
432.03	4610.86
432.22	4795.76
432.41	4667.03
432.60	4695.11
432.79	4741.93
432.97	4901.08
433.16	4788.74
433.35	4603.83
433.54	4798.10
433.72	4669.37
433.91	4739.58
434.10	4779.37
434.28	4891.72
434.47	4755.97
434.66	4835.55
434.85	5011.09
435.03	4994.70
435.22	4917.47
435.41	5090.67
435.59	5177.26
435.78	5011.09
435.97	5174.92
436.16	5298.97
436.34	5142.16
436.53	5287.27
436.72	5310.68
436.90	5043.85
437.09	5263.86
437.28	5078.96
437.46	5277.91
437.65	5254.50
437.84	5228.76
438.02	5200.67
438.21	5273.23
438.40	5181.95
438.58	5551.75
438.77	5334.08
438.96	5540.05
439.14	5518.98
439.33	5710.91
439.52	5633.67
439.70	5729.63
439.89	5530.69
440.08	5846.66
440.26	5696.86
440.45	5720.27
440.63	5919.21
440.82	5942.62
441.01	6080.71
441.19	5977.73
441.38	6073.69
441.57	6094.76
441.75	6389.66
441.94	6300.72
442.12	6284.34
442.31	6443.49
442.50	6200.08
442.68	6387.32
442.87	6445.84
443.05	6307.74
443.24	6509.03
443.43	6434.13
443.61	6607.33
443.80	6808.62
443.98	6436.47
444.17	6326.47
444.35	6654.14
444.54	6630.74
444.73	6647.12
444.91	6452.86
445.10	6448.18
445.28	6473.92
445.47	6534.78
445.65	6338.17
445.84	6492.65
446.02	6810.96
446.21	6675.21
446.39	6626.06
446.58	6647.12
446.77	6668.19
446.95	6715.00
447.14	6815.64
447.32	6899.90
447.51	6722.02
447.69	6731.38
447.88	6848.41
448.06	6609.67
448.25	6715.00
448.43	6778.19
448.62	6846.07
448.80	6768.83
448.99	6890.54
449.17	6864.79
449.36	6834.36
449.54	7061.40
449.73	7126.93
449.91	7229.91
450.10	7201.83
450.28	7241.62
450.46	7349.28
450.65	7321.20
450.83	7339.92
451.02	7236.94
451.20	7445.24
451.39	7335.24
451.57	7339.92
451.76	7185.44
451.94	7232.26
452.13	7419.50
452.31	7407.80
452.49	7157.36
452.68	7410.14
452.86	7309.49
453.05	7438.22
453.23	7428.86
453.42	7145.66
453.60	7335.24
453.78	7384.39
453.97	7445.24
454.15	7370.35
454.34	7597.38
454.52	7606.74
454.70	7588.02
454.89	7620.78
455.07	7613.76
455.26	7534.18
455.44	7871.22
455.62	7754.19
455.81	7707.38
455.99	7915.69
456.17	7941.44
456.36	7857.18
456.54	8109.96
456.73	8074.85
456.91	8418.91
457.09	8278.47
457.28	8336.99
457.46	8072.51
457.64	8105.28
457.83	8189.53
458.01	8255.07
458.19	8187.19
458.38	8308.90
458.56	8346.35
458.74	8250.39
458.93	8381.46
459.11	8397.84
459.29	8238.69
459.48	8390.82
459.66	8306.56
459.84	8664.66
460.03	8716.16
460.21	8552.32
460.39	8671.68
460.57	8882.33
460.76	8498.49
460.94	8772.33
461.12	8636.58
461.31	8648.28
461.49	8748.92
461.67	8971.27
461.85	9036.81
462.04	8748.92
462.22	9387.89
462.40	9165.54
462.59	9128.09
462.77	8898.72
462.95	8933.82
463.13	8990.00
463.32	8915.10
463.50	9186.60
463.68	9104.68
463.86	9104.68
464.05	9034.47
464.23	8903.40
464.41	9062.55
464.59	8851.91
464.78	9179.58
464.96	9149.15
465.14	9212.35
465.32	9280.22
465.50	9329.38
465.69	9352.78
465.87	9217.03
466.05	9329.38
466.23	9224.05
466.41	9474.49
466.60	9355.12
466.78	9334.06
466.96	9528.32
467.14	9544.70
467.32	9280.22
467.51	9430.02
467.69	9245.12
467.87	9549.39
468.05	9696.84
468.23	9589.17
468.41	9488.53
468.60	9547.05
468.78	9675.77
468.96	9706.20
469.14	9816.21
469.32	9755.35
469.50	9666.41
469.69	9680.46
469.87	9802.16
470.05	9846.63
470.23	9844.29
470.41	9977.70
470.59	10188.35
470.77	10047.92
470.95	9767.06
471.14	10104.09
471.32	10085.37
471.50	10436.45
471.68	10427.09
471.86	10509.01
472.04	10670.50
472.22	10726.68
472.40	10284.31
472.58	10595.61
472.77	10604.97
472.95	10871.79
473.13	10956.05
473.31	10619.01
473.49	10686.89
473.67	10843.70
473.85	10686.89
474.03	11012.22
474.21	11002.86
474.39	11262.66
474.57	11269.68
474.75	11234.57
474.93	11133.93
475.12	11138.61
475.30	11669.91
475.48	11398.41
475.66	11449.90
475.84	11290.74
476.02	11421.81
476.20	11585.65
476.38	11648.85
476.56	11976.52
476.74	12049.08
476.92	12004.61
477.10	12016.31
477.28	12231.64
477.46	12313.56
477.64	12428.24
477.82	12549.95
478.00	12826.14
478.18	12556.97
478.36	12666.98
478.54	12709.11
478.72	12636.55
478.90	13048.49
479.08	13085.94
479.26	13327.01
479.44	13476.80
479.62	13390.20
479.80	13209.98
479.98	13467.44
480.16	13785.76
480.34	13769.37
480.52	13851.29
480.70	13687.45
480.88	13820.86
481.06	14090.02
481.24	14291.31
481.41	14134.50
481.59	14579.20
481.77	14485.58
481.95	14553.45
482.13	14855.38
482.31	14878.79
482.49	15194.76
482.67	15176.03
482.85	15194.76
483.03	15330.51
483.21	15342.21
483.39	15658.18
483.57	15328.17
483.74	15768.19
483.92	16011.60
484.10	15639.46
484.28	16072.46
484.46	16278.43
484.64	16460.99
484.82	16489.07
485.00	16512.48
485.18	16208.21
485.35	16800.37
485.53	16285.45
485.71	16327.58
485.89	16374.39
486.07	16886.97
486.25	16987.61
486.43	16989.95
486.61	17163.15
486.78	17448.69
486.96	17668.70
487.14	17474.44
487.32	17696.79
487.50	18183.62
487.68	18209.37
487.85	18441.08
488.03	18668.11
488.21	18710.24
488.39	18595.56
488.57	18960.68
488.75	19087.07
488.92	19454.53
489.10	19552.84
489.28	19311.76
489.46	19772.85
489.64	19983.49
489.81	20381.38
489.99	20130.95
490.17	20442.24
490.35	20582.67
490.53	20545.22
490.70	20702.04
490.88	20638.84
491.06	20952.48
491.24	20884.60
491.41	20975.88
491.59	20992.26
491.77	21015.67
491.95	21277.81
492.13	21598.46
492.30	21584.42
492.48	22047.85
492.66	22324.03
492.84	21759.96
493.01	22448.08
493.19	22382.54
493.37	22349.78
493.54	22506.59
493.72	22977.04
493.90	22719.58
494.08	23321.10
494.25	23199.39
494.43	23468.55
494.61	23454.51
494.79	23620.69
494.96	23288.33
495.14	23864.10
495.32	24128.58
495.49	23887.51
495.67	23978.79
495.85	24222.20
496.02	24496.05
496.20	24919.68
496.38	24709.04
496.55	24713.72
496.73	25135.01
496.91	24982.88
497.09	25191.19
497.26	25179.48
497.44	25069.48
497.62	25109.27
497.79	25322.26
497.97	25418.22
498.14	25678.02
498.32	25703.76
498.50	25909.73
498.67	26143.78
498.85	26206.98
499.03	26581.46
499.20	26452.73
499.38	26295.92
499.56	26848.29
499.73	26562.74
499.91	26728.92
500.08	26913.82
500.26	27040.21
500.44	26780.41
500.61	26799.13
500.79	26705.51
500.97	27321.07
501.14	27227.45
501.32	27201.71
501.49	27314.05
501.67	27431.08
501.84	27929.61
502.02	27424.06
502.20	27690.88
502.37	27913.23
502.55	28161.33
502.72	28224.52
502.90	28158.99
503.07	28105.15
503.25	28428.15
503.43	27878.12
503.60	28521.77
503.78	28531.13
503.95	28362.61
504.13	28601.35
504.30	28877.53
504.48	29242.65
504.65	28730.08
504.83	28982.85
505.01	29450.96
505.18	29706.08
505.36	29907.37
505.53	29752.89
505.71	29832.47
505.88	29504.79
506.06	29535.22
506.23	30054.82
506.41	30108.65
506.58	30045.46
506.76	29898.00
506.93	30391.86
507.11	30457.39
507.28	30443.35
507.46	29790.34
507.63	30071.20
507.81	30380.15
507.98	30623.57
508.16	30307.60
508.33	30778.04
508.50	31541.06
508.68	31014.44
508.85	31424.03
509.03	31208.70
509.20	31491.91
509.38	31384.24
509.55	31461.48
509.73	31543.40
509.90	31934.27
510.08	31866.39
510.25	31562.12
510.42	31807.88
510.60	31971.72
510.77	32154.28
510.95	31997.46
511.12	31899.16
511.30	32081.72
511.47	32535.79
511.64	32439.82
511.82	32552.17
511.99	32378.97
512.17	32994.53
512.34	32772.18
512.51	32891.55
512.69	32982.83
512.86	32694.94
513.04	33130.28
513.21	33153.69
513.38	32783.88
513.56	32966.45
513.73	33097.52
513.90	33031.98
514.08	33134.96
514.25	33591.37
514.43	33584.35
514.60	33596.05
514.77	33399.44
514.95	33851.17
515.12	33776.27
515.29	34087.56
515.47	34108.63
515.64	34352.04
515.81	33806.70
515.99	34160.12
516.16	34218.63
516.33	34249.06
516.51	34073.52
516.68	33546.90
516.85	33755.21
517.03	33968.19
517.20	34223.31
517.37	34129.69
517.54	34609.50
517.72	34682.06
517.89	34099.26
518.06	34134.37
518.24	34424.60
518.41	34494.82
518.58	34569.71
518.75	34623.54
518.93	35192.30
519.10	34689.08
519.27	35468.48
519.45	35482.52
519.62	35379.54
519.79	35754.02
519.96	35346.77
520.14	35545.72
520.31	35498.91
520.48	35278.89
520.65	35702.53
520.83	36341.50
521.00	35962.33
521.17	35796.15
521.34	36025.53
521.52	36231.49
521.69	36180.00
521.86	36730.03
522.03	36561.51
522.20	36411.71
522.38	36549.81
522.55	36268.94
522.72	36685.56
522.89	36739.39
523.07	36840.03
523.24	37022.59
523.41	37104.51
523.58	37198.13
523.75	38040.73
523.92	37511.77
524.10	37563.26
524.27	37591.34
524.44	37558.58
524.61	37598.37
524.78	37977.53
524.96	37680.28
525.13	37832.42
525.30	37839.44
525.47	38092.22
525.64	37663.90
525.81	37591.34
525.98	37823.06
526.16	37350.27
526.33	37654.54
526.50	38040.73
526.67	37413.46
526.84	37504.74
527.01	37383.04
527.18	38202.22
527.36	38431.60
527.53	38962.90
527.70	38993.32
527.87	38689.06
528.04	38834.17
528.21	38836.51
528.38	38607.14
528.55	38932.47
528.72	39084.61
528.89	39115.03
529.07	39302.28
529.24	39009.71
529.41	39222.70
529.58	39089.29
529.75	39136.10
529.92	39400.58
530.09	39316.32
530.26	39611.23
530.43	39508.24
530.60	39166.52
530.77	39309.30
530.94	40175.30
531.11	39662.72
531.28	39592.50
531.46	39943.58
531.63	40133.17
531.80	39431.01
531.97	39929.54
532.14	39777.40
532.31	39342.06
532.48	39468.45
532.65	40091.04
532.82	39732.93
532.99	40222.11
533.16	40023.16
533.33	40247.85
533.50	40100.40
533.67	39793.79
533.84	39941.24
534.01	40589.57
534.18	40596.59
534.35	40629.36
534.52	40280.62
534.69	40662.13
534.86	40840.01
535.03	40627.02
535.20	41261.30
535.37	40903.20
535.54	40921.93
535.71	40793.20
535.88	40694.89
536.05	40968.74
536.22	40891.50
536.38	41333.86
536.55	41010.87
536.72	40879.80
536.89	40741.71
537.06	40863.41
537.23	41191.09
537.40	41792.61
537.57	41495.36
537.74	41127.89
537.91	41745.80
538.08	41790.27
538.25	41029.59
538.42	41202.79
538.59	41411.10
538.75	41181.73
538.92	41823.03
539.09	41588.98
539.26	41598.34
539.43	41846.44
539.60	41745.80
539.77	41495.36
539.94	41961.12
540.11	41329.18
540.28	41663.88
540.44	41949.42
540.61	41862.82
540.78	41687.28
540.95	41380.67
541.12	41645.15
541.29	42141.35
541.46	41954.10
541.62	42033.68
541.79	42518.17
541.96	41926.02
542.13	42120.28
542.30	42103.90
542.47	42323.91
542.63	42014.96
542.80	42333.27
542.97	42892.66
543.14	42997.98
543.31	42616.47
543.48	42560.30
543.64	42955.85
543.81	43026.07
543.98	43054.15
544.15	43009.68
544.32	43098.62
544.48	43536.30
544.65	43150.12
544.82	43735.25
544.99	42555.62
545.16	43426.30
545.32	43295.23
545.49	43604.18
545.66	43634.61
545.83	43468.43
546.00	43370.13
546.16	43400.55
546.33	43531.62
546.50	43122.03
546.67	44098.03
546.83	43264.80
547.00	43440.34
547.17	43304.59
547.34	43590.14
547.50	43737.59
547.67	43833.55
547.84	43711.84
548.00	44018.46
548.17	43775.04
548.34	43819.51
548.51	44149.53
548.67	43941.22
548.84	44175.27
549.01	43821.85
549.18	43929.51
549.34	44250.17
549.51	43789.08
549.68	44226.76
549.84	43992.71
550.01	43948.24
550.18	44289.96
550.34	44556.78
550.51	44261.87
550.68	44018.46
550.84	43627.59
551.01	44311.02
551.18	44238.47
551.34	44657.42
551.51	44570.82
551.68	44411.67
551.84	44341.45
552.01	44208.04
552.18	44722.96
552.34	44039.52
552.51	44341.45
552.68	44535.71
552.84	44491.24
553.01	44900.84
553.18	44643.38
553.34	44769.77
553.51	44842.32
553.67	44652.74
553.84	45125.53
554.01	45045.95
554.17	45113.83
554.34	45085.74
554.51	44615.29
554.67	45153.62
554.84	44919.56
555.00	44708.91
555.17	44383.58
555.33	45333.84
555.50	44772.11
555.67	45083.40
555.83	45160.64
556.00	44722.96
556.16	45312.77
556.33	45179.36
556.50	44802.53
556.66	45158.30
556.83	44744.02
556.99	45350.22
557.16	45492.99
557.32	45439.16
557.49	45588.95
557.65	45111.49
557.82	45214.47
557.98	45326.81
558.15	45567.89
558.32	45865.14
558.48	45172.34
558.65	45144.25
558.81	44945.31
558.98	45050.63
559.14	45305.75
559.31	45212.13
559.47	45439.16
559.64	45490.65
559.80	45436.82
559.97	45502.35
560.13	45064.67
560.30	45373.63
560.46	45677.90
560.63	45492.99
560.79	45614.70
560.96	45965.78
561.12	45593.64
561.29	45612.36
561.45	45713.00
561.61	45743.43
561.78	45345.54
561.94	45591.30
562.11	45380.65
562.27	45689.60
562.44	45617.04
562.60	45968.12
562.77	45830.03
562.93	45532.78
563.10	46220.90
563.26	45427.46
563.42	45841.73
563.59	45631.08
563.75	45925.99
563.92	45867.48
564.08	45975.14
564.24	46085.15
564.41	45586.61
564.57	45909.61
564.74	45853.44
564.90	45916.63
565.07	45776.20
565.23	45787.90
565.39	45741.09
565.56	45701.30
565.72	45741.09
565.88	45670.87
566.05	45698.96
566.21	45841.73
566.38	45705.98
566.54	45722.37
566.70	46213.88
566.87	46328.56
567.03	45862.80
567.19	46656.24
567.36	46349.63
567.52	46131.96
567.68	45921.31
567.85	45738.75
568.01	45455.54
568.17	46138.98
568.34	46356.65
568.50	45755.13
568.66	45907.27
568.83	46131.96
568.99	46185.79
569.15	45893.22
569.32	45982.16
569.48	45603.00
569.64	46267.71
569.81	45963.44
569.97	46043.02
570.13	45949.40
570.30	45748.11
570.46	45860.46
570.62	45621.72
570.78	45727.05
570.95	45862.80
571.11	45979.82
571.27	45483.63
571.43	45724.71
571.60	46036.00
571.76	45710.66
571.92	46127.28
572.09	46485.38
572.25	46078.13
572.41	46464.32
572.57	46389.42
572.74	46394.10
572.90	46473.68
573.06	46403.46
573.22	45787.90
573.38	46293.46
573.55	46410.48
573.71	46267.71
573.87	46176.43
574.03	45514.06
574.20	46405.80
574.36	45944.72
574.52	46227.92
574.68	46005.57
574.84	46155.36
575.01	46370.69
575.17	46033.66
575.33	45825.35
575.49	45982.16
575.65	46520.49
575.82	46609.43
575.98	46190.47
576.14	46251.33
576.30	46181.11
576.46	46246.65
576.62	46246.65
576.79	46639.86
576.95	46129.62
577.11	46445.59
577.27	46653.90
577.43	46426.87
577.59	46040.68
577.75	45933.01
577.92	46066.42
578.08	45663.85
578.24	45675.55
578.40	46223.24
578.56	46457.29
578.72	46073.45
578.88	46454.95
579.04	46321.54
579.21	45888.54
579.37	46223.24
579.53	46129.62
579.69	45860.46
579.85	46316.86
580.01	46330.90
580.17	46024.29
580.33	46148.34
580.49	46387.08
580.65	46527.51
580.82	46103.87
580.98	46141.32
581.14	45911.95
581.30	46337.93
581.46	46265.37
581.62	46333.24
581.78	45902.59
581.94	46618.79
582.10	46344.95
582.26	46653.90
582.42	46614.11
582.58	46176.43
582.74	46590.70
582.90	46480.70
583.06	46604.75
583.22	46745.18
583.38	46609.43
583.54	46356.65
583.70	46539.21
583.86	46480.70
584.02	46286.43
584.18	46230.26
584.34	46293.46
584.50	46146.00
584.66	46183.45
584.82	46333.24
584.98	46740.50
585.14	46258.35
585.30	46387.08
585.46	46164.73
585.62	46050.04
585.78	46216.22
585.94	46108.55
586.10	46218.56
586.26	45860.46
586.42	46571.98
586.58	46852.84
586.74	46253.67
586.90	46600.07
587.06	46714.75
587.22	46754.54
587.38	46548.57
587.54	46483.04
587.70	46913.70
587.86	46321.54
588.02	46298.14
588.18	46766.24
588.34	45883.86
588.49	45848.75
588.65	46012.59
588.81	45825.35
588.97	46010.25
589.13	45869.82
589.29	46057.06
589.45	46408.14
589.61	46054.72
589.77	46937.10
589.93	46024.29
590.08	46122.60
590.24	46651.56
590.40	46880.93
590.56	46738.16
590.72	46452.61
590.88	46295.80
591.04	46478.36
591.20	46906.68
591.35	46471.34
591.51	46370.69
591.67	46220.90
591.83	46258.35
591.99	46302.82
592.15	46438.57
592.31	46609.43
592.46	46621.13
592.62	46068.76
592.78	46794.33
592.94	46866.89
593.10	46302.82
593.26	46658.58
593.41	46560.28
593.57	46485.38
593.73	46433.89
593.89	46377.72
594.05	46681.98
594.20	46513.47
594.36	46742.84
594.52	46560.28
594.68	46625.81
594.84	46731.14
594.99	46536.87
595.15	46541.55
595.31	46890.29
595.47	46789.65
595.62	46485.38
595.78	46358.99
595.94	46944.12
596.10	46693.69
596.25	46712.41
596.41	46419.84
596.57	46164.73
596.73	46859.87
596.88	46433.89
597.04	46424.53
597.20	46780.29
597.36	46321.54
597.51	46925.40
597.67	46576.66
597.83	46810.71
597.99	46691.35
598.14	46389.42
598.30	46391.76
598.46	46955.83
598.61	46504.10
598.77	46464.32
598.93	46181.11
599.09	46382.40
599.24	47105.62
599.40	46494.74
599.56	47000.30
599.71	46429.21
599.87	46649.22
600.03	46092.17
600.18	46759.22
600.34	46356.65
600.50	46651.56
600.65	46330.90
600.81	46387.08
600.97	46820.08
601.12	46621.13
601.28	46454.95
601.44	46398.78
601.59	46169.41
601.75	45834.71
601.91	45909.61
602.06	46202.18
602.22	46251.33
602.37	46602.41
602.53	46373.03
602.69	47000.30
602.84	46209.20
603.00	46422.19
603.16	46312.18
603.31	46508.79
603.47	46618.79
603.62	46721.77
603.78	46822.42
603.94	46635.17
604.09	46724.11
604.25	46335.59
604.40	46721.77
604.56	47040.09
604.71	46576.66
604.87	46581.34
605.03	46454.95
605.18	45848.75
605.34	46604.75
605.49	46068.76
605.65	46342.61
605.80	46354.31
605.96	46328.56
606.12	46298.14
606.27	46513.47
606.43	46567.30
606.58	46253.67
606.74	46312.18
606.89	45961.10
607.05	46162.39
607.20	46000.89
607.36	46344.95
607.51	46471.34
607.67	46457.29
607.82	46181.11
607.98	46218.56
608.13	46167.07
608.29	46188.13
608.44	46211.54
608.60	45537.46
608.75	46064.08
608.91	46141.32
609.06	46267.71
609.22	46052.38
609.37	45801.94
609.53	46073.45
609.68	46066.42
609.84	46007.91
609.99	45928.33
610.15	45823.01
610.30	45954.08
610.46	45518.74
610.61	46234.94
610.76	45797.26
610.92	45923.65
611.07	46206.86
611.23	45937.69
611.38	45846.41
611.54	45551.51
611.69	45584.27
611.84	45228.51
612.00	45509.38
612.15	45778.54
612.31	45830.03
612.46	45998.55
612.62	45745.77
612.77	45617.04
612.92	45769.18
613.08	45509.38
613.23	45689.60
613.39	45041.27
613.54	45542.14
613.69	45668.53
613.85	45567.89
614.00	45598.32
614.15	45752.79
614.31	45024.89
614.46	45764.49
614.62	45340.86
614.77	45509.38
614.92	45184.04
615.08	45155.96
615.23	45184.04
615.38	45373.63
615.54	45186.38
615.69	44994.46
615.84	45233.19
616.00	44954.67
616.15	44964.03
616.30	45317.45
616.46	44847.00
616.61	45013.18
616.76	44856.37
616.92	44622.31
617.07	44825.94
617.22	44711.25
617.37	44648.06
617.53	45209.79
617.68	44783.81
617.83	45125.53
617.99	44722.96
618.14	44807.22
618.29	44779.13
618.45	44634.02
618.60	44374.22
618.75	44158.89
618.90	44762.75
619.06	44718.28
619.21	44463.16
619.36	45085.74
619.51	44549.76
619.67	44392.94
619.82	44622.31
619.97	44699.55
620.12	44149.53
620.28	43950.58
620.43	44156.55
620.58	44865.73
620.73	44507.63
620.89	44191.65
621.04	44486.56
621.19	44507.63
621.34	44149.53
621.49	44350.81
621.65	43995.05
621.80	44463.16
621.95	44271.23
622.10	44271.23
622.25	43894.41
622.41	43973.98
622.56	43882.70
622.71	44231.44
622.86	44158.89
623.01	44114.42
623.16	44392.94
623.32	44032.50
623.47	43913.13
623.62	43880.36
623.77	43753.97
623.92	43887.39
624.07	43587.80
624.23	43250.76
624.38	43772.70
624.53	43512.90
624.68	43791.42
624.83	43571.41
624.98	43892.07
625.13	43152.46
625.29	42967.55
625.44	43370.13
625.59	43517.58
625.74	43278.85
625.89	43398.21
626.04	42909.04
626.19	43117.35
626.34	43353.74
626.49	43210.97
626.65	43267.14
626.80	43594.82
626.95	43002.66
627.10	42784.99
627.25	42995.64
627.40	43105.65
627.55	42684.35
627.70	42916.06
627.85	43056.50
628.00	43136.07
628.15	43021.39
628.30	43271.82
628.45	43105.65
628.60	42981.60
628.76	42939.47
628.91	42614.13
629.06	42934.79
629.21	42478.38
629.36	42422.21
629.51	42670.31
629.66	42693.71
629.81	42583.71
629.96	42426.89
630.11	42843.51
630.26	42773.29
630.41	43007.34
630.56	42869.25
630.71	42574.34
630.86	42464.34
631.01	41993.89
631.16	42366.04
631.31	42075.81
631.46	42335.61
631.61	42784.99
631.76	42064.11
631.91	42553.28
632.06	42445.62
632.21	42377.74
632.36	42143.69
632.51	41869.84
632.66	42291.14
632.81	41954.10
632.96	42150.71
633.10	42237.31
633.25	41736.43
633.40	42108.58
633.55	42249.01
633.70	41762.18
633.85	41951.76
634.00	41780.90
634.15	41862.82
634.30	41298.75
634.45	41769.20
634.60	41813.67
634.75	41375.99
634.90	41390.03
635.05	41764.52
635.19	41977.51
635.34	41991.55
635.49	41661.54
635.64	41729.41
635.79	41551.53
635.94	41453.23
636.09	41518.76
636.24	41338.54
636.39	41001.50
636.53	41495.36
636.68	41163.00
636.83	41109.17
636.98	41563.23
637.13	41277.69
637.28	41560.89
637.43	41130.23
637.57	41535.15
637.72	41167.68
637.87	41354.93
638.02	41390.03
638.17	41221.52
638.32	40830.65
638.46	41088.10
638.61	41099.81
638.76	41083.42
638.91	40992.14
639.06	40837.67
639.20	41240.24
639.35	41195.77
639.50	41083.42
639.65	41397.06
639.80	40655.11
639.94	40928.95
640.09	40816.60
640.24	40414.03
640.39	40648.08
640.54	40528.72
640.68	41083.42
640.83	40514.67
640.98	40498.29
641.13	40259.55
641.27	40690.21
641.42	40657.45
641.57	40030.18
641.72	40615.32
641.86	40320.41
642.01	40374.24
642.16	40392.97
642.31	40203.38
642.45	40458.50
642.60	40334.45
642.75	40069.97
642.90	40533.40
643.04	40072.31
643.19	40215.08
643.34	40100.40
643.48	40170.61
643.63	39952.94
643.78	39990.39
643.93	40336.79
644.07	39924.86
644.22	39742.30
644.37	39620.59
644.51	39931.88
644.66	40030.18
644.81	39920.18
644.95	40144.87
645.10	39988.05
645.25	40203.38
645.39	39498.88
645.54	39426.32
645.69	39526.97
645.83	39718.89
645.98	39601.86
646.13	39992.73
646.27	40081.67
646.42	39524.63
646.57	39618.25
646.71	39445.05
646.86	39737.62
647.00	39639.31
647.15	39372.49
647.30	39442.71
647.44	39667.40
647.59	39447.39
647.74	38937.15
647.88	39302.28
648.03	39196.95
648.17	39299.94
648.32	39225.04
648.47	39281.21
648.61	38918.43
648.76	39285.89
648.90	39262.49
649.05	39276.53
649.20	39283.55
649.34	39194.61
649.49	38749.91
649.63	38803.74
649.78	39086.95
649.92	39194.61
650.07	39562.08
650.21	39115.03
650.36	39119.71
650.51	39054.18
650.65	39730.59
650.80	39182.91
650.94	39096.31
651.09	39131.42
651.23	38396.49
651.38	38775.66
651.52	38120.31
651.67	38635.22
651.81	38361.38
651.96	38752.25
652.10	38745.23
652.25	38930.13
652.39	38930.13
652.54	38679.69
652.68	38309.89
652.83	38490.11
652.97	38932.47
653.12	38366.06
653.26	38543.94
653.41	38101.58
653.55	38473.73
653.70	38438.62
653.84	38401.17
653.99	38171.80
654.13	38288.82
654.27	38096.90
654.42	37860.51
654.56	38052.43
654.71	38054.77
654.85	38085.20
655.00	38043.07
655.14	37942.42
655.29	37621.77
655.43	37748.16
655.57	37619.43
655.72	37324.52
655.86	37350.27
656.01	37352.61
656.15	36877.48
656.30	37446.23
656.44	37504.74
656.58	37216.86
656.73	37797.31
656.87	37422.83
657.01	37249.63
657.16	37048.34
657.30	37284.73
657.45	37251.97
657.59	37350.27
657.73	37509.43
657.88	37509.43
658.02	37460.27
658.16	37172.39
658.31	37446.23
658.45	37038.98
658.60	37865.19
658.74	37551.56
658.88	37450.91
659.03	37067.06
659.17	37216.86
659.31	37074.09
659.46	36804.92
659.60	36856.42
659.74	37179.41
659.89	36598.96
660.03	36638.75
660.17	36933.65
660.32	36924.29
660.46	37106.85
660.60	36711.30
660.74	36673.85
660.89	36519.38
661.03	36589.59
661.17	36795.56
661.32	36182.34
661.46	36847.05
661.60	36161.28
661.74	36275.96
661.89	36189.36
662.03	36814.29
662.17	36374.27
662.31	36201.07
662.46	36793.22
662.60	36495.97
662.74	36229.15
662.88	36390.65
663.03	35805.52
663.17	36095.74
663.31	35611.25
663.45	35477.84
663.60	36287.67
663.74	35594.87
663.88	35501.25
664.02	35419.33
664.17	35756.36
664.31	35388.90
664.45	35002.71
664.59	35416.99
664.73	35573.80
664.88	35627.63
665.02	34899.73
665.16	35079.95
665.30	35042.50
665.44	34747.59
665.59	34731.21
665.73	35042.50
665.87	34735.89
666.01	35035.48
666.15	35016.75
666.29	35122.08
666.44	34866.96
666.58	34705.46
666.72	34649.29
666.86	34543.97
667.00	34309.91
667.14	34026.71
667.28	34300.55
667.43	34412.90
667.57	34314.59
667.71	34639.93
667.85	34354.38
667.99	34279.49
668.13	34368.43
668.27	34412.90
668.41	33883.94
668.56	34183.52
668.70	33722.44
668.84	33502.43
668.98	33680.31
669.12	33661.58
669.26	33804.36
669.40	33167.73
669.54	33268.37
669.68	33326.89
669.82	33205.18
669.96	33118.58
670.10	33673.29
670.25	33226.24
670.39	32900.91
670.53	33266.03
670.67	32954.74
670.81	33432.21
670.95	33043.68
671.09	32741.75
671.23	32804.95
671.37	33214.54
671.51	32582.60
671.65	32596.64
671.79	32648.13
671.93	32498.34
672.07	32353.23
672.21	32435.14
672.35	32713.67
672.49	32226.84
672.63	32606.00
672.77	32294.71
672.91	32074.70
673.05	32205.77
673.19	32114.49
673.33	31496.59
673.47	32147.26
673.61	31730.64
673.75	31349.14
673.89	31494.25
674.03	31587.87
674.17	31527.02
674.31	31424.03
674.45	31206.36
674.59	31480.21
674.73	31615.96
674.87	31325.73
675.01	31087.00
675.15	30602.50
675.29	30951.24
675.43	31079.97
675.56	31070.61
675.70	30312.28
675.84	30696.13
675.98	29954.18
676.12	30555.69
676.26	30593.14
676.40	30277.17
676.54	30466.75
676.68	30139.08
676.82	29722.46
676.96	30115.67
677.10	29928.43
677.23	29731.83
677.37	29869.92
677.51	29766.93
677.65	29434.58
677.79	29158.39
677.93	29422.87
678.07	29048.39
678.21	28723.05
678.34	28964.13
678.48	28720.71
678.62	28652.84
678.76	28720.71
678.90	28341.55
679.04	28573.26
679.18	28643.48
679.31	28006.85
679.45	28339.21
679.59	28290.06
679.73	28198.77
679.87	28336.87
680.00	27894.50
680.14	27852.38
680.28	27915.57
680.42	27630.02
680.56	27496.61
680.70	27711.94
680.83	27365.54
680.97	27225.11
681.11	27445.12
681.25	27159.58
681.39	27241.50
681.52	27461.51
681.66	27213.41
681.80	27105.74
681.94	26752.32
682.07	26920.84
682.21	26654.02
682.35	26480.82
682.49	26443.37
682.62	26293.58
682.76	26103.99
682.90	26155.49
683.04	26253.79
683.17	26314.64
683.31	26190.59
683.45	26174.21
683.59	26141.44
683.72	25682.70
683.86	25961.22
684.00	25607.80
684.13	25378.43
684.27	25345.66
684.41	24982.88
684.55	25247.36
684.68	25043.73
684.82	25032.03
684.96	25055.43
685.09	25025.01
685.23	24690.31
685.37	24694.99
685.50	24629.46
685.64	24594.35
685.78	24404.77
685.91	24252.63
686.05	24140.29
686.19	23873.46
686.32	23665.16
686.46	23555.15
686.60	23473.23
686.73	23370.25
686.87	23103.43
687.01	23482.59
687.14	23398.34
687.28	22937.25
687.42	23220.45
687.55	23215.77
687.69	23012.15
687.82	23129.17
687.96	23309.40
688.10	22705.54
688.23	22490.21
688.37	23005.13
688.50	22565.10
688.64	22651.70
688.78	22647.02
688.91	22434.03
689.05	22504.25
689.18	22272.54
689.32	21895.71
689.46	22160.19
689.59	22249.13
689.73	22302.96
689.86	21907.41
690.00	21825.50
690.13	21755.28
690.27	21944.86
690.41	21404.20
690.54	21458.03
690.68	21163.12
690.81	21495.48
690.95	21420.58
691.08	21434.63
691.22	21352.71
691.35	21043.76
691.49	21525.91
691.62	20807.36
691.76	20727.78
691.89	21020.35
692.03	20690.34
692.16	20680.97
692.30	20613.10
692.43	20362.66
692.57	20074.77
692.70	20091.16
692.84	19943.70
692.97	20013.92
693.11	19587.94
693.24	19777.53
693.38	19791.57
693.51	19697.95
693.65	19342.19
693.78	19290.70
693.92	19260.27
694.05	19463.90
694.19	19466.24
694.32	19545.81
694.45	19412.40
694.59	19267.29
694.72	19108.13
694.86	18829.61
694.99	18661.09
695.13	18796.84
695.26	18977.06
695.39	18642.37
695.53	18590.88
695.66	18792.16
695.80	18558.11
695.93	18450.44
696.07	18445.76
696.20	18249.16
696.33	18480.87
696.47	18136.81
696.60	17853.61
696.73	18085.32
696.87	17923.82
697.00	17994.04
697.14	17783.39
697.27	17390.18
697.40	17359.75
697.54	17401.88
697.67	17317.62
697.80	17439.33
697.94	17062.51
698.07	17137.40
698.21	16936.12
698.34	17125.70
698.47	16793.34
698.61	16945.48
698.74	16769.94
698.87	16917.39
699.01	16517.16
699.14	16783.98
699.27	16184.80
699.40	16292.47
699.54	16053.73
699.67	16411.84
699.80	16152.04
699.94	16287.79
700.07	16196.51
700.20	16154.38
700.34	15871.17
700.47	15976.50
700.60	15901.60
700.73	15955.43
700.87	15714.36
701.00	15758.83
701.13	15424.13
701.26	15475.62
701.40	15564.56
701.53	15382.00
701.66	15522.43
701.79	15255.61
701.93	15070.71
702.06	14923.26
702.19	14780.48
702.32	14853.04
702.46	14930.28
702.59	14995.81
702.72	14560.47
702.85	14883.47
702.99	14775.80
703.12	14424.72
703.25	14492.60
703.38	14401.32
703.51	14448.13
703.65	14459.83
703.78	14099.39
703.91	14040.87
704.04	14033.85
704.17	14024.49
704.31	14024.49
704.44	13907.46
704.57	13760.01
704.70	13748.31
704.83	13729.58
704.96	13944.91
705.10	13767.03
705.23	13521.27
>>>>>End Processed Spectral Data<<<<<
