SpectraSuite Data File
++++++++++++++++++++++++++++++++++++
Date: Fri Oct 25 11:33:30 EDT 2013
User: price-jones
Dark Spectrum Present: No
Reference Spectrum Present: No
Number of Sampled Component Spectra: 1
Spectrometers: USB2+H05261
Integration Time (usec): 100000 (USB2+H05261)
Spectra Averaged: 1 (USB2+H05261)
Boxcar Smoothing: 0 (USB2+H05261)
Correct for Electrical Dark: No (USB2+H05261)
Strobe/Lamp Enabled: No (USB2+H05261)
Correct for Detector Non-linearity: No (USB2+H05261)
Correct for Stray Light: No (USB2+H05261)
Number of Pixels in Processed Spectrum: 2048
>>>>>Begin Processed Spectral Data<<<<<
365.73	212.99
365.92	212.99
366.12	212.99
366.32	210.65
366.52	203.63
366.72	175.54
366.91	205.97
367.11	128.73
367.31	152.13
367.51	203.63
367.70	205.97
367.90	191.92
368.10	208.31
368.30	212.99
368.49	161.50
368.69	189.58
368.89	187.24
369.09	198.95
369.28	238.73
369.48	203.63
369.68	224.69
369.87	222.35
370.07	234.05
370.27	255.12
370.47	304.27
370.66	468.11
370.86	428.32
371.06	514.92
371.25	486.83
371.45	528.96
371.65	624.92
371.84	545.34
372.04	475.13
372.24	645.99
372.44	566.41
372.63	531.30
372.83	582.79
373.03	538.32
373.22	699.82
373.42	615.56
373.62	526.62
373.81	566.41
374.01	650.67
374.21	711.52
374.40	718.54
374.60	720.88
374.79	613.22
374.99	676.41
375.19	615.56
375.38	650.67
375.58	690.46
375.78	674.07
375.97	704.50
376.17	730.25
376.37	744.29
376.56	678.76
376.76	653.01
376.95	667.05
377.15	723.23
377.35	685.78
377.54	627.26
377.74	737.27
377.93	643.65
378.13	664.71
378.33	777.06
378.52	741.95
378.72	723.23
378.91	713.86
379.11	819.19
379.31	744.29
379.50	610.88
379.70	716.20
379.89	709.18
380.09	643.65
380.28	739.61
380.48	667.05
380.68	755.99
380.87	718.54
381.07	744.29
381.26	765.36
381.46	760.67
381.65	760.67
381.85	709.18
382.04	732.59
382.24	737.27
382.43	770.04
382.63	802.80
382.83	779.40
383.02	840.25
383.22	884.72
383.41	833.23
383.61	767.70
383.80	840.25
384.00	866.00
384.19	833.23
384.39	833.23
384.58	795.78
384.78	800.46
384.97	807.48
385.17	786.42
385.36	842.59
385.56	849.61
385.75	891.74
385.95	823.87
386.14	882.38
386.34	849.61
386.53	802.80
386.72	723.23
386.92	898.77
387.11	915.15
387.31	851.96
387.50	894.08
387.70	837.91
387.89	952.60
388.09	915.15
388.28	826.21
388.48	870.68
388.67	936.21
388.86	912.81
389.06	898.77
389.25	896.43
389.45	882.38
389.64	882.38
389.84	912.81
390.03	908.13
390.22	997.07
390.42	964.30
390.61	985.37
390.81	999.41
391.00	990.05
391.19	994.73
391.39	1053.24
391.58	992.39
391.78	1057.92
391.97	1006.43
392.16	961.96
392.36	1081.33
392.55	1074.31
392.75	1039.20
392.94	1048.56
393.13	1097.71
393.33	1076.65
393.52	987.71
393.71	1048.56
393.91	1050.90
394.10	1006.43
394.29	1088.35
394.49	1069.62
394.68	1095.37
394.88	1200.69
395.07	1146.86
395.26	1104.73
395.46	1181.97
395.65	1249.85
395.84	1137.50
396.04	1165.59
396.23	1163.25
396.42	1214.74
396.62	1193.67
396.81	1266.23
397.00	1172.61
397.19	1226.44
397.39	1231.12
397.58	1217.08
397.77	1186.65
397.97	1245.16
398.16	1336.45
398.35	1301.34
398.55	1280.27
398.74	1256.87
398.93	1387.94
399.12	1308.36
399.32	1315.38
399.51	1277.93
399.70	1362.19
399.90	1315.38
400.09	1385.60
400.28	1394.96
400.47	1310.70
400.67	1493.26
400.86	1308.36
401.05	1409.00
401.24	1394.96
401.44	1359.85
401.63	1362.19
401.82	1383.26
402.01	1455.81
402.21	1570.50
402.40	1577.52
402.59	1397.30
402.78	1404.32
402.97	1455.81
403.17	1519.01
403.36	1472.20
403.55	1570.50
403.74	1593.90
403.93	1591.56
404.13	1659.44
404.32	1645.40
404.51	1612.63
404.70	1661.78
404.89	1530.71
405.09	1682.85
405.28	1675.82
405.47	1696.89
405.66	1767.10
405.85	1694.55
406.05	1739.02
406.24	1774.13
406.43	1799.87
406.62	1760.08
406.81	1748.38
407.00	1755.40
407.20	1729.66
407.39	1629.01
407.58	1813.92
407.77	1809.23
407.96	1914.56
408.15	1867.75
408.34	1832.64
408.54	1804.55
408.73	1930.94
408.92	1860.73
409.11	2026.90
409.30	2057.33
409.49	1975.41
409.68	1944.99
409.87	2064.35
410.07	2052.65
410.26	2024.56
410.45	2015.20
410.64	1987.11
410.83	2169.68
411.02	2129.89
411.21	2125.21
411.40	2148.61
411.59	2260.96
411.78	2209.47
411.98	2108.82
412.17	2244.57
412.36	2172.02
412.55	2324.15
412.74	2310.11
412.93	2338.20
413.12	2305.43
413.31	2497.35
413.50	2385.01
413.69	2352.24
413.88	2445.86
414.07	2450.54
414.26	2516.08
414.45	2537.14
414.64	2534.80
414.83	2518.42
415.02	2708.00
415.22	2696.30
415.41	2686.94
415.60	2586.29
415.79	2693.96
415.98	2686.94
416.17	2724.38
416.36	2799.28
416.55	2869.50
416.74	2874.18
416.93	2752.47
417.12	2789.92
417.31	2825.03
417.50	2932.69
417.69	2928.01
417.88	2913.97
418.07	2895.24
418.26	2768.85
418.45	2970.14
418.64	3129.30
418.83	3075.46
419.02	3094.19
419.21	3042.70
419.39	3180.79
419.58	3091.85
419.77	3098.87
419.96	3077.80
420.15	3288.45
420.34	3047.38
420.53	3115.25
420.72	3218.24
420.91	3138.66
421.10	3260.37
421.29	3332.92
421.48	3260.37
421.67	3251.00
421.86	3243.98
422.05	3361.01
422.24	3332.92
422.43	3316.54
422.61	3332.92
422.80	3466.33
422.99	3323.56
423.18	3442.93
423.37	3489.74
423.56	3541.23
423.75	3307.18
423.94	3393.78
424.13	3234.62
424.32	3337.60
424.50	3419.52
424.69	3487.40
424.88	3496.76
425.07	3433.57
425.26	3286.11
425.45	3344.63
425.64	3442.93
425.83	3424.20
426.01	3510.80
426.20	3564.64
426.39	3463.99
426.58	3485.06
426.77	3485.06
426.96	3641.87
427.15	3513.14
427.33	3655.92
427.52	3613.79
427.71	3599.74
427.90	3651.24
428.09	3620.81
428.28	3751.88
428.46	3555.27
428.65	3602.08
428.84	3801.03
429.03	3779.97
429.22	3669.96
429.40	3826.78
429.59	3831.46
429.78	3737.84
429.97	3602.08
430.16	3899.33
430.34	3747.20
430.53	3908.69
430.72	3833.80
430.91	3817.41
431.10	3810.39
431.28	3929.76
431.47	3941.46
431.66	4011.68
431.85	3894.65
432.03	4030.40
432.22	4011.68
432.41	4004.66
432.60	4105.30
432.79	4152.11
432.97	4105.30
433.16	4084.23
433.35	4065.51
433.54	4224.67
433.72	4173.18
433.91	4182.54
434.10	4243.39
434.28	4241.05
434.47	4236.37
434.66	4203.60
434.85	4215.30
435.03	4297.22
435.22	4290.20
435.41	4355.74
435.59	4432.97
435.78	4290.20
435.97	4447.02
436.16	4280.84
436.34	4414.25
436.53	4510.21
436.72	4615.54
436.90	4526.60
437.09	4505.53
437.28	4418.93
437.46	4472.76
437.65	4578.09
437.84	4573.41
438.02	4629.58
438.21	4627.24
438.40	4594.47
438.58	4737.24
438.77	4662.35
438.96	4650.64
439.14	4744.27
439.33	5004.07
439.52	4926.83
439.70	5100.03
439.89	4971.30
440.08	4943.21
440.26	5013.43
440.45	4903.42
440.63	5069.60
440.82	5006.41
441.01	5053.22
441.19	5114.07
441.38	5170.24
441.57	5078.96
441.75	5238.12
441.94	5364.51
442.12	5446.43
442.31	5481.53
442.50	5483.88
442.68	5416.00
442.87	5380.89
443.05	5528.35
443.24	5591.54
443.43	5451.11
443.61	5542.39
443.80	5626.65
443.98	5467.49
444.17	5380.89
444.35	5537.71
444.54	5638.35
444.73	5516.64
444.91	5493.24
445.10	5610.26
445.28	5717.93
445.47	5713.25
445.65	5671.12
445.84	5792.83
446.02	5706.23
446.21	5846.66
446.39	5633.67
446.58	5701.54
446.77	5830.27
446.95	5530.69
447.14	5668.78
447.32	5827.93
447.51	5746.02
447.69	5631.33
447.88	5593.88
448.06	5710.91
448.25	5748.36
448.43	5715.59
448.62	5764.74
448.80	5844.32
448.99	5902.83
449.17	5970.71
449.36	5968.37
449.54	5891.13
449.73	6022.20
449.91	5977.73
450.10	6092.41
450.28	6071.35
450.46	6085.39
450.65	6209.44
450.83	5989.43
451.02	5923.90
451.20	6251.57
451.39	6136.88
451.57	6097.10
451.76	6221.14
451.94	6176.67
452.13	6338.17
452.31	6387.32
452.49	6228.17
452.68	6270.30
452.86	6321.79
453.05	6373.28
453.23	6363.92
453.42	6183.70
453.60	6406.05
453.78	6333.49
453.97	6314.77
454.15	6270.30
454.34	6462.22
454.52	6473.92
454.70	6569.88
454.89	6544.14
455.07	6401.37
455.26	6647.12
455.44	6764.15
455.62	6743.08
455.81	6710.32
455.99	6836.70
456.17	6672.87
456.36	6815.64
456.54	6834.36
456.73	6850.75
456.91	7075.44
457.09	6888.20
457.28	7073.10
457.46	6885.86
457.64	7068.42
457.83	7159.70
458.01	6874.15
458.19	7236.94
458.38	7091.82
458.56	7232.26
458.74	7091.82
458.93	7155.02
459.11	7328.22
459.29	7344.60
459.48	7243.96
459.66	7272.04
459.84	7325.88
460.03	7426.52
460.21	7466.31
460.39	7325.88
460.57	7171.40
460.76	7344.60
460.94	7536.52
461.12	7585.68
461.31	7581.00
461.49	7573.97
461.67	7536.52
461.85	7613.76
462.04	7545.89
462.22	8004.63
462.40	7808.03
462.59	7829.09
462.77	7805.69
462.95	7742.49
463.13	7985.91
463.32	7775.26
463.50	7740.15
463.68	7878.24
463.86	7901.65
464.05	7929.74
464.23	7850.16
464.41	7892.29
464.59	7740.15
464.78	8112.30
464.96	8215.28
465.14	8021.02
465.32	8121.66
465.50	8156.77
465.69	8119.32
465.87	8166.13
466.05	8074.85
466.23	8006.97
466.41	8030.38
466.60	8561.68
466.78	8088.89
466.96	8152.09
467.14	8131.02
467.32	8290.18
467.51	8222.30
467.69	8060.80
467.87	8329.97
468.05	8428.27
468.23	8339.33
468.41	8393.16
468.60	8442.31
468.78	8489.12
468.96	8294.86
469.14	8367.42
469.32	8690.41
469.50	8409.54
469.69	8432.95
469.87	9053.19
470.05	8777.01
470.23	8746.58
470.41	8727.86
470.59	9062.55
470.77	8596.79
470.95	8755.94
471.14	8929.14
471.32	8793.39
471.50	9116.39
471.68	9018.08
471.86	9320.01
472.04	9055.53
472.22	9057.87
472.40	9060.21
472.58	9188.94
472.77	9369.16
472.95	9324.69
473.13	9722.59
473.31	9458.10
473.49	9415.98
473.67	9385.55
473.85	9535.34
474.03	9572.79
474.21	9547.05
474.39	9694.50
474.57	9839.61
474.75	9853.66
474.93	10061.96
475.12	10078.35
475.30	9980.04
475.48	9940.26
475.66	10090.05
475.84	10015.15
476.02	10174.31
476.20	10167.29
476.38	10274.95
476.56	10384.96
476.74	10621.35
476.92	10394.32
477.10	10457.51
477.28	10771.15
477.46	10820.30
477.64	10829.66
477.82	10806.25
478.00	11225.21
478.18	11122.23
478.36	11267.34
478.54	11335.21
478.72	11346.92
478.90	11555.22
479.08	11536.50
479.26	11707.36
479.44	11793.96
479.62	11808.00
479.80	11618.42
479.98	12135.68
480.16	12266.75
480.34	12079.50
480.52	12411.86
480.70	12250.36
480.88	12182.49
481.06	12250.36
481.24	12336.96
481.41	12343.99
481.59	12989.97
481.77	12985.29
481.95	12966.57
482.13	13092.96
482.31	12950.18
482.49	13212.32
482.67	13165.51
482.85	13387.86
483.03	13432.33
483.21	13598.51
483.39	13795.12
483.57	13785.76
483.74	13977.68
483.92	14054.92
484.10	13935.55
484.28	14303.01
484.46	14319.40
484.64	14427.06
484.82	14574.52
485.00	14340.46
485.18	14714.95
485.35	15187.74
485.53	15157.31
485.71	15215.82
485.89	15412.43
486.07	15344.55
486.25	15772.87
486.43	15428.81
486.61	15695.63
486.78	16135.65
486.96	15573.92
487.14	15807.98
487.32	16011.60
487.50	16252.68
487.68	16201.19
487.85	16971.22
488.03	16725.47
488.21	17003.99
488.39	16802.71
488.57	17181.87
488.75	17090.59
488.92	17252.09
489.10	17675.73
489.28	17631.26
489.46	17701.47
489.64	17963.61
489.81	18134.47
489.99	18040.85
490.17	17984.68
490.35	18647.05
490.53	18377.89
490.70	18647.05
490.88	18415.34
491.06	18792.16
491.24	18885.78
491.41	19337.51
491.59	19037.92
491.77	19435.81
491.95	19424.11
492.13	19620.71
492.30	19559.86
492.48	19805.61
492.66	20006.90
492.84	19641.78
493.01	20203.50
493.19	20191.80
493.37	20411.81
493.54	20421.17
493.72	20863.54
493.90	20617.78
494.08	21041.42
494.25	20917.37
494.43	21113.97
494.61	21130.36
494.79	21345.69
494.96	21404.20
495.14	21561.02
495.32	21678.04
495.49	21640.59
495.67	21736.56
495.85	22298.28
496.02	22218.71
496.20	22160.19
496.38	22396.59
496.55	22256.15
496.73	22857.67
496.91	22492.55
497.09	22742.99
497.26	22841.29
497.44	22993.42
497.62	23293.01
497.79	23428.76
497.97	23138.54
498.14	23599.62
498.32	23473.23
498.50	23915.59
498.67	23747.08
498.85	23786.86
499.03	23927.30
499.20	23983.47
499.38	24231.57
499.56	24533.50
499.73	24219.86
499.91	24233.91
500.08	24786.27
500.26	24503.07
500.44	24907.98
500.61	24842.45
500.79	24821.38
500.97	25104.59
501.14	25373.75
501.32	25507.16
501.49	25317.57
501.67	25202.89
501.84	25378.43
502.02	25315.23
502.20	25755.26
502.37	25612.48
502.55	25383.11
502.72	25612.48
502.90	25942.50
503.07	25776.32
503.25	26281.88
503.43	26192.94
503.60	26443.37
503.78	26803.82
503.95	26632.96
504.13	26684.45
504.30	26998.08
504.48	26696.15
504.65	26717.22
504.83	26904.46
505.01	26918.50
505.18	27042.55
505.36	27419.38
505.53	27330.44
505.71	27229.79
505.88	27555.13
506.06	27566.83
506.23	27669.81
506.41	27688.54
506.58	27634.71
506.76	28257.29
506.93	27742.37
507.11	28114.52
507.28	28226.86
507.46	28273.67
507.63	28252.61
507.81	28325.16
507.98	28158.99
508.16	28737.10
508.33	28514.75
508.50	28261.97
508.68	28711.35
508.85	29048.39
509.03	28634.11
509.20	28900.94
509.38	29518.84
509.55	29378.40
509.73	29294.14
509.90	29493.09
510.08	29502.45
510.25	29720.12
510.42	29780.98
510.60	29703.74
510.77	29982.26
510.95	30213.98
511.12	29776.30
511.30	29802.04
511.47	30340.36
511.64	30103.97
511.82	30389.52
511.99	30520.59
512.17	30560.37
512.34	30588.46
512.51	30345.05
512.69	30995.71
512.86	30721.87
513.04	30710.17
513.21	30958.27
513.38	31166.57
513.56	31290.62
513.73	30972.31
513.90	31098.70
514.08	31206.36
514.25	31337.43
514.43	31260.20
514.60	31534.04
514.77	31534.04
514.95	31576.17
515.12	31765.75
515.29	31934.27
515.47	32060.66
515.64	32058.32
515.81	31349.14
515.99	31941.29
516.16	32411.74
516.33	32336.84
516.51	32598.98
516.68	32156.62
516.85	32748.78
517.03	32643.45
517.20	32491.32
517.37	32556.85
517.54	32556.85
517.72	33064.75
517.89	33043.68
518.06	33319.87
518.24	33263.69
518.41	33017.94
518.58	33060.07
518.75	33076.45
518.93	33230.93
519.10	33294.12
519.27	33476.68
519.45	33464.98
519.62	33715.42
519.79	33338.59
519.96	34050.11
520.14	33783.29
520.31	33720.10
520.48	34000.96
520.65	34218.63
520.83	34831.85
521.00	34377.79
521.17	34307.57
521.34	34368.43
521.52	34387.15
521.69	34799.08
521.86	34883.34
522.03	34969.94
522.20	34843.56
522.38	34909.09
522.55	35208.68
522.72	35030.80
522.89	34864.62
523.07	35377.20
523.24	35033.14
523.41	35534.01
523.58	35494.22
523.75	35505.93
523.92	35395.92
524.10	35648.70
524.27	35126.76
524.44	35868.71
524.61	35721.26
524.78	36020.84
524.96	35913.18
525.13	35981.06
525.30	36126.17
525.47	36278.30
525.64	35800.83
525.81	36236.17
525.98	36460.87
526.16	36151.91
526.33	35866.37
526.50	36765.14
526.67	36383.63
526.84	36456.18
527.01	36566.19
527.18	36360.22
527.36	36367.24
527.53	36837.69
527.70	36870.46
527.87	37137.28
528.04	37003.87
528.21	37530.49
528.38	37385.38
528.55	37296.44
528.72	37352.61
528.89	37483.68
529.07	37481.34
529.24	37008.55
529.41	37762.20
529.58	37743.48
529.75	37682.62
529.92	37338.57
530.09	37490.70
530.26	37846.46
530.43	37631.13
530.60	37528.15
530.77	37345.59
530.94	37996.26
531.11	37975.19
531.28	37951.79
531.46	38000.94
531.63	38204.56
531.80	38134.35
531.97	38286.48
532.14	38417.55
532.31	38691.40
532.48	38092.22
532.65	38621.18
532.82	38377.76
532.99	38733.53
533.16	38263.08
533.33	38553.30
533.50	39056.52
533.67	38714.80
533.84	38848.21
534.01	38841.19
534.18	38880.98
534.35	39306.96
534.52	39166.52
534.69	39285.89
534.86	39716.55
535.03	39016.73
535.20	39484.84
535.37	39611.23
535.54	39662.72
535.71	38927.79
535.88	39431.01
536.05	39651.02
536.22	39852.30
536.38	39639.31
536.55	39913.16
536.72	39629.95
536.89	39744.64
537.06	39974.01
537.23	40421.05
537.40	39611.23
537.57	40306.37
537.74	39370.15
537.91	39913.16
538.08	39955.29
538.25	39981.03
538.42	40161.25
538.59	40388.28
538.75	39840.60
538.92	40694.89
539.09	40556.80
539.26	40638.72
539.43	40404.67
539.60	40545.10
539.77	40528.72
539.94	41081.08
540.11	40919.59
540.28	40765.11
540.44	40617.66
540.61	40479.57
540.78	40470.20
540.95	40900.86
541.12	41111.51
541.29	41158.32
541.46	40926.61
541.62	41521.10
541.79	40938.31
541.96	40725.32
542.13	41097.47
542.30	41102.15
542.47	41584.30
542.63	41827.71
542.80	41324.50
542.97	41710.69
543.14	41851.12
543.31	41429.82
543.48	41698.98
543.64	41911.97
543.81	42284.12
543.98	42127.30
544.15	42017.30
544.32	42040.70
544.48	42368.38
544.65	42256.03
544.82	42375.40
544.99	41998.57
545.16	42607.11
545.32	41724.73
545.49	42529.87
545.66	42649.24
545.83	42485.40
546.00	42766.27
546.16	42550.94
546.33	42623.50
546.50	42499.45
546.67	42569.66
546.83	42096.88
547.00	43103.31
547.17	42410.51
547.34	42735.84
547.50	42916.06
547.67	43292.89
547.84	42958.19
548.00	43328.00
548.17	43075.22
548.34	42756.91
548.51	43606.52
548.67	42789.67
548.84	43709.50
549.01	43487.15
549.18	43171.18
549.34	43147.78
549.51	43676.74
549.68	43852.28
549.84	43526.94
550.01	43533.96
550.18	43398.21
550.34	43473.11
550.51	44009.09
550.68	43650.99
550.84	43320.98
551.01	43650.99
551.18	43412.26
551.34	43739.93
551.51	43936.54
551.68	43775.04
551.84	43793.76
552.01	43679.08
552.18	43999.73
552.34	43695.46
552.51	43849.94
552.68	43643.97
552.84	43480.13
553.01	44435.07
553.18	44240.81
553.34	44531.03
553.51	44179.95
553.67	44388.26
553.84	44343.79
554.01	44460.82
554.17	44320.38
554.34	44737.00
554.51	44594.23
554.67	44617.63
554.84	44477.20
555.00	44875.09
555.17	44355.49
555.33	44683.17
555.50	44734.66
555.67	44603.59
555.83	44575.50
556.00	44753.38
556.16	45352.56
556.33	44809.56
556.50	44608.27
556.66	45029.57
556.83	44610.61
556.99	45109.14
557.16	45127.87
557.32	45235.53
557.49	45205.11
557.65	45155.96
557.82	44992.12
557.98	44706.57
558.15	45354.90
558.32	45064.67
558.48	44949.99
558.65	45219.15
558.81	45469.59
558.98	45081.06
559.14	45305.75
559.31	45233.19
559.47	45305.75
559.64	45387.67
559.80	45408.73
559.97	45708.32
560.13	45151.27
560.30	45214.47
560.46	45467.25
560.63	45556.19
560.79	45691.94
560.96	45771.52
561.12	46447.93
561.29	45867.48
561.45	45525.76
561.61	45394.69
561.78	45841.73
561.94	45766.84
562.11	45907.27
562.27	45890.88
562.44	45876.84
562.60	46052.38
562.77	46036.00
562.93	45308.09
563.10	46176.43
563.26	45418.10
563.42	45837.05
563.59	45687.26
563.75	46157.70
563.92	45947.06
564.08	46005.57
564.24	46073.45
564.41	45862.80
564.57	46033.66
564.74	46131.96
564.90	45862.80
565.07	45710.66
565.23	46291.12
565.39	45928.33
565.56	46342.61
565.72	46260.69
565.88	46192.81
566.05	45830.03
566.21	46471.34
566.38	46028.98
566.54	46003.23
566.70	46131.96
566.87	45996.21
567.03	45972.80
567.19	46663.26
567.36	46464.32
567.52	46553.26
567.68	46351.97
567.85	46375.37
568.01	46443.25
568.17	46436.23
568.34	46576.66
568.50	46190.47
568.66	46312.18
568.83	46651.56
568.99	46183.45
569.15	46330.90
569.32	46454.95
569.48	46674.96
569.64	46527.51
569.81	46602.41
569.97	46569.64
570.13	46742.84
570.30	46487.72
570.46	46672.62
570.62	46672.62
570.78	46705.39
570.95	46569.64
571.11	46906.68
571.27	46986.25
571.43	46457.29
571.60	46377.72
571.76	46450.27
571.92	46623.47
572.09	46726.46
572.25	46405.80
572.41	46464.32
572.57	47042.43
572.74	47290.52
572.90	46499.42
573.06	47112.64
573.22	47012.00
573.38	47007.32
573.55	47077.54
573.71	47248.39
573.87	46997.96
574.03	46911.36
574.20	47416.91
574.36	46520.49
574.52	46927.74
574.68	47023.70
574.84	47217.97
575.01	47332.65
575.17	47110.30
575.33	46700.71
575.49	47019.02
575.65	47437.98
575.82	47086.90
575.98	47012.00
576.14	47154.77
576.30	47393.51
576.46	46969.87
576.62	46883.27
576.79	46827.10
576.95	46719.43
577.11	46932.42
577.27	47065.83
577.43	46806.03
577.59	46937.10
577.75	47255.42
577.92	47154.77
578.08	47122.01
578.24	47182.86
578.40	47215.63
578.56	47330.31
578.72	47075.19
578.88	47463.72
579.04	47262.44
579.21	47152.43
579.37	47126.69
579.53	47063.49
579.69	47154.77
579.85	47033.07
580.01	47292.86
580.17	47182.86
580.33	47161.79
580.49	46859.87
580.65	46969.87
580.82	47271.80
580.98	47030.72
581.14	46852.84
581.30	46920.72
581.46	47126.69
581.62	47007.32
581.78	47065.83
581.94	47433.30
582.10	47054.13
582.26	47213.29
582.42	47222.65
582.58	47313.93
582.74	47323.29
582.90	47386.49
583.06	47676.71
583.22	47171.16
583.38	47393.51
583.54	47309.25
583.70	47306.91
583.86	47402.87
584.02	47274.14
584.18	47711.82
584.34	47428.62
584.50	47620.54
584.66	47515.22
584.82	47180.52
584.98	47739.91
585.14	47098.60
585.30	47189.88
585.46	47157.11
585.62	47503.51
585.78	47271.80
585.94	47639.26
586.10	47292.86
586.26	47194.56
586.42	47641.60
586.58	47519.90
586.74	47805.44
586.90	47222.65
587.06	46946.47
587.22	47587.77
587.38	47475.43
587.54	47849.91
587.70	47889.70
587.86	47480.11
588.02	47285.84
588.18	47374.78
588.34	47224.99
588.49	47466.06
588.65	47234.35
588.81	47246.05
588.97	47384.15
589.13	47564.37
589.29	47775.02
589.45	47789.06
589.61	47627.56
589.77	47728.20
589.93	47775.02
590.08	47929.49
590.24	47990.34
590.40	47545.64
590.56	48364.83
590.72	47828.85
590.88	47606.50
591.04	48208.01
591.20	48006.73
591.35	48095.67
591.51	48034.81
591.67	47856.93
591.83	48357.81
591.99	47716.50
592.15	47955.24
592.31	47515.22
592.46	47522.24
592.62	47599.47
592.78	48219.72
592.94	48271.21
593.10	48184.61
593.26	47758.63
593.41	48062.90
593.57	47964.60
593.73	48245.46
593.89	48559.09
594.05	48044.18
594.20	48107.37
594.36	48430.36
594.52	48203.33
594.68	48203.33
594.84	47800.76
594.99	48502.92
595.15	48102.69
595.31	48137.80
595.47	48046.52
595.62	48259.51
595.78	47767.99
595.94	48144.82
596.10	47992.68
596.25	48327.38
596.41	48261.85
596.57	48051.20
596.73	47992.68
596.88	48112.05
597.04	48076.94
597.20	48341.42
597.36	47938.85
597.51	48098.01
597.67	48238.44
597.83	48027.79
597.99	48088.65
598.14	48088.65
598.30	48559.09
598.46	47973.96
598.61	48203.33
598.77	47889.70
598.93	48467.81
599.09	48065.24
599.24	48650.38
599.40	48385.89
599.56	48451.43
599.71	48942.94
599.87	48582.50
600.03	48596.54
600.18	48479.52
600.34	48046.52
600.50	48254.82
600.65	48336.74
600.81	48495.90
600.97	48355.47
601.12	48573.14
601.28	48435.05
601.44	48287.59
601.59	48425.68
601.75	48516.96
601.91	48236.10
602.06	48423.34
602.22	48348.45
602.37	48446.75
602.53	48184.61
602.69	48739.32
602.84	48395.26
603.00	48245.46
603.16	48205.67
603.31	48292.27
603.47	48598.88
603.62	48568.46
603.78	48397.60
603.94	48437.39
604.09	48430.36
604.25	47931.83
604.40	48088.65
604.56	48175.25
604.71	48645.69
604.87	48140.14
605.03	48126.10
605.18	48308.66
605.34	47913.11
605.49	47908.43
605.65	48453.77
605.80	48055.88
605.96	48350.79
606.12	48107.37
606.27	48315.68
606.43	48259.51
606.58	48327.38
606.74	48002.05
606.89	48168.22
607.05	48254.82
607.20	48196.31
607.36	48121.41
607.51	48130.78
607.67	48395.26
607.82	48048.86
607.98	47985.66
608.13	47784.38
608.29	47842.89
608.44	48051.20
608.60	48320.36
608.75	48090.99
608.91	47480.11
609.06	47807.78
609.22	48411.64
609.37	48109.71
609.53	47814.80
609.68	48350.79
609.84	48011.41
609.99	48388.24
610.15	47842.89
610.30	48306.32
610.46	48041.84
610.61	47885.02
610.76	48004.39
610.92	47440.32
611.07	47910.77
611.23	47473.09
611.38	47714.16
611.54	47803.10
611.69	48112.05
611.84	47842.89
612.00	48027.79
612.15	47861.61
612.31	47760.97
612.46	47695.44
612.62	47892.04
612.77	47601.82
612.92	48093.33
613.08	47742.25
613.23	47803.10
613.39	47653.31
613.54	47763.31
613.69	47971.62
613.85	47416.91
614.00	47730.54
614.15	48016.09
614.31	47416.91
614.46	47538.62
614.62	47339.68
614.77	47356.06
614.92	47599.47
615.08	47735.23
615.23	47817.14
615.38	47800.76
615.54	47760.97
615.69	47800.76
615.84	47796.08
616.00	48037.16
616.15	47517.56
616.30	47728.20
616.46	47793.74
616.61	47257.76
616.76	47543.30
616.92	47445.00
617.07	47805.44
617.22	47606.50
617.37	46969.87
617.53	47351.38
617.68	47271.80
617.83	46885.61
617.99	47489.47
618.14	47524.58
618.29	47384.15
618.45	47175.84
618.60	47077.54
618.75	47004.98
618.90	47037.75
619.06	46883.27
619.21	47309.25
619.36	47665.01
619.51	46995.62
619.67	46892.63
619.82	47016.68
619.97	47367.76
620.12	47107.96
620.28	46766.24
620.43	47271.80
620.58	47063.49
620.73	47215.63
620.89	46894.97
621.04	46981.57
621.19	46740.50
621.34	46801.35
621.49	46366.01
621.65	46934.76
621.80	46855.18
621.95	47112.64
622.10	46866.89
622.25	46834.12
622.41	46579.00
622.56	46536.87
622.71	46866.89
622.86	46546.23
623.01	46672.62
623.16	46789.65
623.32	46644.54
623.47	46522.83
623.62	46557.94
623.77	46728.80
623.92	46445.59
624.07	46361.33
624.23	46873.91
624.38	46630.49
624.53	46476.02
624.68	46066.42
624.83	46356.65
624.98	46560.28
625.13	46202.18
625.29	46288.77
625.44	46471.34
625.59	46525.17
625.74	46066.42
625.89	46188.13
626.04	46106.21
626.19	46244.30
626.34	46162.39
626.49	46038.34
626.65	45965.78
626.80	45933.01
626.95	46162.39
627.10	45654.49
627.25	46033.66
627.40	46075.79
627.55	45993.87
627.70	46134.30
627.85	46115.58
628.00	46384.74
628.15	46241.96
628.30	45839.39
628.45	45544.48
628.60	45263.62
628.76	45841.73
628.91	46043.02
629.06	45572.57
629.21	45603.00
629.36	45705.98
629.51	45570.23
629.66	45886.20
629.81	45530.44
629.96	45542.14
630.11	45514.06
630.26	45296.39
630.41	45584.27
630.56	45446.18
630.71	45729.39
630.86	45301.07
631.01	44891.48
631.16	45495.33
631.31	45401.71
631.46	45464.91
631.61	45659.17
631.76	45441.50
631.91	45670.87
632.06	45673.21
632.21	45638.11
632.36	45727.05
632.51	44865.73
632.66	45591.30
632.81	45336.18
632.96	45429.80
633.10	45113.83
633.25	45364.26
633.40	44755.72
633.55	45242.56
633.70	45312.77
633.85	45172.34
634.00	44582.52
634.15	44390.60
634.30	44531.03
634.45	44886.79
634.60	45008.50
634.75	44753.38
634.90	45055.31
635.05	44524.01
635.19	44634.02
635.34	45111.49
635.49	44788.49
635.64	44942.97
635.79	44985.10
635.94	44657.42
636.09	45067.02
636.24	44198.68
636.39	44456.14
636.53	44858.71
636.68	44615.29
636.83	44102.71
636.98	44201.02
637.13	44013.77
637.28	44196.34
637.43	44676.15
637.57	44039.52
637.72	44027.82
637.87	44212.72
638.02	44524.01
638.17	43728.23
638.32	43824.19
638.46	43999.73
638.61	43908.45
638.76	44002.07
638.91	44107.40
639.06	43985.69
639.20	43419.28
639.35	43875.68
639.50	43819.51
639.65	44161.23
639.80	44161.23
639.94	44119.10
640.09	44318.04
640.24	44250.17
640.39	43702.48
640.54	42852.87
640.68	43976.33
640.83	44041.86
640.98	43821.85
641.13	43531.62
641.27	44100.37
641.42	43669.72
641.57	43772.70
641.72	43435.66
641.86	43496.52
642.01	43365.45
642.16	43590.14
642.31	42806.06
642.45	43484.81
642.60	43033.09
642.75	43412.26
642.90	43742.27
643.04	43281.19
643.19	43040.11
643.34	43133.73
643.48	42909.04
643.63	42873.93
643.78	43295.23
643.93	43304.59
644.07	43133.73
644.22	43548.01
644.37	42932.45
644.51	43957.60
644.66	43377.15
644.81	43065.86
644.95	43145.44
645.10	42916.06
645.25	42845.85
645.39	43065.86
645.54	43262.46
645.69	42721.80
645.83	42869.25
645.98	43107.99
646.13	42857.55
646.27	42932.45
646.42	42646.90
646.57	43058.84
646.71	42899.68
646.86	43115.01
647.00	42850.53
647.15	42965.21
647.30	42487.74
647.44	42972.24
647.59	42876.27
647.74	42756.91
647.88	42490.09
648.03	43110.33
648.17	43009.68
648.32	42747.54
648.47	42986.28
648.61	42557.96
648.76	42490.09
648.90	42490.09
649.05	42712.44
649.20	42515.83
649.34	42501.79
649.49	42139.00
649.63	42375.40
649.78	42398.80
649.92	42382.42
650.07	42471.36
650.21	42993.30
650.36	42604.77
650.51	42206.88
650.65	42674.99
650.80	42672.65
650.94	42562.64
651.09	42000.91
651.23	41909.63
651.38	41808.99
651.52	42103.90
651.67	42136.66
651.81	41844.10
651.96	42244.33
652.10	41333.86
652.25	41673.24
652.39	42113.26
652.54	41968.15
652.68	41659.20
652.83	41560.89
652.97	42071.13
653.12	41516.42
653.26	41677.92
653.41	41682.60
653.55	41663.88
653.70	42050.06
653.84	42036.02
653.99	41649.83
654.13	41762.18
654.27	41532.81
654.42	41729.41
654.56	41415.78
654.71	41935.38
654.85	41762.18
655.00	41745.80
655.14	41553.87
655.29	41963.46
655.43	41523.44
655.57	41387.69
655.72	41048.32
655.86	41214.49
656.01	40823.62
656.15	40896.18
656.30	40891.50
656.44	41160.66
656.58	41368.97
656.73	41354.93
656.87	41053.00
657.01	40903.20
657.16	41106.83
657.30	40924.27
657.45	41118.53
657.59	41064.70
657.73	40776.81
657.88	41071.72
658.02	41371.31
658.16	41024.91
658.31	41626.43
658.45	40638.72
658.60	40737.02
658.74	40900.86
658.88	40832.99
659.03	40598.93
659.17	41022.57
659.31	40074.65
659.46	40236.15
659.60	40814.26
659.74	40311.05
659.89	40034.86
660.03	39927.20
660.17	40353.18
660.32	40004.44
660.46	40156.57
660.60	39819.53
660.74	40350.84
660.89	40322.75
661.03	40151.89
661.17	39641.65
661.32	39875.71
661.46	39831.24
661.60	40032.52
661.74	39503.56
661.89	39187.59
662.03	39730.59
662.17	39494.20
662.31	39391.22
662.46	39702.51
662.60	39445.05
662.74	38979.28
662.88	38892.68
663.03	39330.36
663.17	39143.12
663.31	38948.85
663.45	39065.88
663.60	39489.52
663.74	38820.13
663.88	39056.52
664.02	39093.97
664.17	39215.68
664.31	38576.71
664.45	38848.21
664.59	38529.90
664.73	38679.69
664.88	38609.48
665.02	38548.62
665.16	38195.20
665.30	38316.91
665.44	38494.79
665.59	38288.82
665.73	38132.01
665.87	37900.29
666.01	37825.40
666.15	38052.43
666.29	37963.49
666.44	38354.36
666.58	38466.70
666.72	37546.87
666.86	37745.82
667.00	37944.76
667.14	37661.56
667.28	37666.24
667.43	37619.43
667.57	37933.06
667.71	37614.75
667.85	37357.29
667.99	37694.33
668.13	37205.16
668.27	37223.88
668.41	36987.49
668.56	36655.13
668.70	36858.76
668.84	36627.04
668.98	36739.39
669.12	36870.46
669.26	36655.13
669.40	37024.93
669.54	36694.92
669.68	36669.17
669.82	36470.23
669.96	36208.09
670.10	36095.74
670.25	36109.78
670.39	36121.49
670.53	36423.42
670.67	36512.36
670.81	36631.72
670.95	35842.96
671.09	36245.54
671.23	36107.44
671.37	36135.53
671.51	36168.30
671.65	35669.76
671.79	35835.94
671.93	35983.40
672.07	35896.80
672.21	35461.46
672.35	35068.25
672.49	35381.88
672.63	35386.56
672.77	35016.75
672.91	35117.40
673.05	34930.16
673.19	34899.73
673.33	35044.84
673.47	34632.91
673.61	34480.77
673.75	34548.65
673.89	34071.18
674.03	34539.29
674.17	34536.94
674.31	34188.21
674.45	34108.63
674.59	34272.46
674.73	34227.99
674.87	33659.24
675.01	33820.74
675.15	33752.87
675.29	33420.51
675.43	33635.84
675.56	33834.78
675.70	33546.90
675.84	33495.41
675.98	32573.24
676.12	33109.22
676.26	33771.59
676.40	32994.53
676.54	32535.79
676.68	32790.91
676.82	32425.78
676.96	32708.99
677.10	32793.25
677.23	32636.43
677.37	32388.33
677.51	32357.91
677.65	32194.07
677.79	32109.81
677.93	31889.80
678.07	32123.85
678.21	31819.58
678.34	31700.22
678.48	31395.95
678.62	31391.26
678.76	31239.13
678.90	30993.37
679.04	31122.10
679.18	31648.72
679.31	30906.77
679.45	31117.42
679.59	30955.93
679.73	30326.32
679.87	30543.99
680.00	30281.85
680.14	30312.28
680.28	30408.24
680.42	30319.30
680.56	30518.25
680.70	30230.36
680.83	29802.04
680.97	29799.70
681.11	29846.51
681.25	29469.69
681.39	29385.43
681.52	29647.57
681.66	29111.58
681.80	29167.76
681.94	28793.27
682.07	28947.75
682.21	28500.70
682.35	28933.70
682.49	28835.40
682.62	28620.07
682.76	28657.52
682.90	28631.77
683.04	27922.59
683.17	28589.64
683.31	28460.91
683.45	28182.39
683.59	27845.35
683.72	27410.01
683.86	28123.88
684.00	27470.87
684.13	27674.49
684.27	27730.67
684.41	27543.42
684.55	27709.60
684.68	27569.17
684.82	26965.31
684.96	27089.36
685.09	27171.28
685.23	26916.16
685.37	27328.10
685.50	27264.90
685.64	26726.58
685.78	26429.33
685.91	26735.94
686.05	26331.03
686.19	25511.84
686.32	26078.25
686.46	25682.70
686.60	26047.82
686.73	26061.87
686.87	25949.52
687.01	25275.45
687.14	25727.17
687.28	25717.81
687.42	25144.38
687.55	25113.95
687.69	25207.57
687.82	25060.12
687.96	25259.06
688.10	24844.79
688.23	24985.22
688.37	24797.98
688.50	25282.47
688.64	24753.51
688.78	24327.53
688.91	24453.92
689.05	24269.01
689.18	24093.47
689.32	23367.91
689.46	23805.59
689.59	23637.07
689.73	23908.57
689.86	23873.46
690.00	23461.53
690.13	23728.35
690.27	23442.81
690.41	23679.20
690.54	23328.12
690.68	22998.10
690.81	22792.14
690.95	23012.15
691.08	22787.46
691.22	22335.73
691.35	22590.85
691.49	23051.94
691.62	22551.06
691.76	22164.87
691.89	22071.25
692.03	21928.48
692.16	21900.39
692.30	22134.45
692.43	22015.08
692.57	21369.09
692.70	21458.03
692.84	21621.87
692.97	21261.43
693.11	21736.56
693.24	21310.58
693.38	21013.33
693.51	21062.48
693.65	21099.93
693.78	21062.48
693.92	20739.49
694.05	20943.11
694.19	20496.07
694.32	20369.68
694.45	21160.78
694.59	20755.87
694.72	20695.02
694.86	20130.95
694.99	19962.43
695.13	20159.03
695.26	20126.27
695.39	19681.56
695.53	19953.07
695.66	19992.86
695.80	19793.91
695.93	19662.84
696.07	19569.22
696.20	19232.18
696.33	18874.08
696.47	19183.03
696.60	19047.28
696.73	18904.51
696.87	18951.32
697.00	19082.39
697.14	18930.25
697.27	18616.62
697.40	18597.90
697.54	18822.59
697.67	18352.14
697.80	18738.33
697.94	18342.78
698.07	18242.14
698.21	17987.02
698.34	17933.18
698.47	17998.72
698.61	17561.04
698.74	17542.32
698.87	17750.62
699.01	17392.52
699.14	17722.54
699.27	17507.21
699.40	17207.62
699.54	17027.40
699.67	17308.26
699.80	17334.01
699.94	16957.18
700.07	16973.56
700.20	16802.71
700.34	16669.30
700.47	17057.82
700.60	16741.85
700.73	16849.52
700.87	16301.83
701.00	16208.21
701.13	16255.02
701.26	16215.23
701.40	16133.31
701.53	15765.85
701.66	16100.55
701.79	16093.52
701.93	15632.44
702.06	15623.08
702.19	15517.75
702.32	15702.65
702.46	15697.97
702.59	15609.03
702.72	15611.37
702.85	15559.88
702.99	15342.21
703.12	15290.72
703.25	15176.03
703.38	14956.02
703.51	14941.98
703.65	14848.36
703.78	14895.17
703.91	14530.05
704.04	14633.03
704.17	14583.88
704.31	14572.18
704.44	14520.68
704.57	14382.59
704.70	14799.21
704.83	14310.04
704.96	14106.41
705.10	14080.66
705.23	13968.32
>>>>>End Processed Spectral Data<<<<<
