SpectraSuite Data File
++++++++++++++++++++++++++++++++++++
Date: Fri Oct 25 10:46:57 EDT 2013
User: price-jones
Dark Spectrum Present: No
Reference Spectrum Present: No
Number of Sampled Component Spectra: 1
Spectrometers: USB2+H05261
Integration Time (usec): 100000 (USB2+H05261)
Spectra Averaged: 1 (USB2+H05261)
Boxcar Smoothing: 0 (USB2+H05261)
Correct for Electrical Dark: No (USB2+H05261)
Strobe/Lamp Enabled: No (USB2+H05261)
Correct for Detector Non-linearity: No (USB2+H05261)
Correct for Stray Light: No (USB2+H05261)
Number of Pixels in Processed Spectrum: 2048
>>>>>Begin Processed Spectral Data<<<<<
365.73	121.71
365.92	121.71
366.12	121.71
366.32	42.13
366.52	56.17
366.72	56.17
366.91	37.45
367.11	63.19
367.31	32.77
367.51	53.83
367.70	39.79
367.90	42.13
368.10	60.85
368.30	14.04
368.49	0.00
368.69	23.41
368.89	56.17
369.09	2.34
369.28	77.24
369.48	16.38
369.68	105.32
369.87	79.58
370.07	205.97
370.27	163.84
370.47	191.92
370.66	390.87
370.86	421.30
371.06	484.49
371.25	407.25
371.45	433.00
371.65	538.32
371.84	477.47
372.04	484.49
372.24	456.40
372.44	535.98
372.63	533.64
372.83	496.19
373.03	528.96
373.22	564.07
373.42	573.43
373.62	554.71
373.81	540.66
374.01	585.13
374.21	535.98
374.40	547.69
374.60	674.07
374.79	599.18
374.99	557.05
375.19	561.73
375.38	580.45
375.58	638.97
375.78	645.99
375.97	622.58
376.17	699.82
376.37	620.24
376.56	615.56
376.76	629.60
376.95	690.46
377.15	610.88
377.35	566.41
377.54	620.24
377.74	709.18
377.93	660.03
378.13	648.33
378.33	690.46
378.52	603.86
378.72	706.84
378.91	692.80
379.11	657.69
379.31	709.18
379.50	561.73
379.70	758.33
379.89	667.05
380.09	634.29
380.28	667.05
380.48	716.20
380.68	655.35
380.87	678.76
381.07	657.69
381.26	812.17
381.46	723.23
381.65	681.10
381.85	774.72
382.04	746.63
382.24	760.67
382.43	821.53
382.63	681.10
382.83	777.06
383.02	704.50
383.22	779.40
383.41	671.73
383.61	760.67
383.80	706.84
384.00	758.33
384.19	805.14
384.39	748.97
384.58	763.01
384.78	795.78
384.97	858.98
385.17	791.10
385.36	844.93
385.56	802.80
385.75	880.04
385.95	919.83
386.14	802.80
386.34	854.30
386.53	842.59
386.72	837.91
386.92	875.36
387.11	910.47
387.31	866.00
387.50	858.98
387.70	844.93
387.89	835.57
388.09	830.89
388.28	877.70
388.48	887.06
388.67	964.30
388.86	997.07
389.06	938.55
389.25	959.62
389.45	905.79
389.64	922.17
389.84	1018.13
390.03	954.94
390.22	945.58
390.42	997.07
390.61	971.32
390.81	950.26
391.00	1006.43
391.19	1055.58
391.39	1027.50
391.58	1022.81
391.78	1076.65
391.97	1048.56
392.16	973.66
392.36	1060.26
392.55	1020.47
392.75	1020.47
392.94	1100.05
393.13	912.81
393.33	905.79
393.52	1060.26
393.71	1163.25
393.91	1158.57
394.10	1097.71
394.29	1095.37
394.49	1144.52
394.68	1200.69
394.88	1205.38
395.07	1193.67
395.26	1242.82
395.46	1086.01
395.65	1247.51
395.84	1128.14
396.04	1172.61
396.23	1214.74
396.42	1160.91
396.62	1242.82
396.81	1128.14
397.00	1137.50
397.19	1270.91
397.39	1284.95
397.58	1317.72
397.77	1287.29
397.97	1336.45
398.16	1343.47
398.35	1399.64
398.55	1413.68
398.74	1446.45
398.93	1404.32
399.12	1437.09
399.32	1357.51
399.51	1504.96
399.70	1528.37
399.90	1533.05
400.09	1563.48
400.28	1521.35
400.47	1497.94
400.67	1575.18
400.86	1542.41
401.05	1540.07
401.24	1636.03
401.44	1638.38
401.63	1558.80
401.82	1689.87
402.01	1696.89
402.21	1717.95
402.40	1675.82
402.59	1577.52
402.78	1717.95
402.97	1722.63
403.17	1743.70
403.36	1727.32
403.55	1757.74
403.74	1937.96
403.93	1809.23
404.13	1783.49
404.32	1881.79
404.51	1820.94
404.70	1806.89
404.89	1797.53
405.09	2038.61
405.28	1928.60
405.47	1916.90
405.66	1830.30
405.85	1982.43
406.05	1966.05
406.24	1940.30
406.43	1888.81
406.62	1872.43
406.81	1977.75
407.00	2057.33
407.20	1968.39
407.39	2050.31
407.58	2078.40
407.77	2139.25
407.96	2143.93
408.15	2221.17
408.34	2076.06
408.54	2324.15
408.73	2139.25
408.92	2188.40
409.11	2289.04
409.30	2345.22
409.49	2328.83
409.68	2157.97
409.87	2172.02
410.07	2221.17
410.26	2193.08
410.45	2186.06
410.64	2293.72
410.83	2436.50
411.02	2434.16
411.21	2445.86
411.40	2480.97
411.59	2562.89
411.78	2686.94
411.98	2628.42
412.17	2586.29
412.36	2600.34
412.55	2576.93
412.74	2649.49
412.93	2544.16
413.12	2511.39
413.31	2832.05
413.50	2715.02
413.69	2675.23
413.88	2747.79
414.07	2864.82
414.26	2827.37
414.45	2974.82
414.64	2923.33
414.83	2942.05
415.02	2895.24
415.22	2832.05
415.41	3091.85
415.60	3091.85
415.79	3080.14
415.98	3082.49
416.17	3066.10
416.36	3220.58
416.55	3155.04
416.74	3215.90
416.93	3159.72
417.12	3248.66
417.31	3262.71
417.50	3218.24
417.69	3389.10
417.88	3316.54
418.07	3152.70
418.26	3225.26
418.45	3424.20
418.64	3485.06
418.83	3471.01
419.02	3407.82
419.21	3407.82
419.39	3557.61
419.58	3566.98
419.77	3513.14
419.96	3602.08
420.15	3581.02
420.34	3613.79
420.53	3679.32
420.72	3775.28
420.91	3735.50
421.10	3705.07
421.29	3885.29
421.48	3651.24
421.67	3794.01
421.86	3765.92
422.05	3693.37
422.24	3768.26
422.43	3674.64
422.61	3847.84
422.80	3878.27
422.99	3941.46
423.18	3716.77
423.37	3936.78
423.56	3798.69
423.75	3730.81
423.94	3824.44
424.13	3548.25
424.32	3609.11
424.50	3749.54
424.69	3957.85
424.88	3794.01
425.07	3894.65
425.26	3808.05
425.45	3889.97
425.64	3822.09
425.83	3861.88
426.01	4023.38
426.20	3911.04
426.39	3995.29
426.58	3899.33
426.77	3812.73
426.96	3997.64
427.15	3875.93
427.33	3906.35
427.52	3971.89
427.71	3936.78
427.90	4063.17
428.09	4086.58
428.28	3932.10
428.46	4135.73
428.65	4163.81
428.84	4236.37
429.03	4236.37
429.22	3997.64
429.40	4077.21
429.59	3985.93
429.78	4028.06
429.97	3997.64
430.16	4093.60
430.34	4067.85
430.53	4124.02
430.72	4074.87
430.91	4159.13
431.10	4397.87
431.28	4358.08
431.47	4568.73
431.66	4634.26
431.85	4524.26
432.03	4510.21
432.22	4493.83
432.41	4596.81
432.60	4636.60
432.79	4489.15
432.97	4545.32
433.16	4788.74
433.35	4519.57
433.54	4404.89
433.72	4657.67
433.91	4624.90
434.10	4725.54
434.28	4751.29
434.47	4643.62
434.66	4725.54
434.85	4760.65
435.03	4823.84
435.22	4943.21
435.41	4936.19
435.59	4910.44
435.78	4992.36
435.97	5029.81
436.16	5057.90
436.34	5057.90
436.53	5205.35
436.72	5160.88
436.90	4898.74
437.09	5081.30
437.28	4992.36
437.46	5221.74
437.65	5149.18
437.84	5153.86
438.02	4975.98
438.21	4994.70
438.40	5039.17
438.58	5270.89
438.77	5233.44
438.96	5123.43
439.14	5446.43
439.33	5420.68
439.52	5439.40
439.70	5509.62
439.89	5572.82
440.08	5703.89
440.26	5516.64
440.45	5570.48
440.63	5715.59
440.82	5738.99
441.01	5781.12
441.19	5771.76
441.38	5886.45
441.57	5937.94
441.75	6010.50
441.94	6033.90
442.12	5982.41
442.31	6080.71
442.50	6246.89
442.68	6139.23
442.87	6190.72
443.05	6202.42
443.24	6317.11
443.43	6387.32
443.61	6282.00
443.80	6237.53
443.98	6157.95
444.17	6282.00
444.35	6422.43
444.54	6396.68
444.73	6317.11
444.91	6342.85
445.10	6223.48
445.28	6209.44
445.47	6267.95
445.65	6401.37
445.84	6448.18
446.02	6452.86
446.21	6448.18
446.39	6445.84
446.58	6387.32
446.77	6530.09
446.95	6361.58
447.14	6504.35
447.32	6464.56
447.51	6452.86
447.69	6413.07
447.88	6595.63
448.06	6534.78
448.25	6480.94
448.43	6562.86
448.62	6427.11
448.80	6567.54
448.99	6738.40
449.17	6630.74
449.36	6665.85
449.54	6932.67
449.73	6843.73
449.91	7059.06
450.10	6853.09
450.28	7180.76
450.46	6869.47
450.65	6995.86
450.83	6836.70
451.02	6843.73
451.20	6895.22
451.39	7045.01
451.57	6960.75
451.76	7033.31
451.94	7243.96
452.13	6956.07
452.31	7080.12
452.49	6899.90
452.68	6909.26
452.86	6904.58
453.05	7190.13
453.23	7173.74
453.42	7143.32
453.60	7213.53
453.78	7295.45
453.97	7208.85
454.15	7098.84
454.34	6937.35
454.52	7400.77
454.70	7169.06
454.89	7447.58
455.07	7218.21
455.26	7377.37
455.44	7660.57
455.62	7449.93
455.81	7538.87
455.99	7693.34
456.17	7641.85
456.36	7637.17
456.54	7822.07
456.73	7852.50
456.91	7831.43
457.09	7808.03
457.28	7819.73
457.46	7723.77
457.64	7906.33
457.83	7988.25
458.01	7744.83
458.19	8030.38
458.38	8011.65
458.56	8145.06
458.74	8070.17
458.93	7892.29
459.11	8145.06
459.29	7899.31
459.48	8180.17
459.66	8098.25
459.84	8074.85
460.03	8234.00
460.21	8276.13
460.39	8252.73
460.57	8566.36
460.76	8439.97
460.94	8393.16
461.12	8395.50
461.31	8297.20
461.49	8435.29
461.67	8493.80
461.85	8671.68
462.04	8493.80
462.22	9123.41
462.40	8786.37
462.59	8456.36
462.77	8685.73
462.95	8779.35
463.13	8755.94
463.32	8802.75
463.50	8894.04
463.68	8840.20
463.86	9020.42
464.05	8875.31
464.23	8667.00
464.41	8755.94
464.59	8795.73
464.78	8971.27
464.96	8865.95
465.14	8868.29
465.32	8868.29
465.50	9060.21
465.69	8999.36
465.87	8959.57
466.05	8999.36
466.23	8945.53
466.41	9020.42
466.60	9217.03
466.78	9027.45
466.96	8973.61
467.14	9186.60
467.32	9193.62
467.51	9193.62
467.69	8938.51
467.87	9317.67
468.05	9411.29
468.23	9312.99
468.41	9172.56
468.60	9355.12
468.78	9408.95
468.96	9406.61
469.14	9490.87
469.32	9675.77
469.50	9261.50
469.69	9582.15
469.87	9593.86
470.05	9715.56
470.23	9584.49
470.41	9750.67
470.59	9722.59
470.77	9614.92
470.95	9884.08
471.14	9703.86
471.32	9764.72
471.50	10073.67
471.68	9991.75
471.86	10019.83
472.04	10019.83
472.22	10338.15
472.40	9975.36
472.58	10284.31
472.77	10148.56
472.95	10307.72
473.13	10817.96
473.31	10403.68
473.49	10504.32
473.67	10328.78
473.85	10434.11
474.03	10693.91
474.21	10665.82
474.39	10785.19
474.57	10839.02
474.75	10899.87
474.93	11066.05
475.12	10630.71
475.30	11002.86
475.48	10892.85
475.66	11225.21
475.84	10937.32
476.02	11143.29
476.20	11138.61
476.38	11300.11
476.56	11859.49
476.74	11524.80
476.92	11754.17
477.10	11555.22
477.28	11798.64
477.46	11763.53
477.64	12194.19
477.82	12023.33
478.00	12400.16
478.18	12039.72
478.36	12294.83
478.54	12418.88
478.72	12280.79
478.90	12704.43
479.08	13055.51
479.26	12959.55
479.44	13004.02
479.62	13085.94
479.80	13029.76
479.98	13198.28
480.16	13343.39
480.34	13270.84
480.52	13561.06
480.70	13380.84
480.88	13231.05
481.06	13528.30
481.24	13727.24
481.41	14003.43
481.59	13963.64
481.77	14104.07
481.95	13951.93
482.13	14338.12
482.31	13916.83
482.49	14494.94
482.67	14494.94
482.85	14450.47
483.03	14738.35
483.21	14883.47
483.39	14897.51
483.57	15140.93
483.74	15199.44
483.92	15264.97
484.10	15211.14
484.28	15510.73
484.46	15723.72
484.64	15939.05
484.82	15669.89
485.00	15536.48
485.18	16013.95
485.35	15992.88
485.53	15742.44
485.71	16229.27
485.89	16369.71
486.07	16152.04
486.25	16074.80
486.43	16477.37
486.61	16451.63
486.78	17041.44
486.96	17209.96
487.14	17319.96
487.32	17287.20
487.50	17675.73
487.68	18012.76
487.85	18125.11
488.03	17804.46
488.21	18073.62
488.39	18139.15
488.57	18485.55
488.75	18363.84
488.92	18677.48
489.10	18948.98
489.28	18703.22
489.46	19360.91
489.64	19225.16
489.81	19531.77
489.99	19756.46
490.17	19833.70
490.35	19873.49
490.53	20091.16
490.70	20032.65
490.88	19847.74
491.06	20393.09
491.24	20615.44
491.41	20329.89
491.59	20435.22
491.77	20685.65
491.95	21043.76
492.13	20989.92
492.30	20947.79
492.48	21497.82
492.66	21589.10
492.84	21310.58
493.01	21476.76
493.19	21603.14
493.37	22127.42
493.54	21982.31
493.72	22057.21
493.90	22333.39
494.08	22295.94
494.25	23147.90
494.43	22558.08
494.61	22733.62
494.79	23047.26
494.96	22890.44
495.14	23138.54
495.32	23346.84
495.49	23494.30
495.67	23524.72
495.85	23707.29
496.02	23784.52
496.20	23950.70
496.38	24100.50
496.55	23999.85
496.73	24706.70
496.91	24680.95
497.09	24711.38
497.26	24830.74
497.44	24463.28
497.62	24753.51
497.79	25081.18
497.97	24739.46
498.14	25029.69
498.32	25156.08
498.50	25340.98
498.67	25582.06
498.85	25685.04
499.03	25738.87
499.20	25823.13
499.38	25631.21
499.56	26122.72
499.73	26029.10
499.91	26012.71
500.08	26230.38
500.26	26043.14
500.44	26319.32
500.61	26087.61
500.79	26462.10
500.97	26544.02
501.14	26724.24
501.32	26817.86
501.49	26843.60
501.67	26796.79
501.84	26979.36
502.02	27129.15
502.20	27288.31
502.37	27433.42
502.55	27276.60
502.72	27335.12
502.90	27463.85
503.07	27641.73
503.25	27880.46
503.43	27674.49
503.60	27922.59
503.78	27927.27
503.95	28020.89
504.13	27938.97
504.30	28044.30
504.48	27983.44
504.65	28336.87
504.83	28615.39
505.01	28980.51
505.18	28645.82
505.36	28800.29
505.53	28690.29
505.71	29699.06
505.88	29331.59
506.06	28943.06
506.23	29273.08
506.41	28943.06
506.58	29436.92
506.76	29558.63
506.93	29933.11
507.11	29457.98
507.28	29710.76
507.46	29596.07
507.63	29560.97
507.81	29685.01
507.98	29827.79
508.16	30132.06
508.33	30054.82
508.50	29888.64
508.68	30490.16
508.85	30520.59
509.03	30436.33
509.20	30457.39
509.38	30967.63
509.55	30831.88
509.73	30991.03
509.90	31054.23
510.08	30810.81
510.25	31117.42
510.42	31292.96
510.60	31133.81
510.77	31534.04
510.95	31562.12
511.12	31604.25
511.30	31931.93
511.47	31693.19
511.64	31800.86
511.82	32357.91
511.99	31615.96
512.17	32013.85
512.34	31777.45
512.51	32147.26
512.69	32212.79
512.86	32451.53
513.04	32339.18
513.21	32341.52
513.38	32814.31
513.56	32395.35
513.73	32481.95
513.90	32559.19
514.08	32505.36
514.25	32821.33
514.43	32985.17
514.60	32790.91
514.77	32816.65
514.95	33053.05
515.12	32833.04
515.29	33310.50
515.47	33853.51
515.64	33668.61
515.81	33415.83
515.99	33647.54
516.16	33305.82
516.33	33472.00
516.51	33125.60
516.68	33031.98
516.85	32886.87
517.03	33532.86
517.20	33610.09
517.37	33638.18
517.54	34005.64
517.72	33902.66
517.89	34178.84
518.06	33734.14
518.24	33769.25
518.41	33305.82
518.58	34094.58
518.75	33916.70
518.93	34450.35
519.10	34335.66
519.27	34712.49
519.45	34602.48
519.62	34817.81
519.79	34962.92
519.96	35445.07
520.14	35597.21
520.31	35033.14
520.48	35206.34
520.65	35358.47
520.83	35852.33
521.00	35374.86
521.17	35189.95
521.34	35749.34
521.52	35875.73
521.69	35894.46
521.86	36191.70
522.03	35962.33
522.20	35810.20
522.38	36006.80
522.55	36299.37
522.72	36051.27
522.89	35957.65
523.07	35985.74
523.24	35777.43
523.41	36535.76
523.58	36442.14
523.75	36781.52
523.92	36907.91
524.10	36910.25
524.27	36933.65
524.44	36369.58
524.61	37158.34
524.78	37109.19
524.96	36924.29
525.13	37654.54
525.30	37741.14
525.47	38010.30
525.64	37333.89
525.81	37549.21
525.98	37137.28
526.16	37097.49
526.33	37137.28
526.50	37490.70
526.67	37160.69
526.84	37544.53
527.01	37191.11
527.18	37481.34
527.36	38096.90
527.53	37708.37
527.70	38211.59
527.87	38017.32
528.04	37694.33
528.21	37841.78
528.38	37752.84
528.55	38281.80
528.72	38422.23
528.89	38185.84
529.07	38157.75
529.24	38078.18
529.41	38410.53
529.58	38087.54
529.75	38611.82
529.92	38246.69
530.09	38998.01
530.26	38625.86
530.43	38494.79
530.60	38993.32
530.77	38756.93
530.94	39033.11
531.11	38930.13
531.28	38927.79
531.46	39065.88
531.63	39494.20
531.80	39129.08
531.97	39346.75
532.14	39562.08
532.31	39019.07
532.48	39290.57
532.65	39669.74
532.82	38782.68
532.99	39351.43
533.16	39194.61
533.33	39379.51
533.50	39831.24
533.67	39777.40
533.84	39515.26
534.01	40020.82
534.18	39278.87
534.35	39721.23
534.52	39959.97
534.69	40013.80
534.86	40013.80
535.03	40027.84
535.20	39941.24
535.37	40659.79
535.54	40760.43
535.71	40151.89
535.88	40786.18
536.05	40350.84
536.22	40313.39
536.38	40320.41
536.55	40425.73
536.72	40456.16
536.89	39887.41
537.06	40624.68
537.23	40748.73
537.40	40540.42
537.57	40732.34
537.74	40917.25
537.91	41338.54
538.08	40999.16
538.25	40751.07
538.42	40730.00
538.59	40591.91
538.75	40748.73
538.92	40847.03
539.09	41249.60
539.26	41083.42
539.43	41478.97
539.60	41219.17
539.77	40985.12
539.94	41071.72
540.11	41476.63
540.28	40774.47
540.44	41399.40
540.61	41254.28
540.78	41226.20
540.95	41432.16
541.12	41383.01
541.29	41146.62
541.46	40928.95
541.62	41867.50
541.79	41743.45
541.96	41607.70
542.13	41481.31
542.30	41626.43
542.47	41933.04
542.63	41418.12
542.80	42047.72
542.97	42314.55
543.14	42321.57
543.31	42335.61
543.48	42277.10
543.64	42766.27
543.81	42546.26
543.98	42391.78
544.15	42557.96
544.32	42983.94
544.48	42930.11
544.65	42483.06
544.82	42712.44
544.99	42389.44
545.16	43182.88
545.32	42920.74
545.49	43278.85
545.66	42878.61
545.83	43468.43
546.00	43309.27
546.16	42969.90
546.33	43012.02
546.50	42974.58
546.67	43131.39
546.83	42384.76
547.00	43283.53
547.17	43089.26
547.34	42742.86
547.50	43302.25
547.67	43105.65
547.84	43309.27
548.00	43351.40
548.17	43524.60
548.34	43536.30
548.51	43580.78
548.67	43580.78
548.84	43833.55
549.01	43667.37
549.18	43510.56
549.34	43414.60
549.51	43662.69
549.68	43475.45
549.84	43761.00
550.01	43854.62
550.18	43695.46
550.34	44076.97
550.51	44105.06
550.68	43548.01
550.84	43819.51
551.01	43770.36
551.18	43501.20
551.34	43976.33
551.51	43929.51
551.68	44186.97
551.84	44060.58
552.01	44135.48
552.18	44392.94
552.34	44144.84
552.51	44156.55
552.68	44329.75
552.84	44245.49
553.01	44261.87
553.18	44170.59
553.34	44460.82
553.51	44273.57
553.67	44465.50
553.84	44844.66
554.01	44694.87
554.17	44474.86
554.34	44657.42
554.51	44371.88
554.67	44563.80
554.84	44884.45
555.00	44388.26
555.17	44549.76
555.33	44769.77
555.50	44416.35
555.67	44732.32
555.83	44191.65
556.00	44463.16
556.16	45003.82
556.33	45181.70
556.50	44282.94
556.66	44926.58
556.83	44720.62
556.99	44851.69
557.16	44961.69
557.32	44727.64
557.49	44788.49
557.65	44708.91
557.82	44341.45
557.98	44367.20
558.15	45106.80
558.32	44671.46
558.48	45045.95
558.65	45415.76
558.81	45165.32
558.98	44917.22
559.14	44952.33
559.31	44755.72
559.47	45270.64
559.64	45141.91
559.80	45015.52
559.97	45418.10
560.13	44949.99
560.30	45125.53
560.46	45359.58
560.63	45460.23
560.79	45031.91
560.96	45633.42
561.12	45280.00
561.29	45394.69
561.45	45340.86
561.61	45474.27
561.78	45471.93
561.94	45448.52
562.11	45296.39
562.27	45055.31
562.44	45048.29
562.60	45610.02
562.77	45680.24
562.93	45413.41
563.10	45743.43
563.26	45329.16
563.42	45481.29
563.59	45631.08
563.75	45769.18
563.92	45581.93
564.08	45265.96
564.24	45862.80
564.41	45638.11
564.57	45542.14
564.74	45497.67
564.90	45717.68
565.07	45631.08
565.23	45666.19
565.39	45359.58
565.56	45708.32
565.72	45361.92
565.88	45268.30
566.05	45993.87
566.21	45546.82
566.38	45624.06
566.54	45212.13
566.70	45904.93
566.87	45911.95
567.03	46101.53
567.19	46263.03
567.36	45825.35
567.52	45577.25
567.68	45514.06
567.85	45921.31
568.01	45736.41
568.17	45745.77
568.34	45968.12
568.50	45661.51
568.66	45790.24
568.83	46167.07
568.99	45326.81
569.15	45595.98
569.32	45532.78
569.48	45642.79
569.64	45734.07
569.81	45867.48
569.97	45647.47
570.13	45808.96
570.30	45511.72
570.46	45574.91
570.62	45429.80
570.78	45647.47
570.95	45455.54
571.11	45902.59
571.27	45970.46
571.43	45855.78
571.60	46024.29
571.76	45823.01
571.92	45677.90
572.09	45846.41
572.25	45628.74
572.41	45815.99
572.57	46021.95
572.74	46604.75
572.90	46045.36
573.06	45940.04
573.22	45717.68
573.38	45961.10
573.55	46141.32
573.71	45759.81
573.87	45815.99
574.03	45954.08
574.20	45975.14
574.36	45483.63
574.52	46124.94
574.68	45820.67
574.84	46216.22
575.01	45928.33
575.17	45900.25
575.33	45750.45
575.49	46260.69
575.65	46274.73
575.82	46321.54
575.98	45991.53
576.14	46944.12
576.30	46141.32
576.46	46267.71
576.62	45422.78
576.79	45696.62
576.95	45851.09
577.11	45703.64
577.27	46155.36
577.43	46389.42
577.59	45928.33
577.75	45780.88
577.92	45649.81
578.08	45799.60
578.24	45729.39
578.40	46131.96
578.56	46131.96
578.72	45916.63
578.88	46024.29
579.04	45956.42
579.21	45640.45
579.37	45958.76
579.53	45933.01
579.69	45860.46
579.85	45675.55
580.01	46256.01
580.17	45984.51
580.33	45961.10
580.49	46263.03
580.65	46314.52
580.82	46623.47
580.98	46239.62
581.14	45888.54
581.30	45993.87
581.46	46312.18
581.62	46258.35
581.78	45593.64
581.94	46588.36
582.10	46115.58
582.26	46375.37
582.42	46660.92
582.58	46059.40
582.74	45717.68
582.90	46218.56
583.06	46251.33
583.22	46382.40
583.38	46302.82
583.54	46555.60
583.70	46506.44
583.86	46195.15
584.02	45972.80
584.18	46953.49
584.34	46469.00
584.50	46279.41
584.66	46230.26
584.82	45968.12
584.98	46649.22
585.14	46459.63
585.30	46012.59
585.46	46747.52
585.62	46218.56
585.78	46244.30
585.94	46227.92
586.10	45839.39
586.26	46302.82
586.42	46190.47
586.58	46579.00
586.74	46656.24
586.90	46033.66
587.06	45872.16
587.22	46925.40
587.38	45773.86
587.54	46424.53
587.70	46424.53
587.86	46293.46
588.02	45750.45
588.18	46705.39
588.34	46286.43
588.49	46099.19
588.65	45844.07
588.81	45989.19
588.97	45794.92
589.13	45904.93
589.29	45890.88
589.45	46401.12
589.61	46525.17
589.77	46518.15
589.93	46253.67
590.08	46513.47
590.24	46209.20
590.40	46307.50
590.56	46579.00
590.72	46520.49
590.88	46440.91
591.04	46520.49
591.20	46508.79
591.35	46630.49
591.51	46817.74
591.67	46309.84
591.83	46494.74
591.99	46246.65
592.15	46588.36
592.31	46632.83
592.46	46277.07
592.62	46457.29
592.78	46864.55
592.94	46464.32
593.10	46387.08
593.26	46333.24
593.41	46298.14
593.57	46412.82
593.73	45811.31
593.89	46700.71
594.05	46356.65
594.20	46696.03
594.36	46600.07
594.52	46597.73
594.68	46644.54
594.84	46564.96
594.99	47014.34
595.15	46178.77
595.31	46349.63
595.47	46394.10
595.62	46373.03
595.78	46326.22
595.94	46618.79
596.10	46358.99
596.25	46684.33
596.41	46745.18
596.57	46366.01
596.73	46784.97
596.88	46143.66
597.04	46426.87
597.20	46813.05
597.36	46639.86
597.51	46426.87
597.67	46571.98
597.83	46815.40
597.99	46536.87
598.14	46724.11
598.30	46777.95
598.46	46780.29
598.61	46258.35
598.77	46630.49
598.93	46450.27
599.09	46775.61
599.24	46890.29
599.40	46866.89
599.56	46656.24
599.71	46742.84
599.87	46766.24
600.03	46532.19
600.18	46616.45
600.34	46712.41
600.50	46103.87
600.65	46316.86
600.81	46492.40
600.97	46768.58
601.12	46780.29
601.28	46869.23
601.44	46485.38
601.59	46342.61
601.75	46225.58
601.91	46595.38
602.06	46410.48
602.22	46391.76
602.37	46265.37
602.53	46808.37
602.69	46555.60
602.84	46700.71
603.00	46005.57
603.16	46520.49
603.31	46263.03
603.47	46436.23
603.62	45834.71
603.78	46454.95
603.94	46506.44
604.09	46569.64
604.25	46494.74
604.40	46602.41
604.56	46628.15
604.71	46265.37
604.87	46373.03
605.03	46021.95
605.18	46857.52
605.34	46478.36
605.49	46218.56
605.65	46548.57
605.80	46237.28
605.96	46525.17
606.12	46590.70
606.27	46712.41
606.43	46117.92
606.58	46326.22
606.74	46555.60
606.89	46190.47
607.05	46358.99
607.20	46464.32
607.36	46674.96
607.51	46665.60
607.67	46373.03
607.82	46246.65
607.98	46143.66
608.13	46115.58
608.29	46045.36
608.44	45811.31
608.60	45457.88
608.75	45839.39
608.91	45663.85
609.06	45914.29
609.22	46265.37
609.37	46199.83
609.53	46148.34
609.68	45858.12
609.84	46167.07
609.99	46143.66
610.15	45839.39
610.30	45968.12
610.46	45703.64
610.61	45951.74
610.76	45771.52
610.92	45947.06
611.07	45853.44
611.23	46078.13
611.38	45865.14
611.54	45766.84
611.69	45614.70
611.84	45418.10
612.00	45581.93
612.15	45523.42
612.31	45521.08
612.46	45708.32
612.62	45635.77
612.77	45553.85
612.92	45825.35
613.08	45642.79
613.23	45696.62
613.39	45535.12
613.54	45254.26
613.69	45050.63
613.85	45385.33
614.00	45193.40
614.15	45766.84
614.31	45298.73
614.46	45961.10
614.62	45029.57
614.77	45282.34
614.92	45443.84
615.08	45581.93
615.23	45230.85
615.38	45329.16
615.54	45102.12
615.69	45401.71
615.84	45031.91
616.00	45371.28
616.15	45013.18
616.30	45240.21
616.46	44917.22
616.61	45071.70
616.76	45083.40
616.92	44964.03
617.07	44641.04
617.22	44385.92
617.37	44516.99
617.53	45233.19
617.68	45099.78
617.83	44626.99
617.99	45170.00
618.14	45275.32
618.29	44767.43
618.45	44507.63
618.60	44875.09
618.75	45219.15
618.90	44657.42
619.06	44240.81
619.21	44900.84
619.36	44971.05
619.51	44755.72
619.67	44535.71
619.82	44741.68
619.97	44872.75
620.12	44966.37
620.28	44013.77
620.43	44690.19
620.58	44437.41
620.73	44062.93
620.89	44603.59
621.04	44636.36
621.19	44161.23
621.34	44004.41
621.49	44545.08
621.65	43964.62
621.80	44208.04
621.95	44055.90
622.10	44266.55
622.25	44296.98
622.41	43941.22
622.56	43810.15
622.71	44463.16
622.86	44147.18
623.01	44252.51
623.16	44168.25
623.32	44032.50
623.47	43896.75
623.62	43789.08
623.77	43737.59
623.92	43981.01
624.07	43660.35
624.23	44079.31
624.38	43239.06
624.53	43569.07
624.68	43988.03
624.83	43966.96
624.98	43906.11
625.13	43512.90
625.29	43920.15
625.44	43772.70
625.59	43658.01
625.74	43421.62
625.89	43386.51
626.04	42986.28
626.19	43489.49
626.34	43225.01
626.49	43819.51
626.65	43793.76
626.80	43742.27
626.95	43007.34
627.10	43126.71
627.25	43058.84
627.40	42918.40
627.55	43086.92
627.70	42560.30
627.85	42349.65
628.00	42534.56
628.15	42986.28
628.30	42913.72
628.45	43433.32
628.60	43243.74
628.76	43058.84
628.91	43227.35
629.06	43063.52
629.21	42789.67
629.36	42827.12
629.51	42319.23
629.66	42625.84
629.81	42234.97
629.96	42630.52
630.11	43267.14
630.26	43084.58
630.41	43185.22
630.56	42883.30
630.71	42972.24
630.86	42822.44
631.01	42583.71
631.16	42639.88
631.31	42340.29
631.46	42359.02
631.61	42368.38
631.76	42508.81
631.91	42473.70
632.06	42719.46
632.21	42440.93
632.36	42440.93
632.51	41921.34
632.66	41965.81
632.81	42010.28
632.96	42021.98
633.10	42021.98
633.25	42036.02
633.40	42309.86
633.55	42185.82
633.70	42337.95
633.85	42087.51
634.00	42403.49
634.15	41649.83
634.30	42361.36
634.45	41530.47
634.60	42323.91
634.75	41869.84
634.90	42192.84
635.05	42321.57
635.19	41727.07
635.34	41933.04
635.49	41902.61
635.64	41567.91
635.79	41790.27
635.94	41476.63
636.09	41596.00
636.24	41397.06
636.39	40982.78
636.53	41397.06
636.68	41352.58
636.83	41310.46
636.98	41778.56
637.13	41514.08
637.28	41570.25
637.43	41778.56
637.57	41921.34
637.72	41621.75
637.87	41315.14
638.02	41872.18
638.17	41277.69
638.32	41415.78
638.46	41745.80
638.61	41275.35
638.76	40531.06
638.91	41247.26
639.06	41415.78
639.20	41387.69
639.35	41375.99
639.50	40912.56
639.65	41202.79
639.80	41366.63
639.94	41057.68
640.09	40842.35
640.24	40765.11
640.39	40870.43
640.54	40999.16
640.68	40942.99
640.83	40732.34
640.98	40676.17
641.13	40676.17
641.27	40884.48
641.42	40783.83
641.57	41085.76
641.72	40720.64
641.86	40620.00
642.01	40498.29
642.16	40872.78
642.31	40060.61
642.45	40217.43
642.60	40430.41
642.75	40013.80
642.90	40605.95
643.04	40076.99
643.19	40376.58
643.34	40472.54
643.48	40395.31
643.63	40598.93
643.78	40364.88
643.93	40123.80
644.07	39948.26
644.22	40346.15
644.37	39889.75
644.51	40018.48
644.66	40133.17
644.81	40062.95
644.95	40088.70
645.10	40086.36
645.25	40411.69
645.39	40526.38
645.54	40126.14
645.69	39796.13
645.83	39538.67
645.98	40268.92
646.13	40203.38
646.27	40172.96
646.42	39854.64
646.57	39992.73
646.71	39889.75
646.86	39646.33
647.00	39482.50
647.15	39700.17
647.30	39985.71
647.44	39646.33
647.59	39351.43
647.74	39306.96
647.88	39709.53
648.03	39571.44
648.17	39735.27
648.32	39285.89
648.47	39257.81
648.61	39459.09
648.76	39721.23
648.90	39356.11
649.05	39945.92
649.20	39730.59
649.34	39508.24
649.49	39246.10
649.63	39533.99
649.78	38822.47
649.92	39194.61
650.07	39440.37
650.21	39381.85
650.36	39409.94
650.51	39168.87
650.65	39445.05
650.80	39264.83
650.94	39601.86
651.09	39159.50
651.23	38892.68
651.38	38890.34
651.52	38944.17
651.67	38483.09
651.81	38773.31
651.96	38705.44
652.10	38572.03
652.25	38838.85
652.39	38518.20
652.54	38913.75
652.68	39108.01
652.83	38902.04
652.97	39136.10
653.12	38843.53
653.26	38906.73
653.41	38398.83
653.55	38794.38
653.70	38403.51
653.84	38574.37
653.99	38239.67
654.13	38483.09
654.27	38565.01
654.42	38169.46
654.56	38335.63
654.71	38455.00
654.85	38490.11
655.00	38286.48
655.14	38106.26
655.29	37841.78
655.43	38019.66
655.57	38000.94
655.72	38106.26
655.86	37677.94
656.01	37553.90
656.15	37516.45
656.30	37998.60
656.44	37598.37
656.58	37862.85
656.73	37755.18
656.87	37771.57
657.01	37897.95
657.16	37745.82
657.30	37879.23
657.45	37523.47
657.59	37797.31
657.73	37586.66
657.88	37776.25
658.02	37390.06
658.16	37855.82
658.31	37874.55
658.45	37860.51
658.60	37612.41
658.74	37603.05
658.88	37308.14
659.03	37287.07
659.17	37289.42
659.31	36994.51
659.46	37322.18
659.60	37165.37
659.74	37139.62
659.89	36980.46
660.03	36837.69
660.17	36933.65
660.32	36973.44
660.46	36725.35
660.60	37055.36
660.74	37368.99
660.89	37074.09
661.03	36985.15
661.17	36802.58
661.32	36627.04
661.46	37109.19
661.60	36652.79
661.74	36430.44
661.89	36589.59
662.03	36477.25
662.17	36385.97
662.31	36336.82
662.46	36336.82
662.60	36872.80
662.74	36549.81
662.88	36439.80
663.03	35967.01
663.17	36196.38
663.31	36201.07
663.45	35992.76
663.60	35751.68
663.74	35629.98
663.88	35789.13
664.02	35482.52
664.17	35672.10
664.31	35679.13
664.45	35388.90
664.59	35896.80
664.73	35421.67
664.88	35634.66
665.02	35503.59
665.16	35503.59
665.30	35171.23
665.44	36013.82
665.59	35297.62
665.73	35147.82
665.87	35454.44
666.01	35332.73
666.15	34916.11
666.29	35140.80
666.44	35431.03
666.58	35119.74
666.72	34700.78
666.86	34969.94
667.00	35271.87
667.14	34656.31
667.28	34658.65
667.43	34141.39
667.57	34440.98
667.71	34272.46
667.85	34263.10
667.99	34305.23
668.13	34513.54
668.27	34272.46
668.41	34646.95
668.56	33940.11
668.70	34181.18
668.84	34022.03
668.98	33827.76
669.12	33923.72
669.26	34160.12
669.40	33720.10
669.54	33631.16
669.68	33717.76
669.82	33837.12
669.96	33738.82
670.10	33507.11
670.25	33783.29
670.39	33935.43
670.53	33598.39
670.67	33586.69
670.81	33661.58
670.95	33596.05
671.09	33675.63
671.23	33413.49
671.37	33083.47
671.51	33160.71
671.65	32451.53
671.79	32760.48
671.93	32573.24
672.07	33076.45
672.21	32774.52
672.35	32797.93
672.49	32809.63
672.63	32727.71
672.77	32652.81
672.91	32491.32
673.05	32275.99
673.19	31941.29
673.33	31974.06
673.47	32039.59
673.61	32081.72
673.75	31557.44
673.89	31484.89
674.03	31475.52
674.17	31346.79
674.31	31791.50
674.45	31391.26
674.59	31559.78
674.73	31555.10
674.87	31536.38
675.01	31407.65
675.15	31576.17
675.29	31218.07
675.43	31318.71
675.56	31164.23
675.70	31330.41
675.84	31386.58
675.98	30192.91
676.12	30703.15
676.26	30866.98
676.40	30785.07
676.54	30785.07
676.68	30630.59
676.82	29731.83
676.96	30438.67
677.10	29832.47
677.23	30162.48
677.37	29949.50
677.51	30033.75
677.65	29790.34
677.79	29493.09
677.93	29818.42
678.07	29668.63
678.21	29685.01
678.34	29333.93
678.48	29460.32
678.62	29308.19
678.76	29041.37
678.90	28575.60
679.04	29029.66
679.18	29013.28
679.31	28533.47
679.45	28699.65
679.59	28400.06
679.73	28425.81
679.87	28383.68
680.00	27995.15
680.14	28276.01
680.28	28245.58
680.42	27800.88
680.56	28081.75
680.70	28149.62
680.83	27821.95
680.97	27812.59
681.11	27758.75
681.25	27248.52
681.39	27835.99
681.52	27442.78
681.66	27435.76
681.80	27180.64
681.94	27147.87
682.07	27285.97
682.21	27175.96
682.35	26962.97
682.49	27098.72
682.62	26902.12
682.76	26684.45
682.90	26471.46
683.04	26532.31
683.17	26181.23
683.31	26679.77
683.45	26780.41
683.59	26405.92
683.72	25731.85
683.86	25647.59
684.00	25617.16
684.13	25825.47
684.27	25771.64
684.41	25652.27
684.55	25317.57
684.68	25373.75
684.82	25198.21
684.96	25479.07
685.09	25397.15
685.23	24746.48
685.37	24814.36
685.50	24919.68
685.64	24879.89
685.78	24840.11
685.91	24842.45
686.05	24381.36
686.19	24245.61
686.32	24264.33
686.46	24376.68
686.60	23658.14
686.73	23906.23
686.87	23730.69
687.01	23845.38
687.14	23831.33
687.28	23470.89
687.42	23438.12
687.55	23129.17
687.69	23522.38
687.82	23318.76
687.96	23431.10
688.10	23002.78
688.23	23194.71
688.37	23021.51
688.50	22981.72
688.64	22890.44
688.78	22897.46
688.91	22487.87
689.05	22614.26
689.18	22295.94
689.32	22199.98
689.46	22188.28
689.59	22438.72
689.73	22295.94
689.86	22132.11
690.00	21919.12
690.13	22295.94
690.27	21759.96
690.41	21984.65
690.54	21919.12
690.68	21570.38
690.81	21596.12
690.95	21352.71
691.08	21284.83
691.22	21153.76
691.35	21451.01
691.49	21135.04
691.62	21050.78
691.76	21139.72
691.89	21228.66
692.03	20929.07
692.16	20638.84
692.30	20596.71
692.43	20851.83
692.57	20341.60
692.70	20688.00
692.84	20299.47
692.97	20467.98
693.11	20011.58
693.24	20030.30
693.38	19997.54
693.51	20018.60
693.65	19822.00
693.78	20053.71
693.92	19997.54
694.05	19852.42
694.19	19847.74
694.32	19473.26
694.45	19524.75
694.59	19370.27
694.72	19201.76
694.86	19101.11
694.99	18738.33
695.13	19136.22
695.26	19131.54
695.39	18813.23
695.53	18747.69
695.66	18661.09
695.80	18408.31
695.93	18654.07
696.07	18300.65
696.20	18494.91
696.33	18185.96
696.47	18782.80
696.60	18068.94
696.73	18073.62
696.87	18061.91
697.00	17825.52
697.14	17942.55
697.27	18134.47
697.40	18209.37
697.54	17820.84
697.67	17944.89
697.80	17692.11
697.94	17352.73
698.07	17369.12
698.21	17479.12
698.34	17418.27
698.47	17214.64
698.61	17170.17
698.74	17048.46
698.87	16741.85
699.01	16732.49
699.14	16795.68
699.27	16695.04
699.40	16741.85
699.54	16418.86
699.67	16475.03
699.80	16568.65
699.94	16432.90
700.07	16514.82
700.20	16458.65
700.34	16439.92
700.47	16248.00
700.60	16252.68
700.73	16231.62
700.87	16079.48
701.00	15756.49
701.13	15676.91
701.26	15822.02
701.40	15592.65
701.53	15655.84
701.66	15515.41
701.79	15522.43
701.93	15510.73
702.06	15255.61
702.19	15393.70
702.32	15115.18
702.46	15178.37
702.59	15033.26
702.72	15028.58
702.85	15023.90
702.99	15115.18
703.12	14925.60
703.25	14944.32
703.38	14621.33
703.51	14623.67
703.65	14408.34
703.78	14801.55
703.91	14307.69
704.04	14265.57
704.17	14258.54
704.31	14274.93
704.44	14047.90
704.57	13893.42
704.70	13872.36
704.83	13937.89
704.96	14026.83
705.10	14043.21
705.23	14033.85
>>>>>End Processed Spectral Data<<<<<
