SpectraSuite Data File
++++++++++++++++++++++++++++++++++++
Date: Fri Oct 25 10:46:57 EDT 2013
User: price-jones
Dark Spectrum Present: No
Reference Spectrum Present: No
Number of Sampled Component Spectra: 1
Spectrometers: USB2+H05261
Integration Time (usec): 100000 (USB2+H05261)
Spectra Averaged: 1 (USB2+H05261)
Boxcar Smoothing: 0 (USB2+H05261)
Correct for Electrical Dark: No (USB2+H05261)
Strobe/Lamp Enabled: No (USB2+H05261)
Correct for Detector Non-linearity: No (USB2+H05261)
Correct for Stray Light: No (USB2+H05261)
Number of Pixels in Processed Spectrum: 2048
>>>>>Begin Processed Spectral Data<<<<<
365.73	126.39
365.92	126.39
366.12	126.39
366.32	25.75
366.52	56.17
366.72	67.88
366.91	14.04
367.11	0.00
367.31	35.11
367.51	0.00
367.70	56.17
367.90	32.77
368.10	42.13
368.30	0.00
368.49	35.11
368.69	60.85
368.89	100.64
369.09	72.56
369.28	58.51
369.48	42.13
369.68	140.43
369.87	126.39
370.07	114.69
370.27	100.64
370.47	177.88
370.66	428.32
370.86	388.53
371.06	442.36
371.25	477.47
371.45	510.24
371.65	496.19
371.84	491.51
372.04	418.96
372.24	510.24
372.44	500.87
372.63	456.40
372.83	531.30
373.03	496.19
373.22	491.51
373.42	479.81
373.62	566.41
373.81	514.92
374.01	531.30
374.21	592.16
374.40	561.73
374.60	601.52
374.79	685.78
374.99	645.99
375.19	601.52
375.38	582.79
375.58	533.64
375.78	631.94
375.97	648.33
376.17	575.77
376.37	660.03
376.56	695.14
376.76	648.33
376.95	594.50
377.15	620.24
377.35	648.33
377.54	688.12
377.74	624.92
377.93	601.52
378.13	634.29
378.33	692.80
378.52	683.44
378.72	746.63
378.91	702.16
379.11	720.88
379.31	650.67
379.50	631.94
379.70	664.71
379.89	704.50
380.09	807.48
380.28	667.05
380.48	669.39
380.68	664.71
380.87	690.46
381.07	695.14
381.26	720.88
381.46	763.01
381.65	650.67
381.85	690.46
382.04	720.88
382.24	669.39
382.43	660.03
382.63	697.48
382.83	760.67
383.02	847.27
383.22	727.91
383.41	704.50
383.61	758.33
383.80	802.80
384.00	772.38
384.19	781.74
384.39	723.23
384.58	821.53
384.78	814.51
384.97	791.10
385.17	781.74
385.36	809.83
385.56	770.04
385.75	866.00
385.95	805.14
386.14	786.42
386.34	903.45
386.53	807.48
386.72	828.55
386.92	880.04
387.11	858.98
387.31	940.90
387.50	826.21
387.70	858.98
387.89	887.06
388.09	943.24
388.28	905.79
388.48	887.06
388.67	1020.47
388.86	908.13
389.06	940.90
389.25	990.05
389.45	1022.81
389.64	1004.09
389.84	968.98
390.03	938.55
390.22	1046.22
390.42	1064.94
390.61	964.30
390.81	999.41
391.00	1036.86
391.19	1102.39
391.39	1090.69
391.58	994.73
391.78	1015.79
391.97	1043.88
392.16	1018.13
392.36	1118.78
392.55	1039.20
392.75	1006.43
392.94	1057.92
393.13	1006.43
393.33	1050.90
393.52	1057.92
393.71	1174.95
393.91	1121.12
394.10	1069.62
394.29	1181.97
394.49	1088.35
394.68	1149.20
394.88	1284.95
395.07	1242.82
395.26	1270.91
395.46	1261.55
395.65	1205.38
395.84	1224.10
396.04	1294.32
396.23	1280.27
396.42	1057.92
396.62	1165.59
396.81	1256.87
397.00	1188.99
397.19	1240.48
397.39	1308.36
397.58	1303.68
397.77	1355.17
397.97	1427.73
398.16	1380.92
398.35	1366.87
398.55	1420.71
398.74	1533.05
398.93	1418.36
399.12	1359.85
399.32	1364.53
399.51	1472.20
399.70	1511.99
399.90	1472.20
400.09	1502.62
400.28	1575.18
400.47	1565.82
400.67	1666.46
400.86	1633.69
401.05	1589.22
401.24	1673.48
401.44	1671.14
401.63	1739.02
401.82	1708.59
402.01	1577.52
402.21	1589.22
402.40	1736.68
402.59	1607.95
402.78	1664.12
402.97	1724.97
403.17	1748.38
403.36	1760.08
403.55	1776.47
403.74	1830.30
403.93	1825.62
404.13	1888.81
404.32	1884.13
404.51	1802.21
404.70	1839.66
404.89	1865.41
405.09	1898.17
405.28	1849.02
405.47	1877.11
405.66	1954.35
405.85	1975.41
406.05	1959.03
406.24	1949.67
406.43	1884.13
406.62	1996.48
406.81	2197.76
407.00	2092.44
407.20	2043.29
407.39	2024.56
407.58	2153.29
407.77	2019.88
407.96	2211.81
408.15	2169.68
408.34	2045.63
408.54	2122.87
408.73	2312.45
408.92	2232.87
409.11	2230.53
409.30	2251.60
409.49	2359.26
409.68	2256.28
409.87	2319.47
410.07	2251.60
410.26	2305.43
410.45	2286.70
410.64	2448.20
410.83	2387.35
411.02	2497.35
411.21	2499.69
411.40	2389.69
411.59	2438.84
411.78	2605.02
411.98	2469.27
412.17	2473.95
412.36	2558.21
412.55	2586.29
412.74	2609.70
412.93	2586.29
413.12	2705.66
413.31	2808.64
413.50	2757.15
413.69	2869.50
413.88	2731.41
414.07	2815.66
414.26	2930.35
414.45	2913.97
414.64	2902.26
414.83	2892.90
415.02	2925.67
415.22	2878.86
415.41	2995.89
415.60	3026.31
415.79	3169.09
415.98	3192.49
416.17	3150.36
416.36	3073.12
416.55	3171.43
416.74	3243.98
416.93	3061.42
417.12	3145.68
417.31	3197.17
417.50	3251.00
417.69	3339.94
417.88	3529.53
418.07	3255.69
418.26	3534.21
418.45	3447.61
418.64	3552.93
418.83	3344.63
419.02	3452.29
419.21	3569.32
419.39	3513.14
419.58	3442.93
419.77	3475.70
419.96	3583.36
420.15	3496.76
420.34	3616.13
420.53	3709.75
420.72	3866.56
420.91	3733.15
421.10	3803.37
421.29	3789.33
421.48	3623.15
421.67	3730.81
421.86	3749.54
422.05	3681.66
422.24	3779.97
422.43	3749.54
422.61	3763.58
422.80	3749.54
422.99	3939.12
423.18	3969.55
423.37	3861.88
423.56	3929.76
423.75	3796.35
423.94	3779.97
424.13	3602.08
424.32	3705.07
424.50	3866.56
424.69	3911.04
424.88	3864.22
425.07	3829.12
425.26	3850.18
425.45	3749.54
425.64	3772.94
425.83	3911.04
426.01	3880.61
426.20	4011.68
426.39	4014.02
426.58	3927.42
426.77	3716.77
426.96	3887.63
427.15	3836.14
427.33	4025.72
427.52	4025.72
427.71	3939.12
427.90	4138.07
428.09	4009.34
428.28	4088.92
428.46	4065.51
428.65	4128.70
428.84	4250.41
429.03	4224.67
429.22	3995.29
429.40	3981.25
429.59	4086.58
429.78	3995.29
429.97	3955.51
430.16	4049.13
430.34	3985.93
430.53	4135.73
430.72	4042.11
430.91	4189.56
431.10	4257.43
431.28	4484.47
431.47	4470.42
431.66	4503.19
431.85	4442.34
432.03	4533.62
432.22	4688.09
432.41	4648.30
432.60	4582.77
432.79	4638.94
432.97	4692.77
433.16	4624.90
433.35	4472.76
433.54	4650.64
433.72	4564.04
433.91	4587.45
434.10	4760.65
434.28	4510.21
434.47	4821.50
434.66	4847.25
434.85	4732.56
435.03	4891.72
435.22	4877.68
435.41	4983.00
435.59	4826.18
435.78	4901.08
435.97	4961.94
436.16	5064.92
436.34	5071.94
436.53	5121.09
436.72	5266.21
436.90	5116.41
437.09	5114.07
437.28	4973.64
437.46	5111.73
437.65	5160.88
437.84	5111.73
438.02	5022.79
438.21	5055.56
438.40	5090.67
438.58	5235.78
438.77	5275.57
438.96	5303.65
439.14	5439.40
439.33	5359.83
439.52	5427.70
439.70	5511.96
439.89	5760.06
440.08	5511.96
440.26	5720.27
440.45	5762.40
440.63	5643.03
440.82	5792.83
441.01	5748.36
441.19	5905.17
441.38	6036.24
441.57	5888.79
441.75	5921.56
441.94	6104.12
442.12	6279.66
442.31	6319.45
442.50	6209.44
442.68	6162.63
442.87	6232.85
443.05	6413.07
443.24	6401.37
443.43	6296.04
443.61	6317.11
443.80	6459.88
443.98	6361.58
444.17	6176.67
444.35	6307.74
444.54	6518.39
444.73	6410.73
444.91	6326.47
445.10	6399.02
445.28	6384.98
445.47	6242.21
445.65	6359.24
445.84	6406.05
446.02	6373.28
446.21	6452.86
446.39	6462.22
446.58	6459.88
446.77	6661.16
446.95	6693.93
447.14	6619.04
447.32	6604.99
447.51	6665.85
447.69	6436.47
447.88	6541.80
448.06	6604.99
448.25	6494.99
448.43	6518.39
448.62	6441.15
448.80	6558.18
448.99	6663.51
449.17	6729.04
449.36	6712.66
449.54	6775.85
449.73	6881.18
449.91	6991.18
450.10	6916.28
450.28	7005.22
450.46	7056.72
450.65	6965.43
450.83	7019.27
451.02	7005.22
451.20	7143.32
451.39	6956.07
451.57	6965.43
451.76	7124.59
451.94	7070.76
452.13	7236.94
452.31	7033.31
452.49	6979.48
452.68	6991.18
452.86	7033.31
453.05	7140.97
453.23	7112.89
453.42	7108.21
453.60	7176.08
453.78	7316.51
453.97	7082.46
454.15	7091.82
454.34	7187.79
454.52	7351.62
454.70	7281.41
454.89	7426.52
455.07	7297.79
455.26	7438.22
455.44	7557.59
455.62	7398.43
455.81	7728.45
455.99	7784.62
456.17	7744.83
456.36	7723.77
456.54	7763.56
456.73	7772.92
456.91	7969.52
457.09	7911.01
457.28	8063.15
457.46	7887.61
457.64	8098.25
457.83	7936.76
458.01	7847.82
458.19	8191.88
458.38	8116.98
458.56	8210.60
458.74	8051.44
458.93	8093.57
459.11	7939.10
459.29	8049.10
459.48	8252.73
459.66	8159.11
459.84	8353.37
460.03	8493.80
460.21	8383.80
460.39	8423.59
460.57	8322.94
460.76	8575.72
460.94	8402.52
461.12	8533.59
461.31	8468.06
461.49	8535.93
461.67	8273.79
461.85	8599.13
462.04	8528.91
462.22	8973.61
462.40	8854.25
462.59	8702.11
462.77	8641.26
462.95	8697.43
463.13	8638.92
463.32	8767.65
463.50	8699.77
463.68	8802.75
463.86	8737.22
464.05	8732.54
464.23	8840.20
464.41	8798.07
464.59	8629.56
464.78	9041.49
464.96	8840.20
465.14	8772.33
465.32	8936.17
465.50	9032.13
465.69	9104.68
465.87	9128.09
466.05	8999.36
466.23	9064.89
466.41	8947.87
466.60	9235.75
466.78	9048.51
466.96	9081.28
467.14	9128.09
467.32	9226.39
467.51	9301.29
467.69	8861.27
467.87	9242.78
468.05	9231.07
468.23	9331.72
468.41	9584.49
468.60	9273.20
468.78	9444.06
468.96	9320.01
469.14	9179.58
469.32	9551.73
469.50	9219.37
469.69	9476.83
469.87	9455.76
470.05	9516.62
470.23	9760.03
470.41	9753.01
470.59	9666.41
470.77	9675.77
470.95	9905.15
471.14	10015.15
471.32	9813.87
471.50	10101.75
471.68	10146.22
471.86	10040.90
472.04	10064.30
472.22	10328.78
472.40	10010.47
472.58	10120.48
472.77	10157.92
472.95	10260.91
473.13	10658.80
473.31	10373.25
473.49	10445.81
473.67	10499.64
473.85	10331.12
474.03	10572.20
474.21	10930.30
474.39	10747.74
474.57	10853.06
474.75	11115.20
474.93	11204.14
475.12	10927.96
475.30	11222.87
475.48	10923.28
475.66	11208.83
475.84	11222.87
476.02	10991.16
476.20	11208.83
476.38	11367.98
476.56	11606.72
476.74	11492.03
476.92	11470.97
477.10	11906.31
477.28	11658.21
477.46	11840.77
477.64	11885.24
477.82	12056.10
478.00	12425.90
478.18	12346.33
478.36	12468.03
478.54	12575.70
478.72	12573.36
478.90	12638.89
479.08	12917.42
479.26	12744.22
479.44	12826.14
479.62	12905.71
479.80	13123.38
479.98	13090.62
480.16	13390.20
480.34	13366.80
480.52	13591.49
480.70	13682.77
480.88	13380.84
481.06	13612.56
481.24	13659.37
481.41	13989.38
481.59	14104.07
481.77	14090.02
481.95	14359.19
482.13	14541.75
482.31	14218.75
482.49	14658.78
482.67	14743.03
482.85	15066.03
483.03	14752.40
483.21	14930.28
483.39	15192.42
483.57	15477.96
483.74	15309.44
483.92	15356.25
484.10	15335.19
484.28	15667.55
484.46	15789.25
484.64	15871.17
484.82	16212.89
485.00	16159.06
485.18	16264.38
485.35	16224.59
485.53	15976.50
485.71	15873.51
485.89	16102.89
486.07	16184.80
486.25	16730.15
486.43	16517.16
486.61	17022.72
486.78	17289.54
486.96	17249.75
487.14	17518.91
487.32	17343.37
487.50	17664.02
487.68	17799.77
487.85	18347.46
488.03	18164.90
488.21	18375.55
488.39	18246.82
488.57	18349.80
488.75	18721.95
488.92	18787.48
489.10	19070.68
489.28	19281.33
489.46	19213.46
489.64	19316.44
489.81	19473.26
489.99	19562.20
490.17	19903.92
490.35	19857.10
490.53	20032.65
490.70	20233.93
490.88	19974.13
491.06	20437.56
491.24	20664.59
491.41	20292.44
491.59	20753.53
491.77	20542.88
491.95	21043.76
492.13	20580.33
492.30	21046.10
492.48	21294.19
492.66	21427.60
492.84	21399.52
493.01	21872.31
493.19	21523.57
493.37	21907.41
493.54	22036.14
493.72	22185.94
493.90	22333.39
494.08	22602.55
494.25	22703.20
494.43	22810.86
494.61	22951.29
494.79	23173.64
494.96	23054.28
495.14	23400.68
495.32	23477.91
495.49	23241.52
495.67	23473.23
495.85	23616.01
496.02	23772.82
496.20	24020.92
496.38	24212.84
496.55	23946.02
496.73	24659.88
496.91	24360.30
497.09	24884.58
497.26	24723.08
497.44	24549.88
497.62	24629.46
497.79	24865.85
497.97	24900.96
498.14	25195.87
498.32	25198.21
498.50	25678.02
498.67	25467.37
498.85	25638.23
499.03	25783.34
499.20	25795.04
499.38	26057.18
499.56	26307.62
499.73	26148.46
499.91	26115.70
500.08	26415.29
500.26	26052.50
500.44	26375.50
500.61	26462.10
500.79	26848.29
500.97	26391.88
501.14	26675.09
501.32	26831.90
501.49	27115.11
501.67	26988.72
501.84	27175.96
502.02	27133.83
502.20	27316.39
502.37	27564.49
502.55	27702.58
502.72	27950.68
502.90	27817.27
503.07	27264.90
503.25	27571.51
503.43	27936.63
503.60	27875.78
503.78	28149.62
503.95	28009.19
504.13	27843.01
504.30	28091.11
504.48	28552.20
504.65	28517.09
504.83	28807.31
505.01	29008.60
505.18	28727.74
505.36	29401.81
505.53	28957.11
505.71	29504.79
505.88	29165.42
506.06	29165.42
506.23	29132.65
506.41	29369.04
506.58	29521.18
506.76	29689.70
506.93	29701.40
507.11	29495.43
507.28	29949.50
507.46	29322.23
507.63	29818.42
507.81	30286.53
507.98	29989.28
508.16	30089.93
508.33	30415.26
508.50	30349.73
508.68	30569.74
508.85	30838.90
509.03	30686.76
509.20	30834.22
509.38	31248.49
509.55	30918.48
509.73	31056.57
509.90	31117.42
510.08	30768.68
510.25	31569.15
510.42	31257.85
510.60	31484.89
510.77	31278.92
510.95	31634.68
511.12	31585.53
511.30	31608.93
511.47	32339.18
511.64	32201.09
511.82	31999.80
511.99	31765.75
512.17	32149.60
512.34	32315.78
512.51	32404.72
512.69	32187.05
512.86	32566.21
513.04	32842.40
513.21	32357.91
513.38	32369.61
513.56	32465.57
513.73	32587.28
513.90	32664.52
514.08	32718.35
514.25	32828.35
514.43	32910.27
514.60	33104.54
514.77	32994.53
514.95	33186.46
515.12	33244.97
515.29	33710.74
515.47	33617.11
515.64	34192.89
515.81	33584.35
515.99	33596.05
516.16	33600.73
516.33	33191.14
516.51	33479.02
516.68	33514.13
516.85	32975.81
517.03	33563.28
517.20	33708.40
517.37	33883.94
517.54	33872.23
517.72	34082.88
517.89	33825.42
518.06	33837.12
518.24	33940.11
518.41	33907.34
518.58	34068.84
518.75	34225.65
518.93	34483.11
519.10	34824.83
519.27	34314.59
519.45	34712.49
519.62	35168.89
519.79	35388.90
519.96	35360.81
520.14	35138.46
520.31	35232.08
520.48	35536.35
520.65	35475.50
520.83	35508.27
521.00	35363.15
521.17	35655.72
521.34	35690.83
521.52	35943.61
521.69	35910.84
521.86	36222.13
522.03	36311.07
522.20	35791.47
522.38	35819.56
522.55	36385.97
522.72	36151.91
522.89	35943.61
523.07	36577.89
523.24	36268.94
523.41	36545.12
523.58	36730.03
523.75	37184.09
523.92	37071.75
524.10	36547.47
524.27	37090.47
524.44	36856.42
524.61	37483.68
524.78	37298.78
524.96	37731.78
525.13	37661.56
525.30	37336.23
525.47	37813.70
525.64	37275.37
525.81	37312.82
525.98	37139.62
526.16	37666.24
526.33	37490.70
526.50	37624.11
526.67	37390.06
526.84	37612.41
527.01	37535.17
527.18	37673.26
527.36	37841.78
527.53	38014.98
527.70	38281.80
527.87	38043.07
528.04	38075.84
528.21	38272.44
528.38	37893.27
528.55	38483.09
528.72	38670.33
528.89	38806.08
529.07	38717.14
529.24	38307.55
529.41	38808.42
529.58	38354.36
529.75	38785.02
529.92	39112.69
530.09	38944.17
530.26	38782.68
530.43	39180.57
530.60	39000.35
530.77	39096.31
530.94	39480.16
531.11	38948.85
531.28	39313.98
531.46	39086.95
531.63	39098.65
531.80	39416.96
531.97	38944.17
532.14	39442.71
532.31	39299.94
532.48	39512.92
532.65	39894.43
532.82	39786.77
532.99	39924.86
533.16	38763.95
533.33	39573.78
533.50	39955.29
533.67	39651.02
533.84	39786.77
534.01	40100.40
534.18	39536.33
534.35	40275.94
534.52	40034.86
534.69	40325.09
534.86	40334.45
535.03	39887.41
535.20	40650.42
535.37	40694.89
535.54	40608.29
535.71	40123.80
535.88	40287.64
536.05	40399.99
536.22	40484.25
536.38	40854.05
536.55	40334.45
536.72	40598.93
536.89	40346.15
537.06	40746.39
537.23	40615.32
537.40	41151.30
537.57	40896.18
537.74	41137.26
537.91	41273.01
538.08	41134.92
538.25	40910.22
538.42	41439.18
538.59	41497.70
538.75	40898.52
538.92	41090.44
539.09	41537.49
539.26	41406.42
539.43	41677.92
539.60	41265.99
539.77	41118.53
539.94	41219.17
540.11	41294.07
540.28	41350.24
540.44	41284.71
540.61	41315.14
540.78	41357.27
540.95	41457.91
541.12	41291.73
541.29	41457.91
541.46	41698.98
541.62	41848.78
541.79	42256.03
541.96	41483.66
542.13	41518.76
542.30	41631.11
542.47	41771.54
542.63	41911.97
542.80	42071.13
542.97	42770.95
543.14	42827.12
543.31	42515.83
543.48	42527.53
543.64	42953.51
543.81	42689.03
543.98	42710.10
544.15	42602.43
544.32	42700.73
544.48	42742.86
544.65	42796.70
544.82	42777.97
544.99	42293.48
545.16	43297.57
545.32	42726.48
545.49	42997.98
545.66	43131.39
545.83	43143.09
546.00	43262.46
546.16	43168.84
546.33	43012.02
546.50	42710.10
546.67	42983.94
546.83	42988.62
547.00	43091.60
547.17	43295.23
547.34	43246.08
547.50	43384.17
547.67	43772.70
547.84	42920.74
548.00	43583.12
548.17	43487.15
548.34	43339.70
548.51	43606.52
548.67	43730.57
548.84	43779.72
549.01	43702.48
549.18	43203.95
549.34	43746.95
549.51	43552.69
549.68	44184.63
549.84	43538.65
550.01	44229.10
550.18	43948.24
550.34	44240.81
550.51	43695.46
550.68	43620.56
550.84	43821.85
551.01	44212.72
551.18	44161.23
551.34	44044.20
551.51	44051.22
551.68	44444.43
551.84	43847.60
552.01	43688.44
552.18	44304.00
552.34	43695.46
552.51	44252.51
552.68	44004.41
552.84	44091.01
553.01	44500.61
553.18	44493.58
553.34	44149.53
553.51	44289.96
553.67	44451.45
553.84	44854.03
554.01	44788.49
554.17	44528.69
554.34	44470.18
554.51	44739.34
554.67	44921.90
554.84	44540.39
555.00	44975.73
555.17	44664.44
555.33	44839.98
555.50	44577.84
555.67	44837.64
555.83	44278.25
556.00	44329.75
556.16	45127.87
556.33	45539.80
556.50	44968.71
556.66	45272.98
556.83	44659.76
556.99	44809.56
557.16	45223.83
557.32	45034.25
557.49	44889.13
557.65	44528.69
557.82	45457.88
557.98	44849.35
558.15	44849.35
558.32	44844.66
558.48	44828.28
558.65	45387.67
558.81	45361.92
558.98	45017.86
559.14	45015.52
559.31	45287.03
559.47	45059.99
559.64	45654.49
559.80	45123.19
559.97	45277.66
560.13	45050.63
560.30	45043.61
560.46	45567.89
560.63	45635.77
560.79	45792.58
560.96	45638.11
561.12	45574.91
561.29	45691.94
561.45	45713.00
561.61	45249.58
561.78	45364.26
561.94	45167.66
562.11	44982.76
562.27	45251.92
562.44	45177.02
562.60	45811.31
562.77	45818.33
562.93	45940.04
563.10	45907.27
563.26	45464.91
563.42	45832.37
563.59	45177.02
563.75	45691.94
563.92	46094.51
564.08	45420.44
564.24	45345.54
564.41	46106.21
564.57	45872.16
564.74	45574.91
564.90	45808.96
565.07	45975.14
565.23	45525.76
565.39	45647.47
565.56	45972.80
565.72	45741.09
565.88	45464.91
566.05	45448.52
566.21	45776.20
566.38	45794.92
566.54	45722.37
566.70	46110.89
566.87	46017.27
567.03	45928.33
567.19	45968.12
567.36	45790.24
567.52	45764.49
567.68	46092.17
567.85	45600.66
568.01	45638.11
568.17	45432.14
568.34	45851.09
568.50	45738.75
568.66	45893.22
568.83	46005.57
568.99	45811.31
569.15	45972.80
569.32	46031.32
569.48	45614.70
569.64	46244.30
569.81	45975.14
569.97	45970.46
570.13	45808.96
570.30	45780.88
570.46	45610.02
570.62	45654.49
570.78	45359.58
570.95	45954.08
571.11	45467.25
571.27	45298.73
571.43	45729.39
571.60	45977.48
571.76	46251.33
571.92	45476.61
572.09	45839.39
572.25	46101.53
572.41	45951.74
572.57	46199.83
572.74	46382.40
572.90	46396.44
573.06	45684.92
573.22	46017.27
573.38	46094.51
573.55	45893.22
573.71	46230.26
573.87	46288.77
574.03	46146.00
574.20	45998.55
574.36	46251.33
574.52	46588.36
574.68	46040.68
574.84	46085.15
575.01	46061.74
575.17	45947.06
575.33	45790.24
575.49	46298.14
575.65	46274.73
575.82	46174.09
575.98	46302.82
576.14	46635.17
576.30	46316.86
576.46	46241.96
576.62	46174.09
576.79	46131.96
576.95	45937.69
577.11	46155.36
577.27	46256.01
577.43	46248.99
577.59	46064.08
577.75	45928.33
577.92	46000.89
578.08	45495.33
578.24	45502.35
578.40	45888.54
578.56	45839.39
578.72	46045.36
578.88	46766.24
579.04	46096.85
579.21	46267.71
579.37	46281.75
579.53	45879.18
579.69	45928.33
579.85	46398.78
580.01	46258.35
580.17	46160.05
580.33	46387.08
580.49	46518.15
580.65	46653.90
580.82	46473.68
580.98	46134.30
581.14	46005.57
581.30	47068.17
581.46	46476.02
581.62	46553.26
581.78	46499.42
581.94	46862.21
582.10	45876.84
582.26	46153.02
582.42	46131.96
582.58	46300.48
582.74	46225.58
582.90	46284.09
583.06	46335.59
583.22	46136.64
583.38	46705.39
583.54	46279.41
583.70	46375.37
583.86	46773.27
584.02	46061.74
584.18	46593.04
584.34	46401.12
584.50	46429.21
584.66	46471.34
584.82	46436.23
584.98	46504.10
585.14	46113.23
585.30	46068.76
585.46	46131.96
585.62	45851.09
585.78	46377.72
585.94	46045.36
586.10	46618.79
586.26	46550.91
586.42	46777.95
586.58	46555.60
586.74	46553.26
586.90	46501.76
587.06	46129.62
587.22	46829.44
587.38	46110.89
587.54	46593.04
587.70	46494.74
587.86	46260.69
588.02	46543.89
588.18	46541.55
588.34	46300.48
588.49	45848.75
588.65	46216.22
588.81	45904.93
588.97	45752.79
589.13	46153.02
589.29	45977.48
589.45	46377.72
589.61	46410.48
589.77	46445.59
589.93	46293.46
590.08	46579.00
590.24	46707.73
590.40	46562.62
590.56	46705.39
590.72	46738.16
590.88	46071.10
591.04	46389.42
591.20	46635.17
591.35	46567.30
591.51	46995.62
591.67	46564.96
591.83	46461.97
591.99	46574.32
592.15	46277.07
592.31	46405.80
592.46	46057.06
592.62	46555.60
592.78	46600.07
592.94	46536.87
593.10	46461.97
593.26	46417.50
593.41	46260.69
593.57	46443.25
593.73	46356.65
593.89	46869.23
594.05	46403.46
594.20	46447.93
594.36	46443.25
594.52	46216.22
594.68	46667.94
594.84	46747.52
594.99	47037.75
595.15	47105.62
595.31	46855.18
595.47	46602.41
595.62	46595.38
595.78	46476.02
595.94	46806.03
596.10	46845.82
596.25	46836.46
596.41	46635.17
596.57	46567.30
596.73	46555.60
596.88	46609.43
597.04	46314.52
597.20	46576.66
597.36	46815.40
597.51	46567.30
597.67	46738.16
597.83	46663.26
597.99	46894.97
598.14	46756.88
598.30	46609.43
598.46	47063.49
598.61	46677.30
598.77	46630.49
598.93	46696.03
599.09	46707.73
599.24	47192.22
599.40	46534.53
599.56	46803.69
599.71	46656.24
599.87	46735.82
600.03	46801.35
600.18	47051.79
600.34	46724.11
600.50	46714.75
600.65	46560.28
600.81	47100.94
600.97	46897.31
601.12	47063.49
601.28	46871.57
601.44	46777.95
601.59	46380.06
601.75	46504.10
601.91	46419.84
602.06	46258.35
602.22	46700.71
602.37	46953.49
602.53	46965.19
602.69	46834.12
602.84	46284.09
603.00	46932.42
603.16	46761.56
603.31	46361.33
603.47	46583.68
603.62	46438.57
603.78	46401.12
603.94	46483.04
604.09	46653.90
604.25	46726.46
604.40	46295.80
604.56	46396.44
604.71	46791.99
604.87	46658.58
605.03	46878.59
605.18	46555.60
605.34	46403.46
605.49	46387.08
605.65	46356.65
605.80	46490.06
605.96	46838.80
606.12	46611.77
606.27	46656.24
606.43	46403.46
606.58	46188.13
606.74	46265.37
606.89	46621.13
607.05	46319.20
607.20	46237.28
607.36	46520.49
607.51	46499.42
607.67	46307.50
607.82	46426.87
607.98	46148.34
608.13	46436.23
608.29	46148.34
608.44	45879.18
608.60	46075.79
608.75	46387.08
608.91	45982.16
609.06	45893.22
609.22	46452.61
609.37	45811.31
609.53	46288.77
609.68	46050.04
609.84	46206.86
609.99	45968.12
610.15	46096.85
610.30	45701.30
610.46	45820.67
610.61	45797.26
610.76	45986.85
610.92	46192.81
611.07	45930.67
611.23	45628.74
611.38	46052.38
611.54	45670.87
611.69	45556.19
611.84	45607.68
612.00	45673.21
612.15	45478.95
612.31	45961.10
612.46	45797.26
612.62	46005.57
612.77	45546.82
612.92	45792.58
613.08	45581.93
613.23	45876.84
613.39	45460.23
613.54	45638.11
613.69	45509.38
613.85	44919.56
614.00	45652.15
614.15	46043.02
614.31	45542.14
614.46	45584.27
614.62	45497.67
614.77	45808.96
614.92	45869.82
615.08	45607.68
615.23	45563.21
615.38	45226.17
615.54	45036.59
615.69	45457.88
615.84	45420.44
616.00	45581.93
616.15	45441.50
616.30	45296.39
616.46	44959.35
616.61	44718.28
616.76	45289.37
616.92	44832.96
617.07	44793.17
617.22	44772.11
617.37	45350.22
617.53	44847.00
617.68	44797.85
617.83	45162.98
617.99	45109.14
618.14	45296.39
618.29	45071.70
618.45	44964.03
618.60	45029.57
618.75	45081.06
618.90	44854.03
619.06	44753.38
619.21	44704.23
619.36	44931.26
619.51	45158.30
619.67	44825.94
619.82	44942.97
619.97	44996.80
620.12	44821.26
620.28	44161.23
620.43	44634.02
620.58	44383.58
620.73	44406.98
620.89	44465.50
621.04	44509.97
621.19	44430.39
621.34	44526.35
621.49	44516.99
621.65	44435.07
621.80	44865.73
621.95	44212.72
622.10	44172.93
622.25	44261.87
622.41	44144.84
622.56	44095.69
622.71	44081.65
622.86	43786.74
623.01	44575.50
623.16	44554.44
623.32	43962.28
623.47	44559.12
623.62	44460.82
623.77	43796.10
623.92	44364.85
624.07	43416.94
624.23	43751.63
624.38	43906.11
624.53	43489.49
624.68	43995.05
624.83	43817.17
624.98	43901.43
625.13	43814.83
625.29	43753.97
625.44	43533.96
625.59	43435.66
625.74	43555.03
625.89	43262.46
626.04	43379.49
626.19	43381.83
626.34	43601.84
626.49	43632.27
626.65	43143.09
626.80	43796.10
626.95	43590.14
627.10	43351.40
627.25	42930.11
627.40	42763.93
627.55	42583.71
627.70	42520.51
627.85	42714.78
628.00	42960.53
628.15	43372.47
628.30	42932.45
628.45	43168.84
628.60	42836.48
628.76	42988.62
628.91	43758.66
629.06	42941.81
629.21	43187.56
629.36	42923.08
629.51	42527.53
629.66	42817.76
629.81	42375.40
629.96	42817.76
630.11	42848.19
630.26	43019.05
630.41	43215.65
630.56	43044.79
630.71	42965.21
630.86	42756.91
631.01	42504.13
631.16	43051.81
631.31	42227.95
631.46	42183.48
631.61	42967.55
631.76	42677.33
631.91	42497.11
632.06	42593.07
632.21	42532.22
632.36	42752.23
632.51	42356.67
632.66	42241.99
632.81	41881.55
632.96	42703.07
633.10	42335.61
633.25	42464.34
633.40	42487.74
633.55	42497.11
633.70	41869.84
633.85	42232.63
634.00	41848.78
634.15	42181.13
634.30	42007.94
634.45	42192.84
634.60	41961.12
634.75	42066.45
634.90	42007.94
635.05	41837.08
635.19	41855.80
635.34	42197.52
635.49	42010.28
635.64	41951.76
635.79	41876.86
635.94	41766.86
636.09	41998.57
636.24	42007.94
636.39	41546.85
636.53	41453.23
636.68	41057.68
636.83	41628.77
636.98	41904.95
637.13	41448.55
637.28	41366.63
637.43	41984.53
637.57	41965.81
637.72	41890.91
637.87	41642.81
638.02	41614.72
638.17	41478.97
638.32	41354.93
638.46	41476.63
638.61	41116.19
638.76	41273.01
638.91	41778.56
639.06	41167.68
639.20	41301.09
639.35	41649.83
639.50	41221.52
639.65	41439.18
639.80	41631.11
639.94	41289.39
640.09	41015.55
640.24	41174.70
640.39	40739.36
640.54	40893.84
640.68	41127.89
640.83	41109.17
640.98	40804.90
641.13	40800.22
641.27	41167.68
641.42	41373.65
641.57	40917.25
641.72	40804.90
641.86	40526.38
642.01	40552.12
642.16	40404.67
642.31	40416.37
642.45	40844.69
642.60	39875.71
642.75	40772.13
642.90	40395.31
643.04	40315.73
643.19	41024.91
643.34	40547.44
643.48	40662.13
643.63	40353.18
643.78	40299.34
643.93	40313.39
644.07	40027.84
644.22	40254.87
644.37	39880.39
644.51	40294.66
644.66	40084.01
644.81	40121.46
644.95	40236.15
645.10	40266.58
645.25	40879.80
645.39	40404.67
645.54	40158.91
645.69	39880.39
645.83	39938.90
645.98	39821.87
646.13	40304.02
646.27	39854.64
646.42	40257.21
646.57	40261.90
646.71	39955.29
646.86	40025.50
647.00	39400.58
647.15	40016.14
647.30	39555.05
647.44	39840.60
647.59	39419.30
647.74	39541.01
647.88	39243.76
648.03	39772.72
648.17	39569.10
648.32	39084.61
648.47	39545.69
648.61	39199.29
648.76	39784.43
648.90	39459.09
649.05	39496.54
649.20	39805.49
649.34	39669.74
649.49	39498.88
649.63	39133.76
649.78	39337.38
649.92	39295.25
650.07	39875.71
650.21	39461.43
650.36	39222.70
650.51	39122.05
650.65	39203.97
650.80	39634.63
650.94	39222.70
651.09	39079.92
651.23	39023.75
651.38	38621.18
651.52	39393.56
651.67	38593.09
651.81	39002.69
651.96	39302.28
652.10	38934.81
652.25	38618.84
652.39	39075.24
652.54	38965.24
652.68	38754.59
652.83	38829.49
652.97	38958.22
653.12	39302.28
653.26	39012.05
653.41	38724.16
653.55	38677.35
653.70	38749.91
653.84	38820.13
653.99	38733.53
654.13	38476.07
654.27	38447.98
654.42	38199.88
654.56	38305.21
654.71	38487.77
654.85	38256.06
655.00	38506.49
655.14	38256.06
655.29	38057.11
655.43	38223.29
655.57	37661.56
655.72	38155.41
655.86	38050.09
656.01	38078.18
656.15	37827.74
656.30	37965.83
656.44	37689.65
656.58	37937.74
656.73	37766.88
656.87	37867.53
657.01	37701.35
657.16	37916.68
657.30	37675.60
657.45	37677.94
657.59	37834.76
657.73	37535.17
657.88	37226.22
658.02	37497.72
658.16	37837.10
658.31	37862.85
658.45	37640.50
658.60	37649.86
658.74	37455.59
658.88	37851.14
659.03	37900.29
659.17	37418.14
659.31	36987.49
659.46	37085.79
659.60	37371.33
659.74	37289.42
659.89	36744.07
660.03	36816.63
660.17	37448.57
660.32	37221.54
660.46	37179.41
660.60	36849.39
660.74	37373.67
660.89	37233.24
661.03	36818.97
661.17	36617.68
661.32	36718.32
661.46	36659.81
661.60	36739.39
661.74	37024.93
661.89	36519.38
662.03	36868.12
662.17	36456.18
662.31	36105.10
662.46	36687.90
662.60	36697.26
662.74	36889.18
662.88	36306.39
663.03	36392.99
663.17	36395.33
663.31	35662.74
663.45	36137.87
663.60	35800.83
663.74	36133.19
663.88	35686.15
664.02	35812.54
664.17	35737.64
664.31	35388.90
664.45	35637.00
664.59	35730.62
664.73	35641.68
664.88	35854.67
665.02	35119.74
665.16	35747.00
665.30	35337.41
665.44	35517.63
665.59	35393.58
665.73	34934.84
665.87	34983.99
666.01	35126.76
666.15	35353.79
666.29	35021.44
666.44	35622.95
666.58	35065.91
666.72	34998.03
666.86	35115.06
667.00	35049.52
667.14	35103.35
667.28	34719.51
667.43	34581.42
667.57	34609.50
667.71	34857.60
667.85	35086.97
667.99	34515.88
668.13	34534.60
668.27	34560.35
668.41	34562.69
668.56	34457.37
668.70	34438.64
668.84	34033.73
668.98	34117.99
669.12	33783.29
669.26	34396.51
669.40	33895.64
669.54	33673.29
669.68	33708.40
669.82	33729.46
669.96	34103.95
670.10	33947.13
670.25	33879.25
670.39	33687.33
670.53	33752.87
670.67	33364.34
670.81	33582.01
670.95	33483.70
671.09	33251.99
671.23	33256.67
671.37	33736.48
671.51	33001.55
671.65	32917.29
671.79	32921.98
671.93	32503.02
672.07	33275.40
672.21	32842.40
672.35	32641.11
672.49	32889.21
672.63	33015.60
672.77	32624.73
672.91	32460.89
673.05	32030.23
673.19	32149.60
673.33	32006.83
673.47	32154.28
673.61	31990.44
673.75	31997.46
673.89	31611.28
674.03	31697.88
674.17	31545.74
674.31	32231.52
674.45	31580.85
674.59	31789.16
674.73	31522.34
674.87	31730.64
675.01	31800.86
675.15	31688.51
675.29	31679.15
675.43	31220.41
675.56	31239.13
675.70	31232.11
675.84	30995.71
675.98	29771.61
676.12	30995.71
676.26	30892.73
676.40	30796.77
676.54	30698.47
676.68	30387.18
676.82	29982.26
676.96	30363.77
677.10	30176.53
677.23	30567.40
677.37	30085.25
677.51	30185.89
677.65	29862.90
677.79	29542.24
677.93	29685.01
678.07	29600.76
678.21	29200.52
678.34	29635.86
678.48	29432.24
678.62	29432.24
678.76	29078.82
678.90	28629.43
679.04	29380.74
679.18	29277.76
679.31	28615.39
679.45	28467.94
679.59	28545.17
679.73	28107.49
679.87	28301.76
680.00	28400.06
680.14	28217.50
680.28	27840.67
680.42	28154.30
680.56	27990.47
680.70	27892.16
680.83	28278.35
680.97	28023.23
681.11	28212.82
681.25	27339.80
681.39	27571.51
681.52	27718.96
681.66	27885.14
681.80	27487.25
681.94	27447.46
682.07	27213.41
682.21	27138.51
682.35	26625.93
682.49	27082.34
682.62	26855.31
682.76	26668.06
682.90	26494.86
683.04	26270.17
683.17	26731.26
683.31	26375.50
683.45	26672.74
683.59	26155.49
683.72	25986.97
683.86	25745.89
684.00	25862.92
684.13	25921.43
684.27	25825.47
684.41	25656.95
684.55	25362.04
684.68	25443.96
684.82	25200.55
684.96	25483.75
685.09	25198.21
685.23	25109.27
685.37	24830.74
685.50	25184.16
685.64	25249.70
685.78	24865.85
685.91	24690.31
686.05	24397.74
686.19	24493.71
686.32	24678.61
686.46	24053.69
686.60	23948.36
686.73	23871.12
686.87	23653.45
687.01	23630.05
687.14	23353.87
687.28	23522.38
687.42	23892.19
687.55	23470.89
687.69	23302.37
687.82	23393.65
687.96	23559.83
688.10	23442.81
688.23	23332.80
688.37	22852.99
688.50	23110.45
688.64	22794.48
688.78	22733.62
688.91	22675.11
689.05	22841.29
689.18	22534.68
689.32	22328.71
689.46	22122.74
689.59	22221.05
689.73	22532.34
689.86	22036.14
690.00	22518.29
690.13	22321.69
690.27	21825.50
690.41	22169.55
690.54	21528.25
690.68	21509.52
690.81	21598.46
690.95	21200.57
691.08	21010.99
691.22	21486.12
691.35	21341.00
691.49	21605.49
691.62	21628.89
691.76	21219.30
691.89	21362.07
692.03	20727.78
692.16	20711.40
692.30	20673.95
692.43	20622.46
692.57	20470.33
692.70	20409.47
692.84	20552.24
692.97	20095.84
693.11	20065.41
693.24	20025.62
693.38	20156.69
693.51	20180.10
693.65	20126.27
693.78	20112.22
693.92	20353.30
694.05	19733.06
694.19	19702.63
694.32	19899.23
694.45	19552.84
694.59	19475.60
694.72	19269.63
694.86	19302.40
694.99	19159.63
695.13	18974.72
695.26	19143.24
695.39	18759.39
695.53	19150.26
695.66	18728.97
695.80	18558.11
695.93	18817.91
696.07	18462.15
696.20	18398.95
696.33	18485.55
696.47	18525.34
696.60	18391.93
696.73	18251.50
696.87	18300.65
697.00	17811.48
697.14	17860.63
697.27	18054.89
697.40	17879.35
697.54	18146.17
697.67	17532.95
697.80	17755.30
697.94	17532.95
698.07	17399.54
698.21	17235.70
698.34	17156.13
698.47	17319.96
698.61	17029.74
698.74	16798.02
698.87	16933.78
699.01	16952.50
699.14	16802.71
699.27	17099.95
699.40	16800.37
699.54	16645.89
699.67	16255.02
699.80	16374.39
699.94	16311.19
700.07	16383.75
700.20	16025.65
700.34	16238.64
700.47	16343.96
700.60	16170.76
700.73	16343.96
700.87	16175.44
701.00	15667.55
701.13	15763.51
701.26	15873.51
701.40	15566.90
701.53	15517.75
701.66	15456.90
701.79	15555.20
701.93	15295.40
702.06	15447.54
702.19	15241.57
702.32	15077.73
702.46	15138.58
702.59	15272.00
702.72	14941.98
702.85	14689.20
702.99	14991.13
703.12	15164.33
703.25	14839.00
703.38	14721.97
703.51	14345.14
703.65	14525.36
703.78	14654.09
703.91	14640.05
704.04	14679.84
704.17	14331.10
704.31	14214.07
704.44	14281.95
704.57	13870.01
704.70	14193.01
704.83	14075.98
704.96	14015.13
705.10	13907.46
705.23	14258.54
>>>>>End Processed Spectral Data<<<<<
