SpectraSuite Data File
++++++++++++++++++++++++++++++++++++
Date: Fri Oct 25 10:47:22 EDT 2013
User: price-jones
Dark Spectrum Present: No
Reference Spectrum Present: No
Number of Sampled Component Spectra: 1
Spectrometers: USB2+H05261
Integration Time (usec): 100000 (USB2+H05261)
Spectra Averaged: 1 (USB2+H05261)
Boxcar Smoothing: 0 (USB2+H05261)
Correct for Electrical Dark: No (USB2+H05261)
Strobe/Lamp Enabled: No (USB2+H05261)
Correct for Detector Non-linearity: No (USB2+H05261)
Correct for Stray Light: No (USB2+H05261)
Number of Pixels in Processed Spectrum: 2048
>>>>>Begin Processed Spectral Data<<<<<
365.73	133.41
365.92	133.41
366.12	133.41
366.32	119.37
366.52	35.11
366.72	86.60
366.91	53.83
367.11	35.11
367.31	23.41
367.51	2.34
367.70	7.02
367.90	14.04
368.10	88.94
368.30	51.49
368.49	35.11
368.69	67.88
368.89	86.60
369.09	60.85
369.28	107.66
369.48	16.38
369.68	93.62
369.87	112.35
370.07	147.45
370.27	229.37
370.47	182.56
370.66	430.66
370.86	428.32
371.06	493.85
371.25	421.30
371.45	421.30
371.65	533.64
371.84	402.57
372.04	451.72
372.24	500.87
372.44	500.87
372.63	517.26
372.83	535.98
373.03	421.30
373.22	477.47
373.42	486.83
373.62	589.82
373.81	559.39
374.01	486.83
374.21	550.03
374.40	505.56
374.60	575.77
374.79	519.60
374.99	578.11
375.19	559.39
375.38	608.54
375.58	486.83
375.78	573.43
375.97	599.18
376.17	594.50
376.37	622.58
376.56	540.66
376.76	641.31
376.95	528.96
377.15	582.79
377.35	631.94
377.54	571.09
377.74	592.16
377.93	648.33
378.13	582.79
378.33	627.26
378.52	641.31
378.72	643.65
378.91	613.22
379.11	552.37
379.31	603.86
379.50	566.41
379.70	596.84
379.89	662.37
380.09	599.18
380.28	739.61
380.48	599.18
380.68	695.14
380.87	641.31
381.07	641.31
381.26	629.60
381.46	622.58
381.65	725.57
381.85	627.26
382.04	755.99
382.24	695.14
382.43	662.37
382.63	692.80
382.83	608.54
383.02	814.51
383.22	690.46
383.41	655.35
383.61	723.23
383.80	699.82
384.00	676.41
384.19	732.59
384.39	739.61
384.58	723.23
384.78	723.23
384.97	755.99
385.17	777.06
385.36	711.52
385.56	760.67
385.75	788.76
385.95	896.43
386.14	770.04
386.34	816.85
386.53	753.65
386.72	727.91
386.92	821.53
387.11	795.78
387.31	814.51
387.50	800.46
387.70	917.49
387.89	795.78
388.09	767.70
388.28	856.64
388.48	814.51
388.67	877.70
388.86	950.26
389.06	814.51
389.25	901.11
389.45	798.12
389.64	896.43
389.84	868.34
390.03	851.96
390.22	1001.75
390.42	901.11
390.61	842.59
390.81	903.45
391.00	924.51
391.19	978.34
391.39	966.64
391.58	990.05
391.78	973.66
391.97	990.05
392.16	936.21
392.36	873.02
392.55	1006.43
392.75	926.85
392.94	887.06
393.13	971.32
393.33	1004.09
393.52	1018.13
393.71	1006.43
393.91	1081.33
394.10	1107.07
394.29	1057.92
394.49	1167.93
394.68	1074.31
394.88	1128.14
395.07	1179.63
395.26	1116.44
395.46	1050.90
395.65	1083.67
395.84	1114.10
396.04	1125.80
396.23	1097.71
396.42	983.02
396.62	1132.82
396.81	1116.44
397.00	1170.27
397.19	1193.67
397.39	1226.44
397.58	1203.04
397.77	1212.40
397.97	1287.29
398.16	1235.80
398.35	1268.57
398.55	1277.93
398.74	1362.19
398.93	1334.11
399.12	1268.57
399.32	1315.38
399.51	1401.98
399.70	1369.21
399.90	1444.11
400.09	1366.87
400.28	1439.43
400.47	1458.15
400.67	1467.52
400.86	1437.09
401.05	1537.73
401.24	1530.71
401.44	1593.90
401.63	1516.67
401.82	1565.82
402.01	1547.09
402.21	1624.33
402.40	1570.50
402.59	1493.26
402.78	1596.25
402.97	1558.80
403.17	1664.12
403.36	1650.08
403.55	1638.38
403.74	1612.63
403.93	1600.93
404.13	1661.78
404.32	1666.46
404.51	1717.95
404.70	1682.85
404.89	1720.29
405.09	1715.61
405.28	1661.78
405.47	1715.61
405.66	1727.32
405.85	1776.47
406.05	1675.82
406.24	1804.55
406.43	1781.15
406.62	1736.68
406.81	1881.79
407.00	1769.44
407.20	1755.40
407.39	1825.62
407.58	1856.04
407.77	2012.86
407.96	1952.01
408.15	1961.37
408.34	1895.83
408.54	2008.18
408.73	1991.80
408.92	2017.54
409.11	2174.36
409.30	1977.75
409.49	2083.08
409.68	2052.65
409.87	2069.03
410.07	2050.31
410.26	2101.80
410.45	2073.71
410.64	2125.21
410.83	2190.74
411.02	2251.60
411.21	2237.55
411.40	2183.72
411.59	2157.97
411.78	2326.49
411.98	2335.85
412.17	2221.17
412.36	2415.43
412.55	2359.26
412.74	2504.37
412.93	2499.69
413.12	2394.37
413.31	2605.02
413.50	2464.58
413.69	2511.39
413.88	2642.46
414.07	2455.22
414.26	2630.76
414.45	2651.83
414.64	2778.22
414.83	2726.72
415.02	2729.06
415.22	2691.62
415.41	2684.59
415.60	2799.28
415.79	2778.22
415.98	2876.52
416.17	2984.18
416.36	2888.22
416.55	2935.03
416.74	2986.52
416.93	3005.25
417.12	2878.86
417.31	2981.84
417.50	2836.73
417.69	3199.51
417.88	3117.59
418.07	3040.36
418.26	3040.36
418.45	3040.36
418.64	3068.44
418.83	3094.19
419.02	3213.56
419.21	3201.85
419.39	3162.06
419.58	3201.85
419.77	3302.50
419.96	3297.81
420.15	3328.24
420.34	3426.54
420.53	3300.16
420.72	3276.75
420.91	3386.76
421.10	3552.93
421.29	3459.31
421.48	3300.16
421.67	3419.52
421.86	3454.63
422.05	3550.59
422.24	3332.92
422.43	3405.48
422.61	3445.27
422.80	3524.85
422.99	3499.10
423.18	3461.65
423.37	3562.30
423.56	3520.17
423.75	3513.14
423.94	3515.48
424.13	3349.31
424.32	3342.28
424.50	3768.26
424.69	3747.20
424.88	3531.87
425.07	3604.42
425.26	3456.97
425.45	3602.08
425.64	3548.25
425.83	3559.95
426.01	3515.48
426.20	3545.91
426.39	3616.13
426.58	3588.04
426.77	3555.27
426.96	3728.47
427.15	3581.02
427.33	3599.74
427.52	3613.79
427.71	3756.56
427.90	3702.73
428.09	3740.18
428.28	3950.82
428.46	3819.75
428.65	3810.39
428.84	3885.29
429.03	3786.99
429.22	3700.39
429.40	3831.46
429.59	3742.52
429.78	3595.06
429.97	3632.51
430.16	3765.92
430.34	3899.33
430.53	3927.42
430.72	4021.04
430.91	3934.44
431.10	3955.51
431.28	4152.11
431.47	4131.05
431.66	4308.93
431.85	3997.64
432.03	4203.60
432.22	4252.75
432.41	4219.99
432.60	4243.39
432.79	4182.54
432.97	4315.95
433.16	4259.78
433.35	4315.95
433.54	4208.28
433.72	4416.59
433.91	4266.80
434.10	4325.31
434.28	4231.69
434.47	4381.48
434.66	4475.10
434.85	4456.38
435.03	4414.25
435.22	4479.79
435.41	4613.20
435.59	4685.75
435.78	4627.24
435.97	4678.73
436.16	4395.53
436.34	4601.49
436.53	4622.56
436.72	4779.37
436.90	4617.88
437.09	4627.24
437.28	4482.13
437.46	4585.11
437.65	4678.73
437.84	4730.22
438.02	4753.63
438.21	4620.22
438.40	4636.60
438.58	4821.50
438.77	4891.72
438.96	4966.62
439.14	5128.11
439.33	5006.41
439.52	4954.91
439.70	5055.56
439.89	5008.75
440.08	5111.73
440.26	5207.69
440.45	5163.22
440.63	5315.36
440.82	5500.26
441.01	5228.76
441.19	5509.62
441.38	5460.47
441.57	5535.37
441.75	5563.45
441.94	5495.58
442.12	5603.24
442.31	5776.44
442.50	5535.37
442.68	5556.43
442.87	5689.84
443.05	5600.90
443.24	5818.57
443.43	5886.45
443.61	5837.30
443.80	5781.12
443.98	5731.97
444.17	5736.65
444.35	5832.62
444.54	5795.17
444.73	5769.42
444.91	5767.08
445.10	5856.02
445.28	5841.98
445.47	5678.14
445.65	5865.38
445.84	5856.02
446.02	5802.19
446.21	5856.02
446.39	5937.94
446.58	5996.45
446.77	5860.70
446.95	5783.46
447.14	5968.37
447.32	5942.62
447.51	5914.53
447.69	5809.21
447.88	5970.71
448.06	6024.54
448.25	5942.62
448.43	6132.20
448.62	6022.20
448.80	5975.39
448.99	6289.02
449.17	6061.99
449.36	6001.13
449.54	6228.17
449.73	6406.05
449.91	6394.34
450.10	6462.22
450.28	6417.75
450.46	6530.09
450.65	6406.05
450.83	6502.01
451.02	6462.22
451.20	6520.73
451.39	6548.82
451.57	6476.26
451.76	6179.01
451.94	6555.84
452.13	6677.55
452.31	6558.18
452.49	6331.15
452.68	6473.92
452.86	6438.81
453.05	6569.88
453.23	6637.76
453.42	6593.29
453.60	6565.20
453.78	6710.32
453.97	6504.35
454.15	6787.55
454.34	6633.08
454.52	6815.64
454.70	6801.60
454.89	6675.21
455.07	6792.23
455.26	6829.68
455.44	6911.60
455.62	6979.48
455.81	6923.30
455.99	7023.95
456.17	7204.17
456.36	6970.12
456.54	7063.74
456.73	7288.43
456.91	7136.29
457.09	7178.42
457.28	7335.24
457.46	7272.04
457.64	7379.71
457.83	7318.86
458.01	7286.09
458.19	7581.00
458.38	7405.46
458.56	7447.58
458.74	7506.10
458.93	7269.70
459.11	7508.44
459.29	7496.74
459.48	7473.33
459.66	7454.61
459.84	7592.70
460.03	7688.66
460.21	7857.18
460.39	7571.63
460.57	7548.23
460.76	7817.39
460.94	7847.82
461.12	7934.42
461.31	7859.52
461.49	7735.47
461.67	7672.28
461.85	7920.37
462.04	7882.92
462.22	8386.14
462.40	7974.21
462.59	7990.59
462.77	7978.89
462.95	8189.53
463.13	8037.40
463.32	8205.92
463.50	8180.17
463.68	8226.98
463.86	8203.58
464.05	7880.58
464.23	8091.23
464.41	8353.37
464.59	8290.18
464.78	8390.82
464.96	8152.09
465.14	8234.00
465.32	8358.05
465.50	8411.89
465.69	8564.02
465.87	8512.53
466.05	8390.82
466.23	8449.33
466.41	8255.07
466.60	8585.08
466.78	8549.98
466.96	8449.33
467.14	8348.69
467.32	8507.85
467.51	8524.23
467.69	8489.12
467.87	8411.89
468.05	8734.88
468.23	8645.94
468.41	8482.10
468.60	8777.01
468.78	8716.16
468.96	8667.00
469.14	8732.54
469.32	8875.31
469.50	8683.39
469.69	8723.18
469.87	8720.84
470.05	8894.04
470.23	9050.85
470.41	9121.07
470.59	9062.55
470.77	8903.40
470.95	9104.68
471.14	9378.53
471.32	9137.45
471.50	9111.71
471.68	9390.23
471.86	9268.52
472.04	9184.26
472.22	9745.99
472.40	9397.25
472.58	9542.36
472.77	9631.30
472.95	9603.22
473.13	9893.44
473.31	9696.84
473.49	9661.73
473.67	9469.81
473.85	9689.82
474.03	10017.49
474.21	10092.39
474.39	10132.18
474.57	9919.19
474.75	10113.45
474.93	10148.56
475.12	10340.49
475.30	10345.17
475.48	10328.78
475.66	10380.28
475.84	10265.59
476.02	10424.75
476.20	10436.45
476.38	10782.85
476.56	10836.68
476.74	10637.73
476.92	10429.43
477.10	10768.80
477.28	11094.14
477.46	10822.64
477.64	11028.60
477.82	11154.99
478.00	11468.62
478.18	11360.96
478.36	11344.58
478.54	11363.30
478.72	11658.21
478.90	11606.72
479.08	11962.48
479.26	12039.72
479.44	12170.79
479.62	12329.94
479.80	12138.02
479.98	12343.99
480.16	12507.82
480.34	12531.23
480.52	12664.64
480.70	12549.95
480.88	12339.30
481.06	12943.16
481.24	12947.84
481.41	12929.12
481.59	13027.42
481.77	13153.81
481.95	13184.24
482.13	13364.46
482.31	13343.39
482.49	13666.39
482.67	13905.12
482.85	13544.68
483.03	13708.52
483.21	14141.52
483.39	14029.17
483.57	13968.32
483.74	14200.03
483.92	14333.44
484.10	14171.94
484.28	14532.39
484.46	14555.79
484.64	15103.48
484.82	14579.20
485.00	14949.00
485.18	15309.44
485.35	15091.77
485.53	14937.30
485.71	15398.38
485.89	15183.06
486.07	15335.19
486.25	15557.54
486.43	15335.19
486.61	15714.36
486.78	15917.98
486.96	15988.20
487.14	16203.53
487.32	16121.61
487.50	16343.96
487.68	16535.88
487.85	16994.63
488.03	16762.92
488.21	16868.24
488.39	16989.95
488.57	17486.14
488.75	17317.62
488.92	17551.68
489.10	17750.62
489.28	17874.67
489.46	17748.28
489.64	18181.28
489.81	18555.77
489.99	18647.05
490.17	18436.40
490.35	18651.73
490.53	18658.75
490.70	18759.39
490.88	18991.11
491.06	19349.21
491.24	19255.59
491.41	19349.21
491.59	19288.35
491.77	19309.42
491.95	19683.91
492.13	19447.51
492.30	19810.29
492.48	19943.70
492.66	19941.36
492.84	20018.60
493.01	20304.15
493.19	20369.68
493.37	20367.34
493.54	20453.94
493.72	20912.69
493.90	20676.29
494.08	21015.67
494.25	21605.49
494.43	21582.08
494.61	21497.82
494.79	21233.34
494.96	21755.28
495.14	21706.13
495.32	22059.55
495.49	21879.33
495.67	22026.78
495.85	22178.92
496.02	22352.12
496.20	22766.39
496.38	22565.10
496.55	22595.53
496.73	23201.73
496.91	22738.30
497.09	23185.35
497.26	22895.12
497.44	23101.09
497.62	23571.54
497.79	23655.79
497.97	23276.63
498.14	23449.83
498.32	23372.59
498.50	23625.37
498.67	24084.11
498.85	23716.65
499.03	24388.38
499.20	24173.05
499.38	24329.87
499.56	24379.02
499.73	24428.17
499.91	24608.39
500.08	24437.53
500.26	24589.67
500.44	24629.46
500.61	24547.54
500.79	24507.75
500.97	25415.88
501.14	25263.74
501.32	25263.74
501.49	25135.01
501.67	25450.99
501.84	25972.92
502.02	25759.94
502.20	26047.82
502.37	25905.05
502.55	25921.43
502.72	25715.47
502.90	26316.98
503.07	26146.12
503.25	26218.68
503.43	26359.11
503.60	26181.23
503.78	26368.48
503.95	26291.24
504.13	26546.36
504.30	26586.15
504.48	26401.24
504.65	26972.33
504.83	26852.97
505.01	26822.54
505.18	26827.22
505.36	27482.57
505.53	27730.67
505.71	27522.36
505.88	27782.16
506.06	27201.71
506.23	27545.76
506.41	27330.44
506.58	27534.06
506.76	27730.67
506.93	28018.55
507.11	28046.64
507.28	28388.36
507.46	28006.85
507.63	27981.10
507.81	28276.01
507.98	28006.85
508.16	28056.00
508.33	28311.12
508.50	28547.51
508.68	28891.57
508.85	29134.99
509.03	28755.82
509.20	28952.43
509.38	29015.62
509.55	29507.13
509.73	29422.87
509.90	29289.46
510.08	29324.57
510.25	29041.37
510.42	29748.21
510.60	29565.65
510.77	29504.79
510.95	29865.24
511.12	29626.50
511.30	29853.53
511.47	30181.21
511.64	30279.51
511.82	30293.55
511.99	29912.05
512.17	30298.23
512.34	30532.29
512.51	30155.46
512.69	30342.70
512.86	30426.96
513.04	31014.44
513.21	30408.24
513.38	31220.41
513.56	30508.88
513.73	31152.53
513.90	30988.69
514.08	31072.95
514.25	31260.20
514.43	30761.66
514.60	31108.06
514.77	31346.79
514.95	31606.59
515.12	31517.65
515.29	31562.12
515.47	31620.64
515.64	32065.34
515.81	31660.43
515.99	31655.75
516.16	31929.59
516.33	31634.68
516.51	31805.54
516.68	31360.84
516.85	31952.99
517.03	31686.17
517.20	32002.14
517.37	31978.74
517.54	32343.86
517.72	32390.67
517.89	32165.98
518.06	32446.85
518.24	32212.79
518.41	31978.74
518.58	32795.59
518.75	32493.66
518.93	32975.81
519.10	32912.61
519.27	33146.67
519.45	33015.60
519.62	33352.63
519.79	33275.40
519.96	33490.73
520.14	33909.68
520.31	32989.85
520.48	33677.97
520.65	33563.28
520.83	33656.90
521.00	33759.89
521.17	33614.77
521.34	33736.48
521.52	33942.45
521.69	34223.31
521.86	34106.29
522.03	34178.84
522.20	33989.26
522.38	34738.23
522.55	34012.66
522.72	34227.99
522.89	34632.91
523.07	34747.59
523.24	34653.97
523.41	34684.40
523.58	34494.82
523.75	35068.25
523.92	34532.26
524.10	35632.32
524.27	34771.00
524.44	35241.45
524.61	35189.95
524.78	35264.85
524.96	35117.40
525.13	35328.05
525.30	35321.02
525.47	35854.67
525.64	35597.21
525.81	35424.01
525.98	35468.48
526.16	35314.00
526.33	35512.95
526.50	35922.54
526.67	35477.84
526.84	35370.18
527.01	35529.33
527.18	36027.87
527.36	35782.11
527.53	36208.09
527.70	36636.41
527.87	36133.19
528.04	36350.86
528.21	36367.24
528.38	36392.99
528.55	36638.75
528.72	36603.64
528.89	36823.65
529.07	36708.96
529.24	36673.85
529.41	36844.71
529.58	36734.71
529.75	36741.73
529.92	36849.39
530.09	37062.38
530.26	36945.36
530.43	36947.70
530.60	36973.44
530.77	37132.60
530.94	37600.71
531.11	37380.70
531.28	37270.69
531.46	37022.59
531.63	37188.77
531.80	37305.80
531.97	37326.86
532.14	37368.99
532.31	37303.46
532.48	37509.43
532.65	38012.64
532.82	37642.84
532.99	37827.74
533.16	37523.47
533.33	37331.54
533.50	38082.86
533.67	38377.76
533.84	37703.69
534.01	37820.72
534.18	38295.85
534.35	38562.67
534.52	37876.89
534.69	38251.38
534.86	38272.44
535.03	38022.00
535.20	38300.53
535.37	38529.90
535.54	38174.14
535.71	38412.87
535.88	38380.10
536.05	38539.26
536.22	38824.81
536.38	38548.62
536.55	38745.23
536.72	38941.83
536.89	38345.00
537.06	38532.24
537.23	38483.09
537.40	39100.99
537.57	38852.89
537.74	38693.74
537.91	39629.95
538.08	39089.29
538.25	38937.15
538.42	39037.80
538.59	39435.69
538.75	38932.47
538.92	39281.21
539.09	39461.43
539.26	39185.25
539.43	39484.84
539.60	40086.36
539.77	39225.04
539.94	39580.80
540.11	39384.19
540.28	39695.49
540.44	39519.95
540.61	39770.38
540.78	39812.51
540.95	39838.26
541.12	39562.08
541.29	39721.23
541.46	40046.57
541.62	40425.73
541.79	39945.92
541.96	40161.25
542.13	39562.08
542.30	40428.07
542.47	40421.05
542.63	39859.32
542.80	40407.01
542.97	40481.91
543.14	40620.00
543.31	40734.68
543.48	40844.69
543.64	40886.82
543.81	40758.09
543.98	40657.45
544.15	40828.30
544.32	41160.66
544.48	41361.95
544.65	41195.77
544.82	41165.34
544.99	40718.30
545.16	41069.38
545.32	40999.16
545.49	41244.92
545.66	41605.36
545.83	40830.65
546.00	41521.10
546.16	41277.69
546.33	41081.08
546.50	40802.56
546.67	41249.60
546.83	40690.21
547.00	41504.72
547.17	41294.07
547.34	41296.41
547.50	41308.11
547.67	41872.18
547.84	41305.77
548.00	41500.04
548.17	41546.85
548.34	41930.70
548.51	41294.07
548.67	42085.17
548.84	42096.88
549.01	41317.48
549.18	41645.15
549.34	42000.91
549.51	42176.45
549.68	42057.09
549.84	41900.27
550.01	42281.78
550.18	41928.36
550.34	42000.91
550.51	41904.95
550.68	42101.56
550.84	41851.12
551.01	42192.84
551.18	42003.25
551.34	42103.90
551.51	42368.38
551.68	42579.03
551.84	42597.75
552.01	42195.18
552.18	42466.68
552.34	42026.66
552.51	42932.45
552.68	41937.72
552.84	42384.76
553.01	42745.20
553.18	42244.33
553.34	42560.30
553.51	42323.91
553.67	42312.20
553.84	42691.37
554.01	42735.84
554.17	42642.22
554.34	43136.07
554.51	42845.85
554.67	43370.13
554.84	43339.70
555.00	42422.21
555.17	42766.27
555.33	42543.92
555.50	43105.65
555.67	42955.85
555.83	42738.18
556.00	43082.24
556.16	43330.34
556.33	43253.10
556.50	43112.67
556.66	43597.16
556.83	43370.13
556.99	42728.82
557.16	43545.67
557.32	43505.88
557.49	43257.78
557.65	43129.05
557.82	43225.01
557.98	43313.95
558.15	43217.99
558.32	43522.26
558.48	42997.98
558.65	43454.39
558.81	43487.15
558.98	43320.98
559.14	43423.96
559.31	43187.56
559.47	43466.09
559.64	43737.59
559.80	43679.08
559.97	43845.26
560.13	43419.28
560.30	43672.06
560.46	43880.36
560.63	43358.42
560.79	43707.16
560.96	43803.13
561.12	43915.47
561.29	43817.17
561.45	43826.53
561.61	43550.35
561.78	43978.67
561.94	43782.06
562.11	43826.53
562.27	43913.13
562.44	43915.47
562.60	43786.74
562.77	43981.01
562.93	43871.00
563.10	44053.56
563.26	43243.74
563.42	44121.44
563.59	43941.22
563.75	43945.90
563.92	44322.72
564.08	44208.04
564.24	43917.81
564.41	43828.87
564.57	44212.72
564.74	44144.84
564.90	44343.79
565.07	43985.69
565.23	43597.16
565.39	44201.02
565.56	44002.07
565.72	43950.58
565.88	43959.94
566.05	44474.86
566.21	44470.18
566.38	44006.75
566.54	43749.29
566.70	43896.75
566.87	44404.64
567.03	44016.11
567.19	44577.84
567.36	44404.64
567.52	44238.47
567.68	44252.51
567.85	44421.03
568.01	44311.02
568.17	44245.49
568.34	44545.08
568.50	43959.94
568.66	44135.48
568.83	44458.48
568.99	44023.14
569.15	44231.44
569.32	44135.48
569.48	43941.22
569.64	44430.39
569.81	44399.96
569.97	44378.90
570.13	44856.37
570.30	44385.92
570.46	44296.98
570.62	44126.12
570.78	43945.90
570.95	44250.17
571.11	44514.65
571.27	44648.06
571.43	44369.54
571.60	44399.96
571.76	44500.61
571.92	44362.51
572.09	44439.75
572.25	44493.58
572.41	43931.86
572.57	44423.37
572.74	45160.64
572.90	44451.45
573.06	44715.93
573.22	44758.06
573.38	44329.75
573.55	44172.93
573.71	44793.17
573.87	44278.25
574.03	44278.25
574.20	44720.62
574.36	44505.29
574.52	45027.23
574.68	44526.35
574.84	44538.05
575.01	44315.70
575.17	44933.60
575.33	44568.48
575.49	44601.25
575.65	44739.34
575.82	45350.22
575.98	44580.18
576.14	45151.27
576.30	44849.35
576.46	44458.48
576.62	44238.47
576.79	44879.77
576.95	44252.51
577.11	44519.33
577.27	44612.95
577.43	44844.66
577.59	44584.86
577.75	44081.65
577.92	43620.56
578.08	44329.75
578.24	44481.88
578.40	44999.14
578.56	44708.91
578.72	44734.66
578.88	44926.58
579.04	45024.89
579.21	44547.42
579.37	44587.21
579.53	44376.56
579.69	44294.64
579.85	44680.83
580.01	44561.46
580.17	44931.26
580.33	44896.16
580.49	44971.05
580.65	45017.86
580.82	45469.59
580.98	44797.85
581.14	44282.94
581.30	45111.49
581.46	44800.19
581.62	44741.68
581.78	45022.54
581.94	45116.17
582.10	44643.38
582.26	44767.43
582.42	44811.90
582.58	44615.29
582.74	45090.42
582.90	44774.45
583.06	45219.15
583.22	44737.00
583.38	45027.23
583.54	44985.10
583.70	45165.32
583.86	44814.24
584.02	44605.93
584.18	45052.97
584.34	44673.81
584.50	45038.93
584.66	44699.55
584.82	44519.33
584.98	45067.02
585.14	44982.76
585.30	44608.27
585.46	44474.86
585.62	44435.07
585.78	44568.48
585.94	44282.94
586.10	44718.28
586.26	44781.47
586.42	44947.65
586.58	44851.69
586.74	44708.91
586.90	45139.57
587.06	44762.75
587.22	45177.02
587.38	44584.86
587.54	45109.14
587.70	44917.22
587.86	44741.68
588.02	45034.25
588.18	45230.85
588.34	44863.39
588.49	44706.57
588.65	44638.70
588.81	44444.43
588.97	44268.89
589.13	44514.65
589.29	44917.22
589.45	44832.96
589.61	45111.49
589.77	45207.45
589.93	44563.80
590.08	44767.43
590.24	44987.44
590.40	45268.30
590.56	45095.10
590.72	44563.80
590.88	44715.93
591.04	44882.11
591.20	45436.82
591.35	45553.85
591.51	45214.47
591.67	45235.53
591.83	44971.05
591.99	45125.53
592.15	45202.77
592.31	44825.94
592.46	44959.35
592.62	45291.71
592.78	45350.22
592.94	45170.00
593.10	45165.32
593.26	44992.12
593.41	45338.52
593.57	45221.49
593.73	45474.27
593.89	45270.64
594.05	45549.17
594.20	44701.89
594.36	45404.05
594.52	45242.56
594.68	45223.83
594.84	44697.21
594.99	45287.03
595.15	45181.70
595.31	45401.71
595.47	45282.34
595.62	45254.26
595.78	45216.81
595.94	45237.87
596.10	45179.36
596.25	45284.68
596.41	45050.63
596.57	45230.85
596.73	45258.94
596.88	44687.85
597.04	44985.10
597.20	45331.50
597.36	45390.01
597.51	45478.95
597.67	45556.19
597.83	45481.29
597.99	45209.79
598.14	45621.72
598.30	45139.57
598.46	45074.04
598.61	45216.81
598.77	45006.16
598.93	45275.32
599.09	45097.44
599.24	45710.66
599.40	45663.85
599.56	45345.54
599.71	45385.33
599.87	45085.74
600.03	45375.97
600.18	45537.46
600.34	45427.46
600.50	45577.25
600.65	45242.56
600.81	45708.32
600.97	45500.01
601.12	45947.06
601.28	45258.94
601.44	45359.58
601.59	45029.57
601.75	45551.51
601.91	45043.61
602.06	45155.96
602.22	45397.03
602.37	45390.01
602.53	45237.87
602.69	45364.26
602.84	45052.97
603.00	45193.40
603.16	45570.23
603.31	45177.02
603.47	44931.26
603.62	45626.40
603.78	44994.46
603.94	45343.20
604.09	45275.32
604.25	45296.39
604.40	45275.32
604.56	45127.87
604.71	45490.65
604.87	45111.49
605.03	44982.76
605.18	45064.67
605.34	45574.91
605.49	44612.95
605.65	45298.73
605.80	45336.18
605.96	45633.42
606.12	45315.11
606.27	45029.57
606.43	44931.26
606.58	45738.75
606.74	45134.89
606.89	44980.42
607.05	44980.42
607.20	44858.71
607.36	45160.64
607.51	45628.74
607.67	44940.63
607.82	45031.91
607.98	45359.58
608.13	44783.81
608.29	45214.47
608.44	44856.37
608.60	44617.63
608.75	44500.61
608.91	44486.56
609.06	44704.23
609.22	45413.41
609.37	44947.65
609.53	44783.81
609.68	44891.48
609.84	44737.00
609.99	44964.03
610.15	44739.34
610.30	44753.38
610.46	44463.16
610.61	44367.20
610.76	44772.11
610.92	44652.74
611.07	44856.37
611.23	44914.88
611.38	44811.90
611.54	43990.37
611.69	44706.57
611.84	44229.10
612.00	44914.88
612.15	44053.56
612.31	44493.58
612.46	44123.78
612.62	44825.94
612.77	44346.13
612.92	44610.61
613.08	44449.11
613.23	44622.31
613.39	44332.09
613.54	43950.58
613.69	44500.61
613.85	44765.09
614.00	44037.18
614.15	44481.88
614.31	44460.82
614.46	44538.05
614.62	44538.05
614.77	44353.15
614.92	44208.04
615.08	44336.77
615.23	44638.70
615.38	44170.59
615.54	44076.97
615.69	43931.86
615.84	44306.34
616.00	44121.44
616.15	44191.65
616.30	44201.02
616.46	43910.79
616.61	43950.58
616.76	43971.64
616.92	43817.17
617.07	43749.29
617.22	43948.24
617.37	43959.94
617.53	43702.48
617.68	43789.08
617.83	43793.76
617.99	43950.58
618.14	43655.67
618.29	44006.75
618.45	43138.41
618.60	43842.92
618.75	43777.38
618.90	43917.81
619.06	43704.82
619.21	43522.26
619.36	43573.75
619.51	43711.84
619.67	43278.85
619.82	43840.57
619.97	43505.88
620.12	43208.63
620.28	42965.21
620.43	43363.11
620.58	43498.86
620.73	43466.09
620.89	43232.04
621.04	43753.97
621.19	43037.77
621.34	43309.27
621.49	42925.42
621.65	42937.13
621.80	43735.25
621.95	42787.33
622.10	43210.97
622.25	43213.31
622.41	42796.70
622.56	43037.77
622.71	43222.67
622.86	42944.15
623.01	43374.81
623.16	43236.72
623.32	43285.87
623.47	43318.64
623.62	42766.27
623.77	42969.90
623.92	42799.04
624.07	42674.99
624.23	42698.39
624.38	42377.74
624.53	42564.98
624.68	42777.97
624.83	42387.10
624.98	42848.19
625.13	42597.75
625.29	42298.16
625.44	42733.50
625.59	42747.54
625.74	42616.47
625.89	42160.07
626.04	41806.65
626.19	42436.25
626.34	42440.93
626.49	42487.74
626.65	42447.96
626.80	42405.83
626.95	41846.44
627.10	42131.98
627.25	41940.06
627.40	42113.26
627.55	41614.72
627.70	41572.60
627.85	41787.92
628.00	41942.40
628.15	41949.42
628.30	42061.77
628.45	42415.19
628.60	41918.99
628.76	41823.03
628.91	42326.25
629.06	41958.78
629.21	41769.20
629.36	41785.58
629.51	41748.14
629.66	41823.03
629.81	41937.72
629.96	41656.85
630.11	41523.44
630.26	41785.58
630.41	42136.66
630.56	41668.56
630.71	41841.76
630.86	41935.38
631.01	41691.96
631.16	41598.34
631.31	41415.78
631.46	41275.35
631.61	40940.65
631.76	41993.89
631.91	41881.55
632.06	41446.21
632.21	41301.09
632.36	41113.85
632.51	41289.39
632.66	41434.50
632.81	41034.27
632.96	41539.83
633.10	40921.93
633.25	40938.31
633.40	40917.25
633.55	40987.46
633.70	41443.87
633.85	41144.28
634.00	40821.28
634.15	41134.92
634.30	41336.20
634.45	41064.70
634.60	40933.63
634.75	41230.88
634.90	40882.14
635.05	41127.89
635.19	41078.74
635.34	41027.25
635.49	41214.49
635.64	40746.39
635.79	40636.38
635.94	40760.43
636.09	40692.55
636.24	39922.52
636.39	40261.90
636.53	40655.11
636.68	40755.75
636.83	40229.13
636.98	40842.35
637.13	40226.79
637.28	40980.44
637.43	40566.16
637.57	40643.40
637.72	40531.06
637.87	40547.44
638.02	40184.66
638.17	40369.56
638.32	40039.54
638.46	39796.13
638.61	39971.67
638.76	40151.89
638.91	40135.51
639.06	40191.68
639.20	40364.88
639.35	40399.99
639.50	39924.86
639.65	40528.72
639.80	39899.11
639.94	39739.96
640.09	40002.10
640.24	40217.43
640.39	39679.10
640.54	40055.93
640.68	40163.59
640.83	39543.35
640.98	39955.29
641.13	40194.02
641.27	40179.98
641.42	40079.33
641.57	39880.39
641.72	40259.55
641.86	39737.62
642.01	39494.20
642.16	39391.22
642.31	39023.75
642.45	39498.88
642.60	39243.76
642.75	39058.86
642.90	39201.63
643.04	39473.13
643.19	39260.15
643.34	39723.57
643.48	39321.00
643.63	39578.46
643.78	39058.86
643.93	39435.69
644.07	39042.48
644.22	38916.09
644.37	38941.83
644.51	38892.68
644.66	39533.99
644.81	39049.50
644.95	39274.19
645.10	39421.64
645.25	38974.60
645.39	39229.72
645.54	39583.14
645.69	39028.43
645.83	38646.93
645.98	38778.00
646.13	39227.38
646.27	39208.65
646.42	38574.37
646.57	39452.07
646.71	39220.36
646.86	39019.07
647.00	39236.74
647.15	38988.64
647.30	38995.67
647.44	39044.82
647.59	38401.17
647.74	38689.06
647.88	38204.56
648.03	38010.30
648.17	39019.07
648.32	38579.05
648.47	38698.42
648.61	38157.75
648.76	38733.53
648.90	38485.43
649.05	38417.55
649.20	38321.59
649.34	38567.35
649.49	38808.42
649.63	38761.61
649.78	38333.29
649.92	38197.54
650.07	38909.07
650.21	38642.24
650.36	38230.31
650.51	38712.46
650.65	38504.15
650.80	39063.54
650.94	38120.31
651.09	38426.92
651.23	38014.98
651.38	38384.79
651.52	37942.42
651.67	38373.08
651.81	38326.27
651.96	38010.30
652.10	37764.54
652.25	37844.12
652.39	37879.23
652.54	37741.14
652.68	38068.81
652.83	37982.21
652.97	38103.92
653.12	37998.60
653.26	37720.07
653.41	38284.14
653.55	37397.08
653.70	37493.04
653.84	37563.26
653.99	38038.39
654.13	37551.56
654.27	37717.73
654.42	37720.07
654.56	37649.86
654.71	37876.89
654.85	37532.83
655.00	37296.44
655.14	37425.17
655.29	37221.54
655.43	36910.25
655.57	37291.76
655.72	36910.25
655.86	37385.38
656.01	36790.88
656.15	36765.14
656.30	36917.27
656.44	37085.79
656.58	37034.30
656.73	37205.16
656.87	36849.39
657.01	36652.79
657.16	36980.46
657.30	36671.51
657.45	36552.15
657.59	36662.15
657.73	36500.65
657.88	36741.73
658.02	36493.63
658.16	36765.14
658.31	36683.22
658.45	37071.75
658.60	36650.45
658.74	37282.39
658.88	36987.49
659.03	36804.92
659.17	36545.12
659.31	36367.24
659.46	35758.70
659.60	35899.14
659.74	36458.52
659.89	36191.70
660.03	36133.19
660.17	36137.87
660.32	36133.19
660.46	36493.63
660.60	36636.41
660.74	36378.95
660.89	36355.54
661.03	36194.04
661.17	35959.99
661.32	35651.04
661.46	36261.92
661.60	35777.43
661.74	35529.33
661.89	35669.76
662.03	36140.21
662.17	35405.28
662.31	35789.13
662.46	35421.67
662.60	35276.55
662.74	35845.30
662.88	35508.27
663.03	35346.77
663.17	35262.51
663.31	35105.70
663.45	35365.49
663.60	35019.10
663.74	35042.50
663.88	35115.06
664.02	34948.88
664.17	35232.08
664.31	34843.56
664.45	34852.92
664.59	34965.26
664.73	34988.67
664.88	34778.02
665.02	34546.31
665.16	34670.36
665.30	34848.24
665.44	34464.39
665.59	33818.40
665.73	34747.59
665.87	34188.21
666.01	34415.24
666.15	34253.74
666.29	34047.77
666.44	34525.24
666.58	34396.51
666.72	34075.86
666.86	34050.11
667.00	34457.37
667.14	34000.96
667.28	33354.97
667.43	33780.95
667.57	34096.92
667.71	33380.72
667.85	33694.35
667.99	33551.58
668.13	33598.39
668.27	33291.78
668.41	33195.82
668.56	33237.95
668.70	33584.35
668.84	33607.75
668.98	33099.86
669.12	33369.02
669.26	33422.85
669.40	33364.34
669.54	32973.47
669.68	33338.59
669.82	33130.28
669.96	32554.51
670.10	32629.41
670.25	33434.55
670.39	32959.42
670.53	32694.94
670.67	32205.77
670.81	33181.77
670.95	32547.49
671.09	32374.29
671.23	32870.48
671.37	32627.07
671.51	32318.12
671.65	32224.50
671.79	32374.29
671.93	31840.65
672.07	32444.51
672.21	32435.14
672.35	31938.95
672.49	31812.56
672.63	32383.65
672.77	31470.84
672.91	31765.75
673.05	31716.60
673.19	31716.60
673.33	31454.46
673.47	31302.32
673.61	31248.49
673.75	31426.37
673.89	31094.02
674.03	30955.93
674.17	30991.03
674.31	31145.51
674.45	31005.08
674.59	30969.97
674.73	31325.73
674.87	30756.98
675.01	31108.06
675.15	31016.78
675.29	31232.11
675.43	31201.68
675.56	30883.37
675.70	30347.39
675.84	30150.78
675.98	29649.91
676.12	30134.40
676.26	29972.90
676.40	29813.74
676.54	29600.76
676.68	29434.58
676.82	29364.36
676.96	29500.11
677.10	29549.26
677.23	29741.19
677.37	29685.01
677.51	29329.25
677.65	29254.36
677.79	28886.89
677.93	28868.17
678.07	28830.72
678.21	28744.12
678.34	28575.60
678.48	28599.01
678.62	28610.71
678.76	28596.67
678.90	28512.41
679.04	28343.89
679.18	28374.31
679.31	28142.60
679.45	28006.85
679.59	27590.24
679.73	27421.72
679.87	28175.37
680.00	27763.43
680.14	27555.13
680.28	27852.38
680.42	27225.11
680.56	27370.22
680.70	27402.99
680.83	27175.96
680.97	26590.83
681.11	27241.50
681.25	26909.14
681.39	27016.80
681.52	27150.21
681.66	26775.73
681.80	26827.22
681.94	26876.37
682.07	26536.99
682.21	26485.50
682.35	26382.52
682.49	26244.43
682.62	26167.19
682.76	26174.21
682.90	25970.58
683.04	25717.81
683.17	25830.15
683.31	25525.88
683.45	25872.28
683.59	25649.93
683.72	25352.68
683.86	25436.94
684.00	25298.85
684.13	25514.18
684.27	25303.53
684.41	25450.99
684.55	25043.73
684.68	24751.17
684.82	24505.41
684.96	24950.11
685.09	24650.52
685.23	24645.84
685.37	24521.79
685.50	24458.60
685.64	24460.94
685.78	24400.08
685.91	23990.49
686.05	24058.37
686.19	23733.03
686.32	23955.38
686.46	23838.36
686.60	23260.24
686.73	23585.58
686.87	23304.71
687.01	23253.22
687.14	23384.29
687.28	23054.28
687.42	23253.22
687.55	22742.99
687.69	22913.84
687.82	22897.46
687.96	23077.68
688.10	22707.88
688.23	22899.80
688.37	22448.08
688.50	22232.75
688.64	22469.14
688.78	22450.42
688.91	22380.20
689.05	22347.44
689.18	21947.20
689.32	21820.81
689.46	22094.66
689.59	22024.44
689.73	22263.18
689.86	21722.51
690.00	21722.51
690.13	21977.63
690.27	21434.63
690.41	21436.97
690.54	21394.84
690.68	21326.96
690.81	21177.17
690.95	21018.01
691.08	20844.81
691.22	20987.58
691.35	21242.70
691.49	20980.56
691.62	20929.07
691.76	20805.02
691.89	20673.95
692.03	20486.71
692.16	20266.70
692.30	20418.83
692.43	20266.70
692.57	20365.00
692.70	20056.05
692.84	20252.66
692.97	20116.90
693.11	19674.54
693.24	19604.33
693.38	19932.00
693.51	19609.01
693.65	19548.15
693.78	19447.51
693.92	19601.99
694.05	19323.46
694.19	19379.64
694.32	19400.70
694.45	19264.95
694.59	19026.21
694.72	18981.74
694.86	19000.47
694.99	18778.12
695.13	18607.26
695.26	18527.68
695.39	18555.77
695.53	18448.10
695.66	18469.17
695.80	18422.36
695.93	18508.96
696.07	17923.82
696.20	18136.81
696.33	18092.34
696.47	18174.26
696.60	17848.93
696.73	18160.22
696.87	17661.68
697.00	17846.58
697.14	17776.37
697.27	17607.85
697.40	17539.97
697.54	17415.93
697.67	17502.53
697.80	17224.00
697.94	17146.76
698.07	17118.68
698.21	16973.56
698.34	17011.01
698.47	16901.01
698.61	16652.91
698.74	16575.67
698.87	16556.95
699.01	16381.41
699.14	16500.78
699.27	16414.18
699.40	16276.09
699.54	16018.63
699.67	16070.12
699.80	16187.14
699.94	16037.35
700.07	15616.05
700.20	15913.30
700.34	15843.09
700.47	15819.68
700.60	15747.12
700.73	15899.26
700.87	15674.57
701.00	15784.57
701.13	15365.62
701.26	15529.45
701.40	15365.62
701.53	15173.69
701.66	15499.03
701.79	15037.94
701.93	15164.33
702.06	14923.26
702.19	14651.75
702.32	14902.19
702.46	14965.39
702.59	14736.01
702.72	14824.95
702.85	14534.73
702.99	14773.46
703.12	14817.93
703.25	14843.68
703.38	14539.41
703.51	14452.81
703.65	14204.71
703.78	14438.76
703.91	13961.30
704.04	14057.26
704.17	14085.34
704.31	13944.91
704.44	13640.64
704.57	13635.96
704.70	13645.32
704.83	13582.13
704.96	13675.75
705.10	13820.86
705.23	13841.93
>>>>>End Processed Spectral Data<<<<<
