SpectraSuite Data File
++++++++++++++++++++++++++++++++++++
Date: Fri Oct 25 11:33:24 EDT 2013
User: price-jones
Dark Spectrum Present: No
Reference Spectrum Present: No
Number of Sampled Component Spectra: 1
Spectrometers: USB2+H05261
Integration Time (usec): 100000 (USB2+H05261)
Spectra Averaged: 1 (USB2+H05261)
Boxcar Smoothing: 0 (USB2+H05261)
Correct for Electrical Dark: No (USB2+H05261)
Strobe/Lamp Enabled: No (USB2+H05261)
Correct for Detector Non-linearity: No (USB2+H05261)
Correct for Stray Light: No (USB2+H05261)
Number of Pixels in Processed Spectrum: 2048
>>>>>Begin Processed Spectral Data<<<<<
365.73	290.23
365.92	290.23
366.12	290.23
366.32	175.54
366.52	140.43
366.72	208.31
366.91	156.82
367.11	168.52
367.31	166.18
367.51	245.76
367.70	201.29
367.90	166.18
368.10	161.50
368.30	212.99
368.49	147.45
368.69	234.05
368.89	173.20
369.09	161.50
369.28	203.63
369.48	325.33
369.68	259.80
369.87	269.16
370.07	201.29
370.27	283.20
370.47	327.68
370.66	458.74
370.86	454.06
371.06	552.37
371.25	580.45
371.45	594.50
371.65	655.35
371.84	599.18
372.04	500.87
372.24	503.22
372.44	543.00
372.63	622.58
372.83	580.45
373.03	655.35
373.22	664.71
373.42	613.22
373.62	650.67
373.81	692.80
374.01	674.07
374.21	622.58
374.40	697.48
374.60	667.05
374.79	678.76
374.99	631.94
375.19	627.26
375.38	643.65
375.58	620.24
375.78	610.88
375.97	641.31
376.17	725.57
376.37	683.44
376.56	711.52
376.76	739.61
376.95	648.33
377.15	678.76
377.35	713.86
377.54	706.84
377.74	671.73
377.93	725.57
378.13	669.39
378.33	688.12
378.52	711.52
378.72	784.08
378.91	709.18
379.11	702.16
379.31	653.01
379.50	730.25
379.70	758.33
379.89	795.78
380.09	746.63
380.28	763.01
380.48	739.61
380.68	758.33
380.87	688.12
381.07	748.97
381.26	812.17
381.46	716.20
381.65	744.29
381.85	765.36
382.04	793.44
382.24	709.18
382.43	741.95
382.63	718.54
382.83	812.17
383.02	828.55
383.22	741.95
383.41	779.40
383.61	777.06
383.80	854.30
384.00	873.02
384.19	798.12
384.39	880.04
384.58	830.89
384.78	805.14
384.97	835.57
385.17	807.48
385.36	814.51
385.56	798.12
385.75	866.00
385.95	826.21
386.14	826.21
386.34	880.04
386.53	858.98
386.72	844.93
386.92	924.51
387.11	863.66
387.31	973.66
387.50	894.08
387.70	950.26
387.89	847.27
388.09	931.53
388.28	870.68
388.48	880.04
388.67	884.72
388.86	950.26
389.06	917.49
389.25	985.37
389.45	959.62
389.64	950.26
389.84	985.37
390.03	954.94
390.22	933.87
390.42	926.85
390.61	884.72
390.81	950.26
391.00	976.00
391.19	1060.26
391.39	1025.15
391.58	1055.58
391.78	1027.50
391.97	997.07
392.16	926.85
392.36	1081.33
392.55	1015.79
392.75	1107.07
392.94	1039.20
393.13	1032.18
393.33	971.32
393.52	1107.07
393.71	1100.05
393.91	1090.69
394.10	1053.24
394.29	1050.90
394.49	1048.56
394.68	1064.94
394.88	1128.14
395.07	1111.75
395.26	1093.03
395.46	1167.93
395.65	1193.67
395.84	1153.88
396.04	1221.76
396.23	1158.57
396.42	1249.85
396.62	1210.06
396.81	1188.99
397.00	1217.08
397.19	1299.00
397.39	1203.04
397.58	1338.79
397.77	1268.57
397.97	1207.72
398.16	1317.72
398.35	1322.40
398.55	1226.44
398.74	1231.12
398.93	1371.55
399.12	1315.38
399.32	1306.02
399.51	1268.57
399.70	1324.74
399.90	1291.98
400.09	1376.24
400.28	1329.42
400.47	1444.11
400.67	1364.53
400.86	1448.79
401.05	1432.41
401.24	1437.09
401.44	1397.30
401.63	1446.45
401.82	1509.65
402.01	1430.07
402.21	1465.18
402.40	1533.05
402.59	1467.52
402.78	1453.47
402.97	1516.67
403.17	1526.03
403.36	1521.35
403.55	1444.11
403.74	1593.90
403.93	1596.25
404.13	1577.52
404.32	1586.88
404.51	1678.16
404.70	1596.25
404.89	1664.12
405.09	1710.93
405.28	1696.89
405.47	1687.53
405.66	1650.08
405.85	1685.19
406.05	1675.82
406.24	1706.25
406.43	1692.21
406.62	1895.83
406.81	1846.68
407.00	1860.73
407.20	1748.38
407.39	1771.79
407.58	1795.19
407.77	1898.17
407.96	1830.30
408.15	1849.02
408.34	1825.62
408.54	1858.39
408.73	1879.45
408.92	1963.71
409.11	2019.88
409.30	2001.16
409.49	2085.42
409.68	2012.86
409.87	2069.03
410.07	2106.48
410.26	2132.23
410.45	2153.29
410.64	2148.61
410.83	2050.31
411.02	2057.33
411.21	2125.21
411.40	2169.68
411.59	2188.40
411.78	2172.02
411.98	2317.13
412.17	2291.38
412.36	2298.41
412.55	2188.40
412.74	2464.58
412.93	2483.31
413.12	2305.43
413.31	2492.67
413.50	2420.11
413.69	2420.11
413.88	2396.71
414.07	2490.33
414.26	2424.80
414.45	2509.05
414.64	2541.82
414.83	2499.69
415.02	2581.61
415.22	2703.32
415.41	2602.68
415.60	2633.10
415.79	2663.53
415.98	2764.17
416.17	2773.53
416.36	2733.75
416.55	2700.98
416.74	2778.22
416.93	2832.05
417.12	2794.60
417.31	2820.35
417.50	2909.29
417.69	2960.78
417.88	2911.63
418.07	2911.63
418.26	2972.48
418.45	2981.84
418.64	3148.02
418.83	3016.95
419.02	3047.38
419.21	3112.91
419.39	3077.80
419.58	3042.70
419.77	3075.46
419.96	3122.27
420.15	3145.68
420.34	3213.56
420.53	3253.34
420.72	3288.45
420.91	3180.79
421.10	3239.30
421.29	3262.71
421.48	3199.51
421.67	3234.62
421.86	3311.86
422.05	3337.60
422.24	3241.64
422.43	3342.28
422.61	3379.73
422.80	3311.86
422.99	3407.82
423.18	3372.71
423.37	3442.93
423.56	3314.20
423.75	3454.63
423.94	3421.86
424.13	3382.07
424.32	3281.43
424.50	3431.23
424.69	3426.54
424.88	3461.65
425.07	3407.82
425.26	3328.24
425.45	3592.72
425.64	3527.19
425.83	3489.74
426.01	3473.36
426.20	3506.12
426.39	3499.10
426.58	3515.48
426.77	3405.48
426.96	3665.28
427.15	3574.00
427.33	3545.91
427.52	3508.46
427.71	3578.68
427.90	3765.92
428.09	3679.32
428.28	3552.93
428.46	3630.17
428.65	3716.77
428.84	3798.69
429.03	3808.05
429.22	3637.19
429.40	3691.02
429.59	3805.71
429.78	3646.55
429.97	3569.32
430.16	3824.44
430.34	3822.09
430.53	3810.39
430.72	3859.54
430.91	3866.56
431.10	3969.55
431.28	4009.34
431.47	4056.15
431.66	3929.76
431.85	3988.27
432.03	4121.68
432.22	4042.11
432.41	4126.36
432.60	4046.79
432.79	4025.72
432.97	4159.13
433.16	4229.35
433.35	4142.75
433.54	4194.24
433.72	4337.01
433.91	4102.96
434.10	4372.12
434.28	4095.94
434.47	4339.35
434.66	4306.59
434.85	4262.12
435.03	4292.54
435.22	4400.21
435.41	4456.38
435.59	4510.21
435.78	4393.19
435.97	4414.25
436.16	4444.68
436.34	4404.89
436.53	4440.00
436.72	4620.22
436.90	4461.06
437.09	4423.61
437.28	4407.23
437.46	4631.92
437.65	4540.64
437.84	4645.96
438.02	4533.62
438.21	4564.04
438.40	4554.68
438.58	4873.00
438.77	4744.27
438.96	4681.07
439.14	4732.56
439.33	4957.25
439.52	4940.87
439.70	4915.12
439.89	5102.37
440.08	4851.93
440.26	5050.88
440.45	5020.45
440.63	5224.08
440.82	5238.12
441.01	5095.35
441.19	5263.86
441.38	5233.44
441.57	5380.89
441.75	5275.57
441.94	5373.87
442.12	5259.18
442.31	5383.23
442.50	5401.96
442.68	5490.90
442.87	5296.63
443.05	5497.92
443.24	5460.47
443.43	5364.51
443.61	5556.43
443.80	5755.38
443.98	5589.20
444.17	5490.90
444.35	5479.19
444.54	5535.37
444.73	5481.53
444.91	5706.23
445.10	5556.43
445.28	5720.27
445.47	5678.14
445.65	5654.73
445.84	5612.60
446.02	5802.19
446.21	5614.95
446.39	5645.37
446.58	5813.89
446.77	5685.16
446.95	5593.88
447.14	5809.21
447.32	5804.53
447.51	5830.27
447.69	5731.97
447.88	5708.57
448.06	5907.51
448.25	5706.23
448.43	5902.83
448.62	5762.40
448.80	5959.00
448.99	5851.34
449.17	5959.00
449.36	5921.56
449.54	5987.09
449.73	6029.22
449.91	6204.76
450.10	5947.30
450.28	6169.65
450.46	6047.94
450.65	6097.10
450.83	5994.11
451.02	6153.27
451.20	6303.06
451.39	6188.38
451.57	5966.03
451.76	6242.21
451.94	6300.72
452.13	6253.91
452.31	6284.34
452.49	6263.27
452.68	6300.72
452.86	6401.37
453.05	6356.90
453.23	6413.07
453.42	6258.59
453.60	6424.77
453.78	6476.26
453.97	6518.39
454.15	6525.41
454.34	6464.56
454.52	6487.96
454.70	6633.08
454.89	6616.69
455.07	6595.63
455.26	6551.16
455.44	6729.04
455.62	6679.89
455.81	6621.38
455.99	6764.15
456.17	6754.79
456.36	6850.75
456.54	6906.92
456.73	6937.35
456.91	6932.67
457.09	6942.03
457.28	7171.40
457.46	7000.54
457.64	7166.72
457.83	7288.43
458.01	7061.40
458.19	7243.96
458.38	7145.66
458.56	7236.94
458.74	7192.47
458.93	7199.49
459.11	7375.03
459.29	7166.72
459.48	7391.41
459.66	7176.08
459.84	7609.08
460.03	7517.80
460.21	7389.07
460.39	7489.71
460.57	7566.95
460.76	7433.54
460.94	7616.10
461.12	7641.85
461.31	7456.95
461.49	7555.25
461.67	7599.72
461.85	7536.52
462.04	7602.06
462.22	8056.12
462.40	7702.70
462.59	7683.98
462.77	7784.62
462.95	7660.57
463.13	7796.32
463.32	7796.32
463.50	7889.95
463.68	7756.54
463.86	8138.04
464.05	7903.99
464.23	7922.71
464.41	7999.95
464.59	7967.18
464.78	8013.99
464.96	8126.34
465.14	8072.51
465.32	8177.83
465.50	8095.91
465.69	8182.51
465.87	8198.90
466.05	8016.33
466.23	8283.16
466.41	8191.88
466.60	8159.11
466.78	8051.44
466.96	8336.99
467.14	8355.71
467.32	8287.84
467.51	8456.36
467.69	8262.09
467.87	8367.42
468.05	8131.02
468.23	8388.48
468.41	8432.95
468.60	8489.12
468.78	8446.99
468.96	8402.52
469.14	8758.28
469.32	8589.77
469.50	8500.83
469.69	8805.10
469.87	8833.18
470.05	8594.45
470.23	8758.28
470.41	8777.01
470.59	8898.72
470.77	8758.28
470.95	8968.93
471.14	8959.57
471.32	8622.53
471.50	9015.74
471.68	9081.28
471.86	9027.45
472.04	9158.52
472.22	9387.89
472.40	9184.26
472.58	9212.35
472.77	9193.62
472.95	9404.27
473.13	9708.54
473.31	9364.48
473.49	9591.52
473.67	9406.61
473.85	9638.33
474.03	9937.91
474.21	9933.23
474.39	9888.76
474.57	9666.41
474.75	10033.88
474.93	9753.01
475.12	9895.78
475.30	10122.82
475.48	9926.21
475.66	10003.45
475.84	10204.74
476.02	10373.25
476.20	10012.81
476.38	10293.68
476.56	10450.49
476.74	10546.45
476.92	10413.04
477.10	10745.40
477.28	10733.70
477.46	10714.97
477.64	10773.49
477.82	11157.33
478.00	11438.20
478.18	11136.27
478.36	11225.21
478.54	11370.32
478.72	11183.08
478.90	11433.52
479.08	11721.40
479.26	11524.80
479.44	11896.94
479.62	11775.24
479.80	12023.33
479.98	12351.01
480.16	12348.67
480.34	12044.40
480.52	12248.02
480.70	12030.35
480.88	12250.36
481.06	12320.58
481.24	12322.92
481.41	12585.06
481.59	12821.45
481.77	12945.50
481.95	12877.63
482.13	13078.91
482.31	13336.37
482.49	13493.19
482.67	13460.42
482.85	13607.87
483.03	13619.58
483.21	13640.64
483.39	13816.18
483.57	13900.44
483.74	14029.17
483.92	14185.99
484.10	13947.25
484.28	14471.53
484.46	14618.99
484.64	14663.46
484.82	14361.53
485.00	14693.88
485.18	14927.94
485.35	15229.87
485.53	15035.60
485.71	15531.80
485.89	15410.09
486.07	15391.36
486.25	15243.91
486.43	15669.89
486.61	15768.19
486.78	15882.88
486.96	15800.96
487.14	16365.03
487.32	16276.09
487.50	16404.81
487.68	16741.85
487.85	16634.19
488.03	16882.28
488.21	16856.54
488.39	16872.92
488.57	17027.40
488.75	17095.27
488.92	17359.75
489.10	17717.86
489.28	17584.44
489.46	17893.40
489.64	17633.60
489.81	18326.39
489.99	18345.12
490.17	18331.08
490.35	18230.43
490.53	18527.68
490.70	18675.13
490.88	18618.96
491.06	18834.29
491.24	19166.65
491.41	19187.71
491.59	19267.29
491.77	19021.53
491.95	19435.81
492.13	19538.79
492.30	19524.75
492.48	19838.38
492.66	19817.32
492.84	20144.99
493.01	20479.69
493.19	20332.23
493.37	20133.29
493.54	20360.32
493.72	20938.43
493.90	20601.40
494.08	20898.64
494.25	20580.33
494.43	20617.78
494.61	21303.56
494.79	21179.51
494.96	21509.52
495.14	21504.84
495.32	21963.59
495.49	21900.39
495.67	21668.68
495.85	22064.23
496.02	22071.25
496.20	22256.15
496.38	22434.03
496.55	22728.94
496.73	22838.95
496.91	22759.37
497.09	23264.92
497.26	22892.78
497.44	23030.87
497.62	23173.64
497.79	23597.28
497.97	23325.78
498.14	23571.54
498.32	23843.04
498.50	23798.57
498.67	24049.00
498.85	23644.09
499.03	24280.72
499.20	24393.06
499.38	24219.86
499.56	24577.97
499.73	24449.24
499.91	24786.27
500.08	24971.18
500.26	24805.00
500.44	25008.62
500.61	25083.52
500.79	24765.21
500.97	25060.12
501.14	25418.22
501.32	25596.10
501.49	25509.50
501.67	25352.68
501.84	25570.35
502.02	25816.11
502.20	25553.97
502.37	25851.22
502.55	25867.60
502.72	25940.16
502.90	26050.16
503.07	26202.30
503.25	26160.17
503.43	26111.02
503.60	26569.76
503.78	26529.97
503.95	26639.98
504.13	26785.09
504.30	26595.51
504.48	26567.42
504.65	27260.22
504.83	27386.61
505.01	26881.05
505.18	27105.74
505.36	27817.27
505.53	27171.28
505.71	27503.64
505.88	27438.10
506.06	27749.39
506.23	27552.79
506.41	27407.67
506.58	27751.73
506.76	27821.95
506.93	28093.45
507.11	27950.68
507.28	28355.59
507.46	27974.08
507.63	28584.96
507.81	28875.19
507.98	28458.57
508.16	28360.27
508.33	28528.79
508.50	28744.12
508.68	29074.13
508.85	29015.62
509.03	29151.37
509.20	28978.17
509.38	29355.00
509.55	29404.15
509.73	29434.58
509.90	29596.07
510.08	29525.86
510.25	29708.42
510.42	29584.37
510.60	30047.80
510.77	30043.12
510.95	30022.05
511.12	29757.57
511.30	30291.21
511.47	29881.62
511.64	30036.09
511.82	30558.03
511.99	30384.83
512.17	30588.46
512.34	30441.01
512.51	31091.68
512.69	30803.79
512.86	31201.68
513.04	30934.86
513.21	31016.78
513.38	31381.90
513.56	31173.60
513.73	30871.67
513.90	31278.92
514.08	31349.14
514.25	31674.47
514.43	31639.36
514.60	31728.30
514.77	31957.67
514.95	31384.24
515.12	31447.44
515.29	31826.60
515.47	32039.59
515.64	31880.44
515.81	31899.16
515.99	32261.94
516.16	32823.67
516.33	32353.23
516.51	32474.93
516.68	32390.67
516.85	32648.13
517.03	33013.26
517.20	32818.99
517.37	32903.25
517.54	32723.03
517.72	33022.62
517.89	32964.10
518.06	33118.58
518.24	33001.55
518.41	33151.35
518.58	33383.06
518.75	33287.10
518.93	33560.94
519.10	33406.47
519.27	33680.31
519.45	33738.82
519.62	33614.77
519.79	34012.66
519.96	33720.10
520.14	33837.12
520.31	33841.81
520.48	34050.11
520.65	34611.84
520.83	34085.22
521.00	34345.02
521.17	34363.75
521.34	34778.02
521.52	34974.63
521.69	34787.38
521.86	34677.38
522.03	34918.45
522.20	35482.52
522.38	35147.82
522.55	35229.74
522.72	35168.89
522.89	35119.74
523.07	35344.43
523.24	35786.79
523.41	35622.95
523.58	35491.88
523.75	36039.57
523.92	35583.16
524.10	35580.82
524.27	35964.67
524.44	35714.23
524.61	35641.68
524.78	36004.46
524.96	35688.49
525.13	36037.23
525.30	36290.01
525.47	36498.31
525.64	36198.73
525.81	36713.64
525.98	36488.95
526.16	36226.81
526.33	36865.78
526.50	36978.12
526.67	36236.17
526.84	36830.67
527.01	36744.07
527.18	37062.38
527.36	36772.16
527.53	36814.29
527.70	37191.11
527.87	37539.85
528.04	37181.75
528.21	37408.78
528.38	37158.34
528.55	37373.67
528.72	37488.36
528.89	37132.60
529.07	37338.57
529.24	37385.38
529.41	37949.45
529.58	37638.15
529.75	37296.44
529.92	37792.63
530.09	37998.60
530.26	37762.20
530.43	37647.52
530.60	37766.88
530.77	37457.93
530.94	37773.91
531.11	38529.90
531.28	38527.56
531.46	38258.40
531.63	38560.33
531.80	38284.14
531.97	38752.25
532.14	38181.16
532.31	38705.44
532.48	38689.06
532.65	38834.17
532.82	38431.60
532.99	38859.91
533.16	38920.77
533.33	38698.42
533.50	38745.23
533.67	38888.00
533.84	38939.49
534.01	39166.52
534.18	38782.68
534.35	39512.92
534.52	39292.91
534.69	39583.14
534.86	39491.86
535.03	39793.79
535.20	39634.63
535.37	39173.55
535.54	40121.46
535.71	39990.39
535.88	39934.22
536.05	39548.03
536.22	40208.06
536.38	39856.98
536.55	39927.20
536.72	40046.57
536.89	39828.90
537.06	40039.54
537.23	40177.64
537.40	39943.58
537.57	40142.53
537.74	40081.67
537.91	40912.56
538.08	40765.11
538.25	39613.57
538.42	40561.48
538.59	40612.98
538.75	40163.59
538.92	40479.57
539.09	40832.99
539.26	40650.42
539.43	40634.04
539.60	41041.29
539.77	40657.45
539.94	40907.88
540.11	41486.00
540.28	40706.60
540.44	40765.11
540.61	40818.94
540.78	40928.95
540.95	41495.36
541.12	41083.42
541.29	40957.03
541.46	41497.70
541.62	40907.88
541.79	41104.49
541.96	40339.13
542.13	41095.13
542.30	41137.26
542.47	41677.92
542.63	41656.85
542.80	41680.26
542.97	42113.26
543.14	41918.99
543.31	41799.63
543.48	41911.97
543.64	42738.18
543.81	42171.77
543.98	41610.04
544.15	42298.16
544.32	42340.29
544.48	42841.17
544.65	42307.52
544.82	42075.81
544.99	42099.22
545.16	42270.08
545.32	42361.36
545.49	42703.07
545.66	42827.12
545.83	42363.70
546.00	42955.85
546.16	42749.88
546.33	42405.83
546.50	42316.89
546.67	43105.65
546.83	42281.78
547.00	42710.10
547.17	42756.91
547.34	42829.46
547.50	43026.07
547.67	43400.55
547.84	43068.20
548.00	43283.53
548.17	43452.05
548.34	43208.63
548.51	43103.31
548.67	43393.53
548.84	43426.30
549.01	43646.31
549.18	43889.73
549.34	43491.83
549.51	43718.87
549.68	43606.52
549.84	43316.29
550.01	44039.52
550.18	43531.62
550.34	43215.65
550.51	43676.74
550.68	43906.11
550.84	43880.36
551.01	44212.72
551.18	43538.65
551.34	43964.62
551.51	43957.60
551.68	43950.58
551.84	44067.61
552.01	43859.30
552.18	43660.35
552.34	43840.57
552.51	44229.10
552.68	44083.99
552.84	44240.81
553.01	44294.64
553.18	44594.23
553.34	44701.89
553.51	44322.72
553.67	44650.40
553.84	44680.83
554.01	44858.71
554.17	44479.54
554.34	45020.20
554.51	44601.25
554.67	45179.36
554.84	44622.31
555.00	44540.39
555.17	44928.92
555.33	44821.26
555.50	45076.38
555.67	45059.99
555.83	44879.77
556.00	45226.17
556.16	45162.98
556.33	45415.76
556.50	44708.91
556.66	44704.23
556.83	45141.91
556.99	45221.49
557.16	45272.98
557.32	45495.33
557.49	45347.88
557.65	45375.97
557.82	45298.73
557.98	44999.14
558.15	45064.67
558.32	45202.77
558.48	45223.83
558.65	45317.45
558.81	45605.34
558.98	45038.93
559.14	45200.43
559.31	45474.27
559.47	45677.90
559.64	45603.00
559.80	45310.43
559.97	45984.51
560.13	45132.55
560.30	45310.43
560.46	45492.99
560.63	45804.28
560.79	45911.95
560.96	45794.92
561.12	46010.25
561.29	45837.05
561.45	45832.37
561.61	45883.86
561.78	45469.59
561.94	46167.07
562.11	45935.35
562.27	46167.07
562.44	45766.84
562.60	45961.10
562.77	45890.88
562.93	45694.28
563.10	46312.18
563.26	45968.12
563.42	46560.28
563.59	46377.72
563.75	46050.04
563.92	46153.02
564.08	46206.86
564.24	46124.94
564.41	45977.48
564.57	45921.31
564.74	46256.01
564.90	45832.37
565.07	45879.18
565.23	45879.18
565.39	46307.50
565.56	46234.94
565.72	46539.21
565.88	45951.74
566.05	46277.07
566.21	46302.82
566.38	46274.73
566.54	46375.37
566.70	46412.82
566.87	46052.38
567.03	46550.91
567.19	46894.97
567.36	45914.29
567.52	46791.99
567.68	46791.99
567.85	46185.79
568.01	46674.96
568.17	46951.15
568.34	46597.73
568.50	46836.46
568.66	46831.78
568.83	46810.71
568.99	46799.01
569.15	46557.94
569.32	46625.81
569.48	46298.14
569.64	46752.20
569.81	46892.63
569.97	46887.95
570.13	47138.39
570.30	46464.32
570.46	46909.02
570.62	46885.61
570.78	46824.76
570.95	46473.68
571.11	47026.04
571.27	46597.73
571.43	46721.77
571.60	46614.11
571.76	46672.62
571.92	47091.58
572.09	46953.49
572.25	47112.64
572.41	46469.00
572.57	47318.61
572.74	47313.93
572.90	46679.64
573.06	47054.13
573.22	47552.66
573.38	47463.72
573.55	47353.72
573.71	47342.02
573.87	46845.82
574.03	47086.90
574.20	47297.55
574.36	47002.64
574.52	47021.36
574.68	47456.70
574.84	47756.29
575.01	47636.92
575.17	47346.70
575.33	47386.49
575.49	47201.58
575.65	47222.65
575.82	47264.78
575.98	46923.06
576.14	47571.39
576.30	47203.92
576.46	47302.23
576.62	46876.25
576.79	47374.78
576.95	47009.66
577.11	47026.04
577.27	47665.01
577.43	47281.16
577.59	47138.39
577.75	47072.85
577.92	46773.27
578.08	46944.12
578.24	47358.40
578.40	47545.64
578.56	47290.52
578.72	47098.60
578.88	46925.40
579.04	47229.67
579.21	47466.06
579.37	47316.27
579.53	47346.70
579.69	46965.19
579.85	47124.35
580.01	47299.89
580.17	47164.14
580.33	47400.53
580.49	47349.04
580.65	47391.17
580.82	47131.37
580.98	47061.15
581.14	47246.05
581.30	47468.40
581.46	47498.83
581.62	47093.92
581.78	47386.49
581.94	47760.97
582.10	47543.30
582.26	47936.51
582.42	47344.36
582.58	47531.60
582.74	47264.78
582.90	47793.74
583.06	47683.73
583.22	47697.78
583.38	47147.75
583.54	47629.90
583.70	47489.47
583.86	47859.27
584.02	47260.10
584.18	47606.50
584.34	47749.27
584.50	47730.54
584.66	47391.17
584.82	47342.02
584.98	47943.53
585.14	47522.24
585.30	47435.64
585.46	47814.80
585.62	47323.29
585.78	47650.97
585.94	47531.60
586.10	47667.35
586.26	47580.75
586.42	47381.80
586.58	47910.77
586.74	47772.67
586.90	47540.96
587.06	47784.38
587.22	47625.22
587.38	47648.63
587.54	47721.18
587.70	47950.56
587.86	47360.74
588.02	47704.80
588.18	47622.88
588.34	47636.92
588.49	47618.20
588.65	47693.10
588.81	47789.06
588.97	47767.99
589.13	47679.05
589.29	47707.14
589.45	47639.26
589.61	47760.97
589.77	47870.98
589.93	47440.32
590.08	47941.19
590.24	48037.16
590.40	48659.74
590.56	48385.89
590.72	48278.23
590.88	47646.29
591.04	47672.03
591.20	48025.45
591.35	48442.07
591.51	48409.30
591.67	48416.32
591.83	47990.34
591.99	48009.07
592.15	48093.33
592.31	47358.40
592.46	47983.32
592.62	48032.47
592.78	48301.64
592.94	48416.32
593.10	48477.18
593.26	48467.81
593.41	48266.53
593.57	48582.50
593.73	48273.55
593.89	48306.32
594.05	48708.89
594.20	48292.27
594.36	48421.00
594.52	48102.69
594.68	48292.27
594.84	47817.14
594.99	48610.59
595.15	48378.87
595.31	48278.23
595.47	48285.25
595.62	48275.89
595.78	48142.48
595.94	48343.77
596.10	48175.25
596.25	48128.44
596.41	48425.68
596.57	48385.89
596.73	48247.80
596.88	48502.92
597.04	47772.67
597.20	48573.14
597.36	48238.44
597.51	48725.27
597.67	48404.62
597.83	48404.62
597.99	48172.91
598.14	48303.98
598.30	48669.10
598.46	48718.25
598.61	48865.70
598.77	48685.48
598.93	48563.78
599.09	48072.26
599.24	48697.19
599.40	48542.71
599.56	48823.58
599.71	48800.17
599.87	49106.78
600.03	48753.36
600.18	48748.68
600.34	48692.50
600.50	48601.22
600.65	48413.98
600.81	48580.16
600.97	48547.39
601.12	48467.81
601.28	48563.78
601.44	48739.32
601.59	48112.05
601.75	48329.72
601.91	48470.15
602.06	48643.35
602.22	48552.07
602.37	48158.86
602.53	48231.42
602.69	48465.47
602.84	48114.39
603.00	48217.38
603.16	48435.05
603.31	48652.72
603.47	48973.37
603.62	48364.83
603.78	48830.60
603.94	48612.93
604.09	48755.70
604.25	48502.92
604.40	48442.07
604.56	48542.71
604.71	48142.48
604.87	48189.29
605.03	48301.64
605.18	48687.82
605.34	48809.53
605.49	48245.46
605.65	48753.36
605.80	48423.34
605.96	48332.06
606.12	48355.47
606.27	48521.65
606.43	48018.43
606.58	48346.11
606.74	48184.61
606.89	48226.74
607.05	48552.07
607.20	48704.21
607.36	48306.32
607.51	48416.32
607.67	47704.80
607.82	48397.60
607.98	48186.95
608.13	48095.67
608.29	48507.60
608.44	48196.31
608.60	48215.04
608.75	48208.01
608.91	48477.18
609.06	48055.88
609.22	48449.09
609.37	47730.54
609.53	48493.56
609.68	48409.30
609.84	48200.99
609.99	48353.13
610.15	48392.92
610.30	48549.73
610.46	48236.10
610.61	48088.65
610.76	48343.77
610.92	48406.96
611.07	48179.93
611.23	47725.86
611.38	48144.82
611.54	48271.21
611.69	48172.91
611.84	48189.29
612.00	48002.05
612.15	47798.42
612.31	47889.70
612.46	47791.40
612.62	47938.85
612.77	47894.38
612.92	48303.98
613.08	47784.38
613.23	47817.14
613.39	47688.42
613.54	48011.41
613.69	47690.76
613.85	47901.40
614.00	47866.30
614.15	47983.32
614.31	47861.61
614.46	47583.09
614.62	47515.22
614.77	47615.86
614.92	47571.39
615.08	47484.79
615.23	47627.56
615.38	47311.59
615.54	47480.11
615.69	47875.66
615.84	47838.21
616.00	47908.43
616.15	47784.38
616.30	47599.47
616.46	47597.13
616.61	47856.93
616.76	47744.59
616.92	47349.04
617.07	47276.48
617.22	47526.92
617.37	47140.73
617.53	47229.67
617.68	47323.29
617.83	47224.99
617.99	47475.43
618.14	47927.15
618.29	47040.09
618.45	47047.11
618.60	47295.21
618.75	46988.60
618.90	47049.45
619.06	47208.61
619.21	47295.21
619.36	47496.49
619.51	46990.94
619.67	47065.83
619.82	47173.50
619.97	47618.20
620.12	47299.89
620.28	46745.18
620.43	47442.66
620.58	47468.40
620.73	46925.40
620.89	47480.11
621.04	47098.60
621.19	46857.52
621.34	47175.84
621.49	46960.51
621.65	46855.18
621.80	47000.30
621.95	47058.81
622.10	47339.68
622.25	46429.21
622.41	47040.09
622.56	46869.23
622.71	47009.66
622.86	46569.64
623.01	46813.05
623.16	46705.39
623.32	46969.87
623.47	47056.47
623.62	46719.43
623.77	46789.65
623.92	46740.50
624.07	46866.89
624.23	46354.31
624.38	46649.22
624.53	46522.83
624.68	46548.57
624.83	46375.37
624.98	46719.43
625.13	46192.81
625.29	46602.41
625.44	46241.96
625.59	46342.61
625.74	46445.59
625.89	46122.60
626.04	46258.35
626.19	46443.25
626.34	45937.69
626.49	45794.92
626.65	46373.03
626.80	46082.81
626.95	46164.73
627.10	45986.85
627.25	46412.82
627.40	46464.32
627.55	46679.64
627.70	46300.48
627.85	46274.73
628.00	46560.28
628.15	46019.61
628.30	45813.65
628.45	45703.64
628.60	45947.06
628.76	45879.18
628.91	45794.92
629.06	45567.89
629.21	45511.72
629.36	45595.98
629.51	45701.30
629.66	46040.68
629.81	45902.59
629.96	46073.45
630.11	45937.69
630.26	45713.00
630.41	45612.36
630.56	45397.03
630.71	45476.61
630.86	45069.36
631.01	45666.19
631.16	45336.18
631.31	45542.14
631.46	45504.70
631.61	45752.79
631.76	45546.82
631.91	45448.52
632.06	45813.65
632.21	45867.48
632.36	45659.17
632.51	44959.35
632.66	45764.49
632.81	44992.12
632.96	45329.16
633.10	45261.28
633.25	45305.75
633.40	45212.13
633.55	45516.40
633.70	45148.93
633.85	45088.08
634.00	44947.65
634.15	45219.15
634.30	44928.92
634.45	45038.93
634.60	45202.77
634.75	45010.84
634.90	44891.48
635.05	44996.80
635.19	45212.13
635.34	45289.37
635.49	44772.11
635.64	45244.90
635.79	45055.31
635.94	44942.97
636.09	45352.56
636.24	44863.39
636.39	44907.86
636.53	44811.90
636.68	44364.85
636.83	44332.09
636.98	44493.58
637.13	44194.00
637.28	44444.43
637.43	44540.39
637.57	44954.67
637.72	44128.46
637.87	44130.80
638.02	44552.10
638.17	44402.30
638.32	44011.43
638.46	44041.86
638.61	44261.87
638.76	43957.60
638.91	44210.38
639.06	44149.53
639.20	43859.30
639.35	43957.60
639.50	43772.70
639.65	44243.15
639.80	44102.71
639.94	44130.80
640.09	44154.21
640.24	44619.97
640.39	43681.42
640.54	43789.08
640.68	44130.80
640.83	44203.36
640.98	44041.86
641.13	44315.70
641.27	44205.70
641.42	44002.07
641.57	43529.28
641.72	43880.36
641.86	43789.08
642.01	43880.36
642.16	43433.32
642.31	43262.46
642.45	43739.93
642.60	43524.60
642.75	43519.92
642.90	43854.62
643.04	43569.07
643.19	43578.43
643.34	43550.35
643.48	42777.97
643.63	43454.39
643.78	43604.18
643.93	43435.66
644.07	43318.64
644.22	43281.19
644.37	42806.06
644.51	43012.02
644.66	43264.80
644.81	43133.73
644.95	43217.99
645.10	43449.70
645.25	43082.24
645.39	43363.11
645.54	43468.43
645.69	43115.01
645.83	43021.39
645.98	43075.22
646.13	43131.39
646.27	43199.27
646.42	42965.21
646.57	43253.10
646.71	43079.90
646.86	43150.12
647.00	43042.45
647.15	42810.74
647.30	42735.84
647.44	42831.80
647.59	42333.27
647.74	42827.12
647.88	42883.30
648.03	42990.96
648.17	43002.66
648.32	42951.17
648.47	43068.20
648.61	42623.50
648.76	42815.42
648.90	42724.14
649.05	42621.16
649.20	42532.22
649.34	42824.78
649.49	42419.87
649.63	42993.30
649.78	42689.03
649.92	42796.70
650.07	43077.56
650.21	42382.42
650.36	43054.15
650.51	42387.10
650.65	42459.66
650.80	42511.15
650.94	42621.16
651.09	42424.55
651.23	41944.74
651.38	42298.16
651.52	42113.26
651.67	42150.71
651.81	41897.93
651.96	42408.17
652.10	41661.54
652.25	41858.14
652.39	41923.68
652.54	42237.31
652.68	41872.18
652.83	41886.23
652.97	42267.73
653.12	41958.78
653.26	41933.04
653.41	41820.69
653.55	42291.14
653.70	41647.49
653.84	42059.43
653.99	42106.24
654.13	41731.75
654.27	41537.49
654.42	42232.63
654.56	41069.38
654.71	41593.66
654.85	41926.02
655.00	41780.90
655.14	41741.11
655.29	42188.16
655.43	42148.37
655.57	41776.22
655.72	41249.60
655.86	41308.11
656.01	41352.58
656.15	41254.28
656.30	41282.37
656.44	41614.72
656.58	41816.01
656.73	41034.27
656.87	41577.28
657.01	41368.97
657.16	41528.13
657.30	40877.46
657.45	41060.02
657.59	40807.24
657.73	41060.02
657.88	40989.80
658.02	41184.07
658.16	41148.96
658.31	40928.95
658.45	41759.84
658.60	40598.93
658.74	41354.93
658.88	41029.59
659.03	40781.49
659.17	40287.64
659.31	40680.85
659.46	40540.42
659.60	40727.66
659.74	40769.79
659.89	40212.74
660.03	40133.17
660.17	40451.48
660.32	40261.90
660.46	40502.97
660.60	39871.03
660.74	40203.38
660.89	40229.13
661.03	40210.40
661.17	39859.32
661.32	39915.50
661.46	39880.39
661.60	39917.84
661.74	39768.04
661.89	40072.31
662.03	40098.06
662.17	39728.25
662.31	39646.33
662.46	39676.76
662.60	39786.77
662.74	39358.45
662.88	39072.90
663.03	39124.40
663.17	38721.82
663.31	38738.21
663.45	39026.09
663.60	39533.99
663.74	39625.27
663.88	38979.28
664.02	38733.53
664.17	39164.18
664.31	38581.39
664.45	38689.06
664.59	38637.56
664.73	38677.35
664.88	38822.47
665.02	38476.07
665.16	38515.86
665.30	38440.96
665.44	38181.16
665.59	38040.73
665.73	38447.98
665.87	37872.21
666.01	37797.31
666.15	38354.36
666.29	38623.52
666.44	38375.42
666.58	38471.39
666.72	38050.09
666.86	37979.87
667.00	37507.08
667.14	38022.00
667.28	38052.43
667.43	37663.90
667.57	37736.46
667.71	37715.39
667.85	37663.90
667.99	37874.55
668.13	37383.04
668.27	37219.20
668.41	37404.10
668.56	37095.15
668.70	37123.24
668.84	36854.08
668.98	36807.26
669.12	37113.87
669.26	37291.76
669.40	36914.93
669.54	37043.66
669.68	36779.18
669.82	36692.58
669.96	36332.14
670.10	36271.28
670.25	36081.70
670.39	36348.52
670.53	36135.53
670.67	36348.52
670.81	36505.34
670.95	36308.73
671.09	35873.39
671.23	36107.44
671.37	36371.92
671.51	35683.81
671.65	35653.38
671.79	35817.22
671.93	36126.17
672.07	35842.96
672.21	35756.36
672.35	35508.27
672.49	35646.36
672.63	35508.27
672.77	35349.11
672.91	35536.35
673.05	35267.19
673.19	34752.27
673.33	34883.34
673.47	34995.69
673.61	34906.75
673.75	34749.93
673.89	34483.11
674.03	34445.66
674.17	34314.59
674.31	34309.91
674.45	34129.69
674.59	34106.29
674.73	33954.15
674.87	33708.40
675.01	33680.31
675.15	33553.92
675.29	33268.37
675.43	33589.03
675.56	34267.78
675.70	33600.73
675.84	33383.06
675.98	32730.05
676.12	33443.91
676.26	33900.32
676.40	33322.21
676.54	32877.51
676.68	33160.71
676.82	32591.96
676.96	32760.48
677.10	33001.55
677.23	32638.77
677.37	32425.78
677.51	32402.38
677.65	32119.17
677.79	32348.54
677.93	32240.88
678.07	32217.47
678.21	31882.78
678.34	31964.70
678.48	31395.95
678.62	31592.55
678.76	31728.30
678.90	31426.37
679.04	31496.59
679.18	31370.20
679.31	31016.78
679.45	31157.21
679.59	30661.02
679.73	31168.91
679.87	30801.45
680.00	30611.87
680.14	30881.03
680.28	30583.78
680.42	30841.24
680.56	30501.86
680.70	30110.99
680.83	29603.10
680.97	29720.12
681.11	30195.25
681.25	29565.65
681.39	29593.73
681.52	29488.41
681.66	29214.57
681.80	28779.23
681.94	28835.40
682.07	28755.82
682.21	28922.00
682.35	28903.28
682.49	28978.17
682.62	28769.86
682.76	28563.90
682.90	28430.49
683.04	28903.28
683.17	28671.56
683.31	28041.96
683.45	27651.09
683.59	27978.76
683.72	27882.80
683.86	28030.26
684.00	27573.85
684.13	27658.11
684.27	27494.27
684.41	27433.42
684.55	27328.10
684.68	27267.24
684.82	27185.32
684.96	27274.26
685.09	26761.69
685.23	27211.07
685.37	27112.77
685.50	27065.96
685.64	26911.48
685.78	26698.49
685.91	26911.48
686.05	25912.07
686.19	26115.70
686.32	26375.50
686.46	25951.86
686.60	25687.38
686.73	26061.87
686.87	25687.38
687.01	25963.56
687.14	25865.26
687.28	25521.20
687.42	25200.55
687.55	25378.43
687.69	25455.67
687.82	25099.90
687.96	25116.29
688.10	24978.20
688.23	25392.47
688.37	24985.22
688.50	24992.24
688.64	24870.53
688.78	24671.59
688.91	24650.52
689.05	24219.86
689.18	24126.24
689.32	23718.99
689.46	23803.25
689.59	23896.87
689.73	24229.23
689.86	24226.89
690.00	23798.57
690.13	23810.27
690.27	23300.03
690.41	23618.35
690.54	23377.27
690.68	23608.98
690.81	23108.11
690.95	23040.23
691.08	22860.01
691.22	22892.78
691.35	22434.03
691.49	23019.17
691.62	22764.05
691.76	22253.81
691.89	22197.64
692.03	21827.84
692.16	21830.18
692.30	21869.97
692.43	22120.40
692.57	21926.14
692.70	21682.72
692.84	21979.97
692.97	21507.18
693.11	21254.40
693.24	21369.09
693.38	21020.35
693.51	21394.84
693.65	21369.09
693.78	20826.09
693.92	20882.26
694.05	20711.40
694.19	20900.98
694.32	20650.55
694.45	20781.62
694.59	20821.41
694.72	20664.59
694.86	20369.68
694.99	20273.72
695.13	20250.32
695.26	20037.33
695.39	19761.14
695.53	20013.92
695.66	20084.14
695.80	19847.74
695.93	19714.33
696.07	19393.68
696.20	19136.22
696.33	19047.28
696.47	19185.37
696.60	18857.70
696.73	19019.19
696.87	19094.09
697.00	19054.30
697.14	19051.96
697.27	18719.60
697.40	18628.32
697.54	18745.35
697.67	18576.83
697.80	18394.27
697.94	18539.38
698.07	18452.78
698.21	18321.71
698.34	18324.05
698.47	17741.26
698.61	17818.50
698.74	17846.58
698.87	17528.27
699.01	17607.85
699.14	17369.12
699.27	17453.37
699.40	17589.13
699.54	17575.08
699.67	17535.29
699.80	17275.49
699.94	17081.23
700.07	17078.89
700.20	17097.61
700.34	16849.52
700.47	16950.16
700.60	17132.72
700.73	16788.66
700.87	16585.04
701.00	16542.91
701.13	16250.34
701.26	15992.88
701.40	16201.19
701.53	16161.40
701.66	16313.53
701.79	16060.76
701.93	15852.45
702.06	15887.56
702.19	15309.44
702.32	15845.43
702.46	15623.08
702.59	15520.09
702.72	15611.37
702.85	15758.83
702.99	15508.39
703.12	15370.30
703.25	15019.22
703.38	15073.05
703.51	14855.38
703.65	14979.43
703.78	14714.95
703.91	14647.07
704.04	14483.24
704.17	14633.03
704.31	14677.50
704.44	14661.12
704.57	14445.79
704.70	14366.21
704.83	14258.54
704.96	14225.78
705.10	14171.94
705.23	13928.53
>>>>>End Processed Spectral Data<<<<<
