SpectraSuite Data File
++++++++++++++++++++++++++++++++++++
Date: Fri Oct 25 10:44:16 EDT 2013
User: price-jones
Dark Spectrum Present: No
Reference Spectrum Present: No
Number of Sampled Component Spectra: 1
Spectrometers: USB2+H05261
Integration Time (usec): 100000 (USB2+H05261)
Spectra Averaged: 1 (USB2+H05261)
Boxcar Smoothing: 0 (USB2+H05261)
Correct for Electrical Dark: No (USB2+H05261)
Strobe/Lamp Enabled: No (USB2+H05261)
Correct for Detector Non-linearity: No (USB2+H05261)
Correct for Stray Light: No (USB2+H05261)
Number of Pixels in Processed Spectrum: 2048
>>>>>Begin Processed Spectral Data<<<<<
365.73	135.75
365.92	135.75
366.12	135.75
366.32	0.00
366.52	0.00
366.72	21.06
366.91	72.56
367.11	60.85
367.31	63.19
367.51	0.00
367.70	0.00
367.90	7.02
368.10	0.00
368.30	18.72
368.49	53.83
368.69	74.90
368.89	77.24
369.09	126.39
369.28	18.72
369.48	51.49
369.68	37.45
369.87	135.75
370.07	65.54
370.27	102.98
370.47	133.41
370.66	367.46
370.86	411.93
371.06	421.30
371.25	507.90
371.45	456.40
371.65	409.59
371.84	447.04
372.04	519.60
372.24	465.77
372.44	538.32
372.63	437.68
372.83	505.56
373.03	561.73
373.22	496.19
373.42	606.20
373.62	603.86
373.81	491.51
374.01	564.07
374.21	575.77
374.40	617.90
374.60	547.69
374.79	603.86
374.99	564.07
375.19	624.92
375.38	603.86
375.58	594.50
375.78	606.20
375.97	564.07
376.17	648.33
376.37	620.24
376.56	660.03
376.76	538.32
376.95	620.24
377.15	615.56
377.35	718.54
377.54	594.50
377.74	657.69
377.93	608.54
378.13	667.05
378.33	664.71
378.52	699.82
378.72	767.70
378.91	697.48
379.11	648.33
379.31	657.69
379.50	638.97
379.70	741.95
379.89	746.63
380.09	730.25
380.28	716.20
380.48	732.59
380.68	704.50
380.87	650.67
381.07	641.31
381.26	744.29
381.46	791.10
381.65	662.37
381.85	716.20
382.04	690.46
382.24	737.27
382.43	681.10
382.63	681.10
382.83	667.05
383.02	702.16
383.22	793.44
383.41	716.20
383.61	751.31
383.80	833.23
384.00	760.67
384.19	805.14
384.39	779.40
384.58	833.23
384.78	774.72
384.97	760.67
385.17	741.95
385.36	737.27
385.56	807.48
385.75	828.55
385.95	823.87
386.14	870.68
386.34	882.38
386.53	835.57
386.72	823.87
386.92	889.40
387.11	903.45
387.31	898.77
387.50	837.91
387.70	788.76
387.89	856.64
388.09	835.57
388.28	866.00
388.48	877.70
388.67	887.06
388.86	873.02
389.06	903.45
389.25	987.71
389.45	999.41
389.64	891.74
389.84	1046.22
390.03	964.30
390.22	1036.86
390.42	1039.20
390.61	994.73
390.81	1081.33
391.00	1011.11
391.19	1039.20
391.39	1027.50
391.58	1025.15
391.78	1011.11
391.97	1048.56
392.16	947.92
392.36	1123.46
392.55	1025.15
392.75	990.05
392.94	957.28
393.13	1022.81
393.33	1029.84
393.52	1032.18
393.71	1046.22
393.91	1086.01
394.10	1137.50
394.29	1097.71
394.49	1149.20
394.68	1277.93
394.88	1214.74
395.07	1219.42
395.26	1188.99
395.46	1268.57
395.65	1191.33
395.84	1156.22
396.04	1280.27
396.23	1146.86
396.42	1116.44
396.62	1174.95
396.81	1261.55
397.00	1214.74
397.19	1231.12
397.39	1270.91
397.58	1334.11
397.77	1432.41
397.97	1411.34
398.16	1399.64
398.35	1488.58
398.55	1474.54
398.74	1507.30
398.93	1519.01
399.12	1476.88
399.32	1493.26
399.51	1519.01
399.70	1619.65
399.90	1514.33
400.09	1540.07
400.28	1647.74
400.47	1556.46
400.67	1636.03
400.86	1753.06
401.05	1661.78
401.24	1614.97
401.44	1713.27
401.63	1717.95
401.82	1687.53
402.01	1694.55
402.21	1729.66
402.40	1727.32
402.59	1720.29
402.78	1741.36
402.97	1823.28
403.17	1856.04
403.36	1771.79
403.55	1818.60
403.74	1900.52
403.93	1799.87
404.13	1783.49
404.32	1865.41
404.51	1949.67
404.70	1928.60
404.89	1858.39
405.09	1930.94
405.28	1928.60
405.47	1858.39
405.66	1909.88
405.85	1973.07
406.05	2106.48
406.24	1998.82
406.43	2078.40
406.62	2113.50
406.81	2176.70
407.00	2054.99
407.20	2038.61
407.39	2052.65
407.58	2090.10
407.77	2106.48
407.96	2134.57
408.15	2125.21
408.34	2279.68
408.54	2228.19
408.73	2160.31
408.92	2279.68
409.11	2165.00
409.30	2195.42
409.49	2242.23
409.68	2242.23
409.87	2249.25
410.07	2298.41
410.26	2359.26
410.45	2380.32
410.64	2443.52
410.83	2553.52
411.02	2595.65
411.21	2590.97
411.40	2588.63
411.59	2691.62
411.78	2595.65
411.98	2600.34
412.17	2520.76
412.36	2773.53
412.55	2705.66
412.74	2661.19
412.93	2726.72
413.12	2677.57
413.31	2850.77
413.50	2810.98
413.69	2796.94
413.88	2888.22
414.07	2792.26
414.26	2981.84
414.45	2974.82
414.64	2920.99
414.83	2972.48
415.02	2953.76
415.22	2995.89
415.41	3122.27
415.60	3124.62
415.79	3070.78
415.98	3218.24
416.17	3155.04
416.36	3178.45
416.55	3208.87
416.74	3159.72
416.93	3192.49
417.12	3262.71
417.31	3304.84
417.50	3391.44
417.69	3321.22
417.88	3461.65
418.07	3370.37
418.26	3431.23
418.45	3506.12
418.64	3513.14
418.83	3562.30
419.02	3590.38
419.21	3569.32
419.39	3562.30
419.58	3566.98
419.77	3550.59
419.96	3698.05
420.15	3672.30
420.34	3590.38
420.53	3719.11
420.72	3721.45
420.91	3840.82
421.10	3822.09
421.29	3810.39
421.48	3896.99
421.67	3789.33
421.86	3691.02
422.05	3824.44
422.24	3756.56
422.43	3854.86
422.61	3857.20
422.80	3868.91
422.99	3866.56
423.18	3925.08
423.37	3817.41
423.56	3899.33
423.75	4011.68
423.94	3878.27
424.13	3852.52
424.32	3908.69
424.50	3969.55
424.69	3983.59
424.88	3918.06
425.07	3864.22
425.26	4014.02
425.45	3850.18
425.64	3896.99
425.83	3925.08
426.01	4154.45
426.20	4011.68
426.39	4046.79
426.58	4105.30
426.77	3915.72
426.96	3929.76
427.15	3976.57
427.33	4159.13
427.52	4091.26
427.71	4065.51
427.90	4252.75
428.09	4149.77
428.28	3946.14
428.46	4163.81
428.65	4194.24
428.84	4112.32
429.03	4241.05
429.22	4081.89
429.40	4140.41
429.59	4208.28
429.78	3850.18
429.97	4042.11
430.16	3999.98
430.34	4004.66
430.53	4229.35
430.72	4243.39
430.91	4180.20
431.10	4222.33
431.28	4568.73
431.47	4500.85
431.66	4624.90
431.85	4465.74
432.03	4660.01
432.22	4582.77
432.41	4503.19
432.60	4741.93
432.79	4744.27
432.97	4830.87
433.16	4678.73
433.35	4634.26
433.54	4524.26
433.72	4678.73
433.91	4589.79
434.10	4620.22
434.28	4697.46
434.47	4795.76
434.66	4968.96
434.85	4823.84
435.03	4912.78
435.22	4966.62
435.41	5011.09
435.59	4968.96
435.78	5095.35
435.97	5210.03
436.16	5158.54
436.34	5039.17
436.53	5085.98
436.72	5235.78
436.90	5069.60
437.09	5240.46
437.28	5034.49
437.46	5203.01
437.65	5163.22
437.84	5125.77
438.02	5177.26
438.21	5191.31
438.40	5172.58
438.58	5121.09
438.77	5593.88
438.96	5423.02
439.14	5413.66
439.33	5483.88
439.52	5549.41
439.70	5619.63
439.89	5631.33
440.08	5603.24
440.26	5568.13
440.45	5488.56
440.63	5940.28
440.82	6003.47
441.01	5928.58
441.19	5877.09
441.38	6171.99
441.57	6085.39
441.75	6078.37
441.94	6153.27
442.12	6099.44
442.31	6377.96
442.50	6399.02
442.68	6310.08
442.87	6417.75
443.05	6408.39
443.24	6431.79
443.43	6492.65
443.61	6352.21
443.80	6642.44
443.98	6399.02
444.17	6246.89
444.35	6527.75
444.54	6525.41
444.73	6340.51
444.91	6420.09
445.10	6431.79
445.28	6513.71
445.47	6506.69
445.65	6305.40
445.84	6523.07
446.02	6635.42
446.21	6462.22
446.39	6558.18
446.58	6644.78
446.77	6534.78
446.95	6628.40
447.14	6686.91
447.32	6808.62
447.51	6551.16
447.69	6471.58
447.88	6803.94
448.06	6761.81
448.25	6747.76
448.43	6693.93
448.62	6733.72
448.80	6682.23
448.99	6780.53
449.17	6743.08
449.36	6902.24
449.54	6916.28
449.73	7138.63
449.91	6937.35
450.10	7138.63
450.28	7258.00
450.46	7187.79
450.65	7185.44
450.83	7344.60
451.02	7103.53
451.20	7194.81
451.39	7283.75
451.57	6960.75
451.76	7218.21
451.94	7178.42
452.13	7169.06
452.31	7204.17
452.49	7164.38
452.68	7255.66
452.86	7227.57
453.05	7321.20
453.23	7480.35
453.42	7372.69
453.60	7325.88
453.78	7461.63
453.97	7379.71
454.15	7440.56
454.34	7382.05
454.52	7534.18
454.70	7445.24
454.89	7311.83
455.07	7573.97
455.26	7651.21
455.44	7854.84
455.62	7611.42
455.81	7754.19
455.99	7918.03
456.17	8128.68
456.36	7737.81
456.54	8028.04
456.73	7805.69
456.91	8116.98
457.09	8138.04
457.28	8280.82
457.46	7971.86
457.64	8098.25
457.83	8175.49
458.01	8077.19
458.19	8423.59
458.38	8210.60
458.56	8245.71
458.74	8294.86
458.93	8229.32
459.11	8177.83
459.29	8231.66
459.48	8482.10
459.66	8430.61
459.84	8379.12
460.03	8659.98
460.21	8554.66
460.39	8702.11
460.57	8526.57
460.76	8643.60
460.94	8564.02
461.12	8683.39
461.31	8659.98
461.49	8772.33
461.67	8844.88
461.85	8819.14
462.04	8903.40
462.22	8990.00
462.40	8737.22
462.59	8847.22
462.77	8915.10
462.95	8954.89
463.13	8912.76
463.32	8837.86
463.50	9046.17
463.68	9088.30
463.86	9224.05
464.05	8903.40
464.23	8877.65
464.41	9039.15
464.59	8765.31
464.78	9053.19
464.96	9069.58
465.14	9156.18
465.32	9146.81
465.50	9252.14
465.69	9502.58
465.87	9240.44
466.05	9078.94
466.23	9111.71
466.41	9102.34
466.60	9308.31
466.78	8950.21
466.96	9226.39
467.14	9177.24
467.32	9488.53
467.51	9654.71
467.69	9385.55
467.87	9551.73
468.05	9331.72
468.23	9184.26
468.41	9345.76
468.60	9411.29
468.78	9308.31
468.96	9661.73
469.14	9905.15
469.32	9563.43
469.50	9462.79
469.69	9760.03
469.87	9678.12
470.05	9741.31
470.23	9909.83
470.41	9741.31
470.59	9944.94
470.77	9729.61
470.95	9701.52
471.14	10417.72
471.32	10040.90
471.50	10340.49
471.68	10139.20
471.86	10431.77
472.04	10256.23
472.22	10560.50
472.40	10136.86
472.58	10363.89
472.77	10530.07
472.95	10604.97
473.13	10864.77
473.31	10434.11
473.49	10532.41
473.67	10731.36
473.85	10771.15
474.03	10960.73
474.21	10942.00
474.39	11250.96
474.57	11194.78
474.75	11087.12
474.93	11325.85
475.12	11136.27
475.30	11192.44
475.48	11246.27
475.66	11026.26
475.84	11335.21
476.02	11421.81
476.20	11433.52
476.38	11613.74
476.56	12049.08
476.74	11812.68
476.92	11763.53
477.10	11845.45
477.28	12035.03
477.46	11892.26
477.64	12395.48
477.82	12386.12
478.00	12608.47
478.18	12446.97
478.36	12400.16
478.54	12758.26
478.72	12353.35
478.90	12931.46
479.08	13004.02
479.26	13231.05
479.44	13144.45
479.62	13116.36
479.80	13366.80
479.98	13479.15
480.16	13689.79
480.34	13745.97
480.52	13837.25
480.70	13750.65
480.88	13776.39
481.06	13956.61
481.24	13862.99
481.41	14202.37
481.59	14401.32
481.77	14417.70
481.95	14356.85
482.13	14445.79
482.31	14551.11
482.49	14862.40
482.67	14956.02
482.85	14850.70
483.03	15309.44
483.21	15508.39
483.39	15501.37
483.57	15164.33
483.74	15169.01
483.92	15770.53
484.10	15367.96
484.28	15618.39
484.46	16053.73
484.64	16264.38
484.82	16182.46
485.00	16070.12
485.18	16360.34
485.35	16350.98
485.53	16201.19
485.71	16348.64
485.89	16528.86
486.07	16540.57
486.25	16559.29
486.43	16856.54
486.61	16919.73
486.78	17137.40
486.96	17177.19
487.14	17912.12
487.32	17481.46
487.50	17879.35
487.68	17877.01
487.85	18443.42
488.03	18541.72
488.21	18771.10
488.39	18649.39
488.57	18728.97
488.75	18677.48
488.92	19159.63
489.10	19463.90
489.28	19552.84
489.46	19473.26
489.64	19529.43
489.81	19896.89
489.99	20231.59
490.17	19695.61
490.35	20390.75
490.53	20357.98
490.70	20182.44
490.88	20573.31
491.06	21231.00
491.24	20517.14
491.41	20542.88
491.59	20868.22
491.77	20872.90
491.95	20966.52
492.13	21296.53
492.30	21329.30
492.48	21514.20
492.66	21624.21
492.84	22057.21
493.01	22019.76
493.19	21926.14
493.37	22094.66
493.54	22038.48
493.72	22628.30
493.90	22647.02
494.08	22719.58
494.25	23129.17
494.43	23091.73
494.61	23370.25
494.79	23585.58
494.96	23571.54
495.14	23459.19
495.32	23676.86
495.49	23768.14
495.67	23875.80
495.85	23927.30
496.02	24128.58
496.20	24088.79
496.38	24435.19
496.55	24428.17
496.73	24910.32
496.91	24662.22
497.09	24842.45
497.26	25301.19
497.44	24877.55
497.62	25165.44
497.79	25348.00
497.97	25085.86
498.14	25675.68
498.32	25975.27
498.50	25441.62
498.67	26094.63
498.85	26270.17
499.03	26366.13
499.20	26162.51
499.38	26127.40
499.56	26335.71
499.73	26520.61
499.91	26647.00
500.08	26700.83
500.26	26192.94
500.44	26733.60
500.61	26541.68
500.79	26700.83
500.97	26960.63
501.14	27185.32
501.32	26771.05
501.49	27213.41
501.67	27075.32
501.84	27459.16
502.02	27454.48
502.20	27690.88
502.37	27777.48
502.55	27796.20
502.72	27866.42
502.90	28121.54
503.07	28114.52
503.25	28444.53
503.43	27868.76
503.60	28100.47
503.78	28222.18
503.95	28297.08
504.13	28463.25
504.30	28381.34
504.48	28479.64
504.65	29109.24
504.83	29116.26
505.01	29120.95
505.18	28620.07
505.36	29303.51
505.53	29406.49
505.71	29415.85
505.88	29825.45
506.06	29099.88
506.23	29961.20
506.41	29888.64
506.58	29741.19
506.76	29750.55
506.93	30036.09
507.11	29935.45
507.28	29883.96
507.46	29919.07
507.63	29867.58
507.81	30099.29
507.98	29888.64
508.16	29862.90
508.33	30497.18
508.50	30604.84
508.68	31056.57
508.85	31304.67
509.03	30862.30
509.20	31215.72
509.38	31232.11
509.55	31152.53
509.73	31332.75
509.90	31707.24
510.08	31133.81
510.25	31501.27
510.42	31267.22
510.60	31840.65
510.77	32224.50
510.95	31510.63
511.12	31800.86
511.30	32053.64
511.47	32903.25
511.64	32542.81
511.82	32503.02
511.99	31798.52
512.17	32231.52
512.34	32023.21
512.51	32547.49
512.69	32774.52
512.86	32596.64
513.04	32601.32
513.21	33013.26
513.38	32767.50
513.56	32692.60
513.73	32730.05
513.90	33230.93
514.08	32833.04
514.25	32849.42
514.43	33294.12
514.60	33165.39
514.77	33584.35
514.95	33565.62
515.12	33373.70
515.29	33942.45
515.47	34050.11
515.64	34068.84
515.81	33919.04
515.99	34026.71
516.16	33717.76
516.33	33755.21
516.51	33720.10
516.68	33383.06
516.85	33268.37
517.03	33715.42
517.20	33965.85
517.37	34443.32
517.54	34115.65
517.72	34284.17
517.89	34195.23
518.06	33715.42
518.24	34230.33
518.41	34389.49
518.58	34565.03
518.75	34590.78
518.93	34979.31
519.10	34497.16
519.27	34518.22
519.45	34881.00
519.62	34946.54
519.79	35173.57
519.96	35187.61
520.14	35739.98
520.31	35587.85
520.48	35667.42
520.65	35061.22
520.83	35770.41
521.00	35590.19
521.17	35974.03
521.34	35674.45
521.52	35983.40
521.69	36378.95
521.86	36397.67
522.03	36285.33
522.20	36264.26
522.38	36669.17
522.55	36882.16
522.72	36540.44
522.89	36561.51
523.07	36533.42
523.24	36779.18
523.41	36978.12
523.58	36793.22
523.75	37368.99
523.92	37762.20
524.10	37450.91
524.27	37390.06
524.44	37397.08
524.61	37251.97
524.78	37488.36
524.96	37420.48
525.13	37844.12
525.30	37914.34
525.47	37998.60
525.64	37572.62
525.81	37858.17
525.98	37755.18
526.16	37294.10
526.33	37392.40
526.50	38110.94
526.67	37191.11
526.84	37275.37
527.01	37610.07
527.18	37883.91
527.36	38405.85
527.53	38134.35
527.70	38246.69
527.87	38539.26
528.04	37986.89
528.21	38459.68
528.38	38752.25
528.55	38387.13
528.72	38637.56
528.89	39234.40
529.07	38988.64
529.24	38660.97
529.41	38785.02
529.58	38579.05
529.75	38916.09
529.92	39100.99
530.09	39103.33
530.26	39103.33
530.43	39569.10
530.60	39409.94
530.77	39353.77
530.94	39632.29
531.11	39164.18
531.28	39426.32
531.46	39707.19
531.63	40203.38
531.80	39278.87
531.97	39295.25
532.14	39508.24
532.31	39208.65
532.48	39524.63
532.65	39974.01
532.82	39864.00
532.99	39688.46
533.16	40046.57
533.33	40084.01
533.50	40215.08
533.67	40060.61
533.84	39887.41
534.01	40128.48
534.18	39828.90
534.35	40329.77
534.52	40589.57
534.69	40430.41
534.86	40189.34
535.03	40715.96
535.20	40978.10
535.37	41116.19
535.54	41261.30
535.71	40952.35
535.88	40432.75
536.05	40907.88
536.22	40746.39
536.38	40804.90
536.55	40463.18
536.72	40629.36
536.89	40573.19
537.06	40725.32
537.23	40914.90
537.40	40926.61
537.57	41249.60
537.74	41287.05
537.91	41495.36
538.08	41198.11
538.25	40964.06
538.42	41574.94
538.59	41308.11
538.75	40950.01
538.92	41296.41
539.09	41198.11
539.26	41338.54
539.43	41507.06
539.60	41287.05
539.77	41076.40
539.94	41656.85
540.11	41511.74
540.28	41687.28
540.44	41713.03
540.61	41560.89
540.78	41251.94
540.95	41532.81
541.12	41528.13
541.29	41610.04
541.46	41970.49
541.62	42363.70
541.79	42162.41
541.96	41834.74
542.13	41883.89
542.30	41588.98
542.47	41963.46
542.63	42012.62
542.80	42139.00
542.97	42625.84
543.14	42691.37
543.31	42740.52
543.48	42412.85
543.64	42918.40
543.81	43154.80
543.98	42990.96
544.15	42829.46
544.32	43051.81
544.48	43180.54
544.65	43124.37
544.82	43232.04
544.99	42827.12
545.16	42890.32
545.32	42550.94
545.49	43536.30
545.66	43239.06
545.83	43241.40
546.00	43246.08
546.16	43267.14
546.33	43145.44
546.50	42595.41
546.67	43201.61
546.83	43290.55
547.00	43379.49
547.17	43374.81
547.34	43227.35
547.50	43381.83
547.67	43744.61
547.84	43611.20
548.00	43707.16
548.17	43625.25
548.34	43658.01
548.51	43524.60
548.67	43522.26
548.84	44091.01
549.01	43353.74
549.18	43536.30
549.34	43550.35
549.51	44034.84
549.68	44205.70
549.84	43681.42
550.01	44182.29
550.18	43824.19
550.34	44170.59
550.51	43746.95
550.68	44034.84
550.84	43693.12
551.01	44140.16
551.18	44179.95
551.34	44048.88
551.51	44016.11
551.68	44081.65
551.84	44458.48
552.01	44072.29
552.18	44205.70
552.34	44252.51
552.51	44236.12
552.68	44123.78
552.84	44528.69
553.01	44638.70
553.18	44325.07
553.34	44327.41
553.51	44151.87
553.67	44535.71
553.84	44847.00
554.01	44596.57
554.17	45036.59
554.34	44631.68
554.51	44655.08
554.67	45139.57
554.84	44570.82
555.00	44617.63
555.17	44231.44
555.33	44584.86
555.50	44582.52
555.67	44624.65
555.83	45001.48
556.00	44954.67
556.16	44940.63
556.33	44781.47
556.50	44549.76
556.66	45155.96
556.83	44666.78
556.99	45050.63
557.16	45181.70
557.32	45013.18
557.49	45605.34
557.65	45160.64
557.82	45469.59
557.98	45106.80
558.15	45095.10
558.32	44999.14
558.48	44921.90
558.65	45048.29
558.81	45539.80
558.98	45083.40
559.14	45345.54
559.31	45102.12
559.47	45371.28
559.64	45509.38
559.80	45375.97
559.97	45284.68
560.13	45404.05
560.30	45551.51
560.46	45521.08
560.63	45457.88
560.79	45612.36
560.96	45787.90
561.12	45577.25
561.29	45762.15
561.45	45415.76
561.61	45408.73
561.78	45071.70
561.94	45329.16
562.11	45127.87
562.27	45490.65
562.44	45598.32
562.60	45886.20
562.77	45464.91
562.93	45595.98
563.10	45773.86
563.26	45153.62
563.42	45626.40
563.59	45469.59
563.75	45703.64
563.92	45745.77
564.08	45935.35
564.24	46288.77
564.41	45881.52
564.57	45925.99
564.74	45357.24
564.90	45642.79
565.07	45567.89
565.23	45612.36
565.39	45469.59
565.56	45897.91
565.72	45492.99
565.88	46073.45
566.05	45460.23
566.21	45619.38
566.38	45551.51
566.54	45635.77
566.70	46014.93
566.87	46230.26
567.03	46143.66
567.19	46267.71
567.36	46010.25
567.52	46094.51
567.68	45897.91
567.85	46026.63
568.01	46227.92
568.17	45841.73
568.34	45874.50
568.50	45965.78
568.66	45916.63
568.83	46021.95
568.99	45834.71
569.15	46075.79
569.32	45804.28
569.48	45551.51
569.64	46176.43
569.81	46110.89
569.97	45951.74
570.13	45925.99
570.30	45729.39
570.46	45507.04
570.62	45549.17
570.78	45509.38
570.95	45336.18
571.11	45844.07
571.27	45673.21
571.43	45883.86
571.60	45923.65
571.76	45923.65
571.92	45752.79
572.09	46057.06
572.25	45645.13
572.41	45844.07
572.57	46504.10
572.74	46141.32
572.90	46307.50
573.06	45792.58
573.22	46415.16
573.38	46337.93
573.55	45991.53
573.71	46263.03
573.87	46131.96
574.03	46108.55
574.20	46010.25
574.36	46024.29
574.52	46129.62
574.68	46506.44
574.84	46136.64
575.01	46234.94
575.17	45888.54
575.33	45883.86
575.49	45680.24
575.65	46351.97
575.82	46298.14
575.98	45963.44
576.14	46403.46
576.30	46094.51
576.46	46305.16
576.62	46213.88
576.79	46323.88
576.95	46237.28
577.11	46007.91
577.27	46110.89
577.43	46103.87
577.59	46160.05
577.75	46143.66
577.92	45944.72
578.08	45680.24
578.24	45968.12
578.40	45762.15
578.56	46061.74
578.72	46300.48
578.88	46436.23
579.04	46094.51
579.21	46216.22
579.37	45930.67
579.53	46181.11
579.69	46286.43
579.85	46167.07
580.01	46387.08
580.17	46239.62
580.33	46424.53
580.49	46506.44
580.65	46143.66
580.82	46075.79
580.98	46216.22
581.14	46171.75
581.30	46529.85
581.46	46302.82
581.62	46857.52
581.78	46398.78
581.94	46733.48
582.10	46103.87
582.26	46429.21
582.42	46014.93
582.58	46258.35
582.74	46129.62
582.90	45813.65
583.06	46274.73
583.22	46256.01
583.38	46944.12
583.54	46525.17
583.70	46225.58
583.86	46358.99
584.02	45991.53
584.18	46176.43
584.34	46679.64
584.50	46436.23
584.66	46431.55
584.82	46157.70
584.98	46513.47
585.14	46520.49
585.30	46134.30
585.46	46382.40
585.62	46195.15
585.78	46492.40
585.94	45940.04
586.10	46153.02
586.26	46066.42
586.42	46279.41
586.58	46801.35
586.74	46366.01
586.90	45968.12
587.06	46160.05
587.22	46244.30
587.38	46291.12
587.54	46663.26
587.70	45982.16
587.86	46178.77
588.02	46553.26
588.18	46450.27
588.34	46190.47
588.49	45823.01
588.65	45366.60
588.81	45460.23
588.97	45930.67
589.13	45373.63
589.29	46052.38
589.45	46340.27
589.61	46153.02
589.77	46335.59
589.93	46522.83
590.08	46520.49
590.24	46443.25
590.40	46153.02
590.56	46667.94
590.72	46239.62
590.88	46309.84
591.04	46803.69
591.20	46660.92
591.35	46361.33
591.51	47002.64
591.67	46138.98
591.83	46454.95
591.99	46127.28
592.15	46492.40
592.31	46089.83
592.46	46335.59
592.62	46483.04
592.78	46707.73
592.94	46176.43
593.10	46422.19
593.26	46337.93
593.41	46483.04
593.57	46370.69
593.73	46487.72
593.89	46267.71
594.05	46454.95
594.20	46387.08
594.36	46691.35
594.52	46480.70
594.68	46677.30
594.84	46419.84
594.99	46401.12
595.15	46127.28
595.31	46742.84
595.47	46852.84
595.62	46691.35
595.78	46529.85
595.94	46742.84
596.10	46768.58
596.25	47117.32
596.41	46831.78
596.57	46197.49
596.73	47157.11
596.88	46258.35
597.04	46354.31
597.20	46770.93
597.36	46291.12
597.51	46710.07
597.67	47040.09
597.83	46213.88
597.99	46689.01
598.14	46845.82
598.30	46571.98
598.46	46129.62
598.61	46642.20
598.77	46227.92
598.93	46396.44
599.09	46321.54
599.24	47318.61
599.40	47079.88
599.56	46813.05
599.71	46162.39
599.87	46398.78
600.03	46387.08
600.18	46518.15
600.34	46813.05
600.50	46602.41
600.65	46295.80
600.81	46876.25
600.97	46782.63
601.12	46731.14
601.28	46632.83
601.44	46270.05
601.59	46618.79
601.75	46204.52
601.91	46754.54
602.06	46384.74
602.22	46733.48
602.37	46375.37
602.53	46066.42
602.69	46838.80
602.84	46487.72
603.00	46316.86
603.16	46382.40
603.31	46461.97
603.47	46562.62
603.62	46237.28
603.78	46513.47
603.94	46518.15
604.09	46557.94
604.25	46644.54
604.40	46391.76
604.56	46138.98
604.71	46527.51
604.87	46501.76
605.03	46003.23
605.18	45930.67
605.34	46417.50
605.49	45947.06
605.65	46188.13
605.80	46000.89
605.96	46314.52
606.12	46822.42
606.27	46808.37
606.43	46326.22
606.58	46597.73
606.74	46162.39
606.89	46092.17
607.05	46368.35
607.20	46457.29
607.36	46185.79
607.51	46286.43
607.67	46422.19
607.82	46253.67
607.98	46167.07
608.13	46108.55
608.29	46178.77
608.44	45633.42
608.60	45537.46
608.75	46223.24
608.91	46295.80
609.06	45965.78
609.22	45911.95
609.37	45900.25
609.53	45542.14
609.68	45858.12
609.84	45593.64
609.99	45970.46
610.15	45722.37
610.30	45745.77
610.46	45233.19
610.61	45897.91
610.76	46092.17
610.92	45951.74
611.07	46160.05
611.23	45996.21
611.38	45509.38
611.54	45612.36
611.69	45741.09
611.84	45642.79
612.00	45591.30
612.15	45375.97
612.31	45890.88
612.46	45722.37
612.62	45764.49
612.77	45881.52
612.92	46045.36
613.08	45956.42
613.23	45394.69
613.39	45436.82
613.54	45394.69
613.69	45172.34
613.85	45212.13
614.00	45748.11
614.15	45860.46
614.31	45539.80
614.46	45703.64
614.62	45258.94
614.77	45184.04
614.92	45446.18
615.08	45340.86
615.23	44933.60
615.38	44949.99
615.54	44854.03
615.69	45146.59
615.84	45287.03
616.00	44954.67
616.15	45141.91
616.30	45038.93
616.46	44795.51
616.61	44727.64
616.76	44999.14
616.92	44222.08
617.07	44868.07
617.22	44769.77
617.37	44652.74
617.53	45165.32
617.68	45071.70
617.83	44748.70
617.99	45256.60
618.14	44744.02
618.29	44917.22
618.45	44453.79
618.60	44732.32
618.75	44308.68
618.90	44488.90
619.06	45296.39
619.21	44538.05
619.36	45113.83
619.51	44371.88
619.67	45069.36
619.82	44765.09
619.97	44783.81
620.12	44463.16
620.28	44165.91
620.43	44332.09
620.58	44472.52
620.73	44521.67
620.89	44186.97
621.04	44428.05
621.19	44034.84
621.34	44760.40
621.49	44554.44
621.65	43826.53
621.80	44264.21
621.95	44051.22
622.10	43838.23
622.25	44058.24
622.41	43964.62
622.56	43564.39
622.71	44311.02
622.86	44105.06
623.01	43995.05
623.16	43936.54
623.32	43934.20
623.47	44079.31
623.62	43800.79
623.77	43739.93
623.92	43753.97
624.07	43828.87
624.23	43966.96
624.38	43730.57
624.53	43360.76
624.68	43398.21
624.83	43533.96
624.98	43529.28
625.13	43316.29
625.29	43601.84
625.44	42880.95
625.59	43213.31
625.74	43187.56
625.89	42698.39
626.04	43320.98
626.19	43559.71
626.34	43328.00
626.49	43456.73
626.65	43564.39
626.80	43667.37
626.95	43367.79
627.10	42969.90
627.25	43005.00
627.40	42600.09
627.55	42698.39
627.70	42508.81
627.85	42581.37
628.00	42843.51
628.15	42995.64
628.30	42593.07
628.45	43297.57
628.60	42967.55
628.76	43098.62
628.91	43185.22
629.06	42597.75
629.21	42466.68
629.36	42895.00
629.51	42377.74
629.66	42302.84
629.81	42211.56
629.96	42183.48
630.11	42609.45
630.26	42543.92
630.41	42588.39
630.56	42745.20
630.71	42368.38
630.86	42073.47
631.01	42415.19
631.16	42384.76
631.31	42153.05
631.46	42127.30
631.61	42014.96
631.76	42581.37
631.91	42281.78
632.06	42115.60
632.21	42548.60
632.36	42356.67
632.51	42237.31
632.66	42344.97
632.81	41858.14
632.96	42019.64
633.10	41551.53
633.25	42026.66
633.40	41940.06
633.55	42181.13
633.70	41474.29
633.85	41656.85
634.00	41605.36
634.15	41207.47
634.30	42061.77
634.45	41500.04
634.60	41539.83
634.75	41687.28
634.90	41319.82
635.05	41514.08
635.19	41291.73
635.34	41968.15
635.49	41654.51
635.64	41968.15
635.79	41364.29
635.94	41708.35
636.09	41656.85
636.24	41273.01
636.39	40980.44
636.53	41209.81
636.68	41198.11
636.83	41542.17
636.98	41713.03
637.13	41013.21
637.28	41397.06
637.43	41823.03
637.57	41588.98
637.72	41244.92
637.87	41343.22
638.02	41392.37
638.17	40924.27
638.32	40975.76
638.46	40978.10
638.61	41216.83
638.76	41074.06
638.91	41282.37
639.06	40802.56
639.20	40996.82
639.35	41144.28
639.50	40875.12
639.65	41233.22
639.80	41275.35
639.94	41146.62
640.09	40540.42
640.24	40692.55
640.39	40575.53
640.54	40196.36
640.68	40498.29
640.83	40514.67
640.98	40432.75
641.13	40540.42
641.27	40931.29
641.42	40617.66
641.57	40250.19
641.72	40715.96
641.86	40144.87
642.01	40149.55
642.16	40648.08
642.31	40095.72
642.45	40341.47
642.60	39924.86
642.75	40280.62
642.90	40287.64
643.04	40339.13
643.19	40002.10
643.34	40334.45
643.48	39840.60
643.63	40179.98
643.78	39920.18
643.93	39969.33
644.07	40156.57
644.22	40020.82
644.37	39779.74
644.51	39910.82
644.66	39873.37
644.81	39910.82
644.95	39882.73
645.10	39871.03
645.25	40123.80
645.39	40123.80
645.54	39688.46
645.69	39452.07
645.83	39709.53
645.98	39793.79
646.13	39524.63
646.27	39583.14
646.42	39690.80
646.57	39529.31
646.71	39552.71
646.86	39681.44
647.00	39889.75
647.15	40002.10
647.30	39643.99
647.44	39543.35
647.59	39419.30
647.74	38902.04
647.88	39311.64
648.03	39695.49
648.17	39110.35
648.32	38834.17
648.47	39470.79
648.61	39304.62
648.76	39388.88
648.90	39473.13
649.05	39541.01
649.20	39084.61
649.34	39173.55
649.49	38897.36
649.63	38710.12
649.78	39002.69
649.92	39218.02
650.07	39133.76
650.21	39288.23
650.36	39255.46
650.51	38721.82
650.65	39721.23
650.80	39463.77
650.94	39566.76
651.09	39150.14
651.23	38719.48
651.38	39189.93
651.52	38675.01
651.67	38754.59
651.81	38726.50
651.96	38749.91
652.10	38569.69
652.25	38728.84
652.39	38841.19
652.54	38670.33
652.68	38574.37
652.83	38464.36
652.97	38719.48
653.12	38742.89
653.26	38267.76
653.41	38335.63
653.55	38171.80
653.70	38375.42
653.84	38438.62
653.99	38440.96
654.13	38387.13
654.27	38527.56
654.42	37904.98
654.56	37872.21
654.71	38209.25
654.85	38073.49
655.00	38298.19
655.14	37642.84
655.29	37525.81
655.43	37614.75
655.57	37516.45
655.72	37266.01
655.86	37359.63
656.01	37457.93
656.15	37207.50
656.30	37240.26
656.44	37457.93
656.58	37436.87
656.73	37443.89
656.87	37668.58
657.01	37198.13
657.16	37687.31
657.30	37488.36
657.45	37434.53
657.59	37502.40
657.73	37233.24
657.88	38178.82
658.02	37404.10
658.16	37771.57
658.31	38094.56
658.45	37338.57
658.60	37406.44
658.74	37298.78
658.88	36985.15
659.03	36980.46
659.17	36856.42
659.31	36533.42
659.46	36725.35
659.60	37116.22
659.74	37099.83
659.89	36856.42
660.03	36748.75
660.17	36921.95
660.32	37074.09
660.46	37027.28
660.60	36788.54
660.74	36821.31
660.89	36952.38
661.03	36507.68
661.17	36304.05
661.32	36177.66
661.46	36510.02
661.60	36268.94
661.74	36645.77
661.89	36601.30
662.03	36051.27
662.17	36297.03
662.31	36098.08
662.46	36350.86
662.60	36301.71
662.74	36077.02
662.88	35915.52
663.03	35629.98
663.17	35739.98
663.31	35374.86
663.45	35475.50
663.60	35798.49
663.74	35817.22
663.88	35512.95
664.02	35676.79
664.17	35604.23
664.31	35208.68
664.45	35672.10
664.59	35388.90
664.73	35194.64
664.88	35564.44
665.02	35068.25
665.16	35402.94
665.30	35157.19
665.44	34574.39
665.59	34532.26
665.73	34614.18
665.87	34600.14
666.01	35070.59
666.15	35063.57
666.29	35110.38
666.44	35065.91
666.58	34473.75
666.72	34693.76
666.86	34625.89
667.00	34740.57
667.14	34012.66
667.28	34464.39
667.43	34487.79
667.57	34160.12
667.71	34134.37
667.85	34295.87
667.99	34125.01
668.13	34330.98
668.27	34267.78
668.41	34398.85
668.56	33642.86
668.70	34354.38
668.84	33858.19
668.98	33642.86
669.12	33591.37
669.26	33706.05
669.40	33071.77
669.54	33673.29
669.68	33558.60
669.82	33256.67
669.96	33174.75
670.10	33200.50
670.25	33364.34
670.39	33457.96
670.53	32830.69
670.67	33158.37
670.81	33027.30
670.95	33408.81
671.09	33254.33
671.23	32912.61
671.37	32989.85
671.51	32575.58
671.65	32488.98
671.79	32074.70
671.93	32751.12
672.07	33031.98
672.21	32481.95
672.35	32556.85
672.49	32666.86
672.63	32233.86
672.77	32521.74
672.91	32540.47
673.05	32456.21
673.19	31704.90
673.33	31791.50
673.47	32009.17
673.61	31555.10
673.75	31271.90
673.89	31606.59
674.03	31342.11
674.17	31606.59
674.31	31653.40
674.45	31419.35
674.59	31484.89
674.73	31304.67
674.87	31253.17
675.01	31356.16
675.15	31409.99
675.29	31269.56
675.43	31084.65
675.56	30918.48
675.70	30656.34
675.84	30787.41
675.98	30047.80
676.12	30632.93
676.26	30462.07
676.40	30590.80
676.54	30429.30
676.68	30476.12
676.82	30085.25
676.96	29975.24
677.10	30106.31
677.23	30115.67
677.37	29963.54
677.51	29759.91
677.65	29488.41
677.79	28912.64
677.93	29502.45
678.07	29277.76
678.21	29373.72
678.34	28907.96
678.48	28650.50
678.62	28975.83
678.76	28418.78
678.90	28631.77
679.04	28601.35
679.18	28570.92
679.31	28229.20
679.45	28182.39
679.59	28189.41
679.73	28182.39
679.87	27903.87
680.00	27981.10
680.14	28053.66
680.28	27789.18
680.42	27611.30
680.56	28077.07
680.70	27763.43
680.83	27707.26
680.97	27978.76
681.11	27527.04
681.25	27517.68
681.39	27220.43
681.52	27452.14
681.66	27197.02
681.80	27225.11
681.94	26948.93
682.07	26803.82
682.21	26747.64
682.35	26897.44
682.49	26843.60
682.62	26691.47
682.76	26436.35
682.90	26506.57
683.04	25853.56
683.17	25638.23
683.31	25947.18
683.45	25832.49
683.59	25671.00
683.72	25729.51
683.86	25900.37
684.00	25921.43
684.13	25874.62
684.27	25214.59
684.41	25092.88
684.55	25259.06
684.68	25219.27
684.82	25202.89
684.96	24973.52
685.09	25095.22
685.23	24697.33
685.37	25043.73
685.50	24746.48
685.64	24524.13
685.78	24900.96
685.91	24678.61
686.05	24346.25
686.19	24121.56
686.32	23634.73
686.46	23873.46
686.60	23335.14
686.73	23632.39
686.87	23262.58
687.01	23197.05
687.14	22974.70
687.28	23232.16
687.42	23321.10
687.55	23180.67
687.69	23718.99
687.82	23311.74
687.96	23260.24
688.10	22970.02
688.23	23178.33
688.37	22576.81
688.50	22590.85
688.64	22490.21
688.78	22651.70
688.91	22546.38
689.05	22534.68
689.18	22424.67
689.32	21752.94
689.46	22073.59
689.59	22094.66
689.73	21994.01
689.86	22235.09
690.00	21891.03
690.13	21926.14
690.27	21881.67
690.41	21551.65
690.54	21694.43
690.68	21095.25
690.81	21259.09
690.95	21598.46
691.08	21504.84
691.22	20966.52
691.35	21106.95
691.49	21090.57
691.62	21081.21
691.76	20655.23
691.89	20800.34
692.03	20896.30
692.16	20453.94
692.30	20250.32
692.43	20477.35
692.57	20196.48
692.70	20201.16
692.84	20402.45
692.97	19903.92
693.11	20072.43
693.24	20020.94
693.38	19571.56
693.51	19946.05
693.65	19740.08
693.78	19688.59
693.92	19676.88
694.05	19496.66
694.19	19435.81
694.32	19405.38
694.45	19068.34
694.59	19122.18
694.72	18909.19
694.86	19192.39
694.99	19290.70
695.13	18740.67
695.26	18853.02
695.39	18829.61
695.53	18794.50
695.66	19002.81
695.80	18661.09
695.93	18618.96
696.07	18267.88
696.20	18466.83
696.33	18176.60
696.47	18169.58
696.60	17905.10
696.73	17834.88
696.87	17762.33
697.00	17994.04
697.14	17774.03
697.27	17558.70
697.40	18078.30
697.54	17366.78
697.67	17319.96
697.80	17436.99
697.94	17291.88
698.07	17216.98
698.21	17001.65
698.34	17146.76
698.47	16971.22
698.61	16631.85
698.74	16542.91
698.87	16638.87
699.01	16451.63
699.14	16491.41
699.27	16582.70
699.40	16334.60
699.54	16376.73
699.67	16145.02
699.80	16229.27
699.94	15948.41
700.07	16145.02
700.20	16123.95
700.34	16016.29
700.47	16112.25
700.60	16194.17
700.73	16191.83
700.87	15974.16
701.00	15583.29
701.13	15538.82
701.26	15386.68
701.40	15382.00
701.53	15185.40
701.66	15314.13
701.79	15304.76
701.93	15042.62
702.06	15066.03
702.19	14824.95
702.32	15185.40
702.46	14860.06
702.59	14803.89
702.72	14913.89
702.85	14846.02
702.99	14930.28
703.12	14817.93
703.25	14520.68
703.38	14684.52
703.51	14401.32
703.65	14508.98
703.78	14469.19
703.91	14305.35
704.04	14218.75
704.17	14427.06
704.31	14026.83
704.44	13977.68
704.57	14083.00
704.70	13722.56
704.83	13930.87
704.96	13694.47
705.10	13764.69
705.23	13930.87
>>>>>End Processed Spectral Data<<<<<
