SpectraSuite Data File
++++++++++++++++++++++++++++++++++++
Date: Fri Oct 25 11:34:35 EDT 2013
User: price-jones
Dark Spectrum Present: No
Reference Spectrum Present: No
Number of Sampled Component Spectra: 1
Spectrometers: USB2+H05261
Integration Time (usec): 100000 (USB2+H05261)
Spectra Averaged: 1 (USB2+H05261)
Boxcar Smoothing: 0 (USB2+H05261)
Correct for Electrical Dark: No (USB2+H05261)
Strobe/Lamp Enabled: No (USB2+H05261)
Correct for Detector Non-linearity: No (USB2+H05261)
Correct for Stray Light: No (USB2+H05261)
Number of Pixels in Processed Spectrum: 2048
>>>>>Begin Processed Spectral Data<<<<<
365.73	332.36
365.92	332.36
366.12	332.36
366.32	173.20
366.52	147.45
366.72	147.45
366.91	128.73
367.11	180.22
367.31	196.60
367.51	154.48
367.70	173.20
367.90	175.54
368.10	194.26
368.30	163.84
368.49	175.54
368.69	168.52
368.89	212.99
369.09	215.33
369.28	250.44
369.48	154.48
369.68	187.24
369.87	220.01
370.07	231.71
370.27	269.16
370.47	397.89
370.66	468.11
370.86	505.56
371.06	510.24
371.25	543.00
371.45	528.96
371.65	543.00
371.84	512.58
372.04	571.09
372.24	503.22
372.44	552.37
372.63	566.41
372.83	671.73
373.03	603.86
373.22	613.22
373.42	580.45
373.62	603.86
373.81	617.90
374.01	624.92
374.21	662.37
374.40	601.52
374.60	706.84
374.79	608.54
374.99	648.33
375.19	669.39
375.38	603.86
375.58	638.97
375.78	755.99
375.97	650.67
376.17	648.33
376.37	638.97
376.56	718.54
376.76	634.29
376.95	601.52
377.15	690.46
377.35	723.23
377.54	695.14
377.74	697.48
377.93	641.31
378.13	601.52
378.33	711.52
378.52	692.80
378.72	678.76
378.91	725.57
379.11	685.78
379.31	678.76
379.50	753.65
379.70	781.74
379.89	667.05
380.09	772.38
380.28	744.29
380.48	683.44
380.68	739.61
380.87	716.20
381.07	753.65
381.26	779.40
381.46	793.44
381.65	739.61
381.85	744.29
382.04	758.33
382.24	798.12
382.43	807.48
382.63	755.99
382.83	751.31
383.02	807.48
383.22	802.80
383.41	791.10
383.61	770.04
383.80	917.49
384.00	851.96
384.19	723.23
384.39	844.93
384.58	720.88
384.78	833.23
384.97	755.99
385.17	826.21
385.36	809.83
385.56	770.04
385.75	784.08
385.95	807.48
386.14	795.78
386.34	873.02
386.53	882.38
386.72	835.57
386.92	823.87
387.11	924.51
387.31	816.85
387.50	847.27
387.70	861.32
387.89	884.72
388.09	903.45
388.28	826.21
388.48	875.36
388.67	912.81
388.86	931.53
389.06	952.60
389.25	901.11
389.45	873.02
389.64	950.26
389.84	896.43
390.03	931.53
390.22	947.92
390.42	987.71
390.61	957.28
390.81	992.39
391.00	952.60
391.19	1041.54
391.39	968.98
391.58	978.34
391.78	1057.92
391.97	954.94
392.16	983.02
392.36	1008.77
392.55	987.71
392.75	997.07
392.94	1036.86
393.13	1034.52
393.33	1048.56
393.52	1104.73
393.71	1076.65
393.91	1191.33
394.10	994.73
394.29	1036.86
394.49	1100.05
394.68	1100.05
394.88	1088.35
395.07	1207.72
395.26	1083.67
395.46	1114.10
395.65	1109.41
395.84	1146.86
396.04	1217.08
396.23	1196.01
396.42	1203.04
396.62	1151.54
396.81	1163.25
397.00	1062.60
397.19	1125.80
397.39	1160.91
397.58	1163.25
397.77	1256.87
397.97	1261.55
398.16	1132.82
398.35	1221.76
398.55	1275.59
398.74	1228.78
398.93	1240.48
399.12	1296.66
399.32	1238.14
399.51	1299.00
399.70	1240.48
399.90	1291.98
400.09	1343.47
400.28	1317.72
400.47	1247.51
400.67	1390.28
400.86	1317.72
401.05	1303.68
401.24	1432.41
401.44	1434.75
401.63	1465.18
401.82	1373.89
402.01	1430.07
402.21	1420.71
402.40	1355.17
402.59	1439.43
402.78	1465.18
402.97	1467.52
403.17	1504.96
403.36	1483.90
403.55	1420.71
403.74	1589.22
403.93	1427.73
404.13	1577.52
404.32	1579.86
404.51	1603.27
404.70	1647.74
404.89	1577.52
405.09	1619.65
405.28	1638.38
405.47	1605.61
405.66	1575.18
405.85	1678.16
406.05	1689.87
406.24	1701.57
406.43	1647.74
406.62	1689.87
406.81	1722.63
407.00	1757.74
407.20	1668.80
407.39	1689.87
407.58	1722.63
407.77	1902.86
407.96	1816.26
408.15	1813.92
408.34	1764.76
408.54	1839.66
408.73	1877.11
408.92	1902.86
409.11	1900.52
409.30	1930.94
409.49	1872.43
409.68	1977.75
409.87	1954.35
410.07	1952.01
410.26	2008.18
410.45	2003.50
410.64	1921.58
410.83	2064.35
411.02	1998.82
411.21	2118.18
411.40	2073.71
411.59	2040.95
411.78	2237.55
411.98	2015.20
412.17	2108.82
412.36	2141.59
412.55	2214.15
412.74	2249.25
412.93	2260.96
413.12	2218.83
413.31	2307.77
413.50	2275.00
413.69	2242.23
413.88	2389.69
414.07	2307.77
414.26	2296.07
414.45	2541.82
414.64	2410.75
414.83	2452.88
415.02	2441.18
415.22	2597.99
415.41	2424.80
415.60	2502.03
415.79	2560.55
415.98	2602.68
416.17	2579.27
416.36	2572.25
416.55	2513.74
416.74	2621.40
416.93	2675.23
417.12	2663.53
417.31	2654.17
417.50	2691.62
417.69	2841.41
417.88	2761.83
418.07	2829.71
418.26	2757.15
418.45	2832.05
418.64	3049.72
418.83	2972.48
419.02	2928.01
419.21	3009.93
419.39	3007.59
419.58	2960.78
419.77	2904.60
419.96	3042.70
420.15	3045.04
420.34	3049.72
420.53	2965.46
420.72	2986.52
420.91	2953.76
421.10	2988.86
421.29	3162.06
421.48	3075.46
421.67	2984.18
421.86	3164.40
422.05	3126.96
422.24	3148.02
422.43	3220.58
422.61	3260.37
422.80	3162.06
422.99	3183.13
423.18	3208.87
423.37	3426.54
423.56	3255.69
423.75	3206.53
423.94	3138.66
424.13	3084.83
424.32	3197.17
424.50	3288.45
424.69	3199.51
424.88	3311.86
425.07	3229.94
425.26	3251.00
425.45	3321.22
425.64	3274.41
425.83	3290.79
426.01	3290.79
426.20	3335.26
426.39	3276.75
426.58	3225.26
426.77	3241.64
426.96	3375.05
427.15	3290.79
427.33	3435.91
427.52	3407.82
427.71	3426.54
427.90	3445.27
428.09	3431.23
428.28	3449.95
428.46	3424.20
428.65	3524.85
428.84	3653.58
429.03	3634.85
429.22	3562.30
429.40	3583.36
429.59	3571.66
429.78	3485.06
429.97	3487.40
430.16	3618.47
430.34	3625.49
430.53	3721.45
430.72	3751.88
430.91	3812.73
431.10	3735.50
431.28	3812.73
431.47	3852.52
431.66	3864.22
431.85	3747.20
432.03	3915.72
432.22	3866.56
432.41	3906.35
432.60	3978.91
432.79	3918.06
432.97	4102.96
433.16	3962.53
433.35	3779.97
433.54	4021.04
433.72	3915.72
433.91	3971.89
434.10	4011.68
434.28	3934.44
434.47	4007.00
434.66	4060.83
434.85	4093.60
435.03	4236.37
435.22	4102.96
435.41	4208.28
435.59	4117.00
435.78	4201.26
435.97	4175.52
436.16	4205.94
436.34	4231.69
436.53	4187.22
436.72	4264.46
436.90	4283.18
437.09	4273.82
437.28	4114.66
437.46	4315.95
437.65	4386.16
437.84	4404.89
438.02	4344.03
438.21	4514.89
438.40	4234.03
438.58	4369.78
438.77	4690.43
438.96	4482.13
439.14	4596.81
439.33	4580.43
439.52	4610.86
439.70	4716.18
439.89	4685.75
440.08	4727.88
440.26	4770.01
440.45	4784.06
440.63	4819.16
440.82	4880.02
441.01	4823.84
441.19	4880.02
441.38	4994.70
441.57	5055.56
441.75	5004.07
441.94	5100.03
442.12	5097.69
442.31	5181.95
442.50	5097.69
442.68	5029.81
442.87	5132.79
443.05	5212.37
443.24	5315.36
443.43	5399.62
443.61	5350.46
443.80	5343.44
443.98	5184.29
444.17	4910.44
444.35	5322.38
444.54	5390.25
444.73	5502.60
444.91	5404.30
445.10	5413.66
445.28	5500.26
445.47	5275.57
445.65	5439.40
445.84	5254.50
446.02	5472.17
446.21	5497.92
446.39	5390.25
446.58	5462.81
446.77	5528.35
446.95	5327.06
447.14	5259.18
447.32	5561.11
447.51	5413.66
447.69	5418.34
447.88	5371.53
448.06	5453.45
448.25	5294.29
448.43	5509.62
448.62	5437.06
448.80	5614.95
448.99	5771.76
449.17	5820.91
449.36	5633.67
449.54	5717.93
449.73	5846.66
449.91	5872.40
450.10	5767.08
450.28	5975.39
450.46	5818.57
450.65	5661.76
450.83	5963.68
451.02	5841.98
451.20	5940.28
451.39	5886.45
451.57	5902.83
451.76	5900.49
451.94	6040.92
452.13	5947.30
452.31	6057.31
452.49	6022.20
452.68	6003.47
452.86	5994.11
453.05	6157.95
453.23	5888.79
453.42	5980.07
453.60	6092.41
453.78	6083.05
453.97	6169.65
454.15	6040.92
454.34	6054.97
454.52	6057.31
454.70	6104.12
454.89	6251.57
455.07	6258.59
455.26	6244.55
455.44	6413.07
455.62	6462.22
455.81	6546.48
455.99	6551.16
456.17	6431.79
456.36	6513.71
456.54	6555.84
456.73	6553.50
456.91	6813.30
457.09	6815.64
457.28	6754.79
457.46	6649.46
457.64	6729.04
457.83	6682.23
458.01	6525.41
458.19	6895.22
458.38	6703.29
458.56	6808.62
458.74	7035.65
458.93	6768.83
459.11	6906.92
459.29	6803.94
459.48	7023.95
459.66	6935.01
459.84	7059.06
460.03	7211.19
460.21	7101.19
460.39	6991.18
460.57	6970.12
460.76	7143.32
460.94	7091.82
461.12	7180.76
461.31	7152.68
461.49	7091.82
461.67	7140.97
461.85	7459.29
462.04	7098.84
462.22	7833.77
462.40	7405.46
462.59	7510.78
462.77	7300.13
462.95	7417.16
463.13	7372.69
463.32	7417.16
463.50	7403.11
463.68	7508.44
463.86	7527.16
464.05	7396.09
464.23	7386.73
464.41	7562.27
464.59	7520.14
464.78	7789.30
464.96	7660.57
465.14	7520.14
465.32	7775.26
465.50	7630.15
465.69	7789.30
465.87	7719.09
466.05	7761.22
466.23	7847.82
466.41	7831.43
466.60	8065.49
466.78	7793.98
466.96	7854.84
467.14	7852.50
467.32	8037.40
467.51	8147.40
467.69	7733.13
467.87	7946.12
468.05	8053.78
468.23	7873.56
468.41	7726.11
468.60	8088.89
468.78	8067.83
468.96	8021.02
469.14	8280.82
469.32	8299.54
469.50	8046.76
469.69	8294.86
469.87	8219.96
470.05	8376.78
470.23	8470.40
470.41	8063.15
470.59	8358.05
470.77	8409.54
470.95	8493.80
471.14	8662.32
471.32	8491.46
471.50	8650.62
471.68	8521.89
471.86	8889.35
472.04	8847.22
472.22	8945.53
472.40	8559.34
472.58	8667.00
472.77	8870.63
472.95	8997.02
473.13	9149.15
473.31	8741.90
473.49	8938.51
473.67	8896.38
473.85	8987.66
474.03	9312.99
474.21	9083.62
474.39	9235.75
474.57	9404.27
474.75	9275.54
474.93	9301.29
475.12	9380.87
475.30	9345.76
475.48	9420.66
475.66	9675.77
475.84	9575.13
476.02	9898.13
476.20	9921.53
476.38	9923.87
476.56	10153.24
476.74	9963.66
476.92	9968.34
477.10	9935.57
477.28	10054.94
477.46	10277.29
477.64	10380.28
477.82	10321.76
478.00	10539.43
478.18	10579.22
478.36	10586.24
478.54	10675.18
478.72	10686.89
478.90	10843.70
479.08	10874.13
479.26	11232.23
479.44	11246.27
479.62	11211.17
479.80	11304.79
479.98	11295.43
480.16	11494.37
480.34	11716.72
480.52	11616.08
480.70	11861.84
480.88	11613.74
481.06	11864.18
481.24	11861.84
481.41	11735.45
481.59	11908.65
481.77	12159.08
481.95	12224.62
482.13	12287.81
482.31	12224.62
482.49	12716.13
482.67	12648.26
482.85	12863.58
483.03	12889.33
483.21	13195.94
483.39	13160.83
483.57	13074.23
483.74	13252.11
483.92	13626.60
484.10	13359.78
484.28	13652.34
484.46	13926.19
484.64	13851.29
484.82	13776.39
485.00	13994.06
485.18	14204.71
485.35	14359.19
485.53	14068.96
485.71	14272.59
485.89	14693.88
486.07	14541.75
486.25	14707.93
486.43	14413.02
486.61	14768.78
486.78	14956.02
486.96	14794.53
487.14	15386.68
487.32	15304.76
487.50	15171.35
487.68	15672.23
487.85	15786.91
488.03	15728.40
488.21	16063.10
488.39	16107.57
488.57	16294.81
488.75	16411.84
488.92	16657.59
489.10	16641.21
489.28	16690.36
489.46	16641.21
489.64	16629.51
489.81	16989.95
489.99	17441.67
490.17	17125.70
490.35	17359.75
490.53	17577.42
490.70	17921.48
490.88	17799.77
491.06	18031.49
491.24	17949.57
491.41	18321.71
491.59	18263.20
491.77	18054.89
491.95	18307.67
492.13	18775.78
492.30	18654.07
492.48	18333.42
492.66	18913.87
492.84	18967.70
493.01	19234.52
493.19	19215.80
493.37	19124.52
493.54	19344.53
493.72	19550.49
493.90	19403.04
494.08	19892.21
494.25	19683.91
494.43	19742.42
494.61	20191.80
494.79	20322.87
494.96	20168.40
495.14	20505.43
495.32	20472.67
495.49	20393.09
495.67	20414.15
495.85	20982.90
496.02	21036.74
496.20	21139.72
496.38	21462.71
496.55	21415.90
496.73	21528.25
496.91	21692.08
497.09	21757.62
497.26	21710.81
497.44	22092.32
497.62	21752.94
497.79	22363.82
497.97	22199.98
498.14	22410.63
498.32	22686.81
498.50	22497.23
498.67	22651.70
498.85	22534.68
499.03	23019.17
499.20	22572.13
499.38	22714.90
499.56	23035.55
499.73	23009.81
499.91	23318.76
500.08	23655.79
500.26	23496.64
500.44	23564.51
500.61	23632.39
500.79	23555.15
500.97	23843.04
501.14	24032.62
501.32	24210.50
501.49	24102.84
501.67	23999.85
501.84	24498.39
502.02	23995.17
502.20	24252.63
502.37	24421.15
502.55	24416.47
502.72	24404.77
502.90	24687.97
503.07	25027.35
503.25	24730.10
503.43	24629.46
503.60	25003.94
503.78	24739.46
503.95	25001.60
504.13	25333.96
504.30	25537.59
504.48	25350.34
504.65	25518.86
504.83	25652.27
505.01	25589.08
505.18	25617.16
505.36	26008.03
505.53	25626.53
505.71	25951.86
505.88	26047.82
506.06	25778.66
506.23	26143.78
506.41	26232.72
506.58	26256.13
506.76	26511.25
506.93	26614.23
507.11	26239.75
507.28	26682.11
507.46	25968.24
507.63	26609.55
507.81	27049.57
507.98	26642.32
508.16	26827.22
508.33	27070.64
508.50	26782.75
508.68	27269.58
508.85	27896.85
509.03	27615.98
509.20	27157.24
509.38	27524.70
509.55	27566.83
509.73	27941.32
509.90	27704.92
510.08	27711.94
510.25	28088.77
510.42	27880.46
510.60	27875.78
510.77	28421.13
510.95	28474.96
511.12	28657.52
511.30	28268.99
511.47	28673.90
511.64	28500.70
511.82	28875.19
511.99	28620.07
512.17	28732.42
512.34	28861.15
512.51	29144.35
512.69	29146.69
512.86	29249.67
513.04	29273.08
513.21	29338.62
513.38	29202.86
513.56	30075.88
513.73	29420.53
513.90	29486.07
514.08	29881.62
514.25	29748.21
514.43	30319.30
514.60	30071.20
514.77	30141.42
514.95	30036.09
515.12	29802.04
515.29	29890.98
515.47	30253.76
515.64	30520.59
515.81	30160.14
515.99	30539.31
516.16	30469.09
516.33	30628.25
516.51	30782.73
516.68	30876.35
516.85	30691.44
517.03	30878.69
517.20	31154.87
517.37	30939.54
517.54	31131.47
517.72	31510.63
517.89	31283.60
518.06	30831.88
518.24	31328.07
518.41	31204.02
518.58	31468.50
518.75	31557.44
518.93	31522.34
519.10	31679.15
519.27	31786.82
519.45	31819.58
519.62	32091.09
519.79	31681.49
519.96	31903.84
520.14	32065.34
520.31	31992.78
520.48	32053.64
520.65	32587.28
520.83	32460.89
521.00	32673.88
521.17	32645.79
521.34	32573.24
521.52	32851.76
521.69	32737.07
521.86	33017.94
522.03	32929.00
522.20	33354.97
522.38	33518.81
522.55	33268.37
522.72	33008.58
522.89	33078.79
523.07	33532.86
523.24	33411.15
523.41	33560.94
523.58	33694.35
523.75	33202.84
523.92	33858.19
524.10	33397.10
524.27	34176.50
524.44	33692.01
524.61	33902.66
524.78	34199.91
524.96	34253.74
525.13	34232.68
525.30	34206.93
525.47	34396.51
525.64	34445.66
525.81	34192.89
525.98	34518.22
526.16	34712.49
526.33	34401.19
526.50	34630.57
526.67	34740.57
526.84	34873.98
527.01	34536.94
527.18	34703.12
527.36	34642.27
527.53	35182.93
527.70	35040.16
527.87	35360.81
528.04	34965.26
528.21	35131.44
528.38	35157.19
528.55	34951.22
528.72	35311.66
528.89	35129.10
529.07	35227.40
529.24	35468.48
529.41	35873.39
529.58	35646.36
529.75	35498.91
529.92	35913.18
530.09	35538.69
530.26	35784.45
530.43	35744.66
530.60	35604.23
530.77	35501.25
530.94	36217.45
531.11	35505.93
531.28	35988.08
531.46	35861.69
531.63	36175.32
531.80	36385.97
531.97	36177.66
532.14	35999.78
532.31	36409.37
532.48	36442.14
532.65	36465.55
532.82	36388.31
532.99	36629.38
533.16	36627.04
533.33	36882.16
533.50	37303.46
533.67	36928.97
533.84	36266.60
534.01	37261.33
534.18	36655.13
534.35	37579.64
534.52	36818.97
534.69	37308.14
534.86	37418.14
535.03	36975.78
535.20	37200.47
535.37	37490.70
535.54	37780.93
535.71	37017.91
535.88	37858.17
536.05	37287.07
536.22	37907.32
536.38	37322.18
536.55	37708.37
536.72	37413.46
536.89	37406.44
537.06	38139.03
537.23	38218.61
537.40	37961.15
537.57	37572.62
537.74	38019.66
537.91	38031.36
538.08	38038.39
538.25	37586.66
538.42	38216.27
538.59	38534.58
538.75	38199.88
538.92	38389.47
539.09	38609.48
539.26	38611.82
539.43	38515.86
539.60	38396.49
539.77	38588.41
539.94	38782.68
540.11	38389.47
540.28	38536.92
540.44	38389.47
540.61	38895.02
540.78	38429.26
540.95	39229.72
541.12	38628.20
541.29	38909.07
541.46	38925.45
541.62	39119.71
541.79	39332.70
541.96	38623.52
542.13	38932.47
542.30	39311.64
542.47	39274.19
542.63	39283.55
542.80	39716.55
542.97	39735.27
543.14	39842.94
543.31	39709.53
543.48	39775.06
543.64	40002.10
543.81	40133.17
543.98	40158.91
544.15	39725.91
544.32	39730.59
544.48	40390.62
544.65	40229.13
544.82	39913.16
544.99	40137.85
545.16	40285.30
545.32	40252.53
545.49	40395.31
545.66	40601.27
545.83	40495.95
546.00	40697.24
546.16	40460.84
546.33	40369.56
546.50	40421.05
546.67	40795.54
546.83	40589.57
547.00	40299.34
547.17	40570.85
547.34	40278.28
547.50	40762.77
547.67	40865.75
547.84	40713.62
548.00	41134.92
548.17	40886.82
548.34	41301.09
548.51	41329.18
548.67	41078.74
548.84	41120.87
549.01	40931.29
549.18	40701.92
549.34	41539.83
549.51	41497.70
549.68	41324.50
549.84	41109.17
550.01	41502.38
550.18	40919.59
550.34	41668.56
550.51	41521.10
550.68	41457.91
550.84	41270.67
551.01	41851.12
551.18	41467.27
551.34	41261.30
551.51	41951.76
551.68	41572.60
551.84	41830.05
552.01	41434.50
552.18	42057.09
552.34	41544.51
552.51	41961.12
552.68	41486.00
552.84	41808.99
553.01	42103.90
553.18	42036.02
553.34	41785.58
553.51	41846.44
553.67	41951.76
553.84	42412.85
554.01	42284.12
554.17	42192.84
554.34	42689.03
554.51	42124.96
554.67	42937.13
554.84	42160.07
555.00	42092.19
555.17	42574.34
555.33	42312.20
555.50	42433.91
555.67	42703.07
555.83	42396.46
556.00	42759.25
556.16	42965.21
556.33	42845.85
556.50	42808.40
556.66	42394.12
556.83	42260.71
556.99	42899.68
557.16	42838.83
557.32	42670.31
557.49	42866.91
557.65	42506.47
557.82	42742.86
557.98	42972.24
558.15	43103.31
558.32	42759.25
558.48	42836.48
558.65	42827.12
558.81	43093.94
558.98	42815.42
559.14	42717.12
559.31	42721.80
559.47	43168.84
559.64	43325.66
559.80	43084.58
559.97	43522.26
560.13	43246.08
560.30	42822.44
560.46	43253.10
560.63	43852.28
560.79	43309.27
560.96	43276.51
561.12	43641.63
561.29	43182.88
561.45	43562.05
561.61	43248.42
561.78	43388.85
561.94	43913.13
562.11	42986.28
562.27	43320.98
562.44	43454.39
562.60	43604.18
562.77	43641.63
562.93	43721.21
563.10	43580.78
563.26	43388.85
563.42	43498.86
563.59	44222.08
563.75	43330.34
563.92	43344.38
564.08	43765.68
564.24	44140.16
564.41	43533.96
564.57	43908.45
564.74	43861.64
564.90	43667.37
565.07	44212.72
565.23	43931.86
565.39	43732.91
565.56	43906.11
565.72	43842.92
565.88	44184.63
566.05	43910.79
566.21	43854.62
566.38	44072.29
566.54	44039.52
566.70	44233.78
566.87	44032.50
567.03	44189.31
567.19	43941.22
567.36	43686.10
567.52	44194.00
567.68	44479.54
567.85	44243.15
568.01	44093.35
568.17	44292.30
568.34	43976.33
568.50	44252.51
568.66	44264.21
568.83	44093.35
568.99	44175.27
569.15	44437.41
569.32	43955.26
569.48	44165.91
569.64	44669.12
569.81	44594.23
569.97	44563.80
570.13	44222.08
570.30	44222.08
570.46	44889.13
570.62	44339.11
570.78	44179.95
570.95	44451.45
571.11	44870.41
571.27	44332.09
571.43	44329.75
571.60	44699.55
571.76	44114.42
571.92	44430.39
572.09	44854.03
572.25	44287.62
572.41	44470.18
572.57	44325.07
572.74	44758.06
572.90	44437.41
573.06	44898.50
573.22	44612.95
573.38	44755.72
573.55	44839.98
573.71	45296.39
573.87	44397.62
574.03	44800.19
574.20	44858.71
574.36	44395.28
574.52	44547.42
574.68	44500.61
574.84	45347.88
575.01	44811.90
575.17	44980.42
575.33	45120.85
575.49	45256.60
575.65	45045.95
575.82	44863.39
575.98	44584.86
576.14	45113.83
576.30	44910.20
576.46	44753.38
576.62	44720.62
576.79	44760.40
576.95	44360.17
577.11	44931.26
577.27	44903.18
577.43	44573.16
577.59	45209.79
577.75	44662.10
577.92	44718.28
578.08	44744.02
578.24	44608.27
578.40	45118.51
578.56	45214.47
578.72	44964.03
578.88	45123.19
579.04	44900.84
579.21	44762.75
579.37	45036.59
579.53	44828.28
579.69	44839.98
579.85	44591.89
580.01	45144.25
580.17	44893.82
580.33	44797.85
580.49	44839.98
580.65	45001.48
580.82	44821.26
580.98	44959.35
581.14	44947.65
581.30	45064.67
581.46	45235.53
581.62	44992.12
581.78	45015.52
581.94	45095.10
582.10	45055.31
582.26	44945.31
582.42	45167.66
582.58	44713.59
582.74	45130.21
582.90	44828.28
583.06	45024.89
583.22	45123.19
583.38	44711.25
583.54	45263.62
583.70	45174.68
583.86	45062.33
584.02	44828.28
584.18	45249.58
584.34	45422.78
584.50	45359.58
584.66	45455.54
584.82	45305.75
584.98	45483.63
585.14	45282.34
585.30	45237.87
585.46	44732.32
585.62	44917.22
585.78	45406.39
585.94	44914.88
586.10	45165.32
586.26	45354.90
586.42	44966.37
586.58	45551.51
586.74	44989.78
586.90	45132.55
587.06	45083.40
587.22	45205.11
587.38	45024.89
587.54	45371.28
587.70	45584.27
587.86	45450.86
588.02	45390.01
588.18	44706.57
588.34	45118.51
588.49	45322.13
588.65	45317.45
588.81	45242.56
588.97	45095.10
589.13	45177.02
589.29	45127.87
589.45	45329.16
589.61	45502.35
589.77	45546.82
589.93	45034.25
590.08	45645.13
590.24	45535.12
590.40	45764.49
590.56	45851.09
590.72	45258.94
590.88	45408.73
591.04	45207.45
591.20	45640.45
591.35	46000.89
591.51	45832.37
591.67	45741.09
591.83	45558.53
591.99	45345.54
592.15	45296.39
592.31	45567.89
592.46	45436.82
592.62	45378.31
592.78	46052.38
592.94	45951.74
593.10	45635.77
593.26	46279.41
593.41	46071.10
593.57	46031.32
593.73	45610.02
593.89	46005.57
594.05	45958.76
594.20	46087.49
594.36	46160.05
594.52	45504.70
594.68	45801.94
594.84	45823.01
594.99	46614.11
595.15	45832.37
595.31	45979.82
595.47	45535.12
595.62	45881.52
595.78	46204.52
595.94	46216.22
596.10	45186.38
596.25	45944.72
596.41	46466.66
596.57	45680.24
596.73	46089.83
596.88	45610.02
597.04	45914.29
597.20	45663.85
597.36	46220.90
597.51	46040.68
597.67	45954.08
597.83	45862.80
597.99	45862.80
598.14	45881.52
598.30	45968.12
598.46	45935.35
598.61	46335.59
598.77	45921.31
598.93	46256.01
599.09	45787.90
599.24	46134.30
599.40	45581.93
599.56	46141.32
599.71	46370.69
599.87	46787.31
600.03	46131.96
600.18	45649.81
600.34	46073.45
600.50	46143.66
600.65	46066.42
600.81	46330.90
600.97	46267.71
601.12	46464.32
601.28	46071.10
601.44	46157.70
601.59	45897.91
601.75	45886.20
601.91	46312.18
602.06	45804.28
602.22	46361.33
602.37	45935.35
602.53	45771.52
602.69	46169.41
602.84	46115.58
603.00	45659.17
603.16	46281.75
603.31	45886.20
603.47	45909.61
603.62	46073.45
603.78	45759.81
603.94	46302.82
604.09	46277.07
604.25	45977.48
604.40	46337.93
604.56	46361.33
604.71	46089.83
604.87	46103.87
605.03	45736.41
605.18	46050.04
605.34	45874.50
605.49	45380.65
605.65	46237.28
605.80	45404.05
605.96	45720.02
606.12	45928.33
606.27	45776.20
606.43	45684.92
606.58	46134.30
606.74	45944.72
606.89	45869.82
607.05	46028.98
607.20	46223.24
607.36	45614.70
607.51	45972.80
607.67	45808.96
607.82	45588.95
607.98	46258.35
608.13	45930.67
608.29	45750.45
608.44	45500.01
608.60	45593.64
608.75	45717.68
608.91	45876.84
609.06	45324.47
609.22	45979.82
609.37	45404.05
609.53	46148.34
609.68	45799.60
609.84	45909.61
609.99	45673.21
610.15	45804.28
610.30	45722.37
610.46	45474.27
610.61	45638.11
610.76	45808.96
610.92	45223.83
611.07	45411.07
611.23	45605.34
611.38	45572.57
611.54	45865.14
611.69	45965.78
611.84	46066.42
612.00	45600.66
612.15	45357.24
612.31	45785.56
612.46	44727.64
612.62	45453.20
612.77	45418.10
612.92	45715.34
613.08	45659.17
613.23	45708.32
613.39	45631.08
613.54	44957.01
613.69	45553.85
613.85	45052.97
614.00	45361.92
614.15	45574.91
614.31	45162.98
614.46	45280.00
614.62	45240.21
614.77	45146.59
614.92	45212.13
615.08	45113.83
615.23	45167.66
615.38	45333.84
615.54	44837.64
615.69	45654.49
615.84	45031.91
616.00	45450.86
616.15	45624.06
616.30	45404.05
616.46	45088.08
616.61	45116.17
616.76	45275.32
616.92	45188.72
617.07	45155.96
617.22	44804.88
617.37	44547.42
617.53	45081.06
617.68	45272.98
617.83	45134.89
617.99	45020.20
618.14	45244.90
618.29	44594.23
618.45	44446.77
618.60	44589.55
618.75	44554.44
618.90	44748.70
619.06	44601.25
619.21	44964.03
619.36	44940.63
619.51	44552.10
619.67	44240.81
619.82	44512.31
619.97	44811.90
620.12	44865.73
620.28	44524.01
620.43	45097.44
620.58	44683.17
620.73	44594.23
620.89	44844.66
621.04	44964.03
621.19	44875.09
621.34	44428.05
621.49	44332.09
621.65	44512.31
621.80	44800.19
621.95	44659.76
622.10	44608.27
622.25	44495.92
622.41	44287.62
622.56	44432.73
622.71	44678.49
622.86	44179.95
623.01	44535.71
623.16	44215.06
623.32	44341.45
623.47	44156.55
623.62	44362.51
623.77	44439.75
623.92	44289.96
624.07	44282.94
624.23	44491.24
624.38	44566.14
624.53	43831.21
624.68	44266.55
624.83	43962.28
624.98	43732.91
625.13	43533.96
625.29	43913.13
625.44	44076.97
625.59	43810.15
625.74	44030.16
625.89	43632.27
626.04	43709.50
626.19	43763.34
626.34	43995.05
626.49	43519.92
626.65	43777.38
626.80	43512.90
626.95	43264.80
627.10	43374.81
627.25	43620.56
627.40	43346.72
627.55	43952.92
627.70	43409.92
627.85	43768.02
628.00	43672.06
628.15	43508.22
628.30	42946.49
628.45	43131.39
628.60	42829.46
628.76	43508.22
628.91	43159.48
629.06	42855.21
629.21	43346.72
629.36	43306.93
629.51	43154.80
629.66	43292.89
629.81	43419.28
629.96	43328.00
630.11	43157.14
630.26	42775.63
630.41	43297.57
630.56	43037.77
630.71	43435.66
630.86	43042.45
631.01	42672.65
631.16	42759.25
631.31	42862.23
631.46	42855.21
631.61	43033.09
631.76	42946.49
631.91	42747.54
632.06	43196.93
632.21	43271.82
632.36	43201.61
632.51	42955.85
632.66	42885.64
632.81	42712.44
632.96	43098.62
633.10	42604.77
633.25	42674.99
633.40	42459.66
633.55	42656.26
633.70	42373.06
633.85	42618.81
634.00	42148.37
634.15	42813.08
634.30	42342.63
634.45	42131.98
634.60	42476.04
634.75	42419.87
634.90	42483.06
635.05	42721.80
635.19	42433.91
635.34	42288.80
635.49	42344.97
635.64	42508.81
635.79	42728.82
635.94	42316.89
636.09	42349.65
636.24	42096.88
636.39	42272.42
636.53	42471.36
636.68	41673.24
636.83	42003.25
636.98	42066.45
637.13	41834.74
637.28	41881.55
637.43	41970.49
637.57	42342.63
637.72	41759.84
637.87	41853.46
638.02	41507.06
638.17	41420.46
638.32	41921.34
638.46	41102.15
638.61	41422.80
638.76	41619.41
638.91	41706.01
639.06	41577.28
639.20	41502.38
639.35	41422.80
639.50	41872.18
639.65	41790.27
639.80	41738.77
639.94	41977.51
640.09	41565.57
640.24	41448.55
640.39	41427.48
640.54	41312.80
640.68	41874.52
640.83	41338.54
640.98	41184.07
641.13	41188.75
641.27	41387.69
641.42	41434.50
641.57	41067.04
641.72	41069.38
641.86	41301.09
642.01	41111.51
642.16	41123.21
642.31	40950.01
642.45	41418.12
642.60	41216.83
642.75	41134.92
642.90	41291.73
643.04	41228.54
643.19	40746.39
643.34	40980.44
643.48	40697.24
643.63	40730.00
643.78	40914.90
643.93	41411.10
644.07	41038.95
644.22	40854.05
644.37	41006.19
644.51	41198.11
644.66	40849.37
644.81	40980.44
644.95	40631.70
645.10	41057.68
645.25	40507.65
645.39	40552.12
645.54	40942.99
645.69	40076.99
645.83	40268.92
645.98	40360.20
646.13	40446.80
646.27	40254.87
646.42	40301.68
646.57	40563.82
646.71	40512.33
646.86	40556.80
647.00	40669.15
647.15	40538.08
647.30	40371.90
647.44	40170.61
647.59	40102.74
647.74	40067.63
647.88	40514.67
648.03	40203.38
648.17	40552.12
648.32	40273.60
648.47	40322.75
648.61	39952.94
648.76	39959.97
648.90	39985.71
649.05	40013.80
649.20	39957.63
649.34	39936.56
649.49	40313.39
649.63	40044.23
649.78	40287.64
649.92	39812.51
650.07	40446.80
650.21	40566.16
650.36	39969.33
650.51	40018.48
650.65	40339.13
650.80	40020.82
650.94	40105.08
651.09	40116.78
651.23	39611.23
651.38	39435.69
651.52	39538.67
651.67	39765.70
651.81	39988.05
651.96	39824.22
652.10	39206.31
652.25	39164.18
652.39	39255.46
652.54	39969.33
652.68	39529.31
652.83	39473.13
652.97	39707.19
653.12	39388.88
653.26	39587.82
653.41	39452.07
653.55	39321.00
653.70	39323.34
653.84	40072.31
653.99	39533.99
654.13	39391.22
654.27	39196.95
654.42	39311.64
654.56	39505.90
654.71	39321.00
654.85	39431.01
655.00	39124.40
655.14	39519.95
655.29	39136.10
655.43	39405.26
655.57	39353.77
655.72	38635.22
655.86	39147.80
656.01	38785.02
656.15	38953.54
656.30	38986.30
656.44	38838.85
656.58	39091.63
656.73	39201.63
656.87	38309.89
657.01	38593.09
657.16	38719.48
657.30	39100.99
657.45	38972.26
657.59	38663.31
657.73	38377.76
657.88	38719.48
658.02	38707.78
658.16	38911.41
658.31	38403.51
658.45	38841.19
658.60	38284.14
658.74	38202.22
658.88	38522.88
659.03	38323.93
659.17	38251.38
659.31	38064.13
659.46	38342.66
659.60	38426.92
659.74	38038.39
659.89	37497.72
660.03	37329.20
660.17	37951.79
660.32	38078.18
660.46	37607.73
660.60	37530.49
660.74	37600.71
660.89	37715.39
661.03	37645.18
661.17	37691.99
661.32	37258.99
661.46	37469.64
661.60	37523.47
661.74	37647.52
661.89	36994.51
662.03	37385.38
662.17	37078.77
662.31	37237.92
662.46	37429.85
662.60	36989.83
662.74	36397.67
662.88	36460.87
663.03	36587.25
663.17	36514.70
663.31	36875.14
663.45	36961.74
663.60	37263.67
663.74	36657.47
663.88	36620.02
664.02	36671.51
664.17	37127.92
664.31	36636.41
664.45	36332.14
664.59	36620.02
664.73	36594.28
664.88	36465.55
665.02	36062.97
665.16	36495.97
665.30	36472.57
665.44	36079.36
665.59	36196.38
665.73	35714.23
665.87	35824.24
666.01	35945.95
666.15	36149.57
666.29	35709.55
666.44	35999.78
666.58	35971.69
666.72	35770.41
666.86	35864.03
667.00	35725.94
667.14	35585.50
667.28	35452.09
667.43	35482.52
667.57	35421.67
667.71	35426.35
667.85	35517.63
667.99	35594.87
668.13	35129.10
668.27	35093.99
668.41	35166.55
668.56	34749.93
668.70	34749.93
668.84	34651.63
668.98	34415.24
669.12	34721.85
669.26	34506.52
669.40	34803.77
669.54	34890.37
669.68	34520.56
669.82	34368.43
669.96	34284.17
670.10	33504.77
670.25	34059.48
670.39	34328.64
670.53	34146.08
670.67	33743.50
670.81	34047.77
670.95	34061.82
671.09	33984.58
671.23	33944.79
671.37	33710.74
671.51	33654.56
671.65	33696.69
671.79	33919.04
671.93	33680.31
672.07	33755.21
672.21	33687.33
672.35	33383.06
672.49	33254.33
672.63	33481.36
672.77	33174.75
672.91	33139.65
673.05	32800.27
673.19	33048.36
673.33	32678.56
673.47	32680.90
673.61	32617.71
673.75	32416.42
673.89	32437.48
674.03	32493.66
674.17	32002.14
674.31	32173.00
674.45	32224.50
674.59	32163.64
674.73	32215.13
674.87	31686.17
675.01	31740.00
675.15	31360.84
675.29	31367.86
675.43	31421.69
675.56	31218.07
675.70	31208.70
675.84	31281.26
675.98	30307.60
676.12	31292.96
676.26	31159.55
676.40	31033.16
676.54	31206.36
676.68	30607.19
676.82	30721.87
676.96	31204.02
677.10	30948.90
677.23	30443.35
677.37	30494.84
677.51	30787.41
677.65	30305.26
677.79	30305.26
677.93	30204.61
678.07	30506.54
678.21	29645.23
678.34	29628.84
678.48	29708.42
678.62	29809.06
678.76	29649.91
678.90	29486.07
679.04	29287.12
679.18	29734.17
679.31	29116.26
679.45	28842.42
679.59	28898.59
679.73	28599.01
679.87	28673.90
680.00	28788.59
680.14	28952.43
680.28	29074.13
680.42	28538.15
680.56	28020.89
680.70	28180.05
680.83	28025.57
680.97	28109.83
681.11	28240.90
681.25	28231.54
681.39	27934.29
681.52	27449.80
681.66	27566.83
681.80	27211.07
681.94	27035.53
682.07	27424.06
682.21	27119.79
682.35	27133.83
682.49	27257.88
682.62	26967.65
682.76	27365.54
682.90	26906.80
683.04	26974.67
683.17	26625.93
683.31	26799.13
683.45	26345.07
683.59	26295.92
683.72	25823.13
683.86	26176.55
684.00	26185.91
684.13	26122.72
684.27	25701.42
684.41	25612.48
684.55	25652.27
684.68	25869.94
684.82	25729.51
684.96	25413.54
685.09	25462.69
685.23	25340.98
685.37	25493.12
685.50	25535.24
685.64	25181.82
685.78	25174.80
685.91	24957.13
686.05	24491.37
686.19	23936.66
686.32	24243.27
686.46	24032.62
686.60	24318.17
686.73	24353.27
686.87	24051.34
687.01	24095.82
687.14	23997.51
687.28	23864.10
687.42	23915.59
687.55	23630.05
687.69	23906.23
687.82	23723.67
687.96	23398.34
688.10	23524.72
688.23	23447.49
688.37	23302.37
688.50	23487.28
688.64	23161.94
688.78	23166.62
688.91	23012.15
689.05	22827.24
689.18	22464.46
689.32	22071.25
689.46	22607.23
689.59	22363.82
689.73	22651.70
689.86	22572.13
690.00	22265.52
690.13	21998.70
690.27	22462.12
690.41	21954.22
690.54	21832.52
690.68	21563.36
690.81	21916.78
690.95	21324.62
691.08	21406.54
691.22	21008.65
691.35	21322.28
691.49	21174.83
691.62	21226.32
691.76	20849.49
691.89	20893.96
692.03	20545.22
692.16	20917.37
692.30	20304.15
692.43	20608.42
692.57	20535.86
692.70	20498.41
692.84	20240.95
692.97	20095.84
693.11	20098.18
693.24	20009.24
693.38	19583.26
693.51	19765.82
693.65	19536.45
693.78	19723.69
693.92	19454.53
694.05	19793.91
694.19	19545.81
694.32	19564.54
694.45	19803.27
694.59	19632.41
694.72	19346.87
694.86	19126.86
694.99	18801.52
695.13	18757.05
695.26	18621.30
695.39	18625.98
695.53	18691.52
695.66	18712.58
695.80	18347.46
695.93	18427.04
696.07	18291.29
696.20	17914.46
696.33	17898.08
696.47	17865.31
696.60	17785.73
696.73	18136.81
696.87	18118.09
697.00	17935.53
697.14	17642.96
697.27	17408.90
697.40	17621.89
697.54	17568.06
697.67	17525.93
697.80	17624.23
697.94	17078.89
698.07	17151.45
698.21	16940.80
698.34	17130.38
698.47	16893.99
698.61	16753.55
698.74	16407.16
698.87	16634.19
699.01	16404.81
699.14	16671.64
699.27	16135.65
699.40	16116.93
699.54	16304.17
699.67	15920.32
699.80	16430.56
699.94	15936.71
700.07	16369.71
700.20	15871.17
700.34	15695.63
700.47	15964.79
700.60	15730.74
700.73	15901.60
700.87	15417.11
701.00	15496.69
701.13	15318.81
701.26	15349.23
701.40	15197.10
701.53	14923.26
701.66	15136.24
701.79	14956.02
701.93	14846.02
702.06	14483.24
702.19	14602.60
702.32	14721.97
702.46	15007.52
702.59	14693.88
702.72	14757.08
702.85	14501.96
702.99	14586.22
703.12	14377.91
703.25	14270.25
703.38	14307.69
703.51	14136.84
703.65	14160.24
703.78	13671.07
703.91	13949.59
704.04	13666.39
704.17	13858.31
704.31	13788.10
704.44	13617.24
704.57	13444.04
704.70	13767.03
704.83	13507.23
704.96	13231.05
705.10	13004.02
705.23	13186.58
>>>>>End Processed Spectral Data<<<<<
