SpectraSuite Data File
++++++++++++++++++++++++++++++++++++
Date: Fri Oct 25 10:44:03 EDT 2013
User: price-jones
Dark Spectrum Present: No
Reference Spectrum Present: No
Number of Sampled Component Spectra: 1
Spectrometers: USB2+H05261
Integration Time (usec): 100000 (USB2+H05261)
Spectra Averaged: 1 (USB2+H05261)
Boxcar Smoothing: 0 (USB2+H05261)
Correct for Electrical Dark: No (USB2+H05261)
Strobe/Lamp Enabled: No (USB2+H05261)
Correct for Detector Non-linearity: No (USB2+H05261)
Correct for Stray Light: No (USB2+H05261)
Number of Pixels in Processed Spectrum: 2048
>>>>>Begin Processed Spectral Data<<<<<
365.73	107.66
365.92	107.66
366.12	107.66
366.32	37.45
366.52	2.34
366.72	84.26
366.91	51.49
367.11	16.38
367.31	0.00
367.51	0.00
367.70	28.09
367.90	67.88
368.10	35.11
368.30	56.17
368.49	0.00
368.69	53.83
368.89	0.00
369.09	77.24
369.28	21.06
369.48	37.45
369.68	140.43
369.87	25.75
370.07	100.64
370.27	65.54
370.47	266.82
370.66	468.11
370.86	505.56
371.06	456.40
371.25	449.38
371.45	444.70
371.65	409.59
371.84	458.74
372.04	486.83
372.24	528.96
372.44	477.47
372.63	484.49
372.83	514.92
373.03	451.72
373.22	486.83
373.42	564.07
373.62	524.28
373.81	631.94
374.01	592.16
374.21	561.73
374.40	531.30
374.60	599.18
374.79	580.45
374.99	566.41
375.19	601.52
375.38	683.44
375.58	592.16
375.78	603.86
375.97	643.65
376.17	645.99
376.37	608.54
376.56	631.94
376.76	585.13
376.95	631.94
377.15	660.03
377.35	645.99
377.54	636.63
377.74	634.29
377.93	718.54
378.13	741.95
378.33	690.46
378.52	725.57
378.72	631.94
378.91	697.48
379.11	615.56
379.31	734.93
379.50	669.39
379.70	641.31
379.89	767.70
380.09	681.10
380.28	746.63
380.48	697.48
380.68	704.50
380.87	704.50
381.07	702.16
381.26	718.54
381.46	634.29
381.65	634.29
381.85	676.41
382.04	627.26
382.24	676.41
382.43	770.04
382.63	760.67
382.83	800.46
383.02	767.70
383.22	777.06
383.41	720.88
383.61	737.27
383.80	791.10
384.00	746.63
384.19	809.83
384.39	835.57
384.58	821.53
384.78	828.55
384.97	847.27
385.17	910.47
385.36	844.93
385.56	833.23
385.75	823.87
385.95	840.25
386.14	875.36
386.34	760.67
386.53	828.55
386.72	774.72
386.92	903.45
387.11	840.25
387.31	840.25
387.50	840.25
387.70	912.81
387.89	884.72
388.09	959.62
388.28	961.96
388.48	924.51
388.67	908.13
388.86	1041.54
389.06	957.28
389.25	1004.09
389.45	968.98
389.64	1029.84
389.84	1041.54
390.03	1029.84
390.22	1107.07
390.42	1111.75
390.61	1041.54
390.81	1097.71
391.00	1043.88
391.19	1053.24
391.39	1102.39
391.58	1064.94
391.78	1018.13
391.97	1025.15
392.16	1107.07
392.36	1102.39
392.55	994.73
392.75	1004.09
392.94	1006.43
393.13	987.71
393.33	1083.67
393.52	992.39
393.71	1135.16
393.91	1153.88
394.10	1167.93
394.29	1249.85
394.49	1104.73
394.68	1207.72
394.88	1242.82
395.07	1245.16
395.26	1291.98
395.46	1210.06
395.65	1228.78
395.84	1242.82
396.04	1315.38
396.23	1200.69
396.42	1188.99
396.62	1301.34
396.81	1254.53
397.00	1329.42
397.19	1348.15
397.39	1399.64
397.58	1516.67
397.77	1502.62
397.97	1432.41
398.16	1526.03
398.35	1633.69
398.55	1638.38
398.74	1521.35
398.93	1565.82
399.12	1640.72
399.32	1582.20
399.51	1692.21
399.70	1678.16
399.90	1659.44
400.09	1657.10
400.28	1680.50
400.47	1722.63
400.67	1713.27
400.86	1722.63
401.05	1832.64
401.24	1739.02
401.44	1783.49
401.63	1860.73
401.82	1867.75
402.01	1832.64
402.21	1771.79
402.40	1851.36
402.59	1898.17
402.78	1881.79
402.97	1884.13
403.17	1813.92
403.36	1893.49
403.55	1900.52
403.74	1963.71
403.93	1888.81
404.13	1998.82
404.32	1959.03
404.51	1940.30
404.70	1907.54
404.89	2033.93
405.09	2073.71
405.28	2047.97
405.47	2085.42
405.66	2080.74
405.85	1975.41
406.05	2092.44
406.24	2090.10
406.43	2186.06
406.62	2195.42
406.81	2267.98
407.00	2188.40
407.20	2195.42
407.39	2188.40
407.58	2214.15
407.77	2251.60
407.96	2317.13
408.15	2333.51
408.34	2464.58
408.54	2349.90
408.73	2396.71
408.92	2415.43
409.11	2375.64
409.30	2485.65
409.49	2406.07
409.68	2420.11
409.87	2410.75
410.07	2466.92
410.26	2452.88
410.45	2579.27
410.64	2555.86
410.83	2684.59
411.02	2623.74
411.21	2619.06
411.40	2689.28
411.59	2698.64
411.78	2612.04
411.98	2651.83
412.17	2836.73
412.36	2874.18
412.55	2930.35
412.74	2899.92
412.93	2724.38
413.12	2956.10
413.31	2928.01
413.50	2904.60
413.69	2991.20
413.88	3042.70
414.07	2981.84
414.26	3042.70
414.45	2949.08
414.64	3082.49
414.83	3152.70
415.02	3258.03
415.22	3248.66
415.41	3274.41
415.60	3180.79
415.79	3314.20
415.98	3368.03
416.17	3377.39
416.36	3328.24
416.55	3314.20
416.74	3543.57
416.93	3412.50
417.12	3400.80
417.31	3538.89
417.50	3620.81
417.69	3716.77
417.88	3639.53
418.07	3524.85
418.26	3686.34
418.45	3562.30
418.64	3768.26
418.83	3651.24
419.02	3721.45
419.21	3698.05
419.39	3789.33
419.58	3623.15
419.77	3646.55
419.96	3782.31
420.15	3833.80
420.34	3845.50
420.53	3911.04
420.72	4014.02
420.91	4021.04
421.10	4053.81
421.29	4154.45
421.48	4042.11
421.67	3946.14
421.86	3955.51
422.05	4018.70
422.24	3983.59
422.43	3962.53
422.61	3981.25
422.80	4383.82
422.99	4016.36
423.18	4039.76
423.37	4208.28
423.56	4088.92
423.75	4074.87
423.94	4028.06
424.13	3871.25
424.32	4011.68
424.50	4182.54
424.69	4215.30
424.88	4161.47
425.07	4128.70
425.26	4004.66
425.45	4091.26
425.64	4222.33
425.83	4229.35
426.01	4248.07
426.20	4184.88
426.39	4175.52
426.58	4063.17
426.77	4074.87
426.96	4266.80
427.15	4067.85
427.33	4346.37
427.52	4184.88
427.71	4388.50
427.90	4353.40
428.09	4409.57
428.28	4421.27
428.46	4208.28
428.65	4184.88
428.84	4360.42
429.03	4484.47
429.22	4362.76
429.40	4252.75
429.59	4318.29
429.78	4140.41
429.97	4037.42
430.16	4301.90
430.34	4184.88
430.53	4292.54
430.72	4325.31
430.91	4390.84
431.10	4470.42
431.28	4587.45
431.47	4753.63
431.66	4875.34
431.85	4657.67
432.03	4809.80
432.22	4908.10
432.41	4755.97
432.60	4730.22
432.79	4873.00
432.97	4975.98
433.16	4954.91
433.35	4957.25
433.54	4901.08
433.72	4821.50
433.91	4882.36
434.10	4994.70
434.28	5074.28
434.47	4905.76
434.66	5142.16
434.85	5069.60
435.03	5177.26
435.22	5043.85
435.41	5263.86
435.59	5439.40
435.78	5507.28
435.97	5387.91
436.16	5369.19
436.34	5331.74
436.53	5540.05
436.72	5486.22
436.90	5322.38
437.09	5469.83
437.28	5282.59
437.46	5352.81
437.65	5425.36
437.84	5406.64
438.02	5275.57
438.21	5397.28
438.40	5334.08
438.58	5598.56
438.77	5771.76
438.96	5731.97
439.14	5568.13
439.33	5825.59
439.52	5799.85
439.70	5935.60
439.89	5879.43
440.08	5893.47
440.26	6022.20
440.45	5872.40
440.63	6101.78
440.82	6179.01
441.01	6190.72
441.19	6258.59
441.38	6303.06
441.57	6375.62
441.75	6394.34
441.94	6658.82
442.12	6651.80
442.31	6607.33
442.50	6661.16
442.68	6785.21
442.87	6443.49
443.05	6684.57
443.24	6916.28
443.43	6754.79
443.61	6885.86
443.80	6967.77
443.98	6663.51
444.17	6483.28
444.35	6703.29
444.54	6836.70
444.73	6834.36
444.91	6825.00
445.10	6792.23
445.28	6740.74
445.47	6719.68
445.65	6965.43
445.84	6726.70
446.02	6881.18
446.21	7021.61
446.39	6820.32
446.58	6916.28
446.77	6876.49
446.95	6773.51
447.14	6991.18
447.32	7049.69
447.51	6888.20
447.69	6920.96
447.88	7096.50
448.06	6897.56
448.25	6878.83
448.43	6963.09
448.62	7016.93
448.80	7136.29
448.99	7169.06
449.17	7274.38
449.36	7211.19
449.54	7300.13
449.73	7550.57
449.91	7400.77
450.10	7564.61
450.28	7583.34
450.46	7669.94
450.65	7681.64
450.83	7442.90
451.02	7517.80
451.20	7534.18
451.39	7581.00
451.57	7651.21
451.76	7475.67
451.94	7503.76
452.13	7667.60
452.31	7489.71
452.49	7531.84
452.68	7534.18
452.86	7353.96
453.05	7562.27
453.23	7646.53
453.42	7590.36
453.60	7620.78
453.78	7786.96
453.97	7705.04
454.15	7676.96
454.34	7775.26
454.52	7889.95
454.70	8182.51
454.89	7932.08
455.07	7873.56
455.26	7866.54
455.44	8168.47
455.62	7875.90
455.81	8119.32
455.99	8276.13
456.17	8229.32
456.36	8318.26
456.54	8229.32
456.73	8461.04
456.91	8573.38
457.09	8322.94
457.28	8496.14
457.46	8407.20
457.64	8409.54
457.83	8285.50
458.01	8402.52
458.19	8545.30
458.38	8599.13
458.56	8683.39
458.74	8585.08
458.93	8657.64
459.11	8542.96
459.29	8674.03
459.48	8788.71
459.66	8840.20
459.84	8842.54
460.03	8791.05
460.21	8884.67
460.39	8933.82
460.57	8961.91
460.76	9158.52
460.94	9039.15
461.12	8917.44
461.31	9153.84
461.49	9034.47
461.67	8922.12
461.85	9301.29
462.04	9280.22
462.22	9753.01
462.40	9259.16
462.59	9214.69
462.77	9320.01
462.95	9460.45
463.13	9568.11
463.32	9495.55
463.50	9352.78
463.68	9352.78
463.86	9563.43
464.05	9198.31
464.23	9291.93
464.41	9343.42
464.59	9399.59
464.78	9577.47
464.96	9509.60
465.14	9266.18
465.32	9741.31
465.50	9689.82
465.69	9673.43
465.87	9596.20
466.05	9743.65
466.23	9350.44
466.41	9612.58
466.60	9788.12
466.78	9561.09
466.96	9738.97
467.14	9556.41
467.32	9750.67
467.51	9921.53
467.69	9745.99
467.87	9841.95
468.05	10129.84
468.23	9853.66
468.41	9767.06
468.60	9760.03
468.78	9977.70
468.96	9928.55
469.14	10190.69
469.32	10361.55
469.50	9994.09
469.69	10244.52
469.87	10326.44
470.05	10214.10
470.23	10221.12
470.41	10167.29
470.59	10298.36
470.77	10340.49
470.95	10384.96
471.14	10466.88
471.32	10319.42
471.50	10794.55
471.68	10569.86
471.86	10733.70
472.04	10923.28
472.22	11243.93
472.40	10768.80
472.58	10668.16
472.77	10836.68
472.95	10991.16
473.13	11171.38
473.31	10988.82
473.49	11056.69
473.67	10932.64
473.85	11218.19
474.03	11403.09
474.21	11396.07
474.39	11536.50
474.57	11487.35
474.75	11644.17
474.93	11726.08
475.12	11557.57
475.30	11644.17
475.48	11786.94
475.66	11669.91
475.84	11599.70
476.02	12210.57
476.20	11658.21
476.38	11939.07
476.56	12404.84
476.74	12226.96
476.92	12217.60
477.10	12308.88
477.28	12564.00
477.46	12519.53
477.64	12863.58
477.82	13256.79
478.00	13135.09
478.18	12996.99
478.36	13008.70
478.54	13324.67
478.72	13338.71
478.90	13706.18
479.08	13769.37
479.26	13518.93
479.44	13614.90
479.62	13657.03
479.80	13715.54
479.98	13921.51
480.16	14611.96
480.34	14001.08
480.52	14272.59
480.70	14408.34
480.88	14319.40
481.06	14494.94
481.24	14408.34
481.41	14773.46
481.59	15124.54
481.77	14963.04
481.95	14953.68
482.13	15206.46
482.31	15094.11
482.49	15475.62
482.67	15573.92
482.85	15625.42
483.03	15765.85
483.21	15784.57
483.39	16194.17
483.57	16187.14
483.74	16011.60
483.92	16027.99
484.10	16093.52
484.28	16533.54
484.46	16760.58
484.64	16840.15
484.82	16730.15
485.00	17041.44
485.18	17076.55
485.35	17233.36
485.53	16882.28
485.71	16898.67
485.89	17074.21
486.07	16844.84
486.25	17130.38
486.43	17350.39
486.61	17741.26
486.78	18150.85
486.96	17855.95
487.14	18391.93
487.32	18377.89
487.50	18906.85
487.68	18815.57
487.85	19058.98
488.03	19161.97
488.21	19257.93
488.39	19468.58
488.57	19330.48
488.75	19447.51
488.92	19833.70
489.10	19901.58
489.28	20027.96
489.46	20816.72
489.64	20610.76
489.81	21120.99
489.99	20823.75
490.17	20870.56
490.35	21181.85
490.53	21282.49
490.70	21371.43
490.88	21359.73
491.06	21572.72
491.24	21420.58
491.41	21834.86
491.59	21635.91
491.77	21516.54
491.95	21687.40
492.13	22148.49
492.30	22361.48
492.48	22625.96
492.66	22485.53
492.84	22740.64
493.01	23103.43
493.19	22632.98
493.37	23016.83
493.54	23410.04
493.72	23494.30
493.90	23728.35
494.08	23786.86
494.25	24194.12
494.43	23962.40
494.61	24311.14
494.79	24395.40
494.96	24470.30
495.14	24634.14
495.32	24779.25
495.49	24716.06
495.67	24629.46
495.85	25050.75
496.02	24952.45
496.20	25025.01
496.38	25223.95
496.55	25652.27
496.73	25851.22
496.91	26181.23
497.09	25944.84
497.26	25956.54
497.44	25846.54
497.62	26309.96
497.79	26302.94
497.97	26382.52
498.14	26333.37
498.32	26478.48
498.50	26623.59
498.67	26771.05
498.85	27072.98
499.03	27452.14
499.20	27080.00
499.38	27204.05
499.56	27110.43
499.73	27473.21
499.91	27475.55
500.08	27541.08
500.26	27655.77
500.44	27370.22
500.61	27723.65
500.79	27253.20
500.97	27491.93
501.14	28002.17
501.32	28048.98
501.49	28327.50
501.67	28435.17
501.84	28711.35
502.02	28599.01
502.20	28519.43
502.37	28980.51
502.55	28769.86
502.72	28912.64
502.90	28945.41
503.07	28741.78
503.25	29151.37
503.43	29017.96
503.60	29301.17
503.78	29427.56
503.95	28940.72
504.13	29525.86
504.30	29401.81
504.48	29865.24
504.65	29886.30
504.83	30445.69
505.01	30274.83
505.18	30558.03
505.36	30354.41
505.53	30410.58
505.71	30918.48
505.88	30766.34
506.06	30696.13
506.23	30583.78
506.41	30338.02
506.58	30686.76
506.76	30796.77
506.93	30792.09
507.11	30845.92
507.28	31466.16
507.46	30717.19
507.63	31028.48
507.81	31529.36
507.98	30967.63
508.16	31519.99
508.33	31562.12
508.50	31793.84
508.68	32224.50
508.85	32222.16
509.03	32055.98
509.20	32573.24
509.38	32194.07
509.55	32533.45
509.73	32460.89
509.90	32531.11
510.08	32652.81
510.25	32318.12
510.42	32383.65
510.60	32645.79
510.77	33184.12
510.95	33247.31
511.12	33291.78
511.30	33099.86
511.47	33163.05
511.64	33694.35
511.82	34080.54
511.99	33490.73
512.17	33591.37
512.34	33558.60
512.51	33736.48
512.69	33692.01
512.86	33921.38
513.04	33766.91
513.21	33666.27
513.38	34101.61
513.56	33811.38
513.73	34129.69
513.90	34216.29
514.08	33830.10
514.25	34227.99
514.43	34183.52
514.60	34586.10
514.77	34646.95
514.95	34930.16
515.12	34815.47
515.29	34710.14
515.47	35360.81
515.64	35079.95
515.81	35098.67
515.99	34998.03
516.16	34796.74
516.33	34820.15
516.51	34167.14
516.68	33942.45
516.85	34082.88
517.03	34775.68
517.20	34927.81
517.37	35042.50
517.54	35466.14
517.72	35587.85
517.89	35035.48
518.06	34792.06
518.24	35009.73
518.41	35819.56
518.58	35487.20
518.75	35732.96
518.93	36315.75
519.10	35971.69
519.27	36154.26
519.45	36011.48
519.62	36442.14
519.79	36013.82
519.96	36851.73
520.14	36495.97
520.31	36510.02
520.48	36430.44
520.65	36657.47
520.83	36971.10
521.00	36907.91
521.17	36739.39
521.34	36945.36
521.52	37420.48
521.69	37495.38
521.86	37598.37
522.03	37483.68
522.20	37263.67
522.38	37801.99
522.55	37890.93
522.72	37631.13
522.89	37586.66
523.07	37750.50
523.24	37736.46
523.41	37961.15
523.58	37638.15
523.75	38377.76
523.92	38485.43
524.10	38234.99
524.27	38569.69
524.44	38579.05
524.61	38663.31
524.78	38417.55
524.96	39213.34
525.13	38923.11
525.30	39145.46
525.47	39213.34
525.64	39012.05
525.81	38667.99
525.98	38586.07
526.16	38387.13
526.33	38401.17
526.50	38953.54
526.67	38253.72
526.84	38719.48
527.01	38312.23
527.18	39061.20
527.36	39374.83
527.53	39569.10
527.70	39515.26
527.87	39739.96
528.04	39196.95
528.21	39854.64
528.38	39700.17
528.55	40399.99
528.72	40011.46
528.89	40048.91
529.07	39737.62
529.24	39997.41
529.41	40428.07
529.58	40011.46
529.75	39632.29
529.92	39922.52
530.09	40395.31
530.26	40102.74
530.43	40034.86
530.60	40215.08
530.77	40287.64
530.94	40666.81
531.11	40659.79
531.28	40542.76
531.46	40645.74
531.63	40678.51
531.80	40847.03
531.97	40254.87
532.14	40790.86
532.31	40311.05
532.48	40601.27
532.65	40790.86
532.82	40631.70
532.99	40779.15
533.16	40758.09
533.33	41411.10
533.50	40912.56
533.67	41495.36
533.84	41408.76
534.01	41191.09
534.18	40931.29
534.35	41827.71
534.52	41036.61
534.69	41766.86
534.86	41659.20
535.03	41713.03
535.20	42124.96
535.37	42103.90
535.54	42256.03
535.71	41684.94
535.88	41904.95
536.05	42089.85
536.22	41684.94
536.38	41848.78
536.55	41755.16
536.72	41986.87
536.89	41703.67
537.06	41567.91
537.23	42408.17
537.40	41691.96
537.57	42143.69
537.74	42237.31
537.91	42677.33
538.08	41996.23
538.25	41766.86
538.42	42382.42
538.59	42443.27
538.75	42291.14
538.92	42459.66
539.09	42843.51
539.26	42574.34
539.43	42883.30
539.60	42836.48
539.77	42366.04
539.94	42913.72
540.11	42841.17
540.28	42623.50
540.44	42632.86
540.61	42782.65
540.78	42351.99
540.95	42478.38
541.12	42403.49
541.29	42789.67
541.46	43433.32
541.62	42588.39
541.79	43545.67
541.96	42639.88
542.13	42941.81
542.30	42934.79
542.47	43332.68
542.63	43531.62
542.80	43306.93
542.97	43611.20
543.14	43618.22
543.31	44062.93
543.48	43828.87
543.64	43955.26
543.81	43842.92
543.98	43892.07
544.15	43894.41
544.32	44041.86
544.48	44486.56
544.65	44030.16
544.82	44479.54
544.99	43934.20
545.16	43707.16
545.32	43859.30
545.49	44266.55
545.66	44573.16
545.83	44428.05
546.00	44196.34
546.16	44325.07
546.33	44683.17
546.50	44002.07
546.67	44526.35
546.83	44285.28
547.00	44428.05
547.17	43969.30
547.34	43868.66
547.50	44046.54
547.67	44713.59
547.84	44666.78
548.00	44924.24
548.17	44767.43
548.34	45181.70
548.51	44591.89
548.67	45329.16
548.84	45350.22
549.01	44839.98
549.18	44896.16
549.34	44818.92
549.51	45485.97
549.68	45324.47
549.84	44863.39
550.01	45406.39
550.18	44772.11
550.34	45099.78
550.51	45003.82
550.68	45031.91
550.84	44575.50
551.01	45083.40
551.18	45387.67
551.34	45010.84
551.51	45298.73
551.68	45691.94
551.84	45614.70
552.01	45270.64
552.18	45579.59
552.34	45130.21
552.51	45104.46
552.68	45448.52
552.84	45813.65
553.01	45406.39
553.18	45766.84
553.34	45464.91
553.51	45736.41
553.67	45830.03
553.84	45584.27
554.01	45860.46
554.17	45720.02
554.34	45745.77
554.51	46150.68
554.67	45670.87
554.84	46183.45
555.00	45947.06
555.17	46040.68
555.33	45965.78
555.50	45790.24
555.67	45968.12
555.83	45689.60
556.00	46007.91
556.16	45881.52
556.33	45823.01
556.50	45769.18
556.66	46099.19
556.83	45336.18
556.99	46096.85
557.16	46370.69
557.32	46047.70
557.49	46312.18
557.65	45879.18
557.82	46483.04
557.98	46288.77
558.15	46199.83
558.32	46225.58
558.48	46160.05
558.65	46169.41
558.81	45546.82
558.98	45684.92
559.14	45799.60
559.31	46155.36
559.47	46291.12
559.64	46532.19
559.80	46508.79
559.97	46391.76
560.13	45986.85
560.30	46305.16
560.46	45961.10
560.63	46525.17
560.79	46871.57
560.96	46667.94
561.12	46461.97
561.29	46614.11
561.45	46471.34
561.61	46305.16
561.78	46204.52
561.94	46625.81
562.11	46469.00
562.27	46593.04
562.44	46810.71
562.60	47072.85
562.77	46492.40
562.93	46684.33
563.10	46796.67
563.26	46291.12
563.42	46834.12
563.59	46431.55
563.75	46522.83
563.92	46883.27
564.08	46761.56
564.24	46913.70
564.41	46490.06
564.57	46946.47
564.74	46562.62
564.90	46628.15
565.07	46869.23
565.23	46899.65
565.39	46429.21
565.56	46719.43
565.72	46431.55
565.88	46436.23
566.05	46511.13
566.21	46527.51
566.38	46581.34
566.54	46983.91
566.70	47061.15
566.87	47526.92
567.03	46803.69
567.19	47606.50
567.36	46967.53
567.52	46710.07
567.68	46976.89
567.85	46595.38
568.01	47344.36
568.17	46646.88
568.34	47007.32
568.50	46686.67
568.66	47147.75
568.83	46740.50
568.99	46452.61
569.15	47051.79
569.32	46525.17
569.48	47054.13
569.64	47334.99
569.81	46700.71
569.97	46630.49
570.13	46754.54
570.30	46997.96
570.46	46513.47
570.62	46358.99
570.78	46225.58
570.95	46532.19
571.11	47159.45
571.27	46658.58
571.43	46904.34
571.60	46871.57
571.76	47217.97
571.92	47201.58
572.09	46937.10
572.25	47133.71
572.41	47002.64
572.57	47086.90
572.74	47433.30
572.90	47185.20
573.06	46925.40
573.22	47323.29
573.38	46951.15
573.55	46990.94
573.71	47311.59
573.87	47173.50
574.03	47318.61
574.20	47435.64
574.36	46876.25
574.52	46899.65
574.68	46969.87
574.84	47323.29
575.01	46796.67
575.17	47147.75
575.33	46513.47
575.49	47096.26
575.65	47449.68
575.82	47260.10
575.98	46689.01
576.14	47269.46
576.30	47227.33
576.46	46873.91
576.62	46817.74
576.79	46937.10
576.95	46759.22
577.11	47077.54
577.27	47035.41
577.43	46983.91
577.59	46714.75
577.75	46822.42
577.92	46375.37
578.08	46579.00
578.24	46588.36
578.40	46890.29
578.56	46691.35
578.72	46983.91
578.88	47054.13
579.04	47028.38
579.21	46866.89
579.37	46916.04
579.53	47138.39
579.69	46808.37
579.85	46965.19
580.01	46993.28
580.17	47012.00
580.33	47222.65
580.49	46986.25
580.65	47215.63
580.82	46829.44
580.98	47342.02
581.14	46763.90
581.30	47271.80
581.46	47189.88
581.62	47299.89
581.78	47164.14
581.94	47189.88
582.10	47072.85
582.26	46916.04
582.42	47580.75
582.58	47021.36
582.74	47133.71
582.90	47297.55
583.06	47342.02
583.22	47327.97
583.38	47082.22
583.54	47063.49
583.70	47173.50
583.86	47220.31
584.02	47124.35
584.18	47107.96
584.34	47206.26
584.50	47107.96
584.66	46997.96
584.82	46960.51
584.98	47342.02
585.14	46955.83
585.30	47082.22
585.46	47164.14
585.62	46827.10
585.78	47213.29
585.94	46436.23
586.10	47014.34
586.26	46969.87
586.42	47346.70
586.58	47337.33
586.74	47604.16
586.90	47232.01
587.06	46906.68
587.22	47552.66
587.38	46897.31
587.54	47405.21
587.70	46850.50
587.86	47262.44
588.02	47004.98
588.18	47313.93
588.34	46747.52
588.49	46211.54
588.65	46447.93
588.81	46569.64
588.97	46595.38
589.13	46419.84
589.29	46412.82
589.45	47206.26
589.61	47227.33
589.77	46951.15
589.93	47021.36
590.08	47351.38
590.24	47594.79
590.40	47592.45
590.56	47236.69
590.72	47522.24
590.88	47007.32
591.04	47388.83
591.20	47351.38
591.35	47746.93
591.51	47655.65
591.67	47470.75
591.83	47042.43
591.99	47412.23
592.15	47480.11
592.31	47180.52
592.46	47452.02
592.62	46974.55
592.78	47459.04
592.94	47196.90
593.10	47014.34
593.26	47679.05
593.41	47290.52
593.57	47346.70
593.73	47126.69
593.89	46995.62
594.05	47068.17
594.20	47318.61
594.36	47105.62
594.52	46794.33
594.68	46965.19
594.84	47232.01
594.99	47828.85
595.15	47351.38
595.31	47124.35
595.47	47285.84
595.62	47421.59
595.78	47044.77
595.94	47702.46
596.10	47686.07
596.25	47613.52
596.41	47269.46
596.57	47349.04
596.73	47037.75
596.88	47152.43
597.04	47302.23
597.20	47489.47
597.36	47082.22
597.51	47395.85
597.67	47660.33
597.83	47372.44
597.99	47573.73
598.14	47171.16
598.30	47065.83
598.46	47281.16
598.61	47199.24
598.77	47143.07
598.93	47302.23
599.09	47075.19
599.24	47758.63
599.40	47241.37
599.56	47461.38
599.71	47091.58
599.87	47777.36
600.03	46986.25
600.18	47040.09
600.34	47342.02
600.50	47260.10
600.65	46918.38
600.81	47484.79
600.97	47175.84
601.12	47140.73
601.28	47042.43
601.44	47358.40
601.59	47063.49
601.75	47051.79
601.91	46876.25
602.06	46937.10
602.22	47161.79
602.37	47089.24
602.53	46707.73
602.69	47342.02
602.84	47299.89
603.00	47166.48
603.16	47014.34
603.31	47075.19
603.47	47065.83
603.62	47084.56
603.78	47697.78
603.94	47365.42
604.09	47346.70
604.25	47344.36
604.40	47129.03
604.56	46871.57
604.71	47260.10
604.87	47283.50
605.03	46761.56
605.18	46848.16
605.34	46892.63
605.49	46705.39
605.65	47145.41
605.80	46855.18
605.96	47203.92
606.12	47138.39
606.27	47255.42
606.43	46824.76
606.58	47107.96
606.74	46958.17
606.89	46635.17
607.05	47412.23
607.20	47026.04
607.36	47313.93
607.51	46653.90
607.67	46995.62
607.82	46873.91
607.98	46752.20
608.13	47028.38
608.29	46548.57
608.44	46349.63
608.60	46667.94
608.75	46810.71
608.91	47077.54
609.06	46705.39
609.22	46890.29
609.37	46639.86
609.53	46904.34
609.68	46471.34
609.84	46686.67
609.99	46550.91
610.15	46417.50
610.30	46143.66
610.46	46756.88
610.61	46768.58
610.76	46225.58
610.92	46286.43
611.07	46681.98
611.23	46560.28
611.38	46506.44
611.54	46312.18
611.69	46260.69
611.84	46040.68
612.00	46380.06
612.15	46211.54
612.31	46256.01
612.46	46284.09
612.62	46330.90
612.77	46337.93
612.92	46656.24
613.08	46080.47
613.23	46181.11
613.39	46422.19
613.54	45911.95
613.69	46040.68
613.85	45790.24
614.00	46078.13
614.15	46464.32
614.31	45900.25
614.46	46494.74
614.62	46232.60
614.77	45874.50
614.92	45961.10
615.08	46167.07
615.23	45806.62
615.38	45439.16
615.54	45595.98
615.69	45858.12
615.84	45647.47
616.00	45322.13
616.15	45656.83
616.30	46094.51
616.46	45867.48
616.61	45624.06
616.76	45263.62
616.92	45167.66
617.07	45516.40
617.22	45291.71
617.37	45427.46
617.53	45918.97
617.68	45841.73
617.83	45736.41
617.99	45343.20
618.14	45500.01
618.29	45439.16
618.45	45268.30
618.60	45015.52
618.75	45001.48
618.90	45024.89
619.06	45106.80
619.21	45497.67
619.36	45118.51
619.51	45298.73
619.67	45055.31
619.82	45736.41
619.97	45308.09
620.12	45324.47
620.28	44811.90
620.43	44982.76
620.58	44959.35
620.73	45287.03
620.89	45059.99
621.04	45017.86
621.19	44825.94
621.34	45418.10
621.49	45106.80
621.65	44847.00
621.80	45202.77
621.95	44994.46
622.10	44540.39
622.25	44465.50
622.41	44662.10
622.56	44638.70
622.71	44648.06
622.86	44608.27
623.01	44800.19
623.16	44947.65
623.32	44467.84
623.47	44790.83
623.62	44538.05
623.77	44346.13
623.92	44598.91
624.07	43910.79
624.23	44250.17
624.38	44240.81
624.53	44313.36
624.68	44210.38
624.83	44294.64
624.98	44453.79
625.13	43564.39
625.29	43938.88
625.44	44296.98
625.59	43929.51
625.74	44107.40
625.89	43948.24
626.04	44107.40
626.19	43999.73
626.34	43892.07
626.49	43990.37
626.65	44306.34
626.80	43959.94
626.95	43992.71
627.10	43700.14
627.25	43725.89
627.40	43756.32
627.55	43269.48
627.70	43592.48
627.85	43243.74
628.00	43735.25
628.15	43548.01
628.30	43587.80
628.45	44048.88
628.60	43452.05
628.76	43477.79
628.91	43871.00
629.06	43468.43
629.21	43267.14
629.36	43227.35
629.51	43241.40
629.66	43110.33
629.81	42878.61
629.96	43592.48
630.11	42983.94
630.26	43615.88
630.41	43461.41
630.56	43028.41
630.71	43339.70
630.86	43086.92
631.01	42518.17
631.16	43093.94
631.31	42909.04
631.46	42763.93
631.61	42630.52
631.76	43021.39
631.91	42684.35
632.06	43175.86
632.21	42946.49
632.36	43035.43
632.51	42614.13
632.66	42792.01
632.81	42089.85
632.96	42602.43
633.10	42728.82
633.25	42731.16
633.40	42440.93
633.55	42721.80
633.70	42457.32
633.85	42368.38
634.00	42557.96
634.15	42621.16
634.30	42239.65
634.45	42146.03
634.60	42117.94
634.75	42192.84
634.90	42190.50
635.05	42061.77
635.19	42071.13
635.34	42422.21
635.49	42354.33
635.64	42246.67
635.79	41696.64
635.94	41848.78
636.09	41888.57
636.24	41928.36
636.39	41748.14
636.53	42148.37
636.68	41869.84
636.83	42068.79
636.98	42483.06
637.13	41731.75
637.28	41825.37
637.43	42031.34
637.57	42190.50
637.72	41591.32
637.87	41869.84
638.02	41804.31
638.17	41801.97
638.32	41951.76
638.46	41778.56
638.61	41556.21
638.76	41682.60
638.91	41684.94
639.06	41926.02
639.20	41935.38
639.35	41977.51
639.50	41872.18
639.65	41680.26
639.80	41500.04
639.94	41343.22
640.09	41357.27
640.24	41294.07
640.39	41139.60
640.54	41497.70
640.68	41542.17
640.83	41003.85
640.98	41064.70
641.13	40802.56
641.27	41532.81
641.42	41324.50
641.57	41434.50
641.72	41158.32
641.86	40865.75
642.01	40460.84
642.16	40327.43
642.31	40776.81
642.45	41076.40
642.60	40856.39
642.75	40580.21
642.90	40650.42
643.04	40891.50
643.19	41041.29
643.34	41043.63
643.48	40165.93
643.63	40423.39
643.78	40095.72
643.93	40528.72
644.07	40622.34
644.22	40392.97
644.37	40781.49
644.51	40027.84
644.66	40264.24
644.81	40458.50
644.95	40175.30
645.10	40261.90
645.25	40442.12
645.39	40582.55
645.54	40254.87
645.69	40446.80
645.83	40547.44
645.98	40545.10
646.13	40177.64
646.27	39964.65
646.42	39950.60
646.57	39590.16
646.71	40172.96
646.86	39412.28
647.00	40479.57
647.15	39974.01
647.30	40161.25
647.44	40158.91
647.59	39693.15
647.74	39758.68
647.88	39875.71
648.03	40292.32
648.17	39955.29
648.32	39997.41
648.47	39868.69
648.61	39997.41
648.76	40343.81
648.90	39447.39
649.05	39868.69
649.20	40027.84
649.34	39592.50
649.49	39463.77
649.63	39515.26
649.78	39718.89
649.92	39601.86
650.07	39735.27
650.21	39218.02
650.36	39667.40
650.51	39590.16
650.65	39826.56
650.80	39856.98
650.94	39988.05
651.09	39466.11
651.23	39072.90
651.38	39124.40
651.52	39208.65
651.67	39119.71
651.81	38913.75
651.96	38939.49
652.10	39077.58
652.25	39473.13
652.39	39203.97
652.54	38976.94
652.68	39543.35
652.83	39164.18
652.97	39161.84
653.12	39218.02
653.26	38749.91
653.41	39014.39
653.55	38909.07
653.70	39014.39
653.84	39220.36
653.99	38895.02
654.13	38990.98
654.27	39026.09
654.42	38635.22
654.56	38686.71
654.71	38960.56
654.85	38527.56
655.00	38714.80
655.14	38387.13
655.29	38204.56
655.43	38698.42
655.57	37687.31
655.72	37589.00
655.86	37818.38
656.01	37799.65
656.15	37603.05
656.30	37675.60
656.44	38068.81
656.58	37865.19
656.73	38181.16
656.87	38185.84
657.01	37830.08
657.16	38078.18
657.30	37539.85
657.45	37598.37
657.59	37673.26
657.73	38103.92
657.88	37996.26
658.02	38253.72
658.16	38490.11
658.31	37972.85
658.45	38075.84
658.60	37490.70
658.74	38033.71
658.88	37785.61
659.03	37701.35
659.17	37479.00
659.31	37694.33
659.46	37275.37
659.60	37574.96
659.74	37530.49
659.89	37223.88
660.03	37219.20
660.17	37577.30
660.32	37729.44
660.46	38033.71
660.60	37074.09
660.74	36987.49
660.89	37069.40
661.03	36851.73
661.17	37233.24
661.32	36802.58
661.46	37219.20
661.60	36725.35
661.74	36641.09
661.89	37067.06
662.03	36407.03
662.17	36940.68
662.31	36825.99
662.46	36978.12
662.60	36662.15
662.74	36411.71
662.88	36208.09
663.03	36105.10
663.17	36512.36
663.31	36053.61
663.45	36517.04
663.60	36519.38
663.74	36018.50
663.88	36402.35
664.02	35936.59
664.17	36172.98
664.31	35934.24
664.45	35763.39
664.59	36105.10
664.73	35910.84
664.88	35646.36
665.02	35377.20
665.16	35777.43
665.30	35637.00
665.44	35784.45
665.59	35131.44
665.73	35449.75
665.87	35297.62
666.01	35112.72
666.15	35229.74
666.29	35325.71
666.44	35421.67
666.58	34672.70
666.72	35260.17
666.86	35323.36
667.00	35119.74
667.14	34546.31
667.28	34536.94
667.43	34892.71
667.57	34902.07
667.71	35096.33
667.85	34902.07
667.99	35112.72
668.13	34906.75
668.27	34251.40
668.41	34628.23
668.56	34487.79
668.70	34838.87
668.84	34356.72
668.98	33930.75
669.12	33905.00
669.26	34022.03
669.40	33996.28
669.54	34026.71
669.68	33944.79
669.82	33614.77
669.96	33560.94
670.10	33486.04
670.25	33830.10
670.39	33509.45
670.53	33394.76
670.67	33582.01
670.81	33589.03
670.95	33741.16
671.09	33106.88
671.23	33095.18
671.37	33378.38
671.51	32641.11
671.65	33216.88
671.79	32907.93
671.93	32947.72
672.07	33031.98
672.21	33479.02
672.35	33055.39
672.49	32936.02
672.63	32741.75
672.77	33106.88
672.91	32594.30
673.05	32769.84
673.19	32407.06
673.33	32261.94
673.47	32371.95
673.61	32189.39
673.75	32142.58
673.89	31606.59
674.03	31983.42
674.17	31534.04
674.31	32060.66
674.45	31740.00
674.59	31864.05
674.73	31964.70
674.87	31887.46
675.01	31606.59
675.15	31236.79
675.29	31475.52
675.43	31323.39
675.56	31353.82
675.70	31103.38
675.84	31344.45
675.98	30448.03
676.12	30764.00
676.26	31094.02
676.40	30925.50
676.54	31119.76
676.68	30780.39
676.82	30237.38
676.96	30483.14
677.10	30448.03
677.23	29979.92
677.37	30150.78
677.51	30433.99
677.65	29806.72
677.79	29769.27
677.93	29715.44
678.07	29488.41
678.21	29034.35
678.34	28975.83
678.48	29125.63
678.62	28903.28
678.76	28772.21
678.90	28907.96
679.04	28786.25
679.18	29090.52
679.31	28730.08
679.45	28741.78
679.59	28528.79
679.73	28577.94
679.87	28201.11
680.00	28278.35
680.14	28278.35
680.28	28524.11
680.42	28245.58
680.56	28070.04
680.70	28065.36
680.83	28320.48
680.97	28093.45
681.11	27655.77
681.25	27892.16
681.39	27489.59
681.52	28044.30
681.66	27454.48
681.80	27564.49
681.94	27473.21
682.07	27105.74
682.21	26993.40
682.35	26771.05
682.49	27480.23
682.62	27042.55
682.76	26340.39
682.90	26356.77
683.04	26476.14
683.17	26522.95
683.31	26288.90
683.45	26443.37
683.59	26342.73
683.72	26324.01
683.86	25968.24
684.00	26141.44
684.13	25965.90
684.27	25507.16
684.41	25301.19
684.55	25497.80
684.68	25619.50
684.82	25560.99
684.96	25235.66
685.09	25525.88
685.23	25254.38
685.37	25233.32
685.50	25177.14
685.64	25020.33
685.78	24718.40
685.91	24601.37
686.05	24404.77
686.19	24346.25
686.32	23967.09
686.46	23985.81
686.60	23559.83
686.73	23669.84
686.87	23335.14
687.01	23534.09
687.14	23260.24
687.28	23391.31
687.42	23494.30
687.55	23166.62
687.69	23234.50
687.82	23229.82
687.96	23608.98
688.10	23374.93
688.23	23150.24
688.37	22977.04
688.50	23047.26
688.64	22717.24
688.78	22731.28
688.91	22684.47
689.05	22558.08
689.18	22427.01
689.32	22396.59
689.46	22555.74
689.59	22375.52
689.73	22345.09
689.86	22094.66
690.00	22162.53
690.13	22256.15
690.27	21563.36
690.41	21937.84
690.54	21731.87
690.68	21605.49
690.81	21675.70
690.95	21745.92
691.08	21289.51
691.22	21488.46
691.35	21678.04
691.49	21523.57
691.62	21479.10
691.76	21287.17
691.89	21078.86
692.03	20945.45
692.16	20641.18
692.30	20652.89
692.43	20407.13
692.57	20421.17
692.70	20393.09
692.84	20247.97
692.97	20386.07
693.11	20353.30
693.24	20046.69
693.38	19899.23
693.51	19814.98
693.65	20212.87
693.78	19974.13
693.92	19892.21
694.05	19789.23
694.19	19286.01
694.32	19587.94
694.45	19597.31
694.59	19110.47
694.72	19204.10
694.86	19262.61
694.99	19260.27
695.13	19300.06
695.26	18986.43
695.39	18789.82
695.53	19000.47
695.66	18743.01
695.80	18918.55
695.93	18661.09
696.07	18361.50
696.20	18445.76
696.33	18625.98
696.47	18661.09
696.60	18368.52
696.73	17909.78
696.87	18132.13
697.00	18394.27
697.14	18150.85
697.27	17755.30
697.40	17858.29
697.54	17565.72
697.67	17263.79
697.80	17432.31
697.94	17556.36
698.07	17310.60
698.21	17336.35
698.34	17301.24
698.47	16999.31
698.61	16877.60
698.74	17036.76
698.87	17142.08
699.01	16830.79
699.14	16781.64
699.27	16503.12
699.40	16556.95
699.54	16629.51
699.67	16517.16
699.80	16720.79
699.94	16439.92
700.07	16343.96
700.20	16126.29
700.34	16187.14
700.47	16243.32
700.60	16212.89
700.73	16119.27
700.87	16133.31
701.00	15777.55
701.13	15875.85
701.26	15559.88
701.40	15815.00
701.53	15669.89
701.66	15805.64
701.79	15578.61
701.93	15073.05
702.06	15232.21
702.19	15229.87
702.32	14967.73
702.46	15136.24
702.59	15171.35
702.72	15318.81
702.85	14995.81
702.99	14806.23
703.12	14984.11
703.25	14724.31
703.38	14824.95
703.51	14286.63
703.65	14490.26
703.78	14555.79
703.91	14394.29
704.04	14284.29
704.17	14445.79
704.31	14188.33
704.44	14017.47
704.57	13970.66
704.70	13928.53
704.83	13991.72
704.96	13888.74
705.10	13678.09
705.23	13996.40
>>>>>End Processed Spectral Data<<<<<
