SpectraSuite Data File
++++++++++++++++++++++++++++++++++++
Date: Fri Oct 25 10:43:24 EDT 2013
User: price-jones
Dark Spectrum Present: No
Reference Spectrum Present: No
Number of Sampled Component Spectra: 1
Spectrometers: USB2+H05261
Integration Time (usec): 100000 (USB2+H05261)
Spectra Averaged: 1 (USB2+H05261)
Boxcar Smoothing: 0 (USB2+H05261)
Correct for Electrical Dark: No (USB2+H05261)
Strobe/Lamp Enabled: No (USB2+H05261)
Correct for Detector Non-linearity: No (USB2+H05261)
Correct for Stray Light: No (USB2+H05261)
Number of Pixels in Processed Spectrum: 2048
>>>>>Begin Processed Spectral Data<<<<<
365.73	81.92
365.92	81.92
366.12	81.92
366.32	16.38
366.52	0.00
366.72	14.04
366.91	0.00
367.11	77.24
367.31	0.00
367.51	28.09
367.70	0.00
367.90	58.51
368.10	0.00
368.30	0.00
368.49	18.72
368.69	28.09
368.89	37.45
369.09	0.00
369.28	4.68
369.48	9.36
369.68	56.17
369.87	42.13
370.07	105.32
370.27	135.75
370.47	203.63
370.66	402.57
370.86	418.96
371.06	458.74
371.25	500.87
371.45	449.38
371.65	538.32
371.84	433.00
372.04	503.22
372.24	440.02
372.44	461.09
372.63	578.11
372.83	440.02
373.03	547.69
373.22	451.72
373.42	498.53
373.62	477.47
373.81	500.87
374.01	543.00
374.21	624.92
374.40	449.38
374.60	589.82
374.79	521.94
374.99	526.62
375.19	538.32
375.38	596.84
375.58	571.09
375.78	624.92
375.97	580.45
376.17	594.50
376.37	573.43
376.56	559.39
376.76	575.77
376.95	613.22
377.15	681.10
377.35	641.31
377.54	606.20
377.74	624.92
377.93	709.18
378.13	629.60
378.33	777.06
378.52	730.25
378.72	683.44
378.91	697.48
379.11	671.73
379.31	657.69
379.50	594.50
379.70	704.50
379.89	678.76
380.09	655.35
380.28	732.59
380.48	657.69
380.68	641.31
380.87	585.13
381.07	653.01
381.26	697.48
381.46	779.40
381.65	732.59
381.85	631.94
382.04	638.97
382.24	678.76
382.43	615.56
382.63	671.73
382.83	678.76
383.02	660.03
383.22	800.46
383.41	669.39
383.61	699.82
383.80	774.72
384.00	688.12
384.19	753.65
384.39	816.85
384.58	676.41
384.78	814.51
384.97	800.46
385.17	814.51
385.36	830.89
385.56	781.74
385.75	765.36
385.95	791.10
386.14	875.36
386.34	777.06
386.53	826.21
386.72	875.36
386.92	903.45
387.11	830.89
387.31	802.80
387.50	816.85
387.70	784.08
387.89	877.70
388.09	891.74
388.28	851.96
388.48	866.00
388.67	943.24
388.86	915.15
389.06	905.79
389.25	922.17
389.45	884.72
389.64	950.26
389.84	980.68
390.03	1025.15
390.22	1083.67
390.42	1050.90
390.61	933.87
390.81	1086.01
391.00	1095.37
391.19	1088.35
391.39	1048.56
391.58	1057.92
391.78	999.41
391.97	1069.62
392.16	1046.22
392.36	971.32
392.55	1008.77
392.75	1008.77
392.94	964.30
393.13	1015.79
393.33	978.34
393.52	992.39
393.71	1004.09
393.91	1036.86
394.10	1043.88
394.29	1121.12
394.49	1196.01
394.68	1224.10
394.88	1263.89
395.07	1270.91
395.26	1149.20
395.46	1214.74
395.65	1172.61
395.84	1181.97
396.04	1327.08
396.23	1125.80
396.42	1128.14
396.62	1198.35
396.81	1177.29
397.00	1212.40
397.19	1282.61
397.39	1226.44
397.58	1432.41
397.77	1376.24
397.97	1294.32
398.16	1479.22
398.35	1521.35
398.55	1404.32
398.74	1423.05
398.93	1434.75
399.12	1551.78
399.32	1533.05
399.51	1561.14
399.70	1490.92
399.90	1490.92
400.09	1504.96
400.28	1631.35
400.47	1479.22
400.67	1579.86
400.86	1469.86
401.05	1722.63
401.24	1722.63
401.44	1689.87
401.63	1778.81
401.82	1685.19
402.01	1834.98
402.21	1673.48
402.40	1706.25
402.59	1734.34
402.78	1757.74
402.97	1724.97
403.17	1776.47
403.36	1820.94
403.55	1832.64
403.74	1909.88
403.93	1813.92
404.13	1933.28
404.32	1816.26
404.51	1865.41
404.70	1921.58
404.89	1867.75
405.09	2033.93
405.28	1933.28
405.47	1849.02
405.66	1930.94
405.85	1905.20
406.05	1989.46
406.24	2022.22
406.43	2024.56
406.62	2097.12
406.81	2172.02
407.00	2054.99
407.20	2073.71
407.39	2043.29
407.58	2179.04
407.77	2162.66
407.96	2120.53
408.15	2167.34
408.34	2186.06
408.54	2258.62
408.73	2321.81
408.92	2303.09
409.11	2242.23
409.30	2387.35
409.49	2193.08
409.68	2162.66
409.87	2324.15
410.07	2380.32
410.26	2335.85
410.45	2392.03
410.64	2480.97
410.83	2537.14
411.02	2476.29
411.21	2600.34
411.40	2480.97
411.59	2455.22
411.78	2546.50
411.98	2504.37
412.17	2579.27
412.36	2654.17
412.55	2689.28
412.74	2745.45
412.93	2757.15
413.12	2698.64
413.31	2911.63
413.50	2820.35
413.69	2745.45
413.88	2930.35
414.07	2766.51
414.26	2944.39
414.45	3005.25
414.64	2967.80
414.83	3145.68
415.02	2986.52
415.22	2960.78
415.41	3112.91
415.60	3138.66
415.79	3066.10
415.98	3276.75
416.17	3117.59
416.36	3138.66
416.55	3281.43
416.74	3295.47
416.93	3351.65
417.12	3262.71
417.31	3323.56
417.50	3426.54
417.69	3421.86
417.88	3410.16
418.07	3274.41
418.26	3428.88
418.45	3494.42
418.64	3569.32
418.83	3487.40
419.02	3517.83
419.21	3578.68
419.39	3590.38
419.58	3634.85
419.77	3644.21
419.96	3620.81
420.15	3728.47
420.34	3719.11
420.53	3660.60
420.72	3707.41
420.91	3691.02
421.10	3880.61
421.29	3854.86
421.48	3911.04
421.67	3929.76
421.86	3791.67
422.05	3733.15
422.24	3676.98
422.43	3756.56
422.61	3822.09
422.80	3978.91
422.99	3967.21
423.18	3843.16
423.37	3964.87
423.56	3772.94
423.75	3960.19
423.94	4102.96
424.13	3669.96
424.32	3737.84
424.50	3939.12
424.69	3908.69
424.88	4091.26
425.07	3824.44
425.26	3936.78
425.45	3894.65
425.64	3824.44
425.83	3904.01
426.01	3988.27
426.20	4072.53
426.39	4058.49
426.58	3920.40
426.77	3854.86
426.96	3904.01
427.15	3957.85
427.33	3829.12
427.52	4046.79
427.71	4140.41
427.90	4159.13
428.09	4184.88
428.28	4198.92
428.46	4128.70
428.65	4187.22
428.84	4238.71
429.03	4327.65
429.22	4156.79
429.40	4107.64
429.59	4173.18
429.78	3843.16
429.97	3913.38
430.16	4056.15
430.34	4018.70
430.53	4173.18
430.72	4159.13
430.91	4182.54
431.10	4231.69
431.28	4407.23
431.47	4484.47
431.66	4660.01
431.85	4542.98
432.03	4578.09
432.22	4664.69
432.41	4861.29
432.60	4575.75
432.79	4662.35
432.97	4664.69
433.16	4699.80
433.35	4545.32
433.54	4615.54
433.72	4683.41
433.91	4627.24
434.10	4620.22
434.28	4840.23
434.47	4814.48
434.66	4952.57
434.85	4971.30
435.03	5071.94
435.22	4903.42
435.41	5125.77
435.59	5055.56
435.78	5128.11
435.97	5212.37
436.16	5191.31
436.34	5170.24
436.53	5109.39
436.72	5203.01
436.90	5064.92
437.09	5123.43
437.28	5015.77
437.46	4983.00
437.65	5174.92
437.84	5170.24
438.02	5188.97
438.21	4985.34
438.40	5165.56
438.58	5416.00
438.77	5380.89
438.96	5458.13
439.14	5540.05
439.33	5572.82
439.52	5483.88
439.70	5518.98
439.89	5617.29
440.08	5612.60
440.26	5643.03
440.45	5760.06
440.63	5774.10
440.82	5996.45
441.01	5879.43
441.19	5902.83
441.38	6061.99
441.57	6094.76
441.75	5921.56
441.94	6104.12
442.12	6289.02
442.31	6239.87
442.50	6340.51
442.68	6195.40
442.87	6244.55
443.05	6359.24
443.24	6230.51
443.43	6256.25
443.61	6389.66
443.80	6576.91
443.98	6441.15
444.17	6303.06
444.35	6406.05
444.54	6523.07
444.73	6537.12
444.91	6478.60
445.10	6373.28
445.28	6513.71
445.47	6310.08
445.65	6370.94
445.84	6422.43
446.02	6569.88
446.21	6462.22
446.39	6504.35
446.58	6513.71
446.77	6539.46
446.95	6523.07
447.14	6630.74
447.32	6799.26
447.51	6597.97
447.69	6565.20
447.88	6509.03
448.06	6792.23
448.25	6574.56
448.43	6689.25
448.62	6799.26
448.80	6623.72
448.99	6839.05
449.17	6829.68
449.36	7002.88
449.54	6986.50
449.73	7005.22
449.91	7080.12
450.10	7119.91
450.28	7082.46
450.46	6951.39
450.65	7070.76
450.83	7258.00
451.02	7274.38
451.20	7295.45
451.39	7337.58
451.57	7122.25
451.76	7009.90
451.94	7297.79
452.13	7260.34
452.31	7073.10
452.49	7030.97
452.68	7152.68
452.86	7220.55
453.05	7225.23
453.23	7314.17
453.42	7314.17
453.60	7094.16
453.78	7461.63
453.97	7276.73
454.15	7288.43
454.34	7358.64
454.52	7573.97
454.70	7412.48
454.89	7463.97
455.07	7564.61
455.26	7527.16
455.44	7585.68
455.62	7662.91
455.81	7768.24
455.99	7822.07
456.17	7653.55
456.36	7882.92
456.54	8039.74
456.73	8053.78
456.91	8098.25
457.09	8088.89
457.28	8276.13
457.46	7932.08
457.64	8023.36
457.83	8056.12
458.01	7925.05
458.19	8222.30
458.38	8175.49
458.56	8259.75
458.74	8201.24
458.93	8205.92
459.11	8259.75
459.29	8262.09
459.48	8358.05
459.66	8248.05
459.84	8332.31
460.03	8414.23
460.21	8496.14
460.39	8439.97
460.57	8627.21
460.76	8435.29
460.94	8652.96
461.12	8601.47
461.31	8540.61
461.49	8631.90
461.67	8592.11
461.85	8730.20
462.04	8737.22
462.22	9050.85
462.40	8739.56
462.59	8840.20
462.77	8908.08
462.95	8865.95
463.13	8697.43
463.32	9057.87
463.50	9001.70
463.68	8898.72
463.86	8882.33
464.05	8709.13
464.23	9139.79
464.41	9195.96
464.59	8779.35
464.78	9090.64
464.96	9125.75
465.14	9029.79
465.32	9107.02
465.50	9228.73
465.69	9277.88
465.87	9331.72
466.05	9172.56
466.23	8954.89
466.41	9109.36
466.60	9366.82
466.78	9165.54
466.96	9247.46
467.14	9334.06
467.32	9202.99
467.51	9376.19
467.69	9100.00
467.87	9404.27
468.05	9511.94
468.23	9437.04
468.41	9312.99
468.60	9570.45
468.78	9427.68
468.96	9320.01
469.14	9619.60
469.32	9696.84
469.50	9413.63
469.69	9654.71
469.87	9544.70
470.05	9661.73
470.23	9811.53
470.41	9570.45
470.59	9916.85
470.77	9853.66
470.95	9935.57
471.14	10111.11
471.32	9734.29
471.50	10218.78
471.68	10317.08
471.86	10237.50
472.04	10171.97
472.22	10459.85
472.40	10207.08
472.58	10246.87
472.77	10377.94
472.95	10562.84
473.13	10717.31
473.31	10516.03
473.49	10305.38
473.67	10590.92
473.85	10703.27
474.03	10923.28
474.21	10750.08
474.39	11084.78
474.57	11068.39
474.75	11176.06
474.93	10974.77
475.12	11176.06
475.30	11176.06
475.48	11110.52
475.66	11307.13
475.84	11166.70
476.02	11325.85
476.20	11365.64
476.38	11625.44
476.56	11475.65
476.74	11705.02
476.92	11756.51
477.10	11655.87
477.28	11786.94
477.46	11934.39
477.64	12004.61
477.82	12320.58
478.00	12475.06
478.18	12343.99
478.36	12486.76
478.54	12484.42
478.72	12559.31
478.90	12924.44
479.08	12886.99
479.26	12737.20
479.44	12952.52
479.62	13078.91
479.80	13327.01
479.98	12999.34
480.16	13673.41
480.34	13565.74
480.52	13504.89
480.70	13642.98
480.88	13678.09
481.06	14104.07
481.24	13944.91
481.41	14164.92
481.59	14422.38
481.77	14200.03
481.95	14221.10
482.13	14429.40
482.31	14291.31
482.49	15023.90
482.67	14609.62
482.85	15239.23
483.03	15084.75
483.21	15197.10
483.39	15473.28
483.57	15599.67
483.74	15374.98
483.92	15358.60
484.10	15421.79
484.28	15754.15
484.46	16196.51
484.64	16322.90
484.82	15955.43
485.00	15927.35
485.18	16217.57
485.35	16400.13
485.53	15934.37
485.71	15999.90
485.89	16152.04
486.07	16315.87
486.25	16659.93
486.43	16720.79
486.61	17158.47
486.78	17018.04
486.96	17310.60
487.14	17474.44
487.32	17556.36
487.50	17813.82
487.68	18054.89
487.85	18375.55
488.03	18405.97
488.21	18569.81
488.39	18604.92
488.57	18429.38
488.75	18801.52
488.92	19061.32
489.10	19161.97
489.28	19168.99
489.46	19779.87
489.64	19690.93
489.81	20325.21
489.99	19899.23
490.17	19927.32
490.35	20182.44
490.53	20280.74
490.70	20280.74
490.88	20184.78
491.06	20657.57
491.24	20507.77
491.41	20329.89
491.59	20781.62
491.77	20816.72
491.95	21085.89
492.13	20940.77
492.30	21404.20
492.48	21928.48
492.66	21593.78
492.84	21607.83
493.01	21759.96
493.19	21638.25
493.37	22373.18
493.54	22279.56
493.72	22274.88
493.90	22436.38
494.08	22768.73
494.25	23040.23
494.43	22782.77
494.61	23278.97
494.79	23491.96
494.96	23234.50
495.14	23204.07
495.32	23875.80
495.49	23445.15
495.67	23709.63
495.85	23915.59
496.02	23983.47
496.20	24133.26
496.38	24217.52
496.55	24451.58
496.73	24793.29
496.91	24418.81
497.09	24702.01
497.26	24907.98
497.44	24854.15
497.62	25233.32
497.79	24992.24
497.97	25013.31
498.14	25333.96
498.32	25633.55
498.50	25633.55
498.67	25935.48
498.85	25816.11
499.03	25874.62
499.20	26015.05
499.38	26052.50
499.56	26539.33
499.73	26249.11
499.91	26391.88
500.08	26831.90
500.26	26314.64
500.44	26452.73
500.61	26544.02
500.79	26080.59
500.97	26923.18
501.14	26916.16
501.32	27033.19
501.49	27002.76
501.67	26782.75
501.84	27122.13
502.02	27239.15
502.20	27381.93
502.37	27484.91
502.55	27892.16
502.72	27370.22
502.90	27711.94
503.07	27676.83
503.25	27711.94
503.43	27864.08
503.60	27943.66
503.78	27901.53
503.95	27948.34
504.13	28336.87
504.30	28568.58
504.48	28400.06
504.65	28348.57
504.83	28816.68
505.01	28732.42
505.18	28814.34
505.36	29193.50
505.53	29256.70
505.71	29745.87
505.88	29486.07
506.06	28821.36
506.23	29317.55
506.41	29085.84
506.58	29614.80
506.76	29773.95
506.93	29565.65
507.11	29558.63
507.28	29900.34
507.46	29809.06
507.63	29741.19
507.81	30068.86
507.98	29692.04
508.16	30239.72
508.33	30199.93
508.50	30408.24
508.68	30576.76
508.85	30981.67
509.03	30897.41
509.20	30646.97
509.38	30866.98
509.55	31206.36
509.73	31428.71
509.90	31475.52
510.08	31117.42
510.25	31187.64
510.42	31281.26
510.60	31676.81
510.77	31573.83
510.95	31927.25
511.12	31613.62
511.30	32350.88
511.47	32039.59
511.64	32236.20
511.82	32177.68
511.99	32500.68
512.17	32397.70
512.34	32332.16
512.51	32519.40
512.69	32378.97
512.86	32456.21
513.04	32755.80
513.21	32842.40
513.38	32376.63
513.56	32802.61
513.73	32718.35
513.90	32723.03
514.08	32554.51
514.25	32765.16
514.43	33214.54
514.60	33099.86
514.77	32683.24
514.95	33415.83
515.12	33579.67
515.29	33181.77
515.47	33713.08
515.64	33677.97
515.81	33373.70
515.99	33574.98
516.16	33315.19
516.33	33296.46
516.51	32978.15
516.68	33263.69
516.85	32863.46
517.03	33380.72
517.20	34029.05
517.37	34115.65
517.54	34340.34
517.72	34054.79
517.89	33378.38
518.06	33708.40
518.24	33972.88
518.41	34178.84
518.58	34108.63
518.75	33947.13
518.93	34574.39
519.10	34326.30
519.27	34871.64
519.45	34721.85
519.62	34857.60
519.79	35543.38
519.96	35215.70
520.14	35316.34
520.31	34712.49
520.48	35421.67
520.65	35267.19
520.83	35721.26
521.00	35405.28
521.17	35854.67
521.34	35882.75
521.52	35866.37
521.69	35690.83
521.86	35716.58
522.03	36332.14
522.20	36039.57
522.38	36121.49
522.55	36044.25
522.72	35920.20
522.89	36484.27
523.07	36320.43
523.24	36755.77
523.41	36678.54
523.58	36774.50
523.75	37284.73
523.92	36858.76
524.10	37284.73
524.27	36662.15
524.44	36725.35
524.61	37191.11
524.78	36950.04
524.96	37315.16
525.13	37017.91
525.30	37404.10
525.47	37549.21
525.64	37134.94
525.81	37455.59
525.98	37289.42
526.16	37179.41
526.33	37034.30
526.50	37455.59
526.67	36987.49
526.84	36980.46
527.01	37474.32
527.18	37411.12
527.36	37734.12
527.53	37734.12
527.70	38625.86
527.87	38134.35
528.04	38052.43
528.21	37961.15
528.38	38401.17
528.55	38960.56
528.72	38616.50
528.89	38443.30
529.07	38693.74
529.24	38302.87
529.41	38185.84
529.58	38813.10
529.75	38536.92
529.92	38766.29
530.09	38803.74
530.26	39079.92
530.43	39117.37
530.60	38749.91
530.77	39189.93
530.94	39229.72
531.11	38913.75
531.28	38932.47
531.46	39021.41
531.63	39601.86
531.80	39648.68
531.97	39105.67
532.14	38726.50
532.31	38452.66
532.48	39140.78
532.65	39400.58
532.82	39136.10
532.99	39456.75
533.16	39749.32
533.33	39739.96
533.50	39924.86
533.67	39892.09
533.84	39868.69
534.01	39793.79
534.18	39578.46
534.35	39934.22
534.52	40196.36
534.69	40341.47
534.86	40451.48
535.03	40257.21
535.20	40348.50
535.37	40315.73
535.54	40624.68
535.71	40392.97
535.88	40608.29
536.05	39882.73
536.22	40493.61
536.38	40598.93
536.55	40591.91
536.72	40669.15
536.89	40212.74
537.06	40556.80
537.23	40893.84
537.40	41315.14
537.57	40580.21
537.74	41090.44
537.91	41116.19
538.08	41359.61
538.25	40879.80
538.42	40989.80
538.59	41191.09
538.75	40776.81
538.92	41235.56
539.09	41134.92
539.26	41048.32
539.43	41165.34
539.60	41504.72
539.77	40673.83
539.94	41062.36
540.11	40987.46
540.28	41291.73
540.44	41361.95
540.61	41436.84
540.78	41420.46
540.95	41298.75
541.12	41017.89
541.29	41659.20
541.46	41790.27
541.62	41759.84
541.79	41677.92
541.96	41621.75
542.13	41366.63
542.30	41413.44
542.47	41691.96
542.63	41706.01
542.80	41706.01
542.97	41998.57
543.14	42665.63
543.31	42007.94
543.48	42216.24
543.64	42857.55
543.81	42866.91
543.98	42419.87
544.15	42295.82
544.32	42965.21
544.48	43019.05
544.65	42424.55
544.82	42745.20
544.99	42326.25
545.16	42637.54
545.32	42724.14
545.49	42944.15
545.66	42677.33
545.83	42845.85
546.00	43089.26
546.16	43028.41
546.33	42787.33
546.50	42939.47
546.67	43117.35
546.83	42621.16
547.00	42953.51
547.17	43082.24
547.34	42866.91
547.50	42838.83
547.67	43229.69
547.84	42988.62
548.00	43707.16
548.17	43494.18
548.34	43746.95
548.51	43854.62
548.67	43859.30
548.84	43185.22
549.01	43346.72
549.18	43075.22
549.34	43262.46
549.51	43484.81
549.68	43742.27
549.84	43711.84
550.01	43782.06
550.18	43213.31
550.34	43487.15
550.51	43576.09
550.68	43641.63
550.84	43061.18
551.01	43955.26
551.18	43908.45
551.34	43704.82
551.51	43861.64
551.68	44201.02
551.84	44095.69
552.01	43978.67
552.18	43838.23
552.34	43775.04
552.51	44123.78
552.68	43899.09
552.84	44430.39
553.01	44322.72
553.18	43997.39
553.34	44488.90
553.51	44502.95
553.67	44137.82
553.84	44126.12
554.01	44657.42
554.17	44392.94
554.34	44594.23
554.51	44346.13
554.67	44453.79
554.84	44790.83
555.00	44320.38
555.17	44519.33
555.33	44638.70
555.50	44816.58
555.67	44332.09
555.83	44472.52
556.00	44177.61
556.16	44865.73
556.33	44863.39
556.50	44615.29
556.66	44446.77
556.83	44275.91
556.99	44605.93
557.16	44404.64
557.32	44339.11
557.49	45127.87
557.65	44481.88
557.82	44210.38
557.98	44821.26
558.15	44758.06
558.32	45177.02
558.48	44458.48
558.65	44701.89
558.81	44790.83
558.98	44652.74
559.14	44596.57
559.31	44987.44
559.47	44847.00
559.64	45090.42
559.80	44629.34
559.97	44884.45
560.13	44839.98
560.30	44547.42
560.46	45188.72
560.63	45062.33
560.79	45078.72
560.96	45350.22
561.12	44917.22
561.29	44673.81
561.45	44818.92
561.61	44856.37
561.78	44788.49
561.94	45502.35
562.11	45113.83
562.27	45088.08
562.44	44858.71
562.60	45457.88
562.77	45343.20
562.93	45174.68
563.10	45455.54
563.26	45200.43
563.42	45490.65
563.59	44964.03
563.75	45469.59
563.92	45565.55
564.08	45441.50
564.24	45371.28
564.41	44917.22
564.57	45539.80
564.74	45352.56
564.90	45170.00
565.07	45483.63
565.23	45228.51
565.39	45607.68
565.56	45469.59
565.72	45172.34
565.88	45364.26
566.05	45209.79
566.21	45380.65
566.38	45591.30
566.54	45488.31
566.70	45970.46
566.87	45778.54
567.03	45867.48
567.19	46106.21
567.36	45804.28
567.52	45240.21
567.68	45565.55
567.85	45303.41
568.01	45811.31
568.17	45579.59
568.34	45851.09
568.50	45270.64
568.66	45020.20
568.83	45729.39
568.99	45518.74
569.15	45392.35
569.32	45446.18
569.48	45429.80
569.64	45914.29
569.81	45820.67
569.97	45921.31
570.13	45413.41
570.30	45134.89
570.46	45591.30
570.62	45570.23
570.78	45038.93
570.95	45071.70
571.11	45532.78
571.27	45272.98
571.43	45347.88
571.60	45607.68
571.76	45848.75
571.92	45296.39
572.09	45654.49
572.25	45642.79
572.41	45443.84
572.57	45666.19
572.74	46450.27
572.90	45801.94
573.06	45858.12
573.22	45432.14
573.38	46012.59
573.55	45937.69
573.71	46143.66
573.87	45659.17
574.03	45642.79
574.20	45872.16
574.36	45670.87
574.52	45806.62
574.68	46038.34
574.84	45558.53
575.01	45492.99
575.17	45432.14
575.33	45308.09
575.49	45532.78
575.65	45935.35
575.82	45631.08
575.98	45485.97
576.14	46146.00
576.30	45794.92
576.46	45642.79
576.62	45670.87
576.79	45925.99
576.95	45626.40
577.11	45975.14
577.27	46120.26
577.43	45675.55
577.59	45420.44
577.75	45209.79
577.92	45720.02
578.08	45272.98
578.24	45722.37
578.40	45507.04
578.56	45986.85
578.72	45762.15
578.88	46176.43
579.04	45991.53
579.21	45216.81
579.37	46052.38
579.53	45865.14
579.69	45668.53
579.85	45794.92
580.01	45933.01
580.17	45925.99
580.33	46040.68
580.49	45813.65
580.65	45635.77
580.82	45715.34
580.98	45638.11
581.14	45350.22
581.30	46218.56
581.46	45668.53
581.62	45830.03
581.78	46129.62
581.94	46131.96
582.10	45652.15
582.26	46291.12
582.42	46026.63
582.58	45937.69
582.74	46129.62
582.90	46256.01
583.06	46408.14
583.22	46143.66
583.38	46267.71
583.54	45963.44
583.70	46059.40
583.86	45954.08
584.02	45930.67
584.18	45790.24
584.34	45820.67
584.50	46101.53
584.66	45806.62
584.82	45633.42
584.98	45958.76
585.14	45958.76
585.30	45755.13
585.46	46052.38
585.62	45427.46
585.78	45937.69
585.94	45471.93
586.10	45820.67
586.26	45675.55
586.42	46106.21
586.58	46005.57
586.74	45677.90
586.90	45738.75
587.06	45553.85
587.22	45949.40
587.38	45865.14
587.54	45954.08
587.70	46288.77
587.86	45776.20
588.02	46057.06
588.18	45874.50
588.34	45535.12
588.49	45324.47
588.65	45038.93
588.81	45591.30
588.97	45656.83
589.13	45476.61
589.29	45303.41
589.45	45378.31
589.61	46136.64
589.77	45914.29
589.93	46003.23
590.08	45792.58
590.24	46256.01
590.40	45713.00
590.56	46333.24
590.72	46295.80
590.88	45851.09
591.04	45982.16
591.20	46461.97
591.35	46398.78
591.51	46672.62
591.67	46148.34
591.83	46197.49
591.99	46384.74
592.15	46178.77
592.31	46328.56
592.46	46230.26
592.62	46307.50
592.78	46183.45
592.94	46321.54
593.10	46134.30
593.26	46483.04
593.41	45954.08
593.57	45895.56
593.73	45958.76
593.89	46068.76
594.05	45940.04
594.20	46059.40
594.36	46450.27
594.52	46155.36
594.68	46047.70
594.84	45797.26
594.99	45979.82
595.15	46230.26
595.31	45886.20
595.47	46005.57
595.62	47002.64
595.78	46501.76
595.94	45907.27
596.10	46579.00
596.25	46010.25
596.41	46073.45
596.57	45841.73
596.73	46220.90
596.88	45635.77
597.04	46270.05
597.20	46124.94
597.36	45801.94
597.51	46497.08
597.67	45897.91
597.83	46384.74
597.99	46490.06
598.14	45785.56
598.30	46171.75
598.46	46190.47
598.61	46202.18
598.77	45748.11
598.93	45869.82
599.09	46153.02
599.24	46307.50
599.40	46241.96
599.56	46344.95
599.71	45886.20
599.87	46546.23
600.03	46213.88
600.18	45954.08
600.34	46258.35
600.50	46127.28
600.65	45977.48
600.81	46466.66
600.97	46319.20
601.12	46469.00
601.28	46160.05
601.44	46010.25
601.59	46241.96
601.75	46164.73
601.91	45925.99
602.06	45670.87
602.22	46234.94
602.37	46120.26
602.53	46148.34
602.69	46628.15
602.84	46504.10
603.00	46026.63
603.16	46129.62
603.31	45560.87
603.47	45895.56
603.62	45764.49
603.78	46366.01
603.94	46522.83
604.09	46443.25
604.25	45787.90
604.40	46120.26
604.56	46256.01
604.71	46433.89
604.87	45722.37
605.03	45684.92
605.18	45762.15
605.34	45851.09
605.49	45771.52
605.65	45968.12
605.80	45448.52
605.96	45883.86
606.12	45729.39
606.27	46164.73
606.43	45848.75
606.58	45900.25
606.74	45670.87
606.89	45862.80
607.05	46087.49
607.20	45792.58
607.36	45937.69
607.51	46026.63
607.67	46054.72
607.82	45537.46
607.98	45415.76
608.13	45811.31
608.29	45549.17
608.44	45069.36
608.60	45689.60
608.75	45832.37
608.91	45633.42
609.06	45441.50
609.22	45673.21
609.37	45483.63
609.53	45731.73
609.68	45720.02
609.84	45507.04
609.99	45317.45
610.15	45617.04
610.30	45141.91
610.46	45181.70
610.61	45230.85
610.76	45329.16
610.92	45382.99
611.07	45272.98
611.23	45591.30
611.38	45364.26
611.54	45523.42
611.69	44992.12
611.84	45404.05
612.00	45539.80
612.15	45041.27
612.31	45336.18
612.46	44940.63
612.62	45591.30
612.77	45099.78
612.92	45310.43
613.08	45214.47
613.23	45193.40
613.39	44701.89
613.54	44634.02
613.69	45155.96
613.85	44889.13
614.00	45064.67
614.15	44636.36
614.31	44889.13
614.46	45113.83
614.62	45062.33
614.77	44666.78
614.92	45277.66
615.08	44779.13
615.23	44624.65
615.38	44921.90
615.54	44790.83
615.69	44659.76
615.84	44481.88
616.00	44350.81
616.15	45045.95
616.30	44795.51
616.46	44559.12
616.61	44163.57
616.76	44535.71
616.92	44156.55
617.07	44528.69
617.22	44261.87
617.37	44624.65
617.53	44491.24
617.68	44645.72
617.83	44247.83
617.99	44526.35
618.14	44905.52
618.29	44203.36
618.45	44098.03
618.60	44130.80
618.75	43831.21
618.90	44133.14
619.06	44589.55
619.21	44179.95
619.36	44371.88
619.51	44381.24
619.67	44060.58
619.82	44163.57
619.97	44095.69
620.12	43342.04
620.28	43440.34
620.43	44051.22
620.58	43903.77
620.73	44074.63
620.89	43807.81
621.04	44116.76
621.19	43913.13
621.34	43971.64
621.49	43866.32
621.65	43349.06
621.80	44065.27
621.95	43784.40
622.10	43807.81
622.25	43901.43
622.41	43833.55
622.56	43402.89
622.71	43765.68
622.86	43604.18
623.01	43583.12
623.16	43695.46
623.32	43306.93
623.47	43562.05
623.62	43803.13
623.77	43650.99
623.92	42862.23
624.07	43391.19
624.23	42930.11
624.38	43393.53
624.53	43264.80
624.68	43526.94
624.83	43711.84
624.98	43622.90
625.13	43126.71
625.29	42829.46
625.44	43103.31
625.59	42391.78
625.74	42642.22
625.89	42852.87
626.04	42796.70
626.19	42462.00
626.34	42876.27
626.49	42836.48
626.65	42436.25
626.80	42656.26
626.95	42885.64
627.10	42426.89
627.25	42506.47
627.40	42188.16
627.55	42366.04
627.70	41935.38
627.85	42848.19
628.00	42440.93
628.15	42344.97
628.30	42061.77
628.45	42384.76
628.60	42712.44
628.76	42632.86
628.91	42323.91
629.06	42492.43
629.21	42277.10
629.36	42401.14
629.51	41844.10
629.66	42508.81
629.81	41928.36
629.96	42417.53
630.11	42281.78
630.26	42412.85
630.41	42260.71
630.56	42136.66
630.71	42160.07
630.86	41996.23
631.01	41872.18
631.16	41673.24
631.31	41574.94
631.46	41663.88
631.61	41574.94
631.76	42218.58
631.91	41947.08
632.06	42017.30
632.21	41888.57
632.36	41319.82
632.51	41294.07
632.66	41792.61
632.81	41242.58
632.96	42003.25
633.10	41586.64
633.25	41731.75
633.40	41528.13
633.55	41834.74
633.70	41483.66
633.85	41804.31
634.00	41951.76
634.15	41289.39
634.30	41436.84
634.45	41001.50
634.60	41361.95
634.75	41081.08
634.90	40832.99
635.05	41273.01
635.19	41247.26
635.34	41673.24
635.49	41340.88
635.64	41277.69
635.79	41050.66
635.94	40842.35
636.09	40959.38
636.24	40865.75
636.39	41069.38
636.53	41088.10
636.68	41022.57
636.83	40858.73
636.98	41230.88
637.13	40924.27
637.28	41230.88
637.43	41289.39
637.57	41392.37
637.72	40453.82
637.87	40940.65
638.02	40643.40
638.17	40662.13
638.32	40854.05
638.46	40236.15
638.61	40509.99
638.76	41165.34
638.91	40201.04
639.06	40533.40
639.20	40547.44
639.35	40229.13
639.50	40297.00
639.65	40638.72
639.80	40261.90
639.94	40247.85
640.09	40240.83
640.24	40385.94
640.39	40107.42
640.54	40102.74
640.68	40121.46
640.83	40093.38
640.98	39990.39
641.13	39880.39
641.27	40081.67
641.42	39952.94
641.57	39758.68
641.72	39796.13
641.86	39798.47
642.01	39548.03
642.16	40397.65
642.31	39672.08
642.45	40247.85
642.60	39089.29
642.75	39828.90
642.90	39615.91
643.04	39744.64
643.19	39763.36
643.34	39754.00
643.48	39634.63
643.63	39697.83
643.78	39571.44
643.93	39924.86
644.07	39791.45
644.22	39316.32
644.37	39545.69
644.51	39466.11
644.66	39634.63
644.81	39576.12
644.95	39791.45
645.10	39267.17
645.25	39346.75
645.39	39398.24
645.54	39636.97
645.69	39346.75
645.83	39044.82
645.98	38878.64
646.13	39646.33
646.27	39271.85
646.42	38990.98
646.57	39072.90
646.71	39100.99
646.86	39199.29
647.00	39093.97
647.15	38789.70
647.30	39117.37
647.44	39021.41
647.59	38841.19
647.74	38976.94
647.88	38682.03
648.03	39019.07
648.17	38632.88
648.32	39145.46
648.47	38937.15
648.61	38515.86
648.76	39077.58
648.90	38768.63
649.05	38515.86
649.20	38897.36
649.34	38345.00
649.49	38515.86
649.63	38660.97
649.78	38930.13
649.92	38614.16
650.07	38749.91
650.21	38770.97
650.36	38459.68
650.51	38618.84
650.65	38962.90
650.80	39323.34
650.94	38658.63
651.09	38368.40
651.23	38188.18
651.38	38078.18
651.52	38169.46
651.67	38136.69
651.81	37914.34
651.96	38047.75
652.10	38340.32
652.25	38209.25
652.39	38857.57
652.54	38361.38
652.68	38094.56
652.83	38565.01
652.97	38335.63
653.12	38452.66
653.26	37832.42
653.41	38003.28
653.55	37954.13
653.70	38167.12
653.84	38047.75
653.99	37624.11
654.13	37729.44
654.27	37593.68
654.42	37523.47
654.56	37670.92
654.71	37867.53
654.85	37839.44
655.00	37757.52
655.14	37949.45
655.29	37186.43
655.43	37322.18
655.57	36987.49
655.72	36891.52
655.86	37109.19
656.01	36622.36
656.15	36659.81
656.30	36851.73
656.44	37123.24
656.58	37303.46
656.73	36814.29
656.87	37060.04
657.01	37462.61
657.16	37109.19
657.30	36835.35
657.45	36563.85
657.59	37050.68
657.73	36957.06
657.88	37158.34
658.02	37195.79
658.16	37083.45
658.31	36872.80
658.45	36938.33
658.60	36807.26
658.74	37453.25
658.88	37390.06
659.03	36931.31
659.17	36933.65
659.31	36573.21
659.46	36423.42
659.60	36648.11
659.74	36432.78
659.89	36362.56
660.03	36648.11
660.17	36975.78
660.32	36444.48
660.46	36465.55
660.60	36400.01
660.74	36552.15
660.89	36554.49
661.03	35948.29
661.17	36334.48
661.32	36130.85
661.46	36002.12
661.60	35639.34
661.74	35835.94
661.89	35908.50
662.03	35995.10
662.17	35950.63
662.31	36210.43
662.46	36093.40
662.60	35438.05
662.74	36039.57
662.88	35718.92
663.03	35524.65
663.17	35269.53
663.31	35641.68
663.45	34852.92
663.60	35709.55
663.74	35070.59
663.88	35278.89
664.02	35299.96
664.17	35419.33
664.31	34824.83
664.45	34899.73
664.59	35051.86
664.73	35152.51
664.88	35096.33
665.02	34937.18
665.16	34202.25
665.30	34607.16
665.44	34382.47
665.59	34380.13
665.73	34885.68
665.87	34305.23
666.01	34265.44
666.15	34438.64
666.29	34274.80
666.44	34588.44
666.58	34188.21
666.72	34384.81
666.86	34483.11
667.00	34469.07
667.14	34164.80
667.28	34010.32
667.43	34019.69
667.57	34263.10
667.71	33565.62
667.85	33860.53
667.99	34391.83
668.13	34160.12
668.27	33628.82
668.41	33933.09
668.56	33041.34
668.70	33724.78
668.84	33797.34
668.98	33146.67
669.12	33352.63
669.26	33563.28
669.40	33076.45
669.54	33244.97
669.68	32854.10
669.82	33205.18
669.96	32683.24
670.10	32793.25
670.25	32608.34
670.39	32811.97
670.53	32844.74
670.67	32620.05
670.81	32947.72
670.95	32662.18
671.09	32568.55
671.23	32563.87
671.37	32528.77
671.51	32198.75
671.65	32388.33
671.79	32245.56
671.93	31952.99
672.07	32095.77
672.21	32130.87
672.35	31899.16
672.49	31784.48
672.63	31999.80
672.77	31700.22
672.91	31934.27
673.05	31901.50
673.19	31894.48
673.33	31622.98
673.47	31435.74
673.61	31461.48
673.75	31211.04
673.89	31168.91
674.03	31241.47
674.17	31037.84
674.31	30993.37
674.45	31328.07
674.59	31386.58
674.73	31152.53
674.87	30773.36
675.01	30689.10
675.15	31159.55
675.29	30759.32
675.43	30518.25
675.56	30848.26
675.70	30546.33
675.84	30572.08
675.98	29221.59
676.12	30288.87
676.26	30347.39
676.40	30567.40
676.54	30031.41
676.68	30026.73
676.82	29443.94
676.96	29963.54
677.10	29977.58
677.23	29598.41
677.37	29479.05
677.51	29642.88
677.65	28936.04
677.79	28772.21
677.93	28753.48
678.07	28692.63
678.21	28727.74
678.34	28411.76
678.48	28552.20
678.62	28400.06
678.76	28130.90
678.90	27962.38
679.04	28407.08
679.18	28353.25
679.31	27768.12
679.45	27796.20
679.59	28287.71
679.73	27700.24
679.87	27868.76
680.00	27924.93
680.14	27777.48
680.28	27922.59
680.42	27527.04
680.56	27491.93
680.70	27388.95
680.83	27028.51
680.97	27049.57
681.11	27190.00
681.25	27388.95
681.39	27379.59
681.52	27154.90
681.66	26604.87
681.80	26607.21
681.94	26576.78
682.07	26515.93
682.21	26497.20
682.35	26604.87
682.49	25989.31
682.62	25963.56
682.76	26001.01
682.90	25984.63
683.04	26120.38
683.17	25996.33
683.31	25465.03
683.45	25736.53
683.59	25383.11
683.72	25401.83
683.86	25593.76
684.00	25390.13
684.13	24964.15
684.27	24694.99
684.41	24973.52
684.55	24814.36
684.68	24919.68
684.82	24870.53
684.96	24795.64
685.09	24744.14
685.23	24458.60
685.37	24435.19
685.50	24332.21
685.64	24636.48
685.78	24210.50
685.91	24119.22
686.05	24037.30
686.19	24154.33
686.32	23529.41
686.46	23751.76
686.60	23115.13
686.73	23150.24
686.87	23051.94
687.01	23178.33
687.14	22787.46
687.28	22885.76
687.42	22972.36
687.55	23061.30
687.69	22707.88
687.82	23058.96
687.96	22625.96
688.10	22642.34
688.23	22787.46
688.37	22618.94
688.50	22686.81
688.64	22141.47
688.78	22150.83
688.91	22050.19
689.05	22148.49
689.18	21986.99
689.32	21525.91
689.46	21914.44
689.59	22085.30
689.73	22279.56
689.86	21762.30
690.00	21736.56
690.13	21563.36
690.27	21472.07
690.41	21130.36
690.54	21266.11
690.68	21146.74
690.81	21205.25
690.95	20989.92
691.08	20964.18
691.22	21046.10
691.35	20961.84
691.49	20823.75
691.62	20620.12
691.76	20779.28
691.89	20594.37
692.03	20475.01
692.16	20439.90
692.30	20477.35
692.43	20147.33
692.57	20266.70
692.70	19985.83
692.84	19840.72
692.97	19309.42
693.11	19555.18
693.24	19288.35
693.38	19861.79
693.51	19599.65
693.65	19468.58
693.78	19587.94
693.92	19403.04
694.05	19321.12
694.19	19332.82
694.32	19250.91
694.45	19068.34
694.59	19218.14
694.72	18953.66
694.86	18712.58
694.99	18656.41
695.13	18682.16
695.26	18457.46
695.39	18249.16
695.53	19028.56
695.66	18464.49
695.80	18361.50
695.93	18253.84
696.07	17982.34
696.20	18562.79
696.33	18443.42
696.47	17867.65
696.60	17991.70
696.73	17898.08
696.87	17619.55
697.00	17530.61
697.14	17343.37
697.27	17530.61
697.40	17371.46
697.54	17511.89
697.67	17315.28
697.80	17156.13
697.94	17191.23
698.07	17043.78
698.21	16938.46
698.34	17240.39
698.47	17097.61
698.61	16748.87
698.74	17039.10
698.87	16884.62
699.01	16453.97
699.14	16327.58
699.27	16294.81
699.40	16163.74
699.54	16189.49
699.67	16283.11
699.80	16116.93
699.94	15936.71
700.07	16435.24
700.20	16240.98
700.34	15800.96
700.47	15758.83
700.60	15620.74
700.73	15602.01
700.87	15620.74
701.00	15524.77
701.13	15566.90
701.26	15358.60
701.40	15241.57
701.53	15314.13
701.66	15386.68
701.79	14881.13
701.93	14984.11
702.06	14780.48
702.19	14747.72
702.32	14721.97
702.46	14750.06
702.59	15124.54
702.72	14789.85
702.85	14443.45
702.99	14492.60
703.12	14384.93
703.25	14167.26
703.38	14424.72
703.51	14150.88
703.65	14267.91
703.78	14038.53
703.91	13802.14
704.04	14029.17
704.17	13898.10
704.31	13804.48
704.44	13724.90
704.57	13575.11
704.70	13561.06
704.83	13518.93
704.96	13516.59
705.10	13469.78
705.23	13343.39
>>>>>End Processed Spectral Data<<<<<
