SpectraSuite Data File
++++++++++++++++++++++++++++++++++++
Date: Fri Oct 25 11:33:29 EDT 2013
User: price-jones
Dark Spectrum Present: No
Reference Spectrum Present: No
Number of Sampled Component Spectra: 1
Spectrometers: USB2+H05261
Integration Time (usec): 100000 (USB2+H05261)
Spectra Averaged: 1 (USB2+H05261)
Boxcar Smoothing: 0 (USB2+H05261)
Correct for Electrical Dark: No (USB2+H05261)
Strobe/Lamp Enabled: No (USB2+H05261)
Correct for Detector Non-linearity: No (USB2+H05261)
Correct for Stray Light: No (USB2+H05261)
Number of Pixels in Processed Spectrum: 2048
>>>>>Begin Processed Spectral Data<<<<<
365.73	266.82
365.92	266.82
366.12	266.82
366.32	224.69
366.52	166.18
366.72	182.56
366.91	194.26
367.11	180.22
367.31	166.18
367.51	203.63
367.70	173.20
367.90	175.54
368.10	154.48
368.30	210.65
368.49	152.13
368.69	220.01
368.89	205.97
369.09	220.01
369.28	252.78
369.48	128.73
369.68	259.80
369.87	191.92
370.07	227.03
370.27	222.35
370.47	306.61
370.66	414.27
370.86	519.60
371.06	599.18
371.25	589.82
371.45	550.03
371.65	603.86
371.84	531.30
372.04	496.19
372.24	615.56
372.44	552.37
372.63	617.90
372.83	519.60
373.03	479.81
373.22	585.13
373.42	610.88
373.62	620.24
373.81	608.54
374.01	730.25
374.21	610.88
374.40	606.20
374.60	655.35
374.79	636.63
374.99	643.65
375.19	664.71
375.38	638.97
375.58	695.14
375.78	615.56
375.97	638.97
376.17	650.67
376.37	631.94
376.56	662.37
376.76	751.31
376.95	627.26
377.15	692.80
377.35	748.97
377.54	641.31
377.74	657.69
377.93	681.10
378.13	671.73
378.33	730.25
378.52	734.93
378.72	669.39
378.91	739.61
379.11	648.33
379.31	699.82
379.50	763.01
379.70	767.70
379.89	830.89
380.09	716.20
380.28	727.91
380.48	713.86
380.68	753.65
380.87	718.54
381.07	784.08
381.26	695.14
381.46	746.63
381.65	727.91
381.85	763.01
382.04	720.88
382.24	840.25
382.43	767.70
382.63	758.33
382.83	781.74
383.02	821.53
383.22	854.30
383.41	737.27
383.61	835.57
383.80	777.06
384.00	784.08
384.19	805.14
384.39	851.96
384.58	798.12
384.78	887.06
384.97	779.40
385.17	786.42
385.36	772.38
385.56	777.06
385.75	779.40
385.95	917.49
386.14	884.72
386.34	851.96
386.53	924.51
386.72	858.98
386.92	973.66
387.11	847.27
387.31	908.13
387.50	884.72
387.70	847.27
387.89	896.43
388.09	901.11
388.28	1027.50
388.48	830.89
388.67	887.06
388.86	959.62
389.06	947.92
389.25	992.39
389.45	936.21
389.64	933.87
389.84	849.61
390.03	933.87
390.22	887.06
390.42	1001.75
390.61	1071.97
390.81	980.68
391.00	896.43
391.19	1004.09
391.39	957.28
391.58	997.07
391.78	1062.60
391.97	954.94
392.16	990.05
392.36	1064.94
392.55	1004.09
392.75	1057.92
392.94	1081.33
393.13	1172.61
393.33	1039.20
393.52	1057.92
393.71	1083.67
393.91	1076.65
394.10	1163.25
394.29	1118.78
394.49	1088.35
394.68	1170.27
394.88	1078.99
395.07	1203.04
395.26	1093.03
395.46	1043.88
395.65	1217.08
395.84	1242.82
396.04	1228.78
396.23	1221.76
396.42	1146.86
396.62	1200.69
396.81	1224.10
397.00	1160.91
397.19	1210.06
397.39	1203.04
397.58	1247.51
397.77	1256.87
397.97	1308.36
398.16	1263.89
398.35	1289.64
398.55	1273.25
398.74	1226.44
398.93	1275.59
399.12	1423.05
399.32	1355.17
399.51	1352.83
399.70	1425.39
399.90	1369.21
400.09	1352.83
400.28	1327.08
400.47	1390.28
400.67	1465.18
400.86	1378.58
401.05	1416.02
401.24	1453.47
401.44	1500.28
401.63	1486.24
401.82	1437.09
402.01	1444.11
402.21	1549.43
402.40	1497.94
402.59	1507.30
402.78	1458.15
402.97	1460.49
403.17	1493.26
403.36	1596.25
403.55	1528.37
403.74	1645.40
403.93	1551.78
404.13	1575.18
404.32	1582.20
404.51	1647.74
404.70	1621.99
404.89	1657.10
405.09	1741.36
405.28	1732.00
405.47	1610.29
405.66	1699.23
405.85	1797.53
406.05	1713.27
406.24	1776.47
406.43	1696.89
406.62	1809.23
406.81	1839.66
407.00	1823.28
407.20	1795.19
407.39	1834.98
407.58	1919.24
407.77	1856.04
407.96	1994.14
408.15	1937.96
408.34	1879.45
408.54	1877.11
408.73	1991.80
408.92	1907.54
409.11	1846.68
409.30	2005.84
409.49	2003.50
409.68	2069.03
409.87	1909.88
410.07	2087.76
410.26	2022.22
410.45	2085.42
410.64	2069.03
410.83	2062.01
411.02	2029.24
411.21	2169.68
411.40	2186.06
411.59	2211.81
411.78	2094.78
411.98	2125.21
412.17	2251.60
412.36	2319.47
412.55	2197.76
412.74	2333.51
412.93	2352.24
413.12	2305.43
413.31	2394.37
413.50	2478.63
413.69	2370.96
413.88	2466.92
414.07	2525.44
414.26	2429.48
414.45	2485.65
414.64	2600.34
414.83	2506.71
415.02	2614.38
415.22	2649.49
415.41	2715.02
415.60	2658.85
415.79	2715.02
415.98	2768.85
416.17	2691.62
416.36	2644.81
416.55	2764.17
416.74	2780.56
416.93	2850.77
417.12	2895.24
417.31	2949.08
417.50	2876.52
417.69	3075.46
417.88	3023.97
418.07	2935.03
418.26	2972.48
418.45	2974.82
418.64	3101.21
418.83	2995.89
419.02	3047.38
419.21	3061.42
419.39	3084.83
419.58	3108.23
419.77	3021.63
419.96	3148.02
420.15	3211.22
420.34	3201.85
420.53	3061.42
420.72	3148.02
420.91	3323.56
421.10	3258.03
421.29	3353.99
421.48	3227.60
421.67	3349.31
421.86	3260.37
422.05	3445.27
422.24	3267.39
422.43	3316.54
422.61	3276.75
422.80	3419.52
422.99	3468.67
423.18	3407.82
423.37	3375.05
423.56	3297.81
423.75	3428.88
423.94	3307.18
424.13	3169.09
424.32	3276.75
424.50	3370.37
424.69	3466.33
424.88	3433.57
425.07	3473.36
425.26	3267.39
425.45	3379.73
425.64	3466.33
425.83	3471.01
426.01	3363.35
426.20	3417.18
426.39	3335.26
426.58	3339.94
426.77	3461.65
426.96	3662.94
427.15	3466.33
427.33	3492.08
427.52	3407.82
427.71	3684.00
427.90	3529.53
428.09	3550.59
428.28	3714.43
428.46	3660.60
428.65	3648.90
428.84	3845.50
429.03	3754.22
429.22	3686.34
429.40	3859.54
429.59	3599.74
429.78	3658.26
429.97	3662.94
430.16	3784.65
430.34	3655.92
430.53	3826.78
430.72	3889.97
430.91	3875.93
431.10	3927.42
431.28	3992.95
431.47	3955.51
431.66	4021.04
431.85	3906.35
432.03	4039.76
432.22	4056.15
432.41	3988.27
432.60	3950.82
432.79	4030.40
432.97	4051.47
433.16	4114.66
433.35	4086.58
433.54	4109.98
433.72	4149.77
433.91	4105.30
434.10	4285.52
434.28	4163.81
434.47	4191.90
434.66	4280.84
434.85	4374.46
435.03	4287.86
435.22	4404.89
435.41	4409.57
435.59	4358.08
435.78	4479.79
435.97	4346.37
436.16	4421.27
436.34	4505.53
436.53	4451.70
436.72	4561.70
436.90	4437.66
437.09	4493.83
437.28	4498.51
437.46	4596.81
437.65	4601.49
437.84	4528.94
438.02	4606.17
438.21	4730.22
438.40	4826.18
438.58	4737.24
438.77	4898.74
438.96	4629.58
439.14	4844.91
439.33	4968.96
439.52	4880.02
439.70	4929.17
439.89	5069.60
440.08	5076.62
440.26	5078.96
440.45	5053.22
440.63	5240.46
440.82	5163.22
441.01	5125.77
441.19	5221.74
441.38	5369.19
441.57	5135.14
441.75	5338.76
441.94	5462.81
442.12	5397.28
442.31	5486.22
442.50	5467.49
442.68	5455.79
442.87	5432.38
443.05	5540.05
443.24	5556.43
443.43	5710.91
443.61	5561.11
443.80	5736.65
443.98	5451.11
444.17	5203.01
444.35	5547.07
444.54	5612.60
444.73	5603.24
444.91	5500.26
445.10	5715.59
445.28	5612.60
445.47	5731.97
445.65	5682.82
445.84	5729.63
446.02	5816.23
446.21	5734.31
446.39	5729.63
446.58	5729.63
446.77	5767.08
446.95	5673.46
447.14	5694.52
447.32	5858.36
447.51	5809.21
447.69	5790.49
447.88	5877.09
448.06	5818.57
448.25	5757.72
448.43	5706.23
448.62	5743.67
448.80	5841.98
448.99	5640.69
449.17	5933.26
449.36	5846.66
449.54	6029.22
449.73	5982.41
449.91	6122.84
450.10	6078.37
450.28	6193.06
450.46	6148.59
450.65	6249.23
450.83	6223.48
451.02	6097.10
451.20	6211.78
451.39	6106.46
451.57	6249.23
451.76	6129.86
451.94	6347.53
452.13	6293.70
452.31	6228.17
452.49	6188.38
452.68	6225.82
452.86	6256.25
453.05	6431.79
453.23	6324.13
453.42	6363.92
453.60	6293.70
453.78	6464.56
453.97	6363.92
454.15	6431.79
454.34	6459.88
454.52	6558.18
454.70	6614.35
454.89	6668.19
455.07	6523.07
455.26	6565.20
455.44	6782.87
455.62	6581.59
455.81	6927.99
455.99	6733.72
456.17	6792.23
456.36	6670.53
456.54	6916.28
456.73	6918.62
456.91	7068.42
457.09	7066.08
457.28	7129.27
457.46	7012.24
457.64	7162.04
457.83	7157.36
458.01	6979.48
458.19	7307.15
458.38	6953.73
458.56	7094.16
458.74	7307.15
458.93	7300.13
459.11	7171.40
459.29	7173.74
459.48	7279.07
459.66	7155.02
459.84	7407.80
460.03	7389.07
460.21	7503.76
460.39	7293.11
460.57	7431.20
460.76	7536.52
460.94	7412.48
461.12	7564.61
461.31	7403.11
461.49	7489.71
461.67	7410.14
461.85	7634.83
462.04	7550.57
462.22	7882.92
462.40	7962.50
462.59	7639.51
462.77	7693.34
462.95	7817.39
463.13	7772.92
463.32	7861.86
463.50	7889.95
463.68	7873.56
463.86	7786.96
464.05	7784.62
464.23	7803.35
464.41	7892.29
464.59	7819.73
464.78	8065.49
464.96	8039.74
465.14	7929.74
465.32	8028.04
465.50	8154.43
465.69	8063.15
465.87	7995.27
466.05	8044.42
466.23	8163.79
466.41	8187.19
466.60	8238.69
466.78	8135.70
466.96	8163.79
467.14	8259.75
467.32	8374.44
467.51	8531.25
467.69	8255.07
467.87	8332.31
468.05	8594.45
468.23	8255.07
468.41	8381.46
468.60	8629.56
468.78	8564.02
468.96	8210.60
469.14	8521.89
469.32	8669.34
469.50	8329.97
469.69	8662.32
469.87	8662.32
470.05	8657.64
470.23	9008.72
470.41	8978.30
470.59	8922.12
470.77	8830.84
470.95	9008.72
471.14	8980.64
471.32	8713.81
471.50	9095.32
471.68	8905.74
471.86	9191.28
472.04	9092.98
472.22	9341.08
472.40	9158.52
472.58	9263.84
472.77	9336.40
472.95	9362.14
473.13	9525.98
473.31	9266.18
473.49	9533.00
473.67	9310.65
473.85	9542.36
474.03	9989.41
474.21	9685.14
474.39	9788.12
474.57	9745.99
474.75	9748.33
474.93	10237.50
475.12	9745.99
475.30	10019.83
475.48	9947.28
475.66	9980.04
475.84	10307.72
476.02	10352.19
476.20	10244.52
476.38	10293.68
476.56	10614.33
476.74	10635.39
476.92	10619.01
477.10	10417.72
477.28	10717.31
477.46	10867.11
477.64	10876.47
477.82	11019.24
478.00	11215.85
478.18	10974.77
478.36	11248.61
478.54	11318.83
478.72	11482.67
478.90	11307.13
479.08	11733.11
479.26	11885.24
479.44	11688.64
479.62	11812.68
479.80	11770.55
479.98	11908.65
480.16	12215.26
480.34	11803.32
480.52	12318.24
480.70	12140.36
480.88	12077.16
481.06	12461.01
481.24	12325.26
481.41	12776.98
481.59	12837.84
481.77	12868.27
481.95	12882.31
482.13	13259.13
482.31	12936.14
482.49	13195.94
482.67	13429.99
482.85	13125.72
483.03	13521.27
483.21	13855.97
483.39	13699.16
483.57	13507.23
483.74	13757.67
483.92	13942.57
484.10	13886.40
484.28	14333.44
484.46	14398.98
484.64	14626.01
484.82	14721.97
485.00	14890.49
485.18	15026.24
485.35	15145.61
485.53	14920.92
485.71	14775.80
485.89	15623.08
486.07	15154.97
486.25	15522.43
486.43	15569.24
486.61	15487.32
486.78	15777.55
486.96	16222.25
487.14	16161.40
487.32	16145.02
487.50	16217.57
487.68	16358.00
487.85	16657.59
488.03	16926.75
488.21	16978.25
488.39	16982.93
488.57	17055.48
488.75	17216.98
488.92	17465.08
489.10	17710.83
489.28	17579.76
489.46	17631.26
489.64	17926.16
489.81	17998.72
489.99	18408.31
490.17	18139.15
490.35	18703.22
490.53	18473.85
490.70	18778.12
490.88	18679.82
491.06	19117.50
491.24	19049.62
491.41	19293.04
491.59	19349.21
491.77	18651.73
491.95	19524.75
492.13	19389.00
492.30	19557.52
492.48	20023.28
492.66	19597.31
492.84	20053.71
493.01	20184.78
493.19	20027.96
493.37	20376.70
493.54	20393.09
493.72	20355.64
493.90	20709.06
494.08	20812.04
494.25	20947.79
494.43	21228.66
494.61	21149.08
494.79	21373.77
494.96	21535.27
495.14	21429.94
495.32	21453.35
495.49	21521.23
495.67	21982.31
495.85	21975.29
496.02	22040.82
496.20	22078.27
496.38	22614.26
496.55	22450.42
496.73	23023.85
496.91	22546.38
497.09	22710.22
497.26	22698.52
497.44	22808.52
497.62	23129.17
497.79	23461.53
497.97	23349.18
498.14	23250.88
498.32	23555.15
498.50	23679.20
498.67	24018.58
498.85	23749.42
499.03	24049.00
499.20	24161.35
499.38	24266.67
499.56	24603.71
499.73	24622.44
499.91	24589.67
500.08	24826.06
500.26	24807.34
500.44	24999.26
500.61	24868.19
500.79	24617.75
500.97	25025.01
501.14	25546.95
501.32	25507.16
501.49	25214.59
501.67	25282.47
501.84	25886.32
502.02	25589.08
502.20	25750.57
502.37	25841.85
502.55	25869.94
502.72	26043.14
502.90	26157.83
503.07	26001.01
503.25	25895.69
503.43	26157.83
503.60	26822.54
503.78	26546.36
503.95	26419.97
504.13	26354.43
504.30	26668.06
504.48	26410.60
504.65	26740.62
504.83	27365.54
505.01	27309.37
505.18	27035.53
505.36	27688.54
505.53	26946.59
505.71	27040.21
505.88	27658.11
506.06	27339.80
506.23	27522.36
506.41	27527.04
506.58	27826.63
506.76	27786.84
506.93	28063.02
507.11	27695.56
507.28	28437.51
507.46	27838.33
507.63	28376.66
507.81	28563.90
507.98	27887.48
508.16	28807.31
508.33	28617.73
508.50	28790.93
508.68	28814.34
508.85	29310.53
509.03	28512.41
509.20	28912.64
509.38	29371.38
509.55	29111.58
509.73	29486.07
509.90	29340.96
510.08	29198.18
510.25	29624.16
510.42	29563.31
510.60	29848.85
510.77	29954.18
510.95	30192.91
511.12	29603.10
511.30	30209.29
511.47	30333.34
511.64	30338.02
511.82	30445.69
511.99	30513.56
512.17	30801.45
512.34	30649.32
512.51	30742.94
512.69	30707.83
512.86	31094.02
513.04	30668.04
513.21	30962.95
513.38	31243.81
513.56	31115.08
513.73	31079.97
513.90	31276.58
514.08	31447.44
514.25	31459.14
514.43	31543.40
514.60	31489.57
514.77	31906.18
514.95	31651.06
515.12	31842.99
515.29	31630.00
515.47	32011.51
515.64	32297.05
515.81	32037.25
515.99	32500.68
516.16	32891.55
516.33	32650.47
516.51	32781.54
516.68	32224.50
516.85	32100.45
517.03	32645.79
517.20	32701.96
517.37	32648.13
517.54	32474.93
517.72	33024.96
517.89	32662.18
518.06	33221.56
518.24	33043.68
518.41	33303.48
518.58	33509.45
518.75	33268.37
518.93	33280.08
519.10	33146.67
519.27	33551.58
519.45	33287.10
519.62	34096.92
519.79	33710.74
519.96	33776.27
520.14	33703.71
520.31	33551.58
520.48	34216.29
520.65	34340.34
520.83	34789.72
521.00	34979.31
521.17	33965.85
521.34	34326.30
521.52	34452.69
521.69	34553.33
521.86	34937.18
522.03	34930.16
522.20	34672.70
522.38	35101.01
522.55	34902.07
522.72	34892.71
522.89	35161.87
523.07	35531.67
523.24	35304.64
523.41	35512.95
523.58	35260.17
523.75	35447.41
523.92	34775.68
524.10	35431.03
524.27	35622.95
524.44	36041.91
524.61	36079.36
524.78	35835.94
524.96	35723.60
525.13	36084.04
525.30	35915.52
525.47	36332.14
525.64	35887.43
525.81	36385.97
525.98	36723.01
526.16	36369.58
526.33	36409.37
526.50	36933.65
526.67	36048.93
526.84	36685.56
527.01	36121.49
527.18	36790.88
527.36	36678.54
527.53	36954.72
527.70	37048.34
527.87	37209.84
528.04	37043.66
528.21	37053.02
528.38	37460.27
528.55	37691.99
528.72	37008.55
528.89	37408.78
529.07	36910.25
529.24	37053.02
529.41	37310.48
529.58	37312.82
529.75	37479.00
529.92	37993.92
530.09	37481.34
530.26	37731.78
530.43	37816.04
530.60	37251.97
530.77	37635.81
530.94	38075.84
531.11	37560.92
531.28	37895.61
531.46	38302.87
531.63	38506.49
531.80	38045.41
531.97	38129.67
532.14	38232.65
532.31	38462.02
532.48	38675.01
532.65	38618.84
532.82	38665.65
532.99	38609.48
533.16	38630.54
533.33	38955.88
533.50	38431.60
533.67	38642.24
533.84	39019.07
534.01	39115.03
534.18	39285.89
534.35	39641.65
534.52	39316.32
534.69	39456.75
534.86	39524.63
535.03	39129.08
535.20	39178.23
535.37	39454.41
535.54	39508.24
535.71	39423.98
535.88	39255.46
536.05	39402.92
536.22	39824.22
536.38	39852.30
536.55	39473.13
536.72	39826.56
536.89	40051.25
537.06	39784.43
537.23	39992.73
537.40	39910.82
537.57	39798.47
537.74	39978.69
537.91	40484.25
538.08	40093.38
538.25	39615.91
538.42	40275.94
538.59	40399.99
538.75	40212.74
538.92	40233.81
539.09	40561.48
539.26	40273.60
539.43	40612.98
539.60	40662.13
539.77	40498.29
539.94	41116.19
540.11	41322.16
540.28	40938.31
540.44	40926.61
540.61	40835.33
540.78	40842.35
540.95	40851.71
541.12	40896.18
541.29	40917.25
541.46	40809.58
541.62	41610.04
541.79	41457.91
541.96	41137.26
542.13	41036.61
542.30	41193.43
542.47	41401.74
542.63	41090.44
542.80	41855.80
542.97	41844.10
543.14	41614.72
543.31	41694.30
543.48	41902.61
543.64	42672.65
543.81	42108.58
543.98	41832.39
544.15	41614.72
544.32	42141.35
544.48	42457.32
544.65	42433.91
544.82	42525.19
544.99	42244.33
545.16	42284.12
545.32	42649.24
545.49	42815.42
545.66	43042.45
545.83	42904.36
546.00	42628.18
546.16	42485.40
546.33	42359.02
546.50	41958.78
546.67	42822.44
546.83	42307.52
547.00	42431.57
547.17	43154.80
547.34	42677.33
547.50	43061.18
547.67	43288.21
547.84	42878.61
548.00	42913.72
548.17	43491.83
548.34	43814.83
548.51	43416.94
548.67	43473.11
548.84	42993.30
549.01	43000.32
549.18	43407.58
549.34	42967.55
549.51	43201.61
549.68	43466.09
549.84	43466.09
550.01	43763.34
550.18	43346.72
550.34	43859.30
550.51	43676.74
550.68	44053.56
550.84	43669.72
551.01	43957.60
551.18	43840.57
551.34	43449.70
551.51	43524.60
551.68	43906.11
551.84	43831.21
552.01	43812.49
552.18	44259.53
552.34	44109.74
552.51	44210.38
552.68	43761.00
552.84	44292.30
553.01	44472.52
553.18	44563.80
553.34	44446.77
553.51	43985.69
553.67	44069.95
553.84	44285.28
554.01	44172.93
554.17	44624.65
554.34	44589.55
554.51	44678.49
554.67	44552.10
554.84	44781.47
555.00	45141.91
555.17	45069.36
555.33	44905.52
555.50	44746.36
555.67	44547.42
555.83	44751.04
556.00	44985.10
556.16	45055.31
556.33	44657.42
556.50	44643.38
556.66	45179.36
556.83	44622.31
556.99	44933.60
557.16	45186.38
557.32	44907.86
557.49	45544.48
557.65	44561.46
557.82	45261.28
557.98	45378.31
558.15	44849.35
558.32	45359.58
558.48	45308.09
558.65	45214.47
558.81	45256.60
558.98	45237.87
559.14	45230.85
559.31	45184.04
559.47	45759.81
559.64	45478.95
559.80	45462.57
559.97	45511.72
560.13	44964.03
560.30	45296.39
560.46	45743.43
560.63	45638.11
560.79	45605.34
560.96	45624.06
561.12	45703.64
561.29	45460.23
561.45	45975.14
561.61	45397.03
561.78	45123.19
561.94	45713.00
562.11	45640.45
562.27	45666.19
562.44	45759.81
562.60	46248.99
562.77	46131.96
562.93	45666.19
563.10	46150.68
563.26	45696.62
563.42	46344.95
563.59	46162.39
563.75	45848.75
563.92	45429.80
564.08	45904.93
564.24	46033.66
564.41	46108.55
564.57	46057.06
564.74	46089.83
564.90	46047.70
565.07	46110.89
565.23	46143.66
565.39	46260.69
565.56	46010.25
565.72	46443.25
565.88	46696.03
566.05	46520.49
566.21	46618.79
566.38	46103.87
566.54	46344.95
566.70	46426.87
566.87	46092.17
567.03	46384.74
567.19	46263.03
567.36	46178.77
567.52	46206.86
567.68	46927.74
567.85	46220.90
568.01	46616.45
568.17	46408.14
568.34	46621.13
568.50	46508.79
568.66	46497.08
568.83	46452.61
568.99	46597.73
569.15	46181.11
569.32	46607.09
569.48	46541.55
569.64	46927.74
569.81	46557.94
569.97	46560.28
570.13	46784.97
570.30	46953.49
570.46	46677.30
570.62	46789.65
570.78	46534.53
570.95	46609.43
571.11	47236.69
571.27	46616.45
571.43	46541.55
571.60	46953.49
571.76	46932.42
571.92	46707.73
572.09	46803.69
572.25	46618.79
572.41	46478.36
572.57	46738.16
572.74	46913.70
572.90	46698.37
573.06	47147.75
573.22	47063.49
573.38	47033.07
573.55	47028.38
573.71	47056.47
573.87	47138.39
574.03	46962.85
574.20	47220.31
574.36	47140.73
574.52	47323.29
574.68	47267.12
574.84	47290.52
575.01	46962.85
575.17	47313.93
575.33	47192.22
575.49	47028.38
575.65	47386.49
575.82	47100.94
575.98	46962.85
576.14	47173.50
576.30	46892.63
576.46	47154.77
576.62	46934.76
576.79	47337.33
576.95	46394.10
577.11	46855.18
577.27	47117.32
577.43	47037.75
577.59	46911.36
577.75	47107.96
577.92	46997.96
578.08	46986.25
578.24	47217.97
578.40	47112.64
578.56	47262.44
578.72	47185.20
578.88	47519.90
579.04	47004.98
579.21	46953.49
579.37	47084.56
579.53	47426.28
579.69	47449.68
579.85	47114.98
580.01	47171.16
580.17	47093.92
580.33	47435.64
580.49	47243.71
580.65	47313.93
580.82	47337.33
580.98	46955.83
581.14	46831.78
581.30	47079.88
581.46	47180.52
581.62	46511.13
581.78	47105.62
581.94	47552.66
582.10	46981.57
582.26	47681.39
582.42	47098.60
582.58	47620.54
582.74	47524.58
582.90	47665.01
583.06	47241.37
583.22	47166.48
583.38	47452.02
583.54	47484.79
583.70	47480.11
583.86	47260.10
584.02	47349.04
584.18	47526.92
584.34	47667.35
584.50	47723.52
584.66	47484.79
584.82	47264.78
584.98	47690.76
585.14	47447.34
585.30	47360.74
585.46	47391.17
585.62	47150.09
585.78	47517.56
585.94	47070.51
586.10	47611.18
586.26	47339.68
586.42	46902.00
586.58	47990.34
586.74	47206.26
586.90	47522.24
587.06	47325.63
587.22	48016.09
587.38	47533.94
587.54	47793.74
587.70	47440.32
587.86	47522.24
588.02	47349.04
588.18	47552.66
588.34	47564.37
588.49	47316.27
588.65	47299.89
588.81	47409.89
588.97	47929.49
589.13	47569.05
589.29	47924.81
589.45	47405.21
589.61	47791.40
589.77	47723.52
589.93	47756.29
590.08	47522.24
590.24	48067.58
590.40	48060.56
590.56	48268.87
590.72	47819.49
590.88	47496.49
591.04	47662.67
591.20	48126.10
591.35	47812.46
591.51	48416.32
591.67	48011.41
591.83	48062.90
591.99	47838.21
592.15	47875.66
592.31	47435.64
592.46	47555.00
592.62	47849.91
592.78	47938.85
592.94	47943.53
593.10	48018.43
593.26	48224.40
593.41	48168.22
593.57	48481.86
593.73	48081.63
593.89	48179.93
594.05	48474.84
594.20	48301.64
594.36	48495.90
594.52	48481.86
594.68	47966.94
594.84	47863.96
594.99	48556.75
595.15	48013.75
595.31	48322.70
595.47	47969.28
595.62	48060.56
595.78	48144.82
595.94	47950.56
596.10	48243.12
596.25	48303.98
596.41	48264.19
596.57	48114.39
596.73	48395.26
596.88	48282.91
597.04	47969.28
597.20	48421.00
597.36	48266.53
597.51	48376.53
597.67	48067.58
597.83	48116.73
597.99	48163.54
598.14	47964.60
598.30	48694.85
598.46	48170.57
598.61	48261.85
598.77	48205.67
598.93	48322.70
599.09	48409.30
599.24	48617.61
599.40	48072.26
599.56	48399.94
599.71	48575.48
599.87	48755.70
600.03	48935.92
600.18	48413.98
600.34	48083.97
600.50	48236.10
600.65	48411.64
600.81	48584.84
600.97	48591.86
601.12	48842.30
601.28	48350.79
601.44	47906.08
601.59	48193.97
601.75	48343.77
601.91	48498.24
602.06	48421.00
602.22	48540.37
602.37	48177.59
602.53	48198.65
602.69	48746.34
602.84	48313.34
603.00	48615.27
603.16	48741.66
603.31	48226.74
603.47	48479.52
603.62	48610.59
603.78	48577.82
603.94	48264.19
604.09	48413.98
604.25	48076.94
604.40	48577.82
604.56	48069.92
604.71	48797.83
604.87	48090.99
605.03	48325.04
605.18	48479.52
605.34	48465.47
605.49	48287.59
605.65	48233.76
605.80	48252.48
605.96	48313.34
606.12	47936.51
606.27	48561.44
606.43	48088.65
606.58	48516.96
606.74	48484.20
606.89	48140.14
607.05	48371.85
607.20	48477.18
607.36	48032.47
607.51	47873.32
607.67	47889.70
607.82	48282.91
607.98	48275.89
608.13	48135.46
608.29	48238.44
608.44	48318.02
608.60	47943.53
608.75	48217.38
608.91	48011.41
609.06	47716.50
609.22	48643.35
609.37	48046.52
609.53	48208.01
609.68	48041.84
609.84	47873.32
609.99	48154.18
610.15	48069.92
610.30	48212.70
610.46	48182.27
610.61	47636.92
610.76	48364.83
610.92	47955.24
611.07	47414.57
611.23	47936.51
611.38	48046.52
611.54	47985.66
611.69	48041.84
611.84	48219.72
612.00	47700.12
612.15	48222.06
612.31	47934.17
612.46	47550.32
612.62	47508.19
612.77	47779.70
612.92	48051.20
613.08	48076.94
613.23	47999.71
613.39	47936.51
613.54	47650.97
613.69	47988.00
613.85	47746.93
614.00	47674.37
614.15	47964.60
614.31	47559.69
614.46	47559.69
614.62	47498.83
614.77	47501.17
614.92	47760.97
615.08	47285.84
615.23	47894.38
615.38	47374.78
615.54	47573.73
615.69	47688.42
615.84	47540.96
616.00	47772.67
616.15	47971.62
616.30	47739.91
616.46	47199.24
616.61	47477.77
616.76	47896.72
616.92	47409.89
617.07	47437.98
617.22	47342.02
617.37	47316.27
617.53	47367.76
617.68	47412.23
617.83	47349.04
617.99	47550.32
618.14	47442.66
618.29	47133.71
618.45	47241.37
618.60	46698.37
618.75	47248.39
618.90	46937.10
619.06	47122.01
619.21	46780.29
619.36	47508.19
619.51	47192.22
619.67	46756.88
619.82	47342.02
619.97	47456.70
620.12	47098.60
620.28	47566.71
620.43	46995.62
620.58	47285.84
620.73	47026.04
620.89	47447.34
621.04	47332.65
621.19	46791.99
621.34	46602.41
621.49	46845.82
621.65	46859.87
621.80	47234.35
621.95	47313.93
622.10	47351.38
622.25	46855.18
622.41	46579.00
622.56	46637.51
622.71	47056.47
622.86	46677.30
623.01	47117.32
623.16	47002.64
623.32	46733.48
623.47	46534.53
623.62	46461.97
623.77	46789.65
623.92	46782.63
624.07	46667.94
624.23	46415.16
624.38	46644.54
624.53	46752.20
624.68	46169.41
624.83	46293.46
624.98	46784.97
625.13	46054.72
625.29	46536.87
625.44	46604.75
625.59	46204.52
625.74	46291.12
625.89	46340.27
626.04	46127.28
626.19	46157.70
626.34	45783.22
626.49	45851.09
626.65	45925.99
626.80	45902.59
626.95	45762.15
627.10	46085.15
627.25	45841.73
627.40	45750.45
627.55	46361.33
627.70	45984.51
627.85	46469.00
628.00	46099.19
628.15	45617.04
628.30	45446.18
628.45	45614.70
628.60	45975.14
628.76	45244.90
628.91	45776.20
629.06	45251.92
629.21	45820.67
629.36	45635.77
629.51	45291.71
629.66	46017.27
629.81	45514.06
629.96	45654.49
630.11	45532.78
630.26	45687.26
630.41	46038.34
630.56	45390.01
630.71	45216.81
630.86	45497.67
631.01	45296.39
631.16	45251.92
631.31	45556.19
631.46	45326.81
631.61	45553.85
631.76	45453.20
631.91	45619.38
632.06	45640.45
632.21	45495.33
632.36	45710.66
632.51	44790.83
632.66	44879.77
632.81	45123.19
632.96	45336.18
633.10	45338.52
633.25	44964.03
633.40	45471.93
633.55	45261.28
633.70	45106.80
633.85	44746.36
634.00	45167.66
634.15	44968.71
634.30	44926.58
634.45	44304.00
634.60	45251.92
634.75	45277.66
634.90	45034.25
635.05	45052.97
635.19	45029.57
635.34	44870.41
635.49	44549.76
635.64	44849.35
635.79	44786.15
635.94	44451.45
636.09	44858.71
636.24	44659.76
636.39	44722.96
636.53	44779.13
636.68	44470.18
636.83	44430.39
636.98	44318.04
637.13	44252.51
637.28	44072.29
637.43	44222.08
637.57	44624.65
637.72	44226.76
637.87	44123.78
638.02	44514.65
638.17	44212.72
638.32	44254.85
638.46	43653.33
638.61	43943.56
638.76	44018.46
638.91	44273.57
639.06	44549.76
639.20	44051.22
639.35	43756.32
639.50	43683.76
639.65	44095.69
639.80	44353.15
639.94	44224.42
640.09	44540.39
640.24	44086.33
640.39	44233.78
640.54	43510.56
640.68	43838.23
640.83	44074.63
640.98	43702.48
641.13	43363.11
641.27	44147.18
641.42	43559.71
641.57	43620.56
641.72	43566.73
641.86	43503.54
642.01	43138.41
642.16	43297.57
642.31	42983.94
642.45	43765.68
642.60	43393.53
642.75	43569.07
642.90	43578.43
643.04	43615.88
643.19	43529.28
643.34	43672.06
643.48	43002.66
643.63	42726.48
643.78	43131.39
643.93	43564.39
644.07	43243.74
644.22	43215.65
644.37	42869.25
644.51	43510.56
644.66	43540.99
644.81	43239.06
644.95	43346.72
645.10	43304.59
645.25	42981.60
645.39	42604.77
645.54	42930.11
645.69	42710.10
645.83	42401.14
645.98	42988.62
646.13	42689.03
646.27	42820.10
646.42	42649.24
646.57	43044.79
646.71	43159.48
646.86	43246.08
647.00	42848.19
647.15	42377.74
647.30	43393.53
647.44	42726.48
647.59	42698.39
647.74	42389.44
647.88	42843.51
648.03	42986.28
648.17	42937.13
648.32	42850.53
648.47	42976.92
648.61	42548.60
648.76	42682.01
648.90	42604.77
649.05	42616.47
649.20	42340.29
649.34	42684.35
649.49	42190.50
649.63	42693.71
649.78	42710.10
649.92	42602.43
650.07	42934.79
650.21	42522.85
650.36	43037.77
650.51	42330.93
650.65	42176.45
650.80	42548.60
650.94	42614.13
651.09	42174.11
651.23	41975.17
651.38	42059.43
651.52	41858.14
651.67	42326.25
651.81	41684.94
651.96	41993.89
652.10	41715.37
652.25	42274.76
652.39	41956.44
652.54	41792.61
652.68	41743.45
652.83	41970.49
652.97	42487.74
653.12	42155.39
653.26	41755.16
653.41	41816.01
653.55	41837.08
653.70	41890.91
653.84	41970.49
653.99	42010.28
654.13	41394.71
654.27	41408.76
654.42	41895.59
654.56	41083.42
654.71	41734.09
654.85	41359.61
655.00	41918.99
655.14	41680.26
655.29	41698.98
655.43	41441.53
655.57	41249.60
655.72	41097.47
655.86	41207.47
656.01	41041.29
656.15	41181.73
656.30	41282.37
656.44	41469.61
656.58	41385.35
656.73	41333.86
656.87	41031.93
657.01	40978.10
657.16	41153.64
657.30	41057.68
657.45	41015.55
657.59	40830.65
657.73	40765.11
657.88	41287.05
658.02	40891.50
658.16	41261.30
658.31	41036.61
658.45	41116.19
658.60	40664.47
658.74	40776.81
658.88	40229.13
659.03	41074.06
659.17	40369.56
659.31	40287.64
659.46	40622.34
659.60	40669.15
659.74	40430.41
659.89	40084.01
660.03	39887.41
660.17	40907.88
660.32	40130.83
660.46	40514.67
660.60	39875.71
660.74	39739.96
660.89	40369.56
661.03	39749.32
661.17	39746.98
661.32	39761.02
661.46	39929.54
661.60	39700.17
661.74	39723.57
661.89	39936.56
662.03	40011.46
662.17	39903.79
662.31	39323.34
662.46	39510.58
662.60	39337.38
662.74	39531.65
662.88	38878.64
663.03	39089.29
663.17	38792.04
663.31	38972.26
663.45	39433.35
663.60	39222.70
663.74	39295.25
663.88	39517.60
664.02	38529.90
664.17	39337.38
664.31	38600.12
664.45	38763.95
664.59	38717.14
664.73	38698.42
664.88	38768.63
665.02	38391.81
665.16	38462.02
665.30	38515.86
665.44	38216.27
665.59	38176.48
665.73	37839.44
665.87	38068.81
666.01	38216.27
666.15	38094.56
666.29	37738.80
666.44	38155.41
666.58	38064.13
666.72	37780.93
666.86	37982.21
667.00	37539.85
667.14	37584.32
667.28	37558.58
667.43	37471.98
667.57	38160.09
667.71	37919.02
667.85	37848.80
667.99	37549.21
668.13	37174.73
668.27	37326.86
668.41	37202.82
668.56	36650.45
668.70	36655.13
668.84	36407.03
668.98	36758.11
669.12	36863.44
669.26	36643.43
669.40	36795.56
669.54	36940.68
669.68	36685.56
669.82	36818.97
669.96	36732.37
670.10	36098.08
670.25	36472.57
670.39	35880.41
670.53	36673.85
670.67	36517.04
670.81	36769.82
670.95	35976.37
671.09	35608.91
671.23	35910.84
671.37	36161.28
671.51	35648.70
671.65	35522.31
671.79	35744.66
671.93	35793.81
672.07	35957.65
672.21	35917.86
672.35	35421.67
672.49	35370.18
672.63	35360.81
672.77	34827.17
672.91	35433.37
673.05	34698.44
673.19	34897.39
673.33	35044.84
673.47	34735.89
673.61	34295.87
673.75	34398.85
673.89	34382.47
674.03	34558.01
674.17	34426.94
674.31	34190.55
674.45	34024.37
674.59	34576.73
674.73	34408.22
674.87	33883.94
675.01	33701.37
675.15	34043.09
675.29	33582.01
675.43	33652.22
675.56	33497.75
675.70	33387.74
675.84	33237.95
675.98	32744.09
676.12	33294.12
676.26	33315.19
676.40	33055.39
676.54	32718.35
676.68	32833.04
676.82	32666.86
676.96	32802.61
677.10	32507.70
677.23	32367.27
677.37	32533.45
677.51	32725.37
677.65	32287.69
677.79	32369.61
677.93	31910.86
678.07	32243.22
678.21	31339.77
678.34	31599.57
678.48	31307.01
678.62	31945.97
678.76	31466.16
678.90	31332.75
679.04	31566.81
679.18	31833.63
679.31	30937.20
679.45	30984.01
679.59	30998.06
679.73	31089.34
679.87	30609.53
680.00	30590.80
680.14	30710.17
680.28	30316.96
680.42	30359.09
680.56	30122.69
680.70	30183.55
680.83	29638.20
680.97	29926.09
681.11	30012.69
681.25	29769.27
681.39	29347.98
681.52	29277.76
681.66	29364.36
681.80	28968.81
681.94	29015.62
682.07	28903.28
682.21	29020.30
682.35	29240.31
682.49	28788.59
682.62	28673.90
682.76	28528.79
682.90	28699.65
683.04	28697.31
683.17	28360.27
683.31	27988.13
683.45	28259.63
683.59	27765.78
683.72	27623.00
683.86	27793.86
684.00	27800.88
684.13	27981.10
684.27	27590.24
684.41	27538.74
684.55	27651.09
684.68	27395.97
684.82	26707.85
684.96	27194.68
685.09	27089.36
685.23	27023.83
685.37	27332.78
685.50	27072.98
685.64	26677.43
685.78	26593.17
685.91	26281.88
686.05	26122.72
686.19	25891.01
686.32	26096.97
686.46	25717.81
686.60	25891.01
686.73	25694.40
686.87	25612.48
687.01	25851.22
687.14	25902.71
687.28	25544.61
687.42	25502.48
687.55	25142.03
687.69	25453.33
687.82	24615.41
687.96	24779.25
688.10	24905.64
688.23	25191.19
688.37	25074.16
688.50	25411.20
688.64	24730.10
688.78	24570.94
688.91	24364.98
689.05	24458.60
689.18	23927.30
689.32	23634.73
689.46	23674.52
689.59	23580.90
689.73	23868.78
689.86	24257.31
690.00	23651.11
690.13	23538.77
690.27	23498.98
690.41	23428.76
690.54	23412.38
690.68	23264.92
690.81	23159.60
690.95	22946.61
691.08	22932.57
691.22	22813.20
691.35	22689.15
691.49	22911.50
691.62	22977.04
691.76	22434.03
691.89	22335.73
692.03	21972.95
692.16	22005.72
692.30	22384.88
692.43	21898.05
692.57	21797.41
692.70	22022.10
692.84	21509.52
692.97	21399.52
693.11	21422.92
693.24	21472.07
693.38	21350.37
693.51	21142.06
693.65	20828.43
693.78	20837.79
693.92	20685.65
694.05	20507.77
694.19	20549.90
694.32	20716.08
694.45	20858.85
694.59	20781.62
694.72	20968.86
694.86	20467.98
694.99	20009.24
695.13	20252.66
695.26	19924.98
695.39	19669.86
695.53	20025.62
695.66	19903.92
695.80	19522.41
695.93	19559.86
696.07	19384.32
696.20	19290.70
696.33	18965.36
696.47	19044.94
696.60	19002.81
696.73	19040.26
696.87	19161.97
697.00	18934.93
697.14	18764.07
697.27	18651.73
697.40	18462.15
697.54	18817.91
697.67	18581.51
697.80	18654.07
697.94	18155.54
698.07	18242.14
698.21	17987.02
698.34	18024.47
698.47	18001.06
698.61	17675.73
698.74	17474.44
698.87	17411.25
699.01	17350.39
699.14	17621.89
699.27	17254.43
699.40	17329.33
699.54	17425.29
699.67	17336.35
699.80	17102.29
699.94	17123.36
700.07	17336.35
700.20	16636.53
700.34	16882.28
700.47	16959.52
700.60	17081.23
700.73	16865.90
700.87	16496.10
701.00	16149.70
701.13	16362.69
701.26	16606.10
701.40	16327.58
701.53	16140.33
701.66	16161.40
701.79	16044.37
701.93	15793.94
702.06	15819.68
702.19	15590.31
702.32	15712.02
702.46	15644.14
702.59	15653.50
702.72	15494.35
702.85	15473.28
702.99	15321.15
703.12	15169.01
703.25	15159.65
703.38	14972.41
703.51	15044.96
703.65	14817.93
703.78	14679.84
703.91	14883.47
704.04	14789.85
704.17	14466.85
704.31	14530.05
704.44	14541.75
704.57	14321.74
704.70	14317.06
704.83	14249.18
704.96	14040.87
705.10	13724.90
705.23	13862.99
>>>>>End Processed Spectral Data<<<<<
