SpectraSuite Data File
++++++++++++++++++++++++++++++++++++
Date: Fri Oct 25 11:33:47 EDT 2013
User: price-jones
Dark Spectrum Present: No
Reference Spectrum Present: No
Number of Sampled Component Spectra: 1
Spectrometers: USB2+H05261
Integration Time (usec): 100000 (USB2+H05261)
Spectra Averaged: 1 (USB2+H05261)
Boxcar Smoothing: 0 (USB2+H05261)
Correct for Electrical Dark: No (USB2+H05261)
Strobe/Lamp Enabled: No (USB2+H05261)
Correct for Detector Non-linearity: No (USB2+H05261)
Correct for Stray Light: No (USB2+H05261)
Number of Pixels in Processed Spectrum: 2048
>>>>>Begin Processed Spectral Data<<<<<
365.73	259.80
365.92	259.80
366.12	259.80
366.32	264.48
366.52	217.67
366.72	175.54
366.91	184.90
367.11	208.31
367.31	126.39
367.51	177.88
367.70	128.73
367.90	241.08
368.10	187.24
368.30	241.08
368.49	121.71
368.69	238.73
368.89	264.48
369.09	184.90
369.28	215.33
369.48	243.42
369.68	264.48
369.87	351.08
370.07	245.76
370.27	262.14
370.47	297.25
370.66	489.17
370.86	498.53
371.06	521.94
371.25	599.18
371.45	545.34
371.65	568.75
371.84	486.83
372.04	578.11
372.24	589.82
372.44	571.09
372.63	498.53
372.83	589.82
373.03	582.79
373.22	585.13
373.42	575.77
373.62	711.52
373.81	596.84
374.01	648.33
374.21	657.69
374.40	650.67
374.60	641.31
374.79	631.94
374.99	636.63
375.19	681.10
375.38	737.27
375.58	692.80
375.78	678.76
375.97	704.50
376.17	685.78
376.37	638.97
376.56	706.84
376.76	704.50
376.95	683.44
377.15	664.71
377.35	683.44
377.54	706.84
377.74	657.69
377.93	617.90
378.13	713.86
378.33	683.44
378.52	641.31
378.72	739.61
378.91	653.01
379.11	657.69
379.31	716.20
379.50	671.73
379.70	716.20
379.89	706.84
380.09	690.46
380.28	692.80
380.48	753.65
380.68	748.97
380.87	711.52
381.07	746.63
381.26	751.31
381.46	786.42
381.65	807.48
381.85	765.36
382.04	751.31
382.24	737.27
382.43	706.84
382.63	798.12
382.83	809.83
383.02	819.19
383.22	828.55
383.41	770.04
383.61	763.01
383.80	866.00
384.00	868.34
384.19	763.01
384.39	720.88
384.58	851.96
384.78	840.25
384.97	830.89
385.17	835.57
385.36	791.10
385.56	833.23
385.75	795.78
385.95	884.72
386.14	873.02
386.34	915.15
386.53	908.13
386.72	795.78
386.92	851.96
387.11	966.64
387.31	908.13
387.50	910.47
387.70	826.21
387.89	868.34
388.09	901.11
388.28	957.28
388.48	929.19
388.67	933.87
388.86	952.60
389.06	851.96
389.25	971.32
389.45	931.53
389.64	976.00
389.84	994.73
390.03	968.98
390.22	968.98
390.42	936.21
390.61	1011.11
390.81	1004.09
391.00	978.34
391.19	1013.45
391.39	997.07
391.58	992.39
391.78	1041.54
391.97	1032.18
392.16	1006.43
392.36	985.37
392.55	1041.54
392.75	1088.35
392.94	1067.28
393.13	1118.78
393.33	1050.90
393.52	1008.77
393.71	1130.48
393.91	1074.31
394.10	1069.62
394.29	1071.97
394.49	983.02
394.68	1160.91
394.88	1139.84
395.07	1231.12
395.26	1224.10
395.46	1135.16
395.65	1193.67
395.84	1188.99
396.04	1188.99
396.23	1151.54
396.42	1132.82
396.62	1282.61
396.81	1139.84
397.00	1179.63
397.19	1191.33
397.39	1242.82
397.58	1256.87
397.77	1191.33
397.97	1343.47
398.16	1191.33
398.35	1263.89
398.55	1240.48
398.74	1289.64
398.93	1345.81
399.12	1259.21
399.32	1313.04
399.51	1364.53
399.70	1373.89
399.90	1280.27
400.09	1315.38
400.28	1352.83
400.47	1350.49
400.67	1432.41
400.86	1338.79
401.05	1411.34
401.24	1444.11
401.44	1474.54
401.63	1467.52
401.82	1448.79
402.01	1474.54
402.21	1465.18
402.40	1446.45
402.59	1516.67
402.78	1472.20
402.97	1448.79
403.17	1554.12
403.36	1631.35
403.55	1551.78
403.74	1586.88
403.93	1584.54
404.13	1572.84
404.32	1694.55
404.51	1551.78
404.70	1629.01
404.89	1727.32
405.09	1736.68
405.28	1645.40
405.47	1732.00
405.66	1734.34
405.85	1645.40
406.05	1710.93
406.24	1724.97
406.43	1802.21
406.62	1816.26
406.81	1823.28
407.00	1816.26
407.20	1696.89
407.39	1783.49
407.58	1769.44
407.77	1914.56
407.96	1837.32
408.15	1933.28
408.34	1879.45
408.54	1909.88
408.73	1947.33
408.92	1959.03
409.11	2024.56
409.30	2054.99
409.49	1921.58
409.68	1994.14
409.87	2094.78
410.07	2024.56
410.26	2036.27
410.45	2045.63
410.64	2069.03
410.83	2125.21
411.02	2172.02
411.21	2139.25
411.40	2190.74
411.59	2115.84
411.78	2272.66
411.98	2188.40
412.17	2321.81
412.36	2232.87
412.55	2204.78
412.74	2347.56
412.93	2321.81
413.12	2356.92
413.31	2455.22
413.50	2324.15
413.69	2459.90
413.88	2452.88
414.07	2569.91
414.26	2487.99
414.45	2574.59
414.64	2497.35
414.83	2581.61
415.02	2616.72
415.22	2593.31
415.41	2750.13
415.60	2710.34
415.79	2665.87
415.98	2785.24
416.17	2729.06
416.36	2747.79
416.55	2754.81
416.74	2672.89
416.93	2878.86
417.12	2832.05
417.31	2944.39
417.50	2827.37
417.69	2986.52
417.88	3000.57
418.07	2930.35
418.26	2988.86
418.45	3070.78
418.64	3014.61
418.83	3021.63
419.02	3162.06
419.21	3108.23
419.39	3073.12
419.58	3047.38
419.77	3157.38
419.96	3220.58
420.15	3152.70
420.34	3232.28
420.53	3059.08
420.72	3276.75
420.91	3225.26
421.10	3215.90
421.29	3290.79
421.48	3199.51
421.67	3375.05
421.86	3293.13
422.05	3300.16
422.24	3344.63
422.43	3424.20
422.61	3330.58
422.80	3449.95
422.99	3482.72
423.18	3400.80
423.37	3370.37
423.56	3389.10
423.75	3485.06
423.94	3389.10
424.13	3080.14
424.32	3251.00
424.50	3440.59
424.69	3529.53
424.88	3496.76
425.07	3456.97
425.26	3328.24
425.45	3424.20
425.64	3506.12
425.83	3426.54
426.01	3445.27
426.20	3508.46
426.39	3375.05
426.58	3370.37
426.77	3466.33
426.96	3454.63
427.15	3353.99
427.33	3433.57
427.52	3559.95
427.71	3669.96
427.90	3681.66
428.09	3672.30
428.28	3613.79
428.46	3758.90
428.65	3665.28
428.84	3826.78
429.03	3798.69
429.22	3693.37
429.40	3719.11
429.59	3824.44
429.78	3698.05
429.97	3651.24
430.16	3794.01
430.34	3880.61
430.53	3941.46
430.72	3920.40
430.91	3943.80
431.10	3840.82
431.28	3868.91
431.47	4077.21
431.66	3967.21
431.85	3992.95
432.03	3974.23
432.22	4170.83
432.41	4250.41
432.60	4065.51
432.79	4063.17
432.97	4044.45
433.16	4187.22
433.35	4189.56
433.54	4287.86
433.72	4198.92
433.91	4173.18
434.10	4264.46
434.28	4105.30
434.47	4117.00
434.66	4393.19
434.85	4285.52
435.03	4365.10
435.22	4266.80
435.41	4447.02
435.59	4461.06
435.78	4631.92
435.97	4491.49
436.16	4524.26
436.34	4524.26
436.53	4472.76
436.72	4547.66
436.90	4451.70
437.09	4526.60
437.28	4510.21
437.46	4578.09
437.65	4615.54
437.84	4660.01
438.02	4601.49
438.21	4667.03
438.40	4681.07
438.58	4842.57
438.77	4873.00
438.96	4898.74
439.14	4936.19
439.33	4802.78
439.52	5109.39
439.70	4919.81
439.89	4922.15
440.08	5067.26
440.26	5020.45
440.45	4994.70
440.63	5165.56
440.82	5366.85
441.01	5018.11
441.19	5020.45
441.38	5301.31
441.57	5097.69
441.75	5221.74
441.94	5387.91
442.12	5313.02
442.31	5313.02
442.50	5540.05
442.68	5509.62
442.87	5514.30
443.05	5474.51
443.24	5582.18
443.43	5401.96
443.61	5621.97
443.80	5647.71
443.98	5343.44
444.17	5310.68
444.35	5652.39
444.54	5643.03
444.73	5603.24
444.91	5832.62
445.10	5675.80
445.28	5523.66
445.47	5570.48
445.65	5495.58
445.84	5626.65
446.02	5687.50
446.21	5802.19
446.39	5823.25
446.58	6026.88
446.77	5701.54
446.95	5628.99
447.14	5654.73
447.32	5706.23
447.51	5781.12
447.69	5729.63
447.88	5863.04
448.06	5919.21
448.25	5771.76
448.43	5741.33
448.62	5877.09
448.80	5792.83
448.99	5893.47
449.17	5818.57
449.36	5907.51
449.54	5970.71
449.73	6031.56
449.91	6061.99
450.10	5970.71
450.28	6073.69
450.46	6267.95
450.65	6101.78
450.83	6104.12
451.02	6106.46
451.20	6129.86
451.39	6244.55
451.57	6171.99
451.76	6359.24
451.94	6251.57
452.13	6310.08
452.31	6427.11
452.49	6183.70
452.68	6321.79
452.86	6373.28
453.05	6363.92
453.23	6396.68
453.42	6434.13
453.60	6317.11
453.78	6483.28
453.97	6298.38
454.15	6579.25
454.34	6352.21
454.52	6693.93
454.70	6530.09
454.89	6626.06
455.07	6600.31
455.26	6670.53
455.44	6665.85
455.62	6848.41
455.81	6785.21
455.99	6750.10
456.17	6841.39
456.36	6794.58
456.54	6902.24
456.73	7049.69
456.91	7009.90
457.09	6925.65
457.28	7255.66
457.46	6909.26
457.64	7117.57
457.83	7037.99
458.01	6988.84
458.19	7178.42
458.38	7110.55
458.56	7358.64
458.74	7302.47
458.93	7241.62
459.11	7473.33
459.29	7122.25
459.48	7279.07
459.66	7281.41
459.84	7255.66
460.03	7592.70
460.21	7339.92
460.39	7520.14
460.57	7421.84
460.76	7304.81
460.94	7428.86
461.12	7566.95
461.31	7606.74
461.49	7520.14
461.67	7461.63
461.85	7798.66
462.04	7665.25
462.22	7974.21
462.40	7822.07
462.59	7716.75
462.77	7728.45
462.95	7775.26
463.13	7728.45
463.32	7683.98
463.50	8042.08
463.68	7960.16
463.86	8021.02
464.05	7882.92
464.23	7922.71
464.41	8002.29
464.59	7911.01
464.78	8079.53
464.96	7990.59
465.14	7854.84
465.32	8044.42
465.50	7955.48
465.69	8238.69
465.87	8138.04
466.05	8294.86
466.23	8112.30
466.41	8250.39
466.60	8425.93
466.78	8201.24
466.96	8182.51
467.14	8297.20
467.32	8372.10
467.51	8217.62
467.69	8238.69
467.87	8397.84
468.05	8423.59
468.23	8374.44
468.41	8418.91
468.60	8573.38
468.78	8580.40
468.96	8423.59
469.14	8737.22
469.32	8755.94
469.50	8627.21
469.69	8657.64
469.87	8802.75
470.05	8697.43
470.23	8730.20
470.41	8912.76
470.59	9011.06
470.77	8861.27
470.95	8812.12
471.14	9224.05
471.32	8943.19
471.50	8922.12
471.68	8905.74
471.86	9090.64
472.04	9202.99
472.22	9474.49
472.40	9118.73
472.58	9205.33
472.77	9474.49
472.95	9341.08
473.13	9762.37
473.31	9502.58
473.49	9404.27
473.67	9664.07
473.85	9533.00
474.03	9834.93
474.21	9371.50
474.39	9867.70
474.57	9898.13
474.75	9874.72
474.93	9689.82
475.12	9809.19
475.30	10122.82
475.48	10012.81
475.66	10129.84
475.84	10061.96
476.02	10333.47
476.20	10422.41
476.38	10284.31
476.56	10607.31
476.74	10558.16
476.92	10817.96
477.10	10712.63
477.28	10537.09
477.46	10782.85
477.64	10890.51
477.82	11213.51
478.00	11023.92
478.18	11147.97
478.36	11234.57
478.54	11538.84
478.72	11248.61
478.90	11590.33
479.08	11571.61
479.26	11805.66
479.44	11648.85
479.62	11770.55
479.80	11803.32
479.98	12058.44
480.16	12152.06
480.34	11969.50
480.52	12170.79
480.70	12395.48
480.88	12175.47
481.06	12388.46
481.24	12367.39
481.41	12573.36
481.59	12940.82
481.77	13032.10
481.95	12809.75
482.13	13160.83
482.31	12938.48
482.49	13345.73
482.67	13385.52
482.85	13607.87
483.03	13371.48
483.21	13678.09
483.39	13891.08
483.57	13963.64
483.74	13858.31
483.92	14022.15
484.10	13692.13
484.28	14338.12
484.46	14700.90
484.64	14614.30
484.82	14478.55
485.00	14757.08
485.18	14860.06
485.35	14958.36
485.53	14895.17
485.71	15218.16
485.89	15492.01
486.07	15131.56
486.25	15283.70
486.43	15576.27
486.61	15997.56
486.78	15943.73
486.96	16016.29
487.14	16215.23
487.32	16346.30
487.50	16512.48
487.68	16362.69
487.85	16449.28
488.03	16568.65
488.21	16971.22
488.39	16903.35
488.57	17151.45
488.75	17273.15
488.92	17664.02
489.10	17649.98
489.28	17584.44
489.46	17984.68
489.64	17549.34
489.81	17956.59
489.99	18345.12
490.17	18431.72
490.35	18511.30
490.53	18448.10
490.70	18597.90
490.88	18546.40
491.06	18909.19
491.24	19101.11
491.41	19332.82
491.59	19309.42
491.77	19363.25
491.95	19400.70
492.13	19702.63
492.30	19707.31
492.48	19777.53
492.66	19770.51
492.84	19927.32
493.01	20339.26
493.19	20311.17
493.37	20224.57
493.54	20615.44
493.72	20776.94
493.90	20685.65
494.08	20957.16
494.25	20964.18
494.43	21294.19
494.61	21025.03
494.79	21458.03
494.96	21308.24
495.14	21406.54
495.32	21752.94
495.49	21879.33
495.67	21788.05
495.85	21685.06
496.02	22356.80
496.20	22377.86
496.38	22647.02
496.55	22307.65
496.73	22836.61
496.91	22771.07
497.09	22881.08
497.26	23037.89
497.44	22869.37
497.62	23239.18
497.79	23410.04
497.97	23201.73
498.14	23695.58
498.32	23721.33
498.50	23648.77
498.67	23864.10
498.85	23868.78
499.03	23978.79
499.20	24009.22
499.38	24254.97
499.56	24367.32
499.73	24393.06
499.91	24407.11
500.08	24680.95
500.26	24627.12
500.44	24734.78
500.61	24837.76
500.79	24577.97
500.97	25067.14
501.14	25315.23
501.32	25624.18
501.49	25352.68
501.67	25514.18
501.84	25507.16
502.02	25647.59
502.20	25799.73
502.37	25858.24
502.55	25570.35
502.72	25696.74
502.90	26103.99
503.07	25844.20
503.25	26450.39
503.43	26422.31
503.60	26359.11
503.78	26405.92
503.95	26412.95
504.13	26593.17
504.30	26895.10
504.48	26574.44
504.65	27061.27
504.83	27023.83
505.01	27197.02
505.18	27077.66
505.36	27222.77
505.53	27218.09
505.71	27440.44
505.88	27531.72
506.06	27323.41
506.23	27651.09
506.41	27363.20
506.58	27854.72
506.76	28379.00
506.93	27899.19
507.11	28325.16
507.28	27835.99
507.46	28168.35
507.63	28271.33
507.81	28587.30
507.98	28175.37
508.16	28734.76
508.33	28280.69
508.50	28699.65
508.68	28886.89
508.85	28840.08
509.03	29017.96
509.20	29296.49
509.38	29364.36
509.55	29427.56
509.73	29406.49
509.90	29268.40
510.08	29717.78
510.25	29008.60
510.42	29666.29
510.60	29933.11
510.77	29898.00
510.95	30443.35
511.12	29979.92
511.30	29982.26
511.47	30279.51
511.64	29839.49
511.82	30499.52
511.99	30443.35
512.17	30536.97
512.34	30333.34
512.51	31037.84
512.69	30733.57
512.86	31007.42
513.04	31098.70
513.21	30745.28
513.38	30937.20
513.56	31402.97
513.73	31112.74
513.90	31302.32
514.08	31283.60
514.25	31494.25
514.43	31665.11
514.60	32126.19
514.77	31669.79
514.95	31732.98
515.12	31660.43
515.29	31618.30
515.47	32353.23
515.64	32196.41
515.81	31920.23
515.99	32334.50
516.16	32503.02
516.33	32154.28
516.51	32540.47
516.68	32437.48
516.85	32182.37
517.03	32559.19
517.20	32575.58
517.37	33010.92
517.54	32985.17
517.72	33031.98
517.89	32811.97
518.06	33249.65
518.24	33020.28
518.41	32943.04
518.58	33020.28
518.75	33156.03
518.93	33219.22
519.10	33191.14
519.27	33261.35
519.45	33787.97
519.62	33544.56
519.79	33748.18
519.96	34057.14
520.14	33818.40
520.31	34134.37
520.48	34064.16
520.65	34188.21
520.83	34471.41
521.00	34497.16
521.17	34132.03
521.34	34235.02
521.52	34387.15
521.69	34476.09
521.86	34796.74
522.03	34735.89
522.20	34850.58
522.38	34998.03
522.55	34983.99
522.72	34799.08
522.89	34899.73
523.07	35091.65
523.24	34967.60
523.41	35538.69
523.58	35096.33
523.75	36055.95
523.92	35426.35
524.10	35765.73
524.27	35379.54
524.44	35885.09
524.61	36070.00
524.78	35735.30
524.96	35882.75
525.13	36189.36
525.30	36018.50
525.47	36226.81
525.64	36357.88
525.81	36549.81
525.98	36699.60
526.16	36116.81
526.33	36683.22
526.50	37015.57
526.67	36343.84
526.84	36683.22
527.01	36570.87
527.18	36828.33
527.36	36973.44
527.53	36781.52
527.70	36788.54
527.87	37104.51
528.04	37258.99
528.21	37195.79
528.38	37205.16
528.55	37387.72
528.72	37479.00
528.89	37071.75
529.07	36919.61
529.24	37397.08
529.41	37818.38
529.58	37502.40
529.75	37577.30
529.92	37750.50
530.09	37935.40
530.26	37677.94
530.43	37806.67
530.60	37834.76
530.77	37699.01
530.94	38022.00
531.11	37935.40
531.28	38127.33
531.46	38281.80
531.63	38342.66
531.80	38256.06
531.97	38267.76
532.14	38029.02
532.31	38459.68
532.48	38579.05
532.65	39049.50
532.82	38759.27
532.99	38689.06
533.16	38359.04
533.33	38782.68
533.50	38616.50
533.67	38635.22
533.84	38796.72
534.01	39173.55
534.18	39136.10
534.35	39112.69
534.52	39189.93
534.69	39473.13
534.86	39711.87
535.03	39316.32
535.20	39129.08
535.37	39564.42
535.54	39746.98
535.71	39138.44
535.88	39758.68
536.05	39203.97
536.22	39615.91
536.38	39922.52
536.55	39887.41
536.72	40034.86
536.89	40086.36
537.06	39833.58
537.23	40144.87
537.40	39793.79
537.57	39714.21
537.74	39966.99
537.91	40460.84
538.08	39892.09
538.25	39697.83
538.42	39969.33
538.59	40545.10
538.75	40156.57
538.92	40467.86
539.09	40608.29
539.26	40580.21
539.43	40399.99
539.60	40605.95
539.77	40889.16
539.94	41097.47
540.11	40844.69
540.28	41118.53
540.44	40355.52
540.61	40734.68
540.78	40575.53
540.95	41057.68
541.12	40645.74
541.29	40961.72
541.46	40947.67
541.62	40877.46
541.79	41308.11
541.96	40849.37
542.13	41352.58
542.30	41502.38
542.47	41633.45
542.63	41467.27
542.80	41654.51
542.97	41834.74
543.14	41783.24
543.31	41373.65
543.48	41640.47
543.64	41982.19
543.81	42227.95
543.98	41944.74
544.15	42026.66
544.32	42136.66
544.48	42677.33
544.65	42146.03
544.82	42305.18
544.99	42045.38
545.16	41991.55
545.32	42792.01
545.49	42586.05
545.66	42494.77
545.83	42351.99
546.00	42829.46
546.16	42429.23
546.33	42436.25
546.50	42206.88
546.67	43143.09
546.83	42593.07
547.00	42770.95
547.17	42351.99
547.34	42731.16
547.50	42761.59
547.67	42920.74
547.84	42923.08
548.00	43201.61
548.17	43168.84
548.34	43295.23
548.51	43618.22
548.67	43658.01
548.84	43461.41
549.01	43372.47
549.18	43276.51
549.34	43789.08
549.51	43690.78
549.68	43358.42
549.84	43213.31
550.01	43419.28
550.18	43257.78
550.34	43505.88
550.51	43807.81
550.68	43950.58
550.84	43433.32
551.01	43594.82
551.18	43569.07
551.34	43615.88
551.51	44135.48
551.68	43604.18
551.84	44100.37
552.01	43887.39
552.18	43941.22
552.34	43466.09
552.51	44051.22
552.68	43894.41
552.84	44154.21
553.01	44123.78
553.18	44315.70
553.34	44392.94
553.51	44048.88
553.67	44332.09
553.84	44266.55
554.01	44322.72
554.17	44378.90
554.34	44315.70
554.51	44313.36
554.67	44329.75
554.84	44811.90
555.00	44236.12
555.17	44418.69
555.33	44725.30
555.50	44285.28
555.67	44519.33
555.83	44657.42
556.00	45151.27
556.16	44891.48
556.33	45017.86
556.50	45251.92
556.66	45125.53
556.83	44423.37
556.99	45455.54
557.16	45062.33
557.32	45139.57
557.49	45081.06
557.65	44898.50
557.82	45123.19
557.98	45420.44
558.15	45139.57
558.32	45118.51
558.48	44687.85
558.65	45272.98
558.81	45364.26
558.98	45195.74
559.14	45544.48
559.31	45254.26
559.47	45247.24
559.64	45249.58
559.80	45081.06
559.97	45656.83
560.13	45198.09
560.30	45673.21
560.46	45659.17
560.63	45687.26
560.79	45612.36
560.96	46003.23
561.12	45792.58
561.29	45710.66
561.45	46206.86
561.61	45654.49
561.78	45762.15
561.94	45207.45
562.11	45872.16
562.27	45881.52
562.44	45947.06
562.60	45682.58
562.77	46206.86
562.93	45806.62
563.10	46335.59
563.26	45839.39
563.42	46218.56
563.59	45851.09
563.75	45537.46
563.92	45937.69
564.08	45958.76
564.24	46232.60
564.41	45797.26
564.57	46108.55
564.74	45961.10
564.90	45881.52
565.07	46131.96
565.23	46263.03
565.39	46094.51
565.56	45893.22
565.72	45769.18
565.88	46071.10
566.05	46452.61
566.21	46075.79
566.38	46447.93
566.54	46169.41
566.70	46080.47
566.87	46401.12
567.03	45914.29
567.19	46274.73
567.36	46684.33
567.52	46010.25
567.68	46216.22
567.85	46319.20
568.01	46887.95
568.17	46307.50
568.34	46253.67
568.50	46583.68
568.66	46370.69
568.83	46766.24
568.99	46424.53
569.15	46581.34
569.32	46401.12
569.48	46714.75
569.64	46761.56
569.81	46735.82
569.97	46663.26
570.13	47213.29
570.30	46422.19
570.46	46726.46
570.62	46724.11
570.78	46705.39
570.95	46927.74
571.11	46649.22
571.27	46476.02
571.43	46625.81
571.60	46651.56
571.76	46621.13
571.92	46351.97
572.09	46742.84
572.25	46590.70
572.41	46511.13
572.57	47262.44
572.74	47269.46
572.90	46873.91
573.06	46883.27
573.22	46747.52
573.38	47232.01
573.55	46937.10
573.71	47072.85
573.87	46852.84
574.03	46834.12
574.20	46749.86
574.36	46600.07
574.52	47339.68
574.68	47105.62
574.84	46972.21
575.01	47220.31
575.17	46979.23
575.33	47110.30
575.49	46752.20
575.65	47054.13
575.82	47159.45
575.98	46794.33
576.14	47182.86
576.30	47559.69
576.46	46939.44
576.62	46834.12
576.79	46902.00
576.95	46597.73
577.11	46796.67
577.27	46939.44
577.43	47433.30
577.59	47124.35
577.75	46756.88
577.92	46934.76
578.08	46995.62
578.24	47379.46
578.40	47388.83
578.56	47538.62
578.72	47299.89
578.88	47498.83
579.04	47416.91
579.21	47311.59
579.37	47494.15
579.53	47454.36
579.69	46660.92
579.85	47054.13
580.01	47030.72
580.17	46782.63
580.33	47210.95
580.49	47253.08
580.65	47283.50
580.82	47021.36
580.98	46981.57
581.14	46726.46
581.30	47784.38
581.46	47079.88
581.62	47257.76
581.78	46843.48
581.94	46763.90
582.10	47276.48
582.26	47337.33
582.42	47402.87
582.58	47393.51
582.74	47395.85
582.90	47360.74
583.06	47363.08
583.22	47370.10
583.38	47299.89
583.54	47262.44
583.70	47192.22
583.86	47557.35
584.02	47117.32
584.18	47679.05
584.34	47913.11
584.50	47711.82
584.66	47470.75
584.82	47332.65
584.98	47512.88
585.14	47292.86
585.30	47229.67
585.46	47416.91
585.62	47201.58
585.78	47533.94
585.94	47168.82
586.10	47695.44
586.26	47342.02
586.42	47217.97
586.58	47452.02
586.74	47304.57
586.90	47203.92
587.06	47311.59
587.22	47948.21
587.38	47295.21
587.54	47555.00
587.70	47980.98
587.86	47634.58
588.02	47646.29
588.18	47484.79
588.34	47110.30
588.49	47337.33
588.65	47576.07
588.81	47650.97
588.97	47906.08
589.13	47323.29
589.29	47515.22
589.45	47629.90
589.61	47697.78
589.77	47693.10
589.93	47746.93
590.08	47929.49
590.24	47845.23
590.40	48072.26
590.56	47929.49
590.72	48112.05
590.88	47433.30
591.04	48081.63
591.20	47997.37
591.35	47784.38
591.51	48343.77
591.67	48006.73
591.83	48299.30
591.99	47814.80
592.15	47826.51
592.31	47969.28
592.46	47798.42
592.62	48151.84
592.78	48032.47
592.94	48325.04
593.10	47985.66
593.26	48205.67
593.41	48446.75
593.57	48208.01
593.73	47983.32
593.89	48458.45
594.05	48243.12
594.20	47980.98
594.36	48336.74
594.52	48250.14
594.68	48053.54
594.84	47980.98
594.99	48240.78
595.15	47927.15
595.31	48163.54
595.47	48200.99
595.62	48442.07
595.78	48439.73
595.94	48032.47
596.10	48140.14
596.25	48193.97
596.41	48334.40
596.57	48222.06
596.73	48318.02
596.88	48095.67
597.04	48037.16
597.20	47906.08
597.36	47957.58
597.51	48421.00
597.67	48039.50
597.83	48193.97
597.99	48322.70
598.14	48416.32
598.30	48189.29
598.46	48191.63
598.61	48484.20
598.77	48175.25
598.93	48439.73
599.09	48287.59
599.24	48428.02
599.40	47995.03
599.56	48374.19
599.71	48505.26
599.87	48760.38
600.03	48556.75
600.18	47943.53
600.34	48016.09
600.50	48325.04
600.65	48161.20
600.81	48601.22
600.97	48442.07
601.12	48690.16
601.28	48547.39
601.44	48098.01
601.59	47899.06
601.75	48023.11
601.91	48849.32
602.06	48095.67
602.22	48896.13
602.37	48275.89
602.53	48664.42
602.69	48374.19
602.84	48416.32
603.00	48016.09
603.16	48219.72
603.31	48722.93
603.47	48622.29
603.62	48102.69
603.78	48203.33
603.94	48069.92
604.09	48252.48
604.25	48315.68
604.40	48350.79
604.56	48788.47
604.71	48573.14
604.87	48224.40
605.03	48278.23
605.18	48254.82
605.34	48477.18
605.49	48236.10
605.65	48404.62
605.80	47973.96
605.96	47772.67
606.12	48350.79
606.27	48308.66
606.43	48287.59
606.58	48271.21
606.74	47899.06
606.89	48318.02
607.05	48444.41
607.20	48423.34
607.36	47955.24
607.51	48142.48
607.67	48119.07
607.82	48051.20
607.98	48369.51
608.13	47824.17
608.29	48083.97
608.44	48299.30
608.60	47784.38
608.75	48643.35
608.91	47952.90
609.06	47716.50
609.22	48189.29
609.37	48081.63
609.53	48048.86
609.68	48088.65
609.84	48208.01
609.99	47903.74
610.15	48212.70
610.30	47655.65
610.46	47931.83
610.61	48200.99
610.76	48137.80
610.92	47784.38
611.07	48060.56
611.23	47810.12
611.38	47772.67
611.54	47885.02
611.69	47917.79
611.84	47859.27
612.00	47861.61
612.15	47796.08
612.31	47910.77
612.46	47143.07
612.62	47646.29
612.77	47772.67
612.92	48442.07
613.08	47770.33
613.23	48402.28
613.39	47892.04
613.54	47510.53
613.69	47547.98
613.85	47688.42
614.00	47751.61
614.15	47744.59
614.31	47358.40
614.46	47487.13
614.62	47276.48
614.77	47835.87
614.92	47896.72
615.08	47770.33
615.23	47707.14
615.38	47995.03
615.54	47412.23
615.69	47557.35
615.84	47564.37
616.00	47945.87
616.15	47889.70
616.30	47524.58
616.46	47407.55
616.61	47166.48
616.76	47412.23
616.92	47557.35
617.07	47323.29
617.22	47606.50
617.37	47381.80
617.53	47012.00
617.68	47550.32
617.83	47063.49
617.99	47763.31
618.14	47639.26
618.29	47171.16
618.45	46974.55
618.60	47072.85
618.75	47089.24
618.90	47208.61
619.06	47037.75
619.21	47559.69
619.36	47662.67
619.51	46742.84
619.67	46614.11
619.82	46789.65
619.97	47084.56
620.12	46672.62
620.28	46571.98
620.43	47246.05
620.58	46944.12
620.73	47004.98
620.89	46916.04
621.04	47498.83
621.19	47189.88
621.34	47035.41
621.49	46642.20
621.65	46740.50
621.80	46899.65
621.95	46827.10
622.10	46658.58
622.25	46630.49
622.41	46756.88
622.56	46850.50
622.71	46536.87
622.86	46951.15
623.01	46445.59
623.16	46480.70
623.32	46988.60
623.47	47072.85
623.62	46609.43
623.77	46965.19
623.92	46541.55
624.07	46504.10
624.23	46684.33
624.38	46628.15
624.53	46539.21
624.68	46328.56
624.83	46370.69
624.98	46204.52
625.13	45516.40
625.29	46122.60
625.44	46162.39
625.59	46218.56
625.74	45977.48
625.89	46101.53
626.04	46335.59
626.19	46038.34
626.34	45893.22
626.49	46202.18
626.65	45944.72
626.80	45474.27
626.95	45893.22
627.10	45605.34
627.25	46061.74
627.40	45890.88
627.55	46412.82
627.70	46138.98
627.85	45975.14
628.00	46564.96
628.15	45558.53
628.30	45624.06
628.45	45525.76
628.60	45371.28
628.76	45380.65
628.91	45670.87
629.06	45713.00
629.21	45638.11
629.36	45476.61
629.51	45542.14
629.66	46017.27
629.81	45450.86
629.96	45680.24
630.11	45382.99
630.26	45301.07
630.41	45614.70
630.56	45167.66
630.71	45815.99
630.86	45298.73
631.01	44926.58
631.16	45017.86
631.31	45350.22
631.46	45127.87
631.61	45624.06
631.76	45591.30
631.91	45504.70
632.06	45359.58
632.21	45514.06
632.36	45490.65
632.51	45209.79
632.66	45329.16
632.81	45017.86
632.96	45198.09
633.10	45373.63
633.25	45151.27
633.40	45024.89
633.55	45125.53
633.70	45305.75
633.85	45116.17
634.00	44549.76
634.15	44832.96
634.30	45022.54
634.45	44659.76
634.60	44727.64
634.75	45130.21
634.90	45191.06
635.05	44662.10
635.19	44435.07
635.34	44594.23
635.49	44751.04
635.64	44729.98
635.79	44957.01
635.94	44744.02
636.09	44823.60
636.24	44217.40
636.39	44793.17
636.53	44617.63
636.68	44446.77
636.83	44479.54
636.98	44009.09
637.13	44292.30
637.28	43786.74
637.43	44509.97
637.57	44313.36
637.72	44507.63
637.87	44041.86
638.02	44343.79
638.17	44409.32
638.32	44383.58
638.46	43606.52
638.61	43782.06
638.76	43784.40
638.91	44362.51
639.06	43922.49
639.20	44048.88
639.35	43405.23
639.50	43826.53
639.65	44081.65
639.80	44177.61
639.94	44034.84
640.09	43730.57
640.24	44533.37
640.39	43847.60
640.54	43255.44
640.68	43985.69
640.83	43990.37
640.98	43854.62
641.13	43732.91
641.27	43826.53
641.42	43646.31
641.57	43646.31
641.72	44006.75
641.86	43573.75
642.01	43463.75
642.16	43267.14
642.31	42682.01
642.45	43608.86
642.60	42965.21
642.75	43475.45
642.90	43852.28
643.04	43402.89
643.19	43423.96
643.34	43035.43
643.48	42958.19
643.63	43339.70
643.78	43395.87
643.93	43847.60
644.07	43206.29
644.22	43239.06
644.37	43503.54
644.51	43379.49
644.66	43058.84
644.81	42962.87
644.95	42990.96
645.10	42806.06
645.25	42658.60
645.39	42703.07
645.54	42934.79
645.69	42653.92
645.83	42424.55
645.98	42885.64
646.13	42134.32
646.27	42623.50
646.42	42469.02
646.57	42602.43
646.71	42698.39
646.86	42911.38
647.00	42946.49
647.15	42852.87
647.30	43042.45
647.44	42909.04
647.59	42602.43
647.74	42036.02
647.88	42536.90
648.03	42808.40
648.17	42794.36
648.32	42625.84
648.47	42490.09
648.61	42377.74
648.76	42574.34
648.90	42342.63
649.05	42581.37
649.20	42141.35
649.34	42398.80
649.49	42153.05
649.63	42419.87
649.78	42377.74
649.92	42368.38
650.07	42976.92
650.21	42380.08
650.36	42349.65
650.51	42354.33
650.65	42454.98
650.80	42965.21
650.94	42202.20
651.09	42157.73
651.23	41493.02
651.38	41858.14
651.52	41560.89
651.67	42148.37
651.81	41855.80
651.96	42249.01
652.10	41500.04
652.25	41631.11
652.39	41867.50
652.54	41804.31
652.68	41687.28
652.83	41748.14
652.97	41701.32
653.12	41708.35
653.26	41551.53
653.41	41888.57
653.55	41317.48
653.70	42096.88
653.84	42031.34
653.99	41734.09
654.13	41504.72
654.27	41420.46
654.42	41394.71
654.56	41041.29
654.71	41268.33
654.85	41486.00
655.00	41645.15
655.14	41214.49
655.29	41642.81
655.43	41872.18
655.57	41368.97
655.72	40926.61
655.86	41139.60
656.01	40872.78
656.15	41003.85
656.30	41287.05
656.44	40957.03
656.58	41219.17
656.73	41120.87
656.87	40879.80
657.01	40715.96
657.16	41013.21
657.30	40900.86
657.45	40683.19
657.59	40414.03
657.73	40823.62
657.88	41031.93
658.02	40914.90
658.16	41064.70
658.31	40643.40
658.45	41127.89
658.60	40535.74
658.74	40854.05
658.88	40971.08
659.03	40968.74
659.17	40147.21
659.31	40268.92
659.46	40622.34
659.60	40168.27
659.74	40074.65
659.89	40055.93
660.03	39800.81
660.17	40226.79
660.32	40224.45
660.46	40184.66
660.60	39601.86
660.74	39997.41
660.89	40114.44
661.03	39562.08
661.17	39793.79
661.32	39887.41
661.46	39770.38
661.60	39512.92
661.74	39749.32
661.89	39482.50
662.03	39929.54
662.17	39505.90
662.31	39543.35
662.46	39442.71
662.60	39377.17
662.74	39304.62
662.88	39213.34
663.03	38625.86
663.17	39105.67
663.31	38497.13
663.45	39070.56
663.60	39021.41
663.74	39131.42
663.88	39269.51
664.02	39012.05
664.17	38841.19
664.31	39150.14
664.45	38565.01
664.59	38602.46
664.73	38665.65
664.88	38682.03
665.02	38412.87
665.16	38614.16
665.30	38543.94
665.44	38134.35
665.59	38361.38
665.73	38237.33
665.87	38169.46
666.01	38033.71
666.15	37649.86
666.29	37563.26
666.44	38368.40
666.58	38211.59
666.72	37392.40
666.86	37933.06
667.00	37509.43
667.14	37816.04
667.28	37497.72
667.43	37453.25
667.57	38031.36
667.71	37420.48
667.85	37893.27
667.99	37085.79
668.13	37130.26
668.27	37102.17
668.41	36952.38
668.56	36526.40
668.70	36994.51
668.84	36858.76
668.98	36397.67
669.12	36823.65
669.26	37034.30
669.40	36774.50
669.54	37256.65
669.68	36397.67
669.82	36634.06
669.96	36292.35
670.10	36086.38
670.25	36079.36
670.39	36233.83
670.53	36053.61
670.67	36126.17
670.81	36282.98
670.95	36126.17
671.09	36201.07
671.23	35475.50
671.37	35857.01
671.51	35711.89
671.65	35550.40
671.79	35512.95
671.93	35538.69
672.07	35814.88
672.21	35826.58
672.35	34925.47
672.49	35480.18
672.63	35367.84
672.77	34918.45
672.91	35576.14
673.05	34841.21
673.19	34885.68
673.33	34684.40
673.47	34646.95
673.61	34794.40
673.75	34567.37
673.89	34499.50
674.03	34157.78
674.17	34061.82
674.31	34113.31
674.45	33839.47
674.59	34031.39
674.73	33607.75
674.87	33640.52
675.01	33546.90
675.15	33603.07
675.29	33336.25
675.43	33598.39
675.56	33846.49
675.70	33516.47
675.84	33219.22
675.98	32594.30
676.12	33053.05
676.26	33408.81
676.40	32875.16
676.54	32823.67
676.68	32739.41
676.82	32112.15
676.96	32929.00
677.10	32631.75
677.23	32378.97
677.37	32245.56
677.51	32496.00
677.65	32531.11
677.79	31931.93
677.93	32102.79
678.07	31765.75
678.21	31608.93
678.34	31814.90
678.48	31412.33
678.62	31735.32
678.76	31613.62
678.90	31070.61
679.04	31236.79
679.18	31758.73
679.31	31065.93
679.45	31108.06
679.59	30843.58
679.73	30487.82
679.87	30391.86
680.00	30646.97
680.14	30644.63
680.28	30471.43
680.42	30450.37
680.56	30026.73
680.70	30024.39
680.83	29989.28
680.97	29869.92
681.11	30003.33
681.25	29813.74
681.39	29640.54
681.52	29343.30
681.66	29062.43
681.80	29184.14
681.94	28720.71
682.07	28744.12
682.21	28446.87
682.35	28657.52
682.49	28701.99
682.62	28507.72
682.76	28489.00
682.90	28549.85
683.04	28409.42
683.17	28027.92
683.31	28077.07
683.45	27819.61
683.59	27615.98
683.72	27805.56
683.86	27742.37
684.00	27784.50
684.13	27669.81
684.27	27400.65
684.41	27178.30
684.55	27332.78
684.68	27058.93
684.82	26738.28
684.96	26759.34
685.09	27281.28
685.23	27070.64
685.37	27180.64
685.50	27295.33
685.64	26630.62
685.78	26417.63
685.91	26532.31
686.05	26377.84
686.19	25710.78
686.32	26019.74
686.46	25603.12
686.60	25589.08
686.73	25811.43
686.87	26012.71
687.01	25708.44
687.14	25736.53
687.28	25467.37
687.42	25174.80
687.55	25198.21
687.69	25301.19
687.82	24783.93
687.96	24903.30
688.10	25102.25
688.23	24807.34
688.37	24816.70
688.50	24966.49
688.64	24580.31
688.78	24652.86
688.91	24287.74
689.05	24360.30
689.18	24070.07
689.32	23861.76
689.46	23695.58
689.59	23927.30
689.73	23758.78
689.86	23915.59
690.00	23693.24
690.13	23758.78
690.27	23278.97
690.41	23508.34
690.54	23075.34
690.68	23073.00
690.81	22792.14
690.95	22785.12
691.08	22586.17
691.22	22291.26
691.35	22663.41
691.49	22735.96
691.62	22766.39
691.76	22279.56
691.89	22366.16
692.03	21986.99
692.16	22038.48
692.30	21926.14
692.43	22375.52
692.57	21502.50
692.70	21619.53
692.84	21397.18
692.97	21273.13
693.11	21312.92
693.24	21216.96
693.38	21181.85
693.51	21064.82
693.65	21247.38
693.78	20999.29
693.92	20615.44
694.05	20842.47
694.19	20496.07
694.32	20643.52
694.45	20851.83
694.59	20734.81
694.72	20512.46
694.86	20257.34
694.99	20095.84
695.13	19995.20
695.26	19756.46
695.39	19613.69
695.53	19873.49
695.66	19791.57
695.80	19866.47
695.93	19243.88
696.07	19154.94
696.20	19138.56
696.33	18696.20
696.47	18895.14
696.60	18792.16
696.73	18824.93
696.87	19115.16
697.00	18925.57
697.14	18829.61
697.27	18506.62
697.40	18618.96
697.54	18820.25
697.67	18373.21
697.80	18810.89
697.94	18134.47
698.07	18115.75
698.21	18146.17
698.34	18223.41
698.47	18022.12
698.61	17348.05
698.74	17715.51
698.87	17502.53
699.01	17415.93
699.14	17673.39
699.27	17413.59
699.40	17214.64
699.54	17383.16
699.67	17256.77
699.80	17294.22
699.94	16964.20
700.07	17268.47
700.20	16793.34
700.34	16559.29
700.47	16896.33
700.60	16755.90
700.73	16451.63
700.87	16126.29
701.00	16205.87
701.13	16002.24
701.26	16257.36
701.40	16278.43
701.53	16208.21
701.66	16191.83
701.79	16119.27
701.93	15695.63
702.06	15424.13
702.19	15374.98
702.32	15943.73
702.46	15606.69
702.59	15946.07
702.72	15744.78
702.85	15492.01
702.99	15173.69
703.12	15440.51
703.25	14953.68
703.38	15136.24
703.51	14918.57
703.65	14850.70
703.78	14602.60
703.91	14672.82
704.04	14658.78
704.17	14630.69
704.31	14581.54
704.44	14310.04
704.57	14366.21
704.70	14445.79
704.83	14174.28
704.96	14080.66
705.10	13886.40
705.23	14012.79
>>>>>End Processed Spectral Data<<<<<
