SpectraSuite Data File
++++++++++++++++++++++++++++++++++++
Date: Fri Oct 25 10:44:38 EDT 2013
User: price-jones
Dark Spectrum Present: No
Reference Spectrum Present: No
Number of Sampled Component Spectra: 1
Spectrometers: USB2+H05261
Integration Time (usec): 100000 (USB2+H05261)
Spectra Averaged: 1 (USB2+H05261)
Boxcar Smoothing: 0 (USB2+H05261)
Correct for Electrical Dark: No (USB2+H05261)
Strobe/Lamp Enabled: No (USB2+H05261)
Correct for Detector Non-linearity: No (USB2+H05261)
Correct for Stray Light: No (USB2+H05261)
Number of Pixels in Processed Spectrum: 2048
>>>>>Begin Processed Spectral Data<<<<<
365.73	133.41
365.92	133.41
366.12	133.41
366.32	28.09
366.52	28.09
366.72	131.07
366.91	44.47
367.11	16.38
367.31	0.00
367.51	16.38
367.70	35.11
367.90	39.79
368.10	0.00
368.30	23.41
368.49	51.49
368.69	51.49
368.89	25.75
369.09	44.47
369.28	0.00
369.48	23.41
369.68	49.15
369.87	95.96
370.07	70.22
370.27	95.96
370.47	154.48
370.66	301.93
370.86	463.43
371.06	498.53
371.25	409.59
371.45	365.12
371.65	374.49
371.84	465.77
372.04	348.74
372.24	421.30
372.44	491.51
372.63	442.36
372.83	517.26
373.03	468.11
373.22	435.34
373.42	430.66
373.62	526.62
373.81	528.96
374.01	512.58
374.21	498.53
374.40	489.17
374.60	535.98
374.79	510.24
374.99	531.30
375.19	610.88
375.38	596.84
375.58	535.98
375.78	561.73
375.97	566.41
376.17	554.71
376.37	606.20
376.56	634.29
376.76	564.07
376.95	585.13
377.15	653.01
377.35	550.03
377.54	631.94
377.74	615.56
377.93	610.88
378.13	561.73
378.33	622.58
378.52	550.03
378.72	599.18
378.91	601.52
379.11	559.39
379.31	545.34
379.50	531.30
379.70	610.88
379.89	603.86
380.09	664.71
380.28	690.46
380.48	589.82
380.68	631.94
380.87	620.24
381.07	594.50
381.26	692.80
381.46	688.12
381.65	697.48
381.85	587.47
382.04	594.50
382.24	676.41
382.43	713.86
382.63	674.07
382.83	683.44
383.02	681.10
383.22	727.91
383.41	676.41
383.61	725.57
383.80	781.74
384.00	662.37
384.19	741.95
384.39	739.61
384.58	784.08
384.78	732.59
384.97	767.70
385.17	676.41
385.36	732.59
385.56	732.59
385.75	709.18
385.95	767.70
386.14	837.91
386.34	758.33
386.53	732.59
386.72	821.53
386.92	765.36
387.11	788.76
387.31	816.85
387.50	765.36
387.70	802.80
387.89	847.27
388.09	851.96
388.28	863.66
388.48	812.17
388.67	812.17
388.86	908.13
389.06	919.83
389.25	880.04
389.45	842.59
389.64	875.36
389.84	887.06
390.03	894.08
390.22	926.85
390.42	777.06
390.61	835.57
390.81	880.04
391.00	926.85
391.19	973.66
391.39	959.62
391.58	999.41
391.78	901.11
391.97	966.64
392.16	990.05
392.36	999.41
392.55	1011.11
392.75	987.71
392.94	793.44
393.13	931.53
393.33	950.26
393.52	964.30
393.71	1020.47
393.91	1032.18
394.10	926.85
394.29	1025.15
394.49	1069.62
394.68	1013.45
394.88	1123.46
395.07	1071.97
395.26	1153.88
395.46	1128.14
395.65	1109.41
395.84	1111.75
396.04	1177.29
396.23	1191.33
396.42	1132.82
396.62	1118.78
396.81	1074.31
397.00	1203.04
397.19	1121.12
397.39	1167.93
397.58	1149.20
397.77	1207.72
397.97	1266.23
398.16	1270.91
398.35	1287.29
398.55	1270.91
398.74	1200.69
398.93	1287.29
399.12	1259.21
399.32	1217.08
399.51	1303.68
399.70	1320.06
399.90	1348.15
400.09	1306.02
400.28	1348.15
400.47	1348.15
400.67	1448.79
400.86	1500.28
401.05	1409.00
401.24	1453.47
401.44	1572.84
401.63	1446.45
401.82	1514.33
402.01	1427.73
402.21	1486.24
402.40	1526.03
402.59	1542.41
402.78	1528.37
402.97	1528.37
403.17	1579.86
403.36	1493.26
403.55	1577.52
403.74	1554.12
403.93	1493.26
404.13	1507.30
404.32	1811.57
404.51	1591.56
404.70	1577.52
404.89	1645.40
405.09	1739.02
405.28	1722.63
405.47	1696.89
405.66	1778.81
405.85	1678.16
406.05	1839.66
406.24	1771.79
406.43	1750.72
406.62	1781.15
406.81	1863.07
407.00	1769.44
407.20	1790.51
407.39	1893.49
407.58	1818.60
407.77	1879.45
407.96	1928.60
408.15	2012.86
408.34	1947.33
408.54	2054.99
408.73	2015.20
408.92	1984.77
409.11	1919.24
409.30	2069.03
409.49	1940.30
409.68	2050.31
409.87	2005.84
410.07	1937.96
410.26	2169.68
410.45	2207.13
410.64	2157.97
410.83	2155.63
411.02	2127.55
411.21	2239.89
411.40	2258.62
411.59	2172.02
411.78	2286.70
411.98	2300.75
412.17	2335.85
412.36	2368.62
412.55	2415.43
412.74	2408.41
412.93	2359.26
413.12	2361.60
413.31	2626.08
413.50	2396.71
413.69	2392.03
413.88	2588.63
414.07	2532.46
414.26	2616.72
414.45	2506.71
414.64	2626.08
414.83	2710.34
415.02	2654.17
415.22	2689.28
415.41	2745.45
415.60	2738.43
415.79	2799.28
415.98	2785.24
416.17	2899.92
416.36	2930.35
416.55	2782.90
416.74	2897.58
416.93	2913.97
417.12	2937.37
417.31	2902.26
417.50	3000.57
417.69	3028.65
417.88	2995.89
418.07	2974.82
418.26	3000.57
418.45	3178.45
418.64	3131.64
418.83	3124.62
419.02	3059.08
419.21	3126.96
419.39	3141.00
419.58	3091.85
419.77	3176.11
419.96	3234.62
420.15	3344.63
420.34	3155.04
420.53	3262.71
420.72	3241.64
420.91	3304.84
421.10	3281.43
421.29	3438.25
421.48	3281.43
421.67	3548.25
421.86	3522.51
422.05	3456.97
422.24	3382.07
422.43	3466.33
422.61	3534.21
422.80	3405.48
422.99	3417.18
423.18	3412.50
423.37	3499.10
423.56	3545.91
423.75	3473.36
423.94	3531.87
424.13	3258.03
424.32	3382.07
424.50	3461.65
424.69	3583.36
424.88	3520.17
425.07	3396.12
425.26	3403.14
425.45	3492.08
425.64	3478.04
425.83	3538.89
426.01	3602.08
426.20	3480.38
426.39	3630.17
426.58	3566.98
426.77	3623.15
426.96	3543.57
427.15	3550.59
427.33	3669.96
427.52	3672.30
427.71	3742.52
427.90	3655.92
428.09	3836.14
428.28	3723.79
428.46	3779.97
428.65	3847.84
428.84	3756.56
429.03	3934.44
429.22	3786.99
429.40	3737.84
429.59	3868.91
429.78	3536.55
429.97	3672.30
430.16	3866.56
430.34	3765.92
430.53	3953.16
430.72	3786.99
430.91	3808.05
431.10	3768.26
431.28	4131.05
431.47	4121.68
431.66	4201.26
431.85	4117.00
432.03	4119.34
432.22	4142.75
432.41	4135.73
432.60	4156.79
432.79	4196.58
432.97	4259.78
433.16	4217.65
433.35	4149.77
433.54	4149.77
433.72	4219.99
433.91	4334.67
434.10	4236.37
434.28	4329.99
434.47	4285.52
434.66	4334.67
434.85	4430.63
435.03	4437.66
435.22	4608.51
435.41	4566.39
435.59	4491.49
435.78	4475.10
435.97	4484.47
436.16	4442.34
436.34	4603.83
436.53	4610.86
436.72	4643.62
436.90	4552.34
437.09	4552.34
437.28	4606.17
437.46	4667.03
437.65	4559.36
437.84	4638.94
438.02	4720.86
438.21	4713.84
438.40	4652.98
438.58	4940.87
438.77	4882.36
438.96	4770.01
439.14	5043.85
439.33	5025.13
439.52	5074.28
439.70	5055.56
439.89	4987.68
440.08	5025.13
440.26	5109.39
440.45	5226.42
440.63	5188.97
440.82	5462.81
441.01	5336.42
441.19	5123.43
441.38	5430.04
441.57	5490.90
441.75	5528.35
441.94	5654.73
442.12	5535.37
442.31	5579.84
442.50	5579.84
442.68	5785.80
442.87	5617.29
443.05	5767.08
443.24	5682.82
443.43	5537.71
443.61	5753.04
443.80	5919.21
443.98	5694.52
444.17	5652.39
444.35	5870.06
444.54	5884.11
444.73	5820.91
444.91	5795.17
445.10	5846.66
445.28	5687.50
445.47	5710.91
445.65	5764.74
445.84	5977.73
446.02	5849.00
446.21	5820.91
446.39	5863.04
446.58	6024.54
446.77	5881.77
446.95	5820.91
447.14	5923.90
447.32	6054.97
447.51	5837.30
447.69	5734.31
447.88	6108.80
448.06	5888.79
448.25	6022.20
448.43	5877.09
448.62	6209.44
448.80	5853.68
448.99	6176.67
449.17	6183.70
449.36	5942.62
449.54	6106.46
449.73	6190.72
449.91	6354.55
450.10	6223.48
450.28	6270.30
450.46	6424.77
450.65	6394.34
450.83	6328.81
451.02	6249.23
451.20	6370.94
451.39	6338.17
451.57	6342.85
451.76	6420.09
451.94	6338.17
452.13	6593.29
452.31	6469.24
452.49	6403.71
452.68	6651.80
452.86	6480.94
453.05	6518.39
453.23	6719.68
453.42	6562.86
453.60	6583.93
453.78	6644.78
453.97	6424.77
454.15	6438.81
454.34	6569.88
454.52	6813.30
454.70	6649.46
454.89	6740.74
455.07	6616.69
455.26	6951.39
455.44	6958.41
455.62	6841.39
455.81	6806.28
455.99	6935.01
456.17	6937.35
456.36	6918.62
456.54	6974.80
456.73	7023.95
456.91	7279.07
457.09	7180.76
457.28	7201.83
457.46	7201.83
457.64	7239.28
457.83	7248.64
458.01	7140.97
458.19	7452.27
458.38	7372.69
458.56	7389.07
458.74	7300.13
458.93	7293.11
459.11	7253.32
459.29	7442.90
459.48	7508.44
459.66	7342.26
459.84	7602.06
460.03	7569.29
460.21	7517.80
460.39	7562.27
460.57	7616.10
460.76	7651.21
460.94	7714.41
461.12	7613.76
461.31	7859.52
461.49	7735.47
461.67	7543.55
461.85	8018.68
462.04	7854.84
462.22	7925.05
462.40	7950.80
462.59	8016.33
462.77	7911.01
462.95	7861.86
463.13	7997.61
463.32	8126.34
463.50	8013.99
463.68	7990.59
463.86	7925.05
464.05	8051.44
464.23	7978.89
464.41	8191.88
464.59	7953.14
464.78	8161.45
464.96	8229.32
465.14	8241.03
465.32	8147.40
465.50	8306.56
465.69	8505.51
465.87	8301.88
466.05	8203.58
466.23	8355.71
466.41	8351.03
466.60	8545.30
466.78	8348.69
466.96	8194.22
467.14	8400.18
467.32	8435.29
467.51	8486.78
467.69	8196.56
467.87	8390.82
468.05	8748.92
468.23	8606.15
468.41	8575.72
468.60	8631.90
468.78	8767.65
468.96	8414.23
469.14	8540.61
469.32	8882.33
469.50	8652.96
469.69	8767.65
469.87	8865.95
470.05	8833.18
470.23	9123.41
470.41	9083.62
470.59	8889.35
470.77	9001.70
470.95	9008.72
471.14	9167.88
471.32	8959.57
471.50	9076.60
471.68	9217.03
471.86	9280.22
472.04	9231.07
472.22	9334.06
472.40	9287.25
472.58	9507.26
472.77	9387.89
472.95	9551.73
473.13	9600.88
473.31	9518.96
473.49	9390.23
473.67	9673.43
473.85	9533.00
474.03	9863.02
474.21	9783.44
474.39	10005.79
474.57	9963.66
474.75	10050.26
474.93	10326.44
475.12	10022.17
475.30	10232.82
475.48	9966.00
475.66	10200.05
475.84	10150.90
476.02	10244.52
476.20	10523.05
476.38	10590.92
476.56	10892.85
476.74	10902.22
476.92	10689.23
477.10	10841.36
477.28	10963.07
477.46	10750.08
477.64	10944.34
477.82	11295.43
478.00	11412.45
478.18	11260.32
478.36	11419.47
478.54	11501.39
478.72	11241.59
478.90	11611.40
479.08	11693.32
479.26	11946.09
479.44	11775.24
479.62	11941.41
479.80	11906.31
479.98	11929.71
480.16	12283.13
480.34	12290.15
480.52	12397.82
480.70	12369.73
480.88	12236.32
481.06	12542.93
481.24	12561.66
481.41	12809.75
481.59	12826.14
481.77	13142.11
481.95	13322.33
482.13	12971.25
482.31	13013.38
482.49	13432.33
482.67	13415.95
482.85	13575.11
483.03	13591.49
483.21	13867.67
483.39	13839.59
483.57	13816.18
483.74	14134.50
483.92	14256.20
484.10	14141.52
484.28	14590.90
484.46	14668.14
484.64	14724.31
484.82	14492.60
485.00	14572.18
485.18	15014.54
485.35	14951.34
485.53	14913.89
485.71	14743.03
485.89	15126.88
486.07	15185.40
486.25	15037.94
486.43	15644.14
486.61	15641.80
486.78	15721.38
486.96	15927.35
487.14	16027.99
487.32	15934.37
487.50	16552.27
487.68	16617.80
487.85	16905.69
488.03	16608.44
488.21	16884.62
488.39	17121.02
488.57	17025.06
488.75	17111.66
488.92	17404.22
489.10	17439.33
489.28	17460.40
489.46	17987.02
489.64	18087.66
489.81	18188.30
489.99	18307.67
490.17	18391.93
490.35	18462.15
490.53	18551.09
490.70	18721.95
490.88	18602.58
491.06	19009.83
491.24	19049.62
491.41	18897.49
491.59	19426.45
491.77	19080.05
491.95	19433.47
492.13	19295.38
492.30	19880.51
492.48	19927.32
492.66	19522.41
492.84	19969.45
493.01	19995.20
493.19	20168.40
493.37	20299.47
493.54	20456.28
493.72	20615.44
493.90	20332.23
494.08	21212.28
494.25	21214.62
494.43	21219.30
494.61	21053.12
494.79	21362.07
494.96	21415.90
495.14	21128.02
495.32	21397.18
495.49	21495.48
495.67	21645.27
495.85	21914.44
496.02	22288.92
496.20	22118.06
496.38	22118.06
496.55	22429.35
496.73	22860.01
496.91	22684.47
497.09	22752.35
497.26	22979.38
497.44	22986.40
497.62	23028.53
497.79	23307.05
497.97	22897.46
498.14	23358.55
498.32	23328.12
498.50	23606.64
498.67	23695.58
498.85	24063.05
499.03	23920.28
499.20	24161.35
499.38	24135.60
499.56	24137.94
499.73	24173.05
499.91	24140.29
500.08	24477.32
500.26	24102.84
500.44	24400.08
500.61	24716.06
500.79	24812.02
500.97	24453.92
501.14	25247.36
501.32	24973.52
501.49	25055.43
501.67	25046.07
501.84	25373.75
502.02	25137.35
502.20	25582.06
502.37	25656.95
502.55	25589.08
502.72	25788.02
502.90	25830.15
503.07	25837.17
503.25	25708.44
503.43	25816.11
503.60	25797.38
503.78	25521.20
503.95	25790.36
504.13	25996.33
504.30	26029.10
504.48	26593.17
504.65	26867.01
504.83	26934.88
505.01	26932.54
505.18	26700.83
505.36	26965.31
505.53	27075.32
505.71	27475.55
505.88	27262.56
506.06	26806.16
506.23	27339.80
506.41	26897.44
506.58	27058.93
506.76	27222.77
506.93	27704.92
507.11	27377.25
507.28	27838.33
507.46	27683.86
507.63	27758.75
507.81	27824.29
507.98	28020.89
508.16	28149.62
508.33	28322.82
508.50	28311.12
508.68	28308.78
508.85	28797.95
509.03	28701.99
509.20	28666.88
509.38	28788.59
509.55	28879.87
509.73	28828.38
509.90	28746.46
510.08	28657.52
510.25	28858.81
510.42	28966.47
510.60	29500.11
510.77	29170.10
510.95	29703.74
511.12	29521.18
511.30	29661.61
511.47	29993.97
511.64	29827.79
511.82	30036.09
511.99	30040.78
512.17	29963.54
512.34	29575.01
512.51	30132.06
512.69	30464.41
512.86	30258.45
513.04	30331.00
513.21	30293.55
513.38	30356.75
513.56	30663.36
513.73	30134.40
513.90	30600.16
514.08	30586.12
514.25	30429.30
514.43	30600.16
514.60	30857.62
514.77	30771.02
514.95	31295.30
515.12	31094.02
515.29	31353.82
515.47	31182.96
515.64	31805.54
515.81	31559.78
515.99	31510.63
516.16	31564.46
516.33	31669.79
516.51	31421.69
516.68	31730.64
516.85	31253.17
517.03	31573.83
517.20	31683.83
517.37	31763.41
517.54	31646.38
517.72	32084.06
517.89	32037.25
518.06	31835.97
518.24	32046.62
518.41	32189.39
518.58	31899.16
518.75	32191.73
518.93	32790.91
519.10	32287.69
519.27	32905.59
519.45	32404.72
519.62	32500.68
519.79	33034.32
519.96	32996.87
520.14	33329.23
520.31	32907.93
520.48	32580.26
520.65	33366.68
520.83	33277.74
521.00	33809.04
521.17	33280.08
521.34	33574.98
521.52	33495.41
521.69	33626.48
521.86	33996.28
522.03	33872.23
522.20	34024.37
522.38	33954.15
522.55	33926.07
522.72	33890.96
522.89	34129.69
523.07	34216.29
523.24	33785.63
523.41	34345.02
523.58	33916.70
523.75	34792.06
523.92	34712.49
524.10	34735.89
524.27	34876.32
524.44	34639.93
524.61	34668.02
524.78	34712.49
524.96	35342.09
525.13	35035.48
525.30	35393.58
525.47	35524.65
525.64	35077.61
525.81	35356.13
525.98	35285.92
526.16	34939.52
526.33	35241.45
526.50	35515.29
526.67	34974.63
526.84	34983.99
527.01	35037.82
527.18	35370.18
527.36	35859.35
527.53	35569.12
527.70	35964.67
527.87	36215.11
528.04	35386.56
528.21	36444.48
528.38	35646.36
528.55	36322.77
528.72	35913.18
528.89	36252.56
529.07	36692.58
529.24	35976.37
529.41	36495.97
529.58	36180.00
529.75	36187.02
529.92	36348.52
530.09	36587.25
530.26	36175.32
530.43	36992.17
530.60	36414.05
530.77	36250.22
530.94	37038.98
531.11	36725.35
531.28	36615.34
531.46	37057.70
531.63	36753.43
531.80	36847.05
531.97	36779.18
532.14	36830.67
532.31	36879.82
532.48	37193.45
532.65	37296.44
532.82	37184.09
532.99	37160.69
533.16	37345.59
533.33	37801.99
533.50	37589.00
533.67	37682.62
533.84	37364.31
534.01	37474.32
534.18	37350.27
534.35	37933.06
534.52	37411.12
534.69	37684.97
534.86	38169.46
535.03	38054.77
535.20	37951.79
535.37	38080.52
535.54	38459.68
535.71	38068.81
535.88	38047.75
536.05	37907.32
536.22	38597.77
536.38	38616.50
536.55	38314.57
536.72	38267.76
536.89	38024.34
537.06	38263.08
537.23	38429.26
537.40	38593.09
537.57	38501.81
537.74	38483.09
537.91	39379.51
538.08	38754.59
538.25	38457.34
538.42	38370.74
538.59	39007.37
538.75	38466.70
538.92	38543.94
539.09	39000.35
539.26	38827.15
539.43	39505.90
539.60	39260.15
539.77	38796.72
539.94	39100.99
540.11	38850.55
540.28	39166.52
540.44	39709.53
540.61	39255.46
540.78	39044.82
540.95	39068.22
541.12	39337.38
541.29	39264.83
541.46	39508.24
541.62	39908.47
541.79	39335.04
541.96	38906.73
542.13	39693.15
542.30	39812.51
542.47	40058.27
542.63	39969.33
542.80	39618.25
542.97	39957.63
543.14	40149.55
543.31	40376.58
543.48	40048.91
543.64	40985.12
543.81	40519.35
543.98	40453.82
544.15	40404.67
544.32	40484.25
544.48	40648.08
544.65	40631.70
544.82	40760.43
544.99	40023.16
545.16	40877.46
545.32	40353.18
545.49	40919.59
545.66	40992.14
545.83	40720.64
546.00	40594.25
546.16	41406.42
546.33	40505.31
546.50	40322.75
546.67	41060.02
546.83	40210.40
547.00	40847.03
547.17	40662.13
547.34	40854.05
547.50	41141.94
547.67	41258.96
547.84	41263.64
548.00	41303.43
548.17	41474.29
548.34	41251.94
548.51	41558.55
548.67	41715.37
548.84	41663.88
549.01	41581.96
549.18	41258.96
549.34	41911.97
549.51	41713.03
549.68	41652.17
549.84	41368.97
550.01	41757.50
550.18	41647.49
550.34	41579.62
550.51	41825.37
550.68	41476.63
550.84	41474.29
551.01	42068.79
551.18	41708.35
551.34	41670.90
551.51	41867.50
551.68	41645.15
551.84	41596.00
552.01	42017.30
552.18	41921.34
552.34	42017.30
552.51	42080.49
552.68	41848.78
552.84	42447.96
553.01	42277.10
553.18	42326.25
553.34	41778.56
553.51	41837.08
553.67	41984.53
553.84	42312.20
554.01	42850.53
554.17	42169.43
554.34	42590.73
554.51	42621.16
554.67	42443.27
554.84	42663.28
555.00	42370.72
555.17	42363.70
555.33	42480.72
555.50	42550.94
555.67	41872.18
555.83	42663.28
556.00	42490.09
556.16	43255.44
556.33	42384.76
556.50	42410.51
556.66	43384.17
556.83	42665.63
556.99	43206.29
557.16	42834.14
557.32	42728.82
557.49	42740.52
557.65	42789.67
557.82	42670.31
557.98	42717.12
558.15	42864.57
558.32	43040.11
558.48	43332.68
558.65	42972.24
558.81	42845.85
558.98	43133.73
559.14	43093.94
559.31	43093.94
559.47	43122.03
559.64	43292.89
559.80	43332.68
559.97	43232.04
560.13	42953.51
560.30	43107.99
560.46	43023.73
560.63	42892.66
560.79	43807.81
560.96	43330.34
561.12	43281.19
561.29	43297.57
561.45	43381.83
561.61	43402.89
561.78	43587.80
561.94	43075.22
562.11	43585.46
562.27	43175.86
562.44	43449.70
562.60	43711.84
562.77	43618.22
562.93	43753.97
563.10	43676.74
563.26	43110.33
563.42	43320.98
563.59	43250.76
563.75	43257.78
563.92	43662.69
564.08	43468.43
564.24	43604.18
564.41	43704.82
564.57	43477.79
564.74	43618.22
564.90	43466.09
565.07	43810.15
565.23	43379.49
565.39	43636.95
565.56	43601.84
565.72	43482.47
565.88	43353.74
566.05	43686.10
566.21	43805.47
566.38	43735.25
566.54	43367.79
566.70	43899.09
566.87	44198.68
567.03	44247.83
567.19	43887.39
567.36	43688.44
567.52	43997.39
567.68	44296.98
567.85	43721.21
568.01	43966.96
568.17	44027.82
568.34	43990.37
568.50	43931.86
568.66	43784.40
568.83	43990.37
568.99	43931.86
569.15	43643.97
569.32	43892.07
569.48	43613.54
569.64	43899.09
569.81	44128.46
569.97	43742.27
570.13	44037.18
570.30	43959.94
570.46	43718.87
570.62	44032.50
570.78	43632.27
570.95	43356.08
571.11	44163.57
571.27	43882.70
571.43	44135.48
571.60	43814.83
571.76	43978.67
571.92	43868.66
572.09	44151.87
572.25	43819.51
572.41	43948.24
572.57	44004.41
572.74	44362.51
572.90	44165.91
573.06	44051.22
573.22	43969.30
573.38	44247.83
573.55	44121.44
573.71	43955.26
573.87	43782.06
574.03	43863.98
574.20	44046.54
574.36	43770.36
574.52	44041.86
574.68	44397.62
574.84	44037.18
575.01	44186.97
575.17	44079.31
575.33	43428.64
575.49	43995.05
575.65	44030.16
575.82	44273.57
575.98	43885.04
576.14	44039.52
576.30	44552.10
576.46	43880.36
576.62	44301.66
576.79	44048.88
576.95	43941.22
577.11	44346.13
577.27	44039.52
577.43	44203.36
577.59	43782.06
577.75	44392.94
577.92	43639.29
578.08	44098.03
578.24	43894.41
578.40	43714.19
578.56	44362.51
578.72	44421.03
578.88	44032.50
579.04	44666.78
579.21	44418.69
579.37	44198.68
579.53	44158.89
579.69	44037.18
579.85	43988.03
580.01	44018.46
580.17	44060.58
580.33	44074.63
580.49	44250.17
580.65	44442.09
580.82	44774.45
580.98	44245.49
581.14	43962.28
581.30	44486.56
581.46	44170.59
581.62	44589.55
581.78	44563.80
581.94	44589.55
582.10	44191.65
582.26	44891.48
582.42	44603.59
582.58	44119.10
582.74	44013.77
582.90	44147.18
583.06	44383.58
583.22	44467.84
583.38	44526.35
583.54	44638.70
583.70	44367.20
583.86	44479.54
584.02	44196.34
584.18	44247.83
584.34	44390.60
584.50	43871.00
584.66	44652.74
584.82	44238.47
584.98	44753.38
585.14	44257.19
585.30	44336.77
585.46	44383.58
585.62	44074.63
585.78	44287.62
585.94	44011.43
586.10	44196.34
586.26	44378.90
586.42	44353.15
586.58	44683.17
586.74	44634.02
586.90	44374.22
587.06	44018.46
587.22	44563.80
587.38	44411.67
587.54	44339.11
587.70	44196.34
587.86	44325.07
588.02	44521.67
588.18	44739.34
588.34	44325.07
588.49	44516.99
588.65	43796.10
588.81	43952.92
588.97	44037.18
589.13	44425.71
589.29	44133.14
589.45	44308.68
589.61	44275.91
589.77	44388.26
589.93	44238.47
590.08	44755.72
590.24	44891.48
590.40	44912.54
590.56	44957.01
590.72	44659.76
590.88	44641.04
591.04	44474.86
591.20	44807.22
591.35	45008.50
591.51	45076.38
591.67	44575.50
591.83	44938.29
591.99	44685.51
592.15	44858.71
592.31	44673.81
592.46	44343.79
592.62	44381.24
592.78	44828.28
592.94	44938.29
593.10	44460.82
593.26	44964.03
593.41	44699.55
593.57	44236.12
593.73	44545.08
593.89	44540.39
594.05	44664.44
594.20	45001.48
594.36	44870.41
594.52	44802.53
594.68	44484.22
594.84	44552.10
594.99	44919.56
595.15	45394.69
595.31	44715.93
595.47	44776.79
595.62	44629.34
595.78	45008.50
595.94	45050.63
596.10	44821.26
596.25	45242.56
596.41	44835.30
596.57	44926.58
596.73	44821.26
596.88	44648.06
597.04	44545.08
597.20	44856.37
597.36	44889.13
597.51	45565.55
597.67	45074.04
597.83	44694.87
597.99	45219.15
598.14	44825.94
598.30	45074.04
598.46	44421.03
598.61	44470.18
598.77	44254.85
598.93	44406.98
599.09	44390.60
599.24	45291.71
599.40	44973.39
599.56	45127.87
599.71	44519.33
599.87	44643.38
600.03	44727.64
600.18	44875.09
600.34	44224.42
600.50	44362.51
600.65	44285.28
600.81	45003.82
600.97	44903.18
601.12	44786.15
601.28	44875.09
601.44	44451.45
601.59	44479.54
601.75	44542.74
601.91	44439.75
602.06	44442.09
602.22	44355.49
602.37	44669.12
602.53	44886.79
602.69	44957.01
602.84	44500.61
603.00	44596.57
603.16	44648.06
603.31	44343.79
603.47	44451.45
603.62	44849.35
603.78	44832.96
603.94	44823.60
604.09	44692.53
604.25	45214.47
604.40	44769.77
604.56	44816.58
604.71	44818.92
604.87	44849.35
605.03	44559.12
605.18	45038.93
605.34	44561.46
605.49	44631.68
605.65	44336.77
605.80	44807.22
605.96	44514.65
606.12	44568.48
606.27	44942.97
606.43	44474.86
606.58	44872.75
606.74	44648.06
606.89	44463.16
607.05	44868.07
607.20	44563.80
607.36	44437.41
607.51	44854.03
607.67	44556.78
607.82	44774.45
607.98	44479.54
608.13	44472.52
608.29	44687.85
608.44	44055.90
608.60	44184.63
608.75	43952.92
608.91	44004.41
609.06	43852.28
609.22	44634.02
609.37	43887.39
609.53	44456.14
609.68	44102.71
609.84	43842.92
609.99	44252.51
610.15	44268.89
610.30	43988.03
610.46	43945.90
610.61	44561.46
610.76	44018.46
610.92	44325.07
611.07	43992.71
611.23	44409.32
611.38	44278.25
611.54	44046.54
611.69	43833.55
611.84	43768.02
612.00	44229.10
612.15	44156.55
612.31	44376.56
612.46	43665.03
612.62	43934.20
612.77	43892.07
612.92	44196.34
613.08	43943.56
613.23	44051.22
613.39	43735.25
613.54	43819.51
613.69	44030.16
613.85	43466.09
614.00	43866.32
614.15	44194.00
614.31	43711.84
614.46	44177.61
614.62	44212.72
614.77	43459.07
614.92	43814.83
615.08	43976.33
615.23	43278.85
615.38	43438.00
615.54	43068.20
615.69	43751.63
615.84	43466.09
616.00	43653.33
616.15	43498.86
616.30	43966.96
616.46	43232.04
616.61	43409.92
616.76	43461.41
616.92	42756.91
617.07	42953.51
617.22	42927.77
617.37	43033.09
617.53	43693.12
617.68	43192.25
617.83	43634.61
617.99	43667.37
618.14	43337.36
618.29	43555.03
618.45	43030.75
618.60	43173.52
618.75	43292.89
618.90	42974.58
619.06	43491.83
619.21	43590.14
619.36	43304.59
619.51	43201.61
619.67	42890.32
619.82	43363.11
619.97	43239.06
620.12	42995.64
620.28	42541.58
620.43	42686.69
620.58	42759.25
620.73	42588.39
620.89	42670.31
621.04	42630.52
621.19	42770.95
621.34	42927.77
621.49	42663.28
621.65	42164.75
621.80	42869.25
621.95	42293.48
622.10	42705.41
622.25	42129.64
622.41	42316.89
622.56	42106.24
622.71	42462.00
622.86	42890.32
623.01	42642.22
623.16	42869.25
623.32	42169.43
623.47	42239.65
623.62	42021.98
623.77	42216.24
623.92	42724.14
624.07	42270.08
624.23	42171.77
624.38	42342.63
624.53	41785.58
624.68	42061.77
624.83	41565.57
624.98	41961.12
625.13	42010.28
625.29	42450.30
625.44	42017.30
625.59	41855.80
625.74	41668.56
625.89	41507.06
626.04	41724.73
626.19	41853.46
626.34	42026.66
626.49	42134.32
626.65	41874.52
626.80	42150.71
626.95	41668.56
627.10	41687.28
627.25	42064.11
627.40	41516.42
627.55	41230.88
627.70	41076.40
627.85	41242.58
628.00	40959.38
628.15	41605.36
628.30	41345.56
628.45	41778.56
628.60	41315.14
628.76	41214.49
628.91	41792.61
629.06	41383.01
629.21	41588.98
629.36	41027.25
629.51	41006.19
629.66	41280.03
629.81	40882.14
629.96	41092.79
630.11	41249.60
630.26	41387.69
630.41	41336.20
630.56	41722.39
630.71	41757.50
630.86	40996.82
631.01	40222.11
631.16	41106.83
631.31	41214.49
631.46	40790.86
631.61	40987.46
631.76	40734.68
631.91	41001.50
632.06	41078.74
632.21	40779.15
632.36	40999.16
632.51	40694.89
632.66	40825.96
632.81	40603.61
632.96	40842.35
633.10	40734.68
633.25	40629.36
633.40	40797.88
633.55	40594.25
633.70	40467.86
633.85	40732.34
634.00	40460.84
634.15	40685.53
634.30	40655.11
634.45	40610.64
634.60	40212.74
634.75	40151.89
634.90	40563.82
635.05	40378.92
635.19	40126.14
635.34	40137.85
635.49	40294.66
635.64	40060.61
635.79	40311.05
635.94	40432.75
636.09	39922.52
636.24	40212.74
636.39	39639.31
636.53	39789.11
636.68	39938.90
636.83	39782.09
636.98	39997.41
637.13	39896.77
637.28	40425.73
637.43	40315.73
637.57	39959.97
637.72	39936.56
637.87	39861.66
638.02	40491.27
638.17	40137.85
638.32	39704.85
638.46	39697.83
638.61	39901.45
638.76	39634.63
638.91	39269.51
639.06	39737.62
639.20	39833.58
639.35	39414.62
639.50	39861.66
639.65	39667.40
639.80	39651.02
639.94	39704.85
640.09	40076.99
640.24	39093.97
640.39	39295.25
640.54	39047.16
640.68	39281.21
640.83	39452.07
640.98	39124.40
641.13	39058.86
641.27	39510.58
641.42	39463.77
641.57	38951.20
641.72	39299.94
641.86	38866.94
642.01	38829.49
642.16	38913.75
642.31	38780.34
642.45	39431.01
642.60	38738.21
642.75	39068.22
642.90	39210.99
643.04	38983.96
643.19	38782.68
643.34	39056.52
643.48	38675.01
643.63	38511.17
643.78	38405.85
643.93	38778.00
644.07	38686.71
644.22	38689.06
644.37	38270.10
644.51	38862.26
644.66	39136.10
644.81	38845.87
644.95	38831.83
645.10	38962.90
645.25	38892.68
645.39	38660.97
645.54	38644.59
645.69	38618.84
645.83	38314.57
645.98	38312.23
646.13	38609.48
646.27	38857.57
646.42	38410.53
646.57	38513.52
646.71	38157.75
646.86	38452.66
647.00	38508.83
647.15	38742.89
647.30	38274.78
647.44	38291.16
647.59	38171.80
647.74	37951.79
647.88	38237.33
648.03	38342.66
648.17	38082.86
648.32	38045.41
648.47	38171.80
648.61	37944.76
648.76	38260.74
648.90	38202.22
649.05	38199.88
649.20	38134.35
649.34	38401.17
649.49	38302.87
649.63	37640.50
649.78	37907.32
649.92	38024.34
650.07	37827.74
650.21	37684.97
650.36	37862.85
650.51	37652.20
650.65	37998.60
650.80	37862.85
650.94	38129.67
651.09	37439.21
651.23	38089.88
651.38	37654.54
651.52	37797.31
651.67	37834.76
651.81	37488.36
651.96	37755.18
652.10	37572.62
652.25	37043.66
652.39	37069.40
652.54	37968.17
652.68	37762.20
652.83	37268.35
652.97	37673.26
653.12	37551.56
653.26	37317.50
653.41	37366.65
653.55	37076.43
653.70	37099.83
653.84	37057.70
653.99	36985.15
654.13	37193.45
654.27	37123.24
654.42	37027.28
654.56	36828.33
654.71	37127.92
654.85	36900.89
655.00	37198.13
655.14	36662.15
655.29	36837.69
655.43	36671.51
655.57	36449.16
655.72	36898.55
655.86	36154.26
656.01	36685.56
656.15	36355.54
656.30	36479.59
656.44	36559.17
656.58	36477.25
656.73	36531.08
656.87	36498.31
657.01	36491.29
657.16	36762.79
657.30	36390.65
657.45	36598.96
657.59	36376.61
657.73	36615.34
657.88	36182.34
658.02	36840.03
658.16	36692.58
658.31	36561.51
658.45	36308.73
658.60	36418.74
658.74	36467.89
658.88	36224.47
659.03	36098.08
659.17	36371.92
659.31	35894.46
659.46	35440.39
659.60	35887.43
659.74	36020.84
659.89	35328.05
660.03	35559.76
660.17	35538.69
660.32	36177.66
660.46	35971.69
660.60	35496.56
660.74	35503.59
660.89	35835.94
661.03	35704.87
661.17	35424.01
661.32	35122.08
661.46	35192.30
661.60	34972.28
661.74	35262.51
661.89	35381.88
662.03	35072.93
662.17	35040.16
662.31	35166.55
662.46	35409.96
662.60	35435.71
662.74	35147.82
662.88	35208.68
663.03	34810.79
663.17	34548.65
663.31	34721.85
663.45	34522.90
663.60	34799.08
663.74	34574.39
663.88	34899.73
664.02	34349.70
664.17	34754.61
664.31	34558.01
664.45	34567.37
664.59	34476.09
664.73	34309.91
664.88	34604.82
665.02	34225.65
665.16	34017.35
665.30	34359.06
665.44	33933.09
665.59	34148.42
665.73	33806.70
665.87	33830.10
666.01	33954.15
666.15	33881.60
666.29	33787.97
666.44	33823.08
666.58	33521.15
666.72	33743.50
666.86	34265.44
667.00	33401.79
667.14	33366.68
667.28	33556.26
667.43	33055.39
667.57	33455.62
667.71	33511.79
667.85	33020.28
667.99	33167.73
668.13	33415.83
668.27	33322.21
668.41	32919.63
668.56	32814.31
668.70	33345.61
668.84	32945.38
668.98	32432.80
669.12	32739.41
669.26	32699.62
669.40	32470.25
669.54	32163.64
669.68	32608.34
669.82	32488.98
669.96	32315.78
670.10	32353.23
670.25	32257.26
670.39	32208.11
670.53	32077.04
670.67	32081.72
670.81	32503.02
670.95	32020.87
671.09	32133.21
671.23	31952.99
671.37	32271.31
671.51	31737.66
671.65	31487.23
671.79	31789.16
671.93	31498.93
672.07	31945.97
672.21	31644.04
672.35	31859.37
672.49	31498.93
672.63	31732.98
672.77	31445.10
672.91	31353.82
673.05	31557.44
673.19	31431.05
673.33	30597.82
673.47	31068.27
673.61	31105.72
673.75	30920.82
673.89	30548.67
674.03	30473.78
674.17	30866.98
674.31	30902.09
674.45	30459.73
674.59	30836.56
674.73	30291.21
674.87	30314.62
675.01	30080.56
675.15	30092.27
675.29	30644.63
675.43	30155.46
675.56	30188.23
675.70	29731.83
675.84	29680.33
675.98	29130.31
676.12	30068.86
676.26	29521.18
676.40	29404.15
676.54	29413.51
676.68	29680.33
676.82	29057.75
676.96	29095.20
677.10	29369.04
677.23	29296.49
677.37	28877.53
677.51	28835.40
677.65	29172.44
677.79	28376.66
677.93	28470.28
678.07	28615.39
678.21	28065.36
678.34	28215.16
678.48	28217.50
678.62	27946.00
678.76	27751.73
678.90	27487.25
679.04	27625.34
679.18	27515.34
679.31	27435.76
679.45	27508.32
679.59	27103.40
679.73	27091.70
679.87	27360.86
680.00	27370.22
680.14	27063.61
680.28	27215.75
680.42	26988.72
680.56	26768.71
680.70	26909.14
680.83	27166.60
680.97	26925.52
681.11	27056.59
681.25	26305.28
681.39	26316.98
681.52	26754.66
681.66	26101.65
681.80	26103.99
681.94	26647.00
682.07	26082.93
682.21	26295.92
682.35	25898.03
682.49	26242.09
682.62	25811.43
682.76	25898.03
682.90	25582.06
683.04	25331.62
683.17	25364.39
683.31	25521.20
683.45	25539.93
683.59	24938.41
683.72	25130.33
683.86	24826.06
684.00	24753.51
684.13	25015.65
684.27	24306.46
684.41	24643.50
684.55	24620.10
684.68	24453.92
684.82	24397.74
684.96	24760.53
685.09	24299.44
685.23	24369.66
685.37	24355.61
685.50	24135.60
685.64	24332.21
685.78	24002.19
685.91	24144.97
686.05	23672.18
686.19	23374.93
686.32	23538.77
686.46	23381.95
686.60	23073.00
686.73	23094.07
686.87	23096.41
687.01	23108.11
687.14	22740.64
687.28	22429.35
687.42	22522.98
687.55	22815.54
687.69	22480.85
687.82	22689.15
687.96	22663.41
688.10	22742.99
688.23	22242.11
688.37	22071.25
688.50	22209.34
688.64	22017.42
688.78	21778.68
688.91	21881.67
689.05	22178.92
689.18	21869.97
689.32	21462.71
689.46	21542.29
689.59	21741.24
689.73	21909.75
689.86	21336.32
690.00	21387.82
690.13	21326.96
690.27	21322.28
690.41	21165.46
690.54	20765.23
690.68	20699.70
690.81	20393.09
690.95	20650.55
691.08	20563.95
691.22	20971.20
691.35	20592.03
691.49	20542.88
691.62	20786.30
691.76	20482.03
691.89	20430.54
692.03	19864.13
692.16	20042.01
692.30	19913.28
692.43	19772.85
692.57	19440.49
692.70	19740.08
692.84	19623.05
692.97	19587.94
693.11	19440.49
693.24	19419.42
693.38	19611.35
693.51	19016.85
693.65	19374.95
693.78	19342.19
693.92	19250.91
694.05	18965.36
694.19	18981.74
694.32	18946.64
694.45	19044.94
694.59	18567.47
694.72	18466.83
694.86	18579.17
694.99	18782.80
695.13	18410.65
695.26	18415.34
695.39	18200.01
695.53	18265.54
695.66	18286.61
695.80	18324.05
695.93	18520.66
696.07	17568.06
696.20	17848.93
696.33	17738.92
696.47	17532.95
696.60	18003.40
696.73	17383.16
696.87	17455.72
697.00	17502.53
697.14	17579.76
697.27	17195.92
697.40	17453.37
697.54	17202.94
697.67	17149.11
697.80	16940.80
697.94	17144.42
698.07	16643.55
698.21	16484.39
698.34	16980.59
698.47	16542.91
698.61	16444.60
698.74	16339.28
698.87	16266.72
699.01	15857.13
699.14	16233.96
699.27	16166.08
699.40	16042.03
699.54	15913.30
699.67	16063.10
699.80	15906.28
699.94	15861.81
700.07	15889.90
700.20	15660.52
700.34	15590.31
700.47	15480.30
700.60	15805.64
700.73	15822.02
700.87	15761.17
701.00	15201.78
701.13	15686.27
701.26	15260.29
701.40	15166.67
701.53	15030.92
701.66	15260.29
701.79	15007.52
701.93	14888.15
702.06	14815.59
702.19	14834.32
702.32	14839.00
702.46	14581.54
702.59	14459.83
702.72	14651.75
702.85	14696.22
702.99	14508.98
703.12	14450.47
703.25	14427.06
703.38	14003.43
703.51	13834.91
703.65	13942.57
703.78	13858.31
703.91	14015.13
704.04	14038.53
704.17	13954.27
704.31	13951.93
704.44	13701.50
704.57	13268.50
704.70	13350.42
704.83	13626.60
704.96	13462.76
705.10	13479.15
705.23	13319.99
>>>>>End Processed Spectral Data<<<<<
