SpectraSuite Data File
++++++++++++++++++++++++++++++++++++
Date: Fri Oct 25 10:44:05 EDT 2013
User: price-jones
Dark Spectrum Present: No
Reference Spectrum Present: No
Number of Sampled Component Spectra: 1
Spectrometers: USB2+H05261
Integration Time (usec): 100000 (USB2+H05261)
Spectra Averaged: 1 (USB2+H05261)
Boxcar Smoothing: 0 (USB2+H05261)
Correct for Electrical Dark: No (USB2+H05261)
Strobe/Lamp Enabled: No (USB2+H05261)
Correct for Detector Non-linearity: No (USB2+H05261)
Correct for Stray Light: No (USB2+H05261)
Number of Pixels in Processed Spectrum: 2048
>>>>>Begin Processed Spectral Data<<<<<
365.73	67.88
365.92	67.88
366.12	67.88
366.32	0.00
366.52	35.11
366.72	42.13
366.91	39.79
367.11	18.72
367.31	0.00
367.51	11.70
367.70	0.00
367.90	0.00
368.10	0.00
368.30	51.49
368.49	9.36
368.69	74.90
368.89	95.96
369.09	0.00
369.28	93.62
369.48	119.37
369.68	77.24
369.87	74.90
370.07	74.90
370.27	184.90
370.47	215.33
370.66	435.34
370.86	430.66
371.06	500.87
371.25	430.66
371.45	468.11
371.65	526.62
371.84	498.53
372.04	503.22
372.24	493.85
372.44	528.96
372.63	580.45
372.83	482.15
373.03	500.87
373.22	444.70
373.42	650.67
373.62	624.92
373.81	533.64
374.01	538.32
374.21	592.16
374.40	475.13
374.60	624.92
374.79	559.39
374.99	568.75
375.19	615.56
375.38	559.39
375.58	592.16
375.78	603.86
375.97	650.67
376.17	662.37
376.37	638.97
376.56	582.79
376.76	613.22
376.95	606.20
377.15	763.01
377.35	610.88
377.54	561.73
377.74	613.22
377.93	660.03
378.13	667.05
378.33	674.07
378.52	620.24
378.72	655.35
378.91	704.50
379.11	655.35
379.31	636.63
379.50	798.12
379.70	667.05
379.89	674.07
380.09	678.76
380.28	720.88
380.48	695.14
380.68	641.31
380.87	660.03
381.07	695.14
381.26	767.70
381.46	748.97
381.65	636.63
381.85	751.31
382.04	751.31
382.24	748.97
382.43	786.42
382.63	809.83
382.83	718.54
383.02	681.10
383.22	744.29
383.41	739.61
383.61	741.95
383.80	840.25
384.00	861.32
384.19	723.23
384.39	830.89
384.58	779.40
384.78	835.57
384.97	910.47
385.17	837.91
385.36	833.23
385.56	828.55
385.75	791.10
385.95	826.21
386.14	898.77
386.34	851.96
386.53	847.27
386.72	786.42
386.92	849.61
387.11	812.17
387.31	917.49
387.50	889.40
387.70	947.92
387.89	882.38
388.09	915.15
388.28	961.96
388.48	966.64
388.67	873.02
388.86	957.28
389.06	910.47
389.25	980.68
389.45	1039.20
389.64	940.90
389.84	1036.86
390.03	1034.52
390.22	971.32
390.42	1064.94
390.61	999.41
390.81	1060.26
391.00	1050.90
391.19	1153.88
391.39	1067.28
391.58	1151.54
391.78	1093.03
391.97	1041.54
392.16	1036.86
392.36	1048.56
392.55	1053.24
392.75	1107.07
392.94	978.34
393.13	1062.60
393.33	1018.13
393.52	983.02
393.71	1160.91
393.91	1179.63
394.10	1151.54
394.29	1228.78
394.49	1235.80
394.68	1294.32
394.88	1247.51
395.07	1296.66
395.26	1224.10
395.46	1205.38
395.65	1280.27
395.84	1294.32
396.04	1263.89
396.23	1256.87
396.42	1144.52
396.62	1219.42
396.81	1301.34
397.00	1231.12
397.19	1350.49
397.39	1320.06
397.58	1413.68
397.77	1345.81
397.97	1369.21
398.16	1369.21
398.35	1537.73
398.55	1441.77
398.74	1458.15
398.93	1600.93
399.12	1460.49
399.32	1502.62
399.51	1551.78
399.70	1575.18
399.90	1675.82
400.09	1673.48
400.28	1596.25
400.47	1605.61
400.67	1739.02
400.86	1703.91
401.05	1783.49
401.24	1776.47
401.44	1746.04
401.63	1792.85
401.82	1837.32
402.01	1795.19
402.21	1891.15
402.40	1710.93
402.59	1783.49
402.78	1867.75
402.97	1811.57
403.17	1863.07
403.36	1853.70
403.55	1863.07
403.74	1963.71
403.93	1898.17
404.13	2010.52
404.32	1998.82
404.51	1802.21
404.70	1980.09
404.89	1940.30
405.09	2010.52
405.28	2054.99
405.47	2010.52
405.66	2036.27
405.85	1959.03
406.05	2045.63
406.24	2179.04
406.43	2111.16
406.62	2160.31
406.81	2127.55
407.00	2071.37
407.20	2071.37
407.39	2139.25
407.58	2385.01
407.77	2202.44
407.96	2270.32
408.15	2298.41
408.34	2310.11
408.54	2464.58
408.73	2417.77
408.92	2321.81
409.11	2452.88
409.30	2279.68
409.49	2314.79
409.68	2373.30
409.87	2380.32
410.07	2373.30
410.26	2452.88
410.45	2427.14
410.64	2495.01
410.83	2471.61
411.02	2600.34
411.21	2670.55
411.40	2658.85
411.59	2719.70
411.78	2689.28
411.98	2834.39
412.17	2729.06
412.36	2731.41
412.55	2738.43
412.74	2733.75
412.93	2827.37
413.12	2818.00
413.31	3052.06
413.50	2986.52
413.69	2841.41
413.88	2977.16
414.07	2944.39
414.26	3049.72
414.45	3033.33
414.64	3026.31
414.83	3070.78
415.02	3145.68
415.22	3222.92
415.41	3206.53
415.60	3150.36
415.79	3246.32
415.98	3510.80
416.17	3248.66
416.36	3197.17
416.55	3389.10
416.74	3358.67
416.93	3351.65
417.12	3386.76
417.31	3419.52
417.50	3349.31
417.69	3435.91
417.88	3433.57
418.07	3410.16
418.26	3515.48
418.45	3548.25
418.64	3719.11
418.83	3672.30
419.02	3527.19
419.21	3641.87
419.39	3602.08
419.58	3583.36
419.77	3576.34
419.96	3747.20
420.15	3794.01
420.34	3705.07
420.53	3915.72
420.72	3955.51
420.91	3943.80
421.10	3911.04
421.29	4035.08
421.48	3995.29
421.67	3957.85
421.86	3934.44
422.05	3894.65
422.24	3875.93
422.43	3763.58
422.61	3950.82
422.80	4205.94
422.99	3999.98
423.18	3976.57
423.37	4170.83
423.56	3920.40
423.75	4030.40
423.94	4051.47
424.13	3777.62
424.32	3882.95
424.50	4187.22
424.69	4194.24
424.88	4264.46
425.07	3918.06
425.26	4051.47
425.45	3899.33
425.64	3955.51
425.83	4079.55
426.01	4142.75
426.20	4037.42
426.39	4044.45
426.58	4049.13
426.77	4070.19
426.96	4161.47
427.15	4187.22
427.33	4208.28
427.52	4243.39
427.71	4234.03
427.90	4081.89
428.09	4315.95
428.28	4245.73
428.46	4285.52
428.65	4341.69
428.84	4372.12
429.03	4301.90
429.22	4234.03
429.40	4224.67
429.59	4238.71
429.78	4107.64
429.97	4084.23
430.16	4217.65
430.34	4140.41
430.53	4266.80
430.72	4318.29
430.91	4315.95
431.10	4381.48
431.28	4657.67
431.47	4678.73
431.66	4798.10
431.85	4528.94
432.03	4746.61
432.22	4770.01
432.41	4695.11
432.60	4774.69
432.79	4793.42
432.97	4837.89
433.16	4975.98
433.35	4791.08
433.54	4755.97
433.72	4713.84
433.91	4737.24
434.10	4917.47
434.28	4947.89
434.47	4936.19
434.66	5004.07
434.85	5331.74
435.03	5064.92
435.22	4938.53
435.41	5322.38
435.59	5214.71
435.78	5242.80
435.97	5284.93
436.16	5151.52
436.34	5238.12
436.53	5188.97
436.72	5451.11
436.90	5158.54
437.09	5259.18
437.28	5380.89
437.46	5430.04
437.65	5369.19
437.84	5341.10
438.02	5341.10
438.21	5191.31
438.40	5261.52
438.58	5329.40
438.77	5544.73
438.96	5612.60
439.14	5612.60
439.33	5757.72
439.52	5734.31
439.70	5678.14
439.89	5802.19
440.08	5774.10
440.26	5912.19
440.45	5902.83
440.63	6033.90
440.82	6069.01
441.01	5937.94
441.19	6061.99
441.38	6303.06
441.57	6211.78
441.75	6249.23
441.94	6546.48
442.12	6597.97
442.31	6548.82
442.50	6497.33
442.68	6289.02
442.87	6459.88
443.05	6520.73
443.24	6614.35
443.43	6471.58
443.61	6817.98
443.80	6752.45
443.98	6574.56
444.17	6366.26
444.35	6665.85
444.54	6544.14
444.73	6808.62
444.91	6715.00
445.10	6677.55
445.28	6572.22
445.47	6731.38
445.65	6565.20
445.84	6717.34
446.02	6759.47
446.21	6724.36
446.39	6796.92
446.58	7070.76
446.77	6850.75
446.95	6761.81
447.14	6916.28
447.32	6970.12
447.51	6813.30
447.69	6722.02
447.88	6862.45
448.06	6843.73
448.25	6883.52
448.43	6890.54
448.62	6974.80
448.80	6862.45
448.99	7103.53
449.17	7023.95
449.36	6951.39
449.54	7283.75
449.73	7248.64
449.91	7293.11
450.10	7283.75
450.28	7609.08
450.46	7372.69
450.65	7393.75
450.83	7258.00
451.02	7330.56
451.20	7417.16
451.39	7445.24
451.57	7447.58
451.76	7194.81
451.94	7403.11
452.13	7623.12
452.31	7452.27
452.49	7208.85
452.68	7353.96
452.86	7375.03
453.05	7419.50
453.23	7716.75
453.42	7555.25
453.60	7482.69
453.78	7737.81
453.97	7576.31
454.15	7728.45
454.34	7485.03
454.52	7442.90
454.70	7850.16
454.89	7885.26
455.07	7808.03
455.26	7896.97
455.44	7995.27
455.62	7903.99
455.81	8009.31
455.99	7929.74
456.17	8056.12
456.36	8051.44
456.54	8168.47
456.73	8114.64
456.91	8465.72
457.09	8444.65
457.28	8514.87
457.46	8145.06
457.64	8411.89
457.83	8116.98
458.01	8173.15
458.19	8379.12
458.38	8318.26
458.56	8461.04
458.74	8329.97
458.93	8510.19
459.11	8395.50
459.29	8491.46
459.48	8540.61
459.66	8472.74
459.84	8479.76
460.03	8723.18
460.21	9025.11
460.39	8582.74
460.57	8833.18
460.76	8879.99
460.94	8954.89
461.12	8837.86
461.31	8833.18
461.49	8795.73
461.67	8973.61
461.85	9221.71
462.04	8858.93
462.22	9413.63
462.40	9254.48
462.59	8980.64
462.77	8917.44
462.95	9357.46
463.13	9198.31
463.32	9233.41
463.50	9046.17
463.68	9193.62
463.86	9172.56
464.05	9170.22
464.23	9064.89
464.41	9446.40
464.59	8950.21
464.78	9247.46
464.96	9357.46
465.14	9263.84
465.32	9568.11
465.50	9575.13
465.69	9418.32
465.87	9345.76
466.05	9511.94
466.23	9303.63
466.41	9460.45
466.60	9610.24
466.78	9689.82
466.96	9399.59
467.14	9415.98
467.32	9474.49
467.51	9685.14
467.69	9565.77
467.87	9483.85
468.05	9863.02
468.23	9352.78
468.41	9607.90
468.60	9652.37
468.78	9907.49
468.96	9717.90
469.14	9900.47
469.32	9926.21
469.50	9673.43
469.69	9872.38
469.87	9987.07
470.05	10071.33
470.23	9956.64
470.41	10033.88
470.59	10214.10
470.77	10099.41
470.95	10267.93
471.14	10291.34
471.32	10305.38
471.50	10459.85
471.68	10614.33
471.86	10516.03
472.04	10614.33
472.22	10820.30
472.40	10544.11
472.58	10712.63
472.77	10677.52
472.95	10513.69
473.13	11014.56
473.31	10834.34
473.49	10750.08
473.67	10876.47
473.85	10775.83
474.03	11234.57
474.21	11068.39
474.39	11363.30
474.57	11122.23
474.75	11360.96
474.93	11501.39
475.12	11269.68
475.30	11510.75
475.48	11370.32
475.66	11751.83
475.84	11414.79
476.02	11641.82
476.20	11644.17
476.38	11955.46
476.56	12138.02
476.74	12175.47
476.92	12072.48
477.10	12147.38
477.28	12561.66
477.46	12540.59
477.64	12514.84
477.82	12807.41
478.00	12992.31
478.18	12863.58
478.36	12868.27
478.54	12975.93
478.72	13118.70
478.90	13076.57
479.08	13385.52
479.26	13537.66
479.44	13352.76
479.62	13577.45
479.80	13437.02
479.98	13825.54
480.16	13923.85
480.34	13877.04
480.52	14380.25
480.70	14185.99
480.88	13837.25
481.06	14352.16
481.24	14347.48
481.41	14647.07
481.59	14548.77
481.77	14944.32
481.95	14738.35
482.13	15098.80
482.31	14647.07
482.49	15321.15
482.67	15239.23
482.85	15309.44
483.03	15459.24
483.21	15590.31
483.39	15864.15
483.57	15552.86
483.74	15599.67
483.92	15948.41
484.10	15712.02
484.28	16219.91
484.46	16542.91
484.64	16669.30
484.82	16142.67
485.00	16594.40
485.18	16816.75
485.35	16828.45
485.53	16542.91
485.71	16603.76
485.89	16917.39
486.07	16704.40
486.25	17039.10
486.43	17092.93
486.61	17366.78
486.78	17825.52
486.96	17827.86
487.14	18125.11
487.32	18073.62
487.50	18188.30
487.68	18551.09
487.85	18817.91
488.03	18958.34
488.21	19051.96
488.39	18857.70
488.57	19405.38
488.75	19166.65
488.92	19611.35
489.10	19943.70
489.28	19840.72
489.46	20304.15
489.64	20189.46
489.81	20624.80
489.99	20577.99
490.17	20648.21
490.35	20819.07
490.53	20737.15
490.70	21305.90
490.88	20926.73
491.06	20996.95
491.24	21083.55
491.41	21135.04
491.59	21329.30
491.77	21362.07
491.95	21596.12
492.13	21881.67
492.30	21958.91
492.48	22089.98
492.66	21788.05
492.84	22272.54
493.01	22480.85
493.19	22501.91
493.37	22675.11
493.54	22913.84
493.72	23063.64
493.90	23447.49
494.08	23611.32
494.25	23758.78
494.43	23646.43
494.61	23941.34
494.79	24107.52
494.96	23971.77
495.14	23946.02
495.32	24187.10
495.49	24327.53
495.67	24418.81
495.85	24381.36
496.02	24812.02
496.20	25010.96
496.38	25223.95
496.55	25397.15
496.73	25680.36
496.91	25291.83
497.09	25633.55
497.26	25336.30
497.44	25380.77
497.62	25579.71
497.79	26017.40
497.97	25811.43
498.14	25881.64
498.32	26169.53
498.50	26359.11
498.67	26595.51
498.85	26345.07
499.03	26768.71
499.20	26614.23
499.38	26941.91
499.56	27126.81
499.73	27019.14
499.91	27103.40
500.08	27159.58
500.26	26881.05
500.44	27208.73
500.61	27267.24
500.79	27164.26
500.97	27337.46
501.14	27658.11
501.32	27325.75
501.49	27686.20
501.67	27674.49
501.84	27915.57
502.02	28547.51
502.20	28278.35
502.37	28173.03
502.55	28350.91
502.72	28709.01
502.90	28659.86
503.07	28458.57
503.25	28301.76
503.43	28432.83
503.60	28811.99
503.78	28638.80
503.95	28589.64
504.13	29078.82
504.30	29488.41
504.48	29256.70
504.65	29617.14
504.83	29390.11
505.01	29661.61
505.18	29748.21
505.36	30403.56
505.53	30054.82
505.71	30225.68
505.88	30614.21
506.06	29790.34
506.23	30637.61
506.41	29738.85
506.58	30574.42
506.76	30253.76
506.93	30747.62
507.11	30450.37
507.28	30586.12
507.46	30600.16
507.63	30469.09
507.81	30904.43
507.98	31061.25
508.16	30869.33
508.33	31140.83
508.50	31269.56
508.68	31613.62
508.85	31646.38
509.03	31929.59
509.20	32245.56
509.38	31857.03
509.55	32158.96
509.73	31941.29
509.90	32226.84
510.08	32086.40
510.25	31854.69
510.42	32453.87
510.60	32865.80
510.77	32290.03
510.95	32353.23
511.12	32514.72
511.30	32776.86
511.47	33104.54
511.64	32645.79
511.82	32723.03
511.99	32690.26
512.17	32713.67
512.34	32851.76
512.51	33472.00
512.69	33333.91
512.86	33153.69
513.04	33567.96
513.21	33579.67
513.38	33542.22
513.56	33340.93
513.73	33376.04
513.90	34239.70
514.08	33862.87
514.25	33816.06
514.43	33855.85
514.60	33619.46
514.77	34614.18
514.95	34239.70
515.12	34043.09
515.29	34132.03
515.47	34618.86
515.64	34635.25
515.81	34230.33
515.99	34235.02
516.16	34562.69
516.33	34059.48
516.51	34309.91
516.68	34106.29
516.85	33603.07
517.03	33951.81
517.20	34417.58
517.37	34946.54
517.54	34866.96
517.72	35138.46
517.89	34253.74
518.06	34405.88
518.24	34747.59
518.41	35351.45
518.58	35260.17
518.75	35358.47
518.93	35393.58
519.10	35321.02
519.27	35517.63
519.45	35709.55
519.62	35992.76
519.79	36121.49
519.96	36201.07
520.14	36254.90
520.31	35370.18
520.48	36011.48
520.65	36582.57
520.83	36573.21
521.00	36774.50
521.17	36645.77
521.34	37111.53
521.52	36928.97
521.69	37024.93
521.86	36992.17
522.03	36952.38
522.20	36924.29
522.38	37116.22
522.55	36959.40
522.72	36889.18
522.89	37043.66
523.07	37624.11
523.24	37141.96
523.41	37703.69
523.58	37237.92
523.75	38108.60
523.92	37827.74
524.10	37991.58
524.27	38134.35
524.44	37991.58
524.61	38195.20
524.78	38354.36
524.96	38242.01
525.13	38134.35
525.30	38574.37
525.47	39009.71
525.64	38548.62
525.81	38389.47
525.98	38422.23
526.16	38099.24
526.33	37839.44
526.50	38106.26
526.67	37689.65
526.84	37780.93
527.01	38012.64
527.18	38630.54
527.36	38995.67
527.53	38986.30
527.70	39047.16
527.87	38969.92
528.04	38602.46
528.21	39440.37
528.38	39236.74
528.55	39585.48
528.72	39358.45
528.89	39456.75
529.07	39618.25
529.24	38850.55
529.41	39693.15
529.58	39440.37
529.75	39477.82
529.92	39498.88
530.09	39651.02
530.26	39695.49
530.43	40233.81
530.60	39864.00
530.77	39742.30
530.94	40278.28
531.11	40343.81
531.28	40519.35
531.46	40381.26
531.63	40114.44
531.80	40498.29
531.97	40030.18
532.14	40182.32
532.31	39676.76
532.48	40198.70
532.65	40261.90
532.82	40137.85
532.99	40479.57
533.16	40289.98
533.33	40502.97
533.50	40519.35
533.67	40858.73
533.84	40725.32
534.01	40872.78
534.18	40919.59
534.35	41167.68
534.52	40933.63
534.69	41069.38
534.86	41350.24
535.03	41069.38
535.20	41383.01
535.37	41490.68
535.54	41839.42
535.71	41167.68
535.88	42036.02
536.05	41471.95
536.22	41530.47
536.38	41214.49
536.55	41649.83
536.72	41481.31
536.89	41083.42
537.06	41394.71
537.23	41607.70
537.40	41844.10
537.57	41642.81
537.74	41787.92
537.91	42330.93
538.08	41935.38
538.25	41633.45
538.42	42141.35
538.59	42326.25
538.75	41874.52
538.92	41832.39
539.09	42026.66
539.26	42410.51
539.43	42033.68
539.60	41883.89
539.77	41565.57
539.94	42134.32
540.11	41996.23
540.28	42717.12
540.44	42351.99
540.61	41991.55
540.78	41956.44
540.95	42279.44
541.12	42499.45
541.29	42300.50
541.46	42564.98
541.62	42721.80
541.79	43267.14
541.96	42511.15
542.13	42738.18
542.30	42256.03
542.47	42960.53
542.63	42794.36
542.80	42759.25
542.97	43433.32
543.14	42895.00
543.31	43150.12
543.48	43110.33
543.64	43487.15
543.81	43648.65
543.98	43753.97
544.15	43456.73
544.32	43826.53
544.48	44027.82
544.65	43683.76
544.82	44058.24
544.99	43285.87
545.16	43489.49
545.32	43494.18
545.49	44128.46
545.66	43878.02
545.83	44086.33
546.00	44123.78
546.16	44030.16
546.33	43732.91
546.50	43365.45
546.67	44121.44
546.83	43435.66
547.00	44463.16
547.17	43976.33
547.34	44126.12
547.50	44423.37
547.67	44224.42
547.84	44451.45
548.00	44608.27
548.17	44657.42
548.34	44278.25
548.51	44662.10
548.67	44612.95
548.84	44273.57
549.01	44552.10
549.18	44629.34
549.34	44493.58
549.51	44680.83
549.68	45254.26
549.84	44875.09
550.01	44842.32
550.18	44467.84
550.34	44184.63
550.51	44346.13
550.68	44732.32
550.84	44353.15
551.01	44788.49
551.18	44961.69
551.34	44786.15
551.51	45120.85
551.68	45038.93
551.84	44964.03
552.01	44650.40
552.18	44910.20
552.34	44767.43
552.51	44776.79
552.68	45188.72
552.84	45560.87
553.01	45588.95
553.18	45214.47
553.34	45153.62
553.51	44818.92
553.67	45270.64
553.84	45806.62
554.01	45263.62
554.17	45766.84
554.34	45677.90
554.51	45911.95
554.67	45642.79
554.84	45528.10
555.00	45282.34
555.17	45055.31
555.33	45617.04
555.50	45373.63
555.67	45626.40
555.83	45862.80
556.00	45773.86
556.16	45991.53
556.33	45675.55
556.50	45298.73
556.66	45574.91
556.83	45303.41
556.99	46108.55
557.16	46096.85
557.32	45970.46
557.49	45979.82
557.65	45425.12
557.82	45710.66
557.98	45808.96
558.15	45633.42
558.32	45996.21
558.48	45504.70
558.65	45504.70
558.81	45544.48
558.98	45705.98
559.14	45734.07
559.31	45846.41
559.47	46122.60
559.64	46171.75
559.80	46082.81
559.97	46085.15
560.13	45741.09
560.30	45928.33
560.46	46106.21
560.63	46220.90
560.79	46223.24
560.96	46302.82
561.12	46136.64
561.29	45773.86
561.45	45869.82
561.61	46319.20
561.78	46087.49
561.94	45258.94
562.11	45832.37
562.27	46246.65
562.44	46396.44
562.60	46581.34
562.77	46253.67
562.93	45937.69
563.10	46543.89
563.26	45708.32
563.42	46211.54
563.59	46143.66
563.75	46260.69
563.92	46358.99
564.08	46543.89
564.24	46553.26
564.41	46555.60
564.57	46211.54
564.74	46316.86
564.90	46344.95
565.07	46270.05
565.23	46270.05
565.39	45949.40
565.56	46396.44
565.72	45970.46
565.88	46508.79
566.05	46286.43
566.21	46363.67
566.38	46195.15
566.54	46162.39
566.70	46436.23
566.87	46789.65
567.03	46485.38
567.19	46796.67
567.36	46609.43
567.52	46611.77
567.68	46693.69
567.85	46375.37
568.01	46679.64
568.17	46064.08
568.34	46562.62
568.50	46330.90
568.66	46302.82
568.83	46476.02
568.99	46258.35
569.15	46082.81
569.32	46471.34
569.48	46536.87
569.64	46515.81
569.81	46454.95
569.97	46457.29
570.13	46712.41
570.30	46501.76
570.46	46239.62
570.62	46028.98
570.78	46590.70
570.95	46438.57
571.11	46529.85
571.27	46604.75
571.43	46438.57
571.60	46733.48
571.76	46258.35
571.92	46894.97
572.09	46820.08
572.25	46487.72
572.41	46880.93
572.57	46824.76
572.74	47082.22
572.90	46539.21
573.06	46314.52
573.22	46677.30
573.38	46555.60
573.55	46384.74
573.71	46749.86
573.87	46667.94
574.03	46550.91
574.20	46958.17
574.36	46665.60
574.52	46564.96
574.68	46248.99
574.84	46295.80
575.01	46265.37
575.17	46417.50
575.33	46550.91
575.49	46321.54
575.65	46894.97
575.82	46700.71
575.98	46822.42
576.14	46990.94
576.30	46766.24
576.46	46574.32
576.62	46457.29
576.79	46593.04
576.95	46312.18
577.11	46646.88
577.27	46396.44
577.43	46656.24
577.59	46438.57
577.75	46623.47
577.92	46150.68
578.08	46225.58
578.24	46286.43
578.40	46403.46
578.56	46829.44
578.72	46543.89
578.88	46543.89
579.04	46791.99
579.21	46567.30
579.37	46745.18
579.53	46899.65
579.69	46611.77
579.85	46951.15
580.01	46791.99
580.17	46562.62
580.33	46717.09
580.49	46876.25
580.65	46766.24
580.82	46988.60
580.98	46801.35
581.14	46763.90
581.30	47002.64
581.46	46899.65
581.62	46873.91
581.78	46880.93
581.94	46890.29
582.10	46614.11
582.26	46878.59
582.42	46710.07
582.58	46696.03
582.74	46700.71
582.90	47065.83
583.06	47105.62
583.22	47232.01
583.38	46923.06
583.54	46958.17
583.70	46990.94
583.86	46845.82
584.02	46843.48
584.18	46862.21
584.34	46892.63
584.50	46817.74
584.66	46894.97
584.82	46464.32
584.98	47004.98
585.14	47122.01
585.30	46918.38
585.46	46576.66
585.62	46689.01
585.78	46557.94
585.94	46490.06
586.10	46934.76
586.26	46342.61
586.42	46824.76
586.58	47129.03
586.74	46763.90
586.90	46543.89
587.06	46461.97
587.22	46742.84
587.38	46384.74
587.54	46990.94
587.70	46770.93
587.86	46862.21
588.02	46768.58
588.18	46660.92
588.34	46391.76
588.49	46492.40
588.65	46120.26
588.81	46146.00
588.97	46256.01
589.13	46471.34
589.29	46644.54
589.45	46728.80
589.61	46766.24
589.77	46866.89
589.93	46803.69
590.08	46939.44
590.24	47096.26
590.40	46906.68
590.56	47393.51
590.72	47232.01
590.88	46948.81
591.04	46958.17
591.20	47550.32
591.35	47501.17
591.51	47311.59
591.67	46824.76
591.83	46981.57
591.99	46789.65
592.15	46993.28
592.31	47026.04
592.46	47356.06
592.62	47131.37
592.78	47203.92
592.94	47372.44
593.10	46986.25
593.26	47129.03
593.41	47224.99
593.57	46871.57
593.73	47239.03
593.89	46993.28
594.05	46703.05
594.20	47096.26
594.36	46660.92
594.52	46824.76
594.68	46375.37
594.84	46885.61
594.99	47323.29
595.15	46965.19
595.31	46876.25
595.47	46941.78
595.62	46878.59
595.78	47047.11
595.94	47077.54
596.10	47278.82
596.25	47435.64
596.41	47154.77
596.57	47131.37
596.73	46878.59
596.88	47012.00
597.04	46869.23
597.20	47386.49
597.36	47327.97
597.51	47037.75
597.67	47412.23
597.83	47325.63
597.99	47318.61
598.14	46642.20
598.30	47112.64
598.46	46981.57
598.61	46916.04
598.77	46913.70
598.93	46934.76
599.09	47105.62
599.24	47398.19
599.40	47091.58
599.56	47138.39
599.71	46913.70
599.87	46878.59
600.03	47213.29
600.18	46883.27
600.34	46946.47
600.50	47253.08
600.65	46948.81
600.81	47112.64
600.97	46845.82
601.12	47381.80
601.28	46848.16
601.44	47246.05
601.59	46728.80
601.75	46370.69
601.91	46618.79
602.06	46239.62
602.22	46586.02
602.37	46742.84
602.53	46953.49
602.69	47213.29
602.84	46642.20
603.00	46997.96
603.16	46918.38
603.31	47154.77
603.47	47185.20
603.62	47084.56
603.78	47419.25
603.94	47072.85
604.09	47250.74
604.25	47136.05
604.40	46909.02
604.56	46876.25
604.71	46827.10
604.87	46429.21
605.03	46284.09
605.18	46707.73
605.34	46644.54
605.49	46621.13
605.65	47140.73
605.80	46916.04
605.96	47342.02
606.12	46752.20
606.27	47049.45
606.43	46265.37
606.58	46880.93
606.74	46789.65
606.89	46890.29
607.05	46862.21
607.20	46581.34
607.36	46628.15
607.51	46909.02
607.67	46579.00
607.82	47428.62
607.98	46600.07
608.13	46295.80
608.29	46485.38
608.44	46241.96
608.60	45890.88
608.75	46384.74
608.91	46590.70
609.06	46724.11
609.22	46452.61
609.37	46106.21
609.53	46443.25
609.68	46419.84
609.84	46845.82
609.99	46265.37
610.15	45937.69
610.30	46431.55
610.46	46033.66
610.61	46080.47
610.76	46541.55
610.92	46181.11
611.07	46672.62
611.23	46059.40
611.38	46284.09
611.54	46323.88
611.69	45841.73
611.84	45902.59
612.00	45982.16
612.15	45818.33
612.31	46047.70
612.46	46143.66
612.62	46504.10
612.77	45935.35
612.92	46288.77
613.08	45764.49
613.23	45841.73
613.39	45792.58
613.54	45581.93
613.69	45940.04
613.85	45659.17
614.00	46045.36
614.15	46337.93
614.31	45900.25
614.46	45965.78
614.62	46043.02
614.77	45865.14
614.92	45694.28
615.08	45722.37
615.23	45610.02
615.38	45659.17
615.54	45404.05
615.69	45656.83
615.84	45413.41
616.00	45879.18
616.15	45258.94
616.30	45771.52
616.46	45345.54
616.61	44830.62
616.76	45144.25
616.92	45031.91
617.07	44945.31
617.22	45076.38
617.37	45043.61
617.53	45207.45
617.68	45404.05
617.83	45366.60
617.99	45837.05
618.14	44638.70
618.29	45181.70
618.45	44598.91
618.60	45015.52
618.75	44605.93
618.90	45174.68
619.06	45141.91
619.21	45102.12
619.36	45340.86
619.51	45216.81
619.67	45305.75
619.82	44954.67
619.97	45083.40
620.12	44893.82
620.28	44645.72
620.43	44645.72
620.58	44898.50
620.73	44786.15
620.89	45020.20
621.04	45230.85
621.19	44671.46
621.34	45193.40
621.49	44481.88
621.65	44460.82
621.80	44437.41
621.95	44453.79
622.10	44191.65
622.25	44587.21
622.41	44076.97
622.56	44402.30
622.71	44299.32
622.86	44486.56
623.01	44566.14
623.16	44336.77
623.32	44362.51
623.47	44481.88
623.62	44634.02
623.77	44161.23
623.92	44116.76
624.07	44699.55
624.23	44142.50
624.38	44154.21
624.53	44390.60
624.68	43948.24
624.83	43899.09
624.98	44158.89
625.13	43592.48
625.29	43775.04
625.44	43585.46
625.59	43597.16
625.74	43854.62
625.89	43569.07
626.04	43342.04
626.19	44041.86
626.34	43761.00
626.49	43742.27
626.65	43765.68
626.80	43564.39
626.95	43470.77
627.10	43700.14
627.25	43702.48
627.40	43386.51
627.55	42965.21
627.70	42679.67
627.85	43220.33
628.00	43320.98
628.15	43452.05
628.30	43508.22
628.45	43482.47
628.60	43236.72
628.76	43414.60
628.91	43257.78
629.06	43344.38
629.21	42656.26
629.36	43002.66
629.51	43253.10
629.66	42983.94
629.81	42672.65
629.96	42679.67
630.11	43021.39
630.26	43241.40
630.41	43360.76
630.56	42958.19
630.71	42658.60
630.86	42672.65
631.01	42351.99
631.16	42944.15
631.31	42501.79
631.46	42291.14
631.61	42794.36
631.76	42817.76
631.91	42885.64
632.06	42841.17
632.21	43189.91
632.36	42890.32
632.51	42471.36
632.66	42270.08
632.81	41862.82
632.96	42728.82
633.10	42344.97
633.25	42373.06
633.40	42820.10
633.55	42600.09
633.70	42127.30
633.85	42153.05
634.00	42258.37
634.15	42492.43
634.30	41965.81
634.45	42010.28
634.60	42452.64
634.75	42653.92
634.90	41977.51
635.05	42071.13
635.19	41790.27
635.34	42239.65
635.49	41904.95
635.64	42136.66
635.79	41904.95
635.94	42124.96
636.09	41717.71
636.24	41626.43
636.39	41191.09
636.53	41794.95
636.68	41516.42
636.83	41860.48
636.98	42092.19
637.13	41207.47
637.28	41603.02
637.43	41588.98
637.57	42073.47
637.72	41544.51
637.87	41331.52
638.02	41312.80
638.17	41825.37
638.32	41631.11
638.46	41507.06
638.61	41724.73
638.76	41273.01
638.91	41881.55
639.06	41308.11
639.20	41439.18
639.35	41588.98
639.50	41315.14
639.65	41518.76
639.80	41427.48
639.94	41542.17
640.09	41357.27
640.24	41057.68
640.39	40814.26
640.54	40907.88
640.68	41343.22
640.83	40788.52
640.98	40521.69
641.13	40587.23
641.27	40910.22
641.42	40959.38
641.57	40652.76
641.72	40821.28
641.86	40837.67
642.01	40601.27
642.16	40641.06
642.31	40299.34
642.45	40999.16
642.60	40217.43
642.75	40882.14
642.90	40863.41
643.04	40816.60
643.19	40390.62
643.34	40495.95
643.48	40311.05
643.63	40339.13
643.78	40210.40
643.93	40100.40
644.07	40088.70
644.22	40175.30
644.37	40364.88
644.51	40423.39
644.66	40704.26
644.81	40271.26
644.95	40364.88
645.10	40697.24
645.25	40179.98
645.39	40453.82
645.54	40182.32
645.69	40079.33
645.83	40575.53
645.98	39924.86
646.13	40076.99
646.27	40371.90
646.42	40240.83
646.57	39992.73
646.71	39786.77
646.86	39887.41
647.00	40128.48
647.15	40320.41
647.30	40053.59
647.44	40149.55
647.59	39531.65
647.74	39831.24
647.88	39938.90
648.03	39732.93
648.17	40088.70
648.32	39576.12
648.47	39585.48
648.61	39590.16
648.76	40105.08
648.90	39711.87
649.05	39267.17
649.20	39606.55
649.34	39636.97
649.49	39718.89
649.63	39550.37
649.78	39042.48
649.92	39533.99
650.07	39377.17
650.21	39412.28
650.36	39559.73
650.51	39463.77
650.65	39852.30
650.80	39856.98
650.94	39461.43
651.09	39423.98
651.23	39323.34
651.38	39042.48
651.52	39089.29
651.67	39313.98
651.81	39536.33
651.96	38888.00
652.10	38944.17
652.25	38543.94
652.39	38836.51
652.54	38878.64
652.68	39328.02
652.83	38815.44
652.97	38965.24
653.12	38536.92
653.26	38373.08
653.41	38799.06
653.55	38396.49
653.70	38815.44
653.84	39089.29
653.99	38342.66
654.13	38672.67
654.27	37947.11
654.42	38052.43
654.56	38113.28
654.71	38424.57
654.85	38567.35
655.00	38586.07
655.14	38115.62
655.29	38003.28
655.43	38115.62
655.57	37951.79
655.72	37909.66
655.86	37713.05
656.01	37806.67
656.15	37500.06
656.30	37603.05
656.44	37867.53
656.58	37862.85
656.73	37865.19
656.87	38185.84
657.01	37916.68
657.16	37645.18
657.30	37366.65
657.45	37916.68
657.59	37631.13
657.73	37546.87
657.88	38064.13
658.02	38373.08
658.16	38199.88
658.31	37855.82
658.45	37708.37
658.60	37514.11
658.74	37542.19
658.88	37127.92
659.03	37593.68
659.17	37390.06
659.31	37422.83
659.46	37034.30
659.60	37778.59
659.74	37542.19
659.89	37237.92
660.03	37053.02
660.17	37670.92
660.32	37280.05
660.46	36847.05
660.60	37479.00
660.74	37046.00
660.89	36994.51
661.03	36706.62
661.17	36833.01
661.32	36840.03
661.46	36713.64
661.60	36891.52
661.74	36538.10
661.89	36662.15
662.03	36589.59
662.17	36629.38
662.31	36360.22
662.46	37006.21
662.60	36940.68
662.74	36311.07
662.88	36587.25
663.03	36449.16
663.17	35915.52
663.31	35695.51
663.45	36198.73
663.60	36086.38
663.74	36006.80
663.88	35894.46
664.02	35683.81
664.17	36023.19
664.31	35995.10
664.45	36037.23
664.59	35777.43
664.73	35974.03
664.88	35749.34
665.02	35257.83
665.16	35482.52
665.30	35367.84
665.44	35477.84
665.59	35243.79
665.73	35206.34
665.87	35426.35
666.01	34892.71
666.15	35257.83
666.29	35372.52
666.44	35442.73
666.58	34934.84
666.72	34712.49
666.86	35316.34
667.00	35236.77
667.14	34520.56
667.28	34822.49
667.43	34637.59
667.57	34831.85
667.71	34651.63
667.85	34815.47
667.99	34602.48
668.13	34684.40
668.27	34869.30
668.41	34906.75
668.56	34263.10
668.70	34361.40
668.84	34003.30
668.98	33670.95
669.12	34185.86
669.26	34164.80
669.40	33919.04
669.54	33731.80
669.68	33448.60
669.82	33834.78
669.96	33596.05
670.10	33612.43
670.25	33750.52
670.39	33254.33
670.53	33270.72
670.67	33244.97
670.81	33663.93
670.95	33401.79
671.09	33221.56
671.23	33116.24
671.37	32996.87
671.51	33048.36
671.65	32912.61
671.79	32498.34
671.93	32926.66
672.07	32964.10
672.21	32409.40
672.35	33057.73
672.49	32720.69
672.63	32802.61
672.77	32697.28
672.91	32945.38
673.05	32442.17
673.19	32254.92
673.33	32229.18
673.47	32439.82
673.61	32156.62
673.75	31800.86
673.89	31672.13
674.03	31646.38
674.17	31751.71
674.31	31342.11
674.45	31744.69
674.59	32109.81
674.73	31704.90
674.87	32098.11
675.01	31229.77
675.15	31035.50
675.29	31260.20
675.43	31325.73
675.56	30890.39
675.70	31227.43
675.84	31124.44
675.98	29956.52
676.12	30979.33
676.26	30703.15
676.40	30775.70
676.54	31351.48
676.68	30801.45
676.82	30176.53
676.96	30284.19
677.10	30108.65
677.23	30735.92
677.37	29743.53
677.51	29935.45
677.65	29860.55
677.79	29497.77
677.93	29598.41
678.07	29268.40
678.21	29029.66
678.34	29160.73
678.48	28739.44
678.62	29097.54
678.76	28982.85
678.90	28676.24
679.04	28650.50
679.18	28781.57
679.31	28123.88
679.45	28477.30
679.59	28339.21
679.73	28224.52
679.87	28142.60
680.00	28421.13
680.14	28222.18
680.28	28166.01
680.42	28222.18
680.56	28063.02
680.70	27889.82
680.83	28231.54
680.97	27990.47
681.11	27711.94
681.25	27597.26
681.39	27161.92
681.52	27988.13
681.66	27246.18
681.80	27377.25
681.94	27080.00
682.07	27314.05
682.21	27234.47
682.35	26937.23
682.49	27033.19
682.62	26731.26
682.76	26637.64
682.90	26658.70
683.04	26321.66
683.17	26199.96
683.31	26192.94
683.45	26045.48
683.59	26029.10
683.72	26099.31
683.86	25947.18
684.00	26111.02
684.13	25568.01
684.27	25766.96
684.41	25345.66
684.55	25193.53
684.68	25539.93
684.82	25766.96
684.96	25411.20
685.09	25364.39
685.23	24964.15
685.37	25050.75
685.50	25053.09
685.64	25223.95
685.78	24437.53
685.91	24552.22
686.05	24435.19
686.19	24355.61
686.32	23992.83
686.46	23948.36
686.60	23892.19
686.73	23791.55
686.87	23342.16
687.01	23328.12
687.14	23105.77
687.28	23262.58
687.42	23304.71
687.55	23449.83
687.69	23206.41
687.82	23353.87
687.96	23358.55
688.10	22930.23
688.23	23037.89
688.37	22899.80
688.50	23255.56
688.64	23138.54
688.78	23033.21
688.91	22888.10
689.05	22324.03
689.18	22373.18
689.32	21956.57
689.46	22125.08
689.59	22427.01
689.73	22471.48
689.86	21961.25
690.00	21872.31
690.13	22059.55
690.27	21926.14
690.41	21678.04
690.54	21504.84
690.68	21682.72
690.81	21394.84
690.95	21523.57
691.08	21233.34
691.22	21326.96
691.35	21116.31
691.49	21504.84
691.62	21242.70
691.76	21319.94
691.89	20910.35
692.03	21088.23
692.16	20671.61
692.30	20573.31
692.43	20465.64
692.57	20198.82
692.70	20297.13
692.84	20409.47
692.97	20376.70
693.11	20065.41
693.24	20077.12
693.38	20191.80
693.51	19990.52
693.65	20212.87
693.78	20037.33
693.92	19555.18
694.05	19941.36
694.19	19618.37
694.32	19459.21
694.45	19344.53
694.59	19370.27
694.72	19288.35
694.86	19164.31
694.99	19208.78
695.13	19108.13
695.26	19112.81
695.39	18705.56
695.53	18913.87
695.66	18923.23
695.80	18668.11
695.93	18691.52
696.07	18513.64
696.20	18396.61
696.33	18380.23
696.47	18251.50
696.60	18040.85
696.73	18127.45
696.87	17881.69
697.00	18551.09
697.14	18012.76
697.27	17767.01
697.40	17717.86
697.54	17472.10
697.67	17511.89
697.80	17378.48
697.94	17268.47
698.07	17092.93
698.21	17121.02
698.34	17378.48
698.47	17095.27
698.61	16783.98
698.74	16666.95
698.87	16933.78
699.01	16798.02
699.14	16379.07
699.27	16505.46
699.40	16893.99
699.54	16304.17
699.67	16252.68
699.80	16313.53
699.94	16142.67
700.07	16383.75
700.20	16255.02
700.34	15925.00
700.47	16287.79
700.60	16074.80
700.73	16070.12
700.87	16163.74
701.00	15838.41
701.13	15859.47
701.26	15630.10
701.40	15599.67
701.53	15770.53
701.66	15651.16
701.79	15325.83
701.93	15281.36
702.06	15360.94
702.19	15040.28
702.32	14904.53
702.46	14689.20
702.59	14909.21
702.72	15157.31
702.85	14829.63
702.99	15044.96
703.12	14628.35
703.25	14764.10
703.38	14420.04
703.51	14476.21
703.65	14541.75
703.78	14633.03
703.91	14274.93
704.04	14066.62
704.17	14455.15
704.31	14265.57
704.44	14195.35
704.57	14029.17
704.70	13975.34
704.83	13701.50
704.96	14132.15
705.10	13806.82
705.23	13865.33
>>>>>End Processed Spectral Data<<<<<
