SpectraSuite Data File
++++++++++++++++++++++++++++++++++++
Date: Fri Oct 25 11:34:31 EDT 2013
User: price-jones
Dark Spectrum Present: No
Reference Spectrum Present: No
Number of Sampled Component Spectra: 1
Spectrometers: USB2+H05261
Integration Time (usec): 100000 (USB2+H05261)
Spectra Averaged: 1 (USB2+H05261)
Boxcar Smoothing: 0 (USB2+H05261)
Correct for Electrical Dark: No (USB2+H05261)
Strobe/Lamp Enabled: No (USB2+H05261)
Correct for Detector Non-linearity: No (USB2+H05261)
Correct for Stray Light: No (USB2+H05261)
Number of Pixels in Processed Spectrum: 2048
>>>>>Begin Processed Spectral Data<<<<<
365.73	222.35
365.92	222.35
366.12	222.35
366.32	264.48
366.52	135.75
366.72	243.42
366.91	180.22
367.11	212.99
367.31	222.35
367.51	177.88
367.70	180.22
367.90	166.18
368.10	231.71
368.30	196.60
368.49	210.65
368.69	194.26
368.89	161.50
369.09	203.63
369.28	248.10
369.48	231.71
369.68	189.58
369.87	212.99
370.07	203.63
370.27	287.89
370.47	278.52
370.66	433.00
370.86	543.00
371.06	477.47
371.25	606.20
371.45	461.09
371.65	535.98
371.84	461.09
372.04	573.43
372.24	580.45
372.44	557.05
372.63	594.50
372.83	521.94
373.03	531.30
373.22	603.86
373.42	650.67
373.62	601.52
373.81	580.45
374.01	575.77
374.21	676.41
374.40	594.50
374.60	660.03
374.79	678.76
374.99	727.91
375.19	664.71
375.38	667.05
375.58	578.11
375.78	711.52
375.97	594.50
376.17	720.88
376.37	671.73
376.56	610.88
376.76	571.09
376.95	603.86
377.15	545.34
377.35	608.54
377.54	636.63
377.74	732.59
377.93	702.16
378.13	709.18
378.33	798.12
378.52	645.99
378.72	690.46
378.91	706.84
379.11	641.31
379.31	725.57
379.50	655.35
379.70	660.03
379.89	758.33
380.09	723.23
380.28	704.50
380.48	704.50
380.68	709.18
380.87	716.20
381.07	716.20
381.26	688.12
381.46	795.78
381.65	685.78
381.85	662.37
382.04	702.16
382.24	755.99
382.43	798.12
382.63	765.36
382.83	748.97
383.02	772.38
383.22	837.91
383.41	819.19
383.61	767.70
383.80	760.67
384.00	812.17
384.19	781.74
384.39	800.46
384.58	765.36
384.78	856.64
384.97	755.99
385.17	814.51
385.36	760.67
385.56	802.80
385.75	809.83
385.95	812.17
386.14	1001.75
386.34	835.57
386.53	788.76
386.72	816.85
386.92	896.43
387.11	887.06
387.31	863.66
387.50	870.68
387.70	919.83
387.89	964.30
388.09	791.10
388.28	875.36
388.48	889.40
388.67	929.19
388.86	901.11
389.06	861.32
389.25	968.98
389.45	840.25
389.64	875.36
389.84	880.04
390.03	999.41
390.22	945.58
390.42	908.13
390.61	992.39
390.81	905.79
391.00	898.77
391.19	994.73
391.39	992.39
391.58	990.05
391.78	924.51
391.97	1069.62
392.16	997.07
392.36	1022.81
392.55	1027.50
392.75	926.85
392.94	945.58
393.13	997.07
393.33	1027.50
393.52	1022.81
393.71	1074.31
393.91	1032.18
394.10	1132.82
394.29	1034.52
394.49	1006.43
394.68	1088.35
394.88	1027.50
395.07	1135.16
395.26	1123.46
395.46	1128.14
395.65	1158.57
395.84	1053.24
396.04	1125.80
396.23	1097.71
396.42	1128.14
396.62	1135.16
396.81	1207.72
397.00	1231.12
397.19	1149.20
397.39	1128.14
397.58	1177.29
397.77	1151.54
397.97	1181.97
398.16	1256.87
398.35	1287.29
398.55	1228.78
398.74	1233.46
398.93	1224.10
399.12	1247.51
399.32	1249.85
399.51	1219.42
399.70	1299.00
399.90	1345.81
400.09	1289.64
400.28	1352.83
400.47	1287.29
400.67	1385.60
400.86	1355.17
401.05	1313.04
401.24	1350.49
401.44	1411.34
401.63	1306.02
401.82	1432.41
402.01	1369.21
402.21	1434.75
402.40	1472.20
402.59	1394.96
402.78	1430.07
402.97	1420.71
403.17	1399.64
403.36	1458.15
403.55	1432.41
403.74	1418.36
403.93	1507.30
404.13	1465.18
404.32	1561.14
404.51	1467.52
404.70	1659.44
404.89	1575.18
405.09	1572.84
405.28	1617.31
405.47	1687.53
405.66	1586.88
405.85	1605.61
406.05	1589.22
406.24	1579.86
406.43	1708.59
406.62	1650.08
406.81	1680.50
407.00	1734.34
407.20	1664.12
407.39	1767.10
407.58	1706.25
407.77	1774.13
407.96	1769.44
408.15	1893.49
408.34	1802.21
408.54	1842.00
408.73	1802.21
408.92	1825.62
409.11	1891.15
409.30	1949.67
409.49	1860.73
409.68	1935.62
409.87	1933.28
410.07	1937.96
410.26	1963.71
410.45	1987.11
410.64	1914.56
410.83	2106.48
411.02	1949.67
411.21	2015.20
411.40	2071.37
411.59	2179.04
411.78	2167.34
411.98	2122.87
412.17	2125.21
412.36	2017.54
412.55	2242.23
412.74	2258.62
412.93	2256.28
413.12	2319.47
413.31	2431.82
413.50	2258.62
413.69	2237.55
413.88	2366.28
414.07	2354.58
414.26	2356.92
414.45	2314.79
414.64	2417.77
414.83	2406.07
415.02	2520.76
415.22	2553.52
415.41	2445.86
415.60	2495.01
415.79	2607.36
415.98	2609.70
416.17	2572.25
416.36	2626.08
416.55	2747.79
416.74	2609.70
416.93	2722.04
417.12	2759.49
417.31	2663.53
417.50	2696.30
417.69	2876.52
417.88	2813.32
418.07	2752.47
418.26	2729.06
418.45	2836.73
418.64	3000.57
418.83	2932.69
419.02	3023.97
419.21	2953.76
419.39	2956.10
419.58	2885.88
419.77	3019.29
419.96	2942.05
420.15	2993.55
420.34	3098.87
420.53	2909.29
420.72	3073.12
420.91	2991.20
421.10	3119.93
421.29	3082.49
421.48	2972.48
421.67	3197.17
421.86	3091.85
422.05	3297.81
422.24	3218.24
422.43	3267.39
422.61	3286.11
422.80	3279.09
422.99	3246.32
423.18	3295.47
423.37	3297.81
423.56	3283.77
423.75	3232.28
423.94	3180.79
424.13	3119.93
424.32	3063.76
424.50	3213.56
424.69	3304.84
424.88	3407.82
425.07	3307.18
425.26	3199.51
425.45	3225.26
425.64	3314.20
425.83	3325.90
426.01	3346.97
426.20	3339.94
426.39	3281.43
426.58	3314.20
426.77	3389.10
426.96	3316.54
427.15	3372.71
427.33	3417.18
427.52	3501.44
427.71	3494.42
427.90	3346.97
428.09	3440.59
428.28	3543.57
428.46	3611.45
428.65	3536.55
428.84	3534.21
429.03	3653.58
429.22	3583.36
429.40	3548.25
429.59	3679.32
429.78	3463.99
429.97	3459.31
430.16	3646.55
430.34	3665.28
430.53	3669.96
430.72	3665.28
430.91	3761.24
431.10	3618.47
431.28	3735.50
431.47	3873.59
431.66	3833.80
431.85	3840.82
432.03	3817.41
432.22	3859.54
432.41	3751.88
432.60	3908.69
432.79	3946.14
432.97	3906.35
433.16	3964.87
433.35	3918.06
433.54	3894.65
433.72	3957.85
433.91	4058.49
434.10	3955.51
434.28	3920.40
434.47	4198.92
434.66	4142.75
434.85	4170.83
435.03	4152.11
435.22	4081.89
435.41	4119.34
435.59	4219.99
435.78	4273.82
435.97	4072.53
436.16	4140.41
436.34	4217.65
436.53	4159.13
436.72	4292.54
436.90	4208.28
437.09	4245.73
437.28	4191.90
437.46	4374.46
437.65	4170.83
437.84	4465.74
438.02	4341.69
438.21	4416.59
438.40	4353.40
438.58	4603.83
438.77	4582.77
438.96	4440.00
439.14	4685.75
439.33	4622.56
439.52	4702.14
439.70	4685.75
439.89	4865.97
440.08	4823.84
440.26	4762.99
440.45	4863.63
440.63	4889.38
440.82	5034.49
441.01	4933.85
441.19	4950.23
441.38	4990.02
441.57	4915.12
441.75	4959.60
441.94	5203.01
442.12	5184.29
442.31	5289.61
442.50	5320.04
442.68	5170.24
442.87	5247.48
443.05	5373.87
443.24	5235.78
443.43	5378.55
443.61	5394.93
443.80	5481.53
443.98	5287.27
444.17	4887.04
444.35	5266.21
444.54	5352.81
444.73	5338.76
444.91	5408.98
445.10	5390.25
445.28	5425.36
445.47	5408.98
445.65	5467.49
445.84	5376.21
446.02	5551.75
446.21	5397.28
446.39	5462.81
446.58	5465.15
446.77	5563.45
446.95	5338.76
447.14	5636.01
447.32	5455.79
447.51	5502.60
447.69	5556.43
447.88	5416.00
448.06	5467.49
448.25	5542.39
448.43	5523.66
448.62	5455.79
448.80	5416.00
448.99	5575.16
449.17	5607.92
449.36	5668.78
449.54	5596.22
449.73	5628.99
449.91	5743.67
450.10	5851.34
450.28	5818.57
450.46	5881.77
450.65	5860.70
450.83	5790.49
451.02	5738.99
451.20	5916.87
451.39	5858.36
451.57	5872.40
451.76	5940.28
451.94	5867.72
452.13	5982.41
452.31	6101.78
452.49	6040.92
452.68	6150.93
452.86	6118.16
453.05	5977.73
453.23	6085.39
453.42	6038.58
453.60	6090.07
453.78	6179.01
453.97	6113.48
454.15	6136.88
454.34	6111.14
454.52	6232.85
454.70	6382.64
454.89	6253.91
455.07	6143.91
455.26	6499.67
455.44	6408.39
455.62	6197.74
455.81	6487.96
455.99	6403.71
456.17	6436.47
456.36	6450.52
456.54	6581.59
456.73	6567.54
456.91	6663.51
457.09	6619.04
457.28	6761.81
457.46	6658.82
457.64	6689.25
457.83	6656.48
458.01	6787.55
458.19	6707.98
458.38	6782.87
458.56	6857.77
458.74	6935.01
458.93	6881.18
459.11	6916.28
459.29	6897.56
459.48	6888.20
459.66	7000.54
459.84	7056.72
460.03	7201.83
460.21	7000.54
460.39	7129.27
460.57	7094.16
460.76	7080.12
460.94	6895.22
461.12	7096.50
461.31	7124.59
461.49	7068.42
461.67	7063.74
461.85	7243.96
462.04	7213.53
462.22	7632.49
462.40	7281.41
462.59	7311.83
462.77	7370.35
462.95	7321.20
463.13	7468.65
463.32	7398.43
463.50	7424.18
463.68	7496.74
463.86	7459.29
464.05	7482.69
464.23	7644.19
464.41	7712.07
464.59	7461.63
464.78	7808.03
464.96	7695.68
465.14	7660.57
465.32	7742.49
465.50	7744.83
465.69	7770.58
465.87	7929.74
466.05	7536.52
466.23	7871.22
466.41	7597.38
466.60	7850.16
466.78	7681.64
466.96	7840.79
467.14	8002.29
467.32	7934.42
467.51	8030.38
467.69	7850.16
467.87	7894.63
468.05	8084.21
468.23	7988.25
468.41	7932.08
468.60	8032.72
468.78	8205.92
468.96	8004.63
469.14	8128.68
469.32	8329.97
469.50	7976.55
469.69	8149.75
469.87	8346.35
470.05	8283.16
470.23	8325.29
470.41	8383.80
470.59	8407.20
470.77	8463.38
470.95	8362.73
471.14	8575.72
471.32	8414.23
471.50	8622.53
471.68	8587.43
471.86	8674.03
472.04	8585.08
472.22	8854.25
472.40	8800.41
472.58	8765.31
472.77	8901.06
472.95	8872.97
473.13	9123.41
473.31	8922.12
473.49	8915.10
473.67	9055.53
473.85	9097.66
474.03	9383.21
474.21	9235.75
474.39	9366.82
474.57	9460.45
474.75	9343.42
474.93	9448.74
475.12	9418.32
475.30	9467.47
475.48	9685.14
475.66	9647.69
475.84	9476.83
476.02	9575.13
476.20	9879.40
476.38	9921.53
476.56	10040.90
476.74	10073.67
476.92	10087.71
477.10	9832.59
477.28	10284.31
477.46	10452.83
477.64	10406.02
477.82	10518.37
478.00	10623.69
478.18	10562.84
478.36	10661.14
478.54	10647.10
478.72	10951.37
478.90	10892.85
479.08	11007.54
479.26	11094.14
479.44	11075.42
479.62	11019.24
479.80	11246.27
479.98	11693.32
480.16	11569.27
480.34	11524.80
480.52	11700.34
480.70	11723.74
480.88	11494.37
481.06	11803.32
481.24	11929.71
481.41	12067.80
481.59	12088.87
481.77	12278.45
481.95	12205.89
482.13	12568.68
482.31	12262.07
482.49	12793.37
482.67	12833.16
482.85	12554.63
483.03	12748.90
483.21	13029.76
483.39	12996.99
483.57	12842.52
483.74	13109.34
483.92	13418.29
484.10	13331.69
484.28	13778.73
484.46	13427.65
484.64	13982.36
484.82	13642.98
485.00	13774.05
485.18	14150.88
485.35	14597.92
485.53	14228.12
485.71	14396.64
485.89	14649.41
486.07	14572.18
486.25	14300.67
486.43	14396.64
486.61	14822.61
486.78	15012.20
486.96	15304.76
487.14	15208.80
487.32	15220.50
487.50	15833.72
487.68	15634.78
487.85	15810.32
488.03	16025.65
488.21	16079.48
488.39	16166.08
488.57	16276.09
488.75	16231.62
488.92	16552.27
489.10	16650.57
489.28	16926.75
489.46	16709.08
489.64	16938.46
489.81	17364.43
489.99	17233.36
490.17	17095.27
490.35	17362.09
490.53	17577.42
490.70	17776.37
490.88	17710.83
491.06	18066.60
491.24	18122.77
491.41	17781.05
491.59	18366.18
491.77	17961.27
491.95	18469.17
492.13	18586.19
492.30	18373.21
492.48	18939.62
492.66	18899.83
492.84	18813.23
493.01	18984.09
493.19	19234.52
493.37	19414.74
493.54	19414.74
493.72	19508.37
493.90	19777.53
494.08	19695.61
494.25	19784.55
494.43	19983.49
494.61	19967.11
494.79	20343.94
494.96	20245.63
495.14	20475.01
495.32	20641.18
495.49	20570.97
495.67	20458.62
495.85	20870.56
496.02	20821.41
496.20	20819.07
496.38	21118.65
496.55	21341.00
496.73	21537.61
496.91	20800.34
497.09	21834.86
497.26	21469.73
497.44	21930.82
497.62	22073.59
497.79	22181.26
497.97	22265.52
498.14	22499.57
498.32	22637.66
498.50	22705.54
498.67	22960.66
498.85	22309.99
499.03	22754.69
499.20	22984.06
499.38	22710.22
499.56	23098.75
499.73	23515.36
499.91	23318.76
500.08	23630.05
500.26	23133.86
500.44	23293.01
500.61	23552.81
500.79	23466.21
500.97	23803.25
501.14	24121.56
501.32	23651.11
501.49	23761.12
501.67	24236.25
501.84	24259.65
502.02	24423.49
502.20	24161.35
502.37	24210.50
502.55	24437.53
502.72	24584.99
502.90	24849.47
503.07	24430.51
503.25	24844.79
503.43	24940.75
503.60	25139.69
503.78	25310.55
503.95	25043.73
504.13	25113.95
504.30	25390.13
504.48	25273.10
504.65	25099.90
504.83	25319.92
505.01	25689.72
505.18	25797.38
505.36	25869.94
505.53	26022.08
505.71	26047.82
505.88	26125.06
506.06	25661.63
506.23	26150.81
506.41	25923.77
506.58	26223.36
506.76	26560.40
506.93	26689.13
507.11	26576.78
507.28	26773.39
507.46	26607.21
507.63	26595.51
507.81	27019.14
507.98	26848.29
508.16	26836.58
508.33	27337.46
508.50	27065.96
508.68	27321.07
508.85	27623.00
509.03	27477.89
509.20	27580.87
509.38	27751.73
509.55	27950.68
509.73	28084.09
509.90	27866.42
510.08	27896.85
510.25	28348.57
510.42	28107.49
510.60	28226.86
510.77	28390.70
510.95	28470.28
511.12	28903.28
511.30	28500.70
511.47	28435.17
511.64	28978.17
511.82	28587.30
511.99	28467.94
512.17	28842.42
512.34	28947.75
512.51	29401.81
512.69	29013.28
512.86	29654.59
513.04	29743.53
513.21	29694.38
513.38	29603.10
513.56	29638.20
513.73	29322.23
513.90	29713.10
514.08	29259.04
514.25	29996.31
514.43	30396.54
514.60	30000.99
514.77	29680.33
514.95	29972.90
515.12	30038.44
515.29	30375.47
515.47	30071.20
515.64	30455.05
515.81	29839.49
515.99	30363.77
516.16	30604.84
516.33	30558.03
516.51	30738.26
516.68	30834.22
516.85	31016.78
517.03	30810.81
517.20	31384.24
517.37	31028.48
517.54	31126.78
517.72	31433.39
517.89	30827.20
518.06	31601.91
518.24	31103.38
518.41	31140.83
518.58	31536.38
518.75	31393.61
518.93	31695.53
519.10	31524.68
519.27	31356.16
519.45	32063.00
519.62	32100.45
519.79	32009.17
519.96	32121.51
520.14	32198.75
520.31	31812.56
520.48	32678.56
520.65	32357.91
520.83	32863.46
521.00	32470.25
521.17	32364.93
521.34	32622.39
521.52	32734.73
521.69	32886.87
521.86	33153.69
522.03	33165.39
522.20	33226.24
522.38	33324.55
522.55	33156.03
522.72	33118.58
522.89	33301.14
523.07	33785.63
523.24	33780.95
523.41	33565.62
523.58	33172.41
523.75	33528.17
523.92	33670.95
524.10	33979.90
524.27	33699.03
524.44	33736.48
524.61	34029.05
524.78	33914.36
524.96	34127.35
525.13	33748.18
525.30	34478.43
525.47	34527.58
525.64	34246.72
525.81	34740.57
525.98	34459.71
526.16	34448.00
526.33	34483.11
526.50	34499.50
526.67	34792.06
526.84	34735.89
527.01	34637.59
527.18	34684.40
527.36	34883.34
527.53	34785.04
527.70	35314.00
527.87	35342.09
528.04	35096.33
528.21	35005.05
528.38	35250.81
528.55	35314.00
528.72	35505.93
528.89	35288.26
529.07	35159.53
529.24	35201.66
529.41	35903.82
529.58	35454.44
529.75	35723.60
529.92	35405.28
530.09	35782.11
530.26	35737.64
530.43	35585.50
530.60	35805.52
530.77	35922.54
530.94	36044.25
531.11	35707.21
531.28	36105.10
531.46	36470.23
531.63	36224.47
531.80	36327.45
531.97	36191.70
532.14	36224.47
532.31	36582.57
532.48	36416.40
532.65	36765.14
532.82	36629.38
532.99	36243.20
533.16	36641.09
533.33	36566.19
533.50	36875.14
533.67	36699.60
533.84	36776.84
534.01	36811.95
534.18	36842.37
534.35	37546.87
534.52	37174.73
534.69	37296.44
534.86	37446.23
535.03	37446.23
535.20	37586.66
535.37	37881.57
535.54	37652.20
535.71	37340.91
535.88	37619.43
536.05	37284.73
536.22	37518.79
536.38	37642.84
536.55	37574.96
536.72	37649.86
536.89	37790.29
537.06	37586.66
537.23	37785.61
537.40	37743.48
537.57	38038.39
537.74	37635.81
537.91	38176.48
538.08	38178.82
538.25	37841.78
538.42	38323.93
538.59	38092.22
538.75	38204.56
538.92	38785.02
539.09	38862.26
539.26	38557.99
539.43	38345.00
539.60	38946.51
539.77	38356.70
539.94	38766.29
540.11	38522.88
540.28	39119.71
540.44	38761.61
540.61	38391.81
540.78	38976.94
540.95	39393.56
541.12	38700.76
541.29	38609.48
541.46	38988.64
541.62	39154.82
541.79	39316.32
541.96	38712.46
542.13	39152.48
542.30	39115.03
542.47	39215.68
542.63	39262.49
542.80	39615.91
542.97	39524.63
543.14	40170.61
543.31	39475.48
543.48	40020.82
543.64	39728.25
543.81	39880.39
543.98	39906.13
544.15	39974.01
544.32	40018.48
544.48	40325.09
544.65	40009.12
544.82	40299.34
544.99	39662.72
545.16	40350.84
545.32	40350.84
545.49	40573.19
545.66	40694.89
545.83	40570.85
546.00	40715.96
546.16	40488.93
546.33	40591.91
546.50	40610.64
546.67	40545.10
546.83	40196.36
547.00	40617.66
547.17	40432.75
547.34	40580.21
547.50	40713.62
547.67	40758.09
547.84	40830.65
548.00	40795.54
548.17	41024.91
548.34	41144.28
548.51	40973.42
548.67	41186.41
548.84	41186.41
549.01	41170.02
549.18	40835.33
549.34	41514.08
549.51	41446.21
549.68	41551.53
549.84	41254.28
550.01	41336.20
550.18	41390.03
550.34	41366.63
550.51	41373.65
550.68	41364.29
550.84	41102.15
551.01	41565.57
551.18	41635.79
551.34	41177.04
551.51	41790.27
551.68	41605.36
551.84	41404.08
552.01	41308.11
552.18	41841.76
552.34	41469.61
552.51	41975.17
552.68	41666.22
552.84	42122.62
553.01	42080.49
553.18	41689.62
553.34	41979.85
553.51	42232.63
553.67	41900.27
553.84	42188.16
554.01	42443.27
554.17	42052.41
554.34	42663.28
554.51	42684.35
554.67	42267.73
554.84	42405.83
555.00	42117.94
555.17	42305.18
555.33	42438.59
555.50	42459.66
555.67	42532.22
555.83	42157.73
556.00	42873.93
556.16	43241.40
556.33	42649.24
556.50	42642.22
556.66	42878.61
556.83	43037.77
556.99	43196.93
557.16	42946.49
557.32	43342.04
557.49	43445.02
557.65	42712.44
557.82	42735.84
557.98	42738.18
558.15	42817.76
558.32	43054.15
558.48	42513.49
558.65	43297.57
558.81	43061.18
558.98	43320.98
559.14	42972.24
559.31	43337.36
559.47	43117.35
559.64	43292.89
559.80	43356.08
559.97	43625.25
560.13	42920.74
560.30	43241.40
560.46	43536.30
560.63	43299.91
560.79	43332.68
560.96	44051.22
561.12	43255.44
561.29	43634.61
561.45	43463.75
561.61	43215.65
561.78	43400.55
561.94	43257.78
562.11	43491.83
562.27	43786.74
562.44	43185.22
562.60	43784.40
562.77	43772.70
562.93	43915.47
563.10	43461.41
563.26	43693.12
563.42	44051.22
563.59	43531.62
563.75	43910.79
563.92	43454.39
564.08	43901.43
564.24	43800.79
564.41	43641.63
564.57	43828.87
564.74	43608.86
564.90	43800.79
565.07	43690.78
565.23	43971.64
565.39	43922.49
565.56	44254.85
565.72	43665.03
565.88	43971.64
566.05	44076.97
566.21	43969.30
566.38	44355.49
566.54	43983.35
566.70	44182.29
566.87	44074.63
567.03	43957.60
567.19	44217.40
567.36	44105.06
567.52	43871.00
567.68	44622.31
567.85	44264.21
568.01	44292.30
568.17	43908.45
568.34	44486.56
568.50	44123.78
568.66	44201.02
568.83	44086.33
568.99	44304.00
569.15	43569.07
569.32	44091.01
569.48	44362.51
569.64	44507.63
569.81	44488.90
569.97	44395.28
570.13	44664.44
570.30	44215.06
570.46	44140.16
570.62	44339.11
570.78	44804.88
570.95	44416.35
571.11	44636.36
571.27	44264.21
571.43	44797.85
571.60	44626.99
571.76	45067.02
571.92	44224.42
572.09	44266.55
572.25	44528.69
572.41	44460.82
572.57	44268.89
572.74	44790.83
572.90	44718.28
573.06	44737.00
573.22	44603.59
573.38	45092.76
573.55	44477.20
573.71	44989.78
573.87	44877.43
574.03	44573.16
574.20	44547.42
574.36	44694.87
574.52	45008.50
574.68	44823.60
574.84	44903.18
575.01	45247.24
575.17	44875.09
575.33	44987.44
575.49	44772.11
575.65	44774.45
575.82	45097.44
575.98	45111.49
576.14	45258.94
576.30	45141.91
576.46	44807.22
576.62	44968.71
576.79	44863.39
576.95	44868.07
577.11	44694.87
577.27	44367.20
577.43	44542.74
577.59	44842.32
577.75	44573.16
577.92	44645.72
578.08	44645.72
578.24	44863.39
578.40	44905.52
578.56	45347.88
578.72	45013.18
578.88	44914.88
579.04	44912.54
579.21	45043.61
579.37	44999.14
579.53	45209.79
579.69	44811.90
579.85	44601.25
580.01	45015.52
580.17	44531.03
580.33	44996.80
580.49	45205.11
580.65	44898.50
580.82	44928.92
580.98	45010.84
581.14	44659.76
581.30	45076.38
581.46	44870.41
581.62	44566.14
581.78	44739.34
581.94	45148.93
582.10	44889.13
582.26	45076.38
582.42	45120.85
582.58	45144.25
582.74	45345.54
582.90	44746.36
583.06	45460.23
583.22	44842.32
583.38	45216.81
583.54	45155.96
583.70	45130.21
583.86	45181.70
584.02	45015.52
584.18	45799.60
584.34	45308.09
584.50	45855.78
584.66	45404.05
584.82	45640.45
584.98	45415.76
585.14	45338.52
585.30	44842.32
585.46	44935.95
585.62	45265.96
585.78	45338.52
585.94	44666.78
586.10	44975.73
586.26	44776.79
586.42	44821.26
586.58	45326.81
586.74	45408.73
586.90	45139.57
587.06	45036.59
587.22	45109.14
587.38	45120.85
587.54	45439.16
587.70	45394.69
587.86	45310.43
588.02	45380.65
588.18	45392.35
588.34	45214.47
588.49	45226.17
588.65	45017.86
588.81	45399.37
588.97	45457.88
589.13	45256.60
589.29	45132.55
589.45	45680.24
589.61	45380.65
589.77	45523.42
589.93	45408.73
590.08	45378.31
590.24	45834.71
590.40	45624.06
590.56	45455.54
590.72	45750.45
590.88	45305.75
591.04	45329.16
591.20	45935.35
591.35	45500.01
591.51	45890.88
591.67	45713.00
591.83	45830.03
591.99	45811.31
592.15	45963.44
592.31	45415.76
592.46	45333.84
592.62	45741.09
592.78	46131.96
592.94	45890.88
593.10	45869.82
593.26	45904.93
593.41	45837.05
593.57	45900.25
593.73	46054.72
593.89	45813.65
594.05	45984.51
594.20	45963.44
594.36	45970.46
594.52	45759.81
594.68	46199.83
594.84	45689.60
594.99	46064.08
595.15	46012.59
595.31	45869.82
595.47	45968.12
595.62	46017.27
595.78	45495.33
595.94	46206.86
596.10	45942.38
596.25	45773.86
596.41	46160.05
596.57	45556.19
596.73	46155.36
596.88	46071.10
597.04	45911.95
597.20	46040.68
597.36	45682.58
597.51	45993.87
597.67	45886.20
597.83	45820.67
597.99	46162.39
598.14	45553.85
598.30	45757.47
598.46	45832.37
598.61	46234.94
598.77	45813.65
598.93	45940.04
599.09	46232.60
599.24	46461.97
599.40	46167.07
599.56	46146.00
599.71	46082.81
599.87	46457.29
600.03	46394.10
600.18	46588.36
600.34	46335.59
600.50	46391.76
600.65	46234.94
600.81	46342.61
600.97	46256.01
601.12	46394.10
601.28	45907.27
601.44	45741.09
601.59	46190.47
601.75	45736.41
601.91	46410.48
602.06	46129.62
602.22	46066.42
602.37	46183.45
602.53	45808.96
602.69	46370.69
602.84	45766.84
603.00	45937.69
603.16	45954.08
603.31	45902.59
603.47	46382.40
603.62	45916.63
603.78	46115.58
603.94	46333.24
604.09	45935.35
604.25	45801.94
604.40	46089.83
604.56	46330.90
604.71	46564.96
604.87	45867.48
605.03	45918.97
605.18	46309.84
605.34	45773.86
605.49	45682.58
605.65	45902.59
605.80	45799.60
605.96	45933.01
606.12	46216.22
606.27	45881.52
606.43	45743.43
606.58	46389.42
606.74	45619.38
606.89	45902.59
607.05	46115.58
607.20	46248.99
607.36	45865.14
607.51	45830.03
607.67	45818.33
607.82	45972.80
607.98	45832.37
608.13	45778.54
608.29	45897.91
608.44	45944.72
608.60	45605.34
608.75	45736.41
608.91	45528.10
609.06	45607.68
609.22	46071.10
609.37	45551.51
609.53	45567.89
609.68	45853.44
609.84	45373.63
609.99	45886.20
610.15	46122.60
610.30	46017.27
610.46	45574.91
610.61	45626.40
610.76	45448.52
610.92	45521.08
611.07	45595.98
611.23	45329.16
611.38	45570.23
611.54	45797.26
611.69	45696.62
611.84	45851.09
612.00	45617.04
612.15	45322.13
612.31	46040.68
612.46	45521.08
612.62	45654.49
612.77	45638.11
612.92	45720.02
613.08	45067.02
613.23	45755.13
613.39	45523.42
613.54	45432.14
613.69	45418.10
613.85	45167.66
614.00	45633.42
614.15	45766.84
614.31	45301.07
614.46	45200.43
614.62	44835.30
614.77	45191.06
614.92	45485.97
615.08	45586.61
615.23	45476.61
615.38	45315.11
615.54	45390.01
615.69	45191.06
615.84	45371.28
616.00	45401.71
616.15	45275.32
616.30	45198.09
616.46	45205.11
616.61	45324.47
616.76	45404.05
616.92	45361.92
617.07	45397.03
617.22	45191.06
617.37	45270.64
617.53	45088.08
617.68	45071.70
617.83	45081.06
617.99	45158.30
618.14	45003.82
618.29	44650.40
618.45	44584.86
618.60	44896.16
618.75	44425.71
618.90	44804.88
619.06	45038.93
619.21	44776.79
619.36	45179.36
619.51	44722.96
619.67	45045.95
619.82	44671.46
619.97	45130.21
620.12	44832.96
620.28	44430.39
620.43	44779.13
620.58	44989.78
620.73	44626.99
620.89	45020.20
621.04	44879.77
621.19	44673.81
621.34	44425.71
621.49	44683.17
621.65	44767.43
621.80	44811.90
621.95	44587.21
622.10	44945.31
622.25	44835.30
622.41	44360.17
622.56	44545.08
622.71	44538.05
622.86	44268.89
623.01	44406.98
623.16	44472.52
623.32	44505.29
623.47	44479.54
623.62	44353.15
623.77	44350.81
623.92	44271.23
624.07	44397.62
624.23	44023.14
624.38	44388.26
624.53	44098.03
624.68	44055.90
624.83	44172.93
624.98	43969.30
625.13	43882.70
625.29	44032.50
625.44	44182.29
625.59	44034.84
625.74	44009.09
625.89	44109.74
626.04	43690.78
626.19	43517.58
626.34	43496.52
626.49	43643.97
626.65	43714.19
626.80	43632.27
626.95	43487.15
627.10	43468.43
627.25	43707.16
627.40	43594.82
627.55	43906.11
627.70	43302.25
627.85	43650.99
628.00	43669.72
628.15	43438.00
628.30	43115.01
628.45	43452.05
628.60	43236.72
628.76	43040.11
628.91	43311.61
629.06	42990.96
629.21	43260.12
629.36	43161.82
629.51	43187.56
629.66	43414.60
629.81	43133.73
629.96	43707.16
630.11	43337.36
630.26	42843.51
630.41	43150.12
630.56	43199.27
630.71	43154.80
630.86	43203.95
631.01	42541.58
631.16	42878.61
631.31	43159.48
631.46	42689.03
631.61	43192.25
631.76	42780.31
631.91	43117.35
632.06	43402.89
632.21	42930.11
632.36	43220.33
632.51	42375.40
632.66	42930.11
632.81	43049.47
632.96	42731.16
633.10	42394.12
633.25	42916.06
633.40	42663.28
633.55	43091.60
633.70	42574.34
633.85	42527.53
634.00	42546.26
634.15	42653.92
634.30	42424.55
634.45	42677.33
634.60	42770.95
634.75	42583.71
634.90	42380.08
635.05	42595.41
635.19	42312.20
635.34	42646.90
635.49	42141.35
635.64	42323.91
635.79	42733.50
635.94	42370.72
636.09	42656.26
636.24	42068.79
636.39	42827.12
636.53	42153.05
636.68	42153.05
636.83	41820.69
636.98	41977.51
637.13	41780.90
637.28	41621.75
637.43	41900.27
637.57	42293.48
637.72	41792.61
637.87	41792.61
638.02	42148.37
638.17	41750.48
638.32	41694.30
638.46	41813.67
638.61	41504.72
638.76	42089.85
638.91	41698.98
639.06	41521.10
639.20	41469.61
639.35	41333.86
639.50	41315.14
639.65	41757.50
639.80	41895.59
639.94	42005.59
640.09	41794.95
640.24	41631.11
640.39	41247.26
640.54	41600.68
640.68	41528.13
640.83	41921.34
640.98	41387.69
641.13	41294.07
641.27	41823.03
641.42	41263.64
641.57	41352.58
641.72	41134.92
641.86	41345.56
642.01	40708.94
642.16	41120.87
642.31	41001.50
642.45	41254.28
642.60	41029.59
642.75	41146.62
642.90	41242.58
643.04	40870.43
643.19	40903.20
643.34	41141.94
643.48	40933.63
643.63	40786.18
643.78	40722.98
643.93	41420.46
644.07	41383.01
644.22	41504.72
644.37	40701.92
644.51	40945.33
644.66	40886.82
644.81	40966.40
644.95	40830.65
645.10	40945.33
645.25	40636.38
645.39	40720.64
645.54	40741.71
645.69	40608.29
645.83	40631.70
645.98	40535.74
646.13	40577.87
646.27	40446.80
646.42	40280.62
646.57	40659.79
646.71	40818.94
646.86	40973.42
647.00	40636.38
647.15	40561.48
647.30	40423.39
647.44	40182.32
647.59	39999.76
647.74	40449.14
647.88	40304.02
648.03	40629.36
648.17	40280.62
648.32	40722.98
648.47	40809.58
648.61	40069.97
648.76	40076.99
648.90	40004.44
649.05	40165.93
649.20	40126.14
649.34	40076.99
649.49	40327.43
649.63	40430.41
649.78	40142.53
649.92	40360.20
650.07	40495.95
650.21	40348.50
650.36	40257.21
650.51	40006.78
650.65	40437.44
650.80	40016.14
650.94	40044.23
651.09	39810.17
651.23	39466.11
651.38	40030.18
651.52	39625.27
651.67	40238.49
651.81	40149.55
651.96	39658.04
652.10	39335.04
652.25	39447.39
652.39	39798.47
652.54	39611.23
652.68	39342.06
652.83	39831.24
652.97	39679.10
653.12	39526.97
653.26	39545.69
653.41	38993.32
653.55	39690.80
653.70	39447.39
653.84	39868.69
653.99	39285.89
654.13	39515.26
654.27	39232.06
654.42	39117.37
654.56	39189.93
654.71	39323.34
654.85	39484.84
655.00	39372.49
655.14	39299.94
655.29	39622.93
655.43	39601.86
655.57	39864.00
655.72	39117.37
655.86	38817.78
656.01	39131.42
656.15	38995.67
656.30	38974.60
656.44	39002.69
656.58	38810.76
656.73	39117.37
656.87	38932.47
657.01	38600.12
657.16	38843.53
657.30	38698.42
657.45	38628.20
657.59	38401.17
657.73	38340.32
657.88	38644.59
658.02	38974.60
658.16	39086.95
658.31	39129.08
658.45	38494.79
658.60	38447.98
658.74	38398.83
658.88	38490.11
659.03	38234.99
659.17	38459.68
659.31	38321.59
659.46	37993.92
659.60	38476.07
659.74	38267.76
659.89	38176.48
660.03	37764.54
660.17	38309.89
660.32	38075.84
660.46	38281.80
660.60	37801.99
660.74	37729.44
660.89	37961.15
661.03	37486.02
661.17	37207.50
661.32	37556.24
661.46	37694.33
661.60	37572.62
661.74	37504.74
661.89	37305.80
662.03	37596.03
662.17	37345.59
662.31	37181.75
662.46	37404.10
662.60	37596.03
662.74	37083.45
662.88	36706.62
663.03	37060.04
663.17	37050.68
663.31	36755.77
663.45	36928.97
663.60	37317.50
663.74	37160.69
663.88	36608.32
664.02	36758.11
664.17	37287.07
664.31	36430.44
664.45	36208.09
664.59	36561.51
664.73	36439.80
664.88	36360.22
665.02	36589.59
665.16	36554.49
665.30	36201.07
665.44	36425.76
665.59	36084.04
665.73	35988.08
665.87	35424.01
666.01	36343.84
666.15	36598.96
666.29	35627.63
666.44	35990.42
666.58	35564.44
666.72	35653.38
666.86	35658.06
667.00	35653.38
667.14	35559.76
667.28	35297.62
667.43	35264.85
667.57	35852.33
667.71	35470.82
667.85	35594.87
667.99	35447.41
668.13	35253.15
668.27	35030.80
668.41	34834.19
668.56	35164.21
668.70	34944.20
668.84	34660.99
668.98	34225.65
669.12	34429.28
669.26	34611.84
669.40	34719.51
669.54	34644.61
669.68	34724.19
669.82	34799.08
669.96	34368.43
670.10	34094.58
670.25	34277.15
670.39	34501.84
670.53	34345.02
670.67	34338.00
670.81	34270.12
670.95	34440.98
671.09	33975.22
671.23	33762.23
671.37	33949.47
671.51	33694.35
671.65	33722.44
671.79	33912.02
671.93	33720.10
672.07	33986.92
672.21	33951.81
672.35	33125.60
672.49	33064.75
672.63	33574.98
672.77	33373.70
672.91	33130.28
673.05	32910.27
673.19	32613.02
673.33	32877.51
673.47	32996.87
673.61	32570.90
673.75	32245.56
673.89	32470.25
674.03	32411.74
674.17	32173.00
674.31	32194.07
674.45	32301.73
674.59	31885.12
674.73	32360.25
674.87	32287.69
675.01	31845.33
675.15	31999.80
675.29	31672.13
675.43	31475.52
675.56	31632.34
675.70	31679.15
675.84	31358.50
675.98	30649.32
676.12	30976.99
676.26	31388.92
676.40	30911.46
676.54	31157.21
676.68	30976.99
676.82	30515.90
676.96	30705.49
677.10	30593.14
677.23	30658.68
677.37	30480.80
677.51	30588.46
677.65	30480.80
677.79	30096.95
677.93	29947.15
678.07	30213.98
678.21	29893.32
678.34	29879.28
678.48	29497.77
678.62	29783.32
678.76	29408.83
678.90	28954.77
679.04	29539.90
679.18	29462.66
679.31	29465.00
679.45	29074.13
679.59	29146.69
679.73	29336.27
679.87	28819.02
680.00	28811.99
680.14	28669.22
680.28	28671.56
680.42	28414.10
680.56	28561.56
680.70	28402.40
680.83	28250.27
680.97	28641.14
681.11	28116.86
681.25	28102.81
681.39	27887.48
681.52	28215.16
681.66	27835.99
681.80	27285.97
681.94	27014.46
682.07	27194.68
682.21	27129.15
682.35	27164.26
682.49	27236.81
682.62	27206.39
682.76	27161.92
682.90	27005.10
683.04	26714.87
683.17	26731.26
683.31	26611.89
683.45	26677.43
683.59	26239.75
683.72	25773.98
683.86	25839.51
684.00	26237.41
684.13	25874.62
684.27	25837.17
684.41	25855.90
684.55	25724.83
684.68	25612.48
684.82	25104.59
684.96	25912.07
685.09	25612.48
685.23	25376.09
685.37	25984.63
685.50	25436.94
685.64	25034.37
685.78	25177.14
685.91	24999.26
686.05	24659.88
686.19	24201.14
686.32	24304.12
686.46	23924.96
686.60	24226.89
686.73	24430.51
686.87	24322.85
687.01	24531.15
687.14	24081.77
687.28	23892.19
687.42	24133.26
687.55	23990.49
687.69	23747.08
687.82	23510.68
687.96	23679.20
688.10	23564.51
688.23	23463.87
688.37	23133.86
688.50	23557.49
688.64	23021.51
688.78	23087.04
688.91	22834.27
689.05	22927.89
689.18	22703.20
689.32	22541.70
689.46	22504.25
689.59	22492.55
689.73	22649.36
689.86	22338.07
690.00	22352.12
690.13	22417.65
690.27	22232.75
690.41	22235.09
690.54	21766.98
690.68	21614.85
690.81	21764.64
690.95	21546.97
691.08	21451.01
691.22	21364.41
691.35	21523.57
691.49	21247.38
691.62	21455.69
691.76	20851.83
691.89	20826.09
692.03	20762.89
692.16	20549.90
692.30	20812.04
692.43	20627.14
692.57	20446.92
692.70	20608.42
692.84	20592.03
692.97	20156.69
693.11	20006.90
693.24	19943.70
693.38	19789.23
693.51	19726.04
693.65	19613.69
693.78	19611.35
693.92	19590.28
694.05	19459.21
694.19	19545.81
694.32	19414.74
694.45	19599.65
694.59	19468.58
694.72	19676.88
694.86	19166.65
694.99	18838.97
695.13	18930.25
695.26	18745.35
695.39	18609.60
695.53	18663.43
695.66	18707.90
695.80	18281.92
695.93	18216.39
696.07	18380.23
696.20	17949.57
696.33	17942.55
696.47	18155.54
696.60	17568.06
696.73	17872.33
696.87	18036.17
697.00	18085.32
697.14	17832.54
697.27	17762.33
697.40	17680.41
697.54	17266.13
697.67	17294.22
697.80	17448.69
697.94	17270.81
698.07	17352.73
698.21	17104.64
698.34	17198.26
698.47	17032.08
698.61	16456.31
698.74	16795.68
698.87	16737.17
699.01	16388.43
699.14	16383.75
699.27	16353.32
699.40	16575.67
699.54	16187.14
699.67	16166.08
699.80	15955.43
699.94	16037.35
700.07	15730.74
700.20	16145.02
700.34	15880.53
700.47	16042.03
700.60	15960.11
700.73	15803.30
700.87	15632.44
701.00	15307.10
701.13	15393.70
701.26	15342.21
701.40	15178.37
701.53	15183.06
701.66	14710.27
701.79	15059.01
701.93	14827.29
702.06	14759.42
702.19	14930.28
702.32	14558.13
702.46	14920.92
702.59	14941.98
702.72	14731.33
702.85	14829.63
702.99	14427.06
703.12	14406.00
703.25	14054.92
703.38	14113.43
703.51	14031.51
703.65	13994.06
703.78	13694.47
703.91	13633.62
704.04	13832.57
704.17	13650.00
704.31	13816.18
704.44	13479.15
704.57	13713.20
704.70	13481.49
704.83	13160.83
704.96	13385.52
705.10	13209.98
705.23	13060.19
>>>>>End Processed Spectral Data<<<<<
