SpectraSuite Data File
++++++++++++++++++++++++++++++++++++
Date: Fri Oct 25 10:48:27 EDT 2013
User: price-jones
Dark Spectrum Present: No
Reference Spectrum Present: No
Number of Sampled Component Spectra: 1
Spectrometers: USB2+H05261
Integration Time (usec): 100000 (USB2+H05261)
Spectra Averaged: 1 (USB2+H05261)
Boxcar Smoothing: 0 (USB2+H05261)
Correct for Electrical Dark: No (USB2+H05261)
Strobe/Lamp Enabled: No (USB2+H05261)
Correct for Detector Non-linearity: No (USB2+H05261)
Correct for Stray Light: No (USB2+H05261)
Number of Pixels in Processed Spectrum: 2048
>>>>>Begin Processed Spectral Data<<<<<
365.73	142.77
365.92	142.77
366.12	142.77
366.32	56.17
366.52	107.66
366.72	67.88
366.91	42.13
367.11	28.09
367.31	14.04
367.51	93.62
367.70	70.22
367.90	37.45
368.10	0.00
368.30	65.54
368.49	30.43
368.69	58.51
368.89	7.02
369.09	128.73
369.28	4.68
369.48	46.81
369.68	177.88
369.87	107.66
370.07	25.75
370.27	112.35
370.47	229.37
370.66	442.36
370.86	500.87
371.06	458.74
371.25	496.19
371.45	472.79
371.65	468.11
371.84	435.34
372.04	461.09
372.24	545.34
372.44	395.55
372.63	554.71
372.83	505.56
373.03	540.66
373.22	484.49
373.42	533.64
373.62	571.09
373.81	608.54
374.01	573.43
374.21	533.64
374.40	547.69
374.60	575.77
374.79	444.70
374.99	580.45
375.19	594.50
375.38	709.18
375.58	634.29
375.78	655.35
375.97	690.46
376.17	695.14
376.37	606.20
376.56	599.18
376.76	631.94
376.95	662.37
377.15	610.88
377.35	664.71
377.54	613.22
377.74	645.99
377.93	664.71
378.13	678.76
378.33	711.52
378.52	599.18
378.72	678.76
378.91	685.78
379.11	617.90
379.31	688.12
379.50	631.94
379.70	741.95
379.89	711.52
380.09	627.26
380.28	643.65
380.48	711.52
380.68	741.95
380.87	683.44
381.07	713.86
381.26	833.23
381.46	706.84
381.65	737.27
381.85	711.52
382.04	688.12
382.24	692.80
382.43	690.46
382.63	732.59
382.83	683.44
383.02	727.91
383.22	784.08
383.41	690.46
383.61	716.20
383.80	802.80
384.00	863.66
384.19	788.76
384.39	835.57
384.58	812.17
384.78	784.08
384.97	755.99
385.17	922.17
385.36	830.89
385.56	788.76
385.75	833.23
385.95	777.06
386.14	884.72
386.34	851.96
386.53	821.53
386.72	711.52
386.92	894.08
387.11	926.85
387.31	873.02
387.50	884.72
387.70	915.15
387.89	849.61
388.09	910.47
388.28	938.55
388.48	924.51
388.67	873.02
388.86	987.71
389.06	931.53
389.25	924.51
389.45	978.34
389.64	1008.77
389.84	999.41
390.03	1104.73
390.22	992.39
390.42	990.05
390.61	1008.77
390.81	1001.75
391.00	1100.05
391.19	1107.07
391.39	992.39
391.58	1102.39
391.78	1149.20
391.97	1149.20
392.16	1029.84
392.36	983.02
392.55	1020.47
392.75	1022.81
392.94	1088.35
393.13	1109.41
393.33	1015.79
393.52	1135.16
393.71	1095.37
393.91	1125.80
394.10	1130.48
394.29	1181.97
394.49	1135.16
394.68	1170.27
394.88	1198.35
395.07	1259.21
395.26	1240.48
395.46	1186.65
395.65	1259.21
395.84	1249.85
396.04	1263.89
396.23	1186.65
396.42	1130.48
396.62	1158.57
396.81	1188.99
397.00	1233.46
397.19	1352.83
397.39	1263.89
397.58	1315.38
397.77	1362.19
397.97	1413.68
398.16	1294.32
398.35	1462.83
398.55	1434.75
398.74	1430.07
398.93	1544.75
399.12	1469.86
399.32	1474.54
399.51	1577.52
399.70	1509.65
399.90	1582.20
400.09	1614.97
400.28	1572.84
400.47	1493.26
400.67	1696.89
400.86	1647.74
401.05	1710.93
401.24	1673.48
401.44	1629.01
401.63	1600.93
401.82	1706.25
402.01	1680.50
402.21	1657.10
402.40	1767.10
402.59	1767.10
402.78	1792.85
402.97	1624.33
403.17	1790.51
403.36	1753.06
403.55	1762.42
403.74	1816.26
403.93	1825.62
404.13	1804.55
404.32	1802.21
404.51	1874.77
404.70	1891.15
404.89	1893.49
405.09	1959.03
405.28	1898.17
405.47	1970.73
405.66	1912.22
405.85	1914.56
406.05	1916.90
406.24	2043.29
406.43	1937.96
406.62	2083.08
406.81	2099.46
407.00	2064.35
407.20	2003.50
407.39	2115.84
407.58	2291.38
407.77	2066.69
407.96	2134.57
408.15	2200.10
408.34	2181.38
408.54	2363.94
408.73	2321.81
408.92	2197.76
409.11	2279.68
409.30	2209.47
409.49	2303.09
409.68	2232.87
409.87	2216.49
410.07	2303.09
410.26	2375.64
410.45	2373.30
410.64	2307.77
410.83	2502.03
411.02	2406.07
411.21	2504.37
411.40	2499.69
411.59	2509.05
411.78	2665.87
411.98	2511.39
412.17	2590.97
412.36	2780.56
412.55	2623.74
412.74	2644.81
412.93	2710.34
413.12	2665.87
413.31	2764.17
413.50	2803.96
413.69	2832.05
413.88	2803.96
414.07	2862.48
414.26	2951.42
414.45	2841.41
414.64	2939.71
414.83	2972.48
415.02	3082.49
415.22	3026.31
415.41	3190.15
415.60	3105.89
415.79	3115.25
415.98	3225.26
416.17	3260.37
416.36	3159.72
416.55	3080.14
416.74	3265.05
416.93	3164.40
417.12	3276.75
417.31	3241.64
417.50	3431.23
417.69	3407.82
417.88	3461.65
418.07	3349.31
418.26	3372.71
418.45	3396.12
418.64	3478.04
418.83	3463.99
419.02	3576.34
419.21	3616.13
419.39	3482.72
419.58	3426.54
419.77	3588.04
419.96	3524.85
420.15	3768.26
420.34	3735.50
420.53	3660.60
420.72	3728.47
420.91	3688.68
421.10	3705.07
421.29	3843.16
421.48	3735.50
421.67	3824.44
421.86	3667.62
422.05	3854.86
422.24	3721.45
422.43	3857.20
422.61	3801.03
422.80	3796.35
422.99	3819.75
423.18	3936.78
423.37	3887.63
423.56	3887.63
423.75	3925.08
423.94	3798.69
424.13	3733.15
424.32	3866.56
424.50	3899.33
424.69	3899.33
424.88	3878.27
425.07	3896.99
425.26	3864.22
425.45	3880.61
425.64	3946.14
425.83	3929.76
426.01	3983.59
426.20	3932.10
426.39	3941.46
426.58	3770.60
426.77	3838.48
426.96	3974.23
427.15	3906.35
427.33	4063.17
427.52	4032.74
427.71	4194.24
427.90	4088.92
428.09	4049.13
428.28	4086.58
428.46	4084.23
428.65	4175.52
428.84	4147.43
429.03	4175.52
429.22	4119.34
429.40	4044.45
429.59	4056.15
429.78	3880.61
429.97	3964.87
430.16	3929.76
430.34	4229.35
430.53	4271.48
430.72	4208.28
430.91	4119.34
431.10	4407.23
431.28	4545.32
431.47	4585.11
431.66	4634.26
431.85	4395.53
432.03	4376.80
432.22	4655.33
432.41	4751.29
432.60	4660.01
432.79	4678.73
432.97	4741.93
433.16	4711.50
433.35	4566.39
433.54	4627.24
433.72	4634.26
433.91	4561.70
434.10	4746.61
434.28	4746.61
434.47	4880.02
434.66	4943.21
434.85	5053.22
435.03	4903.42
435.22	4983.00
435.41	5163.22
435.59	4880.02
435.78	5116.41
435.97	4997.04
436.16	5195.99
436.34	5242.80
436.53	5109.39
436.72	5228.76
436.90	4983.00
437.09	5085.98
437.28	5174.92
437.46	4975.98
437.65	5104.71
437.84	5135.14
438.02	5212.37
438.21	5263.86
438.40	5186.63
438.58	5291.95
438.77	5294.29
438.96	5413.66
439.14	5359.83
439.33	5373.87
439.52	5504.94
439.70	5694.52
439.89	5701.54
440.08	5586.86
440.26	5526.00
440.45	5738.99
440.63	5792.83
440.82	5930.92
441.01	5888.79
441.19	5841.98
441.38	6094.76
441.57	6085.39
441.75	6251.57
441.94	6127.52
442.12	6216.46
442.31	6190.72
442.50	6122.84
442.68	6239.87
442.87	6179.01
443.05	6258.59
443.24	6352.21
443.43	6410.73
443.61	6438.81
443.80	6572.22
443.98	6216.46
444.17	6216.46
444.35	6471.58
444.54	6417.75
444.73	6370.94
444.91	6558.18
445.10	6345.19
445.28	6492.65
445.47	6246.89
445.65	6450.52
445.84	6544.14
446.02	6417.75
446.21	6307.74
446.39	6502.01
446.58	6399.02
446.77	6541.80
446.95	6324.13
447.14	6518.39
447.32	6663.51
447.51	6747.76
447.69	6576.91
447.88	6590.95
448.06	6691.59
448.25	6729.04
448.43	6729.04
448.62	6729.04
448.80	6726.70
448.99	6740.74
449.17	6850.75
449.36	6649.46
449.54	6771.17
449.73	7059.06
449.91	6839.05
450.10	7286.09
450.28	6998.20
450.46	7148.00
450.65	7201.83
450.83	7211.19
451.02	7059.06
451.20	7236.94
451.39	7194.81
451.57	7037.99
451.76	7131.61
451.94	7204.17
452.13	7265.02
452.31	7117.57
452.49	6871.81
452.68	7115.23
452.86	7279.07
453.05	7075.44
453.23	7089.48
453.42	7314.17
453.60	7286.09
453.78	7293.11
453.97	7314.17
454.15	7201.83
454.34	7307.15
454.52	7424.18
454.70	7456.95
454.89	7569.29
455.07	7494.40
455.26	7604.40
455.44	7501.42
455.62	7595.04
455.81	7667.60
455.99	7627.81
456.17	7733.13
456.36	7707.38
456.54	7896.97
456.73	7887.61
456.91	8121.66
457.09	7913.35
457.28	8198.90
457.46	7728.45
457.64	7964.84
457.83	8046.76
458.01	8088.89
458.19	8175.49
458.38	8002.29
458.56	8088.89
458.74	7943.78
458.93	8182.51
459.11	8278.47
459.29	8264.43
459.48	8079.53
459.66	8187.19
459.84	8299.54
460.03	8404.86
460.21	8458.70
460.39	8404.86
460.57	8489.12
460.76	8580.40
460.94	8468.06
461.12	8592.11
461.31	8762.97
461.49	8402.52
461.67	8442.31
461.85	8753.60
462.04	8767.65
462.22	9121.07
462.40	8889.35
462.59	8655.30
462.77	8732.54
462.95	9088.30
463.13	8786.37
463.32	8870.63
463.50	8868.29
463.68	8739.56
463.86	9191.28
464.05	8863.61
464.23	8554.66
464.41	8980.64
464.59	8805.10
464.78	9205.33
464.96	9064.89
465.14	9200.65
465.32	9207.67
465.50	9179.58
465.69	9415.98
465.87	9210.01
466.05	8990.00
466.23	8994.68
466.41	9142.13
466.60	9277.88
466.78	9095.32
466.96	9329.38
467.14	9242.78
467.32	9231.07
467.51	9448.74
467.69	9233.41
467.87	9100.00
468.05	9476.83
468.23	9336.40
468.41	9305.97
468.60	9336.40
468.78	9628.96
468.96	9528.32
469.14	9827.91
469.32	9774.08
469.50	9525.98
469.69	9568.11
469.87	9975.36
470.05	9748.33
470.23	9671.09
470.41	9745.99
470.59	9813.87
470.77	9755.35
470.95	10113.45
471.14	9996.43
471.32	9790.46
471.50	10317.08
471.68	10209.42
471.86	10242.18
472.04	10127.50
472.22	10466.88
472.40	10197.71
472.58	10511.35
472.77	10361.55
472.95	10459.85
473.13	10583.90
473.31	10499.64
473.49	10300.70
473.67	10457.51
473.85	10925.62
474.03	10827.32
474.21	10857.75
474.39	10885.83
474.57	10668.16
474.75	11007.54
474.93	11211.17
475.12	11492.03
475.30	11164.36
475.48	11119.89
475.66	11288.40
475.84	11222.87
476.02	11618.42
476.20	11398.41
476.38	11590.33
476.56	11719.06
476.74	11618.42
476.92	11707.36
477.10	11653.53
477.28	11974.18
477.46	11992.90
477.64	12205.89
477.82	12138.02
478.00	12573.36
478.18	12128.66
478.36	12489.10
478.54	12554.63
478.72	12730.17
478.90	12610.81
479.08	12779.32
479.26	13071.89
479.44	13008.70
479.62	12954.87
479.80	13107.00
479.98	13268.50
480.16	13542.34
480.34	13294.24
480.52	13738.94
480.70	13715.54
480.88	13703.84
481.06	13818.52
481.24	14061.94
481.41	14078.32
481.59	14310.04
481.77	14384.93
481.95	14347.48
482.13	14434.08
482.31	14391.95
482.49	14871.76
482.67	14956.02
482.85	15276.68
483.03	14810.91
483.21	15105.82
483.39	15051.99
483.57	15269.66
483.74	15728.40
483.92	15545.84
484.10	15222.84
484.28	15793.94
484.46	16084.16
484.64	16168.42
484.82	15887.56
485.00	16095.86
485.18	16582.70
485.35	16189.49
485.53	15969.48
485.71	16051.39
485.89	16432.90
486.07	16592.06
486.25	16418.86
486.43	16671.64
486.61	17003.99
486.78	17011.01
486.96	17532.95
487.14	17399.54
487.32	17666.36
487.50	17685.09
487.68	17790.41
487.85	18324.05
488.03	18324.05
488.21	18492.57
488.39	18452.78
488.57	18637.69
488.75	18689.18
488.92	18953.66
489.10	19489.64
489.28	19117.50
489.46	19323.46
489.64	19784.55
489.81	19992.86
489.99	19871.15
490.17	20006.90
490.35	20470.33
490.53	20191.80
490.70	20589.69
490.88	20313.51
491.06	20924.39
491.24	20669.27
491.41	20570.97
491.59	20926.73
491.77	20734.81
491.95	20692.68
492.13	21184.19
492.30	21546.97
492.48	21825.50
492.66	21837.20
492.84	21443.99
493.01	21839.54
493.19	21907.41
493.37	21865.28
493.54	22354.46
493.72	22309.99
493.90	22396.59
494.08	22483.19
494.25	22822.56
494.43	23087.04
494.61	22948.95
494.79	23225.14
494.96	23054.28
495.14	23468.55
495.32	23510.68
495.49	23604.30
495.67	23440.47
495.85	24060.71
496.02	24032.62
496.20	23931.98
496.38	24301.78
496.55	24233.91
496.73	25310.55
496.91	24699.67
497.09	24734.78
497.26	24718.40
497.44	24907.98
497.62	25137.35
497.79	25092.88
497.97	24982.88
498.14	25642.91
498.32	25406.52
498.50	25462.69
498.67	25886.32
498.85	25912.07
499.03	26143.78
499.20	26305.28
499.38	26036.12
499.56	25982.29
499.73	26656.36
499.91	26342.73
500.08	26803.82
500.26	26373.16
500.44	26768.71
500.61	26525.29
500.79	26398.90
500.97	26874.03
501.14	27222.77
501.32	27089.36
501.49	27419.38
501.67	27241.50
501.84	27187.66
502.02	27552.79
502.20	27466.19
502.37	27833.65
502.55	27828.97
502.72	28044.30
502.90	28084.09
503.07	27948.34
503.25	28266.65
503.43	28357.93
503.60	28128.56
503.78	28109.83
503.95	27943.66
504.13	28390.70
504.30	28783.91
504.48	28772.21
504.65	28723.05
504.83	29020.30
505.01	29160.73
505.18	28737.10
505.36	29600.76
505.53	29163.08
505.71	29818.42
505.88	30197.59
506.06	29530.54
506.23	29783.32
506.41	29453.30
506.58	29862.90
506.76	29827.79
506.93	30253.76
507.11	29851.19
507.28	30073.54
507.46	30038.44
507.63	30017.37
507.81	30218.66
507.98	29921.41
508.16	30597.82
508.33	30417.60
508.50	30796.77
508.68	30925.50
508.85	31058.91
509.03	30478.46
509.20	30974.65
509.38	31309.35
509.55	31021.46
509.73	31159.55
509.90	31316.37
510.08	31164.23
510.25	31171.25
510.42	31290.62
510.60	31835.97
510.77	31842.99
510.95	31985.76
511.12	32027.89
511.30	32233.86
511.47	32423.44
511.64	32306.41
511.82	32533.45
511.99	32100.45
512.17	32275.99
512.34	32577.92
512.51	32767.50
512.69	32685.58
512.86	32549.83
513.04	33141.99
513.21	32868.14
513.38	32280.67
513.56	33340.93
513.73	32772.18
513.90	33137.30
514.08	32907.93
514.25	33291.78
514.43	33216.88
514.60	33034.32
514.77	33113.90
514.95	33516.47
515.12	33198.16
515.29	33584.35
515.47	34277.15
515.64	33858.19
515.81	33893.30
515.99	33394.76
516.16	33867.55
516.33	33937.77
516.51	33752.87
516.68	33364.34
516.85	33113.90
517.03	33469.66
517.20	33986.92
517.37	34071.18
517.54	33984.58
517.72	33965.85
517.89	33640.52
518.06	34183.52
518.24	34326.30
518.41	34075.86
518.58	34143.74
518.75	34604.82
518.93	34810.79
519.10	34384.81
519.27	35054.20
519.45	34820.15
519.62	35522.31
519.79	35101.01
519.96	35573.80
520.14	35714.23
520.31	35306.98
520.48	35534.01
520.65	35878.07
520.83	35957.65
521.00	36002.12
521.17	35817.22
521.34	35938.93
521.52	36449.16
521.69	36339.16
521.86	36488.95
522.03	36030.21
522.20	36252.56
522.38	36421.08
522.55	36730.03
522.72	36748.75
522.89	36540.44
523.07	36285.33
523.24	36266.60
523.41	37041.32
523.58	36383.63
523.75	36985.15
523.92	37083.45
524.10	37268.35
524.27	37198.13
524.44	37455.59
524.61	37111.53
524.78	37603.05
524.96	37317.50
525.13	37846.46
525.30	37565.60
525.47	37762.20
525.64	37818.38
525.81	37453.25
525.98	37713.05
526.16	37471.98
526.33	37104.51
526.50	37584.32
526.67	37572.62
526.84	37811.35
527.01	37633.47
527.18	38232.65
527.36	38349.68
527.53	38061.79
527.70	38756.93
527.87	38309.89
528.04	38616.50
528.21	38499.47
528.38	38857.57
528.55	39082.27
528.72	38518.20
528.89	39047.16
529.07	38649.27
529.24	38763.95
529.41	38707.78
529.58	38663.31
529.75	38909.07
529.92	38864.60
530.09	39002.69
530.26	39040.14
530.43	39597.18
530.60	39234.40
530.77	38983.96
530.94	39416.96
531.11	39236.74
531.28	39955.29
531.46	39810.17
531.63	39796.13
531.80	39700.17
531.97	39555.05
532.14	39838.26
532.31	39110.35
532.48	39639.31
532.65	39714.21
532.82	39927.20
532.99	39856.98
533.16	39882.73
533.33	40011.46
533.50	40304.02
533.67	39988.05
533.84	40168.27
534.01	39896.77
534.18	40175.30
534.35	40924.27
534.52	40212.74
534.69	40622.34
534.86	40847.03
535.03	40353.18
535.20	41350.24
535.37	40722.98
535.54	40802.56
535.71	40694.89
535.88	40821.28
536.05	40711.28
536.22	40992.14
536.38	41017.89
536.55	40856.39
536.72	40790.86
536.89	40886.82
537.06	41045.97
537.23	41455.57
537.40	41329.18
537.57	41167.68
537.74	40959.38
537.91	41567.91
538.08	41237.90
538.25	41055.34
538.42	41181.73
538.59	41684.94
538.75	41099.81
538.92	41221.52
539.09	42010.28
539.26	41794.95
539.43	41811.33
539.60	41392.37
539.77	41507.06
539.94	41462.59
540.11	41256.62
540.28	41792.61
540.44	41455.57
540.61	41663.88
540.78	41219.17
540.95	41750.48
541.12	41818.35
541.29	41708.35
541.46	41876.86
541.62	42059.43
541.79	42274.76
541.96	41876.86
542.13	42078.15
542.30	41930.70
542.47	42246.67
542.63	42223.26
542.80	42852.87
542.97	42623.50
543.14	42518.17
543.31	42682.01
543.48	42941.81
543.64	43239.06
543.81	43288.21
543.98	42754.57
544.15	42880.95
544.32	43126.71
544.48	43285.87
544.65	42876.27
544.82	43168.84
544.99	42913.72
545.16	43021.39
545.32	43157.14
545.49	43398.21
545.66	43285.87
545.83	43627.59
546.00	43653.33
546.16	43299.91
546.33	43428.64
546.50	43072.88
546.67	43498.86
546.83	43044.79
547.00	43480.13
547.17	43206.29
547.34	43709.50
547.50	43512.90
547.67	44065.27
547.84	43723.55
548.00	43742.27
548.17	44065.27
548.34	43461.41
548.51	43945.90
548.67	44378.90
548.84	43803.13
549.01	43927.17
549.18	43779.72
549.34	44041.86
549.51	44388.26
549.68	44196.34
549.84	44301.66
550.01	44194.00
550.18	43880.36
550.34	44289.96
550.51	44088.67
550.68	44224.42
550.84	44137.82
551.01	44229.10
551.18	44051.22
551.34	44039.52
551.51	44774.45
551.68	44662.10
551.84	44584.86
552.01	44196.34
552.18	44268.89
552.34	44617.63
552.51	44072.29
552.68	44500.61
552.84	44516.99
553.01	44928.92
553.18	44542.74
553.34	44776.79
553.51	44254.85
553.67	44755.72
553.84	45113.83
554.01	45591.30
554.17	44949.99
554.34	44865.73
554.51	44996.80
554.67	45095.10
554.84	45237.87
555.00	44645.72
555.17	45099.78
555.33	45031.91
555.50	44872.75
555.67	45305.75
555.83	44996.80
556.00	45139.57
556.16	45624.06
556.33	45373.63
556.50	45436.82
556.66	45298.73
556.83	44713.59
556.99	45177.02
557.16	44928.92
557.32	45404.05
557.49	45404.05
557.65	44921.90
557.82	45244.90
557.98	45237.87
558.15	45043.61
558.32	45469.59
558.48	45432.14
558.65	45272.98
558.81	45357.24
558.98	45551.51
559.14	45453.20
559.31	45207.45
559.47	45659.17
559.64	45497.67
559.80	45661.51
559.97	45322.13
560.13	45067.02
560.30	45375.97
560.46	45439.16
560.63	45595.98
560.79	45904.93
560.96	45804.28
561.12	45825.35
561.29	45757.47
561.45	45565.55
561.61	45858.12
561.78	45722.37
561.94	45778.54
562.11	45205.11
562.27	46036.00
562.44	45588.95
562.60	46087.49
562.77	45727.05
562.93	45717.68
563.10	46038.34
563.26	45808.96
563.42	46340.27
563.59	45757.47
563.75	45848.75
563.92	45771.52
564.08	46064.08
564.24	46251.33
564.41	46164.73
564.57	45762.15
564.74	45923.65
564.90	45830.03
565.07	46218.56
565.23	45951.74
565.39	45792.58
565.56	46478.36
565.72	46080.47
565.88	45895.56
566.05	46134.30
566.21	46131.96
566.38	46085.15
566.54	46092.17
566.70	46618.79
566.87	46593.04
567.03	46272.39
567.19	46387.08
567.36	46270.05
567.52	45624.06
567.68	46454.95
567.85	45874.50
568.01	46138.98
568.17	46117.92
568.34	45965.78
568.50	46007.91
568.66	45977.48
568.83	46188.13
568.99	46087.49
569.15	45963.44
569.32	46230.26
569.48	46176.43
569.64	46260.69
569.81	46396.44
569.97	45963.44
570.13	46520.49
570.30	46078.13
570.46	46127.28
570.62	45717.68
570.78	45965.78
570.95	46408.14
571.11	46639.86
571.27	45787.90
571.43	46344.95
571.60	46225.58
571.76	46155.36
571.92	46550.91
572.09	46274.73
572.25	46244.30
572.41	46188.13
572.57	46288.77
572.74	46693.69
572.90	46314.52
573.06	46562.62
573.22	46670.28
573.38	46160.05
573.55	46286.43
573.71	46426.87
573.87	46686.67
574.03	46080.47
574.20	46487.72
574.36	46401.12
574.52	46497.08
574.68	46576.66
574.84	46677.30
575.01	46401.12
575.17	46506.44
575.33	46108.55
575.49	46038.34
575.65	46398.78
575.82	46672.62
575.98	46789.65
576.14	46506.44
576.30	46382.40
576.46	46756.88
576.62	46085.15
576.79	45970.46
576.95	45940.04
577.11	46412.82
577.27	46822.42
577.43	46450.27
577.59	46532.19
577.75	46492.40
577.92	45720.02
578.08	45724.71
578.24	46375.37
578.40	46335.59
578.56	46410.48
578.72	46284.09
578.88	46820.08
579.04	46452.61
579.21	46543.89
579.37	46141.32
579.53	46244.30
579.69	46167.07
579.85	46848.16
580.01	46576.66
580.17	45883.86
580.33	46906.68
580.49	46382.40
580.65	46466.66
580.82	46536.87
580.98	46239.62
581.14	46134.30
581.30	46745.18
581.46	46162.39
581.62	46218.56
581.78	46494.74
581.94	47021.36
582.10	46447.93
582.26	46586.02
582.42	46773.27
582.58	46499.42
582.74	46440.91
582.90	46539.21
583.06	46583.68
583.22	46518.15
583.38	47356.06
583.54	46934.76
583.70	46543.89
583.86	46213.88
584.02	46312.18
584.18	46293.46
584.34	46806.03
584.50	46941.78
584.66	46539.21
584.82	46445.59
584.98	46759.22
585.14	46417.50
585.30	46382.40
585.46	46740.50
585.62	46614.11
585.78	46543.89
585.94	46124.94
586.10	46466.66
586.26	46321.54
586.42	46909.02
586.58	46920.72
586.74	46412.82
586.90	46504.10
587.06	46899.65
587.22	46600.07
587.38	46241.96
587.54	46808.37
587.70	46625.81
587.86	47107.96
588.02	46780.29
588.18	46646.88
588.34	46588.36
588.49	46363.67
588.65	46148.34
588.81	46024.29
588.97	46305.16
589.13	45804.28
589.29	46454.95
589.45	46239.62
589.61	46560.28
589.77	46340.27
589.93	46614.11
590.08	46389.42
590.24	46782.63
590.40	47072.85
590.56	47009.66
590.72	46506.44
590.88	46649.22
591.04	46642.20
591.20	47091.58
591.35	47210.95
591.51	47164.14
591.67	46890.29
591.83	46916.04
591.99	46656.24
592.15	46944.12
592.31	47051.79
592.46	46745.18
592.62	46649.22
592.78	46911.36
592.94	46412.82
593.10	46728.80
593.26	46887.95
593.41	46850.50
593.57	46878.59
593.73	46564.96
593.89	46745.18
594.05	46735.82
594.20	46745.18
594.36	46724.11
594.52	46808.37
594.68	46693.69
594.84	46700.71
594.99	47384.15
595.15	46656.24
595.31	46932.42
595.47	46763.90
595.62	46920.72
595.78	47473.09
595.94	46876.25
596.10	46813.05
596.25	46796.67
596.41	46953.49
596.57	47395.85
596.73	46817.74
596.88	46649.22
597.04	46944.12
597.20	46916.04
597.36	47100.94
597.51	47154.77
597.67	47012.00
597.83	46761.56
597.99	46658.58
598.14	46976.89
598.30	46646.88
598.46	47016.68
598.61	46770.93
598.77	46714.75
598.93	46689.01
599.09	46981.57
599.24	46932.42
599.40	47047.11
599.56	47063.49
599.71	46965.19
599.87	47023.70
600.03	46724.11
600.18	46876.25
600.34	47126.69
600.50	46827.10
600.65	46878.59
600.81	47313.93
600.97	46930.08
601.12	47065.83
601.28	47311.59
601.44	46663.26
601.59	46962.85
601.75	47033.07
601.91	47157.11
602.06	46944.12
602.22	46721.77
602.37	46541.55
602.53	46653.90
602.69	47276.48
602.84	47103.28
603.00	46960.51
603.16	46810.71
603.31	46920.72
603.47	46944.12
603.62	46660.92
603.78	46981.57
603.94	46698.37
604.09	47028.38
604.25	46983.91
604.40	46763.90
604.56	46541.55
604.71	47110.30
604.87	46965.19
605.03	46836.46
605.18	46581.34
605.34	46799.01
605.49	46457.29
605.65	46962.85
605.80	46518.15
605.96	46703.05
606.12	46925.40
606.27	46775.61
606.43	46590.70
606.58	46909.02
606.74	46508.79
606.89	46937.10
607.05	46789.65
607.20	46714.75
607.36	46483.04
607.51	47037.75
607.67	46979.23
607.82	46773.27
607.98	46658.58
608.13	46536.87
608.29	46440.91
608.44	46424.53
608.60	46127.28
608.75	46197.49
608.91	46335.59
609.06	46424.53
609.22	46478.36
609.37	45958.76
609.53	46579.00
609.68	46312.18
609.84	46351.97
609.99	46541.55
610.15	46494.74
610.30	46263.03
610.46	45727.05
610.61	46232.60
610.76	46218.56
610.92	46005.57
611.07	46204.52
611.23	45853.44
611.38	46286.43
611.54	45890.88
611.69	46251.33
611.84	45736.41
612.00	46213.88
612.15	45834.71
612.31	46129.62
612.46	46405.80
612.62	46199.83
612.77	46162.39
612.92	46536.87
613.08	45986.85
613.23	45949.40
613.39	45762.15
613.54	45675.55
613.69	45888.54
613.85	46141.32
614.00	46417.50
614.15	45984.51
614.31	45780.88
614.46	46153.02
614.62	46043.02
614.77	46024.29
614.92	45881.52
615.08	45574.91
615.23	45780.88
615.38	45715.34
615.54	45219.15
615.69	45296.39
615.84	45411.07
616.00	45411.07
616.15	45680.24
616.30	45034.25
616.46	45502.35
616.61	45408.73
616.76	45027.23
616.92	44671.46
617.07	45249.58
617.22	45237.87
617.37	45193.40
617.53	45408.73
617.68	45497.67
617.83	45759.81
617.99	45736.41
618.14	44830.62
618.29	45123.19
618.45	44928.92
618.60	45123.19
618.75	45153.62
618.90	44889.13
619.06	44870.41
619.21	44973.39
619.36	45310.43
619.51	44949.99
619.67	44907.86
619.82	44758.06
619.97	45193.40
620.12	44746.36
620.28	44304.00
620.43	44905.52
620.58	44945.31
620.73	45027.23
620.89	44727.64
621.04	44725.30
621.19	44744.02
621.34	44971.05
621.49	44753.38
621.65	44451.45
621.80	44741.68
621.95	44425.71
622.10	44896.16
622.25	44343.79
622.41	44423.37
622.56	43966.96
622.71	44966.37
622.86	44659.76
623.01	44577.84
623.16	44755.72
623.32	44711.25
623.47	44540.39
623.62	44484.22
623.77	44156.55
623.92	44392.94
624.07	44231.44
624.23	44264.21
624.38	43863.98
624.53	44130.80
624.68	44119.10
624.83	44137.82
624.98	44631.68
625.13	44018.46
625.29	43978.67
625.44	44133.14
625.59	44013.77
625.74	43494.18
625.89	43814.83
626.04	43063.52
626.19	43749.29
626.34	44147.18
626.49	43372.47
626.65	44114.42
626.80	43880.36
626.95	43480.13
627.10	43522.26
627.25	43309.27
627.40	43152.46
627.55	42939.47
627.70	42883.30
627.85	43295.23
628.00	43330.34
628.15	43772.70
628.30	43306.93
628.45	43416.94
628.60	43262.46
628.76	43501.20
628.91	43255.44
629.06	43316.29
629.21	43016.71
629.36	42925.42
629.51	42852.87
629.66	42836.48
629.81	43255.44
629.96	43131.39
630.11	42913.72
630.26	43042.45
630.41	43335.02
630.56	42979.26
630.71	42974.58
630.86	43297.57
631.01	42274.76
631.16	42696.05
631.31	42440.93
631.46	41879.21
631.61	42820.10
631.76	43196.93
631.91	42792.01
632.06	42909.04
632.21	43016.71
632.36	42934.79
632.51	42581.37
632.66	43021.39
632.81	42689.03
632.96	42351.99
633.10	42424.55
633.25	42246.67
633.40	42057.09
633.55	42817.76
633.70	42539.24
633.85	42209.22
634.00	42597.75
634.15	42473.70
634.30	42153.05
634.45	42146.03
634.60	42326.25
634.75	42604.77
634.90	42171.77
635.05	42160.07
635.19	42323.91
635.34	42223.26
635.49	42141.35
635.64	41890.91
635.79	42052.41
635.94	42139.00
636.09	41979.85
636.24	41792.61
636.39	41911.97
636.53	42195.18
636.68	41762.18
636.83	41956.44
636.98	41621.75
637.13	41406.42
637.28	41963.46
637.43	42302.84
637.57	41675.58
637.72	42169.43
637.87	42014.96
638.02	41879.21
638.17	41923.68
638.32	41799.63
638.46	41345.56
638.61	41574.94
638.76	41265.99
638.91	41677.92
639.06	41614.72
639.20	41310.46
639.35	41771.54
639.50	41113.85
639.65	41869.84
639.80	41626.43
639.94	41015.55
640.09	41535.15
640.24	40933.63
640.39	41375.99
640.54	40811.92
640.68	40818.94
640.83	41050.66
640.98	41724.73
641.13	40371.90
641.27	41146.62
641.42	41139.60
641.57	41455.57
641.72	40914.90
641.86	40608.29
642.01	40786.18
642.16	40973.42
642.31	40636.38
642.45	40840.01
642.60	40112.10
642.75	40907.88
642.90	40643.40
643.04	40498.29
643.19	40886.82
643.34	40685.53
643.48	40657.45
643.63	40818.94
643.78	40512.33
643.93	40343.81
644.07	40158.91
644.22	40392.97
644.37	40542.76
644.51	40147.21
644.66	40715.96
644.81	40629.36
644.95	41205.13
645.10	40444.46
645.25	40311.05
645.39	40589.57
645.54	40638.72
645.69	40301.68
645.83	40512.33
645.98	40151.89
646.13	40201.04
646.27	40343.81
646.42	40208.06
646.57	40297.00
646.71	39995.07
646.86	39847.62
647.00	40058.27
647.15	40367.22
647.30	40086.36
647.44	40091.04
647.59	40048.91
647.74	40018.48
647.88	39660.38
648.03	39849.96
648.17	39875.71
648.32	39803.15
648.47	39931.88
648.61	39346.75
648.76	39856.98
648.90	39674.42
649.05	39803.15
649.20	39908.47
649.34	39819.53
649.49	39578.46
649.63	39545.69
649.78	39643.99
649.92	39861.66
650.07	39882.73
650.21	39136.10
650.36	39468.45
650.51	39363.13
650.65	39735.27
650.80	39854.64
650.94	39725.91
651.09	39866.34
651.23	39309.30
651.38	39604.20
651.52	39143.12
651.67	38904.38
651.81	39248.44
651.96	39206.31
652.10	38895.02
652.25	38902.04
652.39	39030.77
652.54	39164.18
652.68	38958.22
652.83	39037.80
652.97	39381.85
653.12	38864.60
653.26	38880.98
653.41	38836.51
653.55	38501.81
653.70	39049.50
653.84	39213.34
653.99	39005.03
654.13	38951.20
654.27	39070.56
654.42	38462.02
654.56	38422.23
654.71	38700.76
654.85	38780.34
655.00	38707.78
655.14	38162.43
655.29	38120.31
655.43	38204.56
655.57	37937.74
655.72	37876.89
655.86	37806.67
656.01	37958.81
656.15	38279.46
656.30	37848.80
656.44	37823.06
656.58	37523.47
656.73	38272.44
656.87	37853.48
657.01	37874.55
657.16	37635.81
657.30	37198.13
657.45	37947.11
657.59	38103.92
657.73	38150.73
657.88	38234.99
658.02	38050.09
658.16	37921.36
658.31	38099.24
658.45	38174.14
658.60	37937.74
658.74	37872.21
658.88	37996.26
659.03	37694.33
659.17	37619.43
659.31	37874.55
659.46	37783.27
659.60	37244.94
659.74	37806.67
659.89	37273.03
660.03	37305.80
660.17	37291.76
660.32	37493.04
660.46	37617.09
660.60	37284.73
660.74	37273.03
660.89	37244.94
661.03	37172.39
661.17	37017.91
661.32	36926.63
661.46	37113.87
661.60	37120.90
661.74	36982.80
661.89	36329.80
662.03	36407.03
662.17	36809.61
662.31	36753.43
662.46	36879.82
662.60	36971.10
662.74	36671.51
662.88	36561.51
663.03	36208.09
663.17	36418.74
663.31	36187.02
663.45	36217.45
663.60	36250.22
663.74	36044.25
663.88	36320.43
664.02	35875.73
664.17	35957.65
664.31	35861.69
664.45	35545.72
664.59	35955.31
664.73	36079.36
664.88	35934.24
665.02	35758.70
665.16	35828.92
665.30	35601.89
665.44	35426.35
665.59	35281.24
665.73	35498.91
665.87	35438.05
666.01	35278.89
666.15	35124.42
666.29	35534.01
666.44	35686.15
666.58	35339.75
666.72	35278.89
666.86	35445.07
667.00	35236.77
667.14	35072.93
667.28	34689.08
667.43	35173.57
667.57	34602.48
667.71	34829.51
667.85	34829.51
667.99	34691.42
668.13	34429.28
668.27	34572.05
668.41	34387.15
668.56	34258.42
668.70	34703.12
668.84	34300.55
668.98	34426.94
669.12	34485.45
669.26	34162.46
669.40	33656.90
669.54	33912.02
669.68	33940.11
669.82	33846.49
669.96	33724.78
670.10	33149.01
670.25	34368.43
670.39	33511.79
670.53	33354.97
670.67	33453.28
670.81	33560.94
670.95	33544.56
671.09	33792.65
671.23	33607.75
671.37	33603.07
671.51	33399.44
671.65	33132.62
671.79	33109.22
671.93	33062.41
672.07	33074.11
672.21	33008.58
672.35	32821.33
672.49	32971.13
672.63	33450.94
672.77	32966.45
672.91	32432.80
673.05	32453.87
673.19	32786.22
673.33	32725.37
673.47	32587.28
673.61	32079.38
673.75	31936.61
673.89	31901.50
674.03	31941.29
674.17	31763.41
674.31	31838.31
674.45	31585.53
674.59	32072.36
674.73	32278.33
674.87	32081.72
675.01	31768.09
675.15	31536.38
675.29	31473.18
675.43	31880.44
675.56	31653.40
675.70	31206.36
675.84	31288.28
675.98	30225.68
676.12	31101.04
676.26	30799.11
676.40	30600.16
676.54	30684.42
676.68	30852.94
676.82	30298.23
676.96	30349.73
677.10	30202.27
677.23	30204.61
677.37	30356.75
677.51	30171.85
677.65	30122.69
677.79	29881.62
677.93	30398.88
678.07	30050.14
678.21	29532.88
678.34	29605.44
678.48	29394.79
678.62	29392.45
678.76	29188.82
678.90	29530.54
679.04	29172.44
679.18	29350.32
679.31	28929.02
679.45	28746.46
679.59	28500.70
679.73	28467.94
679.87	28847.10
680.00	28680.92
680.14	28606.03
680.28	28400.06
680.42	28350.91
680.56	28243.24
680.70	28095.79
680.83	27976.42
680.97	27976.42
681.11	27606.62
681.25	27590.24
681.39	28034.94
681.52	27777.48
681.66	27388.95
681.80	27372.57
681.94	27346.82
682.07	27250.86
682.21	26979.36
682.35	27260.22
682.49	27049.57
682.62	27229.79
682.76	26778.07
682.90	26616.57
683.04	26902.12
683.17	26628.27
683.31	26384.86
683.45	26429.33
683.59	26707.85
683.72	25998.67
683.86	26143.78
684.00	26033.78
684.13	26230.38
684.27	26157.83
684.41	25944.84
684.55	25795.04
684.68	25685.04
684.82	25855.90
684.96	25729.51
685.09	25949.52
685.23	25034.37
685.37	25188.85
685.50	25130.33
685.64	25521.20
685.78	24987.56
685.91	25167.78
686.05	24971.18
686.19	24580.31
686.32	24503.07
686.46	24058.37
686.60	24151.99
686.73	23761.12
686.87	23580.90
687.01	23531.75
687.14	23644.09
687.28	23887.51
687.42	23363.23
687.55	23302.37
687.69	23431.10
687.82	23398.34
687.96	23550.47
688.10	23147.90
688.23	23421.74
688.37	23103.43
688.50	22731.28
688.64	23147.90
688.78	22801.50
688.91	22480.85
689.05	22614.26
689.18	22312.33
689.32	21949.54
689.46	22473.82
689.59	22883.42
689.73	22258.49
689.86	22256.15
690.00	22473.82
690.13	22373.18
690.27	22288.92
690.41	22036.14
690.54	21961.25
690.68	21745.92
690.81	21736.56
690.95	21535.27
691.08	21429.94
691.22	21757.62
691.35	21535.27
691.49	21308.24
691.62	21383.13
691.76	21568.04
691.89	21418.24
692.03	21001.63
692.16	21083.55
692.30	20898.64
692.43	20643.52
692.57	20910.35
692.70	20592.03
692.84	20339.26
692.97	20421.17
693.11	20664.59
693.24	20166.06
693.38	20058.39
693.51	19960.09
693.65	20081.80
693.78	19939.02
693.92	20063.07
694.05	19585.60
694.19	19477.94
694.32	19702.63
694.45	19850.08
694.59	19583.26
694.72	19248.57
694.86	19496.66
694.99	19129.20
695.13	18937.27
695.26	19129.20
695.39	18796.84
695.53	19073.03
695.66	18960.68
695.80	18789.82
695.93	18792.16
696.07	18450.44
696.20	18766.42
696.33	18581.51
696.47	18394.27
696.60	18375.55
696.73	18216.39
696.87	18136.81
697.00	18192.98
697.14	18017.44
697.27	17825.52
697.40	17755.30
697.54	17872.33
697.67	17352.73
697.80	17846.58
697.94	17507.21
698.07	17352.73
698.21	17460.40
698.34	17603.17
698.47	17076.55
698.61	17142.08
698.74	16952.50
698.87	16933.78
699.01	16816.75
699.14	17022.72
699.27	16713.77
699.40	16842.50
699.54	16491.41
699.67	16477.37
699.80	16428.22
699.94	16697.38
700.07	16444.60
700.20	16416.52
700.34	15992.88
700.47	16402.47
700.60	16121.61
700.73	16248.00
700.87	16037.35
701.00	15866.49
701.13	15922.66
701.26	15864.15
701.40	15782.23
701.53	15775.21
701.66	15737.76
701.79	15576.27
701.93	15524.77
702.06	15311.78
702.19	15286.04
702.32	15410.09
702.46	15007.52
702.59	15070.71
702.72	15440.51
702.85	14949.00
702.99	15103.48
703.12	15150.29
703.25	14946.66
703.38	14775.80
703.51	14642.39
703.65	14792.19
703.78	14661.12
703.91	14544.09
704.04	14640.05
704.17	14469.19
704.31	14401.32
704.44	14045.55
704.57	13991.72
704.70	13987.04
704.83	14120.45
704.96	14073.64
705.10	13874.70
705.23	13841.93
>>>>>End Processed Spectral Data<<<<<
