SpectraSuite Data File
++++++++++++++++++++++++++++++++++++
Date: Fri Oct 25 10:48:32 EDT 2013
User: price-jones
Dark Spectrum Present: No
Reference Spectrum Present: No
Number of Sampled Component Spectra: 1
Spectrometers: USB2+H05261
Integration Time (usec): 100000 (USB2+H05261)
Spectra Averaged: 1 (USB2+H05261)
Boxcar Smoothing: 0 (USB2+H05261)
Correct for Electrical Dark: No (USB2+H05261)
Strobe/Lamp Enabled: No (USB2+H05261)
Correct for Detector Non-linearity: No (USB2+H05261)
Correct for Stray Light: No (USB2+H05261)
Number of Pixels in Processed Spectrum: 2048
>>>>>Begin Processed Spectral Data<<<<<
365.73	110.01
365.92	110.01
366.12	110.01
366.32	138.09
366.52	77.24
366.72	65.54
366.91	0.00
367.11	4.68
367.31	56.17
367.51	56.17
367.70	49.15
367.90	149.79
368.10	67.88
368.30	72.56
368.49	32.77
368.69	100.64
368.89	0.00
369.09	11.70
369.28	95.96
369.48	7.02
369.68	98.30
369.87	119.37
370.07	182.56
370.27	166.18
370.47	198.95
370.66	425.98
370.86	498.53
371.06	524.28
371.25	596.84
371.45	486.83
371.65	528.96
371.84	482.15
372.04	554.71
372.24	517.26
372.44	463.43
372.63	519.60
372.83	566.41
373.03	550.03
373.22	528.96
373.42	512.58
373.62	564.07
373.81	526.62
374.01	552.37
374.21	610.88
374.40	653.01
374.60	528.96
374.79	580.45
374.99	559.39
375.19	594.50
375.38	636.63
375.58	573.43
375.78	638.97
375.97	624.92
376.17	610.88
376.37	615.56
376.56	636.63
376.76	634.29
376.95	704.50
377.15	720.88
377.35	641.31
377.54	739.61
377.74	657.69
377.93	629.60
378.13	681.10
378.33	674.07
378.52	697.48
378.72	720.88
378.91	709.18
379.11	669.39
379.31	699.82
379.50	674.07
379.70	786.42
379.89	631.94
380.09	711.52
380.28	727.91
380.48	695.14
380.68	660.03
380.87	716.20
381.07	720.88
381.26	882.38
381.46	709.18
381.65	767.70
381.85	667.05
382.04	779.40
382.24	788.76
382.43	737.27
382.63	734.93
382.83	723.23
383.02	716.20
383.22	709.18
383.41	772.38
383.61	744.29
383.80	861.32
384.00	828.55
384.19	844.93
384.39	844.93
384.58	861.32
384.78	924.51
384.97	858.98
385.17	755.99
385.36	798.12
385.56	896.43
385.75	812.17
385.95	882.38
386.14	905.79
386.34	828.55
386.53	812.17
386.72	781.74
386.92	931.53
387.11	880.04
387.31	842.59
387.50	889.40
387.70	917.49
387.89	924.51
388.09	908.13
388.28	844.93
388.48	943.24
388.67	1020.47
388.86	987.71
389.06	1067.28
389.25	940.90
389.45	940.90
389.64	973.66
389.84	947.92
390.03	1095.37
390.22	1057.92
390.42	1067.28
390.61	990.05
390.81	1149.20
391.00	1125.80
391.19	1139.84
391.39	1121.12
391.58	1137.50
391.78	1118.78
391.97	1004.09
392.16	1088.35
392.36	1097.71
392.55	1083.67
392.75	997.07
392.94	1008.77
393.13	1048.56
393.33	994.73
393.52	1062.60
393.71	1121.12
393.91	1224.10
394.10	1160.91
394.29	1153.88
394.49	1200.69
394.68	1355.17
394.88	1313.04
395.07	1252.19
395.26	1266.23
395.46	1287.29
395.65	1296.66
395.84	1233.46
396.04	1196.01
396.23	1240.48
396.42	1252.19
396.62	1238.14
396.81	1275.59
397.00	1259.21
397.19	1350.49
397.39	1299.00
397.58	1521.35
397.77	1383.26
397.97	1401.98
398.16	1444.11
398.35	1647.74
398.55	1523.69
398.74	1460.49
398.93	1568.16
399.12	1530.71
399.32	1511.99
399.51	1481.56
399.70	1619.65
399.90	1621.99
400.09	1645.40
400.28	1687.53
400.47	1678.16
400.67	1687.53
400.86	1703.91
401.05	1678.16
401.24	1724.97
401.44	1732.00
401.63	1785.83
401.82	1771.79
402.01	1750.72
402.21	1804.55
402.40	1849.02
402.59	1842.00
402.78	1874.77
402.97	1771.79
403.17	1849.02
403.36	1753.06
403.55	1844.34
403.74	1778.81
403.93	1909.88
404.13	1886.47
404.32	1827.96
404.51	1898.17
404.70	1968.39
404.89	1975.41
405.09	2019.88
405.28	1888.81
405.47	1973.07
405.66	2064.35
405.85	1935.62
406.05	2059.67
406.24	2120.53
406.43	2043.29
406.62	2179.04
406.81	2190.74
407.00	2179.04
407.20	2165.00
407.39	2162.66
407.58	2242.23
407.77	2246.91
407.96	2244.57
408.15	2263.30
408.34	2258.62
408.54	2359.26
408.73	2452.88
408.92	2354.58
409.11	2373.30
409.30	2251.60
409.49	2251.60
409.68	2244.57
409.87	2333.51
410.07	2473.95
410.26	2380.32
410.45	2354.58
410.64	2513.74
410.83	2497.35
411.02	2530.12
411.21	2677.57
411.40	2609.70
411.59	2595.65
411.78	2722.04
411.98	2628.42
412.17	2792.26
412.36	2740.77
412.55	2815.66
412.74	2855.45
412.93	2829.71
413.12	2693.96
413.31	2902.26
413.50	2836.73
413.69	2867.16
413.88	3070.78
414.07	3035.67
414.26	2977.16
414.45	2963.12
414.64	2958.44
414.83	2960.78
415.02	3150.36
415.22	3178.45
415.41	3133.98
415.60	3122.27
415.79	3222.92
415.98	3323.56
416.17	3356.33
416.36	3400.80
416.55	3454.63
416.74	3318.88
416.93	3337.60
417.12	3368.03
417.31	3496.76
417.50	3414.84
417.69	3581.02
417.88	3424.20
418.07	3461.65
418.26	3456.97
418.45	3463.99
418.64	3604.42
418.83	3653.58
419.02	3548.25
419.21	3585.70
419.39	3623.15
419.58	3538.89
419.77	3850.18
419.96	3592.72
420.15	3728.47
420.34	3728.47
420.53	3786.99
420.72	3852.52
420.91	3836.14
421.10	3894.65
421.29	4067.85
421.48	4030.40
421.67	3873.59
421.86	3765.92
422.05	3808.05
422.24	3826.78
422.43	3889.97
422.61	3906.35
422.80	3929.76
422.99	3927.42
423.18	3882.95
423.37	4014.02
423.56	4009.34
423.75	3906.35
423.94	4037.42
424.13	3761.24
424.32	3974.23
424.50	4065.51
424.69	4142.75
424.88	4011.68
425.07	4102.96
425.26	3894.65
425.45	3868.91
425.64	3864.22
425.83	3932.10
426.01	3997.64
426.20	4100.62
426.39	4105.30
426.58	4091.26
426.77	4046.79
426.96	3920.40
427.15	4035.08
427.33	4264.46
427.52	4287.86
427.71	4219.99
427.90	4210.62
428.09	4290.20
428.28	4299.56
428.46	4208.28
428.65	4227.01
428.84	4287.86
429.03	4409.57
429.22	4196.58
429.40	4269.14
429.59	4175.52
429.78	3981.25
429.97	4011.68
430.16	4086.58
430.34	4217.65
430.53	4163.81
430.72	4278.50
430.91	4297.22
431.10	4482.13
431.28	4411.91
431.47	4699.80
431.66	4856.61
431.85	4547.66
432.03	4674.05
432.22	4791.08
432.41	4887.04
432.60	4842.57
432.79	4837.89
432.97	4821.50
433.16	4697.46
433.35	4770.01
433.54	4683.41
433.72	4786.40
433.91	4800.44
434.10	4910.44
434.28	4868.31
434.47	4891.72
434.66	5078.96
434.85	5217.05
435.03	5144.50
435.22	5121.09
435.41	5224.08
435.59	5198.33
435.78	5078.96
435.97	5203.01
436.16	5238.12
436.34	5149.18
436.53	5310.68
436.72	5376.21
436.90	5252.16
437.09	5231.10
437.28	5118.75
437.46	5235.78
437.65	5163.22
437.84	5413.66
438.02	5121.09
438.21	5355.15
438.40	5137.48
438.58	5369.19
438.77	5416.00
438.96	5582.18
439.14	5631.33
439.33	5834.96
439.52	5692.18
439.70	5750.70
439.89	5720.27
440.08	5795.17
440.26	5750.70
440.45	5921.56
440.63	5898.15
440.82	6015.18
441.01	5942.62
441.19	5991.77
441.38	6188.38
441.57	6132.20
441.75	6202.42
441.94	6253.91
442.12	6394.34
442.31	6473.92
442.50	6387.32
442.68	6476.26
442.87	6366.26
443.05	6637.76
443.24	6546.48
443.43	6747.76
443.61	6420.09
443.80	6684.57
443.98	6569.88
444.17	6246.89
444.35	6684.57
444.54	6565.20
444.73	6715.00
444.91	6623.72
445.10	6658.82
445.28	6612.01
445.47	6703.29
445.65	6581.59
445.84	6642.44
446.02	6604.99
446.21	6595.63
446.39	6729.04
446.58	6918.62
446.77	6796.92
446.95	6691.59
447.14	6768.83
447.32	6904.58
447.51	6696.27
447.69	6752.45
447.88	6789.89
448.06	6951.39
448.25	6619.04
448.43	6944.37
448.62	6822.66
448.80	6724.36
448.99	6965.43
449.17	6878.83
449.36	6942.03
449.54	7187.79
449.73	7222.89
449.91	7279.07
450.10	7171.40
450.28	7475.67
450.46	7229.91
450.65	7363.33
450.83	7344.60
451.02	7183.10
451.20	7342.26
451.39	7269.70
451.57	7279.07
451.76	7279.07
451.94	7548.23
452.13	7215.87
452.31	7311.83
452.49	7192.47
452.68	7265.02
452.86	7166.72
453.05	7391.41
453.23	7419.50
453.42	7545.89
453.60	7405.46
453.78	7541.21
453.97	7414.82
454.15	7543.55
454.34	7419.50
454.52	7705.04
454.70	7531.84
454.89	7627.81
455.07	7695.68
455.26	7712.07
455.44	7693.34
455.62	7887.61
455.81	7967.18
455.99	7939.10
456.17	7990.59
456.36	7988.25
456.54	8056.12
456.73	8271.45
456.91	8432.95
457.09	8280.82
457.28	8290.18
457.46	8100.59
457.64	8126.34
457.83	8341.67
458.01	8332.31
458.19	8344.01
458.38	8241.03
458.56	8400.18
458.74	8517.21
458.93	8444.65
459.11	8325.29
459.29	8409.54
459.48	8561.68
459.66	8643.60
459.84	8510.19
460.03	8692.75
460.21	8692.75
460.39	8709.13
460.57	8779.35
460.76	8669.34
460.94	8674.03
461.12	8713.81
461.31	8744.24
461.49	8858.93
461.67	8723.18
461.85	9029.79
462.04	8840.20
462.22	9472.15
462.40	9055.53
462.59	9015.74
462.77	9228.73
462.95	8891.70
463.13	9001.70
463.32	9062.55
463.50	9071.92
463.68	9153.84
463.86	9097.66
464.05	9104.68
464.23	9046.17
464.41	9118.73
464.59	8933.82
464.78	9123.41
464.96	9139.79
465.14	8950.21
465.32	9111.71
465.50	9341.08
465.69	9465.13
465.87	9144.47
466.05	9343.42
466.23	9465.13
466.41	9425.34
466.60	9579.81
466.78	9387.89
466.96	9540.02
467.14	9535.34
467.32	9376.19
467.51	9706.20
467.69	9273.20
467.87	9504.92
468.05	9720.24
468.23	9703.86
468.41	9734.29
468.60	9654.71
468.78	10054.94
468.96	9729.61
469.14	9757.69
469.32	10043.24
469.50	9441.72
469.69	10029.20
469.87	9944.94
470.05	9968.34
470.23	9767.06
470.41	9905.15
470.59	10136.86
470.77	10003.45
470.95	10244.52
471.14	10377.94
471.32	10143.88
471.50	10347.51
471.68	10370.91
471.86	10565.18
472.04	10312.40
472.22	10743.06
472.40	10572.20
472.58	10443.47
472.77	10656.46
472.95	10717.31
473.13	10913.92
473.31	10626.03
473.49	10637.73
473.67	10558.16
473.85	10677.52
474.03	11063.71
474.21	11075.42
474.39	11281.38
474.57	11227.55
474.75	11169.04
474.93	11342.24
475.12	11276.70
475.30	11379.68
475.48	11454.58
475.66	11419.47
475.84	11543.52
476.02	11609.06
476.20	11536.50
476.38	11864.18
476.56	12051.42
476.74	12102.91
476.92	11957.80
477.10	12138.02
477.28	12149.72
477.46	12297.17
477.64	12318.24
477.82	12863.58
478.00	13036.78
478.18	12674.00
478.36	12659.96
478.54	12989.97
478.72	12664.64
478.90	13032.10
479.08	13303.60
479.26	13291.90
479.44	13554.04
479.62	13460.42
479.80	13600.85
479.98	13617.24
480.16	13837.25
480.34	13760.01
480.52	13907.46
480.70	14001.08
480.88	14033.85
481.06	14125.13
481.24	14033.85
481.41	14445.79
481.59	14712.61
481.77	14295.99
481.95	14626.01
482.13	14803.89
482.31	14733.67
482.49	15290.72
482.67	14986.45
482.85	15311.78
483.03	15707.34
483.21	15288.38
483.39	15751.81
483.57	15644.14
483.74	15419.45
483.92	15964.79
484.10	15719.04
484.28	15983.52
484.46	16255.02
484.64	16833.13
484.82	16226.93
485.00	16468.01
485.18	16641.21
485.35	16861.22
485.53	16276.09
485.71	16407.16
485.89	16755.90
486.07	16676.32
486.25	16868.24
486.43	17069.53
486.61	17142.08
486.78	17462.74
486.96	17387.84
487.14	17736.58
487.32	17806.80
487.50	18284.26
487.68	18501.93
487.85	18574.49
488.03	18745.35
488.21	18902.17
488.39	18848.33
488.57	18780.46
488.75	18923.23
488.92	19300.06
489.10	19695.61
489.28	19819.66
489.46	19758.80
489.64	20070.09
489.81	20765.23
489.99	20596.71
490.17	20676.29
490.35	20755.87
490.53	20706.72
490.70	20606.08
490.88	20807.36
491.06	21216.96
491.24	21142.06
491.41	21226.32
491.59	21020.35
491.77	20769.91
491.95	21724.85
492.13	21642.93
492.30	21811.45
492.48	22019.76
492.66	22108.70
492.84	22300.62
493.01	22237.43
493.19	22331.05
493.37	22731.28
493.54	22817.88
493.72	22953.63
493.90	23110.45
494.08	23037.89
494.25	23747.08
494.43	23644.09
494.61	23995.17
494.79	23875.80
494.96	23784.52
495.14	23953.04
495.32	23744.73
495.49	23875.80
495.67	24205.82
495.85	24470.30
496.02	24477.32
496.20	24762.87
496.38	24861.17
496.55	24826.06
496.73	25427.58
496.91	25223.95
497.09	25467.37
497.26	25500.14
497.44	25535.24
497.62	25340.98
497.79	25605.46
497.97	25848.88
498.14	25986.97
498.32	25893.35
498.50	25975.27
498.67	26190.59
498.85	26515.93
499.03	26511.25
499.20	26831.90
499.38	26780.41
499.56	27030.85
499.73	26607.21
499.91	26850.63
500.08	27136.17
500.26	26693.81
500.44	27033.19
500.61	27449.80
500.79	26778.07
500.97	27239.15
501.14	27440.44
501.32	27564.49
501.49	27793.86
501.67	27583.21
501.84	27871.10
502.02	27915.57
502.20	28463.25
502.37	28465.60
502.55	28236.22
502.72	28435.17
502.90	28652.84
503.07	28325.16
503.25	28336.87
503.43	28350.91
503.60	28446.87
503.78	28765.18
503.95	28900.94
504.13	29057.75
504.30	29228.61
504.48	29123.29
504.65	29317.55
504.83	29530.54
505.01	29631.18
505.18	29713.10
505.36	29795.02
505.53	29605.44
505.71	30302.92
505.88	30375.47
506.06	29483.73
506.23	30389.52
506.41	29883.96
506.58	30059.50
506.76	30354.41
506.93	30881.03
507.11	30405.90
507.28	30490.16
507.46	30520.59
507.63	30829.54
507.81	30904.43
507.98	30934.86
508.16	30824.86
508.33	30789.75
508.50	31461.48
508.68	31428.71
508.85	31854.69
509.03	31534.04
509.20	31543.40
509.38	31576.17
509.55	31845.33
509.73	32004.49
509.90	32149.60
510.08	31943.63
510.25	32086.40
510.42	32123.85
510.60	32631.75
510.77	32521.74
510.95	33013.26
511.12	32484.30
511.30	32917.29
511.47	32821.33
511.64	33029.64
511.82	33074.11
511.99	32687.92
512.17	32821.33
512.34	32795.59
512.51	33230.93
512.69	33425.19
512.86	33256.67
513.04	32884.53
513.21	33179.43
513.38	33446.26
513.56	33214.54
513.73	33205.18
513.90	33647.54
514.08	33481.36
514.25	33542.22
514.43	33450.94
514.60	33668.61
514.77	33900.32
514.95	34356.72
515.12	34216.29
515.29	34160.12
515.47	34614.18
515.64	34440.98
515.81	33975.22
515.99	34478.43
516.16	34153.10
516.33	34029.05
516.51	34260.76
516.68	34195.23
516.85	33593.71
517.03	34143.74
517.20	34487.79
517.37	34579.07
517.54	34866.96
517.72	35105.70
517.89	34558.01
518.06	34733.55
518.24	34466.73
518.41	34717.17
518.58	35330.39
518.75	34937.18
518.93	35473.16
519.10	35644.02
519.27	35651.04
519.45	35702.53
519.62	36018.50
519.79	35922.54
519.96	36091.06
520.14	36189.36
520.31	35784.45
520.48	36151.91
520.65	36060.63
520.83	36568.53
521.00	37008.55
521.17	36456.18
521.34	36493.63
521.52	37015.57
521.69	37148.98
521.86	37202.82
522.03	36875.14
522.20	36751.09
522.38	37041.32
522.55	37446.23
522.72	36868.12
522.89	37184.09
523.07	37123.24
523.24	36842.37
523.41	37205.16
523.58	37448.57
523.75	37963.49
523.92	37677.94
524.10	37546.87
524.27	38122.65
524.44	38153.07
524.61	38057.11
524.78	38536.92
524.96	38373.08
525.13	38660.97
525.30	38485.43
525.47	38770.97
525.64	38576.71
525.81	38127.33
525.98	38239.67
526.16	38363.72
526.33	37867.53
526.50	38529.90
526.67	38061.79
526.84	38277.12
527.01	38136.69
527.18	38328.61
527.36	38651.61
527.53	38686.71
527.70	39859.32
527.87	39044.82
528.04	39007.37
528.21	38920.77
528.38	39189.93
528.55	39817.19
528.72	39419.30
528.89	39370.15
529.07	39604.20
529.24	39388.88
529.41	39639.31
529.58	39454.41
529.75	39398.24
529.92	39601.86
530.09	39852.30
530.26	39688.46
530.43	39772.72
530.60	39674.42
530.77	40271.26
530.94	40287.64
531.11	40011.46
531.28	40407.01
531.46	40060.61
531.63	40299.34
531.80	40367.22
531.97	40140.19
532.14	39732.93
532.31	40011.46
532.48	39854.64
532.65	40346.15
532.82	40697.24
532.99	40069.97
533.16	40058.27
533.33	40540.42
533.50	40994.48
533.67	40973.42
533.84	40533.40
534.01	41008.53
534.18	41090.44
534.35	41303.43
534.52	41017.89
534.69	41167.68
534.86	41352.58
535.03	41621.75
535.20	41897.93
535.37	41195.77
535.54	41708.35
535.71	41179.39
535.88	41450.89
536.05	41315.14
536.22	41343.22
536.38	41703.67
536.55	41745.80
536.72	41476.63
536.89	41371.31
537.06	41324.50
537.23	41764.52
537.40	42087.51
537.57	41525.78
537.74	41937.72
537.91	42110.92
538.08	42120.28
538.25	41509.40
538.42	41918.99
538.59	42298.16
538.75	41481.31
538.92	41900.27
539.09	41991.55
539.26	42164.75
539.43	42279.44
539.60	42078.15
539.77	42068.79
539.94	42305.18
540.11	41785.58
540.28	42155.39
540.44	42026.66
540.61	41750.48
540.78	42080.49
540.95	42213.90
541.12	42733.50
541.29	42522.85
541.46	42377.74
541.62	42363.70
541.79	42665.63
541.96	42548.60
542.13	42429.23
542.30	43000.32
542.47	43051.81
542.63	42639.88
542.80	42976.92
542.97	43353.74
543.14	43091.60
543.31	43271.82
543.48	43192.25
543.64	43985.69
543.81	43611.20
543.98	43559.71
544.15	43529.28
544.32	43533.96
544.48	44165.91
544.65	43793.76
544.82	43732.91
544.99	43461.41
545.16	43643.97
545.32	43775.04
545.49	44105.06
545.66	44264.21
545.83	44250.17
546.00	44011.43
546.16	43952.92
546.33	44184.63
546.50	43480.13
546.67	44360.17
546.83	43262.46
547.00	44168.25
547.17	44069.95
547.34	43880.36
547.50	43866.32
547.67	44364.85
547.84	44385.92
548.00	44582.52
548.17	44432.73
548.34	44516.99
548.51	44355.49
548.67	44694.87
548.84	44837.64
549.01	44823.60
549.18	44531.03
549.34	44601.25
549.51	44903.18
549.68	44673.81
549.84	44617.63
550.01	44914.88
550.18	44774.45
550.34	44828.28
550.51	44652.74
550.68	44318.04
550.84	44383.58
551.01	44676.15
551.18	44940.63
551.34	44945.31
551.51	44994.46
551.68	45139.57
551.84	45174.68
552.01	45099.78
552.18	45111.49
552.34	44594.23
552.51	45256.60
552.68	45261.28
552.84	44987.44
553.01	44807.22
553.18	45198.09
553.34	44966.37
553.51	44921.90
553.67	45177.02
553.84	45427.46
554.01	45081.06
554.17	45469.59
554.34	45888.54
554.51	45771.52
554.67	45705.98
554.84	45322.13
555.00	45659.17
555.17	45478.95
555.33	45668.53
555.50	45804.28
555.67	45539.80
555.83	45584.27
556.00	45958.76
556.16	45832.37
556.33	45628.74
556.50	46017.27
556.66	46052.38
556.83	45579.59
556.99	45701.30
557.16	45628.74
557.32	45696.62
557.49	46082.81
557.65	45628.74
557.82	45785.56
557.98	45673.21
558.15	45846.41
558.32	45703.64
558.48	45659.17
558.65	46124.94
558.81	45801.94
558.98	45790.24
559.14	46066.42
559.31	45703.64
559.47	46363.67
559.64	46017.27
559.80	46087.49
559.97	46218.56
560.13	46197.49
560.30	45970.46
560.46	46469.00
560.63	46548.57
560.79	46293.46
560.96	46312.18
561.12	45603.00
561.29	46501.76
561.45	46216.22
561.61	46323.88
561.78	45883.86
561.94	46043.02
562.11	46174.09
562.27	46522.83
562.44	46356.65
562.60	46733.48
562.77	46831.78
562.93	46417.50
563.10	46714.75
563.26	46043.02
563.42	46663.26
563.59	46117.92
563.75	46670.28
563.92	46508.79
564.08	46438.57
564.24	46611.77
564.41	46735.82
564.57	46005.57
564.74	46059.40
564.90	46349.63
565.07	46504.10
565.23	46007.91
565.39	46202.18
565.56	46539.21
565.72	46866.89
565.88	46539.21
566.05	46557.94
566.21	46543.89
566.38	46424.53
566.54	46679.64
566.70	46883.27
566.87	47147.75
567.03	46691.35
567.19	47374.78
567.36	46639.86
567.52	46677.30
567.68	46534.53
567.85	46492.40
568.01	46635.17
568.17	46452.61
568.34	46555.60
568.50	46555.60
568.66	46190.47
568.83	46459.63
568.99	46113.23
569.15	46485.38
569.32	46705.39
569.48	46452.61
569.64	47042.43
569.81	46721.77
569.97	46850.50
570.13	46731.14
570.30	46408.14
570.46	46534.53
570.62	46291.12
570.78	46358.99
570.95	46658.58
571.11	46810.71
571.27	46536.87
571.43	47201.58
571.60	46944.12
571.76	46855.18
571.92	46733.48
572.09	46656.24
572.25	47136.05
572.41	46529.85
572.57	46845.82
572.74	47374.78
572.90	46831.78
573.06	47119.66
573.22	46791.99
573.38	47072.85
573.55	46625.81
573.71	46948.81
573.87	46532.19
574.03	46845.82
574.20	47002.64
574.36	47164.14
574.52	47138.39
574.68	46506.44
574.84	46944.12
575.01	46932.42
575.17	47311.59
575.33	46478.36
575.49	46412.82
575.65	47136.05
575.82	47161.79
575.98	46862.21
576.14	47260.10
576.30	47147.75
576.46	46913.70
576.62	46894.97
576.79	46525.17
576.95	46892.63
577.11	47084.56
577.27	47157.11
577.43	47129.03
577.59	47192.22
577.75	46955.83
577.92	46731.14
578.08	46700.71
578.24	46518.15
578.40	47281.16
578.56	47150.09
578.72	46911.36
578.88	47033.07
579.04	46974.55
579.21	46845.82
579.37	46543.89
579.53	47054.13
579.69	46658.58
579.85	47023.70
580.01	46852.84
580.17	47096.26
580.33	47426.28
580.49	47124.35
580.65	47306.91
580.82	46932.42
580.98	46461.97
581.14	47049.45
581.30	47091.58
581.46	46958.17
581.62	46955.83
581.78	47175.84
581.94	47433.30
582.10	47047.11
582.26	47150.09
582.42	47510.53
582.58	47065.83
582.74	46983.91
582.90	47004.98
583.06	46794.33
583.22	47126.69
583.38	47100.94
583.54	47145.41
583.70	46894.97
583.86	47114.98
584.02	46527.51
584.18	46749.86
584.34	47072.85
584.50	47334.99
584.66	46988.60
584.82	47131.37
584.98	47419.25
585.14	47019.02
585.30	47122.01
585.46	47206.26
585.62	46770.93
585.78	47004.98
585.94	46375.37
586.10	46770.93
586.26	47224.99
586.42	47056.47
586.58	47147.75
586.74	46789.65
586.90	46955.83
587.06	46515.81
587.22	47379.46
587.38	46490.06
587.54	47295.21
587.70	47107.96
587.86	46869.23
588.02	46995.62
588.18	47077.54
588.34	46773.27
588.49	46808.37
588.65	46707.73
588.81	46681.98
588.97	46396.44
589.13	46471.34
589.29	46522.83
589.45	46602.41
589.61	47030.72
589.77	46932.42
589.93	47047.11
590.08	46974.55
590.24	47365.42
590.40	47615.86
590.56	47508.19
590.72	47339.68
590.88	46871.57
591.04	47297.55
591.20	47412.23
591.35	47330.31
591.51	47552.66
591.67	47309.25
591.83	47056.47
591.99	46731.14
592.15	46244.30
592.31	47634.58
592.46	47440.32
592.62	47100.94
592.78	46890.29
592.94	47047.11
593.10	47164.14
593.26	47461.38
593.41	47086.90
593.57	47126.69
593.73	47152.43
593.89	47180.52
594.05	46817.74
594.20	47152.43
594.36	47302.23
594.52	47089.24
594.68	47009.66
594.84	47107.96
594.99	47201.58
595.15	46461.97
595.31	47536.28
595.47	47466.06
595.62	47327.97
595.78	47419.25
595.94	47459.04
596.10	47274.14
596.25	47793.74
596.41	47770.33
596.57	47234.35
596.73	47608.84
596.88	47508.19
597.04	47356.06
597.20	47276.48
597.36	47154.77
597.51	47407.55
597.67	47269.46
597.83	47435.64
597.99	47477.77
598.14	47264.78
598.30	47267.12
598.46	47222.65
598.61	47306.91
598.77	46894.97
598.93	47119.66
599.09	47012.00
599.24	47686.07
599.40	47260.10
599.56	47143.07
599.71	47351.38
599.87	47112.64
600.03	47473.09
600.18	47533.94
600.34	46892.63
600.50	47278.82
600.65	47346.70
600.81	47402.87
600.97	47529.26
601.12	47224.99
601.28	47538.62
601.44	47435.64
601.59	47271.80
601.75	47332.65
601.91	47229.67
602.06	47040.09
602.22	47159.45
602.37	47021.36
602.53	46794.33
602.69	47711.82
602.84	47171.16
603.00	47222.65
603.16	46820.08
603.31	47161.79
603.47	47304.57
603.62	47349.04
603.78	47604.16
603.94	47323.29
604.09	47576.07
604.25	47185.20
604.40	47255.42
604.56	47419.25
604.71	46990.94
604.87	46993.28
605.03	47578.41
605.18	47274.14
605.34	47381.80
605.49	46869.23
605.65	47030.72
605.80	46768.58
605.96	47503.51
606.12	47365.42
606.27	47189.88
606.43	47260.10
606.58	46930.08
606.74	47051.79
606.89	47257.76
607.05	47236.69
607.20	46674.96
607.36	47091.58
607.51	47505.85
607.67	47519.90
607.82	47040.09
607.98	47175.84
608.13	46806.03
608.29	46887.95
608.44	46674.96
608.60	46494.74
608.75	46857.52
608.91	46106.21
609.06	46859.87
609.22	47220.31
609.37	46597.73
609.53	46827.10
609.68	46848.16
609.84	46562.62
609.99	46672.62
610.15	46799.01
610.30	46518.15
610.46	46117.92
610.61	46848.16
610.76	46630.49
610.92	46726.46
611.07	46635.17
611.23	46724.11
611.38	46581.34
611.54	46305.16
611.69	46323.88
611.84	46373.03
612.00	46684.33
612.15	46366.01
612.31	46574.32
612.46	46768.58
612.62	46621.13
612.77	46410.48
612.92	46171.75
613.08	46473.68
613.23	46127.28
613.39	46117.92
613.54	45839.39
613.69	46340.27
613.85	46021.95
614.00	46665.60
614.15	46190.47
614.31	46389.42
614.46	46033.66
614.62	46213.88
614.77	46202.18
614.92	46447.93
615.08	46136.64
615.23	45851.09
615.38	46017.27
615.54	45420.44
615.69	45851.09
615.84	45698.96
616.00	45900.25
616.15	45869.82
616.30	46059.40
616.46	45303.41
616.61	45720.02
616.76	46012.59
616.92	45420.44
617.07	45841.73
617.22	45408.73
617.37	45418.10
617.53	46101.53
617.68	45853.44
617.83	46047.70
617.99	45804.28
618.14	45902.59
618.29	45542.14
618.45	45422.78
618.60	45471.93
618.75	45773.86
618.90	45338.52
619.06	45617.04
619.21	45698.96
619.36	45890.88
619.51	45507.04
619.67	45485.97
619.82	45301.07
619.97	45471.93
620.12	45242.56
620.28	44832.96
620.43	45151.27
620.58	45146.59
620.73	45130.21
620.89	45544.48
621.04	45254.26
621.19	45064.67
621.34	45268.30
621.49	44622.31
621.65	45045.95
621.80	45249.58
621.95	44521.67
622.10	44945.31
622.25	44603.59
622.41	44928.92
622.56	44694.87
622.71	44863.39
622.86	44610.61
623.01	44942.97
623.16	44875.09
623.32	44774.45
623.47	44758.06
623.62	45308.09
623.77	44636.36
623.92	44648.06
624.07	44341.45
624.23	44336.77
624.38	44357.83
624.53	44453.79
624.68	44727.64
624.83	44919.56
624.98	44481.88
625.13	44224.42
625.29	44304.00
625.44	44435.07
625.59	44437.41
625.74	43992.71
625.89	43842.92
626.04	43316.29
626.19	44208.04
626.34	44191.65
626.49	43931.86
626.65	43892.07
626.80	44072.29
626.95	44039.52
627.10	44205.70
627.25	43749.29
627.40	43597.16
627.55	43400.55
627.70	43178.20
627.85	43346.72
628.00	43826.53
628.15	43988.03
628.30	43842.92
628.45	43728.23
628.60	43386.51
628.76	43402.89
628.91	43812.49
629.06	43393.53
629.21	43313.95
629.36	43517.58
629.51	43271.82
629.66	43320.98
629.81	43461.41
629.96	43522.26
630.11	43452.05
630.26	43496.52
630.41	43555.03
630.56	43178.20
630.71	43445.02
630.86	43370.13
631.01	43044.79
631.16	43330.34
631.31	42803.72
631.46	42600.09
631.61	43105.65
631.76	42937.13
631.91	43117.35
632.06	43248.42
632.21	43129.05
632.36	43304.59
632.51	43126.71
632.66	43143.09
632.81	42752.23
632.96	43021.39
633.10	42433.91
633.25	42597.75
633.40	42735.84
633.55	42958.19
633.70	42562.64
633.85	42890.32
634.00	43253.10
634.15	42759.25
634.30	42719.46
634.45	42953.51
634.60	42593.07
634.75	42815.42
634.90	42628.18
635.05	42408.17
635.19	42621.16
635.34	42878.61
635.49	42382.42
635.64	41694.30
635.79	41776.22
635.94	42632.86
636.09	42366.04
636.24	42443.27
636.39	41911.97
636.53	42005.59
636.68	41916.65
636.83	42302.84
636.98	42225.60
637.13	42167.09
637.28	42199.86
637.43	42452.64
637.57	42075.81
637.72	42415.19
637.87	41965.81
638.02	42026.66
638.17	42396.46
638.32	41668.56
638.46	41446.21
638.61	41886.23
638.76	41551.53
638.91	41839.42
639.06	41897.93
639.20	41907.29
639.35	42033.68
639.50	41343.22
639.65	42213.90
639.80	41743.45
639.94	41326.84
640.09	41769.20
640.24	41303.43
640.39	41244.92
640.54	41296.41
640.68	41495.36
640.83	41495.36
640.98	41394.71
641.13	41123.21
641.27	41359.61
641.42	41474.29
641.57	41188.75
641.72	41118.53
641.86	41060.02
642.01	41148.96
642.16	40582.55
642.31	40844.69
642.45	41642.81
642.60	40788.52
642.75	40919.59
642.90	40924.27
643.04	40996.82
643.19	41057.68
643.34	41209.81
643.48	40940.65
643.63	41062.36
643.78	40849.37
643.93	40528.72
644.07	40690.21
644.22	40414.03
644.37	40664.47
644.51	40863.41
644.66	40741.71
644.81	40992.14
644.95	40788.52
645.10	41385.35
645.25	41207.47
645.39	40926.61
645.54	41083.42
645.69	40596.59
645.83	40589.57
645.98	40961.72
646.13	40694.89
646.27	40547.44
646.42	40149.55
646.57	40350.84
646.71	40460.84
646.86	40411.69
647.00	40524.04
647.15	40421.05
647.30	40177.64
647.44	40198.70
647.59	40437.44
647.74	40027.84
647.88	40339.13
648.03	39688.46
648.17	40072.31
648.32	39849.96
648.47	39985.71
648.61	40182.32
648.76	40140.19
648.90	40264.24
649.05	40268.92
649.20	40238.49
649.34	40325.09
649.49	39728.25
649.63	39936.56
649.78	39707.19
649.92	39571.44
650.07	40275.94
650.21	39812.51
650.36	39592.50
650.51	39306.96
650.65	40062.95
650.80	40114.44
650.94	39700.17
651.09	40105.08
651.23	39615.91
651.38	39676.76
651.52	39313.98
651.67	39119.71
651.81	39187.59
651.96	39379.51
652.10	39344.41
652.25	39274.19
652.39	39108.01
652.54	39225.04
652.68	39459.09
652.83	39662.72
652.97	39847.62
653.12	39321.00
653.26	39309.30
653.41	39201.63
653.55	38623.52
653.70	38888.00
653.84	39122.05
653.99	38888.00
654.13	38969.92
654.27	39016.73
654.42	39115.03
654.56	39152.48
654.71	39143.12
654.85	38899.70
655.00	38614.16
655.14	38986.30
655.29	38031.36
655.43	38843.53
655.57	37954.13
655.72	37989.24
655.86	38295.85
656.01	38450.32
656.15	38110.94
656.30	38597.77
656.44	38082.86
656.58	38024.34
656.73	38396.49
656.87	38211.59
657.01	37855.82
657.16	38223.29
657.30	38050.09
657.45	38335.63
657.59	38132.01
657.73	37940.08
657.88	37984.55
658.02	38363.72
658.16	38469.04
658.31	38352.02
658.45	38068.81
658.60	38213.93
658.74	38487.77
658.88	38092.22
659.03	37968.17
659.17	37294.10
659.31	37717.73
659.46	37755.18
659.60	38136.69
659.74	37514.11
659.89	37310.48
660.03	37397.08
660.17	37890.93
660.32	37603.05
660.46	37872.21
660.60	37642.84
660.74	37663.90
660.89	37619.43
661.03	37177.07
661.17	37069.40
661.32	36734.71
661.46	37434.53
661.60	36940.68
661.74	36950.04
661.89	37333.89
662.03	37235.58
662.17	36694.92
662.31	36837.69
662.46	37076.43
662.60	37179.41
662.74	36961.74
662.88	37198.13
663.03	36605.98
663.17	36580.23
663.31	36547.47
663.45	36512.36
663.60	36486.61
663.74	36666.83
663.88	36514.70
664.02	36156.60
664.17	36245.54
664.31	35655.72
664.45	36332.14
664.59	36060.63
664.73	36254.90
664.88	36037.23
665.02	35885.09
665.16	36189.36
665.30	36252.56
665.44	35721.26
665.59	35784.45
665.73	35578.48
665.87	35627.63
666.01	35377.20
666.15	35276.55
666.29	35967.01
666.44	35955.31
666.58	35204.00
666.72	35480.18
666.86	35683.81
667.00	35243.79
667.14	35363.15
667.28	35112.72
667.43	35187.61
667.57	35147.82
667.71	35276.55
667.85	35454.44
667.99	34827.17
668.13	34703.12
668.27	34848.24
668.41	34726.53
668.56	34487.79
668.70	35178.25
668.84	34471.41
668.98	34471.41
669.12	34422.26
669.26	34319.28
669.40	34211.61
669.54	34237.36
669.68	34415.24
669.82	33853.51
669.96	34235.02
670.10	33596.05
670.25	33968.19
670.39	34059.48
670.53	34033.73
670.67	33699.03
670.81	34094.58
670.95	33692.01
671.09	33778.61
671.23	33816.06
671.37	33521.15
671.51	33792.65
671.65	33326.89
671.79	33165.39
671.93	33275.40
672.07	33298.80
672.21	33294.12
672.35	33041.34
672.49	33043.68
672.63	33214.54
672.77	32893.89
672.91	32982.83
673.05	33081.13
673.19	32957.08
673.33	32716.01
673.47	32727.71
673.61	32629.41
673.75	32318.12
673.89	32275.99
674.03	32418.76
674.17	31962.36
674.31	31941.29
674.45	31653.40
674.59	32332.16
674.73	32327.48
674.87	32182.37
675.01	32053.64
675.15	32493.66
675.29	31742.35
675.43	31435.74
675.56	31892.14
675.70	31613.62
675.84	31325.73
675.98	30361.43
676.12	31285.94
676.26	30881.03
676.40	31180.62
676.54	30974.65
676.68	31058.91
676.82	30340.36
676.96	30808.47
677.10	30316.96
677.23	30384.83
677.37	30047.80
677.51	30071.20
677.65	30204.61
677.79	29823.11
677.93	30087.59
678.07	29869.92
678.21	29729.48
678.34	29731.83
678.48	29682.67
678.62	29965.88
678.76	29563.31
678.90	29390.11
679.04	29469.69
679.18	29310.53
679.31	28954.77
679.45	29008.60
679.59	28865.83
679.73	28622.41
679.87	28996.90
680.00	29123.29
680.14	28694.97
680.28	28233.88
680.42	28479.64
680.56	28758.16
680.70	28437.51
680.83	28414.10
680.97	28095.79
681.11	28013.87
681.25	27843.01
681.39	27899.19
681.52	28135.58
681.66	27541.08
681.80	27714.28
681.94	27782.16
682.07	27864.08
682.21	27304.69
682.35	27424.06
682.49	27117.45
682.62	27325.75
682.76	26834.24
682.90	26623.59
683.04	26855.31
683.17	26593.17
683.31	26787.43
683.45	26794.45
683.59	26508.91
683.72	26162.51
683.86	25914.41
684.00	25858.24
684.13	26258.47
684.27	26061.87
684.41	26057.18
684.55	25928.45
684.68	25652.27
684.82	25474.39
684.96	25696.74
685.09	25745.89
685.23	25596.10
685.37	25282.47
685.50	25542.27
685.64	25308.21
685.78	24919.68
685.91	25027.35
686.05	25020.33
686.19	25025.01
686.32	24606.05
686.46	24364.98
686.60	24126.24
686.73	23981.13
686.87	23906.23
687.01	24161.35
687.14	23868.78
687.28	23903.89
687.42	23421.74
687.55	23529.41
687.69	23021.51
687.82	23632.39
687.96	23751.76
688.10	23269.61
688.23	23426.42
688.37	23365.57
688.50	23044.91
688.64	22785.12
688.78	22925.55
688.91	22735.96
689.05	22757.03
689.18	22380.20
689.32	22008.06
689.46	22864.69
689.59	22831.93
689.73	22473.82
689.86	22349.78
690.00	22263.18
690.13	22410.63
690.27	22448.08
690.41	22033.80
690.54	22024.44
690.68	21834.86
690.81	21766.98
690.95	21504.84
691.08	21509.52
691.22	21509.52
691.35	21783.37
691.49	21694.43
691.62	21582.08
691.76	21486.12
691.89	21502.50
692.03	21013.33
692.16	21146.74
692.30	21137.38
692.43	20695.02
692.57	20821.41
692.70	20786.30
692.84	20556.93
692.97	20636.50
693.11	20411.81
693.24	20231.59
693.38	20329.89
693.51	20262.02
693.65	20320.53
693.78	20168.40
693.92	20046.69
694.05	20053.71
694.19	19852.42
694.32	19700.29
694.45	19878.17
694.59	19477.94
694.72	19484.96
694.86	19307.08
694.99	19250.91
695.13	19215.80
695.26	19105.79
695.39	18752.37
695.53	19213.46
695.66	19339.85
695.80	18869.40
695.93	18782.80
696.07	19005.15
696.20	18794.50
696.33	18583.85
696.47	18506.62
696.60	18429.38
696.73	18375.55
696.87	18328.74
697.00	18335.76
697.14	18340.44
697.27	18080.64
697.40	18061.91
697.54	18155.54
697.67	17664.02
697.80	17886.37
697.94	17696.79
698.07	17668.70
698.21	17549.34
698.34	17387.84
698.47	17376.14
698.61	17390.18
698.74	17298.90
698.87	17273.15
699.01	17006.33
699.14	17062.51
699.27	17078.89
699.40	16767.60
699.54	16786.32
699.67	16695.04
699.80	16655.25
699.94	16437.58
700.07	16346.30
700.20	16276.09
700.34	16093.52
700.47	16180.12
700.60	16276.09
700.73	16308.85
700.87	16248.00
701.00	15815.00
701.13	15793.94
701.26	16086.50
701.40	15932.03
701.53	15751.81
701.66	15712.02
701.79	15723.72
701.93	15435.83
702.06	15513.07
702.19	15246.25
702.32	15496.69
702.46	15496.69
702.59	15250.93
702.72	15264.97
702.85	15161.99
702.99	15124.54
703.12	15150.29
703.25	14951.34
703.38	14951.34
703.51	14836.66
703.65	14857.72
703.78	14733.67
703.91	14700.90
704.04	14560.47
704.17	14483.24
704.31	14286.63
704.44	14127.47
704.57	14080.66
704.70	13930.87
704.83	14150.88
704.96	14040.87
705.10	14228.12
705.23	14129.81
>>>>>End Processed Spectral Data<<<<<
