SpectraSuite Data File
++++++++++++++++++++++++++++++++++++
Date: Fri Oct 25 10:44:31 EDT 2013
User: price-jones
Dark Spectrum Present: No
Reference Spectrum Present: No
Number of Sampled Component Spectra: 1
Spectrometers: USB2+H05261
Integration Time (usec): 100000 (USB2+H05261)
Spectra Averaged: 1 (USB2+H05261)
Boxcar Smoothing: 0 (USB2+H05261)
Correct for Electrical Dark: No (USB2+H05261)
Strobe/Lamp Enabled: No (USB2+H05261)
Correct for Detector Non-linearity: No (USB2+H05261)
Correct for Stray Light: No (USB2+H05261)
Number of Pixels in Processed Spectrum: 2048
>>>>>Begin Processed Spectral Data<<<<<
365.73	102.98
365.92	102.98
366.12	102.98
366.32	70.22
366.52	0.00
366.72	37.45
366.91	0.00
367.11	0.00
367.31	0.00
367.51	46.81
367.70	77.24
367.90	42.13
368.10	0.00
368.30	7.02
368.49	4.68
368.69	49.15
368.89	105.32
369.09	37.45
369.28	63.19
369.48	63.19
369.68	102.98
369.87	119.37
370.07	117.03
370.27	147.45
370.47	191.92
370.66	430.66
370.86	423.64
371.06	425.98
371.25	484.49
371.45	430.66
371.65	376.83
371.84	437.68
372.04	390.87
372.24	512.58
372.44	514.92
372.63	458.74
372.83	533.64
373.03	557.05
373.22	505.56
373.42	475.13
373.62	594.50
373.81	496.19
374.01	550.03
374.21	531.30
374.40	550.03
374.60	550.03
374.79	624.92
374.99	540.66
375.19	512.58
375.38	538.32
375.58	641.31
375.78	528.96
375.97	594.50
376.17	578.11
376.37	561.73
376.56	545.34
376.76	587.47
376.95	599.18
377.15	550.03
377.35	636.63
377.54	681.10
377.74	655.35
377.93	631.94
378.13	669.39
378.33	667.05
378.52	606.20
378.72	643.65
378.91	669.39
379.11	596.84
379.31	655.35
379.50	641.31
379.70	662.37
379.89	655.35
380.09	599.18
380.28	669.39
380.48	638.97
380.68	636.63
380.87	561.73
381.07	662.37
381.26	723.23
381.46	706.84
381.65	678.76
381.85	681.10
382.04	681.10
382.24	645.99
382.43	608.54
382.63	737.27
382.83	702.16
383.02	720.88
383.22	711.52
383.41	748.97
383.61	683.44
383.80	755.99
384.00	699.82
384.19	758.33
384.39	765.36
384.58	704.50
384.78	791.10
384.97	688.12
385.17	690.46
385.36	692.80
385.56	723.23
385.75	807.48
385.95	786.42
386.14	734.93
386.34	746.63
386.53	791.10
386.72	730.25
386.92	786.42
387.11	835.57
387.31	840.25
387.50	835.57
387.70	847.27
387.89	889.40
388.09	772.38
388.28	751.31
388.48	851.96
388.67	898.77
388.86	896.43
389.06	814.51
389.25	807.48
389.45	947.92
389.64	938.55
389.84	940.90
390.03	959.62
390.22	971.32
390.42	880.04
390.61	828.55
390.81	978.34
391.00	912.81
391.19	994.73
391.39	1008.77
391.58	999.41
391.78	938.55
391.97	959.62
392.16	936.21
392.36	966.64
392.55	1008.77
392.75	926.85
392.94	1004.09
393.13	980.68
393.33	987.71
393.52	1004.09
393.71	1041.54
393.91	978.34
394.10	1078.99
394.29	1102.39
394.49	1095.37
394.68	1128.14
394.88	1109.41
395.07	1121.12
395.26	1219.42
395.46	1144.52
395.65	1179.63
395.84	1078.99
396.04	1107.07
396.23	1057.92
396.42	1156.22
396.62	1137.50
396.81	1097.71
397.00	1184.31
397.19	1116.44
397.39	1193.67
397.58	1240.48
397.77	1270.91
397.97	1287.29
398.16	1198.35
398.35	1406.66
398.55	1320.06
398.74	1404.32
398.93	1392.62
399.12	1345.81
399.32	1383.26
399.51	1355.17
399.70	1427.73
399.90	1350.49
400.09	1453.47
400.28	1458.15
400.47	1451.13
400.67	1425.39
400.86	1439.43
401.05	1462.83
401.24	1554.12
401.44	1563.48
401.63	1547.09
401.82	1579.86
402.01	1528.37
402.21	1612.63
402.40	1558.80
402.59	1598.59
402.78	1626.67
402.97	1626.67
403.17	1652.42
403.36	1554.12
403.55	1561.14
403.74	1694.55
403.93	1654.76
404.13	1701.57
404.32	1673.48
404.51	1746.04
404.70	1771.79
404.89	1820.94
405.09	1764.76
405.28	1839.66
405.47	1795.19
405.66	1764.76
405.85	1865.41
406.05	1781.15
406.24	1867.75
406.43	1863.07
406.62	1858.39
406.81	1996.48
407.00	1963.71
407.20	1837.32
407.39	1846.68
407.58	1937.96
407.77	1933.28
407.96	2069.03
408.15	2069.03
408.34	2024.56
408.54	1991.80
408.73	1987.11
408.92	2071.37
409.11	2148.61
409.30	2143.93
409.49	2111.16
409.68	2167.34
409.87	2038.61
410.07	2111.16
410.26	2272.66
410.45	2200.10
410.64	2148.61
410.83	2225.85
411.02	2338.20
411.21	2324.15
411.40	2380.32
411.59	2417.77
411.78	2373.30
411.98	2534.80
412.17	2434.16
412.36	2485.65
412.55	2464.58
412.74	2509.05
412.93	2537.14
413.12	2422.45
413.31	2609.70
413.50	2532.46
413.69	2574.59
413.88	2750.13
414.07	2630.76
414.26	2630.76
414.45	2700.98
414.64	2759.49
414.83	2799.28
415.02	2693.96
415.22	2925.67
415.41	2911.63
415.60	2913.97
415.79	2888.22
415.98	3005.25
416.17	2953.76
416.36	2946.73
416.55	2939.71
416.74	2998.23
416.93	2998.23
417.12	3038.02
417.31	2942.05
417.50	3145.68
417.69	3124.62
417.88	3201.85
418.07	3176.11
418.26	3276.75
418.45	3234.62
418.64	3304.84
418.83	3368.03
419.02	3251.00
419.21	3445.27
419.39	3300.16
419.58	3290.79
419.77	3283.77
419.96	3405.48
420.15	3438.25
420.34	3471.01
420.53	3398.46
420.72	3468.67
420.91	3426.54
421.10	3440.59
421.29	3630.17
421.48	3665.28
421.67	3574.00
421.86	3588.04
422.05	3623.15
422.24	3557.61
422.43	3590.38
422.61	3611.45
422.80	3662.94
422.99	3606.77
423.18	3632.51
423.37	3578.68
423.56	3576.34
423.75	3716.77
423.94	3566.98
424.13	3325.90
424.32	3545.91
424.50	3578.68
424.69	3730.81
424.88	3714.43
425.07	3592.72
425.26	3646.55
425.45	3712.09
425.64	3552.93
425.83	3698.05
426.01	3620.81
426.20	3742.52
426.39	3777.62
426.58	3569.32
426.77	3634.85
426.96	3733.15
427.15	3758.90
427.33	3798.69
427.52	3695.71
427.71	3782.31
427.90	3880.61
428.09	3765.92
428.28	3791.67
428.46	3953.16
428.65	3915.72
428.84	3831.46
429.03	4049.13
429.22	3948.48
429.40	3658.26
429.59	4009.34
429.78	3838.48
429.97	3630.17
430.16	3805.71
430.34	3885.29
430.53	3913.38
430.72	4079.55
430.91	4147.43
431.10	4105.30
431.28	4257.43
431.47	4334.67
431.66	4386.16
431.85	4198.92
432.03	4320.63
432.22	4510.21
432.41	4374.46
432.60	4395.53
432.79	4325.31
432.97	4351.06
433.16	4318.29
433.35	4311.27
433.54	4229.35
433.72	4484.47
433.91	4358.08
434.10	4421.27
434.28	4585.11
434.47	4456.38
434.66	4521.92
434.85	4664.69
435.03	4660.01
435.22	4685.75
435.41	4772.35
435.59	4655.33
435.78	4634.26
435.97	4777.03
436.16	4744.27
436.34	4674.05
436.53	4774.69
436.72	4840.23
436.90	4631.92
437.09	4648.30
437.28	4713.84
437.46	4854.27
437.65	4786.40
437.84	4844.91
438.02	4760.65
438.21	4847.25
438.40	4545.32
438.58	4898.74
438.77	4851.93
438.96	4999.38
439.14	5341.10
439.33	5324.72
439.52	5163.22
439.70	5163.22
439.89	5324.72
440.08	5266.21
440.26	5296.63
440.45	5284.93
440.63	5273.23
440.82	5624.31
441.01	5664.10
441.19	5610.26
441.38	5582.18
441.57	5802.19
441.75	5671.12
441.94	5832.62
442.12	5874.74
442.31	5849.00
442.50	6029.22
442.68	5633.67
442.87	5785.80
443.05	5865.38
443.24	6040.92
443.43	5865.38
443.61	5977.73
443.80	6181.35
443.98	5968.37
444.17	5753.04
444.35	6059.65
444.54	5928.58
444.73	6125.18
444.91	6258.59
445.10	6069.01
445.28	6059.65
445.47	5832.62
445.65	5961.34
445.84	5975.39
446.02	6073.69
446.21	6071.35
446.39	6246.89
446.58	6183.70
446.77	6303.06
446.95	6157.95
447.14	6171.99
447.32	6059.65
447.51	6003.47
447.69	6197.74
447.88	6083.05
448.06	6129.86
448.25	6291.36
448.43	6307.74
448.62	6258.59
448.80	6235.19
448.99	6338.17
449.17	6340.51
449.36	6532.44
449.54	6380.30
449.73	6651.80
449.91	6483.28
450.10	6626.06
450.28	6651.80
450.46	6808.62
450.65	6794.58
450.83	6668.19
451.02	6513.71
451.20	6644.78
451.39	6684.57
451.57	6684.57
451.76	6864.79
451.94	6750.10
452.13	6848.41
452.31	6623.72
452.49	6583.93
452.68	6621.38
452.86	6656.48
453.05	6764.15
453.23	6825.00
453.42	6925.65
453.60	6846.07
453.78	6899.90
453.97	6899.90
454.15	6717.34
454.34	6803.94
454.52	6951.39
454.70	7236.94
454.89	7073.10
455.07	6785.21
455.26	7103.53
455.44	7185.44
455.62	7164.38
455.81	7407.80
455.99	7300.13
456.17	7356.30
456.36	7206.51
456.54	7442.90
456.73	7604.40
456.91	7599.72
457.09	7487.37
457.28	7548.23
457.46	7527.16
457.64	7721.43
457.83	7513.12
458.01	7431.20
458.19	7681.64
458.38	7606.74
458.56	7653.55
458.74	7702.70
458.93	7655.89
459.11	7728.45
459.29	7674.62
459.48	7726.11
459.66	7714.41
459.84	7742.49
460.03	7948.46
460.21	7852.50
460.39	7985.91
460.57	7838.45
460.76	7896.97
460.94	8086.55
461.12	8016.33
461.31	7969.52
461.49	8105.28
461.67	8067.83
461.85	8184.85
462.04	8194.22
462.22	8360.39
462.40	7941.44
462.59	8280.82
462.77	8276.13
462.95	8376.78
463.13	8173.15
463.32	8325.29
463.50	8444.65
463.68	8283.16
463.86	8344.01
464.05	8217.62
464.23	8322.94
464.41	8451.67
464.59	8348.69
464.78	8552.32
464.96	8432.95
465.14	8421.25
465.32	8519.55
465.50	8704.45
465.69	8545.30
465.87	8594.45
466.05	8603.81
466.23	8599.13
466.41	8503.17
466.60	8767.65
466.78	8575.72
466.96	8606.15
467.14	8791.05
467.32	8912.76
467.51	8919.78
467.69	8374.44
467.87	8662.32
468.05	8842.54
468.23	9048.51
468.41	8933.82
468.60	8840.20
468.78	9039.15
468.96	8800.41
469.14	9013.40
469.32	9025.11
469.50	8917.44
469.69	9217.03
469.87	9081.28
470.05	9193.62
470.23	9156.18
470.41	9231.07
470.59	9284.91
470.77	9174.90
470.95	9317.67
471.14	9408.95
471.32	9231.07
471.50	9434.70
471.68	9542.36
471.86	9788.12
472.04	9324.69
472.22	9832.59
472.40	9687.48
472.58	9783.44
472.77	9729.61
472.95	9951.96
473.13	9935.57
473.31	9970.68
473.49	9912.17
473.67	9895.78
473.85	9940.26
474.03	10122.82
474.21	10115.80
474.39	10321.76
474.57	10448.15
474.75	10291.34
474.93	10434.11
475.12	10427.09
475.30	10565.18
475.48	10347.51
475.66	10523.05
475.84	10640.08
476.02	10537.09
476.20	10630.71
476.38	10977.11
476.56	10984.13
476.74	11241.59
476.92	10771.15
477.10	11201.80
477.28	11468.62
477.46	11527.14
477.64	11714.38
477.82	11412.45
478.00	11854.81
478.18	11410.11
478.36	11754.17
478.54	11885.24
478.72	11887.58
478.90	12175.47
479.08	12269.09
479.26	12386.12
479.44	12102.91
479.62	12334.62
479.80	12388.46
479.98	12594.42
480.16	12755.92
480.34	12835.50
480.52	13128.06
480.70	12985.29
480.88	12868.27
481.06	13083.59
481.24	13132.75
481.41	13334.03
481.59	13549.36
481.77	13441.70
481.95	13544.68
482.13	13699.16
482.31	13741.29
482.49	13963.64
482.67	13853.63
482.85	14045.55
483.03	14164.92
483.21	14457.49
483.39	14389.61
483.57	14281.95
483.74	14523.02
483.92	14633.03
484.10	14670.48
484.28	14927.94
484.46	15300.08
484.64	15534.14
484.82	15276.68
485.00	15344.55
485.18	15124.54
485.35	15609.03
485.53	15335.19
485.71	15585.63
485.89	15737.76
486.07	15552.86
486.25	15885.22
486.43	15840.75
486.61	16350.98
486.78	16545.25
486.96	16589.72
487.14	16849.52
487.32	16662.27
487.50	16776.96
487.68	17252.09
487.85	17226.34
488.03	17528.27
488.21	17703.81
488.39	17326.99
488.57	17535.29
488.75	17727.22
488.92	18183.62
489.10	17947.23
489.28	18396.61
489.46	18427.04
489.64	18249.16
489.81	18796.84
489.99	19133.88
490.17	18883.44
490.35	19094.09
490.53	19051.96
490.70	19321.12
490.88	19452.19
491.06	19538.79
491.24	19564.54
491.41	19571.56
491.59	19524.75
491.77	19704.97
491.95	19899.23
492.13	20217.55
492.30	20336.91
492.48	20884.60
492.66	20629.48
492.84	20430.54
493.01	20851.83
493.19	20685.65
493.37	20893.96
493.54	20884.60
493.72	21282.49
493.90	21249.72
494.08	21605.49
494.25	21717.83
494.43	21972.95
494.61	22216.36
494.79	21727.19
494.96	21860.60
495.14	22022.10
495.32	22228.07
495.49	22537.02
495.67	22579.15
495.85	22852.99
496.02	22738.30
496.20	22757.03
496.38	23185.35
496.55	23105.77
496.73	23569.19
496.91	23594.94
497.09	23606.64
497.26	23564.51
497.44	23358.55
497.62	23714.31
497.79	24056.03
497.97	23665.16
498.14	23866.44
498.32	24379.02
498.50	24355.61
498.67	24671.59
498.85	24608.39
499.03	24936.07
499.20	24922.02
499.38	24982.88
499.56	24870.53
499.73	25032.03
499.91	25085.86
500.08	24938.41
500.26	24797.98
500.44	25411.20
500.61	25200.55
500.79	25617.16
500.97	25582.06
501.14	25965.90
501.32	25902.71
501.49	25453.33
501.67	25722.49
501.84	26108.68
502.02	26176.55
502.20	26319.32
502.37	26286.56
502.55	26478.48
502.72	26511.25
502.90	26602.53
503.07	26642.32
503.25	26639.98
503.43	26675.09
503.60	26785.09
503.78	26951.27
503.95	26897.44
504.13	26836.58
504.30	27063.61
504.48	27129.15
504.65	27283.62
504.83	27374.91
505.01	27651.09
505.18	27470.87
505.36	27882.80
505.53	27737.69
505.71	28058.34
505.88	28140.26
506.06	27754.07
506.23	28257.29
506.41	28135.58
506.58	28496.02
506.76	28512.41
506.93	28271.33
507.11	28470.28
507.28	28297.08
507.46	28264.31
507.63	28957.11
507.81	28940.72
507.98	28608.37
508.16	29078.82
508.33	29191.16
508.50	29139.67
508.68	29406.49
508.85	29631.18
509.03	29050.73
509.20	29642.88
509.38	29656.93
509.55	29312.87
509.73	29752.89
509.90	29951.84
510.08	30108.65
510.25	29984.60
510.42	30085.25
510.60	30415.26
510.77	30272.49
510.95	30335.68
511.12	30022.05
511.30	30562.72
511.47	30782.73
511.64	30789.75
511.82	30810.81
511.99	30536.97
512.17	31182.96
512.34	30576.76
512.51	30878.69
512.69	31122.10
512.86	30817.83
513.04	31122.10
513.21	31136.15
513.38	31292.96
513.56	31557.44
513.73	31346.79
513.90	31552.76
514.08	31491.91
514.25	31924.91
514.43	31653.40
514.60	31756.39
514.77	31833.63
514.95	32030.23
515.12	32046.62
515.29	32350.88
515.47	32367.27
515.64	32346.20
515.81	32133.21
515.99	32348.54
516.16	32320.46
516.33	31880.44
516.51	32439.82
516.68	32182.37
516.85	31901.50
517.03	32123.85
517.20	32563.87
517.37	32809.63
517.54	32762.82
517.72	32701.96
517.89	32781.54
518.06	32680.90
518.24	32751.12
518.41	32697.28
518.58	33022.62
518.75	32912.61
518.93	33235.61
519.10	33247.31
519.27	33139.65
519.45	33567.96
519.62	33598.39
519.79	33942.45
519.96	33500.09
520.14	34022.03
520.31	33619.46
520.48	34029.05
520.65	33921.38
520.83	34455.03
521.00	34457.37
521.17	34696.10
521.34	34422.26
521.52	34508.86
521.69	34403.53
521.86	34742.91
522.03	34527.58
522.20	34689.08
522.38	34686.74
522.55	34848.24
522.72	34738.23
522.89	34808.45
523.07	35145.48
523.24	35218.04
523.41	35171.23
523.58	35049.52
523.75	35426.35
523.92	35805.52
524.10	35587.85
524.27	35700.19
524.44	35323.36
524.61	35641.68
524.78	36271.28
524.96	35803.17
525.13	36297.03
525.30	36060.63
525.47	36395.33
525.64	36086.38
525.81	35861.69
525.98	35718.92
526.16	35955.31
526.33	35924.88
526.50	36170.64
526.67	35915.52
526.84	36121.49
527.01	35995.10
527.18	36446.82
527.36	36233.83
527.53	36261.92
527.70	36947.70
527.87	36418.74
528.04	36458.52
528.21	37212.18
528.38	36701.94
528.55	37397.08
528.72	37479.00
528.89	37497.72
529.07	37118.56
529.24	37247.29
529.41	37191.11
529.58	37294.10
529.75	37256.65
529.92	37715.39
530.09	37549.21
530.26	37289.42
530.43	37256.65
530.60	37308.14
530.77	37577.30
530.94	37879.23
531.11	37780.93
531.28	38057.11
531.46	37970.51
531.63	37998.60
531.80	37647.52
531.97	37773.91
532.14	38005.62
532.31	37652.20
532.48	37956.47
532.65	37916.68
532.82	38033.71
532.99	38281.80
533.16	37881.57
533.33	38127.33
533.50	38349.68
533.67	38462.02
533.84	38178.82
534.01	38756.93
534.18	38396.49
534.35	38749.91
534.52	38644.59
534.69	39084.61
534.86	38955.88
535.03	38998.01
535.20	39332.70
535.37	39761.02
535.54	39351.43
535.71	38969.92
535.88	39386.54
536.05	38888.00
536.22	39248.44
536.38	39531.65
536.55	39578.46
536.72	39124.40
536.89	39250.78
537.06	39201.63
537.23	39494.20
537.40	39461.43
537.57	39332.70
537.74	39718.89
537.91	39981.03
538.08	39524.63
538.25	39356.11
538.42	39562.08
538.59	39782.09
538.75	39269.51
538.92	39784.43
539.09	39826.56
539.26	40081.67
539.43	40023.16
539.60	39969.33
539.77	39775.06
539.94	40018.48
540.11	39838.26
540.28	39974.01
540.44	40137.85
540.61	40072.31
540.78	39786.77
540.95	40268.92
541.12	40114.44
541.29	40142.53
541.46	39929.54
541.62	40507.65
541.79	40708.94
541.96	40325.09
542.13	40378.92
542.30	40381.26
542.47	40591.91
542.63	40505.31
542.80	40961.72
542.97	41380.67
543.14	41167.68
543.31	41053.00
543.48	41209.81
543.64	41586.64
543.81	41221.52
543.98	41214.49
544.15	41064.70
544.32	41581.96
544.48	41780.90
544.65	41614.72
544.82	41748.14
544.99	41331.52
545.16	41652.17
545.32	41193.43
545.49	41801.97
545.66	41947.08
545.83	42005.59
546.00	41860.48
546.16	41455.57
546.33	41471.95
546.50	41525.78
546.67	41762.18
546.83	41500.04
547.00	41776.22
547.17	41516.42
547.34	41713.03
547.50	42197.52
547.67	42181.13
547.84	42078.15
548.00	42195.18
548.17	42131.98
548.34	41918.99
548.51	42321.57
548.67	42202.20
548.84	42649.24
549.01	42075.81
549.18	42103.90
549.34	42284.12
549.51	42293.48
549.68	42548.60
549.84	42553.28
550.01	42356.67
550.18	42646.90
550.34	42309.86
550.51	42520.51
550.68	42642.22
550.84	42082.83
551.01	42658.60
551.18	42876.27
551.34	42656.26
551.51	42988.62
551.68	42775.63
551.84	42733.50
552.01	42653.92
552.18	42330.93
552.34	42855.21
552.51	43213.31
552.68	42637.54
552.84	43056.50
553.01	43257.78
553.18	42967.55
553.34	43014.37
553.51	43016.71
553.67	43147.78
553.84	43459.07
554.01	43459.07
554.17	43442.68
554.34	43351.40
554.51	43316.29
554.67	43756.32
554.84	43030.75
555.00	43779.72
555.17	43072.88
555.33	42906.70
555.50	43047.13
555.67	43182.88
555.83	43257.78
556.00	43728.23
556.16	44172.93
556.33	43599.50
556.50	43438.00
556.66	43353.74
556.83	43517.58
556.99	43636.95
557.16	43779.72
557.32	43639.29
557.49	43580.78
557.65	42948.83
557.82	43735.25
557.98	43847.60
558.15	43922.49
558.32	43756.32
558.48	43636.95
558.65	43674.40
558.81	43796.10
558.98	43892.07
559.14	43618.22
559.31	43775.04
559.47	44020.80
559.64	43817.17
559.80	43775.04
559.97	43810.15
560.13	43688.44
560.30	43650.99
560.46	43934.20
560.63	44884.45
560.79	44275.91
560.96	44304.00
561.12	44395.28
561.29	44093.35
561.45	44112.08
561.61	43629.93
561.78	44053.56
561.94	43952.92
562.11	44446.77
562.27	44126.12
562.44	44112.08
562.60	44421.03
562.77	44208.04
562.93	44308.68
563.10	44758.06
563.26	44198.68
563.42	44121.44
563.59	44601.25
563.75	43966.96
563.92	44524.01
564.08	44088.67
564.24	43948.24
564.41	44636.36
564.57	44404.64
564.74	44095.69
564.90	44634.02
565.07	44619.97
565.23	44051.22
565.39	44390.60
565.56	44397.62
565.72	44203.36
565.88	44516.99
566.05	44519.33
566.21	44439.75
566.38	44098.03
566.54	44718.28
566.70	44481.88
566.87	44659.76
567.03	44940.63
567.19	45036.59
567.36	44788.49
567.52	44652.74
567.68	44617.63
567.85	44502.95
568.01	44313.36
568.17	44626.99
568.34	44615.29
568.50	44484.22
568.66	44252.51
568.83	44666.78
568.99	44313.36
569.15	44182.29
569.32	44516.99
569.48	44044.20
569.64	44769.77
569.81	44875.09
569.97	45118.51
570.13	44774.45
570.30	44219.74
570.46	44144.84
570.62	44488.90
570.78	44301.66
570.95	44224.42
571.11	44683.17
571.27	44715.93
571.43	44847.00
571.60	44568.48
571.76	44570.82
571.92	44643.38
572.09	44947.65
572.25	44280.60
572.41	44582.52
572.57	44727.64
572.74	45373.63
572.90	44671.46
573.06	44559.12
573.22	44479.54
573.38	44790.83
573.55	44631.68
573.71	44900.84
573.87	44779.13
574.03	44875.09
574.20	44772.11
574.36	44847.00
574.52	44699.55
574.68	44804.88
574.84	44779.13
575.01	44870.41
575.17	44954.67
575.33	44509.97
575.49	44439.75
575.65	45155.96
575.82	45556.19
575.98	44807.22
576.14	45024.89
576.30	44610.61
576.46	44912.54
576.62	44790.83
576.79	45013.18
576.95	44634.02
577.11	44418.69
577.27	44893.82
577.43	45050.63
577.59	44889.13
577.75	44933.60
577.92	44559.12
578.08	44795.51
578.24	44315.70
578.40	44753.38
578.56	44896.16
578.72	44882.11
578.88	45106.80
579.04	45036.59
579.21	44741.68
579.37	44938.29
579.53	45399.37
579.69	44870.41
579.85	44722.96
580.01	44942.97
580.17	44741.68
580.33	45034.25
580.49	45109.14
580.65	45205.11
580.82	45109.14
580.98	45088.08
581.14	44809.56
581.30	45537.46
581.46	45095.10
581.62	45010.84
581.78	45186.38
581.94	44825.94
582.10	44645.72
582.26	45275.32
582.42	45247.24
582.58	44947.65
582.74	44847.00
582.90	44856.37
583.06	45104.46
583.22	45160.64
583.38	45057.65
583.54	45139.57
583.70	44917.22
583.86	45474.27
584.02	44568.48
584.18	45193.40
584.34	45055.31
584.50	44718.28
584.66	44940.63
584.82	44889.13
584.98	45031.91
585.14	45322.13
585.30	44996.80
585.46	45144.25
585.62	44767.43
585.78	45404.05
585.94	44509.97
586.10	44847.00
586.26	45195.74
586.42	44664.44
586.58	45462.57
586.74	45212.13
586.90	44957.01
587.06	45242.56
587.22	45261.28
587.38	44753.38
587.54	45027.23
587.70	45090.42
587.86	45329.16
588.02	45102.12
588.18	45640.45
588.34	44825.94
588.49	44975.73
588.65	45109.14
588.81	44655.08
588.97	44891.48
589.13	44753.38
589.29	44755.72
589.45	45020.20
589.61	45406.39
589.77	45078.72
589.93	45162.98
590.08	44949.99
590.24	45464.91
590.40	45188.72
590.56	45516.40
590.72	45446.18
590.88	45081.06
591.04	45600.66
591.20	45425.12
591.35	45944.72
591.51	45808.96
591.67	45076.38
591.83	45380.65
591.99	45212.13
592.15	45212.13
592.31	45411.07
592.46	45181.70
592.62	45244.90
592.78	45270.64
592.94	45614.70
593.10	45284.68
593.26	45558.53
593.41	45551.51
593.57	45146.59
593.73	45392.35
593.89	45565.55
594.05	45090.42
594.20	45677.90
594.36	45387.67
594.52	45345.54
594.68	45375.97
594.84	45015.52
594.99	45806.62
595.15	45090.42
595.31	45411.07
595.47	45282.34
595.62	45958.76
595.78	45516.40
595.94	45614.70
596.10	45652.15
596.25	45727.05
596.41	45649.81
596.57	44875.09
596.73	45783.22
596.88	44942.97
597.04	45261.28
597.20	45764.49
597.36	45785.56
597.51	45832.37
597.67	45577.25
597.83	45406.39
597.99	46328.56
598.14	45605.34
598.30	45642.79
598.46	45663.85
598.61	45422.78
598.77	44938.29
598.93	45364.26
599.09	45504.70
599.24	45528.10
599.40	45528.10
599.56	45710.66
599.71	45673.21
599.87	45780.88
600.03	45460.23
600.18	45488.31
600.34	45640.45
600.50	45546.82
600.65	45394.69
600.81	45464.91
600.97	45315.11
601.12	45841.73
601.28	45364.26
601.44	45457.88
601.59	45537.46
601.75	45146.59
601.91	45155.96
602.06	45207.45
602.22	45076.38
602.37	45287.03
602.53	45106.80
602.69	45783.22
602.84	45223.83
603.00	45123.19
603.16	45305.75
603.31	45572.57
603.47	45296.39
603.62	45296.39
603.78	45373.63
603.94	45244.90
604.09	45846.41
604.25	45614.70
604.40	45525.76
604.56	45446.18
604.71	45382.99
604.87	44802.53
605.03	45207.45
605.18	45233.19
605.34	45155.96
605.49	44907.86
605.65	45434.48
605.80	45200.43
605.96	45476.61
606.12	45427.46
606.27	45886.20
606.43	45305.75
606.58	45291.71
606.74	44954.67
606.89	45282.34
607.05	45162.98
607.20	45256.60
607.36	45003.82
607.51	45029.57
607.67	45205.11
607.82	45006.16
607.98	45111.49
608.13	44783.81
608.29	44985.10
608.44	44418.69
608.60	44751.04
608.75	45034.25
608.91	44746.36
609.06	45031.91
609.22	45109.14
609.37	44774.45
609.53	44968.71
609.68	44706.57
609.84	44680.83
609.99	45059.99
610.15	44715.93
610.30	44657.42
610.46	44601.25
610.61	44650.40
610.76	44671.46
610.92	44650.40
611.07	45127.87
611.23	44732.32
611.38	44666.78
611.54	44729.98
611.69	45078.72
611.84	44779.13
612.00	44435.07
612.15	44547.42
612.31	44877.43
612.46	44760.40
612.62	44369.54
612.77	44589.55
612.92	45015.52
613.08	44924.24
613.23	44458.48
613.39	44524.01
613.54	43817.17
613.69	44460.82
613.85	44540.39
614.00	44210.38
614.15	44868.07
614.31	44905.52
614.46	44608.27
614.62	44919.56
614.77	44074.63
614.92	44208.04
615.08	44360.17
615.23	44215.06
615.38	44320.38
615.54	44107.40
615.69	44500.61
615.84	43798.44
616.00	44514.65
616.15	44210.38
616.30	43955.26
616.46	43536.30
616.61	43466.09
616.76	43569.07
616.92	43358.42
617.07	43707.16
617.22	43454.39
617.37	43543.33
617.53	43835.89
617.68	44374.22
617.83	44076.97
617.99	44561.46
618.14	43838.23
618.29	44032.50
618.45	43484.81
618.60	43346.72
618.75	43878.02
618.90	43943.56
619.06	44196.34
619.21	43938.88
619.36	43803.13
619.51	43639.29
619.67	43688.44
619.82	44189.31
619.97	44025.48
620.12	43833.55
620.28	43288.21
620.43	43335.02
620.58	43704.82
620.73	43473.11
620.89	43475.45
621.04	43613.54
621.19	43072.88
621.34	43608.86
621.49	43536.30
621.65	43138.41
621.80	43157.14
621.95	43037.77
622.10	43234.38
622.25	43014.37
622.41	43173.52
622.56	42810.74
622.71	43100.97
622.86	42667.97
623.01	42902.02
623.16	42803.72
623.32	43269.48
623.47	43035.43
623.62	42927.77
623.77	42724.14
623.92	42958.19
624.07	43096.28
624.23	43124.37
624.38	42281.78
624.53	42403.49
624.68	42656.26
624.83	42525.19
624.98	42944.15
625.13	42724.14
625.29	42721.80
625.44	42431.57
625.59	42347.31
625.74	42459.66
625.89	42106.24
626.04	42101.56
626.19	42167.09
626.34	42546.26
626.49	42391.78
626.65	42188.16
626.80	42380.08
626.95	42415.19
627.10	42026.66
627.25	42082.83
627.40	42033.68
627.55	42113.26
627.70	41785.58
627.85	41876.86
628.00	42026.66
628.15	42061.77
628.30	41790.27
628.45	42375.40
628.60	42106.24
628.76	41764.52
628.91	41818.35
629.06	42000.91
629.21	41738.77
629.36	41666.22
629.51	41495.36
629.66	41399.40
629.81	41811.33
629.96	41645.15
630.11	41663.88
630.26	41813.67
630.41	41970.49
630.56	42277.10
630.71	41698.98
630.86	41256.62
631.01	41593.66
631.16	41588.98
631.31	41385.35
631.46	41284.71
631.61	41184.07
631.76	41390.03
631.91	41436.84
632.06	41273.01
632.21	41668.56
632.36	41872.18
632.51	40872.78
632.66	41008.53
632.81	41275.35
632.96	41345.56
633.10	41064.70
633.25	41163.00
633.40	41160.66
633.55	41268.33
633.70	41081.08
633.85	40840.01
634.00	41350.24
634.15	40957.03
634.30	40931.29
634.45	41277.69
634.60	41207.47
634.75	41258.96
634.90	40854.05
635.05	40605.95
635.19	40311.05
635.34	41207.47
635.49	40133.17
635.64	40554.46
635.79	40837.67
635.94	41062.36
636.09	40694.89
636.24	40669.15
636.39	40491.27
636.53	40575.53
636.68	40308.71
636.83	40699.58
636.98	40603.61
637.13	40093.38
637.28	40444.46
637.43	40802.56
637.57	40409.35
637.72	40823.62
637.87	40673.83
638.02	40472.54
638.17	40861.07
638.32	40243.17
638.46	40463.18
638.61	40088.70
638.76	40114.44
638.91	40353.18
639.06	40301.68
639.20	40226.79
639.35	40369.56
639.50	39821.87
639.65	40627.02
639.80	40470.20
639.94	40273.60
640.09	39859.32
640.24	39856.98
640.39	39550.37
640.54	40156.57
640.68	39796.13
640.83	40123.80
640.98	39737.62
641.13	39643.99
641.27	39992.73
641.42	39667.40
641.57	39611.23
641.72	39899.11
641.86	39751.66
642.01	39695.49
642.16	39599.52
642.31	39196.95
642.45	39770.38
642.60	39599.52
642.75	39681.44
642.90	39487.18
643.04	38906.73
643.19	39182.91
643.34	39189.93
643.48	39040.14
643.63	38948.85
643.78	39002.69
643.93	38876.30
644.07	39012.05
644.22	39278.87
644.37	38871.62
644.51	39323.34
644.66	39332.70
644.81	39365.47
644.95	39690.80
645.10	39402.92
645.25	39136.10
645.39	39213.34
645.54	39299.94
645.69	38927.79
645.83	38913.75
645.98	38965.24
646.13	39103.33
646.27	39182.91
646.42	38967.58
646.57	38892.68
646.71	38841.19
646.86	39257.81
647.00	38932.47
647.15	38988.64
647.30	38993.32
647.44	38604.80
647.59	38892.68
647.74	38843.53
647.88	38651.61
648.03	39248.44
648.17	38752.25
648.32	38462.02
648.47	38368.40
648.61	38827.15
648.76	38499.47
648.90	38635.22
649.05	38532.24
649.20	38529.90
649.34	38850.55
649.49	38394.15
649.63	38281.80
649.78	38080.52
649.92	38087.54
650.07	38796.72
650.21	37972.85
650.36	38345.00
650.51	38380.10
650.65	38473.73
650.80	38433.94
650.94	38639.90
651.09	38141.37
651.23	38124.99
651.38	38155.41
651.52	38110.94
651.67	37631.13
651.81	38146.05
651.96	37879.23
652.10	37794.97
652.25	37553.90
652.39	37633.47
652.54	37893.27
652.68	37844.12
652.83	38272.44
652.97	38251.38
653.12	37902.64
653.26	37720.07
653.41	37848.80
653.55	37801.99
653.70	37792.63
653.84	37537.51
653.99	37827.74
654.13	37385.38
654.27	37607.73
654.42	37205.16
654.56	37390.06
654.71	37603.05
654.85	37434.53
655.00	37322.18
655.14	37160.69
655.29	37413.46
655.43	37413.46
655.57	36746.41
655.72	36788.54
655.86	37085.79
656.01	36814.29
656.15	36802.58
656.30	37062.38
656.44	36851.73
656.58	37057.70
656.73	36863.44
656.87	36737.05
657.01	36987.49
657.16	36605.98
657.30	36992.17
657.45	36896.20
657.59	37001.53
657.73	36500.65
657.88	36957.06
658.02	36730.03
658.16	36617.68
658.31	36781.52
658.45	37235.58
658.60	36678.54
658.74	36570.87
658.88	36535.76
659.03	36512.36
659.17	36783.86
659.31	36348.52
659.46	36442.14
659.60	36409.37
659.74	36070.00
659.89	36409.37
660.03	36044.25
660.17	36238.51
660.32	36275.96
660.46	36601.30
660.60	36313.41
660.74	36020.84
660.89	35887.43
661.03	36046.59
661.17	35924.88
661.32	35356.13
661.46	35604.23
661.60	35468.48
661.74	35957.65
661.89	35777.43
662.03	36119.15
662.17	35503.59
662.31	35620.61
662.46	35646.36
662.60	35234.42
662.74	35632.32
662.88	35211.02
663.03	35367.84
663.17	35171.23
663.31	35082.29
663.45	35419.33
663.60	34749.93
663.74	35407.62
663.88	35091.65
664.02	35133.78
664.17	34806.11
664.31	35021.44
664.45	34965.26
664.59	34834.19
664.73	34803.77
664.88	35363.15
665.02	34569.71
665.16	34672.70
665.30	34398.85
665.44	34345.02
665.59	34281.83
665.73	34356.72
665.87	34216.29
666.01	34387.15
666.15	34462.05
666.29	34338.00
666.44	34258.42
666.58	34061.82
666.72	34288.85
666.86	34047.77
667.00	33860.53
667.14	33858.19
667.28	33806.70
667.43	33586.69
667.57	33715.42
667.71	33949.47
667.85	33661.58
667.99	33860.53
668.13	33214.54
668.27	33567.96
668.41	33642.86
668.56	33195.82
668.70	33619.46
668.84	33502.43
668.98	33085.81
669.12	32961.76
669.26	32980.49
669.40	32823.67
669.54	32844.74
669.68	33233.27
669.82	32924.32
669.96	32133.21
670.10	32589.62
670.25	32790.91
670.39	32802.61
670.53	32425.78
670.67	32521.74
670.81	32416.42
670.95	32936.02
671.09	32371.95
671.23	32376.63
671.37	32020.87
671.51	32556.85
671.65	31957.67
671.79	31894.48
671.93	31723.62
672.07	31962.36
672.21	32304.07
672.35	32067.68
672.49	32023.21
672.63	31922.57
672.77	31709.58
672.91	31559.78
673.05	31552.76
673.19	31351.48
673.33	31243.81
673.47	31189.98
673.61	30838.90
673.75	31084.65
673.89	30733.57
674.03	30874.01
674.17	30890.39
674.31	31058.91
674.45	31185.30
674.59	30785.07
674.73	31124.44
674.87	30810.81
675.01	30445.69
675.15	30724.21
675.29	30419.94
675.43	30476.12
675.56	30305.26
675.70	30363.77
675.84	30354.41
675.98	29757.57
676.12	29984.60
676.26	29961.20
676.40	29923.75
676.54	30143.76
676.68	30073.54
676.82	29549.26
676.96	29523.52
677.10	29502.45
677.23	29200.52
677.37	29371.38
677.51	29099.88
677.65	28711.35
677.79	28563.90
677.93	28907.96
678.07	28896.25
678.21	28886.89
678.34	28603.69
678.48	28357.93
678.62	28304.10
678.76	28123.88
678.90	28259.63
679.04	27997.49
679.18	27917.91
679.31	27864.08
679.45	27601.94
679.59	27615.98
679.73	27620.66
679.87	27803.22
680.00	27323.41
680.14	27564.49
680.28	27037.87
680.42	27402.99
680.56	27665.13
680.70	27068.30
680.83	27199.37
680.97	27154.90
681.11	27379.59
681.25	26733.60
681.39	26658.70
681.52	26977.01
681.66	26651.68
681.80	26522.95
681.94	26258.47
682.07	26501.89
682.21	26492.52
682.35	26178.89
682.49	26368.48
682.62	26286.56
682.76	26115.70
682.90	26033.78
683.04	26059.52
683.17	25582.06
683.31	25415.88
683.45	25600.78
683.59	25294.17
683.72	25123.31
683.86	25308.21
684.00	25074.16
684.13	25355.02
684.27	24975.86
684.41	25032.03
684.55	24535.84
684.68	24884.58
684.82	24776.91
684.96	24865.85
685.09	24467.96
685.23	24421.15
685.37	24339.23
685.50	24442.21
685.64	24592.01
685.78	23843.04
685.91	24212.84
686.05	23798.57
686.19	23889.85
686.32	23969.43
686.46	23510.68
686.60	23147.90
686.73	23154.92
686.87	23222.80
687.01	22876.40
687.14	22967.68
687.28	22785.12
687.42	22796.82
687.55	22885.76
687.69	23194.71
687.82	22970.02
687.96	23042.57
688.10	22764.05
688.23	22700.86
688.37	22520.63
688.50	22307.65
688.64	22190.62
688.78	22478.50
688.91	22092.32
689.05	21862.94
689.18	22370.84
689.32	21619.53
689.46	21720.17
689.59	21727.19
689.73	22080.61
689.86	22005.72
690.00	21467.39
690.13	21687.40
690.27	21535.27
690.41	21589.10
690.54	21153.76
690.68	21216.96
690.81	20908.01
690.95	21144.40
691.08	20844.81
691.22	20924.39
691.35	21106.95
691.49	20856.51
691.62	20926.73
691.76	20535.86
691.89	20542.88
692.03	20664.59
692.16	20304.15
692.30	20252.66
692.43	20137.97
692.57	20037.33
692.70	19840.72
692.84	19822.00
692.97	20086.48
693.11	19576.24
693.24	19726.04
693.38	19798.59
693.51	19611.35
693.65	19520.07
693.78	19735.40
693.92	19667.52
694.05	19227.50
694.19	19391.34
694.32	18881.10
694.45	19049.62
694.59	18862.38
694.72	18771.10
694.86	18757.05
694.99	18721.95
695.13	18618.96
695.26	18579.17
695.39	17935.53
695.53	18471.51
695.66	18450.44
695.80	18511.30
695.93	18427.04
696.07	18143.83
696.20	18277.24
696.33	18253.84
696.47	18104.04
696.60	17736.58
696.73	17752.96
696.87	17827.86
697.00	17776.37
697.14	17731.90
697.27	17497.84
697.40	17584.44
697.54	17661.68
697.67	17294.22
697.80	17123.36
697.94	17114.00
698.07	17060.16
698.21	16891.65
698.34	16573.33
698.47	16657.59
698.61	16444.60
698.74	16629.51
698.87	16297.15
699.01	16533.54
699.14	16243.32
699.27	15763.51
699.40	16051.39
699.54	15674.57
699.67	15957.77
699.80	16046.71
699.94	15845.43
700.07	15936.71
700.20	15616.05
700.34	15665.21
700.47	15707.34
700.60	15901.60
700.73	15917.98
700.87	15688.61
701.00	15585.63
701.13	15515.41
701.26	15255.61
701.40	15229.87
701.53	15103.48
701.66	15374.98
701.79	15115.18
701.93	14876.44
702.06	15185.40
702.19	14918.57
702.32	14731.33
702.46	14691.54
702.59	14438.76
702.72	14682.18
702.85	14794.53
702.99	14906.87
703.12	14551.11
703.25	14185.99
703.38	14368.55
703.51	14080.66
703.65	14129.81
703.78	14132.15
703.91	13951.93
704.04	13987.04
704.17	13881.72
704.31	13996.40
704.44	13685.11
704.57	13818.52
704.70	13708.52
704.83	13626.60
704.96	13647.66
705.10	13516.59
705.23	13621.92
>>>>>End Processed Spectral Data<<<<<
