SpectraSuite Data File
++++++++++++++++++++++++++++++++++++
Date: Fri Oct 25 10:44:38 EDT 2013
User: price-jones
Dark Spectrum Present: No
Reference Spectrum Present: No
Number of Sampled Component Spectra: 1
Spectrometers: USB2+H05261
Integration Time (usec): 100000 (USB2+H05261)
Spectra Averaged: 1 (USB2+H05261)
Boxcar Smoothing: 0 (USB2+H05261)
Correct for Electrical Dark: No (USB2+H05261)
Strobe/Lamp Enabled: No (USB2+H05261)
Correct for Detector Non-linearity: No (USB2+H05261)
Correct for Stray Light: No (USB2+H05261)
Number of Pixels in Processed Spectrum: 2048
>>>>>Begin Processed Spectral Data<<<<<
365.73	88.94
365.92	88.94
366.12	88.94
366.32	86.60
366.52	44.47
366.72	39.79
366.91	0.00
367.11	37.45
367.31	0.00
367.51	0.00
367.70	0.00
367.90	30.43
368.10	0.00
368.30	56.17
368.49	0.00
368.69	63.19
368.89	32.77
369.09	0.00
369.28	58.51
369.48	84.26
369.68	67.88
369.87	102.98
370.07	93.62
370.27	173.20
370.47	170.86
370.66	283.20
370.86	287.89
371.06	414.27
371.25	430.66
371.45	433.00
371.65	477.47
371.84	437.68
372.04	372.15
372.24	421.30
372.44	475.13
372.63	442.36
372.83	514.92
373.03	528.96
373.22	456.40
373.42	468.11
373.62	519.60
373.81	503.22
374.01	535.98
374.21	524.28
374.40	414.27
374.60	613.22
374.79	547.69
374.99	491.51
375.19	475.13
375.38	573.43
375.58	493.85
375.78	531.30
375.97	559.39
376.17	622.58
376.37	552.37
376.56	585.13
376.76	585.13
376.95	599.18
377.15	601.52
377.35	613.22
377.54	596.84
377.74	641.31
377.93	608.54
378.13	608.54
378.33	545.34
378.52	648.33
378.72	664.71
378.91	723.23
379.11	573.43
379.31	664.71
379.50	526.62
379.70	603.86
379.89	653.01
380.09	653.01
380.28	606.20
380.48	655.35
380.68	606.20
380.87	655.35
381.07	655.35
381.26	650.67
381.46	765.36
381.65	648.33
381.85	629.60
382.04	667.05
382.24	763.01
382.43	615.56
382.63	662.37
382.83	702.16
383.02	713.86
383.22	702.16
383.41	716.20
383.61	683.44
383.80	763.01
384.00	653.01
384.19	692.80
384.39	681.10
384.58	777.06
384.78	767.70
384.97	744.29
385.17	702.16
385.36	697.48
385.56	798.12
385.75	699.82
385.95	711.52
386.14	788.76
386.34	858.98
386.53	709.18
386.72	758.33
386.92	786.42
387.11	828.55
387.31	805.14
387.50	765.36
387.70	870.68
387.89	835.57
388.09	695.14
388.28	791.10
388.48	777.06
388.67	823.87
388.86	863.66
389.06	814.51
389.25	835.57
389.45	863.66
389.64	833.23
389.84	833.23
390.03	882.38
390.22	877.70
390.42	863.66
390.61	929.19
390.81	922.17
391.00	889.40
391.19	915.15
391.39	931.53
391.58	917.49
391.78	971.32
391.97	994.73
392.16	940.90
392.36	947.92
392.55	992.39
392.75	894.08
392.94	945.58
393.13	945.58
393.33	964.30
393.52	945.58
393.71	1029.84
393.91	1041.54
394.10	931.53
394.29	1004.09
394.49	999.41
394.68	1022.81
394.88	1132.82
395.07	1088.35
395.26	1121.12
395.46	1076.65
395.65	1078.99
395.84	1139.84
396.04	1151.54
396.23	1015.79
396.42	1109.41
396.62	1125.80
396.81	1111.75
397.00	1132.82
397.19	1153.88
397.39	1165.59
397.58	1249.85
397.77	1226.44
397.97	1144.52
398.16	1228.78
398.35	1299.00
398.55	1242.82
398.74	1254.53
398.93	1245.16
399.12	1228.78
399.32	1212.40
399.51	1355.17
399.70	1315.38
399.90	1366.87
400.09	1411.34
400.28	1409.00
400.47	1369.21
400.67	1476.88
400.86	1390.28
401.05	1465.18
401.24	1423.05
401.44	1488.58
401.63	1453.47
401.82	1472.20
402.01	1458.15
402.21	1584.54
402.40	1542.41
402.59	1446.45
402.78	1563.48
402.97	1563.48
403.17	1565.82
403.36	1593.90
403.55	1577.52
403.74	1591.56
403.93	1612.63
404.13	1696.89
404.32	1610.29
404.51	1645.40
404.70	1701.57
404.89	1685.19
405.09	1769.44
405.28	1643.06
405.47	1734.34
405.66	1830.30
405.85	1722.63
406.05	1720.29
406.24	1699.23
406.43	1788.17
406.62	1827.96
406.81	1893.49
407.00	1790.51
407.20	1781.15
407.39	1902.86
407.58	1891.15
407.77	1816.26
407.96	1874.77
408.15	1907.54
408.34	1940.30
408.54	1994.14
408.73	1942.64
408.92	2101.80
409.11	2069.03
409.30	2015.20
409.49	2132.23
409.68	2069.03
409.87	2033.93
410.07	2087.76
410.26	2195.42
410.45	2277.34
410.64	2097.12
410.83	2143.93
411.02	2111.16
411.21	2303.09
411.40	2256.28
411.59	2230.53
411.78	2289.04
411.98	2246.91
412.17	2310.11
412.36	2331.17
412.55	2387.35
412.74	2476.29
412.93	2443.52
413.12	2448.20
413.31	2626.08
413.50	2541.82
413.69	2513.74
413.88	2450.54
414.07	2637.78
414.26	2583.95
414.45	2548.84
414.64	2614.38
414.83	2815.66
415.02	2698.64
415.22	2656.51
415.41	2771.19
415.60	2656.51
415.79	2773.53
415.98	2855.45
416.17	2710.34
416.36	2839.07
416.55	2799.28
416.74	2827.37
416.93	2806.30
417.12	2864.82
417.31	2874.18
417.50	3101.21
417.69	3047.38
417.88	3052.06
418.07	3136.32
418.26	2991.20
418.45	3019.29
418.64	3141.00
418.83	3150.36
419.02	3112.91
419.21	3075.46
419.39	3077.80
419.58	3068.44
419.77	3243.98
419.96	3293.13
420.15	3316.54
420.34	3251.00
420.53	3337.60
420.72	3468.67
420.91	3307.18
421.10	3433.57
421.29	3456.97
421.48	3281.43
421.67	3398.46
421.86	3382.07
422.05	3382.07
422.24	3459.31
422.43	3428.88
422.61	3442.93
422.80	3552.93
422.99	3548.25
423.18	3503.78
423.37	3569.32
423.56	3590.38
423.75	3508.46
423.94	3435.91
424.13	3084.83
424.32	3236.96
424.50	3482.72
424.69	3613.79
424.88	3555.27
425.07	3351.65
425.26	3503.78
425.45	3543.57
425.64	3449.95
425.83	3559.95
426.01	3578.68
426.20	3583.36
426.39	3763.58
426.58	3489.74
426.77	3566.98
426.96	3524.85
427.15	3581.02
427.33	3740.18
427.52	3662.94
427.71	3639.53
427.90	3665.28
428.09	3674.64
428.28	3815.07
428.46	3768.26
428.65	3733.15
428.84	3761.24
429.03	3847.84
429.22	3655.92
429.40	3730.81
429.59	3812.73
429.78	3662.94
429.97	3536.55
430.16	3749.54
430.34	3761.24
430.53	3927.42
430.72	3777.62
430.91	3943.80
431.10	3896.99
431.28	3929.76
431.47	4250.41
431.66	4121.68
431.85	4049.13
432.03	4035.08
432.22	4255.09
432.41	4002.32
432.60	4245.73
432.79	4243.39
432.97	4236.37
433.16	4224.67
433.35	4301.90
433.54	4175.52
433.72	4196.58
433.91	4308.93
434.10	4212.96
434.28	4320.63
434.47	4484.47
434.66	4447.02
434.85	4465.74
435.03	4468.08
435.22	4411.91
435.41	4667.03
435.59	4521.92
435.78	4521.92
435.97	4645.96
436.16	4540.64
436.34	4664.69
436.53	4554.68
436.72	4681.07
436.90	4496.17
437.09	4629.58
437.28	4585.11
437.46	4512.55
437.65	4699.80
437.84	4685.75
438.02	4690.43
438.21	4636.60
438.40	4767.67
438.58	4835.55
438.77	4938.53
438.96	4793.42
439.14	5050.88
439.33	5011.09
439.52	5034.49
439.70	4971.30
439.89	5142.16
440.08	5221.74
440.26	5160.88
440.45	5076.62
440.63	5411.32
440.82	5362.17
441.01	5301.31
441.19	5207.69
441.38	5369.19
441.57	5444.09
441.75	5511.96
441.94	5640.69
442.12	5614.95
442.31	5530.69
442.50	5640.69
442.68	5533.03
442.87	5593.88
443.05	5596.22
443.24	5846.66
443.43	5696.86
443.61	5767.08
443.80	5760.06
443.98	5743.67
444.17	5577.50
444.35	5710.91
444.54	6022.20
444.73	5970.71
444.91	5863.04
445.10	5769.42
445.28	5849.00
445.47	5750.70
445.65	5638.35
445.84	5900.49
446.02	5881.77
446.21	5863.04
446.39	5891.13
446.58	5881.77
446.77	5858.36
446.95	5734.31
447.14	6043.26
447.32	6045.60
447.51	5823.25
447.69	5879.43
447.88	5994.11
448.06	5832.62
448.25	5977.73
448.43	5905.17
448.62	5975.39
448.80	5923.90
448.99	6040.92
449.17	6019.86
449.36	5982.41
449.54	6356.90
449.73	6284.34
449.91	6286.68
450.10	6160.29
450.28	6347.53
450.46	6363.92
450.65	6403.71
450.83	6417.75
451.02	6452.86
451.20	6345.19
451.39	6480.94
451.57	6310.08
451.76	6375.62
451.94	6434.13
452.13	6530.09
452.31	6340.51
452.49	6207.10
452.68	6527.75
452.86	6225.82
453.05	6497.33
453.23	6441.15
453.42	6441.15
453.60	6492.65
453.78	6759.47
453.97	6757.13
454.15	6558.18
454.34	6427.11
454.52	6619.04
454.70	6796.92
454.89	6609.67
455.07	6649.46
455.26	6689.25
455.44	6825.00
455.62	7016.93
455.81	6899.90
455.99	6988.84
456.17	7019.27
456.36	7077.78
456.54	6951.39
456.73	7208.85
456.91	7293.11
457.09	6970.12
457.28	7316.51
457.46	7143.32
457.64	7222.89
457.83	7080.12
458.01	7307.15
458.19	7400.77
458.38	7222.89
458.56	7487.37
458.74	7536.52
458.93	7290.77
459.11	7328.22
459.29	7431.20
459.48	7571.63
459.66	7300.13
459.84	7583.34
460.03	7585.68
460.21	7630.15
460.39	7562.27
460.57	7735.47
460.76	7693.34
460.94	7660.57
461.12	7761.22
461.31	7667.60
461.49	7777.60
461.67	7747.17
461.85	7903.99
462.04	7796.32
462.22	7911.01
462.40	8102.93
462.59	7964.84
462.77	8032.72
462.95	8074.85
463.13	7929.74
463.32	8049.10
463.50	8086.55
463.68	7976.55
463.86	8079.53
464.05	7964.84
464.23	8039.74
464.41	8109.96
464.59	7967.18
464.78	8121.66
464.96	8189.53
465.14	8065.49
465.32	8210.60
465.50	8285.50
465.69	8496.14
465.87	7992.93
466.05	8285.50
466.23	8152.09
466.41	8386.14
466.60	8566.36
466.78	8278.47
466.96	8397.84
467.14	8383.80
467.32	8592.11
467.51	8430.61
467.69	8327.63
467.87	8430.61
468.05	8514.87
468.23	8315.92
468.41	8507.85
468.60	8594.45
468.78	8636.58
468.96	8655.30
469.14	8580.40
469.32	8837.86
469.50	8578.06
469.69	8922.12
469.87	9025.11
470.05	9015.74
470.23	8856.59
470.41	8678.71
470.59	8872.97
470.77	9018.08
470.95	9076.60
471.14	9104.68
471.32	8924.46
471.50	9076.60
471.68	9046.17
471.86	9392.57
472.04	9444.06
472.22	9504.92
472.40	9139.79
472.58	9305.97
472.77	9549.39
472.95	9460.45
473.13	9872.38
473.31	9219.37
473.49	9423.00
473.67	9638.33
473.85	9778.76
474.03	9734.29
474.21	9785.78
474.39	9975.36
474.57	10015.15
474.75	9933.23
474.93	10054.94
475.12	10036.22
475.30	10078.35
475.48	10050.26
475.66	10267.93
475.84	9975.36
476.02	10366.23
476.20	10251.55
476.38	10700.93
476.56	10759.44
476.74	10588.58
476.92	10686.89
477.10	10796.89
477.28	10963.07
477.46	10801.57
477.64	10890.51
477.82	11159.67
478.00	11197.12
478.18	11103.50
478.36	11316.49
478.54	11501.39
478.72	11517.78
478.90	11592.67
479.08	11728.42
479.26	11747.15
479.44	11735.45
479.62	12067.80
479.80	12081.85
479.98	12156.74
480.16	12386.12
480.34	12442.29
480.52	12634.21
480.70	12533.57
480.88	12191.85
481.06	12498.46
481.24	12519.53
481.41	12779.32
481.59	12856.56
481.77	13008.70
481.95	12751.24
482.13	13135.09
482.31	12992.31
482.49	13385.52
482.67	13448.72
482.85	13619.58
483.03	13692.13
483.21	14015.13
483.39	13926.19
483.57	13748.31
483.74	14057.26
483.92	14108.75
484.10	14155.56
484.28	14340.46
484.46	14593.24
484.64	14738.35
484.82	14230.46
485.00	14916.23
485.18	14984.11
485.35	14892.83
485.53	14941.98
485.71	15082.41
485.89	15297.74
486.07	15234.55
486.25	15129.22
486.43	15335.19
486.61	15744.78
486.78	15740.10
486.96	15779.89
487.14	16121.61
487.32	16049.05
487.50	16423.54
487.68	16362.69
487.85	16655.25
488.03	16788.66
488.21	16688.02
488.39	16755.90
488.57	16978.25
488.75	17317.62
488.92	17493.16
489.10	17664.02
489.28	17731.90
489.46	17605.51
489.64	17748.28
489.81	18459.81
489.99	18239.79
490.17	18295.97
490.35	18523.00
490.53	18642.37
490.70	18635.35
490.88	18750.03
491.06	19087.07
491.24	18494.91
491.41	18874.08
491.59	19054.30
491.77	19281.33
491.95	19173.67
492.13	19360.91
492.30	19758.80
492.48	19967.11
492.66	19805.61
492.84	19658.16
493.01	20084.14
493.19	20173.08
493.37	20247.97
493.54	20482.03
493.72	20521.82
493.90	20688.00
494.08	20711.40
494.25	20844.81
494.43	21434.63
494.61	21238.02
494.79	21483.78
494.96	21195.89
495.14	21441.65
495.32	21783.37
495.49	21621.87
495.67	21333.98
495.85	22181.26
496.02	21902.73
496.20	22015.08
496.38	22380.20
496.55	22445.74
496.73	22761.71
496.91	22534.68
497.09	22878.74
497.26	23094.07
497.44	22593.19
497.62	23105.77
497.79	23073.00
497.97	23239.18
498.14	23180.67
498.32	23440.47
498.50	23407.70
498.67	23892.19
498.85	23606.64
499.03	23887.51
499.20	23992.83
499.38	24084.11
499.56	24257.31
499.73	24364.98
499.91	24383.70
500.08	24355.61
500.26	23957.72
500.44	24280.72
500.61	24189.44
500.79	24517.11
500.97	24964.15
501.14	25146.72
501.32	24755.85
501.49	24854.15
501.67	24989.90
501.84	25254.38
502.02	25336.30
502.20	25165.44
502.37	25862.92
502.55	25539.93
502.72	25465.03
502.90	25432.26
503.07	25706.10
503.25	25846.54
503.43	25963.56
503.60	25844.20
503.78	26101.65
503.95	26108.68
504.13	26312.30
504.30	26228.04
504.48	26331.03
504.65	26576.78
504.83	26462.10
505.01	26813.18
505.18	26948.93
505.36	27026.17
505.53	27211.07
505.71	27328.10
505.88	27098.72
506.06	26429.33
506.23	27091.70
506.41	27487.25
506.58	27395.97
506.76	27344.48
506.93	27847.69
507.11	27538.74
507.28	27386.61
507.46	27487.25
507.63	27613.64
507.81	27985.79
507.98	27646.41
508.16	28009.19
508.33	27976.42
508.50	28650.50
508.68	28505.38
508.85	28823.70
509.03	28643.48
509.20	28711.35
509.38	28795.61
509.55	29071.79
509.73	29216.91
509.90	29170.10
510.08	28947.75
510.25	29123.29
510.42	29041.37
510.60	29043.71
510.77	29411.17
510.95	29432.24
511.12	29579.69
511.30	29708.42
511.47	29675.65
511.64	29652.25
511.82	30185.89
511.99	29488.41
512.17	29661.61
512.34	29858.21
512.51	30356.75
512.69	30089.93
512.86	30466.75
513.04	30431.65
513.21	30335.68
513.38	30562.72
513.56	30405.90
513.73	30377.81
513.90	30553.35
514.08	30836.56
514.25	30707.83
514.43	30789.75
514.60	30984.01
514.77	30691.44
514.95	31005.08
515.12	31229.77
515.29	31431.05
515.47	31302.32
515.64	31587.87
515.81	31353.82
515.99	31119.76
516.16	31459.14
516.33	31620.64
516.51	31587.87
516.68	31519.99
516.85	31421.69
517.03	31503.61
517.20	31770.43
517.37	31681.49
517.54	32222.16
517.72	31878.10
517.89	32177.68
518.06	31920.23
518.24	31927.25
518.41	31833.63
518.58	32432.80
518.75	32271.31
518.93	32713.67
519.10	32051.30
519.27	32430.46
519.45	32273.65
519.62	32947.72
519.79	32797.93
519.96	33109.22
520.14	33188.80
520.31	32964.10
520.48	32945.38
520.65	32952.40
520.83	33177.09
521.00	33193.48
521.17	33476.68
521.34	33240.29
521.52	33420.51
521.69	33673.29
521.86	33963.51
522.03	33668.61
522.20	33816.06
522.38	34010.32
522.55	34094.58
522.72	34513.54
522.89	33937.77
523.07	34043.09
523.24	34326.30
523.41	34431.62
523.58	34232.68
523.75	34834.19
523.92	34464.39
524.10	34726.53
524.27	35063.57
524.44	34881.00
524.61	34689.08
524.78	34951.22
524.96	35007.39
525.13	34974.63
525.30	35028.46
525.47	35115.06
525.64	35232.08
525.81	35208.68
525.98	35133.78
526.16	35424.01
526.33	35040.16
526.50	35372.52
526.67	35019.10
526.84	35321.02
527.01	34941.86
527.18	35248.47
527.36	35564.44
527.53	36037.23
527.70	36009.14
527.87	35758.70
528.04	35463.80
528.21	35896.80
528.38	36245.54
528.55	36598.96
528.72	36201.07
528.89	36180.00
529.07	36055.95
529.24	36222.13
529.41	36437.46
529.58	36282.98
529.75	36030.21
529.92	36392.99
530.09	36430.44
530.26	36065.31
530.43	36634.06
530.60	36837.69
530.77	36943.02
530.94	36512.36
531.11	36664.49
531.28	36823.65
531.46	36842.37
531.63	36905.57
531.80	36943.02
531.97	36753.43
532.14	37268.35
532.31	36994.51
532.48	36840.03
532.65	37041.32
532.82	37003.87
532.99	37333.89
533.16	37186.43
533.33	37497.72
533.50	37617.09
533.67	37649.86
533.84	37453.25
534.01	37734.12
534.18	37696.67
534.35	37722.41
534.52	37514.11
534.69	37682.62
534.86	38010.30
535.03	37619.43
535.20	38501.81
535.37	38342.66
535.54	38380.10
535.71	38115.62
535.88	38270.10
536.05	37926.04
536.22	38391.81
536.38	38167.12
536.55	38548.62
536.72	38328.61
536.89	37766.88
537.06	38234.99
537.23	38541.60
537.40	37986.89
537.57	38522.88
537.74	38328.61
537.91	38686.71
538.08	39161.84
538.25	38242.01
538.42	38539.26
538.59	38993.32
538.75	38527.56
538.92	38745.23
539.09	38717.14
539.26	39065.88
539.43	39269.51
539.60	38834.17
539.77	38679.69
539.94	39077.58
540.11	38848.21
540.28	39021.41
540.44	39225.04
540.61	39016.73
540.78	39075.24
540.95	39353.77
541.12	39040.14
541.29	39463.77
541.46	39515.26
541.62	39559.73
541.79	39585.48
541.96	39517.60
542.13	39398.24
542.30	39199.29
542.47	39466.11
542.63	39856.98
542.80	39683.78
542.97	39768.04
543.14	40297.00
543.31	40547.44
543.48	39779.74
543.64	41254.28
543.81	40617.66
543.98	40407.01
544.15	40666.81
544.32	40521.69
544.48	40928.95
544.65	40573.19
544.82	40795.54
544.99	40526.38
545.16	40318.07
545.32	40797.88
545.49	40910.22
545.66	40900.86
545.83	40893.84
546.00	40966.40
546.16	40744.05
546.33	40552.12
546.50	40542.76
546.67	40886.82
546.83	41010.87
547.00	40861.07
547.17	40591.91
547.34	40814.26
547.50	41144.28
547.67	41298.75
547.84	41525.78
548.00	41305.77
548.17	41738.77
548.34	41163.00
548.51	41504.72
548.67	41476.63
548.84	41453.23
549.01	41195.77
549.18	41359.61
549.34	41378.33
549.51	41593.66
549.68	41675.58
549.84	41490.68
550.01	41680.26
550.18	41619.41
550.34	41717.71
550.51	41598.34
550.68	41584.30
550.84	41294.07
551.01	42082.83
551.18	41652.17
551.34	41937.72
551.51	42328.59
551.68	41626.43
551.84	41958.78
552.01	42232.63
552.18	41773.88
552.34	41968.15
552.51	42185.82
552.68	41783.24
552.84	42366.04
553.01	42674.99
553.18	42174.11
553.34	41794.95
553.51	41581.96
553.67	42382.42
553.84	42237.31
554.01	42225.60
554.17	42085.17
554.34	42663.28
554.51	42476.04
554.67	42438.59
554.84	42925.42
555.00	42300.50
555.17	42344.97
555.33	43044.79
555.50	43040.11
555.67	42466.68
555.83	42351.99
556.00	43035.43
556.16	42962.87
556.33	42916.06
556.50	42534.56
556.66	42869.25
556.83	42394.12
556.99	43002.66
557.16	43098.62
557.32	42997.98
557.49	42958.19
557.65	42953.51
557.82	42864.57
557.98	42965.21
558.15	43257.78
558.32	43042.45
558.48	43386.51
558.65	42911.38
558.81	43054.15
558.98	42728.82
559.14	43208.63
559.31	42735.84
559.47	43154.80
559.64	43208.63
559.80	43320.98
559.97	43112.67
560.13	42918.40
560.30	42588.39
560.46	43096.28
560.63	43091.60
560.79	43817.17
560.96	43299.91
561.12	43400.55
561.29	43304.59
561.45	43299.91
561.61	43386.51
561.78	43325.66
561.94	43072.88
562.11	43107.99
562.27	43105.65
562.44	43232.04
562.60	43555.03
562.77	43342.04
562.93	43232.04
563.10	43885.04
563.26	43391.19
563.42	43435.66
563.59	42834.14
563.75	42534.56
563.92	43632.27
564.08	43810.15
564.24	43550.35
564.41	43641.63
564.57	43143.09
564.74	43278.85
564.90	43548.01
565.07	43529.28
565.23	43524.60
565.39	43573.75
565.56	43445.02
565.72	43398.21
565.88	44163.57
566.05	43395.87
566.21	43533.96
566.38	43735.25
566.54	44046.54
566.70	43632.27
566.87	43849.94
567.03	43966.96
567.19	44177.61
567.36	43875.68
567.52	43742.27
567.68	43459.07
567.85	43463.75
568.01	43913.13
568.17	43477.79
568.34	43810.15
568.50	43882.70
568.66	43660.35
568.83	43716.53
568.99	43248.42
569.15	43468.43
569.32	43753.97
569.48	43674.40
569.64	44280.60
569.81	44369.54
569.97	43721.21
570.13	43941.22
570.30	43732.91
570.46	43372.47
570.62	43405.23
570.78	43863.98
570.95	43859.30
571.11	43917.81
571.27	43831.21
571.43	44013.77
571.60	43496.52
571.76	44175.27
571.92	43753.97
572.09	44107.40
572.25	43873.34
572.41	43833.55
572.57	44203.36
572.74	44306.34
572.90	44334.43
573.06	44231.44
573.22	44009.09
573.38	43831.21
573.55	43901.43
573.71	44168.25
573.87	43931.86
574.03	43772.70
574.20	43903.77
574.36	43913.13
574.52	44275.91
574.68	43892.07
574.84	44069.95
575.01	44121.44
575.17	44053.56
575.33	43676.74
575.49	43952.92
575.65	44130.80
575.82	44463.16
575.98	44060.58
576.14	44488.90
576.30	44095.69
576.46	44186.97
576.62	43681.42
576.79	44093.35
576.95	43913.13
577.11	44406.98
577.27	44371.88
577.43	44156.55
577.59	44329.75
577.75	44149.53
577.92	43739.93
578.08	43761.00
578.24	44095.69
578.40	44032.50
578.56	44093.35
578.72	44102.71
578.88	44542.74
579.04	44299.32
579.21	44502.95
579.37	44093.35
579.53	44381.24
579.69	44039.52
579.85	44247.83
580.01	44446.77
580.17	44311.02
580.33	44524.01
580.49	44704.23
580.65	44495.92
580.82	44645.72
580.98	44025.48
581.14	44563.80
581.30	44753.38
581.46	44140.16
581.62	44189.31
581.78	44076.97
581.94	44783.81
582.10	44233.78
582.26	44549.76
582.42	44467.84
582.58	44189.31
582.74	44238.47
582.90	44376.56
583.06	44587.21
583.22	44900.84
583.38	44610.61
583.54	44470.18
583.70	44212.72
583.86	44179.95
584.02	43880.36
584.18	44243.15
584.34	44423.37
584.50	44137.82
584.66	44154.21
584.82	44247.83
584.98	44507.63
585.14	44603.59
585.30	43711.84
585.46	44175.27
585.62	44399.96
585.78	44392.94
585.94	43945.90
586.10	43910.79
586.26	44044.20
586.42	44449.11
586.58	44414.01
586.74	44437.41
586.90	44273.57
587.06	43735.25
587.22	44582.52
587.38	44135.48
587.54	44278.25
587.70	44018.46
587.86	44404.64
588.02	43955.26
588.18	44725.30
588.34	44287.62
588.49	44175.27
588.65	43700.14
588.81	44135.48
588.97	44112.08
589.13	44470.18
589.29	44449.11
589.45	43981.01
589.61	44222.08
589.77	44612.95
589.93	44861.05
590.08	44397.62
590.24	44629.34
590.40	44741.68
590.56	44760.40
590.72	44388.26
590.88	44325.07
591.04	44765.09
591.20	44849.35
591.35	44957.01
591.51	45125.53
591.67	44409.32
591.83	44741.68
591.99	44685.51
592.15	44652.74
592.31	44421.03
592.46	44697.21
592.62	44446.77
592.78	44781.47
592.94	44872.75
593.10	44531.03
593.26	44252.51
593.41	44516.99
593.57	44568.48
593.73	44596.57
593.89	45118.51
594.05	44634.02
594.20	44783.81
594.36	45090.42
594.52	44741.68
594.68	44498.26
594.84	44634.02
594.99	44971.05
595.15	44130.80
595.31	44907.86
595.47	44739.34
595.62	44729.98
595.78	44479.54
595.94	45111.49
596.10	44765.09
596.25	45010.84
596.41	44903.18
596.57	44472.52
596.73	44858.71
596.88	44172.93
597.04	44715.93
597.20	44701.89
597.36	44526.35
597.51	44748.70
597.67	44648.06
597.83	44662.10
597.99	45095.10
598.14	44942.97
598.30	44924.24
598.46	44306.34
598.61	44629.34
598.77	44390.60
598.93	44727.64
599.09	44362.51
599.24	45195.74
599.40	44725.30
599.56	44907.86
599.71	44554.44
599.87	44559.12
600.03	44842.32
600.18	44577.84
600.34	45071.70
600.50	45041.27
600.65	44325.07
600.81	44889.13
600.97	44978.07
601.12	44694.87
601.28	44734.66
601.44	44362.51
601.59	44371.88
601.75	44645.72
601.91	44643.38
602.06	44453.79
602.22	45095.10
602.37	44753.38
602.53	44949.99
602.69	45113.83
602.84	44622.31
603.00	44048.88
603.16	44713.59
603.31	44493.58
603.47	45076.38
603.62	44856.37
603.78	44786.15
603.94	44507.63
604.09	44835.30
604.25	44847.00
604.40	44711.25
604.56	44828.28
604.71	44706.57
604.87	44414.01
605.03	44645.72
605.18	44470.18
605.34	44545.08
605.49	44631.68
605.65	44570.82
605.80	44718.28
605.96	44526.35
606.12	44519.33
606.27	45001.48
606.43	44800.19
606.58	44416.35
606.74	44327.41
606.89	44758.06
607.05	44556.78
607.20	44484.22
607.36	44669.12
607.51	44626.99
607.67	44158.89
607.82	44390.60
607.98	44247.83
608.13	44079.31
608.29	44191.65
608.44	43976.33
608.60	44048.88
608.75	43854.62
608.91	44032.50
609.06	44311.02
609.22	44414.01
609.37	43955.26
609.53	44519.33
609.68	44238.47
609.84	44116.76
609.99	44341.45
610.15	44151.87
610.30	44149.53
610.46	44011.43
610.61	43964.62
610.76	43950.58
610.92	44079.31
611.07	44201.02
611.23	43995.05
611.38	44275.91
611.54	44397.62
611.69	44002.07
611.84	44105.06
612.00	43983.35
612.15	43655.67
612.31	43768.02
612.46	44135.48
612.62	43564.39
612.77	43922.49
612.92	43688.44
613.08	43627.59
613.23	44109.74
613.39	44287.62
613.54	43524.60
613.69	44039.52
613.85	43489.49
614.00	44095.69
614.15	44098.03
614.31	43761.00
614.46	43896.75
614.62	44107.40
614.77	43328.00
614.92	43519.92
615.08	43906.11
615.23	43533.96
615.38	43503.54
615.54	43812.49
615.69	43325.66
615.84	42990.96
616.00	43831.21
616.15	43583.12
616.30	43459.07
616.46	43477.79
616.61	42995.64
616.76	43461.41
616.92	43093.94
617.07	43260.12
617.22	43143.09
617.37	43040.11
617.53	43463.75
617.68	43267.14
617.83	43278.85
617.99	43468.43
618.14	43133.73
618.29	43089.26
618.45	42803.72
618.60	42920.74
618.75	43157.14
618.90	43086.92
619.06	43229.69
619.21	43402.89
619.36	43445.02
619.51	42742.86
619.67	43201.61
619.82	43248.42
619.97	43042.45
620.12	42934.79
620.28	42679.67
620.43	42749.88
620.58	42838.83
620.73	42206.88
620.89	42700.73
621.04	42445.62
621.19	42796.70
621.34	42892.66
621.49	43416.94
621.65	42539.24
621.80	42532.22
621.95	42572.00
622.10	42366.04
622.25	42050.06
622.41	42696.05
622.56	42300.50
622.71	42595.41
622.86	42363.70
623.01	42485.40
623.16	42344.97
623.32	42342.63
623.47	42408.17
623.62	42494.77
623.77	41956.44
623.92	41872.18
624.07	42258.37
624.23	42075.81
624.38	42700.73
624.53	42129.64
624.68	42160.07
624.83	42071.13
624.98	42359.02
625.13	41759.84
625.29	41998.57
625.44	42005.59
625.59	41617.07
625.74	41773.88
625.89	41638.13
626.04	41387.69
626.19	41790.27
626.34	42036.02
626.49	42036.02
626.65	41406.42
626.80	42139.00
626.95	41645.15
627.10	41659.20
627.25	41755.16
627.40	41282.37
627.55	41244.92
627.70	40945.33
627.85	41338.54
628.00	41427.48
628.15	41867.50
628.30	41581.96
628.45	41851.12
628.60	41216.83
628.76	41591.32
628.91	41682.60
629.06	41457.91
629.21	41722.39
629.36	41193.43
629.51	41085.76
629.66	41420.46
629.81	41120.87
629.96	41106.83
630.11	41265.99
630.26	41326.84
630.41	41265.99
630.56	41057.68
630.71	41057.68
630.86	40774.47
631.01	40472.54
631.16	41038.95
631.31	40683.19
631.46	40414.03
631.61	40957.03
631.76	40722.98
631.91	40854.05
632.06	40802.56
632.21	40975.76
632.36	41502.38
632.51	40788.52
632.66	40397.65
632.81	40271.26
632.96	41027.25
633.10	40414.03
633.25	40549.78
633.40	40631.70
633.55	41181.73
633.70	40561.48
633.85	40418.71
634.00	40081.67
634.15	40320.41
634.30	40444.46
634.45	40212.74
634.60	40428.07
634.75	40282.96
634.90	40238.49
635.05	40692.55
635.19	39955.29
635.34	40308.71
635.49	40360.20
635.64	40158.91
635.79	40465.52
635.94	39941.24
636.09	40563.82
636.24	39864.00
636.39	39943.58
636.53	39735.27
636.68	39655.70
636.83	39983.37
636.98	39985.71
637.13	39948.26
637.28	40821.28
637.43	40208.06
637.57	40208.06
637.72	40018.48
637.87	39761.02
638.02	40215.08
638.17	40044.23
638.32	39601.86
638.46	39379.51
638.61	39489.52
638.76	39412.28
638.91	39803.15
639.06	39917.84
639.20	39510.58
639.35	39791.45
639.50	39782.09
639.65	39550.37
639.80	40210.40
639.94	39510.58
640.09	39419.30
640.24	39192.27
640.39	39519.95
640.54	39234.40
640.68	39295.25
640.83	39262.49
640.98	38946.51
641.13	39531.65
641.27	38906.73
641.42	39239.08
641.57	39496.54
641.72	39012.05
641.86	39119.71
642.01	39019.07
642.16	38756.93
642.31	38974.60
642.45	38990.98
642.60	38469.04
642.75	39054.18
642.90	39295.25
643.04	38588.41
643.19	39246.10
643.34	38656.29
643.48	38600.12
643.63	38227.97
643.78	38766.29
643.93	38267.76
644.07	38403.51
644.22	38389.47
644.37	38302.87
644.51	38539.26
644.66	38852.89
644.81	38761.61
644.95	38960.56
645.10	39143.12
645.25	38483.09
645.39	38513.52
645.54	38920.77
645.69	38700.76
645.83	38459.68
645.98	38478.41
646.13	38539.26
646.27	38366.06
646.42	38291.16
646.57	38335.63
646.71	38588.41
646.86	38473.73
647.00	38527.56
647.15	38211.59
647.30	38059.45
647.44	38195.20
647.59	38712.46
647.74	37996.26
647.88	38457.34
648.03	38356.70
648.17	38513.52
648.32	38106.26
648.47	38265.42
648.61	37811.35
648.76	38600.12
648.90	37977.53
649.05	37977.53
649.20	38127.33
649.34	38120.31
649.49	37792.63
649.63	37773.91
649.78	37607.73
649.92	37652.20
650.07	37993.92
650.21	37474.32
650.36	37493.04
650.51	37507.08
650.65	37785.61
650.80	38089.88
650.94	38124.99
651.09	37923.70
651.23	38064.13
651.38	37387.72
651.52	37558.58
651.67	37806.67
651.81	37184.09
651.96	37022.59
652.10	36964.08
652.25	37607.73
652.39	37598.37
652.54	37401.76
652.68	37567.94
652.83	37453.25
652.97	37617.09
653.12	36959.40
653.26	37387.72
653.41	37296.44
653.55	36884.50
653.70	37062.38
653.84	37277.71
653.99	37368.99
654.13	37067.06
654.27	37141.96
654.42	36982.80
654.56	37120.90
654.71	37181.75
654.85	37317.50
655.00	36816.63
655.14	36477.25
655.29	36634.06
655.43	36662.15
655.57	36540.44
655.72	36554.49
655.86	36126.17
656.01	36020.84
656.15	36421.08
656.30	36510.02
656.44	36306.39
656.58	36212.77
656.73	36737.05
656.87	36547.47
657.01	36598.96
657.16	36524.06
657.30	36484.27
657.45	36751.09
657.59	36584.91
657.73	36086.38
657.88	36957.06
658.02	36238.51
658.16	36601.30
658.31	36694.92
658.45	36566.19
658.60	36282.98
658.74	36409.37
658.88	36161.28
659.03	35971.69
659.17	36189.36
659.31	36194.04
659.46	35896.80
659.60	36077.02
659.74	36278.30
659.89	35749.34
660.03	36070.00
660.17	36044.25
660.32	35601.89
660.46	35599.55
660.60	35852.33
660.74	35721.26
660.89	35847.64
661.03	35768.07
661.17	35370.18
661.32	35503.59
661.46	34827.17
661.60	35283.58
661.74	35470.82
661.89	35211.02
662.03	35536.35
662.17	35049.52
662.31	35138.46
662.46	34848.24
662.60	35269.53
662.74	35150.17
662.88	34955.90
663.03	34895.05
663.17	34890.37
663.31	34752.27
663.45	34593.12
663.60	34953.56
663.74	34595.46
663.88	34375.45
664.02	34785.04
664.17	35077.61
664.31	34323.96
664.45	34436.30
664.59	34183.52
664.73	34368.43
664.88	34323.96
665.02	33977.56
665.16	34492.47
665.30	34096.92
665.44	34019.69
665.59	33855.85
665.73	33895.64
665.87	33986.92
666.01	34426.94
666.15	33778.61
666.29	33689.67
666.44	33961.17
666.58	33649.88
666.72	34015.01
666.86	33722.44
667.00	33780.95
667.14	33490.73
667.28	33448.60
667.43	33144.33
667.57	33205.18
667.71	32833.04
667.85	33345.61
667.99	33074.11
668.13	33317.53
668.27	33221.56
668.41	33181.77
668.56	33078.79
668.70	33448.60
668.84	32975.81
668.98	32496.00
669.12	32383.65
669.26	32748.78
669.40	32264.28
669.54	32203.43
669.68	32584.94
669.82	32376.63
669.96	32268.97
670.10	32086.40
670.25	32156.62
670.39	32357.91
670.53	32034.91
670.67	32170.66
670.81	32168.32
670.95	32273.65
671.09	32149.60
671.23	32128.53
671.37	32093.43
671.51	31690.85
671.65	31824.26
671.79	31398.29
671.93	31115.08
672.07	32121.51
672.21	31475.52
672.35	31445.10
672.49	31768.09
672.63	31447.44
672.77	31281.26
672.91	31452.12
673.05	31353.82
673.19	31225.09
673.33	31075.29
673.47	31026.14
673.61	30735.92
673.75	30646.97
673.89	30815.49
674.03	30424.62
674.17	30441.01
674.31	30614.21
674.45	30714.85
674.59	30581.44
674.73	30946.56
674.87	30120.35
675.01	30497.18
675.15	30302.92
675.29	30457.39
675.43	30359.09
675.56	30183.55
675.70	29881.62
675.84	29916.73
675.98	29156.05
676.12	30080.56
676.26	29589.05
676.40	29755.23
676.54	29514.16
676.68	29820.77
676.82	28907.96
676.96	29137.33
677.10	29261.38
677.23	29364.36
677.37	28819.02
677.51	28830.72
677.65	28622.41
677.79	28463.25
677.93	28678.58
678.07	28549.85
678.21	28304.10
678.34	28063.02
678.48	28151.96
678.62	28393.04
678.76	28126.22
678.90	27608.96
679.04	27770.46
679.18	27632.36
679.31	27690.88
679.45	27557.47
679.59	27190.00
679.73	27077.66
679.87	27087.02
680.00	27295.33
680.14	26993.40
680.28	27143.19
680.42	26820.20
680.56	27145.53
680.70	27197.02
680.83	27124.47
680.97	27023.83
681.11	26939.57
681.25	26314.64
681.39	26424.65
681.52	26635.30
681.66	26609.55
681.80	26286.56
681.94	26118.04
682.07	26288.90
682.21	26288.90
682.35	26005.69
682.49	26206.98
682.62	26061.87
682.76	25638.23
682.90	25820.79
683.04	25427.58
683.17	25432.26
683.31	25661.63
683.45	25209.91
683.59	25319.92
683.72	24940.75
683.86	24905.64
684.00	25137.35
684.13	24786.27
684.27	24816.70
684.41	25034.37
684.55	24755.85
684.68	24517.11
684.82	24395.40
684.96	24472.64
685.09	24208.16
685.23	24397.74
685.37	24269.01
685.50	24318.17
685.64	24250.29
685.78	24093.47
685.91	24034.96
686.05	23714.31
686.19	23667.50
686.32	23421.74
686.46	23304.71
686.60	22855.33
686.73	23239.18
686.87	22808.52
687.01	23108.11
687.14	22984.06
687.28	22855.33
687.42	22909.16
687.55	22799.16
687.69	23016.83
687.82	22497.23
687.96	22398.93
688.10	22562.76
688.23	22567.45
688.37	22019.76
688.50	22019.76
688.64	22010.40
688.78	21848.90
688.91	22082.95
689.05	22174.24
689.18	21912.10
689.32	21451.01
689.46	21598.46
689.59	21809.11
689.73	21649.96
689.86	21605.49
690.00	21142.06
690.13	21130.36
690.27	20999.29
690.41	20964.18
690.54	20807.36
690.68	20765.23
690.81	20842.47
690.95	20912.69
691.08	20624.80
691.22	21018.01
691.35	20673.95
691.49	20823.75
691.62	20533.52
691.76	20507.77
691.89	20355.64
692.03	20215.21
692.16	20123.93
692.30	20032.65
692.43	20058.39
692.57	19381.98
692.70	19644.12
692.84	19697.95
692.97	19379.64
693.11	19489.64
693.24	19323.46
693.38	19213.46
693.51	19112.81
693.65	19138.56
693.78	19594.96
693.92	19234.52
694.05	19080.05
694.19	19197.07
694.32	18874.08
694.45	19058.98
694.59	18602.58
694.72	18333.42
694.86	18541.72
694.99	18810.89
695.13	18298.31
695.26	18534.70
695.39	18090.00
695.53	18127.45
695.66	18342.78
695.80	18335.76
695.93	18314.69
696.07	18125.11
696.20	17767.01
696.33	17818.50
696.47	17617.21
696.60	17570.40
696.73	17378.48
696.87	17481.46
697.00	17575.08
697.14	17521.25
697.27	17104.64
697.40	17242.73
697.54	16931.44
697.67	16964.20
697.80	17011.01
697.94	16762.92
698.07	16807.39
698.21	16545.25
698.34	16514.82
698.47	16489.07
698.61	16460.99
698.74	16636.53
698.87	16187.14
699.01	16098.20
699.14	15920.32
699.27	15871.17
699.40	16297.15
699.54	15892.24
699.67	15719.04
699.80	15882.88
699.94	15988.20
700.07	15824.36
700.20	15578.61
700.34	15681.59
700.47	15903.94
700.60	15433.49
700.73	15712.02
700.87	15503.71
701.00	15360.94
701.13	15625.42
701.26	15220.50
701.40	15318.81
701.53	15283.70
701.66	15119.86
701.79	14857.72
701.93	14775.80
702.06	14628.35
702.19	14562.81
702.32	14696.22
702.46	14665.80
702.59	14406.00
702.72	14487.92
702.85	14684.52
702.99	14211.73
703.12	14314.72
703.25	14260.88
703.38	14167.26
703.51	14090.02
703.65	14015.13
703.78	13982.36
703.91	14005.77
704.04	13884.06
704.17	13802.14
704.31	13696.82
704.44	13467.44
704.57	13549.36
704.70	13556.38
704.83	13156.15
704.96	13558.72
705.10	13404.25
705.23	13631.28
>>>>>End Processed Spectral Data<<<<<
