SpectraSuite Data File
++++++++++++++++++++++++++++++++++++
Date: Fri Oct 25 10:43:59 EDT 2013
User: price-jones
Dark Spectrum Present: No
Reference Spectrum Present: No
Number of Sampled Component Spectra: 1
Spectrometers: USB2+H05261
Integration Time (usec): 100000 (USB2+H05261)
Spectra Averaged: 1 (USB2+H05261)
Boxcar Smoothing: 0 (USB2+H05261)
Correct for Electrical Dark: No (USB2+H05261)
Strobe/Lamp Enabled: No (USB2+H05261)
Correct for Detector Non-linearity: No (USB2+H05261)
Correct for Stray Light: No (USB2+H05261)
Number of Pixels in Processed Spectrum: 2048
>>>>>Begin Processed Spectral Data<<<<<
365.73	32.77
365.92	32.77
366.12	32.77
366.32	32.77
366.52	25.75
366.72	46.81
366.91	0.00
367.11	32.77
367.31	4.68
367.51	4.68
367.70	9.36
367.90	0.00
368.10	74.90
368.30	28.09
368.49	0.00
368.69	93.62
368.89	23.41
369.09	4.68
369.28	88.94
369.48	58.51
369.68	30.43
369.87	79.58
370.07	49.15
370.27	84.26
370.47	236.39
370.66	435.34
370.86	421.30
371.06	491.51
371.25	472.79
371.45	400.23
371.65	430.66
371.84	416.62
372.04	397.89
372.24	496.19
372.44	440.02
372.63	463.43
372.83	507.90
373.03	440.02
373.22	423.64
373.42	449.38
373.62	503.22
373.81	540.66
374.01	559.39
374.21	550.03
374.40	568.75
374.60	608.54
374.79	552.37
374.99	603.86
375.19	648.33
375.38	552.37
375.58	594.50
375.78	671.73
375.97	624.92
376.17	655.35
376.37	564.07
376.56	634.29
376.76	568.75
376.95	608.54
377.15	669.39
377.35	653.01
377.54	699.82
377.74	606.20
377.93	669.39
378.13	667.05
378.33	734.93
378.52	585.13
378.72	641.31
378.91	641.31
379.11	650.67
379.31	688.12
379.50	610.88
379.70	606.20
379.89	730.25
380.09	662.37
380.28	681.10
380.48	706.84
380.68	744.29
380.87	685.78
381.07	641.31
381.26	748.97
381.46	737.27
381.65	669.39
381.85	653.01
382.04	713.86
382.24	732.59
382.43	730.25
382.63	695.14
382.83	732.59
383.02	837.91
383.22	763.01
383.41	660.03
383.61	802.80
383.80	746.63
384.00	730.25
384.19	755.99
384.39	847.27
384.58	744.29
384.78	826.21
384.97	837.91
385.17	812.17
385.36	844.93
385.56	798.12
385.75	809.83
385.95	903.45
386.14	772.38
386.34	795.78
386.53	894.08
386.72	847.27
386.92	903.45
387.11	924.51
387.31	877.70
387.50	873.02
387.70	798.12
387.89	929.19
388.09	866.00
388.28	910.47
388.48	1015.79
388.67	980.68
388.86	891.74
389.06	999.41
389.25	954.94
389.45	966.64
389.64	1006.43
389.84	1041.54
390.03	983.02
390.22	1004.09
390.42	966.64
390.61	1043.88
390.81	952.60
391.00	1069.62
391.19	1090.69
391.39	1144.52
391.58	994.73
391.78	1013.45
391.97	1081.33
392.16	978.34
392.36	1100.05
392.55	1039.20
392.75	1013.45
392.94	999.41
393.13	1067.28
393.33	1036.86
393.52	1046.22
393.71	1060.26
393.91	1146.86
394.10	1118.78
394.29	1111.75
394.49	1146.86
394.68	1245.16
394.88	1249.85
395.07	1313.04
395.26	1301.34
395.46	1158.57
395.65	1245.16
395.84	1291.98
396.04	1404.32
396.23	1259.21
396.42	1142.18
396.62	1242.82
396.81	1205.38
397.00	1193.67
397.19	1336.45
397.39	1343.47
397.58	1418.36
397.77	1390.28
397.97	1462.83
398.16	1439.43
398.35	1455.81
398.55	1509.65
398.74	1418.36
398.93	1537.73
399.12	1474.54
399.32	1469.86
399.51	1519.01
399.70	1572.84
399.90	1556.46
400.09	1554.12
400.28	1570.50
400.47	1612.63
400.67	1645.40
400.86	1652.42
401.05	1708.59
401.24	1647.74
401.44	1659.44
401.63	1750.72
401.82	1647.74
402.01	1755.40
402.21	1734.34
402.40	1767.10
402.59	1767.10
402.78	1673.48
402.97	1778.81
403.17	1863.07
403.36	1729.66
403.55	1877.11
403.74	1870.09
403.93	1827.96
404.13	1930.94
404.32	1757.74
404.51	1893.49
404.70	1902.86
404.89	2003.50
405.09	2033.93
405.28	2045.63
405.47	2040.95
405.66	2054.99
405.85	2132.23
406.05	1982.43
406.24	1935.62
406.43	1926.26
406.62	2045.63
406.81	2167.34
407.00	2111.16
407.20	2127.55
407.39	2043.29
407.58	2069.03
407.77	2277.34
407.96	2221.17
408.15	2305.43
408.34	2183.72
408.54	2284.36
408.73	2335.85
408.92	2298.41
409.11	2265.64
409.30	2307.77
409.49	2242.23
409.68	2307.77
409.87	2352.24
410.07	2434.16
410.26	2450.54
410.45	2349.90
410.64	2436.50
410.83	2583.95
411.02	2534.80
411.21	2635.44
411.40	2665.87
411.59	2621.40
411.78	2740.77
411.98	2590.97
412.17	2710.34
412.36	2630.76
412.55	2668.21
412.74	2675.23
412.93	2738.43
413.12	2724.38
413.31	2897.58
413.50	2794.60
413.69	2867.16
413.88	2953.76
414.07	2942.05
414.26	2986.52
414.45	2885.88
414.64	2986.52
414.83	3009.93
415.02	3119.93
415.22	3185.47
415.41	3192.49
415.60	3133.98
415.79	3183.13
415.98	3353.99
416.17	3290.79
416.36	3281.43
416.55	3403.14
416.74	3318.88
416.93	3243.98
417.12	3304.84
417.31	3349.31
417.50	3169.09
417.69	3382.07
417.88	3435.91
418.07	3449.95
418.26	3398.46
418.45	3592.72
418.64	3616.13
418.83	3562.30
419.02	3742.52
419.21	3510.80
419.39	3529.53
419.58	3545.91
419.77	3590.38
419.96	3744.86
420.15	3784.65
420.34	3669.96
420.53	3698.05
420.72	3838.48
420.91	3796.35
421.10	3847.84
421.29	3777.62
421.48	3925.08
421.67	3868.91
421.86	3854.86
422.05	3871.25
422.24	3796.35
422.43	3887.63
422.61	3889.97
422.80	3864.22
422.99	3779.97
423.18	3927.42
423.37	3999.98
423.56	3866.56
423.75	3915.72
423.94	3904.01
424.13	3646.55
424.32	3915.72
424.50	4014.02
424.69	4166.15
424.88	4042.11
425.07	4086.58
425.26	4044.45
425.45	3861.88
425.64	3969.55
425.83	4011.68
426.01	4081.89
426.20	4257.43
426.39	4046.79
426.58	3906.35
426.77	3974.23
426.96	3894.65
427.15	4007.00
427.33	4028.06
427.52	4009.34
427.71	4264.46
427.90	4145.09
428.09	4212.96
428.28	4126.36
428.46	4138.07
428.65	4301.90
428.84	4351.06
429.03	4346.37
429.22	4028.06
429.40	4283.18
429.59	4257.43
429.78	4056.15
429.97	3929.76
430.16	4025.72
430.34	4128.70
430.53	4201.26
430.72	4194.24
430.91	4313.61
431.10	4337.01
431.28	4620.22
431.47	4636.60
431.66	4767.67
431.85	4627.24
432.03	4629.58
432.22	4720.86
432.41	4648.30
432.60	4758.31
432.79	4657.67
432.97	4844.91
433.16	4975.98
433.35	4638.94
433.54	4767.67
433.72	4779.37
433.91	4650.64
434.10	4762.99
434.28	4929.17
434.47	4940.87
434.66	5034.49
434.85	5107.05
435.03	4882.36
435.22	4933.85
435.41	5097.69
435.59	5057.90
435.78	5158.54
435.97	5177.26
436.16	5254.50
436.34	5249.82
436.53	5259.18
436.72	5355.15
436.90	5170.24
437.09	5256.84
437.28	5242.80
437.46	5193.65
437.65	5385.57
437.84	5385.57
438.02	5268.55
438.21	5224.08
438.40	5125.77
438.58	5397.28
438.77	5371.53
438.96	5521.32
439.14	5680.48
439.33	5650.05
439.52	5682.82
439.70	5724.95
439.89	5818.57
440.08	5715.59
440.26	5806.87
440.45	5678.14
440.63	5933.26
440.82	6026.88
441.01	6197.74
441.19	6092.41
441.38	6232.85
441.57	6211.78
441.75	6249.23
441.94	6228.17
442.12	6324.13
442.31	6459.88
442.50	6314.77
442.68	6356.90
442.87	6445.84
443.05	6490.31
443.24	6511.37
443.43	6604.99
443.61	6504.35
443.80	6541.80
443.98	6347.53
444.17	6263.27
444.35	6520.73
444.54	6684.57
444.73	6464.56
444.91	6373.28
445.10	6614.35
445.28	6452.86
445.47	6408.39
445.65	6392.00
445.84	6590.95
446.02	6544.14
446.21	6717.34
446.39	6562.86
446.58	6565.20
446.77	6633.08
446.95	6707.98
447.14	6885.86
447.32	6759.47
447.51	6775.85
447.69	6689.25
447.88	6761.81
448.06	6803.94
448.25	6633.08
448.43	6745.42
448.62	6675.21
448.80	6803.94
448.99	6946.71
449.17	6885.86
449.36	6722.02
449.54	7103.53
449.73	6981.82
449.91	7089.48
450.10	7274.38
450.28	7295.45
450.46	7272.04
450.65	7286.09
450.83	7227.57
451.02	6993.52
451.20	7248.64
451.39	7148.00
451.57	7307.15
451.76	7419.50
451.94	7309.49
452.13	7302.47
452.31	7234.60
452.49	6995.86
452.68	7215.87
452.86	7112.89
453.05	7489.71
453.23	7295.45
453.42	7351.62
453.60	7489.71
453.78	7740.15
453.97	7485.03
454.15	7459.29
454.34	7552.91
454.52	7506.10
454.70	7606.74
454.89	7592.70
455.07	7721.43
455.26	7651.21
455.44	7735.47
455.62	8030.38
455.81	7819.73
455.99	7915.69
456.17	7929.74
456.36	8009.31
456.54	7892.29
456.73	8049.10
456.91	8311.24
457.09	8121.66
457.28	8372.10
457.46	7922.71
457.64	8308.90
457.83	8126.34
458.01	8205.92
458.19	8241.03
458.38	8198.90
458.56	8184.85
458.74	8063.15
458.93	8250.39
459.11	8255.07
459.29	8308.90
459.48	8306.56
459.66	8425.93
459.84	8615.51
460.03	8400.18
460.21	8587.43
460.39	8664.66
460.57	8648.28
460.76	8662.32
460.94	8727.86
461.12	8713.81
461.31	8739.56
461.49	8676.37
461.67	8697.43
461.85	8919.78
462.04	8765.31
462.22	8898.72
462.40	8931.48
462.59	9179.58
462.77	8999.36
462.95	8940.85
463.13	8954.89
463.32	9231.07
463.50	9224.05
463.68	9064.89
463.86	9039.15
464.05	9053.19
464.23	9036.81
464.41	9149.15
464.59	9125.75
464.78	9273.20
464.96	9121.07
465.14	9107.02
465.32	9256.82
465.50	9275.54
465.69	9441.72
465.87	9270.86
466.05	9172.56
466.23	9167.88
466.41	9071.92
466.60	9423.00
466.78	9219.37
466.96	9226.39
467.14	9364.48
467.32	9488.53
467.51	9692.16
467.69	9186.60
467.87	9446.40
468.05	9729.61
468.23	9465.13
468.41	9659.39
468.60	9734.29
468.78	9603.22
468.96	9359.80
469.14	9799.82
469.32	9888.76
469.50	9664.07
469.69	9858.34
469.87	10059.62
470.05	9923.87
470.23	9942.60
470.41	9813.87
470.59	10033.88
470.77	9788.12
470.95	10029.20
471.14	10197.71
471.32	10083.03
471.50	10366.23
471.68	10459.85
471.86	10544.11
472.04	10642.42
472.22	10707.95
472.40	10541.77
472.58	10361.55
472.77	10338.15
472.95	10757.10
473.13	10874.13
473.31	10686.89
473.49	10616.67
473.67	10581.56
473.85	11014.56
474.03	11255.64
474.21	11335.21
474.39	10944.34
474.57	11260.32
474.75	11243.93
474.93	11283.72
475.12	11040.31
475.30	11356.28
475.48	11335.21
475.66	11370.32
475.84	11449.90
476.02	11569.27
476.20	11332.87
476.38	11878.22
476.56	12020.99
476.74	11674.59
476.92	11817.36
477.10	12006.95
477.28	12292.49
477.46	12091.21
477.64	12425.90
477.82	12423.56
478.00	12643.57
478.18	12503.14
478.36	12512.50
478.54	12884.65
478.72	12603.78
478.90	13132.75
479.08	12992.31
479.26	13125.72
479.44	13287.22
479.62	13245.09
479.80	13291.90
479.98	13673.41
480.16	13694.47
480.34	13570.43
480.52	14017.47
480.70	13987.04
480.88	13745.97
481.06	13888.74
481.24	14223.44
481.41	14256.20
481.59	14686.86
481.77	14642.39
481.95	14621.33
482.13	14457.49
482.31	14876.44
482.49	14958.36
482.67	15068.37
482.85	15208.80
483.03	15585.63
483.21	15262.63
483.39	15487.32
483.57	15503.71
483.74	15440.51
483.92	15901.60
484.10	15578.61
484.28	15936.71
484.46	16002.24
484.64	16521.84
484.82	16313.53
485.00	16404.81
485.18	16690.36
485.35	16685.68
485.53	15990.54
485.71	16191.83
485.89	16776.96
486.07	16383.75
486.25	16624.83
486.43	17336.35
486.61	17163.15
486.78	17418.27
486.96	17535.29
487.14	17886.37
487.32	17816.16
487.50	18155.54
487.68	18398.95
487.85	18501.93
488.03	18436.40
488.21	18686.84
488.39	18597.90
488.57	18623.64
488.75	18780.46
488.92	18953.66
489.10	19590.28
489.28	19550.49
489.46	19719.01
489.64	19524.75
489.81	20458.62
489.99	20163.72
490.17	20500.75
490.35	20467.98
490.53	20184.78
490.70	20638.84
490.88	20683.31
491.06	21249.72
491.24	20690.34
491.41	20699.70
491.59	20624.80
491.77	20800.34
491.95	21249.72
492.13	21387.82
492.30	21752.94
492.48	21834.86
492.66	22099.34
492.84	22019.76
493.01	22347.44
493.19	22312.33
493.37	22530.00
493.54	22607.23
493.72	22710.22
493.90	22986.40
494.08	23089.38
494.25	23250.88
494.43	23267.27
494.61	23360.89
494.79	23510.68
494.96	23449.83
495.14	23730.69
495.32	24037.30
495.49	23679.20
495.67	24084.11
495.85	24208.16
496.02	24556.90
496.20	24545.20
496.38	24699.67
496.55	25043.73
496.73	25223.95
496.91	24790.95
497.09	25137.35
497.26	24971.18
497.44	25450.99
497.62	25029.69
497.79	25649.93
497.97	25362.04
498.14	25858.24
498.32	25776.32
498.50	25811.43
498.67	26267.83
498.85	26417.63
499.03	26555.72
499.20	26780.41
499.38	26565.08
499.56	26342.73
499.73	26958.29
499.91	26326.35
500.08	26654.02
500.26	26602.53
500.44	26932.54
500.61	26775.73
500.79	26960.63
500.97	27147.87
501.14	27281.28
501.32	27505.98
501.49	27108.08
501.67	27498.95
501.84	27524.70
502.02	27974.08
502.20	27903.87
502.37	28168.35
502.55	27910.89
502.72	28273.67
502.90	28407.08
503.07	27854.72
503.25	28540.49
503.43	28168.35
503.60	28407.08
503.78	28205.80
503.95	28374.31
504.13	28748.80
504.30	29165.42
504.48	29055.41
504.65	29090.52
504.83	29259.04
505.01	29446.28
505.18	29415.85
505.36	29523.52
505.53	29528.20
505.71	29673.31
505.88	29993.97
506.06	29303.51
506.23	29799.70
506.41	29830.13
506.58	30225.68
506.76	29699.06
506.93	30469.09
507.11	30003.33
507.28	30424.62
507.46	30129.72
507.63	30455.05
507.81	30766.34
507.98	30480.80
508.16	30909.11
508.33	31035.50
508.50	30951.24
508.68	31117.42
508.85	31136.15
509.03	31236.79
509.20	31510.63
509.38	31618.30
509.55	31470.84
509.73	31468.50
509.90	31840.65
510.08	31885.12
510.25	31468.50
510.42	31531.70
510.60	31931.93
510.77	32119.17
510.95	32074.70
511.12	32236.20
511.30	32416.42
511.47	32788.56
511.64	33116.24
511.82	32662.18
511.99	32311.10
512.17	32837.72
512.34	32322.80
512.51	33076.45
512.69	33198.16
512.86	32898.57
513.04	33380.72
513.21	33338.59
513.38	33029.64
513.56	32591.96
513.73	32751.12
513.90	33446.26
514.08	33046.02
514.25	33610.09
514.43	33411.15
514.60	33205.18
514.77	33619.46
514.95	33935.43
515.12	34015.01
515.29	33420.51
515.47	34017.35
515.64	34656.31
515.81	34057.14
515.99	33715.42
516.16	34181.18
516.33	33406.47
516.51	33692.01
516.68	33415.83
516.85	33275.40
517.03	33560.94
517.20	34026.71
517.37	34558.01
517.54	34541.63
517.72	34101.61
517.89	34010.32
518.06	34279.49
518.24	34345.02
518.41	34513.54
518.58	34562.69
518.75	34913.77
518.93	35119.74
519.10	34920.79
519.27	35377.20
519.45	35531.67
519.62	35276.55
519.79	35571.46
519.96	35779.77
520.14	35723.60
520.31	35810.20
520.48	35845.30
520.65	35583.16
520.83	36217.45
521.00	36432.78
521.17	36175.32
521.34	36500.65
521.52	36788.54
521.69	36294.69
521.86	36779.18
522.03	36086.38
522.20	36526.40
522.38	36591.94
522.55	36648.11
522.72	36807.26
522.89	36741.73
523.07	37046.00
523.24	36547.47
523.41	37038.98
523.58	37141.96
523.75	37560.92
523.92	37359.63
524.10	37710.71
524.27	37872.21
524.44	37397.08
524.61	37809.01
524.78	37713.05
524.96	38169.46
525.13	37872.21
525.30	37862.85
525.47	38110.94
525.64	38293.50
525.81	38078.18
525.98	37717.73
526.16	37532.83
526.33	37677.94
526.50	37823.06
526.67	37289.42
526.84	37567.94
527.01	37631.13
527.18	38232.65
527.36	38581.39
527.53	38185.84
527.70	39026.09
527.87	38550.96
528.04	38759.27
528.21	39009.71
528.38	38763.95
528.55	39124.40
528.72	39042.48
528.89	39374.83
529.07	38902.04
529.24	38813.10
529.41	38944.17
529.58	39239.08
529.75	39042.48
529.92	39477.82
530.09	39550.37
530.26	39611.23
530.43	39686.12
530.60	39601.86
530.77	39700.17
530.94	39585.48
531.11	39653.36
531.28	39634.63
531.46	39999.76
531.63	40205.72
531.80	39796.13
531.97	39716.55
532.14	39515.26
532.31	39423.98
532.48	39798.47
532.65	40084.01
532.82	39536.33
532.99	40156.57
533.16	40322.75
533.33	40268.92
533.50	40479.57
533.67	40105.08
533.84	40329.77
534.01	40463.18
534.18	40561.48
534.35	40638.72
534.52	40133.17
534.69	40627.02
534.86	41085.76
535.03	40711.28
535.20	41191.09
535.37	40935.97
535.54	40994.48
535.71	40975.76
535.88	41043.63
536.05	41043.63
536.22	41308.11
536.38	41270.67
536.55	40980.44
536.72	41064.70
536.89	41181.73
537.06	41291.73
537.23	41439.18
537.40	41368.97
537.57	41581.96
537.74	41244.92
537.91	41698.98
538.08	41471.95
538.25	41109.17
538.42	41141.94
538.59	41289.39
538.75	41237.90
538.92	41778.56
539.09	41738.77
539.26	41584.30
539.43	41425.14
539.60	42148.37
539.77	41443.87
539.94	42078.15
540.11	41860.48
540.28	41413.44
540.44	41858.14
540.61	41670.90
540.78	41921.34
540.95	41471.95
541.12	41612.38
541.29	41577.28
541.46	42071.13
541.62	41504.72
541.79	42192.84
541.96	41720.05
542.13	41989.21
542.30	42080.49
542.47	42375.40
542.63	42532.22
542.80	42501.79
542.97	42639.88
543.14	42806.06
543.31	43140.75
543.48	43253.10
543.64	43217.99
543.81	43592.48
543.98	43126.71
544.15	43086.92
544.32	43716.53
544.48	43559.71
544.65	43311.61
544.82	43459.07
544.99	42930.11
545.16	43676.74
545.32	42866.91
545.49	43887.39
545.66	43540.99
545.83	43384.17
546.00	43517.58
546.16	43498.86
546.33	43416.94
546.50	43189.91
546.67	43962.28
546.83	43414.60
547.00	43786.74
547.17	44039.52
547.34	43433.32
547.50	43634.61
547.67	43739.93
547.84	43667.37
548.00	43789.08
548.17	43866.32
548.34	44130.80
548.51	44044.20
548.67	44032.50
548.84	43920.15
549.01	43751.63
549.18	43971.64
549.34	44011.43
549.51	44425.71
549.68	43969.30
549.84	44023.14
550.01	44339.11
550.18	44100.37
550.34	44430.39
550.51	43908.45
550.68	44144.84
550.84	44025.48
551.01	44446.77
551.18	44591.89
551.34	44538.05
551.51	44261.87
551.68	44933.60
551.84	44847.00
552.01	44563.80
552.18	44421.03
552.34	44149.53
552.51	44924.24
552.68	44903.18
552.84	44800.19
553.01	44727.64
553.18	44989.78
553.34	44418.69
553.51	44011.43
553.67	44849.35
553.84	44933.60
554.01	45413.41
554.17	45127.87
554.34	45062.33
554.51	45268.30
554.67	45518.74
554.84	44844.66
555.00	45074.04
555.17	44596.57
555.33	45165.32
555.50	44832.96
555.67	45280.00
555.83	45249.58
556.00	45298.73
556.16	45345.54
556.33	44926.58
556.50	45059.99
556.66	45551.51
556.83	44886.79
556.99	45202.77
557.16	45352.56
557.32	45315.11
557.49	45598.32
557.65	45088.08
557.82	45284.68
557.98	45254.26
558.15	45434.48
558.32	44837.64
558.48	45151.27
558.65	45069.36
558.81	45338.52
558.98	45492.99
559.14	45439.16
559.31	45542.14
559.47	45453.20
559.64	45572.57
559.80	45474.27
559.97	45518.74
560.13	45069.36
560.30	45661.51
560.46	45638.11
560.63	45635.77
560.79	45923.65
560.96	45907.27
561.12	45918.97
561.29	46040.68
561.45	45521.08
561.61	45705.98
561.78	45684.92
561.94	45677.90
562.11	45418.10
562.27	45474.27
562.44	45813.65
562.60	45839.39
562.77	45984.51
562.93	45996.21
563.10	45975.14
563.26	46007.91
563.42	46335.59
563.59	45844.07
563.75	45521.08
563.92	46237.28
564.08	46185.79
564.24	45947.06
564.41	45865.14
564.57	45670.87
564.74	45776.20
564.90	46389.42
565.07	45984.51
565.23	45909.61
565.39	45804.28
565.56	46225.58
565.72	45570.23
565.88	45895.56
566.05	45893.22
566.21	45860.46
566.38	45801.94
566.54	45935.35
566.70	46340.27
566.87	46543.89
567.03	46134.30
567.19	46555.60
567.36	45808.96
567.52	45935.35
567.68	46216.22
567.85	46424.53
568.01	46251.33
568.17	45661.51
568.34	46122.60
568.50	46410.48
568.66	45900.25
568.83	45949.40
568.99	45710.66
569.15	45783.22
569.32	46253.67
569.48	45998.55
569.64	46117.92
569.81	45928.33
569.97	46071.10
570.13	45818.33
570.30	45736.41
570.46	45942.38
570.62	45940.04
570.78	46094.51
570.95	45769.18
571.11	46513.47
571.27	45918.97
571.43	46253.67
571.60	46405.80
571.76	46190.47
571.92	46494.74
572.09	46305.16
572.25	46153.02
572.41	45909.61
572.57	46059.40
572.74	46284.09
572.90	46110.89
573.06	46646.88
573.22	46403.46
573.38	46389.42
573.55	46052.38
573.71	46571.98
573.87	46403.46
574.03	46480.70
574.20	46206.86
574.36	46110.89
574.52	46412.82
574.68	46223.24
574.84	46323.88
575.01	46300.48
575.17	46195.15
575.33	45991.53
575.49	46216.22
575.65	46237.28
575.82	46122.60
575.98	46419.84
576.14	46632.83
576.30	46398.78
576.46	46085.15
576.62	46103.87
576.79	46246.65
576.95	46300.48
577.11	45996.21
577.27	46698.37
577.43	46747.52
577.59	46497.08
577.75	46490.06
577.92	45736.41
578.08	45677.90
578.24	45977.48
578.40	46560.28
578.56	46199.83
578.72	46115.58
578.88	46433.89
579.04	46529.85
579.21	45876.84
579.37	46410.48
579.53	46576.66
579.69	46326.22
579.85	46323.88
580.01	46637.51
580.17	46478.36
580.33	46337.93
580.49	46232.60
580.65	46553.26
580.82	46314.52
580.98	46354.31
581.14	45911.95
581.30	46527.51
581.46	46815.40
581.62	46246.65
581.78	46394.10
581.94	46731.14
582.10	46127.28
582.26	46644.54
582.42	46911.36
582.58	46536.87
582.74	46511.13
582.90	46490.06
583.06	46382.40
583.22	46635.17
583.38	46894.97
583.54	46752.20
583.70	46595.38
583.86	46457.29
584.02	46227.92
584.18	46883.27
584.34	46183.45
584.50	46827.10
584.66	46309.84
584.82	46190.47
584.98	46717.09
585.14	46480.70
585.30	46394.10
585.46	46307.50
585.62	46270.05
585.78	46494.74
585.94	46246.65
586.10	46340.27
586.26	45902.59
586.42	46696.03
586.58	46974.55
586.74	46887.95
586.90	46534.53
587.06	46248.99
587.22	46801.35
587.38	46202.18
587.54	46424.53
587.70	46689.01
587.86	46532.19
588.02	46396.44
588.18	46649.22
588.34	46529.85
588.49	45759.81
588.65	45598.32
588.81	46506.44
588.97	45951.74
589.13	46024.29
589.29	46036.00
589.45	46380.06
589.61	46415.16
589.77	46579.00
589.93	46401.12
590.08	46925.40
590.24	46440.91
590.40	46756.88
590.56	46824.76
590.72	46401.12
590.88	46445.59
591.04	46583.68
591.20	47243.71
591.35	46597.73
591.51	47192.22
591.67	46586.02
591.83	46321.54
591.99	46363.67
592.15	46380.06
592.31	46241.96
592.46	46321.54
592.62	46637.51
592.78	46976.89
592.94	46588.36
593.10	46471.34
593.26	46096.85
593.41	46731.14
593.57	46382.40
593.73	46284.09
593.89	46799.01
594.05	46665.60
594.20	46857.52
594.36	46454.95
594.52	46967.53
594.68	46316.86
594.84	46124.94
594.99	46878.59
595.15	46239.62
595.31	46859.87
595.47	46600.07
595.62	46302.82
595.78	46843.48
595.94	47068.17
596.10	46920.72
596.25	47086.90
596.41	46351.97
596.57	46298.14
596.73	46937.10
596.88	46138.98
597.04	46548.57
597.20	46609.43
597.36	46564.96
597.51	46866.89
597.67	46883.27
597.83	46370.69
597.99	47000.30
598.14	46583.68
598.30	46286.43
598.46	46541.55
598.61	46714.75
598.77	46244.30
598.93	46583.68
599.09	46487.72
599.24	46852.84
599.40	46820.08
599.56	46855.18
599.71	46628.15
599.87	46642.20
600.03	46443.25
600.18	46569.64
600.34	46571.98
600.50	46506.44
600.65	46312.18
600.81	46602.41
600.97	46777.95
601.12	47112.64
601.28	46703.05
601.44	46230.26
601.59	46511.13
601.75	46075.79
601.91	46443.25
602.06	46684.33
602.22	46241.96
602.37	46522.83
602.53	46518.15
602.69	46836.46
602.84	46220.90
603.00	46560.28
603.16	46527.51
603.31	46850.50
603.47	46265.37
603.62	46752.20
603.78	46787.31
603.94	46855.18
604.09	46679.64
604.25	46665.60
604.40	46438.57
604.56	46209.20
604.71	46705.39
604.87	46312.18
605.03	46431.55
605.18	45956.42
605.34	46522.83
605.49	46274.73
605.65	46548.57
605.80	46241.96
605.96	46637.51
606.12	46838.80
606.27	46195.15
606.43	46494.74
606.58	46775.61
606.74	46033.66
606.89	46092.17
607.05	46508.79
607.20	46433.89
607.36	46852.84
607.51	46394.10
607.67	46380.06
607.82	46726.46
607.98	46237.28
608.13	46361.33
608.29	46422.19
608.44	46129.62
608.60	45720.02
608.75	45874.50
608.91	45944.72
609.06	46272.39
609.22	46471.34
609.37	46171.75
609.53	46403.46
609.68	46213.88
609.84	45794.92
609.99	45895.56
610.15	45797.26
610.30	45874.50
610.46	45851.09
610.61	46153.02
610.76	46094.51
610.92	45757.47
611.07	46010.25
611.23	45979.82
611.38	46068.76
611.54	46012.59
611.69	45567.89
611.84	45420.44
612.00	45336.18
612.15	45422.78
612.31	45507.04
612.46	45806.62
612.62	45495.33
612.77	45691.94
612.92	45818.33
613.08	45455.54
613.23	45446.18
613.39	45579.59
613.54	45415.76
613.69	45492.99
613.85	45139.57
614.00	45343.20
614.15	45897.91
614.31	45701.30
614.46	45436.82
614.62	45373.63
614.77	45221.49
614.92	45560.87
615.08	45275.32
615.23	45343.20
615.38	45123.19
615.54	45055.31
615.69	45233.19
615.84	45488.31
616.00	45382.99
616.15	45006.16
616.30	45167.66
616.46	44622.31
616.61	45085.74
616.76	45095.10
616.92	44765.09
617.07	44910.20
617.22	44638.70
617.37	45078.72
617.53	45045.95
617.68	44999.14
617.83	45055.31
617.99	45212.13
618.14	44957.01
618.29	45092.76
618.45	44547.42
618.60	44594.23
618.75	44954.67
618.90	44666.78
619.06	44659.76
619.21	44987.44
619.36	45167.66
619.51	45158.30
619.67	44582.52
619.82	44701.89
619.97	44584.86
620.12	44744.02
620.28	44376.56
620.43	44891.48
620.58	44540.39
620.73	44823.60
620.89	44357.83
621.04	44973.39
621.19	44631.68
621.34	44430.39
621.49	44105.06
621.65	44432.73
621.80	44807.22
621.95	44093.35
622.10	44463.16
622.25	43896.75
622.41	43653.33
622.56	44294.64
622.71	44404.64
622.86	44137.82
623.01	44594.23
623.16	44009.09
623.32	44186.97
623.47	44479.54
623.62	44023.14
623.77	44273.57
623.92	44048.88
624.07	44210.38
624.23	43758.66
624.38	43608.86
624.53	43569.07
624.68	43711.84
624.83	43571.41
624.98	43772.70
625.13	43562.05
625.29	43669.72
625.44	43061.18
625.59	43264.80
625.74	43056.50
625.89	43409.92
626.04	43147.78
626.19	43592.48
626.34	43349.06
626.49	43330.34
626.65	43335.02
626.80	43482.47
626.95	43194.59
627.10	43210.97
627.25	43278.85
627.40	43051.81
627.55	42658.60
627.70	42871.59
627.85	43229.69
628.00	42820.10
628.15	43093.94
628.30	42981.60
628.45	43042.45
628.60	43138.41
628.76	42838.83
628.91	42876.27
629.06	42740.52
629.21	42986.28
629.36	42466.68
629.51	42237.31
629.66	42621.16
629.81	42602.43
629.96	42927.77
630.11	42768.61
630.26	42902.02
630.41	42726.48
630.56	42490.09
630.71	42597.75
630.86	42307.52
631.01	42192.84
631.16	42471.36
631.31	41918.99
631.46	41778.56
631.61	42600.09
631.76	42595.41
631.91	42330.93
632.06	42478.38
632.21	42541.58
632.36	42539.24
632.51	42050.06
632.66	42230.29
632.81	41848.78
632.96	42141.35
633.10	41624.09
633.25	41942.40
633.40	42274.76
633.55	42249.01
633.70	42349.65
633.85	41858.14
634.00	42014.96
634.15	42284.12
634.30	42134.32
634.45	41823.03
634.60	41909.63
634.75	42424.55
634.90	42078.15
635.05	41975.17
635.19	40907.88
635.34	41902.61
635.49	41701.32
635.64	41385.35
635.79	41528.13
635.94	41401.74
636.09	41329.18
636.24	41113.85
636.39	40837.67
636.53	41605.36
636.68	41305.77
636.83	41195.77
636.98	41605.36
637.13	41184.07
637.28	41354.93
637.43	41617.07
637.57	41497.70
637.72	40996.82
637.87	41223.86
638.02	41698.98
638.17	41198.11
638.32	41141.94
638.46	41195.77
638.61	41221.52
638.76	41083.42
638.91	41153.64
639.06	41200.45
639.20	40999.16
639.35	41010.87
639.50	41375.99
639.65	41181.73
639.80	40891.50
639.94	40875.12
640.09	41071.72
640.24	40584.89
640.39	40404.67
640.54	40732.34
640.68	40793.20
640.83	40692.55
640.98	40823.62
641.13	40502.97
641.27	40935.97
641.42	40697.24
641.57	40294.66
641.72	40608.29
641.86	39941.24
642.01	40304.02
642.16	40294.66
642.31	39854.64
642.45	40500.63
642.60	40383.60
642.75	40282.96
642.90	40409.35
643.04	40505.31
643.19	40568.51
643.34	40102.74
643.48	40243.17
643.63	40268.92
643.78	39761.02
643.93	40535.74
644.07	39966.99
644.22	40327.43
644.37	39402.92
644.51	39971.67
644.66	40268.92
644.81	40020.82
644.95	39922.52
645.10	39580.80
645.25	40135.51
645.39	40093.38
645.54	40102.74
645.69	39728.25
645.83	39969.33
645.98	39866.34
646.13	39821.87
646.27	40018.48
646.42	39580.80
646.57	39929.54
646.71	39150.14
646.86	39379.51
647.00	39943.58
647.15	39402.92
647.30	39278.87
647.44	39519.95
647.59	39049.50
647.74	39129.08
647.88	39276.53
648.03	39253.12
648.17	39503.56
648.32	39470.79
648.47	39215.68
648.61	39227.38
648.76	39906.13
648.90	39555.05
649.05	39180.57
649.20	39594.84
649.34	39461.43
649.49	39042.48
649.63	39072.90
649.78	39409.94
649.92	39264.83
650.07	39995.07
650.21	39260.15
650.36	39297.59
650.51	39180.57
650.65	39428.66
650.80	39477.82
650.94	39201.63
651.09	39454.41
651.23	38937.15
651.38	38471.39
651.52	39126.74
651.67	38653.95
651.81	38536.92
651.96	38822.47
652.10	38740.55
652.25	38841.19
652.39	38733.53
652.54	38735.87
652.68	38749.91
652.83	38831.83
652.97	38738.21
653.12	38834.17
653.26	38391.81
653.41	38167.12
653.55	38190.52
653.70	38422.23
653.84	38485.43
653.99	38022.00
654.13	38094.56
654.27	38085.20
654.42	37844.12
654.56	37818.38
654.71	38293.50
654.85	38415.21
655.00	37785.61
655.14	37633.47
655.29	38216.27
655.43	37607.73
655.57	37312.82
655.72	37474.32
655.86	37144.30
656.01	37551.56
656.15	37303.46
656.30	37298.78
656.44	37312.82
656.58	37703.69
656.73	37415.80
656.87	37710.71
657.01	37558.58
657.16	37336.23
657.30	37305.80
657.45	37263.67
657.59	37493.04
657.73	37399.42
657.88	37855.82
658.02	37998.60
658.16	37820.72
658.31	37647.52
658.45	37553.90
658.60	37546.87
658.74	37755.18
658.88	37479.00
659.03	37596.03
659.17	37083.45
659.31	37062.38
659.46	36627.04
659.60	37139.62
659.74	37383.04
659.89	36788.54
660.03	36746.41
660.17	37179.41
660.32	37120.90
660.46	36992.17
660.60	37038.98
660.74	37076.43
660.89	36463.21
661.03	36128.51
661.17	36388.31
661.32	36730.03
661.46	36788.54
661.60	36598.96
661.74	36400.01
661.89	36610.66
662.03	36655.13
662.17	36629.38
662.31	36395.33
662.46	36755.77
662.60	36273.62
662.74	36121.49
662.88	35941.27
663.03	35679.13
663.17	36163.62
663.31	35344.43
663.45	35967.01
663.60	36154.26
663.74	35732.96
663.88	35559.76
664.02	35515.29
664.17	35791.47
664.31	35646.36
664.45	35445.07
664.59	35644.02
664.73	35213.36
664.88	35271.87
665.02	34881.00
665.16	35239.11
665.30	35274.21
665.44	35196.98
665.59	34864.62
665.73	34960.58
665.87	34768.66
666.01	34792.06
666.15	34789.72
666.29	34899.73
666.44	35171.23
666.58	34642.27
666.72	34862.28
666.86	35108.04
667.00	34801.43
667.14	34305.23
667.28	34157.78
667.43	34380.13
667.57	34834.19
667.71	34579.07
667.85	34281.83
667.99	34094.58
668.13	34307.57
668.27	34939.52
668.41	34611.84
668.56	34000.96
668.70	33832.44
668.84	33869.89
668.98	33654.56
669.12	33259.01
669.26	33717.76
669.40	33757.55
669.54	33778.61
669.68	33450.94
669.82	33233.27
669.96	33326.89
670.10	33362.00
670.25	33577.33
670.39	33439.23
670.53	33046.02
670.67	33097.52
670.81	33242.63
670.95	33120.92
671.09	32765.16
671.23	32725.37
671.37	32624.73
671.51	32620.05
671.65	32762.82
671.79	32425.78
671.93	32442.17
672.07	32975.81
672.21	32425.78
672.35	32367.27
672.49	32484.30
672.63	33053.05
672.77	32404.72
672.91	32514.72
673.05	32285.35
673.19	31786.82
673.33	32123.85
673.47	32044.27
673.61	31754.05
673.75	31622.98
673.89	31583.19
674.03	31613.62
674.17	31480.21
674.31	32034.91
674.45	31585.53
674.59	31695.53
674.73	31328.07
674.87	31239.13
675.01	31112.74
675.15	31576.17
675.29	30682.08
675.43	30801.45
675.56	30895.07
675.70	30604.84
675.84	30742.94
675.98	29914.39
676.12	30429.30
676.26	30782.73
676.40	30490.16
676.54	30511.22
676.68	30555.69
676.82	30005.67
676.96	30223.34
677.10	30412.92
677.23	29909.71
677.37	29628.84
677.51	30101.63
677.65	29329.25
677.79	29270.74
677.93	29310.53
678.07	29359.68
678.21	29017.96
678.34	28919.66
678.48	28954.77
678.62	28854.12
678.76	28760.50
678.90	28409.42
679.04	28950.09
679.18	28561.56
679.31	28432.83
679.45	28088.77
679.59	28135.58
679.73	27999.83
679.87	28079.41
680.00	27948.34
680.14	28074.73
680.28	28318.14
680.42	28292.40
680.56	27828.97
680.70	27522.36
680.83	28032.60
680.97	28144.94
681.11	27592.58
681.25	27356.18
681.39	27285.97
681.52	27091.70
681.66	27068.30
681.80	26735.94
681.94	26925.52
682.07	27269.58
682.21	26597.85
682.35	26714.87
682.49	26977.01
682.62	26415.29
682.76	26518.27
682.90	26434.01
683.04	26284.22
683.17	26258.47
683.31	25933.14
683.45	25813.77
683.59	25996.33
683.72	25970.58
683.86	25781.00
684.00	25905.05
684.13	25638.23
684.27	25509.50
684.41	25331.62
684.55	25245.02
684.68	25326.94
684.82	25137.35
684.96	24973.52
685.09	25064.80
685.23	24898.62
685.37	24809.68
685.50	24999.26
685.64	24732.44
685.78	24577.97
685.91	24552.22
686.05	24077.09
686.19	24095.82
686.32	23910.91
686.46	23852.40
686.60	23676.86
686.73	23419.40
686.87	23178.33
687.01	23377.27
687.14	23168.96
687.28	23080.02
687.42	23140.88
687.55	23133.86
687.69	23419.40
687.82	23180.67
687.96	23225.14
688.10	22906.82
688.23	22897.46
688.37	23023.85
688.50	22427.01
688.64	22532.34
688.78	22640.00
688.91	22572.13
689.05	22586.17
689.18	22429.35
689.32	21902.73
689.46	22178.92
689.59	22494.89
689.73	22195.30
689.86	21795.07
690.00	21825.50
690.13	22111.04
690.27	21841.88
690.41	21546.97
690.54	21546.97
690.68	21160.78
690.81	21294.19
690.95	21408.88
691.08	21308.24
691.22	21263.77
691.35	21123.33
691.49	21352.71
691.62	21001.63
691.76	20833.11
691.89	20816.72
692.03	20802.68
692.16	20613.10
692.30	20652.89
692.43	20144.99
692.57	20350.96
692.70	19971.79
692.84	20180.10
692.97	19878.17
693.11	20044.35
693.24	19695.61
693.38	19562.20
693.51	19840.72
693.65	20203.50
693.78	19859.45
693.92	19779.87
694.05	19634.75
694.19	19309.42
694.32	19463.90
694.45	19122.18
694.59	19154.94
694.72	19276.65
694.86	19054.30
694.99	19016.85
695.13	19192.39
695.26	19021.53
695.39	18789.82
695.53	18934.93
695.66	18925.57
695.80	18799.18
695.93	18616.62
696.07	18431.72
696.20	18600.24
696.33	18499.59
696.47	18277.24
696.60	18178.94
696.73	17916.80
696.87	17902.76
697.00	17895.74
697.14	17638.28
697.27	17270.81
697.40	17645.30
697.54	17551.68
697.67	17528.27
697.80	17242.73
697.94	17097.61
698.07	17572.74
698.21	17429.97
698.34	17184.21
698.47	16912.71
698.61	16957.18
698.74	16791.00
698.87	17011.01
699.01	16528.86
699.14	16547.59
699.27	16388.43
699.40	16517.16
699.54	16449.28
699.67	16042.03
699.80	16130.97
699.94	16383.75
700.07	16086.50
700.20	16257.36
700.34	16123.95
700.47	15943.73
700.60	16011.60
700.73	16374.39
700.87	16053.73
701.00	15826.70
701.13	15552.86
701.26	15527.11
701.40	15562.22
701.53	15644.14
701.66	15410.09
701.79	15412.43
701.93	15161.99
702.06	15208.80
702.19	15150.29
702.32	14841.34
702.46	14714.95
702.59	14867.08
702.72	14897.51
702.85	14930.28
702.99	14745.38
703.12	14874.10
703.25	14640.05
703.38	14195.35
703.51	14487.92
703.65	14548.77
703.78	14288.97
703.91	13886.40
704.04	14047.90
704.17	14338.12
704.31	14078.32
704.44	14033.85
704.57	13870.01
704.70	13806.82
704.83	13884.06
704.96	13650.00
705.10	13884.06
705.23	13757.67
>>>>>End Processed Spectral Data<<<<<
