SpectraSuite Data File
++++++++++++++++++++++++++++++++++++
Date: Fri Oct 25 11:33:46 EDT 2013
User: price-jones
Dark Spectrum Present: No
Reference Spectrum Present: No
Number of Sampled Component Spectra: 1
Spectrometers: USB2+H05261
Integration Time (usec): 100000 (USB2+H05261)
Spectra Averaged: 1 (USB2+H05261)
Boxcar Smoothing: 0 (USB2+H05261)
Correct for Electrical Dark: No (USB2+H05261)
Strobe/Lamp Enabled: No (USB2+H05261)
Correct for Detector Non-linearity: No (USB2+H05261)
Correct for Stray Light: No (USB2+H05261)
Number of Pixels in Processed Spectrum: 2048
>>>>>Begin Processed Spectral Data<<<<<
365.73	351.08
365.92	351.08
366.12	351.08
366.32	266.82
366.52	110.01
366.72	177.88
366.91	161.50
367.11	222.35
367.31	163.84
367.51	159.16
367.70	114.69
367.90	224.69
368.10	201.29
368.30	210.65
368.49	212.99
368.69	147.45
368.89	140.43
369.09	184.90
369.28	264.48
369.48	238.73
369.68	210.65
369.87	278.52
370.07	152.13
370.27	255.12
370.47	266.82
370.66	442.36
370.86	514.92
371.06	566.41
371.25	496.19
371.45	533.64
371.65	472.79
371.84	589.82
372.04	624.92
372.24	608.54
372.44	559.39
372.63	585.13
372.83	627.26
373.03	587.47
373.22	545.34
373.42	615.56
373.62	662.37
373.81	697.48
374.01	678.76
374.21	655.35
374.40	674.07
374.60	650.67
374.79	606.20
374.99	723.23
375.19	638.97
375.38	653.01
375.58	676.41
375.78	711.52
375.97	617.90
376.17	678.76
376.37	669.39
376.56	638.97
376.76	718.54
376.95	690.46
377.15	664.71
377.35	706.84
377.54	667.05
377.74	645.99
377.93	664.71
378.13	650.67
378.33	697.48
378.52	613.22
378.72	816.85
378.91	702.16
379.11	713.86
379.31	716.20
379.50	648.33
379.70	760.67
379.89	741.95
380.09	795.78
380.28	732.59
380.48	674.07
380.68	779.40
380.87	723.23
381.07	826.21
381.26	758.33
381.46	765.36
381.65	734.93
381.85	746.63
382.04	805.14
382.24	713.86
382.43	767.70
382.63	727.91
382.83	716.20
383.02	802.80
383.22	793.44
383.41	725.57
383.61	840.25
383.80	819.19
384.00	849.61
384.19	851.96
384.39	791.10
384.58	709.18
384.78	847.27
384.97	889.40
385.17	833.23
385.36	896.43
385.56	812.17
385.75	835.57
385.95	847.27
386.14	786.42
386.34	929.19
386.53	882.38
386.72	866.00
386.92	966.64
387.11	945.58
387.31	851.96
387.50	833.23
387.70	889.40
387.89	891.74
388.09	929.19
388.28	987.71
388.48	931.53
388.67	992.39
388.86	877.70
389.06	861.32
389.25	924.51
389.45	987.71
389.64	959.62
389.84	931.53
390.03	999.41
390.22	966.64
390.42	1011.11
390.61	894.08
390.81	910.47
391.00	973.66
391.19	1046.22
391.39	1011.11
391.58	987.71
391.78	1074.31
391.97	1078.99
392.16	1001.75
392.36	1053.24
392.55	1067.28
392.75	1074.31
392.94	1050.90
393.13	1050.90
393.33	1064.94
393.52	1053.24
393.71	1158.57
393.91	1104.73
394.10	1001.75
394.29	1165.59
394.49	1093.03
394.68	1095.37
394.88	1104.73
395.07	1198.35
395.26	1174.95
395.46	1153.88
395.65	1200.69
395.84	1081.33
396.04	1313.04
396.23	1217.08
396.42	1221.76
396.62	1296.66
396.81	1172.61
397.00	1188.99
397.19	1191.33
397.39	1212.40
397.58	1259.21
397.77	1296.66
397.97	1317.72
398.16	1266.23
398.35	1334.11
398.55	1327.08
398.74	1259.21
398.93	1331.76
399.12	1329.42
399.32	1270.91
399.51	1327.08
399.70	1357.51
399.90	1371.55
400.09	1432.41
400.28	1476.88
400.47	1448.79
400.67	1355.17
400.86	1401.98
401.05	1376.24
401.24	1439.43
401.44	1420.71
401.63	1465.18
401.82	1446.45
402.01	1476.88
402.21	1401.98
402.40	1444.11
402.59	1430.07
402.78	1411.34
402.97	1462.83
403.17	1561.14
403.36	1638.38
403.55	1526.03
403.74	1568.16
403.93	1626.67
404.13	1699.23
404.32	1626.67
404.51	1638.38
404.70	1699.23
404.89	1659.44
405.09	1661.78
405.28	1647.74
405.47	1713.27
405.66	1643.06
405.85	1689.87
406.05	1692.21
406.24	1741.36
406.43	1724.97
406.62	1671.14
406.81	1797.53
407.00	1732.00
407.20	1741.36
407.39	1837.32
407.58	1851.36
407.77	1870.09
407.96	1774.13
408.15	1872.43
408.34	1834.98
408.54	1874.77
408.73	1832.64
408.92	1895.83
409.11	1952.01
409.30	1954.35
409.49	1963.71
409.68	2050.31
409.87	1926.26
410.07	1994.14
410.26	2069.03
410.45	2115.84
410.64	2057.33
410.83	2122.87
411.02	2059.67
411.21	2122.87
411.40	2207.13
411.59	2204.78
411.78	2085.42
411.98	2157.97
412.17	2270.32
412.36	2188.40
412.55	2260.96
412.74	2270.32
412.93	2296.07
413.12	2312.45
413.31	2352.24
413.50	2392.03
413.69	2448.20
413.88	2574.59
414.07	2595.65
414.26	2452.88
414.45	2518.42
414.64	2448.20
414.83	2600.34
415.02	2600.34
415.22	2605.02
415.41	2651.83
415.60	2731.41
415.79	2668.21
415.98	2841.41
416.17	2761.83
416.36	2785.24
416.55	2619.06
416.74	2810.98
416.93	2902.26
417.12	2696.30
417.31	2827.37
417.50	2841.41
417.69	3063.76
417.88	2981.84
418.07	2841.41
418.26	2913.97
418.45	3019.29
418.64	3073.12
418.83	3038.02
419.02	2993.55
419.21	2986.52
419.39	3049.72
419.58	3005.25
419.77	3014.61
419.96	3220.58
420.15	3190.15
420.34	3016.95
420.53	3180.79
420.72	3300.16
420.91	3094.19
421.10	3262.71
421.29	3363.35
421.48	3283.77
421.67	3419.52
421.86	3269.73
422.05	3187.81
422.24	3262.71
422.43	3316.54
422.61	3417.18
422.80	3435.91
422.99	3445.27
423.18	3295.47
423.37	3559.95
423.56	3410.16
423.75	3501.44
423.94	3426.54
424.13	3138.66
424.32	3246.32
424.50	3440.59
424.69	3606.77
424.88	3555.27
425.07	3283.77
425.26	3440.59
425.45	3372.71
425.64	3412.50
425.83	3382.07
426.01	3515.48
426.20	3456.97
426.39	3520.17
426.58	3433.57
426.77	3419.52
426.96	3562.30
427.15	3506.12
427.33	3538.89
427.52	3492.08
427.71	3627.83
427.90	3531.87
428.09	3548.25
428.28	3761.24
428.46	3693.37
428.65	3686.34
428.84	3660.60
429.03	3777.62
429.22	3641.87
429.40	3716.77
429.59	3728.47
429.78	3581.02
429.97	3667.62
430.16	3819.75
430.34	3906.35
430.53	3730.81
430.72	3878.27
430.91	3744.86
431.10	3880.61
431.28	3873.59
431.47	3906.35
431.66	3981.25
431.85	3896.99
432.03	4117.00
432.22	4072.53
432.41	3946.14
432.60	4210.62
432.79	3960.19
432.97	3988.27
433.16	4046.79
433.35	4128.70
433.54	4184.88
433.72	4262.12
433.91	4266.80
434.10	4212.96
434.28	4191.90
434.47	4121.68
434.66	4358.08
434.85	4224.67
435.03	4297.22
435.22	4177.86
435.41	4456.38
435.59	4390.84
435.78	4442.34
435.97	4461.06
436.16	4447.02
436.34	4280.84
436.53	4334.67
436.72	4542.98
436.90	4386.16
437.09	4596.81
437.28	4411.91
437.46	4486.81
437.65	4617.88
437.84	4706.82
438.02	4683.41
438.21	4613.20
438.40	4409.57
438.58	4723.20
438.77	4671.71
438.96	4727.88
439.14	4814.48
439.33	4950.23
439.52	4854.27
439.70	4865.97
439.89	4957.25
440.08	5081.30
440.26	5032.15
440.45	5011.09
440.63	5069.60
440.82	5107.05
441.01	5195.99
441.19	5263.86
441.38	5322.38
441.57	5193.65
441.75	5273.23
441.94	5633.67
442.12	5439.40
442.31	5675.80
442.50	5399.62
442.68	5486.22
442.87	5401.96
443.05	5418.34
443.24	5486.22
443.43	5542.39
443.61	5579.84
443.80	5734.31
443.98	5462.81
444.17	5345.78
444.35	5643.03
444.54	5579.84
444.73	5708.57
444.91	5584.52
445.10	5624.31
445.28	5612.60
445.47	5668.78
445.65	5734.31
445.84	5708.57
446.02	5820.91
446.21	5722.61
446.39	5710.91
446.58	5673.46
446.77	5650.05
446.95	5760.06
447.14	5748.36
447.32	5701.54
447.51	5645.37
447.69	5954.32
447.88	5788.14
448.06	5624.31
448.25	5638.35
448.43	5806.87
448.62	5788.14
448.80	5699.20
448.99	5837.30
449.17	5818.57
449.36	5771.76
449.54	5956.66
449.73	6047.94
449.91	6008.16
450.10	6073.69
450.28	6230.51
450.46	6230.51
450.65	6101.78
450.83	5996.45
451.02	6164.97
451.20	6225.82
451.39	6155.61
451.57	6216.46
451.76	6132.20
451.94	6120.50
452.13	6193.06
452.31	6296.04
452.49	6153.27
452.68	6478.60
452.86	6305.40
453.05	6345.19
453.23	6349.87
453.42	6417.75
453.60	6167.31
453.78	6406.05
453.97	6621.38
454.15	6333.49
454.34	6380.30
454.52	6497.33
454.70	6546.48
454.89	6630.74
455.07	6450.52
455.26	6583.93
455.44	6576.91
455.62	6717.34
455.81	6663.51
455.99	6825.00
456.17	6754.79
456.36	6738.40
456.54	6733.72
456.73	6874.15
456.91	6986.50
457.09	7129.27
457.28	6981.82
457.46	6930.33
457.64	7185.44
457.83	6979.48
458.01	6925.65
458.19	7145.66
458.38	7138.63
458.56	7173.74
458.74	7159.70
458.93	7297.79
459.11	7232.26
459.29	7150.34
459.48	7211.19
459.66	7351.62
459.84	7250.98
460.03	7426.52
460.21	7576.31
460.39	7368.01
460.57	7393.75
460.76	7346.94
460.94	7550.57
461.12	7648.87
461.31	7630.15
461.49	7522.48
461.67	7822.07
461.85	7943.78
462.04	7487.37
462.22	8175.49
462.40	7805.69
462.59	7730.79
462.77	7723.77
462.95	7941.44
463.13	7707.38
463.32	7819.73
463.50	7988.25
463.68	7894.63
463.86	8142.72
464.05	7716.75
464.23	7852.50
464.41	7836.11
464.59	7847.82
464.78	8018.68
464.96	7915.69
465.14	7936.76
465.32	8138.04
465.50	8278.47
465.69	8287.84
465.87	7974.21
466.05	8124.00
466.23	8262.09
466.41	8320.60
466.60	8526.57
466.78	8290.18
466.96	8173.15
467.14	8140.38
467.32	8367.42
467.51	8360.39
467.69	8128.68
467.87	8248.05
468.05	8498.49
468.23	8304.22
468.41	8435.29
468.60	8358.05
468.78	8369.76
468.96	8498.49
469.14	8587.43
469.32	8767.65
469.50	8339.33
469.69	8549.98
469.87	8858.93
470.05	8814.46
470.23	8840.20
470.41	8821.48
470.59	9060.21
470.77	9043.83
470.95	8758.28
471.14	9062.55
471.32	8779.35
471.50	8999.36
471.68	9043.83
471.86	9165.54
472.04	9100.00
472.22	9406.61
472.40	9118.73
472.58	9043.83
472.77	9280.22
472.95	9233.41
473.13	9661.73
473.31	9329.38
473.49	9626.62
473.67	9479.17
473.85	9474.49
474.03	9612.58
474.21	9589.17
474.39	9767.06
474.57	9818.55
474.75	9675.77
474.93	10019.83
475.12	9771.74
475.30	9879.40
475.48	9970.68
475.66	10237.50
475.84	10169.63
476.02	10361.55
476.20	10178.99
476.38	10396.66
476.56	10501.98
476.74	10626.03
476.92	10225.80
477.10	10672.84
477.28	10611.99
477.46	10714.97
477.64	10817.96
477.82	10787.53
478.00	11309.47
478.18	11112.86
478.36	11375.00
478.54	11150.31
478.72	11211.17
478.90	11496.71
479.08	11735.45
479.26	11566.93
479.44	11688.64
479.62	11754.17
479.80	12079.50
479.98	11810.34
480.16	12121.63
480.34	11960.14
480.52	12334.62
480.70	12329.94
480.88	12346.33
481.06	12416.54
481.24	12435.27
481.41	12650.60
481.59	12748.90
481.77	12746.56
481.95	12992.31
482.13	13144.45
482.31	12802.73
482.49	13280.20
482.67	13165.51
482.85	13579.79
483.03	13554.04
483.21	13984.70
483.39	13755.33
483.57	13736.60
483.74	13872.36
483.92	13928.53
484.10	14059.60
484.28	14272.59
484.46	14626.01
484.64	14551.11
484.82	14530.05
485.00	14654.09
485.18	15117.52
485.35	15150.29
485.53	14853.04
485.71	15349.23
485.89	15360.94
486.07	15573.92
486.25	15311.78
486.43	15520.09
486.61	15506.05
486.78	15962.45
486.96	16042.03
487.14	15976.50
487.32	16435.24
487.50	16290.13
487.68	16248.00
487.85	16652.91
488.03	16666.95
488.21	17106.98
488.39	16870.58
488.57	17006.33
488.75	17188.89
488.92	17472.10
489.10	17568.06
489.28	17448.69
489.46	17724.88
489.64	17858.29
489.81	18235.11
489.99	18284.26
490.17	18090.00
490.35	18417.68
490.53	18422.36
490.70	18757.05
490.88	18450.44
491.06	18735.99
491.24	19194.73
491.41	19152.60
491.59	19793.91
491.77	19073.03
491.95	19459.21
492.13	19559.86
492.30	19407.72
492.48	19623.05
492.66	20060.73
492.84	19976.47
493.01	20142.65
493.19	19913.28
493.37	20383.73
493.54	20386.07
493.72	20748.85
493.90	20535.86
494.08	20842.47
494.25	21238.02
494.43	20964.18
494.61	21090.57
494.79	21359.73
494.96	21338.66
495.14	21642.93
495.32	21546.97
495.49	21399.52
495.67	21855.92
495.85	21961.25
496.02	22150.83
496.20	22223.39
496.38	22555.74
496.55	22593.19
496.73	22548.72
496.91	22417.65
497.09	22696.17
497.26	22822.56
497.44	22860.01
497.62	23351.52
497.79	23749.42
497.97	23330.46
498.14	23765.80
498.32	23775.16
498.50	23522.38
498.67	23953.04
498.85	24016.24
499.03	24166.03
499.20	24095.82
499.38	24196.46
499.56	24041.98
499.73	24760.53
499.91	24613.07
500.08	24566.26
500.26	24706.70
500.44	24812.02
500.61	25043.73
500.79	24350.93
500.97	25034.37
501.14	25560.99
501.32	25722.49
501.49	25479.07
501.67	25598.44
501.84	25696.74
502.02	25247.36
502.20	25558.65
502.37	25874.62
502.55	25883.98
502.72	25972.92
502.90	25748.23
503.07	25720.15
503.25	25977.61
503.43	26017.40
503.60	26300.60
503.78	26749.98
503.95	26419.97
504.13	26464.44
504.30	26728.92
504.48	26515.93
504.65	26916.16
504.83	27213.41
505.01	26785.09
505.18	27201.71
505.36	27199.37
505.53	27063.61
505.71	27388.95
505.88	27632.36
506.06	27164.26
506.23	27889.82
506.41	27850.03
506.58	27669.81
506.76	27702.58
506.93	28091.11
507.11	27946.00
507.28	27948.34
507.46	28163.67
507.63	28177.71
507.81	28404.74
507.98	28086.43
508.16	28671.56
508.33	28819.02
508.50	28491.34
508.68	28606.03
508.85	28889.23
509.03	28856.46
509.20	29174.78
509.38	29626.50
509.55	29347.98
509.73	29174.78
509.90	29717.78
510.08	29378.40
510.25	29347.98
510.42	29951.84
510.60	29778.64
510.77	30293.55
510.95	30195.25
511.12	29755.23
511.30	29635.86
511.47	30059.50
511.64	29886.30
511.82	30235.04
511.99	29965.88
512.17	30478.46
512.34	30560.37
512.51	30871.67
512.69	30803.79
512.86	30742.94
513.04	30895.07
513.21	30890.39
513.38	30707.83
513.56	31115.08
513.73	31108.06
513.90	31297.64
514.08	31122.10
514.25	31510.63
514.43	31232.11
514.60	31421.69
514.77	31728.30
514.95	31761.07
515.12	31634.68
515.29	31475.52
515.47	32423.44
515.64	31768.09
515.81	31915.54
515.99	32226.84
516.16	32746.44
516.33	32371.95
516.51	32503.02
516.68	32149.60
516.85	32575.58
517.03	32989.85
517.20	32786.22
517.37	32940.70
517.54	32889.21
517.72	32636.43
517.89	32861.12
518.06	33111.56
518.24	32900.91
518.41	33034.32
518.58	33612.43
518.75	32975.81
518.93	33254.33
519.10	33415.83
519.27	33263.69
519.45	33713.08
519.62	33556.26
519.79	34003.30
519.96	33656.90
520.14	33741.16
520.31	33710.74
520.48	33958.83
520.65	34045.43
520.83	34316.93
521.00	34345.02
521.17	34330.98
521.34	34061.82
521.52	34487.79
521.69	34490.13
521.86	34899.73
522.03	35033.14
522.20	35122.08
522.38	35241.45
522.55	35035.48
522.72	34834.19
522.89	35175.91
523.07	35461.46
523.24	35557.42
523.41	35302.30
523.58	35112.72
523.75	35377.20
523.92	35655.72
524.10	35412.31
524.27	35622.95
524.44	35697.85
524.61	35971.69
524.78	35849.99
524.96	35997.44
525.13	36320.43
525.30	36442.14
525.47	35880.41
525.64	36287.67
525.81	36126.17
525.98	36144.89
526.16	36629.38
526.33	35838.28
526.50	36575.55
526.67	36402.35
526.84	36643.43
527.01	36313.41
527.18	36622.36
527.36	36500.65
527.53	36914.93
527.70	36861.10
527.87	37053.02
528.04	37064.72
528.21	37418.14
528.38	36992.17
528.55	37046.00
528.72	36952.38
528.89	37390.06
529.07	37457.93
529.24	37249.63
529.41	37776.25
529.58	37715.39
529.75	37284.73
529.92	37469.64
530.09	37457.93
530.26	37441.55
530.43	37900.29
530.60	37469.64
530.77	37876.89
530.94	37965.83
531.11	37816.04
531.28	37699.01
531.46	37792.63
531.63	38237.33
531.80	38110.94
531.97	37902.64
532.14	38349.68
532.31	38267.76
532.48	38103.92
532.65	38431.60
532.82	38733.53
532.99	38574.37
533.16	38885.66
533.33	38967.58
533.50	38562.67
533.67	38394.15
533.84	38738.21
534.01	38841.19
534.18	39019.07
534.35	38955.88
534.52	38958.22
534.69	39480.16
534.86	39262.49
535.03	39323.34
535.20	39395.90
535.37	39636.97
535.54	39253.12
535.71	39393.56
535.88	39335.04
536.05	39608.89
536.22	39758.68
536.38	39878.05
536.55	39419.30
536.72	39515.26
536.89	39482.50
537.06	39669.74
537.23	40062.95
537.40	39887.41
537.57	39716.55
537.74	39798.47
537.91	40250.19
538.08	40226.79
538.25	40233.81
538.42	40411.69
538.59	40421.05
538.75	40175.30
538.92	40453.82
539.09	40531.06
539.26	40423.39
539.43	40549.78
539.60	40746.39
539.77	40861.07
539.94	40816.60
540.11	40872.78
540.28	41013.21
540.44	40690.21
540.61	40655.11
540.78	40392.97
540.95	40893.84
541.12	40868.09
541.29	40634.04
541.46	41064.70
541.62	41155.98
541.79	41331.52
541.96	40879.80
542.13	40987.46
542.30	41177.04
542.47	41446.21
542.63	41343.22
542.80	41530.47
542.97	41689.62
543.14	41940.06
543.31	41588.98
543.48	41844.10
543.64	42190.50
543.81	42230.29
543.98	41839.42
544.15	41596.00
544.32	41942.40
544.48	42288.80
544.65	42396.46
544.82	41904.95
544.99	41977.51
545.16	42029.00
545.32	42394.12
545.49	42623.50
545.66	42607.11
545.83	42579.03
546.00	42637.54
546.16	42532.22
546.33	42326.25
546.50	42462.00
546.67	42684.35
546.83	41982.19
547.00	42653.92
547.17	42192.84
547.34	42955.85
547.50	42932.45
547.67	43571.41
547.84	42920.74
548.00	43112.67
548.17	43196.93
548.34	43241.40
548.51	42866.91
548.67	43461.41
548.84	42918.40
549.01	43468.43
549.18	43615.88
549.34	43409.92
549.51	43871.00
549.68	43643.97
549.84	43145.44
550.01	43573.75
550.18	43126.71
550.34	43594.82
550.51	43812.49
550.68	43618.22
550.84	43945.90
551.01	43718.87
551.18	43456.73
551.34	43833.55
551.51	43892.07
551.68	43367.79
551.84	43814.83
552.01	43805.47
552.18	44294.64
552.34	43517.58
552.51	43913.13
552.68	43859.30
552.84	44266.55
553.01	44488.90
553.18	43859.30
553.34	44247.83
553.51	44231.44
553.67	44329.75
553.84	44491.24
554.01	44275.91
554.17	44114.42
554.34	44526.35
554.51	44165.91
554.67	44603.59
554.84	44311.02
555.00	44601.25
555.17	44311.02
555.33	44795.51
555.50	44870.41
555.67	44952.33
555.83	44737.00
556.00	44863.39
556.16	45109.14
556.33	45261.28
556.50	45057.65
556.66	44781.47
556.83	44495.92
556.99	44769.77
557.16	45085.74
557.32	45043.61
557.49	45354.90
557.65	45130.21
557.82	45560.87
557.98	44821.26
558.15	44971.05
558.32	45324.47
558.48	44809.56
558.65	44809.56
558.81	45413.41
558.98	44835.30
559.14	45095.10
559.31	44898.50
559.47	45209.79
559.64	45090.42
559.80	45502.35
559.97	45340.86
560.13	45350.22
560.30	45275.32
560.46	45830.03
560.63	45729.39
560.79	45635.77
560.96	45710.66
561.12	45776.20
561.29	45797.26
561.45	45584.27
561.61	45757.47
561.78	45525.76
561.94	45911.95
562.11	45888.54
562.27	45563.21
562.44	45425.12
562.60	45911.95
562.77	45933.01
562.93	45860.46
563.10	45993.87
563.26	46124.94
563.42	46052.38
563.59	45579.59
563.75	45734.07
563.92	45614.70
564.08	45869.82
564.24	46347.29
564.41	45790.24
564.57	46045.36
564.74	46021.95
564.90	45663.85
565.07	45944.72
565.23	46052.38
565.39	45975.14
565.56	46246.65
565.72	46103.87
565.88	45930.67
566.05	46356.65
566.21	46052.38
566.38	46012.59
566.54	46153.02
566.70	46630.49
566.87	46007.91
567.03	45652.15
567.19	46553.26
567.36	46387.08
567.52	46059.40
567.68	46356.65
567.85	46286.43
568.01	46405.80
568.17	46419.84
568.34	46562.62
568.50	46499.42
568.66	46433.89
568.83	46394.10
568.99	46305.16
569.15	46501.76
569.32	46398.78
569.48	46548.57
569.64	46761.56
569.81	46665.60
569.97	46490.06
570.13	46848.16
570.30	46543.89
570.46	46476.02
570.62	47002.64
570.78	46831.78
570.95	46644.54
571.11	46852.84
571.27	46808.37
571.43	46220.90
571.60	46836.46
571.76	46522.83
571.92	46583.68
572.09	46560.28
572.25	46515.81
572.41	46817.74
572.57	46843.48
572.74	46602.41
572.90	46745.18
573.06	46990.94
573.22	46623.47
573.38	46962.85
573.55	46651.56
573.71	47192.22
573.87	46841.14
574.03	46658.58
574.20	47365.42
574.36	46469.00
574.52	46972.21
574.68	47044.77
574.84	47096.26
575.01	46932.42
575.17	46988.60
575.33	46824.76
575.49	46892.63
575.65	47370.10
575.82	46822.42
575.98	46852.84
576.14	46766.24
576.30	47309.25
576.46	47124.35
576.62	47091.58
576.79	47189.88
576.95	46642.20
577.11	46838.80
577.27	47185.20
577.43	46576.66
577.59	46932.42
577.75	46761.56
577.92	46471.34
578.08	46845.82
578.24	46775.61
578.40	47555.00
578.56	47161.79
578.72	46955.83
578.88	47337.33
579.04	47164.14
579.21	46684.33
579.37	46937.10
579.53	46972.21
579.69	47004.98
579.85	46799.01
580.01	47175.84
580.17	46934.76
580.33	47054.13
580.49	47171.16
580.65	46948.81
580.82	47044.77
580.98	46876.25
581.14	46967.53
581.30	46997.96
581.46	47456.70
581.62	47248.39
581.78	46763.90
581.94	47234.35
582.10	47236.69
582.26	47229.67
582.42	46820.08
582.58	47044.77
582.74	47409.89
582.90	47330.31
583.06	47419.25
583.22	47107.96
583.38	47206.26
583.54	47475.43
583.70	47049.45
583.86	47784.38
584.02	47007.32
584.18	47384.15
584.34	47138.39
584.50	47501.17
584.66	47782.04
584.82	47461.38
584.98	47957.58
585.14	47760.97
585.30	47531.60
585.46	47292.86
585.62	47147.75
585.78	47358.40
585.94	47150.09
586.10	47061.15
586.26	47529.26
586.42	47255.42
586.58	47878.00
586.74	47470.75
586.90	47533.94
587.06	47283.50
587.22	47365.42
587.38	47447.34
587.54	47475.43
587.70	47814.80
587.86	47398.19
588.02	47334.99
588.18	47456.70
588.34	47150.09
588.49	47473.09
588.65	47501.17
588.81	47360.74
588.97	47468.40
589.13	47423.93
589.29	47709.48
589.45	47618.20
589.61	47711.82
589.77	47484.79
589.93	47662.67
590.08	47842.89
590.24	47756.29
590.40	47784.38
590.56	48041.84
590.72	48060.56
590.88	47613.52
591.04	47665.01
591.20	48147.16
591.35	47896.72
591.51	48477.18
591.67	47723.52
591.83	47938.85
591.99	48018.43
592.15	47814.80
592.31	47863.96
592.46	47763.31
592.62	47892.04
592.78	47861.61
592.94	47903.74
593.10	48058.22
593.26	48364.83
593.41	47927.15
593.57	47906.08
593.73	48088.65
593.89	48090.99
594.05	47990.34
594.20	48264.19
594.36	48399.94
594.52	48465.47
594.68	48329.72
594.84	47957.58
594.99	48165.88
595.15	48051.20
595.31	48055.88
595.47	48018.43
595.62	48231.42
595.78	48294.61
595.94	47870.98
596.10	47894.38
596.25	47929.49
596.41	48250.14
596.57	48142.48
596.73	48121.41
596.88	47971.62
597.04	47894.38
597.20	47988.00
597.36	48090.99
597.51	48109.71
597.67	47931.83
597.83	47885.02
597.99	47934.17
598.14	47943.53
598.30	48240.78
598.46	47817.14
598.61	48523.99
598.77	48296.95
598.93	48006.73
599.09	47936.51
599.24	48474.84
599.40	48065.24
599.56	48126.10
599.71	48175.25
599.87	48294.61
600.03	48502.92
600.18	48362.49
600.34	48343.77
600.50	48303.98
600.65	48191.63
600.81	48303.98
600.97	48016.09
601.12	48755.70
601.28	48210.35
601.44	48409.30
601.59	48224.40
601.75	47901.40
601.91	48266.53
602.06	48542.71
602.22	48725.27
602.37	48451.43
602.53	47728.20
602.69	48509.94
602.84	47978.64
603.00	48217.38
603.16	48123.75
603.31	48772.08
603.47	48184.61
603.62	48364.83
603.78	48669.10
603.94	48367.17
604.09	48664.42
604.25	48561.44
604.40	48222.06
604.56	48456.11
604.71	48303.98
604.87	47964.60
605.03	48060.56
605.18	48208.01
605.34	48196.31
605.49	48018.43
605.65	48020.77
605.80	48144.82
605.96	47931.83
606.12	48273.55
606.27	47793.74
606.43	48093.33
606.58	48247.80
606.74	47899.06
606.89	48210.35
607.05	48238.44
607.20	48406.96
607.36	48016.09
607.51	47859.27
607.67	48439.73
607.82	47950.56
607.98	48259.51
608.13	48074.60
608.29	47723.52
608.44	48472.49
608.60	47948.21
608.75	48189.29
608.91	48062.90
609.06	47576.07
609.22	48287.59
609.37	47674.37
609.53	48481.86
609.68	48224.40
609.84	48318.02
609.99	47863.96
610.15	48287.59
610.30	48245.46
610.46	47847.57
610.61	47739.91
610.76	48252.48
610.92	48088.65
611.07	47489.47
611.23	47793.74
611.38	47859.27
611.54	47772.67
611.69	47849.91
611.84	47980.98
612.00	47547.98
612.15	47739.91
612.31	47767.99
612.46	47634.58
612.62	48072.26
612.77	47767.99
612.92	47791.40
613.08	47653.31
613.23	47707.14
613.39	47709.48
613.54	47524.58
613.69	47936.51
613.85	47381.80
614.00	47601.82
614.15	48172.91
614.31	47683.73
614.46	47494.15
614.62	47650.97
614.77	47650.97
614.92	47122.01
615.08	47311.59
615.23	47484.79
615.38	47775.02
615.54	47849.91
615.69	47536.28
615.84	47634.58
616.00	47711.82
616.15	47674.37
616.30	47629.90
616.46	47416.91
616.61	46955.83
616.76	47206.26
616.92	47208.61
617.07	47402.87
617.22	47246.05
617.37	47229.67
617.53	47224.99
617.68	47468.40
617.83	47555.00
617.99	47269.46
618.14	47360.74
618.29	47054.13
618.45	46899.65
618.60	46679.64
618.75	46686.67
618.90	47332.65
619.06	46904.34
619.21	47159.45
619.36	47360.74
619.51	46990.94
619.67	46988.60
619.82	46639.86
619.97	46988.60
620.12	46791.99
620.28	46787.31
620.43	46937.10
620.58	47213.29
620.73	46799.01
620.89	47192.22
621.04	47026.04
621.19	46511.13
621.34	46539.21
621.49	46438.57
621.65	46656.24
621.80	46934.76
621.95	46791.99
622.10	46920.72
622.25	46464.32
622.41	46267.71
622.56	46836.46
622.71	46899.65
622.86	46380.06
623.01	46670.28
623.16	46497.08
623.32	46607.09
623.47	46466.66
623.62	46604.75
623.77	46990.94
623.92	46309.84
624.07	46394.10
624.23	46703.05
624.38	46167.07
624.53	46064.08
624.68	45979.82
624.83	46387.08
624.98	46026.63
625.13	46466.66
625.29	46260.69
625.44	46569.64
625.59	46384.74
625.74	46148.34
625.89	46007.91
626.04	45818.33
626.19	45942.38
626.34	46014.93
626.49	46089.83
626.65	46082.81
626.80	45677.90
626.95	45776.20
627.10	45659.17
627.25	46094.51
627.40	45998.55
627.55	45708.32
627.70	45684.92
627.85	46036.00
628.00	45771.52
628.15	45975.14
628.30	45776.20
628.45	45635.77
628.60	45715.34
628.76	45565.55
628.91	45483.63
629.06	45446.18
629.21	45277.66
629.36	45024.89
629.51	45254.26
629.66	45736.41
629.81	45624.06
629.96	45500.01
630.11	45095.10
630.26	45095.10
630.41	45621.72
630.56	45586.61
630.71	45579.59
630.86	45343.20
631.01	45055.31
631.16	44406.98
631.31	45036.59
631.46	45338.52
631.61	45968.12
631.76	45315.11
631.91	45727.05
632.06	45485.97
632.21	45677.90
632.36	45549.17
632.51	44830.62
632.66	45221.49
632.81	44631.68
632.96	45212.13
633.10	44933.60
633.25	45064.67
633.40	44725.30
633.55	45041.27
633.70	44591.89
633.85	45057.65
634.00	44741.68
634.15	44652.74
634.30	44580.18
634.45	44795.51
634.60	44678.49
634.75	44758.06
634.90	45034.25
635.05	44872.75
635.19	44318.04
635.34	45296.39
635.49	44587.21
635.64	44942.97
635.79	44629.34
635.94	44556.78
636.09	44790.83
636.24	44856.37
636.39	44406.98
636.53	44369.54
636.68	44676.15
636.83	44041.86
636.98	44650.40
637.13	44535.71
637.28	44011.43
637.43	44552.10
637.57	44360.17
637.72	43618.22
637.87	43913.13
638.02	44163.57
638.17	44327.41
638.32	43690.78
638.46	43690.78
638.61	43826.53
638.76	43913.13
638.91	43756.32
639.06	43732.91
639.20	43756.32
639.35	43973.98
639.50	43847.60
639.65	43983.35
639.80	43770.36
639.94	44311.02
640.09	43943.56
640.24	43931.86
640.39	43636.95
640.54	43344.38
640.68	43278.85
640.83	44172.93
640.98	43557.37
641.13	43316.29
641.27	44083.99
641.42	43449.70
641.57	43849.94
641.72	43658.01
641.86	43569.07
642.01	43037.77
642.16	43225.01
642.31	43222.67
642.45	43761.00
642.60	43210.97
642.75	42885.64
642.90	43887.39
643.04	43480.13
643.19	43512.90
643.34	43718.87
643.48	42796.70
643.63	42948.83
643.78	43468.43
643.93	43344.38
644.07	43051.81
644.22	43543.33
644.37	42813.08
644.51	42939.47
644.66	43325.66
644.81	43000.32
644.95	43643.97
645.10	42995.64
645.25	42684.35
645.39	42635.20
645.54	42637.54
645.69	42731.16
645.83	42747.54
645.98	42679.67
646.13	42398.80
646.27	42724.14
646.42	42862.23
646.57	42674.99
646.71	42789.67
646.86	42948.83
647.00	42855.21
647.15	42745.20
647.30	42993.30
647.44	42394.12
647.59	42588.39
647.74	42359.02
647.88	42909.04
648.03	42667.97
648.17	42600.09
648.32	42972.24
648.47	42911.38
648.61	42522.85
648.76	42515.83
648.90	42054.75
649.05	42712.44
649.20	42342.63
649.34	42490.09
649.49	42305.18
649.63	42476.04
649.78	42869.25
649.92	42433.91
650.07	42749.88
650.21	42295.82
650.36	42464.34
650.51	42632.86
650.65	42389.44
650.80	42674.99
650.94	42284.12
651.09	41937.72
651.23	41509.40
651.38	41961.12
651.52	41677.92
651.67	41773.88
651.81	42071.13
651.96	41816.01
652.10	41483.66
652.25	41844.10
652.39	41698.98
652.54	41450.89
652.68	41736.43
652.83	41930.70
652.97	42099.22
653.12	41652.17
653.26	41502.38
653.41	41420.46
653.55	41563.23
653.70	41670.90
653.84	41514.08
653.99	41947.08
654.13	41317.48
654.27	41446.21
654.42	41790.27
654.56	41038.95
654.71	41607.70
654.85	41212.15
655.00	41446.21
655.14	41486.00
655.29	42010.28
655.43	41963.46
655.57	41198.11
655.72	41216.83
655.86	41631.11
656.01	40715.96
656.15	40954.69
656.30	40957.03
656.44	41113.85
656.58	41064.70
656.73	41752.82
656.87	40910.22
657.01	40713.62
657.16	40912.56
657.30	41390.03
657.45	41062.36
657.59	40942.99
657.73	40673.83
657.88	41017.89
658.02	40811.92
658.16	40928.95
658.31	40896.18
658.45	40870.43
658.60	40797.88
658.74	40856.39
658.88	40725.32
659.03	40680.85
659.17	40189.34
659.31	40357.86
659.46	40018.48
659.60	40814.26
659.74	40821.28
659.89	40109.76
660.03	40034.86
660.17	40385.94
660.32	39981.03
660.46	40062.95
660.60	39438.03
660.74	39974.01
660.89	39821.87
661.03	39737.62
661.17	39590.16
661.32	39529.31
661.46	39768.04
661.60	40095.72
661.74	40100.40
661.89	39510.58
662.03	39702.51
662.17	39098.65
662.31	39414.62
662.46	39807.83
662.60	39175.89
662.74	38913.75
662.88	39058.86
663.03	38925.45
663.17	38965.24
663.31	39175.89
663.45	38967.58
663.60	38857.57
663.74	39061.20
663.88	38953.54
664.02	38920.77
664.17	38775.66
664.31	38443.30
664.45	38527.56
664.59	38691.40
664.73	38345.00
664.88	38405.85
665.02	38361.38
665.16	38349.68
665.30	38281.80
665.44	38321.59
665.59	38068.81
665.73	37881.57
665.87	37530.49
666.01	38171.80
666.15	38033.71
666.29	37860.51
666.44	37816.04
666.58	37764.54
666.72	37890.93
666.86	38195.20
667.00	37434.53
667.14	38014.98
667.28	37504.74
667.43	37825.40
667.57	37727.10
667.71	37823.06
667.85	37486.02
667.99	37752.84
668.13	37170.05
668.27	37111.53
668.41	36996.85
668.56	36495.97
668.70	36584.91
668.84	36692.58
668.98	36467.89
669.12	37027.28
669.26	36734.71
669.40	36559.17
669.54	36556.83
669.68	36634.06
669.82	36830.67
669.96	36809.61
670.10	35885.09
670.25	36336.82
670.39	36390.65
670.53	36542.78
670.67	36077.02
670.81	36121.49
670.95	36018.50
671.09	36385.97
671.23	35517.63
671.37	35360.81
671.51	35054.20
671.65	35604.23
671.79	35569.12
671.93	35803.17
672.07	36002.12
672.21	35524.65
672.35	34733.55
672.49	35353.79
672.63	35690.83
672.77	35447.41
672.91	34939.52
673.05	35175.91
673.19	34534.60
673.33	34691.42
673.47	34415.24
673.61	34464.39
673.75	34689.08
673.89	34448.00
674.03	34347.36
674.17	34686.74
674.31	34136.71
674.45	34270.12
674.59	34174.16
674.73	33895.64
674.87	34054.79
675.01	33589.03
675.15	33427.53
675.29	33251.99
675.43	33729.46
675.56	33385.40
675.70	33404.13
675.84	33551.58
675.98	32446.85
676.12	33127.94
676.26	33167.73
676.40	33099.86
676.54	32540.47
676.68	32830.69
676.82	32650.47
676.96	33137.30
677.10	32458.55
677.23	32416.42
677.37	32070.02
677.51	32240.88
677.65	32060.66
677.79	32133.21
677.93	32016.19
678.07	32020.87
678.21	31784.48
678.34	31510.63
678.48	31454.46
678.62	31297.64
678.76	31325.73
678.90	31161.89
679.04	31248.49
679.18	31475.52
679.31	31117.42
679.45	30991.03
679.59	31056.57
679.73	30714.85
679.87	30424.62
680.00	30560.37
680.14	30333.34
680.28	30370.79
680.42	30492.50
680.56	30164.82
680.70	29898.00
680.83	29916.73
680.97	29493.09
681.11	29858.21
681.25	29586.71
681.39	29362.02
681.52	29635.86
681.66	28819.02
681.80	28603.69
681.94	28489.00
682.07	29050.73
682.21	28746.46
682.35	29006.26
682.49	28751.14
682.62	28662.20
682.76	28538.15
682.90	28559.22
683.04	28353.25
683.17	28458.57
683.31	28226.86
683.45	28025.57
683.59	27555.13
683.72	27590.24
683.86	27733.01
684.00	27601.94
684.13	27522.36
684.27	27491.93
684.41	27356.18
684.55	27466.19
684.68	27166.60
684.82	27056.59
684.96	26972.33
685.09	26651.68
685.23	27232.13
685.37	27131.49
685.50	27274.26
685.64	26569.76
685.78	26328.69
685.91	26501.89
686.05	26096.97
686.19	26087.61
686.32	25862.92
686.46	25537.59
686.60	25453.33
686.73	25619.50
686.87	25518.86
687.01	25750.57
687.14	25500.14
687.28	25350.34
687.42	25525.88
687.55	24980.54
687.69	25298.85
687.82	24982.88
687.96	24861.17
688.10	24807.34
688.23	24662.22
688.37	24783.93
688.50	24816.70
688.64	24446.90
688.78	24531.15
688.91	24521.79
689.05	24208.16
689.18	23882.83
689.32	23894.53
689.46	23704.95
689.59	23557.49
689.73	24025.60
689.86	24100.50
690.00	23765.80
690.13	23529.41
690.27	23573.88
690.41	23573.88
690.54	23129.17
690.68	23175.98
690.81	22630.64
690.95	22796.82
691.08	22696.17
691.22	22829.59
691.35	22485.53
691.49	22806.18
691.62	22860.01
691.76	22291.26
691.89	22188.28
692.03	22064.23
692.16	21841.88
692.30	21837.20
692.43	22036.14
692.57	21535.27
692.70	21752.94
692.84	21516.54
692.97	21226.32
693.11	21359.73
693.24	21287.17
693.38	20959.50
693.51	21207.59
693.65	21455.69
693.78	20734.81
693.92	20783.96
694.05	20608.42
694.19	20650.55
694.32	20575.65
694.45	20779.28
694.59	20580.33
694.72	20470.33
694.86	20353.30
694.99	19999.88
695.13	19967.11
695.26	19988.18
695.39	19711.99
695.53	19721.35
695.66	19997.54
695.80	19758.80
695.93	19550.49
696.07	19234.52
696.20	19164.31
696.33	18731.31
696.47	19147.92
696.60	18979.40
696.73	19253.25
696.87	19091.75
697.00	18768.76
697.14	18677.48
697.27	18562.79
697.40	18721.95
697.54	18221.07
697.67	18120.43
697.80	18279.58
697.94	18401.29
698.07	17951.91
698.21	18099.36
698.34	18108.72
698.47	18015.10
698.61	17605.51
698.74	17729.56
698.87	17472.10
699.01	17467.42
699.14	17638.28
699.27	17584.44
699.40	17179.53
699.54	17429.97
699.67	17488.48
699.80	17184.21
699.94	16922.07
700.07	17074.21
700.20	16842.50
700.34	16645.89
700.47	16685.68
700.60	16858.88
700.73	16816.75
700.87	16353.32
701.00	16142.67
701.13	16163.74
701.26	16049.05
701.40	15955.43
701.53	16175.44
701.66	15815.00
701.79	16095.86
701.93	15730.74
702.06	16030.33
702.19	15817.34
702.32	15438.17
702.46	15845.43
702.59	15414.77
702.72	15543.50
702.85	15503.71
702.99	15391.36
703.12	15145.61
703.25	15222.84
703.38	14988.79
703.51	14993.47
703.65	14834.32
703.78	14731.33
703.91	14427.06
704.04	14396.64
704.17	14450.47
704.31	14621.33
704.44	14661.12
704.57	14249.18
704.70	14101.73
704.83	14214.07
704.96	14176.62
705.10	13851.29
705.23	14043.21
>>>>>End Processed Spectral Data<<<<<
