SpectraSuite Data File
++++++++++++++++++++++++++++++++++++
Date: Fri Oct 25 10:44:03 EDT 2013
User: price-jones
Dark Spectrum Present: No
Reference Spectrum Present: No
Number of Sampled Component Spectra: 1
Spectrometers: USB2+H05261
Integration Time (usec): 100000 (USB2+H05261)
Spectra Averaged: 1 (USB2+H05261)
Boxcar Smoothing: 0 (USB2+H05261)
Correct for Electrical Dark: No (USB2+H05261)
Strobe/Lamp Enabled: No (USB2+H05261)
Correct for Detector Non-linearity: No (USB2+H05261)
Correct for Stray Light: No (USB2+H05261)
Number of Pixels in Processed Spectrum: 2048
>>>>>Begin Processed Spectral Data<<<<<
365.73	140.43
365.92	140.43
366.12	140.43
366.32	60.85
366.52	30.43
366.72	79.58
366.91	37.45
367.11	70.22
367.31	39.79
367.51	60.85
367.70	35.11
367.90	0.00
368.10	77.24
368.30	58.51
368.49	30.43
368.69	58.51
368.89	0.00
369.09	0.00
369.28	79.58
369.48	88.94
369.68	95.96
369.87	86.60
370.07	60.85
370.27	152.13
370.47	205.97
370.66	454.06
370.86	458.74
371.06	477.47
371.25	423.64
371.45	447.04
371.65	447.04
371.84	421.30
372.04	463.43
372.24	505.56
372.44	491.51
372.63	500.87
372.83	475.13
373.03	477.47
373.22	578.11
373.42	512.58
373.62	564.07
373.81	545.34
374.01	617.90
374.21	596.84
374.40	589.82
374.60	610.88
374.79	571.09
374.99	552.37
375.19	641.31
375.38	636.63
375.58	615.56
375.78	662.37
375.97	608.54
376.17	671.73
376.37	629.60
376.56	561.73
376.76	528.96
376.95	561.73
377.15	657.69
377.35	662.37
377.54	692.80
377.74	615.56
377.93	650.67
378.13	629.60
378.33	645.99
378.52	681.10
378.72	674.07
378.91	676.41
379.11	709.18
379.31	610.88
379.50	643.65
379.70	681.10
379.89	725.57
380.09	692.80
380.28	695.14
380.48	767.70
380.68	702.16
380.87	695.14
381.07	770.04
381.26	699.82
381.46	802.80
381.65	755.99
381.85	711.52
382.04	709.18
382.24	699.82
382.43	732.59
382.63	732.59
382.83	688.12
383.02	772.38
383.22	713.86
383.41	657.69
383.61	718.54
383.80	732.59
384.00	844.93
384.19	809.83
384.39	835.57
384.58	858.98
384.78	844.93
384.97	784.08
385.17	847.27
385.36	830.89
385.56	877.70
385.75	847.27
385.95	863.66
386.14	938.55
386.34	870.68
386.53	954.94
386.72	910.47
386.92	887.06
387.11	882.38
387.31	915.15
387.50	901.11
387.70	896.43
387.89	987.71
388.09	891.74
388.28	954.94
388.48	971.32
388.67	908.13
388.86	980.68
389.06	947.92
389.25	1034.52
389.45	1034.52
389.64	985.37
389.84	1039.20
390.03	1036.86
390.22	1046.22
390.42	1107.07
390.61	1053.24
390.81	1057.92
391.00	1055.58
391.19	1186.65
391.39	1118.78
391.58	994.73
391.78	1081.33
391.97	1041.54
392.16	1027.50
392.36	1046.22
392.55	1090.69
392.75	976.00
392.94	1064.94
393.13	983.02
393.33	1025.15
393.52	1013.45
393.71	1076.65
393.91	1118.78
394.10	1146.86
394.29	1160.91
394.49	1235.80
394.68	1242.82
394.88	1313.04
395.07	1299.00
395.26	1256.87
395.46	1210.06
395.65	1294.32
395.84	1254.53
396.04	1397.30
396.23	1177.29
396.42	1172.61
396.62	1259.21
396.81	1280.27
397.00	1259.21
397.19	1352.83
397.39	1411.34
397.58	1500.28
397.77	1507.30
397.97	1434.75
398.16	1528.37
398.35	1526.03
398.55	1528.37
398.74	1521.35
398.93	1565.82
399.12	1589.22
399.32	1488.58
399.51	1556.46
399.70	1631.35
399.90	1699.23
400.09	1621.99
400.28	1753.06
400.47	1703.91
400.67	1806.89
400.86	1715.61
401.05	1851.36
401.24	1762.42
401.44	1818.60
401.63	1790.51
401.82	1741.36
402.01	1846.68
402.21	1774.13
402.40	1844.34
402.59	1949.67
402.78	1853.70
402.97	1851.36
403.17	1902.86
403.36	1921.58
403.55	1914.56
403.74	1905.20
403.93	1933.28
404.13	1984.77
404.32	1870.09
404.51	1973.07
404.70	1947.33
404.89	1954.35
405.09	2108.82
405.28	2099.46
405.47	2083.08
405.66	2003.50
405.85	2052.65
406.05	2073.71
406.24	2190.74
406.43	2200.10
406.62	2200.10
406.81	2235.21
407.00	2113.50
407.20	2122.87
407.39	2162.66
407.58	2256.28
407.77	2312.45
407.96	2399.05
408.15	2342.88
408.34	2333.51
408.54	2375.64
408.73	2448.20
408.92	2473.95
409.11	2464.58
409.30	2410.75
409.49	2443.52
409.68	2368.62
409.87	2338.20
410.07	2480.97
410.26	2382.67
410.45	2375.64
410.64	2597.99
410.83	2583.95
411.02	2696.30
411.21	2722.04
411.40	2661.19
411.59	2696.30
411.78	2717.36
411.98	2778.22
412.17	2684.59
412.36	2782.90
412.55	2829.71
412.74	2942.05
412.93	2946.73
413.12	2846.09
413.31	3141.00
413.50	2860.13
413.69	2897.58
413.88	3054.40
414.07	3045.04
414.26	3075.46
414.45	2981.84
414.64	3101.21
414.83	3398.46
415.02	3138.66
415.22	3185.47
415.41	3307.18
415.60	3201.85
415.79	3396.12
415.98	3382.07
416.17	3449.95
416.36	3246.32
416.55	3356.33
416.74	3475.70
416.93	3403.14
417.12	3318.88
417.31	3588.04
417.50	3655.92
417.69	3655.92
417.88	3595.06
418.07	3555.27
418.26	3534.21
418.45	3616.13
418.64	3639.53
418.83	3618.47
419.02	3768.26
419.21	3712.09
419.39	3749.54
419.58	3688.68
419.77	3735.50
419.96	3885.29
420.15	3894.65
420.34	3932.10
420.53	3911.04
420.72	4037.42
420.91	3983.59
421.10	3822.09
421.29	3988.27
421.48	4018.70
421.67	4058.49
421.86	3934.44
422.05	3967.21
422.24	3896.99
422.43	4002.32
422.61	4128.70
422.80	3969.55
422.99	4109.98
423.18	4072.53
423.37	4212.96
423.56	4229.35
423.75	4095.94
423.94	4102.96
424.13	3719.11
424.32	4084.23
424.50	4135.73
424.69	4053.81
424.88	3901.67
425.07	4016.36
425.26	4091.26
425.45	4112.32
425.64	4126.36
425.83	4234.03
426.01	4227.01
426.20	4135.73
426.39	4184.88
426.58	4283.18
426.77	4255.09
426.96	4119.34
427.15	4177.86
427.33	4219.99
427.52	4152.11
427.71	4348.72
427.90	4318.29
428.09	4449.36
428.28	4257.43
428.46	4493.83
428.65	4344.03
428.84	4358.08
429.03	4397.87
429.22	4278.50
429.40	4219.99
429.59	4315.95
429.78	3908.69
429.97	4086.58
430.16	4098.28
430.34	4203.60
430.53	4369.78
430.72	4318.29
430.91	4236.37
431.10	4503.19
431.28	4748.95
431.47	4741.93
431.66	4863.63
431.85	4669.37
432.03	4772.35
432.22	4994.70
432.41	4868.31
432.60	4922.15
432.79	4844.91
432.97	4802.78
433.16	4842.57
433.35	4821.50
433.54	4823.84
433.72	4816.82
433.91	4835.55
434.10	5011.09
434.28	4788.74
434.47	4933.85
434.66	5067.26
434.85	5158.54
435.03	5167.90
435.22	5121.09
435.41	5289.61
435.59	5226.42
435.78	5301.31
435.97	5348.12
436.16	5357.49
436.34	5350.46
436.53	5446.43
436.72	5401.96
436.90	5338.76
437.09	5350.46
437.28	5434.72
437.46	5420.68
437.65	5345.78
437.84	5486.22
438.02	5350.46
438.21	5514.30
438.40	5343.44
438.58	5565.79
438.77	5626.65
438.96	5533.03
439.14	5619.63
439.33	5757.72
439.52	5989.43
439.70	5858.36
439.89	5863.04
440.08	5959.00
440.26	5956.66
440.45	5870.06
440.63	6129.86
440.82	6307.74
441.01	6242.21
441.19	6193.06
441.38	6473.92
441.57	6228.17
441.75	6408.39
441.94	6520.73
442.12	6546.48
442.31	6518.39
442.50	6672.87
442.68	6651.80
442.87	6466.90
443.05	6511.37
443.24	6644.78
443.43	6424.77
443.61	6715.00
443.80	6918.62
443.98	6619.04
444.17	6586.27
444.35	6745.42
444.54	6794.58
444.73	6724.36
444.91	6729.04
445.10	6885.86
445.28	6839.05
445.47	6630.74
445.65	6682.23
445.84	6864.79
446.02	6876.49
446.21	6789.89
446.39	6822.66
446.58	6876.49
446.77	7115.23
446.95	6867.13
447.14	6918.62
447.32	7098.84
447.51	6895.22
447.69	6942.03
447.88	6775.85
448.06	6803.94
448.25	6939.69
448.43	7021.61
448.62	7194.81
448.80	6920.96
448.99	7066.08
449.17	7243.96
449.36	7023.95
449.54	7302.47
449.73	7346.94
449.91	7349.28
450.10	7431.20
450.28	7576.31
450.46	7566.95
450.65	7314.17
450.83	7344.60
451.02	7604.40
451.20	7688.66
451.39	7618.44
451.57	7384.39
451.76	7585.68
451.94	7531.84
452.13	7646.53
452.31	7611.42
452.49	7499.08
452.68	7445.24
452.86	7496.74
453.05	7613.76
453.23	7723.77
453.42	7609.08
453.60	7578.65
453.78	7751.85
453.97	7831.43
454.15	7693.34
454.34	7761.22
454.52	7859.52
454.70	7812.71
454.89	7854.84
455.07	7798.66
455.26	7894.63
455.44	8154.43
455.62	8084.21
455.81	8028.04
455.99	8205.92
456.17	8121.66
456.36	8262.09
456.54	8145.06
456.73	8402.52
456.91	8449.33
457.09	8383.80
457.28	8566.36
457.46	8285.50
457.64	8564.02
457.83	8468.06
458.01	8259.75
458.19	8837.86
458.38	8554.66
458.56	8688.07
458.74	8659.98
458.93	8493.80
459.11	8704.45
459.29	8664.66
459.48	8652.96
459.66	8683.39
459.84	8622.53
460.03	9032.13
460.21	8961.91
460.39	8753.60
460.57	8767.65
460.76	8999.36
460.94	9053.19
461.12	8931.48
461.31	9022.77
461.49	9163.20
461.67	8802.75
461.85	9067.24
462.04	9170.22
462.22	9680.46
462.40	9238.09
462.59	9109.36
462.77	9102.34
462.95	9383.21
463.13	9231.07
463.32	9331.72
463.50	9525.98
463.68	9399.59
463.86	9404.27
464.05	9446.40
464.23	9233.41
464.41	9430.02
464.59	9275.54
464.78	9727.27
464.96	9460.45
465.14	9420.66
465.32	9710.88
465.50	9488.53
465.69	9818.55
465.87	9577.47
466.05	9575.13
466.23	9460.45
466.41	9490.87
466.60	9870.04
466.78	9584.49
466.96	9626.62
467.14	9650.03
467.32	9554.07
467.51	9916.85
467.69	9767.06
467.87	9703.86
468.05	9989.41
468.23	9970.68
468.41	9760.03
468.60	9898.13
468.78	10171.97
468.96	9966.00
469.14	9898.13
469.32	10085.37
469.50	9968.34
469.69	10265.59
469.87	10120.48
470.05	10279.63
470.23	10221.12
470.41	10132.18
470.59	10391.98
470.77	10509.01
470.95	10499.64
471.14	10501.98
471.32	10483.26
471.50	10897.53
471.68	10686.89
471.86	10574.54
472.04	10871.79
472.22	11021.58
472.40	10696.25
472.58	10902.22
472.77	11035.63
472.95	11162.01
473.13	11358.62
473.31	10878.81
473.49	10663.48
473.67	11208.83
473.85	11300.11
474.03	11634.80
474.21	11522.46
474.39	11456.92
474.57	11449.90
474.75	11681.61
474.93	11508.41
475.12	11728.42
475.30	11768.21
475.48	11683.95
475.66	11616.08
475.84	11648.85
476.02	11815.02
476.20	11784.60
476.38	12049.08
476.56	12362.71
476.74	12156.74
476.92	12182.49
477.10	12575.70
477.28	12475.06
477.46	12561.66
477.64	12898.69
477.82	12924.44
478.00	13142.11
478.18	12940.82
478.36	12999.34
478.54	13362.12
478.72	12889.33
478.90	13266.16
479.08	13848.95
479.26	13610.22
479.44	13678.09
479.62	13764.69
479.80	13668.73
479.98	14061.94
480.16	14115.77
480.34	14104.07
480.52	14279.61
480.70	14106.41
480.88	14190.67
481.06	14368.55
481.24	14483.24
481.41	14967.73
481.59	15136.24
481.77	14672.82
481.95	14974.75
482.13	15316.47
482.31	14960.70
482.49	15669.89
482.67	15625.42
482.85	15995.22
483.03	15627.76
483.21	15922.66
483.39	16170.76
483.57	16037.35
483.74	15850.11
483.92	16271.40
484.10	16072.46
484.28	16400.13
484.46	16767.60
484.64	17034.42
484.82	16585.04
485.00	16526.52
485.18	16704.40
485.35	16753.55
485.53	16535.88
485.71	16788.66
485.89	16896.33
486.07	17247.41
486.25	17406.56
486.43	17518.91
486.61	17535.29
486.78	18192.98
486.96	18082.98
487.14	18024.47
487.32	18321.71
487.50	18780.46
487.68	18616.62
487.85	19466.24
488.03	19176.01
488.21	19288.35
488.39	19264.95
488.57	19190.05
488.75	19644.12
488.92	19782.21
489.10	20011.58
489.28	20278.40
489.46	20290.10
489.64	20449.26
489.81	20886.94
489.99	21139.72
490.17	21034.39
490.35	21287.17
490.53	21205.25
490.70	21202.91
490.88	21226.32
491.06	21635.91
491.24	21303.56
491.41	21380.79
491.59	21497.82
491.77	21507.18
491.95	21759.96
492.13	22066.57
492.30	22235.09
492.48	22448.08
492.66	22188.28
492.84	22764.05
493.01	22700.86
493.19	22780.43
493.37	23257.90
493.54	23019.17
493.72	23358.55
493.90	23374.93
494.08	23592.60
494.25	24109.86
494.43	24098.16
494.61	24327.53
494.79	24620.10
494.96	24629.46
495.14	24257.31
495.32	24690.31
495.49	24287.74
495.67	24599.03
495.85	24720.74
496.02	25060.12
496.20	25287.15
496.38	25448.64
496.55	25701.42
496.73	26164.85
496.91	25661.63
497.09	25832.49
497.26	25996.33
497.44	25722.49
497.62	25991.65
497.79	26075.91
497.97	26031.44
498.14	26153.15
498.32	26321.66
498.50	26834.24
498.67	27033.19
498.85	26977.01
499.03	27204.05
499.20	27157.24
499.38	27173.62
499.56	27110.43
499.73	27442.78
499.91	27459.16
500.08	27321.07
500.26	27503.64
500.44	27316.39
500.61	27477.89
500.79	27489.59
500.97	27655.77
501.14	27871.10
501.32	27992.81
501.49	28203.46
501.67	28198.77
501.84	28292.40
502.02	28203.46
502.20	28776.89
502.37	29331.59
502.55	28783.91
502.72	28847.10
502.90	28898.59
503.07	28854.12
503.25	29092.86
503.43	28877.53
503.60	29221.59
503.78	29142.01
503.95	28903.28
504.13	29441.60
504.30	29699.06
504.48	29296.49
504.65	29710.76
504.83	29937.79
505.01	29853.53
505.18	30094.61
505.36	30637.61
505.53	30506.54
505.71	30747.62
505.88	30583.78
506.06	30391.86
506.23	30483.14
506.41	30309.94
506.58	30508.88
506.76	31079.97
506.93	30988.69
507.11	31278.92
507.28	31014.44
507.46	30635.27
507.63	30939.54
507.81	31349.14
507.98	31035.50
508.16	31297.64
508.33	31882.78
508.50	31882.78
508.68	32095.77
508.85	32121.51
509.03	32187.05
509.20	32196.41
509.38	32009.17
509.55	32212.79
509.73	32304.07
509.90	32577.92
510.08	32240.88
510.25	32217.47
510.42	32128.53
510.60	32566.21
510.77	32563.87
510.95	32662.18
511.12	32914.95
511.30	33549.24
511.47	33294.12
511.64	33701.37
511.82	33401.79
511.99	33502.43
512.17	33273.06
512.34	33097.52
512.51	33612.43
512.69	33970.54
512.86	34078.20
513.04	33914.36
513.21	33610.09
513.38	33900.32
513.56	34096.92
513.73	33638.18
513.90	34455.03
514.08	34281.83
514.25	34223.31
514.43	34522.90
514.60	34555.67
514.77	34373.11
514.95	34838.87
515.12	34782.70
515.29	34785.04
515.47	34909.09
515.64	35372.52
515.81	34862.28
515.99	34806.11
516.16	34888.03
516.33	34558.01
516.51	34375.45
516.68	34223.31
516.85	34319.28
517.03	34160.12
517.20	34820.15
517.37	35374.86
517.54	35585.50
517.72	35117.40
517.89	34768.66
518.06	34838.87
518.24	35154.85
518.41	35278.89
518.58	35494.22
518.75	35328.05
518.93	36137.87
519.10	36264.26
519.27	35920.20
519.45	36254.90
519.62	36634.06
519.79	36360.22
519.96	36240.86
520.14	36346.18
520.31	36219.79
520.48	36395.33
520.65	36580.23
520.83	37453.25
521.00	37125.58
521.17	37415.80
521.34	37139.62
521.52	37345.59
521.69	37132.60
521.86	36982.80
522.03	37254.31
522.20	37504.74
522.38	37415.80
522.55	37834.76
522.72	37493.04
522.89	37294.10
523.07	37759.86
523.24	37640.50
523.41	37940.08
523.58	37982.21
523.75	38508.83
523.92	38363.72
524.10	38710.12
524.27	38864.60
524.44	38630.54
524.61	38440.96
524.78	38377.76
524.96	38237.33
525.13	38630.54
525.30	38728.84
525.47	38946.51
525.64	38682.03
525.81	38906.73
525.98	38684.37
526.16	38024.34
526.33	38476.07
526.50	38705.44
526.67	38326.27
526.84	38637.56
527.01	38799.06
527.18	39009.71
527.36	39288.23
527.53	39414.62
527.70	39407.60
527.87	39761.02
528.04	39339.72
528.21	39599.52
528.38	39868.69
528.55	39873.37
528.72	40233.81
528.89	40093.38
529.07	39835.92
529.24	39475.48
529.41	39777.40
529.58	40175.30
529.75	40086.36
529.92	39704.85
530.09	40226.79
530.26	40079.33
530.43	40481.91
530.60	39817.19
530.77	40128.48
530.94	40809.58
531.11	40121.46
531.28	40278.28
531.46	40608.29
531.63	40828.30
531.80	40486.59
531.97	40439.78
532.14	40610.64
532.31	39992.73
532.48	40348.50
532.65	40884.48
532.82	40760.43
532.99	41125.55
533.16	40877.46
533.33	41230.88
533.50	41450.89
533.67	40935.97
533.84	41228.54
534.01	41031.93
534.18	40804.90
534.35	41263.64
534.52	41069.38
534.69	41249.60
534.86	41308.11
535.03	41682.60
535.20	41886.23
535.37	42337.95
535.54	42298.16
535.71	41502.38
535.88	41940.06
536.05	42066.45
536.22	41734.09
536.38	42167.09
536.55	41666.22
536.72	41811.33
536.89	41703.67
537.06	42150.71
537.23	42197.52
537.40	41823.03
537.57	42106.24
537.74	42277.10
537.91	42691.37
538.08	42541.58
538.25	42298.16
538.42	42251.35
538.59	42586.05
538.75	42443.27
538.92	42354.33
539.09	42644.56
539.26	42452.64
539.43	42838.83
539.60	42555.62
539.77	42234.97
539.94	42794.36
540.11	42153.05
540.28	42445.62
540.44	42972.24
540.61	42550.94
540.78	42513.49
540.95	42295.82
541.12	42756.91
541.29	42951.17
541.46	42794.36
541.62	43143.09
541.79	43232.04
541.96	42541.58
542.13	43016.71
542.30	42918.40
542.47	43206.29
542.63	43318.64
542.80	43220.33
542.97	43459.07
543.14	43761.00
543.31	43889.73
543.48	43845.26
543.64	44488.90
543.81	43824.19
543.98	43519.92
544.15	43903.77
544.32	44397.62
544.48	44259.53
544.65	43587.80
544.82	44311.02
544.99	44018.46
545.16	44219.74
545.32	43915.47
545.49	44336.77
545.66	44734.66
545.83	44442.09
546.00	44140.16
546.16	44205.70
546.33	44437.41
546.50	44224.42
546.67	44402.30
546.83	44147.18
547.00	44231.44
547.17	43875.68
547.34	44186.97
547.50	43948.24
547.67	44531.03
547.84	44460.82
548.00	44629.34
548.17	45111.49
548.34	44587.21
548.51	44968.71
548.67	45081.06
548.84	44926.58
549.01	44783.81
549.18	44889.13
549.34	44596.57
549.51	45425.12
549.68	44921.90
549.84	45057.65
550.01	45326.81
550.18	44987.44
550.34	45223.83
550.51	45265.96
550.68	45237.87
550.84	44694.87
551.01	44945.31
551.18	45514.06
551.34	45261.28
551.51	45605.34
551.68	45780.88
551.84	45181.70
552.01	45298.73
552.18	45144.25
552.34	44547.42
552.51	45705.98
552.68	45167.66
552.84	45640.45
553.01	45497.67
553.18	45652.15
553.34	45446.18
553.51	44992.12
553.67	45600.66
553.84	46248.99
554.01	45769.18
554.17	45654.49
554.34	45979.82
554.51	45745.77
554.67	45701.30
554.84	45804.28
555.00	45853.44
555.17	45649.81
555.33	45830.03
555.50	45525.76
555.67	45930.67
555.83	45741.09
556.00	46012.59
556.16	46150.68
556.33	45907.27
556.50	45661.51
556.66	45666.19
556.83	46073.45
556.99	46253.67
557.16	45923.65
557.32	46354.31
557.49	45916.63
557.65	45888.54
557.82	46607.09
557.98	46045.36
558.15	46141.32
558.32	45923.65
558.48	45684.92
558.65	45883.86
558.81	45893.22
558.98	46253.67
559.14	45598.32
559.31	46089.83
559.47	46335.59
559.64	46443.25
559.80	46239.62
559.97	46326.22
560.13	46108.55
560.30	46373.03
560.46	46351.97
560.63	46464.32
560.79	46679.64
560.96	46504.10
561.12	46548.57
561.29	46588.36
561.45	46272.39
561.61	46820.08
561.78	46436.23
561.94	46232.60
562.11	46380.06
562.27	46440.91
562.44	46803.69
562.60	46782.63
562.77	46939.44
562.93	46726.46
563.10	46534.53
563.26	46192.81
563.42	46766.24
563.59	46284.09
563.75	46349.63
563.92	46602.41
564.08	46356.65
564.24	46878.59
564.41	46733.48
564.57	46899.65
564.74	46796.67
564.90	46892.63
565.07	46906.68
565.23	46796.67
565.39	46689.01
565.56	46712.41
565.72	46370.69
565.88	46377.72
566.05	46525.17
566.21	46553.26
566.38	46770.93
566.54	46784.97
566.70	46803.69
566.87	46906.68
567.03	46759.22
567.19	47105.62
567.36	46693.69
567.52	46705.39
567.68	46806.03
567.85	46707.73
568.01	46777.95
568.17	46747.52
568.34	46593.04
568.50	46976.89
568.66	46937.10
568.83	46941.78
568.99	46902.00
569.15	46639.86
569.32	46625.81
569.48	46651.56
569.64	46969.87
569.81	47089.24
569.97	46773.27
570.13	46784.97
570.30	46431.55
570.46	46476.02
570.62	46174.09
570.78	46684.33
570.95	46335.59
571.11	46740.50
571.27	46955.83
571.43	46962.85
571.60	46836.46
571.76	46979.23
571.92	46923.06
572.09	46623.47
572.25	46536.87
572.41	46794.33
572.57	46866.89
572.74	47026.04
572.90	46691.35
573.06	47002.64
573.22	47344.36
573.38	46906.68
573.55	47004.98
573.71	47295.21
573.87	47068.17
574.03	47004.98
574.20	47051.79
574.36	47047.11
574.52	46930.08
574.68	46864.55
574.84	47136.05
575.01	47065.83
575.17	47248.39
575.33	46616.45
575.49	46689.01
575.65	47393.51
575.82	47082.22
575.98	46621.13
576.14	47096.26
576.30	47049.45
576.46	47075.19
576.62	47260.10
576.79	47016.68
576.95	47047.11
577.11	47196.90
577.27	46784.97
577.43	46983.91
577.59	47044.77
577.75	46745.18
577.92	46476.02
578.08	46628.15
578.24	47026.04
578.40	46773.27
578.56	46684.33
578.72	46974.55
578.88	47222.65
579.04	47187.54
579.21	46689.01
579.37	46686.67
579.53	46913.70
579.69	47063.49
579.85	47042.43
580.01	47180.52
580.17	47077.54
580.33	47187.54
580.49	47250.74
580.65	46890.29
580.82	47274.14
580.98	46979.23
581.14	46232.60
581.30	47180.52
581.46	47033.07
581.62	47077.54
581.78	46916.04
581.94	47461.38
582.10	46972.21
582.26	47159.45
582.42	47241.37
582.58	47068.17
582.74	47164.14
582.90	47391.17
583.06	47576.07
583.22	47435.64
583.38	47367.76
583.54	47318.61
583.70	47077.54
583.86	47496.49
584.02	46588.36
584.18	47349.04
584.34	47150.09
584.50	47243.71
584.66	46761.56
584.82	46670.28
584.98	46990.94
585.14	47105.62
585.30	46948.81
585.46	47051.79
585.62	47084.56
585.78	46754.54
585.94	46646.88
586.10	47185.20
586.26	46834.12
586.42	47100.94
586.58	47173.50
586.74	47414.57
586.90	46897.31
587.06	46983.91
587.22	47065.83
587.38	46712.41
587.54	47070.51
587.70	47042.43
587.86	47342.02
588.02	47042.43
588.18	47243.71
588.34	46768.58
588.49	46560.28
588.65	46527.51
588.81	46469.00
588.97	46588.36
589.13	46148.34
589.29	46344.95
589.45	47124.35
589.61	47042.43
589.77	47239.03
589.93	47126.69
590.08	47166.48
590.24	47136.05
590.40	47166.48
590.56	47367.76
590.72	47262.44
590.88	47037.75
591.04	47208.61
591.20	47533.94
591.35	47437.98
591.51	47585.43
591.67	47372.44
591.83	47463.72
591.99	47145.41
592.15	47131.37
592.31	47281.16
592.46	47533.94
592.62	47695.44
592.78	47112.64
592.94	47236.69
593.10	47278.82
593.26	47384.15
593.41	47093.92
593.57	47234.35
593.73	46930.08
593.89	46742.84
594.05	47122.01
594.20	47269.46
594.36	46857.52
594.52	47007.32
594.68	46824.76
594.84	46768.58
594.99	47082.22
595.15	46911.36
595.31	47299.89
595.47	47318.61
595.62	47250.74
595.78	47131.37
595.94	47377.12
596.10	47576.07
596.25	47646.29
596.41	47129.03
596.57	47473.09
596.73	47138.39
596.88	46813.05
597.04	46859.87
597.20	46794.33
597.36	47112.64
597.51	47358.40
597.67	47533.94
597.83	47391.17
597.99	47875.66
598.14	47269.46
598.30	46679.64
598.46	47124.35
598.61	47133.71
598.77	46476.02
598.93	46777.95
599.09	47112.64
599.24	47657.99
599.40	47426.28
599.56	47501.17
599.71	47346.70
599.87	47241.37
600.03	46770.93
600.18	47454.36
600.34	47154.77
600.50	47264.78
600.65	47161.79
600.81	47150.09
600.97	47232.01
601.12	47349.04
601.28	47370.10
601.44	47138.39
601.59	47154.77
601.75	46951.15
601.91	46763.90
602.06	46806.03
602.22	47068.17
602.37	47166.48
602.53	47058.81
602.69	47365.42
602.84	47157.11
603.00	47019.02
603.16	47271.80
603.31	47234.35
603.47	47445.00
603.62	46904.34
603.78	47178.18
603.94	46923.06
604.09	47445.00
604.25	47620.54
604.40	47000.30
604.56	47061.15
604.71	47150.09
604.87	47482.45
605.03	47363.08
605.18	47051.79
605.34	47210.95
605.49	46717.09
605.65	47054.13
605.80	47114.98
605.96	46894.97
606.12	47100.94
606.27	47290.52
606.43	46862.21
606.58	46934.76
606.74	46539.21
606.89	47002.64
607.05	46763.90
607.20	46857.52
607.36	47122.01
607.51	47138.39
607.67	46911.36
607.82	46597.73
607.98	46864.55
608.13	46625.81
608.29	46417.50
608.44	46454.95
608.60	46370.69
608.75	46546.23
608.91	46983.91
609.06	46873.91
609.22	46660.92
609.37	46305.16
609.53	46637.51
609.68	46740.50
609.84	46876.25
609.99	46485.38
610.15	46309.84
610.30	46658.58
610.46	46300.48
610.61	46405.80
610.76	46499.42
610.92	46639.86
611.07	47049.45
611.23	46522.83
611.38	45930.67
611.54	46302.82
611.69	46080.47
611.84	46312.18
612.00	45968.12
612.15	46148.34
612.31	46043.02
612.46	46649.22
612.62	46403.46
612.77	46415.16
612.92	46813.05
613.08	46211.54
613.23	45951.74
613.39	46223.24
613.54	45640.45
613.69	46197.49
613.85	45736.41
614.00	45806.62
614.15	46316.86
614.31	46300.48
614.46	46181.11
614.62	45862.80
614.77	46363.67
614.92	46124.94
615.08	46019.61
615.23	45535.12
615.38	45914.29
615.54	45670.87
615.69	45785.56
615.84	45298.73
616.00	45490.65
616.15	45958.76
616.30	45794.92
616.46	45645.13
616.61	45401.71
616.76	45287.03
616.92	45322.13
617.07	45514.06
617.22	45008.50
617.37	45457.88
617.53	45923.65
617.68	45471.93
617.83	45780.88
617.99	45404.05
618.14	45375.97
618.29	45125.53
618.45	45188.72
618.60	45010.84
618.75	44914.88
618.90	45249.58
619.06	44893.82
619.21	45415.76
619.36	45713.00
619.51	45043.61
619.67	45333.84
619.82	45326.81
619.97	45380.65
620.12	45191.06
620.28	44893.82
620.43	45151.27
620.58	44889.13
620.73	44971.05
620.89	44669.12
621.04	44985.10
621.19	45146.59
621.34	44975.73
621.49	44437.41
621.65	44641.04
621.80	44744.02
621.95	44748.70
622.10	45057.65
622.25	44664.44
622.41	44121.44
622.56	44406.98
622.71	44552.10
622.86	44940.63
623.01	44491.24
623.16	44378.90
623.32	44179.95
623.47	44868.07
623.62	44528.69
623.77	44374.22
623.92	44655.08
624.07	44142.50
624.23	44168.25
624.38	44315.70
624.53	43899.09
624.68	44315.70
624.83	44650.40
624.98	44414.01
625.13	43948.24
625.29	43831.21
625.44	44011.43
625.59	43756.32
625.74	43517.58
625.89	43840.57
626.04	43945.90
626.19	44196.34
626.34	43688.44
626.49	43906.11
626.65	43758.66
626.80	43585.46
626.95	44177.61
627.10	43611.20
627.25	43594.82
627.40	43194.59
627.55	43225.01
627.70	43171.18
627.85	43344.38
628.00	43072.88
628.15	43580.78
628.30	43438.00
628.45	43311.61
628.60	43545.67
628.76	43475.45
628.91	43536.30
629.06	42642.22
629.21	42848.19
629.36	43138.41
629.51	42394.12
629.66	43269.48
629.81	42539.24
629.96	43030.75
630.11	42845.85
630.26	43325.66
630.41	43508.22
630.56	42967.55
630.71	42824.78
630.86	42939.47
631.01	42600.09
631.16	43009.68
631.31	42569.66
631.46	42553.28
631.61	42916.06
631.76	42543.92
631.91	42784.99
632.06	42923.08
632.21	43147.78
632.36	42813.08
632.51	42789.67
632.66	42333.27
632.81	42677.33
632.96	42501.79
633.10	42677.33
633.25	42525.19
633.40	42431.57
633.55	42436.25
633.70	42462.00
633.85	42518.17
634.00	42550.94
634.15	42651.58
634.30	42454.98
634.45	42263.05
634.60	42522.85
634.75	42213.90
634.90	42312.20
635.05	42017.30
635.19	41694.30
635.34	42660.94
635.49	42401.14
635.64	42192.84
635.79	41951.76
635.94	41830.05
636.09	42204.54
636.24	41904.95
636.39	41598.34
636.53	41879.21
636.68	41759.84
636.83	41830.05
636.98	42237.31
637.13	41734.09
637.28	42295.82
637.43	41951.76
637.57	42122.62
637.72	41958.78
637.87	41703.67
638.02	41998.57
638.17	41937.72
638.32	42120.28
638.46	41518.76
638.61	41467.27
638.76	41364.29
638.91	42007.94
639.06	41710.69
639.20	41900.27
639.35	41942.40
639.50	41567.91
639.65	41663.88
639.80	41640.47
639.94	41127.89
640.09	40917.25
640.24	41528.13
640.39	40905.54
640.54	40627.02
640.68	41383.01
640.83	41305.77
640.98	40961.72
641.13	41167.68
641.27	41113.85
641.42	41556.21
641.57	40851.71
641.72	40940.65
641.86	40444.46
642.01	40535.74
642.16	40917.25
642.31	40430.41
642.45	41179.39
642.60	40790.86
642.75	40297.00
642.90	40584.89
643.04	40875.12
643.19	40458.50
643.34	40577.87
643.48	40404.67
643.63	40467.86
643.78	40704.26
643.93	40701.92
644.07	40187.00
644.22	40184.66
644.37	39990.39
644.51	40715.96
644.66	40514.67
644.81	40409.35
644.95	40650.42
645.10	40591.91
645.25	40163.59
645.39	40704.26
645.54	40385.94
645.69	40259.55
645.83	40224.45
645.98	40357.86
646.13	40100.40
646.27	40484.25
646.42	40114.44
646.57	40037.20
646.71	40095.72
646.86	40123.80
647.00	40308.71
647.15	39882.73
647.30	39966.99
647.44	39943.58
647.59	39447.39
647.74	39662.72
647.88	39915.50
648.03	40065.29
648.17	39821.87
648.32	39798.47
648.47	39775.06
648.61	39866.34
648.76	40137.85
648.90	39917.84
649.05	39622.93
649.20	39337.38
649.34	39503.56
649.49	39569.10
649.63	39395.90
649.78	39306.96
649.92	39236.74
650.07	40322.75
650.21	39323.34
650.36	39791.45
650.51	39440.37
650.65	39725.91
650.80	39938.90
650.94	39569.10
651.09	39669.74
651.23	38962.90
651.38	39339.72
651.52	38913.75
651.67	39009.71
651.81	39040.14
651.96	39271.85
652.10	39222.70
652.25	38934.81
652.39	39061.20
652.54	39402.92
652.68	39569.10
652.83	38885.66
652.97	39407.60
653.12	39199.29
653.26	39100.99
653.41	39056.52
653.55	38508.83
653.70	38988.64
653.84	38857.57
653.99	38813.10
654.13	38838.85
654.27	38569.69
654.42	38581.39
654.56	38471.39
654.71	38876.30
654.85	38616.50
655.00	38314.57
655.14	38368.40
655.29	38024.34
655.43	38373.08
655.57	38050.09
655.72	38061.79
655.86	37488.36
656.01	37680.28
656.15	37947.11
656.30	37780.93
656.44	37551.56
656.58	38089.88
656.73	37860.51
656.87	38499.47
657.01	37783.27
657.16	38005.62
657.30	37745.82
657.45	37752.84
657.59	38096.90
657.73	37954.13
657.88	37851.14
658.02	37890.93
658.16	38295.85
658.31	38199.88
658.45	38120.31
658.60	37832.42
658.74	37909.66
658.88	37785.61
659.03	37319.84
659.17	37289.42
659.31	37581.98
659.46	37530.49
659.60	37542.19
659.74	37577.30
659.89	37109.19
660.03	36807.26
660.17	37628.79
660.32	37340.91
660.46	37558.58
660.60	37280.05
660.74	37233.24
660.89	37104.51
661.03	36952.38
661.17	36449.16
661.32	36556.83
661.46	36985.15
661.60	36907.91
661.74	37174.73
661.89	36917.27
662.03	36961.74
662.17	36655.13
662.31	36615.34
662.46	37497.72
662.60	36804.92
662.74	36547.47
662.88	36517.04
663.03	36095.74
663.17	36521.72
663.31	36217.45
663.45	36425.76
663.60	36238.51
663.74	35920.20
663.88	36151.91
664.02	36215.11
664.17	35955.31
664.31	36041.91
664.45	35690.83
664.59	35765.73
664.73	35866.37
664.88	35700.19
665.02	35658.06
665.16	35449.75
665.30	35098.67
665.44	35615.93
665.59	35688.49
665.73	35711.89
665.87	35035.48
666.01	34995.69
666.15	35559.76
666.29	35222.72
666.44	35402.94
666.58	35372.52
666.72	34981.65
666.86	35484.86
667.00	34991.01
667.14	34934.84
667.28	34817.81
667.43	34703.12
667.57	34939.52
667.71	34986.33
667.85	35023.78
667.99	34506.52
668.13	34312.25
668.27	34885.68
668.41	34684.40
668.56	34202.25
668.70	34483.11
668.84	33968.19
668.98	33862.87
669.12	34038.41
669.26	34115.65
669.40	34108.63
669.54	33750.52
669.68	34167.14
669.82	33741.16
669.96	33762.23
670.10	33626.48
670.25	33841.81
670.39	33867.55
670.53	33422.85
670.67	33572.64
670.81	33612.43
670.95	33553.92
671.09	33673.29
671.23	33338.59
671.37	33294.12
671.51	32774.52
671.65	32725.37
671.79	32816.65
671.93	33034.32
672.07	33235.61
672.21	33156.03
672.35	33134.96
672.49	32776.86
672.63	32741.75
672.77	32655.15
672.91	32879.85
673.05	32716.01
673.19	32479.61
673.33	32568.55
673.47	31824.26
673.61	31952.99
673.75	32292.37
673.89	31587.87
674.03	31913.20
674.17	31740.00
674.31	32130.87
674.45	31789.16
674.59	31686.17
674.73	31798.52
674.87	31927.25
675.01	31751.71
675.15	31824.26
675.29	31339.77
675.43	31405.31
675.56	31225.09
675.70	31295.30
675.84	30974.65
675.98	30218.66
676.12	31094.02
676.26	30707.83
676.40	30993.37
676.54	30948.90
676.68	30857.62
676.82	30654.00
676.96	30274.83
677.10	30185.89
677.23	30417.60
677.37	30136.74
677.51	30216.32
677.65	30342.70
677.79	29446.28
677.93	29558.63
678.07	30010.35
678.21	29247.33
678.34	29008.60
678.48	29106.90
678.62	29106.90
678.76	29151.37
678.90	29069.45
679.04	29020.30
679.18	28938.38
679.31	28599.01
679.45	28477.30
679.59	28531.13
679.73	28430.49
679.87	28521.77
680.00	28105.15
680.14	27889.82
680.28	28629.43
680.42	28180.05
680.56	27983.44
680.70	28297.08
680.83	28088.77
680.97	27681.52
681.11	28037.28
681.25	27976.42
681.39	27775.14
681.52	27550.45
681.66	27454.48
681.80	27498.95
681.94	26937.23
682.07	27009.78
682.21	27213.41
682.35	26852.97
682.49	27236.81
682.62	26726.58
682.76	26897.44
682.90	26541.68
683.04	26670.40
683.17	26342.73
683.31	26253.79
683.45	26237.41
683.59	26122.72
683.72	26111.02
683.86	26412.95
684.00	26359.11
684.13	25914.41
684.27	25333.96
684.41	25600.78
684.55	25497.80
684.68	25715.47
684.82	25167.78
684.96	25364.39
685.09	25298.85
685.23	24884.58
685.37	25181.82
685.50	25191.19
685.64	25013.31
685.78	24713.72
685.91	25039.05
686.05	24702.01
686.19	24044.32
686.32	24137.94
686.46	23852.40
686.60	23585.58
686.73	23573.88
686.87	23278.97
687.01	23339.82
687.14	23236.84
687.28	23138.54
687.42	23562.17
687.55	23433.44
687.69	23250.88
687.82	23255.56
687.96	23618.35
688.10	22981.72
688.23	23054.28
688.37	23161.94
688.50	22824.90
688.64	22773.41
688.78	22520.63
688.91	22665.75
689.05	22766.39
689.18	22419.99
689.32	22223.39
689.46	22335.73
689.59	22459.78
689.73	22707.88
689.86	22087.64
690.00	21799.75
690.13	21989.33
690.27	21930.82
690.41	21708.47
690.54	21326.96
690.68	21722.51
690.81	21687.40
690.95	21584.42
691.08	21411.22
691.22	21638.25
691.35	21551.65
691.49	21500.16
691.62	21170.15
691.76	21275.47
691.89	21123.33
692.03	21071.84
692.16	20931.41
692.30	20842.47
692.43	20142.65
692.57	20493.73
692.70	20395.43
692.84	20280.74
692.97	20133.29
693.11	20105.20
693.24	19953.07
693.38	20088.82
693.51	20016.26
693.65	20285.42
693.78	20350.96
693.92	19758.80
694.05	19810.29
694.19	19709.65
694.32	19468.58
694.45	19463.90
694.59	19103.45
694.72	19300.06
694.86	19178.35
694.99	19002.81
695.13	19164.31
695.26	18864.72
695.39	18878.76
695.53	19061.32
695.66	19176.01
695.80	18633.00
695.93	18717.26
696.07	18656.41
696.20	18396.61
696.33	18588.53
696.47	18401.29
696.60	18389.59
696.73	18029.15
696.87	18022.12
697.00	18097.02
697.14	18033.83
697.27	17696.79
697.40	17848.93
697.54	17774.03
697.67	17556.36
697.80	17530.61
697.94	17502.53
698.07	17397.20
698.21	17462.74
698.34	17242.73
698.47	17266.13
698.61	16936.12
698.74	17003.99
698.87	17006.33
699.01	16549.93
699.14	16446.94
699.27	16671.64
699.40	16566.31
699.54	16524.18
699.67	16566.31
699.80	16383.75
699.94	16346.30
700.07	16276.09
700.20	16142.67
700.34	16053.73
700.47	16173.10
700.60	16093.52
700.73	16194.17
700.87	15920.32
701.00	15922.66
701.13	15634.78
701.26	15697.97
701.40	15807.98
701.53	15723.72
701.66	15555.20
701.79	15445.20
701.93	15461.58
702.06	15192.42
702.19	15173.69
702.32	15248.59
702.46	14941.98
702.59	14981.77
702.72	15115.18
702.85	15122.20
702.99	14714.95
703.12	14785.16
703.25	14696.22
703.38	14700.90
703.51	14340.46
703.65	14211.73
703.78	14429.40
703.91	14387.27
704.04	14256.20
704.17	14317.06
704.31	14129.81
704.44	14167.26
704.57	14129.81
704.70	13956.61
704.83	14015.13
704.96	13921.51
705.10	13830.23
705.23	13935.55
>>>>>End Processed Spectral Data<<<<<
