SpectraSuite Data File
++++++++++++++++++++++++++++++++++++
Date: Fri Oct 25 10:47:34 EDT 2013
User: price-jones
Dark Spectrum Present: No
Reference Spectrum Present: No
Number of Sampled Component Spectra: 1
Spectrometers: USB2+H05261
Integration Time (usec): 100000 (USB2+H05261)
Spectra Averaged: 1 (USB2+H05261)
Boxcar Smoothing: 0 (USB2+H05261)
Correct for Electrical Dark: No (USB2+H05261)
Strobe/Lamp Enabled: No (USB2+H05261)
Correct for Detector Non-linearity: No (USB2+H05261)
Correct for Stray Light: No (USB2+H05261)
Number of Pixels in Processed Spectrum: 2048
>>>>>Begin Processed Spectral Data<<<<<
365.73	124.05
365.92	124.05
366.12	124.05
366.32	70.22
366.52	0.00
366.72	51.49
366.91	0.00
367.11	74.90
367.31	42.13
367.51	107.66
367.70	114.69
367.90	63.19
368.10	0.00
368.30	65.54
368.49	46.81
368.69	65.54
368.89	56.17
369.09	39.79
369.28	84.26
369.48	37.45
369.68	133.41
369.87	133.41
370.07	156.82
370.27	159.16
370.47	182.56
370.66	341.72
370.86	397.89
371.06	475.13
371.25	416.62
371.45	388.53
371.65	390.87
371.84	425.98
372.04	430.66
372.24	440.02
372.44	489.17
372.63	510.24
372.83	512.58
373.03	482.15
373.22	510.24
373.42	507.90
373.62	463.43
373.81	552.37
374.01	554.71
374.21	472.79
374.40	585.13
374.60	498.53
374.79	531.30
374.99	641.31
375.19	535.98
375.38	564.07
375.58	578.11
375.78	617.90
375.97	531.30
376.17	552.37
376.37	573.43
376.56	596.84
376.76	655.35
376.95	557.05
377.15	655.35
377.35	585.13
377.54	496.19
377.74	748.97
377.93	631.94
378.13	620.24
378.33	599.18
378.52	645.99
378.72	606.20
378.91	582.79
379.11	578.11
379.31	655.35
379.50	671.73
379.70	638.97
379.89	692.80
380.09	627.26
380.28	655.35
380.48	627.26
380.68	592.16
380.87	603.86
381.07	676.41
381.26	648.33
381.46	559.39
381.65	716.20
381.85	638.97
382.04	725.57
382.24	699.82
382.43	606.20
382.63	688.12
382.83	580.45
383.02	674.07
383.22	835.57
383.41	706.84
383.61	690.46
383.80	683.44
384.00	730.25
384.19	748.97
384.39	723.23
384.58	758.33
384.78	758.33
384.97	812.17
385.17	725.57
385.36	734.93
385.56	763.01
385.75	746.63
385.95	814.51
386.14	713.86
386.34	774.72
386.53	858.98
386.72	737.27
386.92	758.33
387.11	777.06
387.31	758.33
387.50	760.67
387.70	800.46
387.89	741.95
388.09	809.83
388.28	755.99
388.48	828.55
388.67	828.55
388.86	837.91
389.06	894.08
389.25	917.49
389.45	945.58
389.64	968.98
389.84	870.68
390.03	971.32
390.22	887.06
390.42	933.87
390.61	880.04
390.81	922.17
391.00	830.89
391.19	999.41
391.39	901.11
391.58	959.62
391.78	910.47
391.97	1008.77
392.16	894.08
392.36	1015.79
392.55	973.66
392.75	854.30
392.94	964.30
393.13	1027.50
393.33	856.64
393.52	938.55
393.71	1064.94
393.91	954.94
394.10	1034.52
394.29	983.02
394.49	959.62
394.68	1071.97
394.88	1123.46
395.07	987.71
395.26	1086.01
395.46	1006.43
395.65	1090.69
395.84	1076.65
396.04	1055.58
396.23	1060.26
396.42	1069.62
396.62	1125.80
396.81	1132.82
397.00	1130.48
397.19	1137.50
397.39	1231.12
397.58	1221.76
397.77	1196.01
397.97	1109.41
398.16	1334.11
398.35	1242.82
398.55	1296.66
398.74	1226.44
398.93	1210.06
399.12	1275.59
399.32	1270.91
399.51	1327.08
399.70	1369.21
399.90	1303.68
400.09	1385.60
400.28	1383.26
400.47	1385.60
400.67	1441.77
400.86	1479.22
401.05	1472.20
401.24	1453.47
401.44	1451.13
401.63	1495.60
401.82	1390.28
402.01	1387.94
402.21	1411.34
402.40	1465.18
402.59	1476.88
402.78	1533.05
402.97	1469.86
403.17	1547.09
403.36	1544.75
403.55	1416.02
403.74	1600.93
403.93	1680.50
404.13	1619.65
404.32	1614.97
404.51	1575.18
404.70	1771.79
404.89	1717.95
405.09	1699.23
405.28	1650.08
405.47	1661.78
405.66	1701.57
405.85	1685.19
406.05	1668.80
406.24	1724.97
406.43	1708.59
406.62	1736.68
406.81	1914.56
407.00	1916.90
407.20	1834.98
407.39	1764.76
407.58	1870.09
407.77	1846.68
407.96	1884.13
408.15	1930.94
408.34	1830.30
408.54	1980.09
408.73	1907.54
408.92	2057.33
409.11	1884.13
409.30	2017.54
409.49	2050.31
409.68	2008.18
409.87	2043.29
410.07	2040.95
410.26	2085.42
410.45	2043.29
410.64	2059.67
410.83	2181.38
411.02	2026.90
411.21	2195.42
411.40	2209.47
411.59	2246.91
411.78	2237.55
411.98	2200.10
412.17	2235.21
412.36	2307.77
412.55	2415.43
412.74	2473.95
412.93	2471.61
413.12	2368.62
413.31	2450.54
413.50	2328.83
413.69	2429.48
413.88	2595.65
414.07	2553.52
414.26	2473.95
414.45	2551.18
414.64	2516.08
414.83	2644.81
415.02	2668.21
415.22	2686.94
415.41	2759.49
415.60	2684.59
415.79	2834.39
415.98	2700.98
416.17	2853.11
416.36	2834.39
416.55	2782.90
416.74	2892.90
416.93	2815.66
417.12	2904.60
417.31	2930.35
417.50	3021.63
417.69	2965.46
417.88	3066.10
418.07	2935.03
418.26	3012.27
418.45	2967.80
418.64	3077.80
418.83	3040.36
419.02	3101.21
419.21	3251.00
419.39	3171.43
419.58	2981.84
419.77	3089.51
419.96	3283.77
420.15	3246.32
420.34	3164.40
420.53	3288.45
420.72	3295.47
420.91	3344.63
421.10	3414.84
421.29	3325.90
421.48	3356.33
421.67	3269.73
421.86	3286.11
422.05	3421.86
422.24	3342.28
422.43	3351.65
422.61	3447.61
422.80	3435.91
422.99	3534.21
423.18	3513.14
423.37	3473.36
423.56	3311.86
423.75	3508.46
423.94	3283.77
424.13	3166.74
424.32	3236.96
424.50	3513.14
424.69	3552.93
424.88	3557.61
425.07	3557.61
425.26	3480.38
425.45	3534.21
425.64	3428.88
425.83	3538.89
426.01	3637.19
426.20	3433.57
426.39	3428.88
426.58	3506.12
426.77	3524.85
426.96	3583.36
427.15	3538.89
427.33	3581.02
427.52	3496.76
427.71	3583.36
427.90	3569.32
428.09	3611.45
428.28	3716.77
428.46	3744.86
428.65	3574.00
428.84	3770.60
429.03	3803.37
429.22	3623.15
429.40	3763.58
429.59	3777.62
429.78	3513.14
429.97	3508.46
430.16	3688.68
430.34	3798.69
430.53	3918.06
430.72	3810.39
430.91	3782.31
431.10	3852.52
431.28	3948.48
431.47	4124.02
431.66	4025.72
431.85	3962.53
432.03	4086.58
432.22	4121.68
432.41	4100.62
432.60	4091.26
432.79	4243.39
432.97	4222.33
433.16	4187.22
433.35	4133.39
433.54	4262.12
433.72	4105.30
433.91	4194.24
434.10	4376.80
434.28	4159.13
434.47	4388.50
434.66	4360.42
434.85	4374.46
435.03	4339.35
435.22	4318.29
435.41	4479.79
435.59	4461.06
435.78	4428.29
435.97	4566.39
436.16	4358.08
436.34	4550.00
436.53	4575.75
436.72	4624.90
436.90	4292.54
437.09	4622.56
437.28	4610.86
437.46	4669.37
437.65	4596.81
437.84	4571.07
438.02	4631.92
438.21	4683.41
438.40	4727.88
438.58	4709.16
438.77	4758.31
438.96	4662.35
439.14	4882.36
439.33	5057.90
439.52	4896.40
439.70	5085.98
439.89	5011.09
440.08	5095.35
440.26	4997.04
440.45	5027.47
440.63	5195.99
440.82	5174.92
441.01	5144.50
441.19	5305.99
441.38	5254.50
441.57	5334.08
441.75	5423.02
441.94	5483.88
442.12	5493.24
442.31	5526.00
442.50	5591.54
442.68	5570.48
442.87	5504.94
443.05	5849.00
443.24	5689.84
443.43	5568.13
443.61	5734.31
443.80	5823.25
443.98	5736.65
444.17	5542.39
444.35	5767.08
444.54	5736.65
444.73	5802.19
444.91	5802.19
445.10	5715.59
445.28	5699.20
445.47	5804.53
445.65	5727.29
445.84	5804.53
446.02	5809.21
446.21	5844.32
446.39	5628.99
446.58	5898.15
446.77	5959.00
446.95	5827.93
447.14	5863.04
447.32	5968.37
447.51	5701.54
447.69	5804.53
447.88	5860.70
448.06	5942.62
448.25	5916.87
448.43	6008.16
448.62	5877.09
448.80	5900.49
448.99	5914.53
449.17	6012.84
449.36	6017.52
449.54	5989.43
449.73	6228.17
449.91	6193.06
450.10	6249.23
450.28	6314.77
450.46	6307.74
450.65	6160.29
450.83	6263.27
451.02	6258.59
451.20	6403.71
451.39	6464.56
451.57	6225.82
451.76	6303.06
451.94	6317.11
452.13	6387.32
452.31	6422.43
452.49	6300.72
452.68	6363.92
452.86	6305.40
453.05	6422.43
453.23	6464.56
453.42	6520.73
453.60	6406.05
453.78	6600.31
453.97	6413.07
454.15	6370.94
454.34	6478.60
454.52	6794.58
454.70	6785.21
454.89	6820.32
455.07	6565.20
455.26	6813.30
455.44	6654.14
455.62	6883.52
455.81	6855.43
455.99	7014.59
456.17	6808.62
456.36	6780.53
456.54	6956.07
456.73	6878.83
456.91	7117.57
457.09	7178.42
457.28	7208.85
457.46	6991.18
457.64	7082.46
457.83	7215.87
458.01	7129.27
458.19	7286.09
458.38	7339.92
458.56	7435.88
458.74	7396.09
458.93	7267.36
459.11	7438.22
459.29	7459.29
459.48	7325.88
459.66	7384.39
459.84	7360.98
460.03	7445.24
460.21	7583.34
460.39	7501.42
460.57	7473.33
460.76	7473.33
460.94	7559.93
461.12	7538.87
461.31	7627.81
461.49	7588.02
461.67	7679.30
461.85	7686.32
462.04	7810.37
462.22	8196.56
462.40	7960.16
462.59	7852.50
462.77	7861.86
462.95	7749.51
463.13	7906.33
463.32	7936.76
463.50	7824.41
463.68	7992.93
463.86	7913.35
464.05	7953.14
464.23	7967.18
464.41	8109.96
464.59	7871.22
464.78	8271.45
464.96	8058.46
465.14	8044.42
465.32	8287.84
465.50	8234.00
465.69	8126.34
465.87	8236.35
466.05	8203.58
466.23	8102.93
466.41	8119.32
466.60	8437.63
466.78	8226.98
466.96	8189.53
467.14	8257.41
467.32	8552.32
467.51	8627.21
467.69	8217.62
467.87	8297.20
468.05	8442.31
468.23	8329.97
468.41	8425.93
468.60	8484.44
468.78	8528.91
468.96	8423.59
469.14	8774.67
469.32	8720.84
469.50	8360.39
469.69	8751.26
469.87	8994.68
470.05	8854.25
470.23	8648.28
470.41	8802.75
470.59	8830.84
470.77	8891.70
470.95	8959.57
471.14	9111.71
471.32	8875.31
471.50	9104.68
471.68	8982.98
471.86	9205.33
472.04	9217.03
472.22	9493.21
472.40	9226.39
472.58	9366.82
472.77	9291.93
472.95	9366.82
473.13	9624.28
473.31	9226.39
473.49	9570.45
473.67	9497.89
473.85	9465.13
474.03	9795.14
474.21	9792.80
474.39	10015.15
474.57	10043.24
474.75	9671.09
474.93	10274.95
475.12	10001.11
475.30	10047.92
475.48	9949.62
475.66	10132.18
475.84	9806.84
476.02	10321.76
476.20	10368.57
476.38	10438.79
476.56	10319.42
476.74	10520.71
476.92	10499.64
477.10	10516.03
477.28	10731.36
477.46	10558.16
477.64	11056.69
477.82	11037.97
478.00	11206.48
478.18	11164.36
478.36	11145.63
478.54	11328.19
478.72	11440.54
478.90	11424.15
479.08	11698.00
479.26	11754.17
479.44	11838.43
479.62	11707.36
479.80	12105.25
479.98	12060.78
480.16	12262.07
480.34	12280.79
480.52	12128.66
480.70	12245.68
480.88	12397.82
481.06	12531.23
481.24	12252.70
481.41	12868.27
481.59	13160.83
481.77	13018.06
481.95	12851.88
482.13	12980.61
482.31	13247.43
482.49	13291.90
482.67	13329.35
482.85	13319.99
483.03	13497.87
483.21	13731.92
483.39	13748.31
483.57	13827.88
483.74	13862.99
483.92	13989.38
484.10	13874.70
484.28	14181.31
484.46	14417.70
484.64	14738.35
484.82	14310.04
485.00	14689.20
485.18	14841.34
485.35	15049.64
485.53	14764.10
485.71	14754.74
485.89	15187.74
486.07	15152.63
486.25	15234.55
486.43	15447.54
486.61	15480.30
486.78	15576.27
486.96	15803.30
487.14	15941.39
487.32	15882.88
487.50	16095.86
487.68	16428.22
487.85	16690.36
488.03	16690.36
488.21	17104.64
488.39	16854.20
488.57	17139.74
488.75	17055.48
488.92	17362.09
489.10	17273.15
489.28	17448.69
489.46	17521.25
489.64	17827.86
489.81	18106.38
489.99	18082.98
490.17	17867.65
490.35	18572.15
490.53	18434.06
490.70	18410.65
490.88	18609.60
491.06	18764.07
491.24	18803.86
491.41	18555.77
491.59	18775.78
491.77	18850.67
491.95	19365.59
492.13	19414.74
492.30	19702.63
492.48	19580.92
492.66	19604.33
492.84	19475.60
493.01	20053.71
493.19	20030.30
493.37	20362.66
493.54	20271.38
493.72	20610.76
493.90	20219.89
494.08	20690.34
494.25	20896.30
494.43	20711.40
494.61	21245.04
494.79	21460.37
494.96	20919.71
495.14	20868.22
495.32	21390.16
495.49	21783.37
495.67	21577.40
495.85	21607.83
496.02	22134.45
496.20	22005.72
496.38	22143.81
496.55	22321.69
496.73	22539.36
496.91	22347.44
497.09	22581.49
497.26	22703.20
497.44	22848.31
497.62	23028.53
497.79	23115.13
497.97	22984.06
498.14	23370.25
498.32	23346.84
498.50	23377.27
498.67	23440.47
498.85	23243.86
499.03	23779.84
499.20	23639.41
499.38	24215.18
499.56	24166.03
499.73	23983.47
499.91	24343.91
500.08	24151.99
500.26	23917.93
500.44	24194.12
500.61	24442.21
500.79	24016.24
500.97	24610.73
501.14	24933.73
501.32	24943.09
501.49	24856.49
501.67	24971.18
501.84	24879.89
502.02	25057.78
502.20	25127.99
502.37	25120.97
502.55	24978.20
502.72	25439.28
502.90	25663.97
503.07	25481.41
503.25	25928.45
503.43	25614.82
503.60	25626.53
503.78	25841.85
503.95	26024.42
504.13	26075.91
504.30	26216.34
504.48	25874.62
504.65	26506.57
504.83	26504.23
505.01	26747.64
505.18	26679.77
505.36	27206.39
505.53	26843.60
505.71	26984.04
505.88	27143.19
506.06	26705.51
506.23	26766.37
506.41	27208.73
506.58	27211.07
506.76	27147.87
506.93	27417.04
507.11	27697.90
507.28	27381.93
507.46	27440.44
507.63	27686.20
507.81	27903.87
507.98	27953.02
508.16	28121.54
508.33	27967.06
508.50	27768.12
508.68	28425.81
508.85	28711.35
509.03	28737.10
509.20	28381.34
509.38	28793.27
509.55	28669.22
509.73	28842.42
509.90	28723.05
510.08	28753.48
510.25	29055.41
510.42	28971.15
510.60	29200.52
510.77	29153.71
510.95	29142.01
511.12	29200.52
511.30	29392.45
511.47	29675.65
511.64	29579.69
511.82	30178.87
511.99	29827.79
512.17	29811.40
512.34	29902.68
512.51	29996.31
512.69	30370.79
512.86	30085.25
513.04	30632.93
513.21	29963.54
513.38	30384.83
513.56	30410.58
513.73	30204.61
513.90	30677.40
514.08	30532.29
514.25	30237.38
514.43	30951.24
514.60	30871.67
514.77	30597.82
514.95	30986.35
515.12	30859.96
515.29	31281.26
515.47	31274.24
515.64	31271.90
515.81	31185.30
515.99	31040.18
516.16	31391.26
516.33	31651.06
516.51	31559.78
516.68	31351.48
516.85	31028.48
517.03	31398.29
517.20	31718.94
517.37	31819.58
517.54	31679.15
517.72	31962.36
517.89	32109.81
518.06	31374.88
518.24	31847.67
518.41	32030.23
518.58	32456.21
518.75	31990.44
518.93	32383.65
519.10	31964.70
519.27	33088.15
519.45	32219.81
519.62	32842.40
519.79	32767.50
519.96	33134.96
520.14	33343.27
520.31	33106.88
520.48	33078.79
520.65	33006.23
520.83	33528.17
521.00	33186.46
521.17	33378.38
521.34	33582.01
521.52	33233.27
521.69	33031.98
521.86	33633.50
522.03	33853.51
522.20	33652.22
522.38	33696.69
522.55	34209.27
522.72	33816.06
522.89	33759.89
523.07	33888.62
523.24	33518.81
523.41	33975.22
523.58	34202.25
523.75	34469.07
523.92	34429.28
524.10	34389.49
524.27	34513.54
524.44	34974.63
524.61	34562.69
524.78	34689.08
524.96	34684.40
525.13	34740.57
525.30	35384.22
525.47	34801.43
525.64	34998.03
525.81	35204.00
525.98	35173.57
526.16	35299.96
526.33	34939.52
526.50	35433.37
526.67	35241.45
526.84	35241.45
527.01	35419.33
527.18	35281.24
527.36	35756.36
527.53	35941.27
527.70	36231.49
527.87	36006.80
528.04	35672.10
528.21	35945.95
528.38	35676.79
528.55	36229.15
528.72	36084.04
528.89	36357.88
529.07	36388.31
529.24	36137.87
529.41	36184.68
529.58	36341.50
529.75	35821.90
529.92	36334.48
530.09	36439.80
530.26	36425.76
530.43	36374.27
530.60	36198.73
530.77	36346.18
530.94	37287.07
531.11	36561.51
531.28	36910.25
531.46	37120.90
531.63	37174.73
531.80	37177.07
531.97	36811.95
532.14	36924.29
532.31	36898.55
532.48	37156.00
532.65	37170.05
532.82	37048.34
532.99	37523.47
533.16	36891.52
533.33	37170.05
533.50	37848.80
533.67	37755.18
533.84	37223.88
534.01	37509.43
534.18	37284.73
534.35	37670.92
534.52	38000.94
534.69	37830.08
534.86	37801.99
535.03	37862.85
535.20	37998.60
535.37	38101.58
535.54	38536.92
535.71	37736.46
535.88	38038.39
536.05	37949.45
536.22	38389.47
536.38	38354.36
536.55	38162.43
536.72	38450.32
536.89	37844.12
537.06	38375.42
537.23	38447.98
537.40	38047.75
537.57	38494.79
537.74	38366.06
537.91	38707.78
538.08	38469.04
538.25	38380.10
538.42	38691.40
538.59	38726.50
538.75	38756.93
538.92	38354.36
539.09	38752.25
539.26	38885.66
539.43	38696.08
539.60	38787.36
539.77	39035.45
539.94	39466.11
540.11	38838.85
540.28	39257.81
540.44	39337.38
540.61	39086.95
540.78	39061.20
540.95	38787.36
541.12	39339.72
541.29	39180.57
541.46	39161.84
541.62	39264.83
541.79	39711.87
541.96	38934.81
542.13	39068.22
542.30	39639.31
542.47	39695.49
542.63	39229.72
542.80	39800.81
542.97	40011.46
543.14	40355.52
543.31	40402.33
543.48	40687.87
543.64	41216.83
543.81	40889.16
543.98	40374.24
544.15	40566.16
544.32	40683.19
544.48	40580.21
544.65	40392.97
544.82	40280.62
544.99	39749.32
545.16	40741.71
545.32	40301.68
545.49	40903.20
545.66	40594.25
545.83	40297.00
546.00	40865.75
546.16	40524.04
546.33	40493.61
546.50	40629.36
546.67	41132.57
546.83	40407.01
547.00	40961.72
547.17	40591.91
547.34	41223.86
547.50	40931.29
547.67	41268.33
547.84	41106.83
548.00	41118.53
548.17	41036.61
548.34	41443.87
548.51	41502.38
548.67	41172.36
548.84	41645.15
549.01	41254.28
549.18	41092.79
549.34	41600.68
549.51	41371.31
549.68	41677.92
549.84	41422.80
550.01	41635.79
550.18	41375.99
550.34	41567.91
550.51	41675.58
550.68	41521.10
550.84	41668.56
551.01	41713.03
551.18	41801.97
551.34	41670.90
551.51	42162.41
551.68	41762.18
551.84	42335.61
552.01	41570.25
552.18	42202.20
552.34	41450.89
552.51	41928.36
552.68	42337.95
552.84	42167.09
553.01	41921.34
553.18	42014.96
553.34	42344.97
553.51	41989.21
553.67	42333.27
553.84	42230.29
554.01	42419.87
554.17	42508.81
554.34	42092.19
554.51	42513.49
554.67	42656.26
554.84	42539.24
555.00	42644.56
555.17	42667.97
555.33	42817.76
555.50	42684.35
555.67	42569.66
555.83	42803.72
556.00	42845.85
556.16	43021.39
556.33	42550.94
556.50	42494.77
556.66	42986.28
556.83	42522.85
556.99	42649.24
557.16	42885.64
557.32	43192.25
557.49	43023.73
557.65	42768.61
557.82	42487.74
557.98	42686.69
558.15	42983.94
558.32	42962.87
558.48	43058.84
558.65	42918.40
558.81	42927.77
558.98	42972.24
559.14	43129.05
559.31	42997.98
559.47	43220.33
559.64	43196.93
559.80	43505.88
559.97	43718.87
560.13	42981.60
560.30	43330.34
560.46	42843.51
560.63	43232.04
560.79	43388.85
560.96	43253.10
561.12	43718.87
561.29	43863.98
561.45	43477.79
561.61	43367.79
561.78	43416.94
561.94	43344.38
562.11	43557.37
562.27	43328.00
562.44	43533.96
562.60	43643.97
562.77	43913.13
562.93	43449.70
563.10	43576.09
563.26	43117.35
563.42	43906.11
563.59	43519.92
563.75	43299.91
563.92	43484.81
564.08	43365.45
564.24	43388.85
564.41	43842.92
564.57	43955.26
564.74	43533.96
564.90	43983.35
565.07	43761.00
565.23	43414.60
565.39	43510.56
565.56	43943.56
565.72	43606.52
565.88	43707.16
566.05	43620.56
566.21	43887.39
566.38	43665.03
566.54	43704.82
566.70	44053.56
566.87	43964.62
567.03	43828.87
567.19	43922.49
567.36	43915.47
567.52	43566.73
567.68	44053.56
567.85	43803.13
568.01	43615.88
568.17	43899.09
568.34	43915.47
568.50	43910.79
568.66	43503.54
568.83	44046.54
568.99	43863.98
569.15	44062.93
569.32	43578.43
569.48	44034.84
569.64	44292.30
569.81	44364.85
569.97	43903.77
570.13	44030.16
570.30	44313.36
570.46	43889.73
570.62	44147.18
570.78	43648.65
570.95	43875.68
571.11	43976.33
571.27	43880.36
571.43	44325.07
571.60	44018.46
571.76	43667.37
571.92	44191.65
572.09	44128.46
572.25	43676.74
572.41	44245.49
572.57	44121.44
572.74	44760.40
572.90	44334.43
573.06	44072.29
573.22	44264.21
573.38	44107.40
573.55	44076.97
573.71	44158.89
573.87	44004.41
574.03	43889.73
574.20	44112.08
574.36	44327.41
574.52	44346.13
574.68	44374.22
574.84	44444.43
575.01	44133.14
575.17	44247.83
575.33	44144.84
575.49	43819.51
575.65	44652.74
575.82	44624.65
575.98	44238.47
576.14	44783.81
576.30	44327.41
576.46	44116.76
576.62	44102.71
576.79	44336.77
576.95	43625.25
577.11	44158.89
577.27	44172.93
577.43	44243.15
577.59	44432.73
577.75	44540.39
577.92	43997.39
578.08	44339.11
578.24	44013.77
578.40	43899.09
578.56	44100.37
578.72	44430.39
578.88	44861.05
579.04	44304.00
579.21	44538.05
579.37	44250.17
579.53	44458.48
579.69	44011.43
579.85	44414.01
580.01	44367.20
580.17	44273.57
580.33	44603.59
580.49	44397.62
580.65	44601.25
580.82	44327.41
580.98	44706.57
581.14	44385.92
581.30	44577.84
581.46	44339.11
581.62	44615.29
581.78	44355.49
581.94	44481.88
582.10	44271.23
582.26	44673.81
582.42	44694.87
582.58	44624.65
582.74	44048.88
582.90	44285.28
583.06	44521.67
583.22	44418.69
583.38	44430.39
583.54	43957.60
583.70	44793.17
583.86	44130.80
584.02	44428.05
584.18	44425.71
584.34	44428.05
584.50	44697.21
584.66	44549.76
584.82	44142.50
584.98	44488.90
585.14	44921.90
585.30	43922.49
585.46	44470.18
585.62	44306.34
585.78	44512.31
585.94	44105.06
586.10	44545.08
586.26	44378.90
586.42	44767.43
586.58	44495.92
586.74	44835.30
586.90	44196.34
587.06	44266.55
587.22	44624.65
587.38	44432.73
587.54	44734.66
587.70	44856.37
587.86	44837.64
588.02	44280.60
588.18	44861.05
588.34	44582.52
588.49	44168.25
588.65	43981.01
588.81	44582.52
588.97	44371.88
589.13	44435.07
589.29	44528.69
589.45	44392.94
589.61	44357.83
589.77	45069.36
589.93	44837.64
590.08	44933.60
590.24	44949.99
590.40	44903.18
590.56	44884.45
590.72	44938.29
590.88	44830.62
591.04	44858.71
591.20	45029.57
591.35	44856.37
591.51	45095.10
591.67	44823.60
591.83	44781.47
591.99	45050.63
592.15	44472.52
592.31	44729.98
592.46	44708.91
592.62	44397.62
592.78	44865.73
592.94	44802.53
593.10	44238.47
593.26	45062.33
593.41	45041.27
593.57	44694.87
593.73	44685.51
593.89	45120.85
594.05	44760.40
594.20	44893.82
594.36	44765.09
594.52	44425.71
594.68	44975.73
594.84	44439.75
594.99	45184.04
595.15	44762.75
595.31	45181.70
595.47	44907.86
595.62	44940.63
595.78	44971.05
595.94	44982.76
596.10	44737.00
596.25	44968.71
596.41	44865.73
596.57	44947.65
596.73	45099.78
596.88	45024.89
597.04	44942.97
597.20	45272.98
597.36	44926.58
597.51	45282.34
597.67	45031.91
597.83	45207.45
597.99	44896.16
598.14	45020.20
598.30	45118.51
598.46	44961.69
598.61	44584.86
598.77	44608.27
598.93	44673.81
599.09	44858.71
599.24	45291.71
599.40	44924.24
599.56	45078.72
599.71	45041.27
599.87	44713.59
600.03	44655.08
600.18	44851.69
600.34	45422.78
600.50	44985.10
600.65	44477.20
600.81	45092.76
600.97	45237.87
601.12	45350.22
601.28	45017.86
601.44	44762.75
601.59	45041.27
601.75	44577.84
601.91	45118.51
602.06	44839.98
602.22	44912.54
602.37	44954.67
602.53	45097.44
602.69	45003.82
602.84	45090.42
603.00	45151.27
603.16	44786.15
603.31	45263.62
603.47	44795.51
603.62	44673.81
603.78	45120.85
603.94	44697.21
604.09	45167.66
604.25	44821.26
604.40	44992.12
604.56	44957.01
604.71	44809.56
604.87	44847.00
605.03	45181.70
605.18	44617.63
605.34	45312.77
605.49	44699.55
605.65	44781.47
605.80	44580.18
605.96	45043.61
606.12	45027.23
606.27	45413.41
606.43	45041.27
606.58	45083.40
606.74	44629.34
606.89	44444.43
607.05	44474.86
607.20	44748.70
607.36	44755.72
607.51	44992.12
607.67	45095.10
607.82	45151.27
607.98	44816.58
608.13	44603.59
608.29	44175.27
608.44	44692.53
608.60	44154.21
608.75	44285.28
608.91	44453.79
609.06	44013.77
609.22	45020.20
609.37	44659.76
609.53	44144.84
609.68	44722.96
609.84	44921.90
609.99	44631.68
610.15	44229.10
610.30	44378.90
610.46	44194.00
610.61	44320.38
610.76	44285.28
610.92	44409.32
611.07	44048.88
611.23	44844.66
611.38	44177.61
611.54	43896.75
611.69	43871.00
611.84	44191.65
612.00	44704.23
612.15	44208.04
612.31	44243.15
612.46	44271.23
612.62	44582.52
612.77	43887.39
612.92	44051.22
613.08	44259.53
613.23	44065.27
613.39	43871.00
613.54	43938.88
613.69	44304.00
613.85	43868.66
614.00	44175.27
614.15	44289.96
614.31	44861.05
614.46	44222.08
614.62	43931.86
614.77	44037.18
614.92	43971.64
615.08	44156.55
615.23	43931.86
615.38	43903.77
615.54	43157.14
615.69	43634.61
615.84	43342.04
616.00	43875.68
616.15	43634.61
616.30	43641.63
616.46	43908.45
616.61	43461.41
616.76	43463.75
616.92	43515.24
617.07	43316.29
617.22	43388.85
617.37	43484.81
617.53	44123.78
617.68	43700.14
617.83	43903.77
617.99	43491.83
618.14	43828.87
618.29	43203.95
618.45	43192.25
618.60	43227.35
618.75	43573.75
618.90	43154.80
619.06	43388.85
619.21	43522.26
619.36	43407.58
619.51	42960.53
619.67	43267.14
619.82	43646.31
619.97	43583.12
620.12	43089.26
620.28	42878.61
620.43	42792.01
620.58	43454.39
620.73	43384.17
620.89	43021.39
621.04	43206.29
621.19	42880.95
621.34	43028.41
621.49	42656.26
621.65	42721.80
621.80	42965.21
621.95	42485.40
622.10	42859.89
622.25	42815.42
622.41	42171.77
622.56	42527.53
622.71	42976.92
622.86	42742.86
623.01	42941.81
623.16	42953.51
623.32	43285.87
623.47	43133.73
623.62	42937.13
623.77	42473.70
623.92	42955.85
624.07	42506.47
624.23	42557.96
624.38	42277.10
624.53	42579.03
624.68	42604.77
624.83	42808.40
624.98	42499.45
625.13	42237.31
625.29	42677.33
625.44	42370.72
625.59	42029.00
625.74	42218.58
625.89	41801.97
626.04	41935.38
626.19	42071.13
626.34	42286.46
626.49	42120.28
626.65	42401.14
626.80	42340.29
626.95	42183.48
627.10	41612.38
627.25	41635.79
627.40	41869.84
627.55	41443.87
627.70	41600.68
627.85	41581.96
628.00	41617.07
628.15	42017.30
628.30	41804.31
628.45	42225.60
628.60	41762.18
628.76	41918.99
628.91	41633.45
629.06	41897.93
629.21	41249.60
629.36	41467.27
629.51	41537.49
629.66	41677.92
629.81	41237.90
629.96	41792.61
630.11	41846.44
630.26	41633.45
630.41	41223.86
630.56	41661.54
630.71	41439.18
630.86	41216.83
631.01	41507.06
631.16	41048.32
631.31	41099.81
631.46	40524.04
631.61	41551.53
631.76	41551.53
631.91	41055.34
632.06	41062.36
632.21	41188.75
632.36	41371.31
632.51	40964.06
632.66	41247.26
632.81	40479.57
632.96	40758.09
633.10	40596.59
633.25	40540.42
633.40	40879.80
633.55	40648.08
633.70	41165.34
633.85	41167.68
634.00	41106.83
634.15	40828.30
634.30	40158.91
634.45	41228.54
634.60	41064.70
634.75	40664.47
634.90	40790.86
635.05	40825.96
635.19	40655.11
635.34	40737.02
635.49	40488.93
635.64	40788.52
635.79	40320.41
635.94	40280.62
636.09	40706.60
636.24	40161.25
636.39	40086.36
636.53	40161.25
636.68	40299.34
636.83	40226.79
636.98	40217.43
637.13	40280.62
637.28	40278.28
637.43	40758.09
637.57	40877.46
637.72	40362.54
637.87	40215.08
638.02	40147.21
638.17	39873.37
638.32	39864.00
638.46	39817.19
638.61	39995.07
638.76	39615.91
638.91	40027.84
639.06	39896.77
639.20	39842.94
639.35	40334.45
639.50	39997.41
639.65	40032.52
639.80	40484.25
639.94	39880.39
640.09	39782.09
640.24	39604.20
640.39	39744.64
640.54	39749.32
640.68	39777.40
640.83	39615.91
640.98	39613.57
641.13	39796.13
641.27	39894.43
641.42	39365.47
641.57	39576.12
641.72	39388.88
641.86	39126.74
642.01	39173.55
642.16	39201.63
642.31	39002.69
642.45	39360.79
642.60	39281.21
642.75	39335.04
642.90	39367.81
643.04	39014.39
643.19	39136.10
643.34	38967.58
643.48	39182.91
643.63	39349.09
643.78	38829.49
643.93	39239.08
644.07	38738.21
644.22	39206.31
644.37	38656.29
644.51	39096.31
644.66	38883.32
644.81	38920.77
644.95	39056.52
645.10	39028.43
645.25	39363.13
645.39	39098.65
645.54	39393.56
645.69	39171.21
645.83	38979.28
645.98	38698.42
646.13	38862.26
646.27	38962.90
646.42	38918.43
646.57	38869.28
646.71	39112.69
646.86	38770.97
647.00	38822.47
647.15	38813.10
647.30	38998.01
647.44	38347.34
647.59	38368.40
647.74	38314.57
647.88	38218.61
648.03	38457.34
648.17	38380.10
648.32	38052.43
648.47	38274.78
648.61	38141.37
648.76	38586.07
648.90	38703.10
649.05	38501.81
649.20	38345.00
649.34	38389.47
649.49	38305.21
649.63	38101.58
649.78	38305.21
649.92	38450.32
650.07	38471.39
650.21	37979.87
650.36	38223.29
650.51	38206.90
650.65	38293.50
650.80	38043.07
650.94	38410.53
651.09	38143.71
651.23	37940.08
651.38	37610.07
651.52	37909.66
651.67	37715.39
651.81	38167.12
651.96	37797.31
652.10	37706.03
652.25	37792.63
652.39	38022.00
652.54	37771.57
652.68	37748.16
652.83	37909.66
652.97	38057.11
653.12	37888.59
653.26	37699.01
653.41	37907.32
653.55	37818.38
653.70	37659.22
653.84	37935.40
653.99	37621.77
654.13	37401.76
654.27	37493.04
654.42	37769.22
654.56	37298.78
654.71	37818.38
654.85	37450.91
655.00	37394.74
655.14	37221.54
655.29	37212.18
655.43	37083.45
655.57	36914.93
655.72	36954.72
655.86	37057.70
656.01	36985.15
656.15	36769.82
656.30	36802.58
656.44	36945.36
656.58	36723.01
656.73	36161.28
656.87	37109.19
657.01	36172.98
657.16	36397.67
657.30	36271.28
657.45	36364.90
657.59	36521.72
657.73	36425.76
657.88	36524.06
658.02	36676.19
658.16	36545.12
658.31	36767.48
658.45	36715.98
658.60	36598.96
658.74	36577.89
658.88	36994.51
659.03	36046.59
659.17	36177.66
659.31	36442.14
659.46	36133.19
659.60	35662.74
659.74	36158.94
659.89	35629.98
660.03	36346.18
660.17	36245.54
660.32	35871.05
660.46	36191.70
660.60	36161.28
660.74	36275.96
660.89	36325.11
661.03	35358.47
661.17	35896.80
661.32	35330.39
661.46	35683.81
661.60	35416.99
661.74	35758.70
661.89	35730.62
662.03	35854.67
662.17	35115.06
662.31	35370.18
662.46	35440.39
662.60	35323.36
662.74	35264.85
662.88	35182.93
663.03	35023.78
663.17	35257.83
663.31	35005.05
663.45	35040.16
663.60	34749.93
663.74	35164.21
663.88	34672.70
664.02	34735.89
664.17	34937.18
664.31	34710.14
664.45	34747.59
664.59	34778.02
664.73	34333.32
664.88	34536.94
665.02	34384.81
665.16	34340.34
665.30	34621.20
665.44	34235.02
665.59	34223.31
665.73	34160.12
665.87	33998.62
666.01	34134.37
666.15	34125.01
666.29	33848.83
666.44	34188.21
666.58	34012.66
666.72	33940.11
666.86	33862.87
667.00	34153.10
667.14	33874.57
667.28	33612.43
667.43	33340.93
667.57	33560.94
667.71	33521.15
667.85	33345.61
667.99	33603.07
668.13	33570.30
668.27	33462.64
668.41	33649.88
668.56	33221.56
668.70	33057.73
668.84	33099.86
668.98	33149.01
669.12	33450.94
669.26	33134.96
669.40	32507.70
669.54	32809.63
669.68	33153.69
669.82	32723.03
669.96	33078.79
670.10	32591.96
670.25	33172.41
670.39	32699.62
670.53	32767.50
670.67	32772.18
670.81	32746.44
670.95	32334.50
671.09	32648.13
671.23	32818.99
671.37	32758.14
671.51	32369.61
671.65	31613.62
671.79	31941.29
671.93	31934.27
672.07	32058.32
672.21	31917.89
672.35	31428.71
672.49	31660.43
672.63	31496.59
672.77	31658.09
672.91	31732.98
673.05	31662.77
673.19	31426.37
673.33	30892.73
673.47	31246.15
673.61	31009.76
673.75	31000.40
673.89	30756.98
674.03	30995.71
674.17	31035.50
674.31	30520.59
674.45	30911.46
674.59	31065.93
674.73	30941.88
674.87	30635.27
675.01	30595.48
675.15	30649.32
675.29	30878.69
675.43	30298.23
675.56	30909.11
675.70	30326.32
675.84	30342.70
675.98	28952.43
676.12	30136.74
676.26	30216.32
676.40	29628.84
676.54	29411.17
676.68	29682.67
676.82	29570.33
676.96	29481.39
677.10	29357.34
677.23	29439.26
677.37	29160.73
677.51	29350.32
677.65	29085.84
677.79	28746.46
677.93	29001.58
678.07	28788.59
678.21	28664.54
678.34	28318.14
678.48	28624.75
678.62	28748.80
678.76	28430.49
678.90	27924.93
679.04	28435.17
679.18	28114.52
679.31	27782.16
679.45	28074.73
679.59	27419.38
679.73	27868.76
679.87	27690.88
680.00	27667.47
680.14	27330.44
680.28	27604.28
680.42	27307.03
680.56	27426.40
680.70	27428.74
680.83	26822.54
680.97	26808.50
681.11	27030.85
681.25	26452.73
681.39	26670.40
681.52	26752.32
681.66	26661.04
681.80	26464.44
681.94	26260.81
682.07	26583.80
682.21	26359.11
682.35	26298.26
682.49	26581.46
682.62	26595.51
682.76	25998.67
682.90	25949.52
683.04	25965.90
683.17	26010.37
683.31	25738.87
683.45	25874.62
683.59	25247.36
683.72	25647.59
683.86	24964.15
684.00	25167.78
684.13	25137.35
684.27	25163.10
684.41	25097.56
684.55	24975.86
684.68	24837.76
684.82	24744.14
684.96	24769.89
685.09	24650.52
685.23	24566.26
685.37	24568.60
685.50	24666.91
685.64	24182.42
685.78	24250.29
685.91	24133.26
686.05	23885.17
686.19	23683.88
686.32	23747.08
686.46	23707.29
686.60	23456.85
686.73	23442.81
686.87	23213.43
687.01	23358.55
687.14	22881.08
687.28	23047.26
687.42	23147.90
687.55	22799.16
687.69	23026.19
687.82	22988.74
687.96	22993.42
688.10	22595.53
688.23	22761.71
688.37	22499.57
688.50	22328.71
688.64	22389.56
688.78	22059.55
688.91	22038.48
689.05	21848.90
689.18	21872.31
689.32	21879.33
689.46	22045.51
689.59	21989.33
689.73	22043.17
689.86	21362.07
690.00	21750.60
690.13	21823.16
690.27	21701.45
690.41	21209.93
690.54	21184.19
690.68	20723.10
690.81	21074.18
690.95	21006.31
691.08	20842.47
691.22	20830.77
691.35	20638.84
691.49	21099.93
691.62	21195.89
691.76	21071.84
691.89	20678.63
692.03	20524.16
692.16	20507.77
692.30	20348.62
692.43	19901.58
692.57	20004.56
692.70	19868.81
692.84	19974.13
692.97	19817.32
693.11	19651.14
693.24	19325.80
693.38	19365.59
693.51	19452.19
693.65	19262.61
693.78	19534.11
693.92	19716.67
694.05	19241.54
694.19	18885.78
694.32	19112.81
694.45	19168.99
694.59	18754.71
694.72	18806.20
694.86	18499.59
694.99	18974.72
695.13	18396.61
695.26	18492.57
695.39	18207.03
695.53	18218.73
695.66	18370.86
695.80	18129.79
695.93	18249.16
696.07	18050.21
696.20	17928.50
696.33	17713.17
696.47	17851.27
696.60	17951.91
696.73	17785.73
696.87	17497.84
697.00	18047.87
697.14	17521.25
697.27	17434.65
697.40	17385.50
697.54	17387.84
697.67	17214.64
697.80	17460.40
697.94	17151.45
698.07	16933.78
698.21	17018.04
698.34	16816.75
698.47	16992.29
698.61	16477.37
698.74	16453.97
698.87	16758.24
699.01	16271.40
699.14	16236.30
699.27	16145.02
699.40	16299.49
699.54	16112.25
699.67	15964.79
699.80	16070.12
699.94	16018.63
700.07	16269.06
700.20	15735.42
700.34	16152.04
700.47	15712.02
700.60	15817.34
700.73	15903.94
700.87	15768.19
701.00	15482.64
701.13	15510.73
701.26	15227.53
701.40	15087.09
701.53	15019.22
701.66	15349.23
701.79	15082.41
701.93	14902.19
702.06	14576.86
702.19	14864.74
702.32	14789.85
702.46	14719.63
702.59	14792.19
702.72	14743.03
702.85	14607.28
702.99	14424.72
703.12	14574.52
703.25	14583.88
703.38	14523.02
703.51	14190.67
703.65	14387.27
703.78	14029.17
703.91	13830.23
704.04	14068.96
704.17	13937.89
704.31	13792.78
704.44	13687.45
704.57	13678.09
704.70	13568.09
704.83	13544.68
704.96	13514.25
705.10	13507.23
705.23	13722.56
>>>>>End Processed Spectral Data<<<<<
