SpectraSuite Data File
++++++++++++++++++++++++++++++++++++
Date: Fri Oct 25 11:34:00 EDT 2013
User: price-jones
Dark Spectrum Present: No
Reference Spectrum Present: No
Number of Sampled Component Spectra: 1
Spectrometers: USB2+H05261
Integration Time (usec): 100000 (USB2+H05261)
Spectra Averaged: 1 (USB2+H05261)
Boxcar Smoothing: 0 (USB2+H05261)
Correct for Electrical Dark: No (USB2+H05261)
Strobe/Lamp Enabled: No (USB2+H05261)
Correct for Detector Non-linearity: No (USB2+H05261)
Correct for Stray Light: No (USB2+H05261)
Number of Pixels in Processed Spectrum: 2048
>>>>>Begin Processed Spectral Data<<<<<
365.73	271.50
365.92	271.50
366.12	271.50
366.32	215.33
366.52	163.84
366.72	149.79
366.91	177.88
367.11	170.86
367.31	124.05
367.51	187.24
367.70	217.67
367.90	215.33
368.10	154.48
368.30	175.54
368.49	161.50
368.69	252.78
368.89	222.35
369.09	131.07
369.28	170.86
369.48	248.10
369.68	234.05
369.87	243.42
370.07	234.05
370.27	287.89
370.47	355.76
370.66	519.60
370.86	526.62
371.06	512.58
371.25	547.69
371.45	596.84
371.65	519.60
371.84	505.56
372.04	573.43
372.24	552.37
372.44	578.11
372.63	624.92
372.83	601.52
373.03	636.63
373.22	566.41
373.42	629.60
373.62	660.03
373.81	599.18
374.01	655.35
374.21	594.50
374.40	566.41
374.60	620.24
374.79	624.92
374.99	657.69
375.19	610.88
375.38	610.88
375.58	650.67
375.78	641.31
375.97	692.80
376.17	734.93
376.37	613.22
376.56	678.76
376.76	657.69
376.95	613.22
377.15	774.72
377.35	671.73
377.54	669.39
377.74	695.14
377.93	688.12
378.13	713.86
378.33	720.88
378.52	699.82
378.72	765.36
378.91	823.87
379.11	777.06
379.31	695.14
379.50	660.03
379.70	802.80
379.89	753.65
380.09	751.31
380.28	695.14
380.48	798.12
380.68	755.99
380.87	772.38
381.07	690.46
381.26	737.27
381.46	777.06
381.65	746.63
381.85	674.07
382.04	807.48
382.24	765.36
382.43	816.85
382.63	713.86
382.83	770.04
383.02	786.42
383.22	774.72
383.41	784.08
383.61	788.76
383.80	870.68
384.00	758.33
384.19	800.46
384.39	772.38
384.58	873.02
384.78	784.08
384.97	833.23
385.17	901.11
385.36	870.68
385.56	798.12
385.75	835.57
385.95	821.53
386.14	861.32
386.34	858.98
386.53	866.00
386.72	910.47
386.92	821.53
387.11	922.17
387.31	908.13
387.50	875.36
387.70	863.66
387.89	889.40
388.09	938.55
388.28	835.57
388.48	882.38
388.67	868.34
388.86	877.70
389.06	896.43
389.25	985.37
389.45	940.90
389.64	915.15
389.84	971.32
390.03	1025.15
390.22	917.49
390.42	999.41
390.61	936.21
390.81	966.64
391.00	924.51
391.19	1011.11
391.39	933.87
391.58	973.66
391.78	1055.58
391.97	1013.45
392.16	980.68
392.36	1043.88
392.55	1034.52
392.75	1013.45
392.94	1025.15
393.13	1043.88
393.33	1083.67
393.52	1149.20
393.71	1076.65
393.91	1060.26
394.10	1088.35
394.29	1074.31
394.49	1081.33
394.68	1111.75
394.88	1102.39
395.07	1196.01
395.26	1135.16
395.46	1104.73
395.65	1191.33
395.84	1076.65
396.04	1270.91
396.23	1100.05
396.42	1167.93
396.62	1240.48
396.81	1231.12
397.00	1266.23
397.19	1125.80
397.39	1186.65
397.58	1170.27
397.77	1217.08
397.97	1221.76
398.16	1249.85
398.35	1228.78
398.55	1231.12
398.74	1345.81
398.93	1380.92
399.12	1252.19
399.32	1266.23
399.51	1317.72
399.70	1341.13
399.90	1350.49
400.09	1434.75
400.28	1394.96
400.47	1413.68
400.67	1387.94
400.86	1497.94
401.05	1362.19
401.24	1399.64
401.44	1418.36
401.63	1425.39
401.82	1451.13
402.01	1427.73
402.21	1460.49
402.40	1418.36
402.59	1465.18
402.78	1521.35
402.97	1432.41
403.17	1504.96
403.36	1493.26
403.55	1579.86
403.74	1488.58
403.93	1542.41
404.13	1565.82
404.32	1502.62
404.51	1598.59
404.70	1600.93
404.89	1570.50
405.09	1640.72
405.28	1668.80
405.47	1570.50
405.66	1724.97
405.85	1739.02
406.05	1727.32
406.24	1767.10
406.43	1668.80
406.62	1739.02
406.81	1818.60
407.00	1767.10
407.20	1809.23
407.39	1753.06
407.58	1895.83
407.77	1914.56
407.96	1872.43
408.15	1813.92
408.34	1823.28
408.54	1900.52
408.73	1907.54
408.92	1872.43
409.11	1916.90
409.30	1926.26
409.49	2001.16
409.68	2019.88
409.87	1916.90
410.07	2115.84
410.26	2097.12
410.45	2024.56
410.64	2059.67
410.83	2115.84
411.02	2045.63
411.21	2169.68
411.40	2148.61
411.59	2099.46
411.78	2078.40
411.98	2207.13
412.17	2263.30
412.36	2211.81
412.55	2293.72
412.74	2279.68
412.93	2317.13
413.12	2265.64
413.31	2429.48
413.50	2392.03
413.69	2408.41
413.88	2572.25
414.07	2413.09
414.26	2497.35
414.45	2448.20
414.64	2438.84
414.83	2469.27
415.02	2644.81
415.22	2705.66
415.41	2642.46
415.60	2677.57
415.79	2593.31
415.98	2628.42
416.17	2710.34
416.36	2703.32
416.55	2731.41
416.74	2773.53
416.93	2761.83
417.12	2869.50
417.31	2820.35
417.50	2766.51
417.69	2860.13
417.88	2867.16
418.07	2963.12
418.26	2874.18
418.45	3002.91
418.64	3068.44
418.83	3016.95
419.02	3012.27
419.21	3035.67
419.39	3077.80
419.58	2998.23
419.77	3059.08
419.96	3028.65
420.15	3187.81
420.34	3162.06
420.53	3265.05
420.72	3136.32
420.91	3141.00
421.10	3290.79
421.29	3208.87
421.48	3197.17
421.67	3232.28
421.86	3251.00
422.05	3356.33
422.24	3211.22
422.43	3251.00
422.61	3393.78
422.80	3300.16
422.99	3398.46
423.18	3248.66
423.37	3405.48
423.56	3344.63
423.75	3272.07
423.94	3208.87
424.13	3272.07
424.32	3199.51
424.50	3452.29
424.69	3447.61
424.88	3421.86
425.07	3339.94
425.26	3295.47
425.45	3407.82
425.64	3358.67
425.83	3370.37
426.01	3520.17
426.20	3391.44
426.39	3499.10
426.58	3517.83
426.77	3403.14
426.96	3501.44
427.15	3452.29
427.33	3534.21
427.52	3552.93
427.71	3662.94
427.90	3613.79
428.09	3660.60
428.28	3707.41
428.46	3630.17
428.65	3698.05
428.84	3669.96
429.03	3794.01
429.22	3555.27
429.40	3662.94
429.59	3613.79
429.78	3566.98
429.97	3609.11
430.16	3775.28
430.34	3868.91
430.53	3618.47
430.72	3871.25
430.91	3880.61
431.10	3936.78
431.28	3934.44
431.47	3922.74
431.66	3992.95
431.85	3852.52
432.03	3978.91
432.22	4072.53
432.41	4121.68
432.60	4011.68
432.79	3946.14
432.97	4063.17
433.16	4023.38
433.35	4114.66
433.54	4098.28
433.72	4198.92
433.91	4107.64
434.10	4077.21
434.28	4161.47
434.47	4074.87
434.66	4287.86
434.85	4365.10
435.03	4315.95
435.22	4257.43
435.41	4402.55
435.59	4344.03
435.78	4365.10
435.97	4348.72
436.16	4404.89
436.34	4430.63
436.53	4395.53
436.72	4393.19
436.90	4198.92
437.09	4411.91
437.28	4393.19
437.46	4379.14
437.65	4524.26
437.84	4746.61
438.02	4528.94
438.21	4573.41
438.40	4470.42
438.58	4706.82
438.77	4758.31
438.96	4685.75
439.14	4669.37
439.33	4816.82
439.52	4784.06
439.70	4748.95
439.89	5008.75
440.08	4929.17
440.26	4891.72
440.45	4966.62
440.63	5013.43
440.82	5144.50
441.01	5046.20
441.19	5093.01
441.38	5282.59
441.57	5029.81
441.75	5177.26
441.94	5156.20
442.12	5259.18
442.31	5387.91
442.50	5469.83
442.68	5350.46
442.87	5273.23
443.05	5420.68
443.24	5568.13
443.43	5542.39
443.61	5467.49
443.80	5568.13
443.98	5348.12
444.17	5252.16
444.35	5507.28
444.54	5495.58
444.73	5453.45
444.91	5446.43
445.10	5624.31
445.28	5593.88
445.47	5551.75
445.65	5481.53
445.84	5692.18
446.02	5633.67
446.21	5661.76
446.39	5535.37
446.58	5465.15
446.77	5659.42
446.95	5600.90
447.14	5748.36
447.32	5701.54
447.51	5692.18
447.69	5785.80
447.88	5605.58
448.06	5666.44
448.25	5818.57
448.43	5687.50
448.62	5748.36
448.80	5696.86
448.99	5731.97
449.17	5804.53
449.36	5727.29
449.54	5954.32
449.73	5930.92
449.91	6071.35
450.10	5884.11
450.28	6033.90
450.46	6193.06
450.65	6146.25
450.83	6001.13
451.02	6083.05
451.20	6094.76
451.39	6181.35
451.57	6291.36
451.76	6139.23
451.94	6209.44
452.13	6202.42
452.31	6157.95
452.49	6169.65
452.68	6064.33
452.86	6333.49
453.05	6349.87
453.23	6134.54
453.42	6448.18
453.60	6218.80
453.78	6427.11
453.97	6066.67
454.15	6183.70
454.34	6363.92
454.52	6319.45
454.70	6389.66
454.89	6457.54
455.07	6443.49
455.26	6499.67
455.44	6581.59
455.62	6527.75
455.81	6553.50
455.99	6733.72
456.17	6628.40
456.36	6576.91
456.54	6642.44
456.73	6970.12
456.91	6773.51
457.09	6839.05
457.28	7040.33
457.46	6977.14
457.64	7023.95
457.83	7091.82
458.01	6904.58
458.19	7084.80
458.38	7014.59
458.56	7136.29
458.74	6958.41
458.93	6998.20
459.11	7037.99
459.29	6986.50
459.48	7246.30
459.66	7208.85
459.84	7133.95
460.03	7368.01
460.21	7328.22
460.39	7335.24
460.57	7435.88
460.76	7351.62
460.94	7356.30
461.12	7449.93
461.31	7569.29
461.49	7349.28
461.67	7307.15
461.85	7597.38
462.04	7407.80
462.22	7925.05
462.40	7836.11
462.59	7541.21
462.77	7705.04
462.95	7660.57
463.13	7749.51
463.32	7538.87
463.50	7812.71
463.68	7817.39
463.86	7948.46
464.05	7576.31
464.23	7705.04
464.41	7627.81
464.59	7520.14
464.78	8098.25
464.96	7922.71
465.14	8105.28
465.32	7943.78
465.50	8135.70
465.69	7925.05
465.87	8114.64
466.05	8021.02
466.23	7929.74
466.41	8016.33
466.60	8133.36
466.78	8060.80
466.96	8112.30
467.14	8180.17
467.32	8180.17
467.51	8234.00
467.69	8140.38
467.87	8166.13
468.05	8402.52
468.23	8311.24
468.41	8161.45
468.60	8105.28
468.78	8369.76
468.96	8318.26
469.14	8442.31
469.32	8379.12
469.50	8215.28
469.69	8486.78
469.87	8517.21
470.05	8599.13
470.23	8645.94
470.41	8603.81
470.59	8837.86
470.77	8606.15
470.95	8671.68
471.14	8809.78
471.32	8587.43
471.50	8884.67
471.68	8931.48
471.86	8830.84
472.04	9071.92
472.22	9322.35
472.40	8814.46
472.58	9022.77
472.77	9067.24
472.95	9224.05
473.13	9624.28
473.31	9268.52
473.49	9383.21
473.67	9390.23
473.85	9324.69
474.03	9437.04
474.21	9596.20
474.39	9444.06
474.57	9591.52
474.75	9811.53
474.93	9753.01
475.12	9647.69
475.30	9973.02
475.48	9804.50
475.66	10033.88
475.84	10073.67
476.02	9912.17
476.20	9813.87
476.38	10207.08
476.56	10387.30
476.74	10317.08
476.92	10370.91
477.10	10408.36
477.28	10558.16
477.46	10427.09
477.64	10778.17
477.82	11005.20
478.00	11094.14
478.18	11145.63
478.36	10967.75
478.54	11026.26
478.72	11335.21
478.90	11272.02
479.08	11257.98
479.26	11360.96
479.44	11459.26
479.62	11536.50
479.80	11709.70
479.98	11880.56
480.16	12030.35
480.34	11866.52
480.52	11868.86
480.70	12215.26
480.88	11875.88
481.06	12187.17
481.24	12285.47
481.41	12372.07
481.59	12592.08
481.77	12718.47
481.95	12690.38
482.13	12828.48
482.31	12936.14
482.49	13130.41
482.67	12989.97
482.85	13291.90
483.03	13324.67
483.21	13296.58
483.39	13769.37
483.57	13493.19
483.74	13507.23
483.92	13724.90
484.10	13884.06
484.28	13916.83
484.46	14197.69
484.64	14455.15
484.82	14244.50
485.00	14572.18
485.18	14911.55
485.35	15016.88
485.53	14740.69
485.71	14881.13
485.89	15131.56
486.07	15030.92
486.25	15080.07
486.43	15276.68
486.61	15590.31
486.78	15557.54
486.96	15744.78
487.14	16013.95
487.32	15908.62
487.50	16137.99
487.68	16189.49
487.85	16390.77
488.03	16404.81
488.21	16783.98
488.39	16898.67
488.57	16702.06
488.75	17015.69
488.92	17188.89
489.10	17406.56
489.28	17394.86
489.46	17743.60
489.64	17858.29
489.81	17783.39
489.99	17987.02
490.17	17905.10
490.35	17912.12
490.53	18181.28
490.70	18560.45
490.88	18277.24
491.06	18735.99
491.24	18672.79
491.41	18757.05
491.59	19000.47
491.77	19168.99
491.95	19302.40
492.13	19435.81
492.30	19353.89
492.48	19459.21
492.66	19695.61
492.84	19775.19
493.01	19950.73
493.19	19763.48
493.37	20077.12
493.54	20128.61
493.72	20168.40
493.90	19969.45
494.08	20514.80
494.25	20645.87
494.43	20613.10
494.61	20858.85
494.79	20753.53
494.96	20781.62
495.14	21151.42
495.32	21062.48
495.49	21511.86
495.67	21778.68
495.85	21418.24
496.02	21994.01
496.20	21818.47
496.38	21982.31
496.55	21909.75
496.73	22656.39
496.91	22298.28
497.09	22698.52
497.26	22466.80
497.44	22455.10
497.62	22731.28
497.79	22841.29
497.97	23061.30
498.14	23040.23
498.32	23255.56
498.50	23576.22
498.67	23379.61
498.85	23431.10
499.03	23660.48
499.20	23594.94
499.38	23896.87
499.56	23955.38
499.73	23775.16
499.91	24254.97
500.08	24261.99
500.26	23871.12
500.44	24215.18
500.61	24252.63
500.79	24449.24
500.97	24662.22
501.14	24835.42
501.32	24879.89
501.49	24828.40
501.67	24809.68
501.84	25378.43
502.02	25078.84
502.20	25415.88
502.37	25322.26
502.55	25394.81
502.72	25514.18
502.90	25568.01
503.07	25319.92
503.25	25474.39
503.43	25692.06
503.60	25853.56
503.78	26033.78
503.95	26043.14
504.13	25893.35
504.30	26403.58
504.48	26033.78
504.65	26522.95
504.83	26785.09
505.01	26859.99
505.18	26541.68
505.36	26813.18
505.53	26574.44
505.71	27037.87
505.88	27131.49
506.06	26752.32
506.23	27330.44
506.41	26944.25
506.58	27534.06
506.76	27454.48
506.93	27821.95
507.11	27271.92
507.28	27758.75
507.46	27934.29
507.63	27835.99
507.81	28041.96
507.98	27819.61
508.16	27850.03
508.33	27971.74
508.50	28416.44
508.68	28531.13
508.85	28535.81
509.03	28449.21
509.20	28748.80
509.38	29036.69
509.55	28835.40
509.73	28802.63
509.90	29069.45
510.08	28952.43
510.25	29174.78
510.42	29017.96
510.60	29259.04
510.77	29542.24
510.95	29432.24
511.12	29113.92
511.30	29457.98
511.47	29439.26
511.64	29797.36
511.82	29680.33
511.99	29546.92
512.17	29982.26
512.34	30286.53
512.51	30401.22
512.69	30654.00
512.86	30286.53
513.04	30574.42
513.21	30677.40
513.38	30520.59
513.56	30642.29
513.73	30314.62
513.90	30724.21
514.08	30583.78
514.25	31220.41
514.43	31051.89
514.60	31154.87
514.77	30962.95
514.95	31608.93
515.12	31283.60
515.29	31622.98
515.47	31566.81
515.64	31604.25
515.81	31489.57
515.99	31360.84
516.16	31936.61
516.33	31913.20
516.51	32130.87
516.68	32004.49
516.85	31992.78
517.03	32037.25
517.20	31892.14
517.37	32208.11
517.54	32156.62
517.72	32360.25
517.89	32648.13
518.06	32460.89
518.24	32507.70
518.41	32697.28
518.58	32657.49
518.75	32470.25
518.93	32996.87
519.10	32818.99
519.27	32933.68
519.45	32556.85
519.62	33172.41
519.79	33251.99
519.96	33284.76
520.14	33268.37
520.31	33668.61
520.48	33546.90
520.65	33909.68
520.83	33816.06
521.00	33729.46
521.17	34012.66
521.34	33883.94
521.52	33961.17
521.69	33961.17
521.86	34239.70
522.03	34190.55
522.20	34436.30
522.38	34508.86
522.55	34291.19
522.72	34548.65
522.89	34359.06
523.07	34972.28
523.24	34981.65
523.41	34916.11
523.58	34637.59
523.75	35012.07
523.92	34778.02
524.10	34932.50
524.27	35253.15
524.44	35042.50
524.61	35269.53
524.78	35510.61
524.96	35496.56
525.13	35704.87
525.30	35782.11
525.47	35859.35
525.64	35461.46
525.81	35601.89
525.98	35737.64
526.16	35693.17
526.33	35573.80
526.50	35936.59
526.67	35971.69
526.84	35969.35
527.01	35873.39
527.18	36306.39
527.36	36587.25
527.53	36210.43
527.70	36776.84
527.87	36428.10
528.04	35676.79
528.21	36402.35
528.38	36430.44
528.55	36971.10
528.72	36818.97
528.89	37010.89
529.07	36849.39
529.24	36531.08
529.41	37088.13
529.58	37127.92
529.75	36825.99
529.92	37158.34
530.09	37404.10
530.26	37158.34
530.43	37343.25
530.60	37280.05
530.77	36591.94
530.94	37237.92
531.11	37251.97
531.28	37301.12
531.46	37727.10
531.63	37474.32
531.80	37088.13
531.97	38012.64
532.14	37755.18
532.31	37888.59
532.48	38396.49
532.65	38403.51
532.82	37844.12
532.99	37958.81
533.16	38073.49
533.33	37769.22
533.50	38513.52
533.67	38029.02
533.84	37811.35
534.01	38389.47
534.18	38480.75
534.35	38291.16
534.52	38501.81
534.69	38642.24
534.86	38859.91
535.03	38895.02
535.20	38990.98
535.37	38658.63
535.54	39225.04
535.71	38813.10
535.88	38934.81
536.05	38710.12
536.22	38946.51
536.38	39168.87
536.55	38623.52
536.72	39016.73
536.89	39344.41
537.06	39601.86
537.23	39578.46
537.40	39339.72
537.57	39452.07
537.74	39187.59
537.91	39438.03
538.08	39475.48
538.25	39105.67
538.42	39831.24
538.59	39894.43
538.75	39328.02
538.92	39943.58
539.09	40294.66
539.26	40004.44
539.43	40067.63
539.60	40013.80
539.77	39819.53
539.94	40107.42
540.11	40044.23
540.28	40304.02
540.44	40439.78
540.61	40137.85
540.78	40187.00
540.95	40362.54
541.12	40362.54
541.29	40341.47
541.46	40577.87
541.62	40528.72
541.79	41195.77
541.96	40121.46
542.13	40488.93
542.30	40683.19
542.47	40383.60
542.63	40753.41
542.80	40854.05
542.97	41160.66
543.14	41460.25
543.31	40793.20
543.48	41167.68
543.64	41729.41
543.81	40985.12
543.98	41537.49
544.15	41303.43
544.32	41654.51
544.48	41853.46
544.65	41663.88
544.82	41930.70
544.99	41546.85
545.16	41729.41
545.32	41280.03
545.49	42000.91
545.66	42092.19
545.83	41713.03
546.00	42253.69
546.16	42120.28
546.33	41963.46
546.50	41832.39
546.67	41928.36
546.83	41736.43
547.00	42174.11
547.17	41773.88
547.34	42127.30
547.50	42113.26
547.67	42670.31
547.84	42356.67
548.00	42466.68
548.17	42869.25
548.34	42763.93
548.51	43054.15
548.67	42923.08
548.84	42693.71
549.01	42696.05
549.18	42607.11
549.34	42911.38
549.51	42801.38
549.68	42920.74
549.84	42398.80
550.01	43119.69
550.18	42651.58
550.34	42689.03
550.51	43136.07
550.68	43236.72
550.84	43030.75
551.01	43019.05
551.18	42801.38
551.34	42960.53
551.51	43365.45
551.68	43264.80
551.84	43372.47
552.01	43082.24
552.18	43360.76
552.34	42911.38
552.51	43393.53
552.68	43124.37
552.84	43636.95
553.01	43627.59
553.18	43641.63
553.34	43421.62
553.51	42890.32
553.67	44135.48
553.84	43959.94
554.01	43658.01
554.17	43615.88
554.34	44030.16
554.51	43583.12
554.67	43590.14
554.84	43704.82
555.00	43634.61
555.17	43910.79
555.33	44030.16
555.50	43831.21
555.67	44069.95
555.83	44109.74
556.00	44156.55
556.16	44875.09
556.33	43941.22
556.50	44203.36
556.66	44095.69
556.83	44584.86
556.99	44603.59
557.16	44634.02
557.32	44664.44
557.49	44634.02
557.65	44060.58
557.82	44891.48
557.98	44444.43
558.15	44301.66
558.32	44498.26
558.48	44648.06
558.65	44470.18
558.81	44409.32
558.98	44456.14
559.14	44348.47
559.31	44491.24
559.47	45022.54
559.64	44645.72
559.80	44940.63
559.97	44793.17
560.13	44727.64
560.30	44626.99
560.46	45256.60
560.63	44863.39
560.79	45090.42
560.96	45125.53
561.12	45158.30
561.29	44727.64
561.45	44802.53
561.61	45237.87
561.78	44699.55
561.94	44896.16
562.11	44879.77
562.27	45057.65
562.44	45013.18
562.60	45570.23
562.77	45242.56
562.93	45429.80
563.10	45474.27
563.26	45380.65
563.42	45551.51
563.59	45338.52
563.75	45104.46
563.92	45790.24
564.08	45404.05
564.24	45670.87
564.41	45490.65
564.57	45649.81
564.74	45544.48
564.90	45460.23
565.07	45214.47
565.23	45174.68
565.39	45542.14
565.56	45406.39
565.72	45139.57
565.88	45633.42
566.05	45731.73
566.21	45986.85
566.38	45661.51
566.54	45509.38
566.70	45563.21
566.87	45736.41
567.03	45546.82
567.19	45888.54
567.36	45677.90
567.52	45535.12
567.68	45558.53
567.85	45647.47
568.01	45633.42
568.17	45748.11
568.34	45879.18
568.50	46089.83
568.66	45925.99
568.83	45982.16
568.99	45624.06
569.15	46293.46
569.32	45514.06
569.48	45504.70
569.64	46099.19
569.81	45949.40
569.97	45853.44
570.13	46047.70
570.30	45984.51
570.46	46272.39
570.62	46080.47
570.78	45799.60
570.95	46164.73
571.11	45914.29
571.27	45904.93
571.43	46007.91
571.60	45797.26
571.76	45741.09
571.92	45986.85
572.09	45776.20
572.25	45961.10
572.41	46138.98
572.57	45837.05
572.74	46532.19
572.90	46270.05
573.06	46206.86
573.22	46438.57
573.38	46344.95
573.55	46129.62
573.71	46646.88
573.87	46223.24
574.03	46344.95
574.20	46703.05
574.36	46330.90
574.52	46424.53
574.68	46183.45
574.84	46525.17
575.01	46227.92
575.17	46487.72
575.33	46506.44
575.49	45696.62
575.65	46745.18
575.82	46476.02
575.98	46335.59
576.14	46616.45
576.30	46813.05
576.46	46506.44
576.62	46387.08
576.79	46401.12
576.95	45968.12
577.11	45895.56
577.27	46494.74
577.43	46253.67
577.59	46632.83
577.75	46354.31
577.92	45918.97
578.08	46251.33
578.24	46511.13
578.40	46752.20
578.56	46473.68
578.72	46658.58
578.88	46698.37
579.04	46527.51
579.21	46579.00
579.37	46363.67
579.53	46684.33
579.69	46295.80
579.85	46190.47
580.01	46794.33
580.17	46164.73
580.33	46712.41
580.49	46433.89
580.65	46686.67
580.82	46384.74
580.98	46583.68
581.14	46534.53
581.30	46323.88
581.46	46604.75
581.62	46387.08
581.78	46759.22
581.94	46754.54
582.10	46220.90
582.26	46951.15
582.42	46380.06
582.58	46611.77
582.74	46831.78
582.90	46646.88
583.06	46946.47
583.22	46855.18
583.38	46845.82
583.54	46653.90
583.70	46429.21
583.86	46632.83
584.02	46188.13
584.18	47152.43
584.34	46960.51
584.50	46806.03
584.66	47028.38
584.82	47026.04
584.98	47157.11
585.14	46878.59
585.30	46464.32
585.46	46480.70
585.62	46422.19
585.78	46576.66
585.94	46656.24
586.10	46799.01
586.26	46604.75
586.42	46621.13
586.58	46733.48
586.74	46820.08
586.90	46649.22
587.06	46880.93
587.22	46508.79
587.38	46997.96
587.54	47168.82
587.70	47433.30
587.86	46777.95
588.02	46707.73
588.18	46997.96
588.34	47292.86
588.49	46925.40
588.65	46747.52
588.81	47178.18
588.97	46944.12
589.13	46749.86
589.29	46902.00
589.45	47461.38
589.61	46717.09
589.77	46939.44
589.93	47112.64
590.08	47098.60
590.24	47227.33
590.40	47491.81
590.56	47356.06
590.72	47210.95
590.88	47175.84
591.04	46904.34
591.20	47412.23
591.35	47416.91
591.51	47398.19
591.67	47409.89
591.83	47587.77
591.99	47122.01
592.15	47140.73
592.31	47241.37
592.46	47093.92
592.62	46934.76
592.78	47370.10
592.94	47557.35
593.10	47803.10
593.26	47702.46
593.41	47594.79
593.57	47650.97
593.73	47203.92
593.89	47936.51
594.05	47604.16
594.20	47426.28
594.36	47533.94
594.52	47870.98
594.68	47384.15
594.84	47327.97
594.99	47896.72
595.15	47414.57
595.31	47728.20
595.47	47760.97
595.62	47529.26
595.78	47356.06
595.94	47828.85
596.10	47334.99
596.25	47676.71
596.41	47962.26
596.57	47613.52
596.73	47459.04
596.88	47351.38
597.04	47578.41
597.20	47828.85
597.36	47213.29
597.51	47590.11
597.67	47363.08
597.83	47501.17
597.99	47639.26
598.14	47875.66
598.30	47423.93
598.46	47672.03
598.61	47632.24
598.77	47655.65
598.93	47662.67
599.09	47430.96
599.24	47845.23
599.40	47285.84
599.56	47679.05
599.71	47870.98
599.87	47875.66
600.03	47786.72
600.18	47824.17
600.34	47503.51
600.50	47686.07
600.65	47601.82
600.81	47894.38
600.97	47913.11
601.12	48287.59
601.28	48212.70
601.44	47714.16
601.59	47196.90
601.75	47676.71
601.91	47999.71
602.06	47653.31
602.22	47878.00
602.37	47744.59
602.53	47503.51
602.69	47777.36
602.84	47625.22
603.00	47466.06
603.16	47833.53
603.31	47718.84
603.47	47973.96
603.62	47433.30
603.78	48032.47
603.94	47674.37
604.09	47763.31
604.25	47503.51
604.40	47487.13
604.56	47625.22
604.71	47751.61
604.87	47447.34
605.03	47498.83
605.18	47323.29
605.34	47667.35
605.49	47281.16
605.65	47831.19
605.80	47821.83
605.96	47274.14
606.12	47311.59
606.27	47922.47
606.43	47618.20
606.58	47547.98
606.74	47824.17
606.89	47765.65
607.05	47374.78
607.20	48048.86
607.36	47461.38
607.51	47349.04
607.67	47669.69
607.82	47559.69
607.98	47540.96
608.13	47428.62
608.29	47342.02
608.44	48083.97
608.60	47515.22
608.75	47358.40
608.91	47110.30
609.06	46843.48
609.22	47765.65
609.37	47072.85
609.53	47330.31
609.68	47980.98
609.84	47105.62
609.99	47339.68
610.15	47578.41
610.30	47430.96
610.46	47325.63
610.61	47437.98
610.76	47496.49
610.92	47374.78
611.07	47133.71
611.23	47459.04
611.38	47089.24
611.54	47285.84
611.69	47037.75
611.84	47475.43
612.00	47122.01
612.15	47437.98
612.31	47189.88
612.46	46843.48
612.62	47402.87
612.77	47192.22
612.92	47206.26
613.08	47136.05
613.23	46916.04
613.39	47468.40
613.54	46911.36
613.69	47260.10
613.85	46808.37
614.00	47012.00
614.15	47117.32
614.31	46974.55
614.46	47196.90
614.62	46658.58
614.77	46925.40
614.92	46946.47
615.08	47143.07
615.23	47054.13
615.38	47105.62
615.54	47182.86
615.69	46677.30
615.84	46958.17
616.00	46967.53
616.15	46754.54
616.30	46976.89
616.46	46555.60
616.61	46689.01
616.76	46878.59
616.92	46380.06
617.07	46644.54
617.22	46679.64
617.37	46335.59
617.53	46375.37
617.68	46646.88
617.83	46773.27
617.99	46848.16
618.14	46806.03
618.29	46579.00
618.45	45991.53
618.60	46309.84
618.75	46335.59
618.90	46501.76
619.06	46564.96
619.21	46373.03
619.36	46548.57
619.51	46188.13
619.67	45886.20
619.82	46431.55
619.97	46766.24
620.12	46209.20
620.28	46333.24
620.43	46560.28
620.58	46693.69
620.73	46754.54
620.89	46637.51
621.04	46461.97
621.19	46258.35
621.34	46033.66
621.49	46026.63
621.65	46150.68
621.80	46583.68
621.95	45928.33
622.10	46529.85
622.25	46071.10
622.41	45902.59
622.56	46080.47
622.71	46335.59
622.86	45984.51
623.01	45942.38
623.16	46085.15
623.32	46068.76
623.47	45991.53
623.62	45450.86
623.77	45804.28
623.92	45958.76
624.07	45841.73
624.23	46120.26
624.38	45865.14
624.53	46033.66
624.68	45607.68
624.83	46101.53
624.98	45764.49
625.13	45673.21
625.29	45336.18
625.44	45619.38
625.59	45776.20
625.74	45818.33
625.89	45361.92
626.04	45425.12
626.19	45268.30
626.34	45827.69
626.49	45067.02
626.65	45177.02
626.80	45223.83
626.95	45001.48
627.10	44678.49
627.25	45106.80
627.40	44769.77
627.55	45340.86
627.70	44940.63
627.85	45574.91
628.00	45359.58
628.15	45357.24
628.30	44889.13
628.45	44641.04
628.60	44900.84
628.76	44570.82
628.91	45137.23
629.06	44711.25
629.21	45162.98
629.36	44399.96
629.51	44849.35
629.66	45368.94
629.81	45050.63
629.96	45270.64
630.11	44886.79
630.26	45371.28
630.41	44987.44
630.56	44615.29
630.71	44870.41
630.86	44360.17
631.01	44631.68
631.16	44619.97
631.31	44683.17
631.46	44156.55
631.61	44914.88
631.76	44617.63
631.91	44699.55
632.06	45226.17
632.21	44554.44
632.36	45186.38
632.51	44175.27
632.66	44615.29
632.81	44243.15
632.96	44423.37
633.10	44435.07
633.25	44566.14
633.40	44163.57
633.55	44280.60
633.70	44615.29
633.85	44425.71
634.00	44320.38
634.15	44215.06
634.30	43992.71
634.45	44114.42
634.60	44271.23
634.75	44102.71
634.90	44165.91
635.05	44217.40
635.19	43908.45
635.34	44058.24
635.49	43981.01
635.64	43903.77
635.79	44062.93
635.94	43555.03
636.09	44364.85
636.24	44114.42
636.39	43941.22
636.53	44156.55
636.68	43461.41
636.83	43693.12
636.98	43632.27
637.13	43524.60
637.28	43683.76
637.43	43686.10
637.57	43318.64
637.72	43274.16
637.87	43842.92
638.02	43676.74
638.17	43295.23
638.32	43540.99
638.46	43056.50
638.61	43105.65
638.76	43049.47
638.91	43384.17
639.06	43084.58
639.20	43206.29
639.35	43311.61
639.50	42639.88
639.65	43643.97
639.80	42829.46
639.94	43583.12
640.09	43674.40
640.24	43606.52
640.39	42684.35
640.54	42499.45
640.68	42955.85
640.83	42969.90
640.98	42993.30
641.13	42588.39
641.27	43597.16
641.42	42909.04
641.57	42883.30
641.72	43124.37
641.86	42885.64
642.01	42927.77
642.16	42899.68
642.31	42185.82
642.45	42997.98
642.60	42572.00
642.75	42782.65
642.90	43035.43
643.04	43220.33
643.19	42794.36
643.34	42274.76
643.48	42286.46
643.63	42752.23
643.78	42871.59
643.93	42539.24
644.07	42684.35
644.22	42829.46
644.37	42635.20
644.51	42548.60
644.66	42604.77
644.81	42539.24
644.95	42707.76
645.10	42534.56
645.25	42134.32
645.39	41738.77
645.54	42045.38
645.69	42532.22
645.83	42021.98
645.98	42316.89
646.13	41933.04
646.27	41914.31
646.42	41874.52
646.57	42012.62
646.71	42010.28
646.86	42251.35
647.00	42012.62
647.15	42293.48
647.30	42117.94
647.44	42162.41
647.59	41963.46
647.74	41706.01
647.88	42220.92
648.03	42153.05
648.17	42518.17
648.32	41930.70
648.47	42375.40
648.61	41797.29
648.76	41696.64
648.90	41776.22
649.05	41916.65
649.20	41769.20
649.34	42096.88
649.49	41717.71
649.63	41769.20
649.78	41806.65
649.92	41853.46
650.07	42258.37
650.21	41897.93
650.36	41916.65
650.51	41862.82
650.65	41668.56
650.80	41986.87
650.94	41933.04
651.09	41315.14
651.23	41273.01
651.38	40945.33
651.52	40811.92
651.67	41240.24
651.81	41532.81
651.96	41483.66
652.10	41043.63
652.25	40961.72
652.39	41216.83
652.54	41769.20
652.68	41200.45
652.83	41453.23
652.97	41420.46
653.12	41083.42
653.26	40992.14
653.41	40996.82
653.55	40966.40
653.70	41069.38
653.84	40776.81
653.99	41170.02
654.13	41081.08
654.27	40554.46
654.42	41214.49
654.56	40907.88
654.71	41310.46
654.85	40793.20
655.00	41200.45
655.14	40950.01
655.29	40739.36
655.43	41214.49
655.57	40341.47
655.72	40416.37
655.86	40573.19
656.01	40631.70
656.15	39988.05
656.30	40301.68
656.44	41055.34
656.58	40685.53
656.73	40404.67
656.87	39978.69
657.01	40161.25
657.16	40652.76
657.30	40313.39
657.45	40395.31
657.59	39997.41
657.73	39796.13
657.88	40285.30
658.02	40172.96
658.16	40524.04
658.31	40341.47
658.45	40624.68
658.60	39924.86
658.74	40112.10
658.88	39643.99
659.03	39943.58
659.17	39695.49
659.31	39765.70
659.46	39676.76
659.60	40280.62
659.74	39709.53
659.89	39519.95
660.03	39559.73
660.17	39842.94
660.32	39505.90
660.46	39519.95
660.60	39117.37
660.74	39648.68
660.89	39672.08
661.03	38944.17
661.17	38742.89
661.32	39014.39
661.46	39119.71
661.60	39269.51
661.74	39145.46
661.89	39133.76
662.03	38937.15
662.17	38932.47
662.31	38656.29
662.46	38646.93
662.60	38443.30
662.74	38455.00
662.88	38464.36
663.03	38410.53
663.17	38108.60
663.31	38394.15
663.45	38443.30
663.60	38726.50
663.74	38569.69
663.88	38061.79
664.02	38162.43
664.17	38447.98
664.31	38377.76
664.45	37677.94
664.59	38218.61
664.73	37785.61
664.88	38150.73
665.02	37759.86
665.16	37804.33
665.30	37654.54
665.44	37834.76
665.59	37535.17
665.73	37659.22
665.87	37549.21
666.01	37750.50
666.15	37579.64
666.29	37471.98
666.44	37333.89
666.58	37198.13
666.72	37015.57
666.86	36982.80
667.00	36889.18
667.14	37188.77
667.28	37006.21
667.43	37158.34
667.57	37277.71
667.71	37132.60
667.85	37273.03
667.99	37017.91
668.13	36701.94
668.27	36357.88
668.41	36510.02
668.56	36247.88
668.70	36264.26
668.84	36168.30
668.98	36280.64
669.12	36460.87
669.26	36114.47
669.40	36170.64
669.54	36517.04
669.68	36261.92
669.82	36278.30
669.96	35646.36
670.10	35456.78
670.25	35852.33
670.39	35772.75
670.53	35737.64
670.67	35637.00
670.81	35798.49
670.95	35763.39
671.09	35524.65
671.23	35072.93
671.37	35470.82
671.51	35215.70
671.65	35035.48
671.79	34930.16
671.93	35370.18
672.07	35498.91
672.21	34920.79
672.35	34611.84
672.49	34691.42
672.63	34721.85
672.77	34141.39
672.91	34845.90
673.05	34794.40
673.19	34195.23
673.33	33984.58
673.47	33804.36
673.61	34094.58
673.75	33582.01
673.89	33886.28
674.03	33511.79
674.17	33848.83
674.31	33511.79
674.45	33834.78
674.59	33371.36
674.73	33326.89
674.87	33462.64
675.01	33223.90
675.15	32706.65
675.29	32844.74
675.43	32982.83
675.56	32746.44
675.70	33020.28
675.84	33050.70
675.98	31421.69
676.12	32173.00
676.26	32957.08
676.40	32320.46
676.54	32313.44
676.68	32013.85
676.82	31466.16
676.96	32065.34
677.10	31840.65
677.23	31737.66
677.37	32432.80
677.51	31962.36
677.65	31864.05
677.79	31459.14
677.93	31646.38
678.07	31702.56
678.21	31496.59
678.34	30822.51
678.48	30827.20
678.62	31082.31
678.76	31042.53
678.90	30761.66
679.04	30932.52
679.18	30895.07
679.31	30426.96
679.45	30244.40
679.59	30270.15
679.73	30057.16
679.87	30057.16
680.00	30202.27
680.14	29907.37
680.28	29902.68
680.42	29930.77
680.56	29668.63
680.70	29647.57
680.83	29209.89
680.97	29656.93
681.11	29488.41
681.25	29399.47
681.39	28985.19
681.52	28690.29
681.66	28896.25
681.80	28280.69
681.94	28100.47
682.07	28826.04
682.21	28044.30
682.35	28329.84
682.49	28266.65
682.62	28086.43
682.76	27948.34
682.90	27899.19
683.04	27901.53
683.17	28072.39
683.31	27800.88
683.45	27627.68
683.59	27620.66
683.72	27466.19
683.86	27157.24
684.00	27124.47
684.13	27323.41
684.27	27087.02
684.41	26775.73
684.55	26644.66
684.68	26979.36
684.82	26295.92
684.96	26473.80
685.09	26747.64
685.23	26937.23
685.37	26689.13
685.50	26843.60
685.64	26356.77
685.78	26120.38
685.91	26068.89
686.05	25427.58
686.19	25626.53
686.32	25558.65
686.46	25324.60
686.60	25221.61
686.73	25544.61
686.87	25392.47
687.01	25729.51
687.14	25348.00
687.28	25427.58
687.42	24917.34
687.55	24655.20
687.69	24739.46
687.82	24493.71
687.96	24166.03
688.10	24416.47
688.23	24390.72
688.37	24519.45
688.50	24556.90
688.64	24229.23
688.78	23892.19
688.91	23906.23
689.05	23772.82
689.18	23819.63
689.32	23482.59
689.46	23431.10
689.59	23346.84
689.73	23421.74
689.86	23903.89
690.00	23246.20
690.13	23304.71
690.27	22808.52
690.41	23365.57
690.54	22829.59
690.68	22363.82
690.81	22469.14
690.95	22356.80
691.08	22368.50
691.22	22354.46
691.35	22216.36
691.49	22061.89
691.62	22363.82
691.76	21500.16
691.89	21621.87
692.03	21495.48
692.16	21275.47
692.30	21455.69
692.43	21287.17
692.57	21294.19
692.70	21282.49
692.84	21228.66
692.97	21184.19
693.11	20713.74
693.24	20922.05
693.38	20716.08
693.51	20533.52
693.65	20819.07
693.78	20762.89
693.92	20393.09
694.05	20327.55
694.19	20163.72
694.32	20467.98
694.45	20545.22
694.59	20285.42
694.72	20231.59
694.86	20173.08
694.99	19489.64
695.13	19843.06
695.26	19419.42
695.39	19204.10
695.53	19473.26
695.66	19206.44
695.80	19304.74
695.93	19073.03
696.07	19482.62
696.20	18548.75
696.33	18668.11
696.47	18771.10
696.60	18883.44
696.73	18939.62
696.87	18719.60
697.00	18382.57
697.14	18310.01
697.27	18200.01
697.40	18038.51
697.54	18127.45
697.67	18197.67
697.80	18310.01
697.94	17759.98
698.07	17792.75
698.21	17898.08
698.34	17750.62
698.47	17759.98
698.61	17219.32
698.74	17729.56
698.87	17179.53
699.01	17174.85
699.14	17163.15
699.27	16978.25
699.40	16856.54
699.54	17013.35
699.67	16957.18
699.80	17149.11
699.94	16896.33
700.07	16638.87
700.20	16608.44
700.34	16648.23
700.47	16489.07
700.60	16652.91
700.73	16341.62
700.87	16276.09
701.00	16095.86
701.13	16149.70
701.26	15894.58
701.40	15831.38
701.53	15440.51
701.66	15882.88
701.79	15740.10
701.93	15513.07
702.06	15295.40
702.19	15323.49
702.32	15602.01
702.46	15447.54
702.59	15281.36
702.72	15438.17
702.85	15440.51
702.99	15192.42
703.12	14843.68
703.25	14616.65
703.38	14827.29
703.51	14626.01
703.65	14539.41
703.78	14099.39
703.91	14321.74
704.04	14537.07
704.17	14281.95
704.31	14263.22
704.44	14312.38
704.57	14214.07
704.70	14185.99
704.83	14017.47
704.96	14134.50
705.10	13729.58
705.23	13685.11
>>>>>End Processed Spectral Data<<<<<
