SpectraSuite Data File
++++++++++++++++++++++++++++++++++++
Date: Fri Oct 25 10:48:16 EDT 2013
User: price-jones
Dark Spectrum Present: No
Reference Spectrum Present: No
Number of Sampled Component Spectra: 1
Spectrometers: USB2+H05261
Integration Time (usec): 100000 (USB2+H05261)
Spectra Averaged: 1 (USB2+H05261)
Boxcar Smoothing: 0 (USB2+H05261)
Correct for Electrical Dark: No (USB2+H05261)
Strobe/Lamp Enabled: No (USB2+H05261)
Correct for Detector Non-linearity: No (USB2+H05261)
Correct for Stray Light: No (USB2+H05261)
Number of Pixels in Processed Spectrum: 2048
>>>>>Begin Processed Spectral Data<<<<<
365.73	184.90
365.92	184.90
366.12	184.90
366.32	0.00
366.52	14.04
366.72	77.24
366.91	51.49
367.11	63.19
367.31	67.88
367.51	49.15
367.70	145.11
367.90	56.17
368.10	74.90
368.30	53.83
368.49	9.36
368.69	14.04
368.89	105.32
369.09	81.92
369.28	121.71
369.48	46.81
369.68	42.13
369.87	201.29
370.07	152.13
370.27	63.19
370.47	273.84
370.66	409.59
370.86	435.34
371.06	376.83
371.25	493.85
371.45	477.47
371.65	418.96
371.84	430.66
372.04	442.36
372.24	526.62
372.44	526.62
372.63	500.87
372.83	545.34
373.03	465.77
373.22	486.83
373.42	545.34
373.62	580.45
373.81	582.79
374.01	596.84
374.21	573.43
374.40	573.43
374.60	622.58
374.79	564.07
374.99	573.43
375.19	592.16
375.38	547.69
375.58	627.26
375.78	643.65
375.97	566.41
376.17	566.41
376.37	641.31
376.56	559.39
376.76	627.26
376.95	629.60
377.15	674.07
377.35	643.65
377.54	543.00
377.74	601.52
377.93	660.03
378.13	643.65
378.33	699.82
378.52	622.58
378.72	695.14
378.91	685.78
379.11	601.52
379.31	692.80
379.50	741.95
379.70	681.10
379.89	723.23
380.09	690.46
380.28	751.31
380.48	732.59
380.68	706.84
380.87	772.38
381.07	690.46
381.26	629.60
381.46	716.20
381.65	720.88
381.85	795.78
382.04	725.57
382.24	732.59
382.43	746.63
382.63	788.76
382.83	772.38
383.02	807.48
383.22	763.01
383.41	667.05
383.61	758.33
383.80	781.74
384.00	676.41
384.19	784.08
384.39	772.38
384.58	800.46
384.78	898.77
384.97	828.55
385.17	800.46
385.36	763.01
385.56	851.96
385.75	767.70
385.95	880.04
386.14	821.53
386.34	779.40
386.53	830.89
386.72	844.93
386.92	896.43
387.11	807.48
387.31	924.51
387.50	800.46
387.70	936.21
387.89	802.80
388.09	882.38
388.28	924.51
388.48	905.79
388.67	973.66
388.86	889.40
389.06	973.66
389.25	926.85
389.45	961.96
389.64	1020.47
389.84	887.06
390.03	957.28
390.22	1011.11
390.42	985.37
390.61	1064.94
390.81	1001.75
391.00	987.71
391.19	1001.75
391.39	1025.15
391.58	1006.43
391.78	994.73
391.97	1067.28
392.16	1050.90
392.36	1048.56
392.55	1057.92
392.75	971.32
392.94	987.71
393.13	1060.26
393.33	882.38
393.52	1043.88
393.71	1067.28
393.91	1097.71
394.10	1011.11
394.29	1116.44
394.49	1093.03
394.68	1188.99
394.88	1240.48
395.07	1245.16
395.26	1184.31
395.46	1203.04
395.65	1277.93
395.84	1249.85
396.04	1252.19
396.23	1203.04
396.42	1153.88
396.62	1153.88
396.81	1144.52
397.00	1252.19
397.19	1291.98
397.39	1320.06
397.58	1343.47
397.77	1345.81
397.97	1256.87
398.16	1341.13
398.35	1399.64
398.55	1357.51
398.74	1392.62
398.93	1465.18
399.12	1483.90
399.32	1497.94
399.51	1476.88
399.70	1533.05
399.90	1502.62
400.09	1521.35
400.28	1636.03
400.47	1526.03
400.67	1605.61
400.86	1617.31
401.05	1490.92
401.24	1542.41
401.44	1565.82
401.63	1699.23
401.82	1605.61
402.01	1619.65
402.21	1640.72
402.40	1631.35
402.59	1636.03
402.78	1703.91
402.97	1736.68
403.17	1771.79
403.36	1827.96
403.55	1736.68
403.74	1781.15
403.93	1746.04
404.13	1769.44
404.32	1827.96
404.51	1874.77
404.70	1813.92
404.89	1795.19
405.09	1851.36
405.28	1781.15
405.47	1764.76
405.66	1795.19
405.85	1827.96
406.05	1902.86
406.24	1884.13
406.43	1912.22
406.62	1987.11
406.81	2129.89
407.00	1909.88
407.20	1968.39
407.39	2012.86
407.58	2001.16
407.77	2080.74
407.96	2083.08
408.15	2141.59
408.34	2113.50
408.54	2141.59
408.73	2221.17
408.92	2160.31
409.11	2289.04
409.30	2204.78
409.49	2214.15
409.68	2186.06
409.87	2256.28
410.07	2228.19
410.26	2377.98
410.45	2441.18
410.64	2246.91
410.83	2377.98
411.02	2317.13
411.21	2574.59
411.40	2555.86
411.59	2555.86
411.78	2590.97
411.98	2534.80
412.17	2572.25
412.36	2562.89
412.55	2654.17
412.74	2595.65
412.93	2665.87
413.12	2551.18
413.31	2778.22
413.50	2635.44
413.69	2576.93
413.88	2813.32
414.07	2850.77
414.26	2818.00
414.45	2801.62
414.64	2822.69
414.83	2942.05
415.02	2960.78
415.22	3045.04
415.41	2979.50
415.60	3002.91
415.79	3028.65
415.98	3084.83
416.17	3117.59
416.36	3199.51
416.55	3108.23
416.74	3260.37
416.93	3141.00
417.12	3129.30
417.31	3293.13
417.50	3253.34
417.69	3344.63
417.88	3405.48
418.07	3272.07
418.26	3353.99
418.45	3389.10
418.64	3496.76
418.83	3370.37
419.02	3435.91
419.21	3421.86
419.39	3384.41
419.58	3506.12
419.77	3405.48
419.96	3552.93
420.15	3480.38
420.34	3639.53
420.53	3632.51
420.72	3772.94
420.91	3639.53
421.10	3772.94
421.29	3707.41
421.48	3585.70
421.67	3772.94
421.86	3653.58
422.05	3592.72
422.24	3810.39
422.43	3669.96
422.61	3578.68
422.80	3889.97
422.99	3812.73
423.18	3824.44
423.37	3943.80
423.56	3763.58
423.75	3763.58
423.94	3777.62
424.13	3688.68
424.32	3691.02
424.50	3667.62
424.69	3756.56
424.88	3901.67
425.07	3768.26
425.26	3791.67
425.45	3761.24
425.64	3817.41
425.83	3840.82
426.01	3868.91
426.20	3854.86
426.39	3913.38
426.58	3836.14
426.77	3831.46
426.96	3866.56
427.15	3976.57
427.33	3861.88
427.52	3826.78
427.71	4021.04
427.90	3946.14
428.09	4053.81
428.28	4102.96
428.46	3911.04
428.65	3953.16
428.84	4189.56
429.03	4133.39
429.22	4063.17
429.40	4044.45
429.59	4105.30
429.78	3950.82
429.97	3899.33
430.16	3936.78
430.34	4140.41
430.53	4086.58
430.72	4037.42
430.91	4065.51
431.10	4369.78
431.28	4344.03
431.47	4461.06
431.66	4519.57
431.85	4421.27
432.03	4432.97
432.22	4449.36
432.41	4486.81
432.60	4550.00
432.79	4542.98
432.97	4634.26
433.16	4578.09
433.35	4601.49
433.54	4489.15
433.72	4716.18
433.91	4573.41
434.10	4636.60
434.28	4631.92
434.47	4772.35
434.66	4802.78
434.85	4772.35
435.03	4863.63
435.22	4884.70
435.41	5062.58
435.59	4858.95
435.78	4847.25
435.97	4903.42
436.16	5001.72
436.34	4966.62
436.53	4910.44
436.72	5198.33
436.90	4791.08
437.09	5050.88
437.28	4812.14
437.46	5088.32
437.65	5041.51
437.84	5006.41
438.02	4980.66
438.21	4983.00
438.40	5090.67
438.58	5144.50
438.77	5317.70
438.96	5408.98
439.14	5348.12
439.33	5563.45
439.52	5404.30
439.70	5441.75
439.89	5575.16
440.08	5444.09
440.26	5448.77
440.45	5645.37
440.63	5572.82
440.82	5797.51
441.01	5734.31
441.19	5593.88
441.38	5834.96
441.57	5933.26
441.75	5968.37
441.94	6129.86
442.12	6050.28
442.31	6223.48
442.50	6040.92
442.68	6148.59
442.87	6090.07
443.05	6066.67
443.24	6328.81
443.43	6179.01
443.61	6207.10
443.80	6509.03
443.98	6167.31
444.17	5984.75
444.35	6406.05
444.54	6232.85
444.73	6293.70
444.91	6373.28
445.10	6354.55
445.28	6246.89
445.47	6031.56
445.65	6211.78
445.84	6246.89
446.02	6483.28
446.21	6462.22
446.39	6345.19
446.58	6684.57
446.77	6490.31
446.95	6420.09
447.14	6471.58
447.32	6558.18
447.51	6434.13
447.69	6375.62
447.88	6502.01
448.06	6525.41
448.25	6455.20
448.43	6696.27
448.62	6389.66
448.80	6305.40
448.99	6619.04
449.17	6637.76
449.36	6612.01
449.54	6822.66
449.73	6633.08
449.91	6839.05
450.10	6885.86
450.28	6998.20
450.46	6930.33
450.65	7037.99
450.83	6913.94
451.02	6991.18
451.20	6988.84
451.39	6979.48
451.57	6932.67
451.76	6792.23
451.94	6787.55
452.13	6939.69
452.31	7021.61
452.49	6785.21
452.68	6885.86
452.86	6850.75
453.05	7035.65
453.23	6956.07
453.42	7143.32
453.60	7007.56
453.78	7073.10
453.97	7059.06
454.15	7253.32
454.34	7117.57
454.52	7117.57
454.70	7274.38
454.89	7417.16
455.07	7213.53
455.26	7487.37
455.44	7559.93
455.62	7426.52
455.81	7389.07
455.99	7489.71
456.17	7494.40
456.36	7566.95
456.54	7578.65
456.73	7770.58
456.91	7777.60
457.09	7791.64
457.28	7934.42
457.46	7639.51
457.64	7964.84
457.83	7583.34
458.01	7772.92
458.19	7964.84
458.38	7866.54
458.56	8053.78
458.74	7925.05
458.93	7941.44
459.11	8098.25
459.29	8035.06
459.48	8170.81
459.66	8201.24
459.84	8241.03
460.03	8297.20
460.21	8266.77
460.39	8283.16
460.57	8121.66
460.76	8271.45
460.94	8428.27
461.12	8187.19
461.31	8421.25
461.49	8311.24
461.67	8269.11
461.85	8599.13
462.04	8540.61
462.22	8938.51
462.40	8695.09
462.59	8685.73
462.77	8697.43
462.95	8496.14
463.13	8774.67
463.32	8704.45
463.50	8844.88
463.68	8798.07
463.86	8667.00
464.05	8716.16
464.23	8603.81
464.41	8739.56
464.59	8795.73
464.78	8837.86
464.96	8812.12
465.14	8662.32
465.32	8858.93
465.50	8884.67
465.69	9137.45
465.87	9114.05
466.05	8968.93
466.23	9097.66
466.41	8791.05
466.60	9015.74
466.78	8821.48
466.96	8858.93
467.14	9034.47
467.32	9149.15
467.51	9263.84
467.69	9064.89
467.87	8980.64
468.05	9165.54
468.23	9036.81
468.41	9137.45
468.60	9235.75
468.78	9268.52
468.96	9100.00
469.14	9369.16
469.32	9439.38
469.50	9378.53
469.69	9444.06
469.87	9675.77
470.05	9446.40
470.23	9736.63
470.41	9453.42
470.59	9528.32
470.77	9437.04
470.95	9804.50
471.14	9706.20
471.32	9549.39
471.50	9760.03
471.68	9823.23
471.86	9968.34
472.04	10038.56
472.22	10246.87
472.40	10050.26
472.58	10265.59
472.77	10314.74
472.95	10148.56
473.13	10679.86
473.31	10136.86
473.49	10300.70
473.67	10410.70
473.85	10223.46
474.03	10516.03
474.21	10434.11
474.39	10864.77
474.57	10656.46
474.75	10696.25
474.93	11035.63
475.12	10942.00
475.30	10733.70
475.48	10761.78
475.66	10848.38
475.84	10806.25
476.02	10998.18
476.20	11042.65
476.38	11375.00
476.56	11571.61
476.74	11386.71
476.92	11630.12
477.10	11466.28
477.28	11744.81
477.46	11463.94
477.64	11873.54
477.82	11985.88
478.00	12182.49
478.18	12131.00
478.36	12411.86
478.54	12365.05
478.72	12404.84
478.90	12706.77
479.08	12666.98
479.26	12772.30
479.44	12617.83
479.62	12886.99
479.80	12905.71
479.98	13050.83
480.16	13135.09
480.34	13291.90
480.52	13376.16
480.70	13315.31
480.88	13357.44
481.06	13404.25
481.24	13444.04
481.41	13743.63
481.59	14068.96
481.77	13991.72
481.95	13951.93
482.13	14188.33
482.31	14286.63
482.49	14597.92
482.67	14398.98
482.85	14827.29
483.03	15005.17
483.21	14710.27
483.39	15014.54
483.57	14862.40
483.74	15063.69
483.92	15325.83
484.10	15035.60
484.28	15496.69
484.46	15791.59
484.64	16027.99
484.82	15599.67
485.00	15812.66
485.18	16004.58
485.35	15896.92
485.53	15962.45
485.71	15714.36
485.89	16290.13
486.07	15976.50
486.25	16402.47
486.43	16472.69
486.61	16416.52
486.78	17144.42
486.96	17111.66
487.14	17268.47
487.32	17233.36
487.50	17376.14
487.68	17568.06
487.85	18050.21
488.03	18029.15
488.21	18310.01
488.39	18326.39
488.57	18043.19
488.75	18211.71
488.92	18937.27
489.10	18956.00
489.28	18766.42
489.46	19192.39
489.64	19314.10
489.81	19358.57
489.99	19630.07
490.17	19461.55
490.35	19908.60
490.53	19789.23
490.70	19974.13
490.88	19906.26
491.06	20683.31
491.24	20044.35
491.41	20278.40
491.59	20273.72
491.77	20692.68
491.95	20636.50
492.13	20737.15
492.30	20786.30
492.48	21343.35
492.66	21240.36
492.84	21200.57
493.01	21465.05
493.19	21333.98
493.37	21745.92
493.54	21582.08
493.72	21722.51
493.90	21921.46
494.08	22586.17
494.25	22754.69
494.43	22160.19
494.61	22948.95
494.79	23084.70
494.96	22941.93
495.14	23058.96
495.32	23339.82
495.49	22904.48
495.67	22967.68
495.85	23407.70
496.02	23665.16
496.20	24112.20
496.38	23962.40
496.55	24037.30
496.73	24566.26
496.91	23990.49
497.09	24395.40
497.26	24123.90
497.44	24404.77
497.62	24805.00
497.79	24678.61
497.97	24379.02
498.14	24580.31
498.32	25062.46
498.50	25226.29
498.67	25198.21
498.85	25369.07
499.03	26012.71
499.20	25865.26
499.38	25663.97
499.56	25663.97
499.73	26160.17
499.91	25776.32
500.08	25923.77
500.26	25652.27
500.44	26092.29
500.61	26054.84
500.79	26129.74
500.97	26139.10
501.14	26721.90
501.32	26738.28
501.49	26515.93
501.67	27016.80
501.84	26888.07
502.02	26909.14
502.20	27250.86
502.37	27452.14
502.55	27325.75
502.72	27775.14
502.90	27761.09
503.07	27367.88
503.25	27587.89
503.43	27321.07
503.60	27803.22
503.78	27646.41
503.95	27634.71
504.13	27733.01
504.30	28133.24
504.48	27917.91
504.65	28102.81
504.83	28491.34
505.01	28790.93
505.18	28348.57
505.36	29010.94
505.53	28575.60
505.71	29127.97
505.88	28767.52
506.06	28730.08
506.23	29221.59
506.41	28783.91
506.58	29076.48
506.76	29495.43
506.93	29628.84
507.11	29256.70
507.28	29329.25
507.46	29282.44
507.63	29699.06
507.81	29811.40
507.98	29476.71
508.16	29909.71
508.33	30005.67
508.50	29961.20
508.68	30094.61
508.85	30473.78
509.03	30558.03
509.20	30412.92
509.38	30497.18
509.55	30452.71
509.73	30902.09
509.90	30548.67
510.08	30778.04
510.25	30639.95
510.42	31194.66
510.60	31185.30
510.77	31250.83
510.95	31585.53
511.12	31000.40
511.30	31566.81
511.47	31709.58
511.64	31707.24
511.82	31864.05
511.99	31569.15
512.17	31702.56
512.34	31599.57
512.51	32144.92
512.69	31945.97
512.86	32121.51
513.04	32453.87
513.21	32306.41
513.38	32397.70
513.56	32378.97
513.73	32268.97
513.90	32521.74
514.08	32552.17
514.25	32538.13
514.43	32559.19
514.60	32465.57
514.77	32615.37
514.95	32858.78
515.12	33172.41
515.29	32830.69
515.47	33179.43
515.64	33626.48
515.81	33078.79
515.99	33200.50
516.16	33212.20
516.33	33364.34
516.51	33244.97
516.68	33149.01
516.85	33015.60
517.03	33251.99
517.20	33404.13
517.37	33294.12
517.54	33490.73
517.72	33598.39
517.89	33303.48
518.06	33647.54
518.24	33549.24
518.41	33888.62
518.58	33598.39
518.75	33893.30
518.93	34246.72
519.10	34125.01
519.27	34302.89
519.45	34408.22
519.62	34419.92
519.79	34948.88
519.96	34679.72
520.14	35299.96
520.31	34869.30
520.48	35112.72
520.65	34850.58
520.83	35278.89
521.00	35164.21
521.17	35306.98
521.34	35351.45
521.52	35526.99
521.69	35620.61
521.86	35686.15
522.03	35414.65
522.20	36006.80
522.38	35866.37
522.55	36282.98
522.72	35934.24
522.89	35477.84
523.07	36105.10
523.24	36135.53
523.41	35983.40
523.58	35871.05
523.75	36285.33
523.92	36210.43
524.10	36467.89
524.27	36699.60
524.44	36659.81
524.61	36634.06
524.78	36928.97
524.96	36943.02
525.13	36699.60
525.30	37434.53
525.47	37165.37
525.64	37308.14
525.81	37294.10
525.98	37104.51
526.16	36870.46
526.33	36797.90
526.50	37294.10
526.67	36989.83
526.84	36828.33
527.01	37256.65
527.18	37064.72
527.36	37118.56
527.53	37661.56
527.70	37797.31
527.87	38192.86
528.04	37689.65
528.21	37909.66
528.38	37778.59
528.55	38150.73
528.72	38047.75
528.89	38377.76
529.07	38288.82
529.24	38141.37
529.41	38246.69
529.58	38075.84
529.75	38124.99
529.92	38911.41
530.09	38995.67
530.26	38998.01
530.43	38604.80
530.60	38394.15
530.77	38625.86
530.94	39037.80
531.11	38565.01
531.28	38693.74
531.46	38696.08
531.63	39115.03
531.80	39171.21
531.97	38813.10
532.14	38785.02
532.31	39196.95
532.48	38885.66
532.65	39105.67
532.82	39405.26
532.99	39335.04
533.16	39159.50
533.33	39428.66
533.50	39882.73
533.67	39761.02
533.84	39313.98
534.01	39416.96
534.18	39402.92
534.35	40156.57
534.52	39978.69
534.69	39873.37
534.86	39723.57
535.03	39634.63
535.20	40144.87
535.37	40016.14
535.54	40226.79
535.71	39749.32
535.88	40142.53
536.05	39768.04
536.22	40381.26
536.38	40451.48
536.55	40095.72
536.72	40397.65
536.89	40311.05
537.06	40240.83
537.23	40746.39
537.40	40624.68
537.57	40570.85
537.74	40308.71
537.91	40903.20
538.08	40648.08
538.25	40524.04
538.42	40573.19
538.59	41038.95
538.75	40479.57
538.92	40795.54
539.09	40935.97
539.26	40577.87
539.43	40856.39
539.60	40659.79
539.77	40725.32
539.94	40856.39
540.11	40788.52
540.28	41104.49
540.44	41249.60
540.61	40697.24
540.78	41247.26
540.95	41153.64
541.12	41200.45
541.29	41090.44
541.46	41361.95
541.62	41820.69
541.79	41593.66
541.96	41038.95
542.13	41326.84
542.30	41626.43
542.47	41780.90
542.63	41605.36
542.80	41750.48
542.97	41558.55
543.14	41947.08
543.31	42178.79
543.48	42110.92
543.64	42693.71
543.81	42682.01
543.98	42527.53
544.15	42497.11
544.32	42651.58
544.48	42892.66
544.65	42370.72
544.82	42562.64
544.99	42141.35
545.16	42508.81
545.32	42314.55
545.49	42686.69
545.66	42527.53
545.83	42597.75
546.00	43072.88
546.16	42932.45
546.33	42286.46
546.50	42363.70
546.67	42658.60
546.83	42335.61
547.00	42756.91
547.17	42768.61
547.34	42906.70
547.50	42731.16
547.67	43585.46
547.84	43009.68
548.00	43454.39
548.17	43629.93
548.34	43299.91
548.51	44048.88
548.67	43351.40
548.84	43452.05
549.01	43430.98
549.18	43110.33
549.34	43540.99
549.51	43290.55
549.68	43391.19
549.84	43592.48
550.01	43475.45
550.18	43573.75
550.34	43253.10
550.51	43423.96
550.68	43585.46
550.84	43213.31
551.01	44140.16
551.18	43615.88
551.34	43618.22
551.51	43730.57
551.68	43899.09
551.84	43599.50
552.01	43952.92
552.18	43779.72
552.34	43178.20
552.51	44259.53
552.68	43531.62
552.84	44172.93
553.01	44446.77
553.18	43929.51
553.34	44264.21
553.51	43889.73
553.67	44158.89
553.84	44343.79
554.01	44535.71
554.17	44151.87
554.34	44725.30
554.51	43826.53
554.67	44615.29
554.84	44051.22
555.00	44252.51
555.17	44292.30
555.33	44893.82
555.50	44285.28
555.67	44385.92
555.83	44655.08
556.00	44601.25
556.16	44797.85
556.33	44828.28
556.50	44746.36
556.66	44725.30
556.83	44465.50
556.99	44952.33
557.16	44980.42
557.32	44615.29
557.49	45045.95
557.65	44708.91
557.82	44928.92
557.98	44706.57
558.15	44889.13
558.32	44919.56
558.48	44701.89
558.65	45216.81
558.81	44772.11
558.98	44795.51
559.14	44552.10
559.31	44666.78
559.47	44673.81
559.64	44978.07
559.80	45181.70
559.97	45155.96
560.13	44872.75
560.30	45034.25
560.46	44877.43
560.63	44975.73
560.79	45071.70
560.96	45375.97
561.12	45038.93
561.29	45193.40
561.45	44996.80
561.61	44938.29
561.78	45125.53
561.94	44980.42
562.11	45352.56
562.27	44931.26
562.44	45420.44
562.60	45343.20
562.77	45757.47
562.93	45191.06
563.10	45851.09
563.26	45085.74
563.42	45404.05
563.59	45450.86
563.75	45221.49
563.92	45717.68
564.08	45563.21
564.24	46099.19
564.41	45387.67
564.57	45525.76
564.74	45581.93
564.90	45666.19
565.07	45696.62
565.23	45567.89
565.39	45308.09
565.56	45797.26
565.72	45469.59
565.88	45481.29
566.05	45488.31
566.21	45874.50
566.38	45305.75
566.54	45570.23
566.70	45806.62
566.87	45823.01
567.03	45792.58
567.19	45937.69
567.36	45464.91
567.52	45528.10
567.68	45923.65
567.85	45670.87
568.01	45858.12
568.17	45659.17
568.34	45925.99
568.50	45825.35
568.66	45502.35
568.83	45771.52
568.99	45158.30
569.15	45434.48
569.32	45815.99
569.48	45654.49
569.64	46117.92
569.81	45998.55
569.97	45448.52
570.13	45687.26
570.30	45322.13
570.46	45649.81
570.62	45574.91
570.78	45808.96
570.95	44861.05
571.11	45280.00
571.27	45762.15
571.43	45535.12
571.60	45977.48
571.76	45495.33
571.92	45549.17
572.09	45865.14
572.25	46087.49
572.41	45621.72
572.57	46136.64
572.74	46195.15
572.90	45827.69
573.06	45811.31
573.22	45862.80
573.38	46003.23
573.55	45830.03
573.71	46106.21
573.87	45511.72
574.03	45696.62
574.20	45986.85
574.36	45865.14
574.52	46138.98
574.68	46260.69
574.84	46190.47
575.01	45895.56
575.17	45748.11
575.33	45741.09
575.49	45563.21
575.65	46323.88
575.82	45659.17
575.98	46138.98
576.14	46244.30
576.30	45867.48
576.46	46000.89
576.62	45776.20
576.79	45481.29
576.95	45476.61
577.11	46073.45
577.27	45865.14
577.43	45879.18
577.59	45626.40
577.75	45258.94
577.92	45361.92
578.08	45708.32
578.24	45258.94
578.40	45633.42
578.56	45603.00
578.72	46000.89
578.88	46197.49
579.04	46485.38
579.21	45874.50
579.37	45715.34
579.53	45764.49
579.69	45724.71
579.85	45764.49
580.01	45923.65
580.17	46017.27
580.33	45914.29
580.49	46469.00
580.65	46131.96
580.82	45933.01
580.98	46031.32
581.14	45853.44
581.30	46078.13
581.46	45855.78
581.62	46415.16
581.78	45909.61
581.94	46218.56
582.10	46358.99
582.26	46064.08
582.42	46202.18
582.58	45633.42
582.74	46003.23
582.90	46146.00
583.06	46190.47
583.22	45806.62
583.38	46295.80
583.54	46220.90
583.70	46129.62
583.86	45923.65
584.02	45977.48
584.18	46260.69
584.34	45830.03
584.50	46389.42
584.66	45865.14
584.82	46377.72
584.98	46564.96
585.14	46195.15
585.30	46227.92
585.46	46122.60
585.62	46174.09
585.78	46286.43
585.94	45612.36
586.10	45757.47
586.26	45649.81
586.42	46298.14
586.58	46295.80
586.74	46363.67
586.90	45984.51
587.06	46050.04
587.22	46218.56
587.38	45787.90
587.54	46305.16
587.70	46628.15
587.86	46461.97
588.02	45937.69
588.18	46227.92
588.34	45961.10
588.49	46012.59
588.65	45429.80
588.81	45750.45
588.97	45701.30
589.13	45979.82
589.29	45804.28
589.45	45347.88
589.61	46012.59
589.77	46136.64
589.93	46190.47
590.08	46251.33
590.24	46555.60
590.40	46632.83
590.56	46239.62
590.72	45975.14
590.88	45820.67
591.04	46059.40
591.20	46529.85
591.35	46188.13
591.51	46597.73
591.67	46199.83
591.83	46508.79
591.99	46036.00
592.15	46059.40
592.31	46401.12
592.46	45883.86
592.62	46277.07
592.78	46043.02
592.94	46213.88
593.10	46239.62
593.26	46120.26
593.41	46277.07
593.57	46127.28
593.73	45986.85
593.89	46471.34
594.05	46377.72
594.20	46036.00
594.36	46138.98
594.52	46277.07
594.68	46389.42
594.84	46349.63
594.99	46344.95
595.15	46234.94
595.31	46265.37
595.47	46227.92
595.62	46316.86
595.78	46415.16
595.94	46436.23
596.10	46752.20
596.25	46316.86
596.41	46576.66
596.57	46628.15
596.73	46492.40
596.88	45998.55
597.04	46417.50
597.20	46307.50
597.36	46358.99
597.51	46621.13
597.67	46230.26
597.83	46539.21
597.99	46454.95
598.14	46382.40
598.30	46192.81
598.46	45958.76
598.61	45881.52
598.77	46431.55
598.93	46160.05
599.09	46302.82
599.24	46445.59
599.40	46347.29
599.56	46646.88
599.71	46375.37
599.87	46541.55
600.03	46361.33
600.18	46122.60
600.34	46267.71
600.50	46368.35
600.65	46373.03
600.81	46183.45
600.97	46553.26
601.12	47033.07
601.28	46211.54
601.44	46337.93
601.59	46342.61
601.75	46167.07
601.91	46880.93
602.06	46150.68
602.22	46054.72
602.37	46253.67
602.53	46483.04
602.69	46642.20
602.84	46155.36
603.00	46473.68
603.16	46478.36
603.31	46129.62
603.47	46258.35
603.62	46607.09
603.78	46370.69
603.94	46167.07
604.09	46298.14
604.25	46307.50
604.40	46443.25
604.56	46160.05
604.71	46396.44
604.87	45881.52
605.03	46368.35
605.18	46216.22
605.34	46358.99
605.49	46246.65
605.65	46265.37
605.80	46459.63
605.96	46408.14
606.12	46377.72
606.27	46677.30
606.43	45954.08
606.58	46431.55
606.74	45792.58
606.89	46370.69
607.05	46408.14
607.20	46129.62
607.36	46197.49
607.51	46553.26
607.67	45940.04
607.82	46129.62
607.98	46089.83
608.13	45766.84
608.29	46230.26
608.44	45621.72
608.60	45471.93
608.75	45715.34
608.91	46057.06
609.06	45933.01
609.22	46043.02
609.37	45727.05
609.53	46068.76
609.68	46014.93
609.84	45886.20
609.99	46092.17
610.15	45876.84
610.30	45806.62
610.46	45474.27
610.61	45703.64
610.76	45776.20
610.92	45801.94
611.07	45804.28
611.23	45900.25
611.38	45839.39
611.54	45642.79
611.69	45815.99
611.84	45303.41
612.00	45507.04
612.15	45432.14
612.31	45942.38
612.46	45453.20
612.62	45645.13
612.77	45872.16
612.92	45766.84
613.08	45251.92
613.23	45595.98
613.39	45530.44
613.54	44994.46
613.69	45387.67
613.85	45453.20
614.00	45310.43
614.15	45345.54
614.31	45490.65
614.46	45287.03
614.62	45146.59
614.77	44889.13
614.92	45420.44
615.08	45081.06
615.23	45160.64
615.38	45104.46
615.54	44912.54
615.69	44753.38
615.84	44821.26
616.00	44821.26
616.15	45492.99
616.30	45205.11
616.46	44931.26
616.61	44706.57
616.76	45123.19
616.92	44973.39
617.07	44952.33
617.22	44758.06
617.37	44713.59
617.53	45397.03
617.68	45043.61
617.83	44900.84
617.99	45214.47
618.14	44959.35
618.29	44879.77
618.45	44549.76
618.60	44781.47
618.75	44954.67
618.90	44446.77
619.06	44746.36
619.21	44519.33
619.36	45200.43
619.51	44814.24
619.67	44285.28
619.82	44655.08
619.97	44406.98
620.12	44208.04
620.28	44203.36
620.43	44201.02
620.58	44666.78
620.73	44329.75
620.89	44416.35
621.04	44250.17
621.19	43995.05
621.34	44179.95
621.49	43622.90
621.65	44318.04
621.80	44722.96
621.95	44259.53
622.10	44215.06
622.25	44477.20
622.41	44191.65
622.56	43749.29
622.71	44453.79
622.86	43807.81
623.01	44275.91
623.16	44486.56
623.32	44364.85
623.47	44381.24
623.62	43955.26
623.77	44034.84
623.92	43863.98
624.07	43414.60
624.23	43323.32
624.38	43592.48
624.53	44116.76
624.68	43674.40
624.83	43445.02
624.98	43688.44
625.13	43023.73
625.29	43995.05
625.44	43569.07
625.59	43578.43
625.74	43566.73
625.89	42993.30
626.04	42934.79
626.19	43180.54
626.34	43217.99
626.49	43077.56
626.65	43320.98
626.80	43295.23
626.95	43328.00
627.10	42831.80
627.25	43161.82
627.40	42965.21
627.55	43021.39
627.70	42724.14
627.85	42415.19
628.00	43019.05
628.15	43098.62
628.30	42593.07
628.45	42642.22
628.60	42738.18
628.76	42951.17
628.91	43157.14
629.06	42892.66
629.21	42728.82
629.36	42639.88
629.51	42651.58
629.66	42443.27
629.81	42396.46
629.96	43061.18
630.11	42873.93
630.26	42583.71
630.41	42810.74
630.56	42356.67
630.71	42321.57
630.86	42499.45
631.01	42139.00
631.16	42202.20
631.31	42199.86
631.46	41998.57
631.61	42534.56
631.76	42202.20
631.91	42333.27
632.06	42501.79
632.21	42335.61
632.36	42639.88
632.51	42066.45
632.66	42293.48
632.81	41923.68
632.96	42003.25
633.10	41989.21
633.25	42183.48
633.40	42038.36
633.55	42169.43
633.70	41839.42
633.85	41970.49
634.00	42230.29
634.15	42330.93
634.30	41675.58
634.45	41888.57
634.60	41745.80
634.75	41663.88
634.90	41706.01
635.05	41869.84
635.19	41738.77
635.34	41942.40
635.49	41675.58
635.64	41584.30
635.79	41628.77
635.94	41916.65
636.09	41684.94
636.24	41691.96
636.39	41113.85
636.53	41179.39
636.68	41572.60
636.83	41303.43
636.98	41666.22
637.13	40947.67
637.28	41593.66
637.43	41535.15
637.57	41375.99
637.72	41361.95
637.87	41773.88
638.02	41347.90
638.17	41467.27
638.32	41223.86
638.46	41057.68
638.61	41268.33
638.76	41319.82
638.91	41287.05
639.06	40938.31
639.20	41326.84
639.35	41277.69
639.50	41256.62
639.65	41471.95
639.80	40921.93
639.94	41081.08
640.09	41268.33
640.24	40451.48
640.39	40648.08
640.54	40641.06
640.68	40638.72
640.83	40912.56
640.98	40793.20
641.13	40058.27
641.27	41003.85
641.42	40765.11
641.57	40191.68
641.72	40802.56
641.86	40662.13
642.01	40676.17
642.16	40098.06
642.31	40184.66
642.45	40685.53
642.60	40081.67
642.75	40212.74
642.90	40318.07
643.04	40472.54
643.19	40353.18
643.34	40301.68
643.48	40226.79
643.63	40114.44
643.78	39807.83
643.93	40126.14
644.07	40034.86
644.22	40027.84
644.37	39892.09
644.51	39908.47
644.66	40013.80
644.81	40011.46
644.95	39957.63
645.10	40477.22
645.25	40341.47
645.39	40297.00
645.54	40245.51
645.69	40093.38
645.83	39594.84
645.98	40217.43
646.13	40306.37
646.27	39878.05
646.42	39732.93
646.57	39882.73
646.71	39620.59
646.86	39395.90
647.00	39674.42
647.15	39615.91
647.30	39756.34
647.44	39723.57
647.59	39377.17
647.74	39519.95
647.88	39438.03
648.03	39358.45
648.17	39405.26
648.32	39248.44
648.47	39098.65
648.61	39264.83
648.76	39271.85
648.90	39651.02
649.05	39143.12
649.20	39278.87
649.34	39161.84
649.49	38967.58
649.63	39072.90
649.78	39218.02
649.92	39103.33
650.07	39180.57
650.21	38820.13
650.36	39005.03
650.51	38438.62
650.65	39367.81
650.80	39709.53
650.94	39021.41
651.09	39096.31
651.23	39054.18
651.38	39002.69
651.52	38679.69
651.67	39274.19
651.81	38976.94
651.96	38782.68
652.10	38754.59
652.25	38387.13
652.39	38637.56
652.54	39021.41
652.68	38672.67
652.83	38497.13
652.97	39126.74
653.12	38789.70
653.26	38565.01
653.41	38845.87
653.55	38103.92
653.70	38256.06
653.84	38447.98
653.99	38810.76
654.13	38401.17
654.27	38691.40
654.42	38106.26
654.56	38583.73
654.71	38164.78
654.85	38337.98
655.00	38412.87
655.14	38110.94
655.29	37619.43
655.43	38532.24
655.57	37720.07
655.72	38094.56
655.86	37680.28
656.01	37811.35
656.15	37523.47
656.30	37801.99
656.44	37762.20
656.58	37432.19
656.73	37647.52
656.87	37886.25
657.01	37668.58
657.16	37242.60
657.30	37041.32
657.45	37368.99
657.59	37443.89
657.73	37621.77
657.88	37928.38
658.02	37455.59
658.16	37455.59
658.31	37511.77
658.45	37338.57
658.60	37282.39
658.74	37387.72
658.88	37296.44
659.03	37064.72
659.17	37062.38
659.31	37270.69
659.46	36746.41
659.60	37296.44
659.74	37158.34
659.89	36921.95
660.03	36404.69
660.17	36907.91
660.32	37095.15
660.46	37471.98
660.60	36734.71
660.74	36769.82
660.89	36935.99
661.03	36549.81
661.17	36973.44
661.32	36533.42
661.46	36734.71
661.60	36503.00
661.74	36332.14
661.89	36472.57
662.03	36297.03
662.17	36416.40
662.31	35906.16
662.46	36809.61
662.60	36151.91
662.74	36257.24
662.88	36055.95
663.03	36032.55
663.17	36161.28
663.31	36299.37
663.45	36257.24
663.60	35814.88
663.74	35599.55
663.88	35660.40
664.02	35718.92
664.17	35838.28
664.31	34937.18
664.45	35468.48
664.59	35737.64
664.73	35959.99
664.88	35702.53
665.02	35316.34
665.16	35449.75
665.30	35016.75
665.44	35211.02
665.59	34951.22
665.73	35662.74
665.87	34986.33
666.01	35187.61
666.15	35049.52
666.29	34789.72
666.44	35005.05
666.58	34920.79
666.72	35150.17
666.86	34960.58
667.00	34911.43
667.14	34499.50
667.28	34712.49
667.43	34361.40
667.57	34590.78
667.71	34117.99
667.85	34314.59
667.99	33717.76
668.13	34003.30
668.27	34244.38
668.41	34305.23
668.56	34246.72
668.70	34260.76
668.84	34361.40
668.98	33862.87
669.12	33621.80
669.26	33816.06
669.40	33563.28
669.54	33795.00
669.68	33816.06
669.82	33354.97
669.96	33177.09
670.10	33301.14
670.25	33745.84
670.39	33516.47
670.53	33303.48
670.67	32907.93
670.81	33518.81
670.95	33504.77
671.09	33392.42
671.23	32945.38
671.37	33479.02
671.51	33048.36
671.65	32877.51
671.79	32629.41
671.93	32954.74
672.07	32879.85
672.21	32730.05
672.35	32559.19
672.49	32704.31
672.63	32603.66
672.77	32430.46
672.91	32198.75
673.05	32680.90
673.19	32767.50
673.33	32158.96
673.47	31707.24
673.61	31962.36
673.75	31550.42
673.89	31875.76
674.03	31517.65
674.17	31625.32
674.31	31793.84
674.45	31871.07
674.59	31667.45
674.73	31482.55
674.87	31482.55
675.01	31477.86
675.15	31480.21
675.29	31445.10
675.43	30815.49
675.56	31089.34
675.70	31101.04
675.84	30953.58
675.98	30153.12
676.12	30382.49
676.26	30583.78
676.40	30761.66
676.54	30642.29
676.68	30515.90
676.82	29766.93
676.96	30113.33
677.10	29921.41
677.23	30059.50
677.37	29876.94
677.51	29823.11
677.65	30038.44
677.79	29677.99
677.93	29603.10
678.07	29535.22
678.21	29439.26
678.34	28870.51
678.48	29301.17
678.62	29076.48
678.76	29034.35
678.90	28882.21
679.04	28858.81
679.18	28680.92
679.31	28807.31
679.45	28463.25
679.59	28634.11
679.73	28737.10
679.87	28727.74
680.00	28393.04
680.14	28189.41
680.28	28093.45
680.42	27845.35
680.56	27920.25
680.70	27964.72
680.83	27742.37
680.97	27737.69
681.11	27899.19
681.25	27463.85
681.39	27400.65
681.52	27798.54
681.66	27695.56
681.80	27056.59
681.94	27351.50
682.07	27161.92
682.21	27110.43
682.35	26675.09
682.49	26588.49
682.62	26639.98
682.76	26272.51
682.90	26429.33
683.04	26408.26
683.17	26326.35
683.31	26370.82
683.45	26520.61
683.59	25848.88
683.72	25872.28
683.86	26057.18
684.00	25865.26
684.13	25776.32
684.27	25778.66
684.41	25113.95
684.55	25422.90
684.68	25390.13
684.82	25291.83
684.96	25097.56
685.09	24889.26
685.23	24973.52
685.37	25130.33
685.50	24947.77
685.64	25025.01
685.78	25003.94
685.91	24582.65
686.05	24533.50
686.19	24528.81
686.32	24528.81
686.46	23882.83
686.60	24060.71
686.73	23824.31
686.87	23838.36
687.01	23639.41
687.14	23253.22
687.28	23363.23
687.42	23374.93
687.55	23190.03
687.69	23456.85
687.82	23438.12
687.96	23225.14
688.10	22888.10
688.23	22986.40
688.37	22916.19
688.50	22677.45
688.64	22911.50
688.78	22705.54
688.91	22321.69
689.05	22061.89
689.18	22352.12
689.32	21624.21
689.46	22387.22
689.59	22567.45
689.73	22050.19
689.86	22218.71
690.00	22104.02
690.13	22108.70
690.27	21830.18
690.41	21881.67
690.54	21502.50
690.68	21441.65
690.81	21832.52
690.95	21118.65
691.08	21352.71
691.22	21301.22
691.35	21298.88
691.49	21245.04
691.62	20999.29
691.76	21261.43
691.89	21088.23
692.03	20765.23
692.16	20936.09
692.30	20788.64
692.43	20629.48
692.57	20517.14
692.70	20278.40
692.84	20367.34
692.97	19995.20
693.11	20065.41
693.24	20079.46
693.38	20168.40
693.51	19922.64
693.65	20259.68
693.78	19796.25
693.92	19791.57
694.05	19648.80
694.19	19318.78
694.32	19508.37
694.45	19220.48
694.59	19068.34
694.72	19054.30
694.86	19180.69
694.99	18892.80
695.13	18916.21
695.26	18911.53
695.39	18773.44
695.53	19126.86
695.66	18867.06
695.80	18759.39
695.93	18431.72
696.07	18415.34
696.20	18686.84
696.33	18515.98
696.47	18345.12
696.60	18384.91
696.73	18015.10
696.87	17879.35
697.00	18349.80
697.14	17879.35
697.27	17696.79
697.40	17951.91
697.54	17727.22
697.67	17542.32
697.80	17507.21
697.94	17394.86
698.07	17315.28
698.21	17219.32
698.34	17418.27
698.47	17008.67
698.61	16957.18
698.74	17179.53
698.87	16996.97
699.01	16650.57
699.14	16563.97
699.27	16533.54
699.40	16720.79
699.54	16500.78
699.67	16189.49
699.80	16460.99
699.94	16339.28
700.07	16446.94
700.20	16070.12
700.34	16046.71
700.47	16016.29
700.60	16278.43
700.73	16173.10
700.87	15899.26
701.00	15761.17
701.13	15899.26
701.26	16161.40
701.40	15651.16
701.53	15555.20
701.66	15461.58
701.79	15384.34
701.93	15295.40
702.06	15154.97
702.19	15201.78
702.32	14909.21
702.46	15059.01
702.59	14953.68
702.72	15274.34
702.85	15077.73
702.99	14979.43
703.12	14902.19
703.25	14810.91
703.38	14586.22
703.51	14654.09
703.65	14366.21
703.78	14434.08
703.91	14277.27
704.04	14356.85
704.17	14319.40
704.31	14328.76
704.44	13987.04
704.57	13984.70
704.70	13851.29
704.83	14036.19
704.96	13989.38
705.10	13958.96
705.23	14101.73
>>>>>End Processed Spectral Data<<<<<
