SpectraSuite Data File
++++++++++++++++++++++++++++++++++++
Date: Fri Oct 25 10:48:14 EDT 2013
User: price-jones
Dark Spectrum Present: No
Reference Spectrum Present: No
Number of Sampled Component Spectra: 1
Spectrometers: USB2+H05261
Integration Time (usec): 100000 (USB2+H05261)
Spectra Averaged: 1 (USB2+H05261)
Boxcar Smoothing: 0 (USB2+H05261)
Correct for Electrical Dark: No (USB2+H05261)
Strobe/Lamp Enabled: No (USB2+H05261)
Correct for Detector Non-linearity: No (USB2+H05261)
Correct for Stray Light: No (USB2+H05261)
Number of Pixels in Processed Spectrum: 2048
>>>>>Begin Processed Spectral Data<<<<<
365.73	184.90
365.92	184.90
366.12	184.90
366.32	119.37
366.52	84.26
366.72	39.79
366.91	0.00
367.11	77.24
367.31	79.58
367.51	63.19
367.70	0.00
367.90	9.36
368.10	100.64
368.30	138.09
368.49	161.50
368.69	30.43
368.89	25.75
369.09	32.77
369.28	121.71
369.48	110.01
369.68	65.54
369.87	138.09
370.07	128.73
370.27	95.96
370.47	191.92
370.66	397.89
370.86	372.15
371.06	447.04
371.25	500.87
371.45	418.96
371.65	468.11
371.84	496.19
372.04	498.53
372.24	463.43
372.44	442.36
372.63	484.49
372.83	510.24
373.03	475.13
373.22	500.87
373.42	512.58
373.62	531.30
373.81	524.28
374.01	517.26
374.21	547.69
374.40	615.56
374.60	578.11
374.79	545.34
374.99	533.64
375.19	580.45
375.38	641.31
375.58	571.09
375.78	615.56
375.97	585.13
376.17	660.03
376.37	620.24
376.56	608.54
376.76	566.41
376.95	596.84
377.15	606.20
377.35	531.30
377.54	657.69
377.74	664.71
377.93	575.77
378.13	575.77
378.33	662.37
378.52	716.20
378.72	674.07
378.91	624.92
379.11	571.09
379.31	692.80
379.50	613.22
379.70	706.84
379.89	725.57
380.09	615.56
380.28	702.16
380.48	765.36
380.68	615.56
380.87	674.07
381.07	676.41
381.26	685.78
381.46	688.12
381.65	711.52
381.85	641.31
382.04	664.71
382.24	667.05
382.43	603.86
382.63	653.01
382.83	739.61
383.02	709.18
383.22	683.44
383.41	669.39
383.61	784.08
383.80	739.61
384.00	732.59
384.19	720.88
384.39	716.20
384.58	802.80
384.78	830.89
384.97	814.51
385.17	812.17
385.36	767.70
385.56	716.20
385.75	800.46
385.95	833.23
386.14	706.84
386.34	772.38
386.53	784.08
386.72	880.04
386.92	784.08
387.11	802.80
387.31	847.27
387.50	830.89
387.70	877.70
387.89	793.44
388.09	688.12
388.28	851.96
388.48	854.30
388.67	903.45
388.86	980.68
389.06	814.51
389.25	840.25
389.45	917.49
389.64	926.85
389.84	978.34
390.03	976.00
390.22	926.85
390.42	926.85
390.61	884.72
390.81	901.11
391.00	1053.24
391.19	1015.79
391.39	954.94
391.58	1090.69
391.78	1062.60
391.97	1027.50
392.16	961.96
392.36	992.39
392.55	983.02
392.75	964.30
392.94	1015.79
393.13	994.73
393.33	966.64
393.52	957.28
393.71	1039.20
393.91	1034.52
394.10	983.02
394.29	1067.28
394.49	1104.73
394.68	1137.50
394.88	1123.46
395.07	1240.48
395.26	1097.71
395.46	1036.86
395.65	1048.56
395.84	1170.27
396.04	1174.95
396.23	1177.29
396.42	1128.14
396.62	1057.92
396.81	1076.65
397.00	1224.10
397.19	1242.82
397.39	1261.55
397.58	1301.34
397.77	1245.16
397.97	1259.21
398.16	1296.66
398.35	1352.83
398.55	1427.73
398.74	1345.81
398.93	1394.96
399.12	1432.41
399.32	1287.29
399.51	1439.43
399.70	1345.81
399.90	1383.26
400.09	1476.88
400.28	1385.60
400.47	1467.52
400.67	1504.96
400.86	1474.54
401.05	1472.20
401.24	1453.47
401.44	1483.90
401.63	1516.67
401.82	1488.58
402.01	1427.73
402.21	1685.19
402.40	1523.69
402.59	1617.31
402.78	1572.84
402.97	1619.65
403.17	1619.65
403.36	1694.55
403.55	1785.83
403.74	1680.50
403.93	1736.68
404.13	1802.21
404.32	1650.08
404.51	1785.83
404.70	1708.59
404.89	1680.50
405.09	1816.26
405.28	1769.44
405.47	1797.53
405.66	1823.28
405.85	1872.43
406.05	1685.19
406.24	1806.89
406.43	1905.20
406.62	1944.99
406.81	1881.79
407.00	1919.24
407.20	1944.99
407.39	1930.94
407.58	1907.54
407.77	1982.43
407.96	2127.55
408.15	2118.18
408.34	1933.28
408.54	2071.37
408.73	2087.76
408.92	2059.67
409.11	2071.37
409.30	2143.93
409.49	2071.37
409.68	2052.65
409.87	2045.63
410.07	2118.18
410.26	2052.65
410.45	2200.10
410.64	2146.27
410.83	2221.17
411.02	2267.98
411.21	2331.17
411.40	2387.35
411.59	2314.79
411.78	2370.96
411.98	2457.56
412.17	2436.50
412.36	2502.03
412.55	2382.67
412.74	2523.10
412.93	2464.58
413.12	2469.27
413.31	2616.72
413.50	2548.84
413.69	2541.82
413.88	2607.36
414.07	2640.12
414.26	2569.91
414.45	2665.87
414.64	2665.87
414.83	2768.85
415.02	2836.73
415.22	2738.43
415.41	2719.70
415.60	2925.67
415.79	2911.63
415.98	2920.99
416.17	2960.78
416.36	2939.71
416.55	2953.76
416.74	2935.03
416.93	2960.78
417.12	3126.96
417.31	3089.51
417.50	3192.49
417.69	3178.45
417.88	3227.60
418.07	3084.83
418.26	3162.06
418.45	3208.87
418.64	3281.43
418.83	3351.65
419.02	3288.45
419.21	3274.41
419.39	3206.53
419.58	3262.71
419.77	3307.18
419.96	3330.58
420.15	3197.17
420.34	3251.00
420.53	3375.05
420.72	3478.04
420.91	3576.34
421.10	3466.33
421.29	3590.38
421.48	3559.95
421.67	3534.21
421.86	3433.57
422.05	3541.23
422.24	3555.27
422.43	3613.79
422.61	3506.12
422.80	3529.53
422.99	3639.53
423.18	3777.62
423.37	3604.42
423.56	3578.68
423.75	3688.68
423.94	3616.13
424.13	3314.20
424.32	3487.40
424.50	3620.81
424.69	3763.58
424.88	3695.71
425.07	3524.85
425.26	3581.02
425.45	3721.45
425.64	3576.34
425.83	3693.37
426.01	3726.13
426.20	3562.30
426.39	3688.68
426.58	3698.05
426.77	3552.93
426.96	3585.70
427.15	3742.52
427.33	3709.75
427.52	3758.90
427.71	3747.20
427.90	3684.00
428.09	3955.51
428.28	3847.84
428.46	3857.20
428.65	3817.41
428.84	4032.74
429.03	3960.19
429.22	3871.25
429.40	3868.91
429.59	3691.02
429.78	3651.24
429.97	3681.66
430.16	3932.10
430.34	3941.46
430.53	3826.78
430.72	3941.46
430.91	3843.16
431.10	4014.02
431.28	4152.11
431.47	4112.32
431.66	4304.25
431.85	4021.04
432.03	4250.41
432.22	4367.44
432.41	4215.30
432.60	4283.18
432.79	4428.29
432.97	4344.03
433.16	4294.88
433.35	4353.40
433.54	4313.61
433.72	4301.90
433.91	4280.84
434.10	4344.03
434.28	4367.44
434.47	4404.89
434.66	4407.23
434.85	4496.17
435.03	4531.28
435.22	4526.60
435.41	4746.61
435.59	4664.69
435.78	4819.16
435.97	4695.11
436.16	4690.43
436.34	4709.16
436.53	4711.50
436.72	4777.03
436.90	4795.76
437.09	4711.50
437.28	4535.96
437.46	4643.62
437.65	4683.41
437.84	4765.33
438.02	4791.08
438.21	4788.74
438.40	4734.90
438.58	5039.17
438.77	5057.90
438.96	5071.94
439.14	5088.32
439.33	5074.28
439.52	5268.55
439.70	5100.03
439.89	5146.84
440.08	5184.29
440.26	5275.57
440.45	5385.57
440.63	5387.91
440.82	5322.38
441.01	5392.59
441.19	5385.57
441.38	5558.77
441.57	5621.97
441.75	5572.82
441.94	5755.38
442.12	5781.12
442.31	5645.37
442.50	5778.78
442.68	5809.21
442.87	5778.78
443.05	5753.04
443.24	6031.56
443.43	5912.19
443.61	6047.94
443.80	6061.99
443.98	5895.81
444.17	5818.57
444.35	5902.83
444.54	6038.58
444.73	5947.30
444.91	5977.73
445.10	5926.24
445.28	5909.85
445.47	5996.45
445.65	6005.81
445.84	6043.26
446.02	6080.71
446.21	6033.90
446.39	5930.92
446.58	6162.63
446.77	6066.67
446.95	6036.24
447.14	6129.86
447.32	6167.31
447.51	6038.58
447.69	6045.60
447.88	6204.76
448.06	6228.17
448.25	6223.48
448.43	6274.98
448.62	6017.52
448.80	6040.92
448.99	6375.62
449.17	6324.13
449.36	6244.55
449.54	6387.32
449.73	6483.28
449.91	6586.27
450.10	6478.60
450.28	6471.58
450.46	6541.80
450.65	6530.09
450.83	6546.48
451.02	6469.24
451.20	6717.34
451.39	6647.12
451.57	6619.04
451.76	6492.65
451.94	6581.59
452.13	6696.27
452.31	6670.53
452.49	6672.87
452.68	6623.72
452.86	6572.22
453.05	6789.89
453.23	6715.00
453.42	6717.34
453.60	6787.55
453.78	6853.09
453.97	6871.81
454.15	6801.60
454.34	6803.94
454.52	7021.61
454.70	6993.52
454.89	6935.01
455.07	6972.46
455.26	6923.30
455.44	7075.44
455.62	7129.27
455.81	7073.10
455.99	7143.32
456.17	7236.94
456.36	7258.00
456.54	7276.73
456.73	7300.13
456.91	7531.84
457.09	7253.32
457.28	7478.01
457.46	7363.33
457.64	7559.93
457.83	7433.54
458.01	7473.33
458.19	7662.91
458.38	7311.83
458.56	7501.42
458.74	7485.03
458.93	7557.59
459.11	7698.02
459.29	7665.25
459.48	7831.43
459.66	7686.32
459.84	7695.68
460.03	7824.41
460.21	7775.26
460.39	7758.88
460.57	7702.70
460.76	7861.86
460.94	8009.31
461.12	7932.08
461.31	8072.51
461.49	7913.35
461.67	7894.63
461.85	8114.64
462.04	7927.39
462.22	8498.49
462.40	8182.51
462.59	8124.00
462.77	8212.94
462.95	8287.84
463.13	8149.75
463.32	8133.36
463.50	8290.18
463.68	8287.84
463.86	8325.29
464.05	8219.96
464.23	8152.09
464.41	8145.06
464.59	8226.98
464.78	8491.46
464.96	8301.88
465.14	8344.01
465.32	8332.31
465.50	8404.86
465.69	8655.30
465.87	8388.48
466.05	8451.67
466.23	8685.73
466.41	8552.32
466.60	8716.16
466.78	8617.85
466.96	8477.42
467.14	8617.85
467.32	8667.00
467.51	8631.90
467.69	8486.78
467.87	8744.24
468.05	8762.97
468.23	8711.47
468.41	8772.33
468.60	8879.99
468.78	8933.82
468.96	8723.18
469.14	8950.21
469.32	9074.26
469.50	8681.05
469.69	8889.35
469.87	9125.75
470.05	9207.67
470.23	9104.68
470.41	9085.96
470.59	9027.45
470.77	9071.92
470.95	9156.18
471.14	9444.06
471.32	9291.93
471.50	9305.97
471.68	9336.40
471.86	9437.04
472.04	9671.09
472.22	9675.77
472.40	9767.06
472.58	9327.03
472.77	9666.41
472.95	9694.50
473.13	9987.07
473.31	9671.09
473.49	9708.54
473.67	9741.31
473.85	9998.77
474.03	10197.71
474.21	10033.88
474.39	10188.35
474.57	10200.05
474.75	10298.36
474.93	10244.52
475.12	10335.81
475.30	10326.44
475.48	10281.97
475.66	10307.72
475.84	10487.94
476.02	10717.31
476.20	10466.88
476.38	10738.38
476.56	11129.25
476.74	10850.72
476.92	11002.86
477.10	11129.25
477.28	11103.50
477.46	11082.44
477.64	11503.73
477.82	11150.31
478.00	11559.91
478.18	11698.00
478.36	11580.97
478.54	11749.49
478.72	12079.50
478.90	11887.58
479.08	12025.67
479.26	12135.68
479.44	12081.85
479.62	12236.32
479.80	12322.92
479.98	12484.42
480.16	12446.97
480.34	12362.71
480.52	12833.16
480.70	12610.81
480.88	12601.44
481.06	12620.17
481.24	12765.28
481.41	13111.68
481.59	13441.70
481.77	13172.54
481.95	13282.54
482.13	13291.90
482.31	13315.31
482.49	13949.59
482.67	13722.56
482.85	13947.25
483.03	14349.82
483.21	14083.00
483.39	14370.89
483.57	14422.38
483.74	14267.91
483.92	14569.83
484.10	14429.40
484.28	14565.15
484.46	14721.97
484.64	15344.55
484.82	14998.15
485.00	15236.89
485.18	15208.80
485.35	15372.64
485.53	15241.57
485.71	15077.73
485.89	15695.63
486.07	15515.41
486.25	15777.55
486.43	15917.98
486.61	15864.15
486.78	16063.10
486.96	16285.45
487.14	16484.39
487.32	16657.59
487.50	16746.53
487.68	16779.30
487.85	17132.72
488.03	16975.91
488.21	17156.13
488.39	17249.75
488.57	17359.75
488.75	17727.22
488.92	17671.04
489.10	18104.04
489.28	18192.98
489.46	18293.63
489.64	18185.96
489.81	18656.41
489.99	18651.73
490.17	18853.02
490.35	19030.90
490.53	18623.64
490.70	19143.24
490.88	18953.66
491.06	19566.88
491.24	19332.82
491.41	19426.45
491.59	19356.23
491.77	19496.66
491.95	19571.56
492.13	19824.34
492.30	20325.21
492.48	20159.03
492.66	20460.96
492.84	20563.95
493.01	20744.17
493.19	20552.24
493.37	21111.63
493.54	20924.39
493.72	20819.07
493.90	21036.74
494.08	21568.04
494.25	21680.38
494.43	21626.55
494.61	21717.83
494.79	21902.73
494.96	21986.99
495.14	21607.83
495.32	22132.11
495.49	22141.47
495.67	22300.62
495.85	22487.87
496.02	22632.98
496.20	22852.99
496.38	22991.08
496.55	22885.76
496.73	23168.96
496.91	23161.94
497.09	23374.93
497.26	23466.21
497.44	23232.16
497.62	23571.54
497.79	24004.53
497.97	23597.28
498.14	23899.21
498.32	23695.58
498.50	24020.92
498.67	24297.10
498.85	24460.94
499.03	24629.46
499.20	24287.74
499.38	24758.19
499.56	24709.04
499.73	24657.54
499.91	24837.76
500.08	24933.73
500.26	24762.87
500.44	25228.63
500.61	25106.93
500.79	25139.69
500.97	25090.54
501.14	25879.30
501.32	25818.45
501.49	25586.74
501.67	25607.80
501.84	25909.73
502.02	25937.82
502.20	26225.70
502.37	25998.67
502.55	26115.70
502.72	26129.74
502.90	26216.34
503.07	26857.65
503.25	26703.17
503.43	26377.84
503.60	26586.15
503.78	26513.59
503.95	26553.38
504.13	26867.01
504.30	26927.86
504.48	27157.24
504.65	26974.67
504.83	27180.64
505.01	27421.72
505.18	27604.28
505.36	27716.62
505.53	27360.86
505.71	27548.11
505.88	27662.79
506.06	27770.46
506.23	28175.37
506.41	28013.87
506.58	27957.70
506.76	28538.15
506.93	28072.39
507.11	28278.35
507.28	28060.68
507.46	28121.54
507.63	28327.50
507.81	28622.41
507.98	28636.45
508.16	28463.25
508.33	28896.25
508.50	29184.14
508.68	28884.55
508.85	29242.65
509.03	29116.26
509.20	29336.27
509.38	29355.00
509.55	29071.79
509.73	29584.37
509.90	29317.55
510.08	29652.25
510.25	29736.51
510.42	29483.73
510.60	29762.25
510.77	30230.36
510.95	30263.13
511.12	30024.39
511.30	30089.93
511.47	30733.57
511.64	30422.28
511.82	30714.85
511.99	30604.84
512.17	30555.69
512.34	30443.35
512.51	30656.34
512.69	30775.70
512.86	30721.87
513.04	31243.81
513.21	30988.69
513.38	31269.56
513.56	31260.20
513.73	31175.94
513.90	31386.58
514.08	31351.48
514.25	31218.07
514.43	31515.31
514.60	31566.81
514.77	31531.70
514.95	31702.56
515.12	31796.18
515.29	31828.95
515.47	32294.71
515.64	32250.24
515.81	32278.33
515.99	32126.19
516.16	32034.91
516.33	32006.83
516.51	32229.18
516.68	31768.09
516.85	32032.57
517.03	32297.05
517.20	32189.39
517.37	32336.84
517.54	32781.54
517.72	32694.94
517.89	32818.99
518.06	32826.01
518.24	32446.85
518.41	32575.58
518.58	32905.59
518.75	33214.54
518.93	33146.67
519.10	32898.57
519.27	33652.22
519.45	33254.33
519.62	33273.06
519.79	33116.24
519.96	33823.08
520.14	33823.08
520.31	33699.03
520.48	33799.68
520.65	33722.44
520.83	34319.28
521.00	34485.45
521.17	34050.11
521.34	34492.47
521.52	34476.09
521.69	34352.04
521.86	34836.53
522.03	34604.82
522.20	34162.46
522.38	34789.72
522.55	34583.76
522.72	34789.72
522.89	34700.78
523.07	34698.44
523.24	34792.06
523.41	34752.27
523.58	34951.22
523.75	35117.40
523.92	35154.85
524.10	35264.85
524.27	35405.28
524.44	34944.20
524.61	35480.18
524.78	35250.81
524.96	35697.85
525.13	35955.31
525.30	36285.33
525.47	36282.98
525.64	36210.43
525.81	35948.29
525.98	35997.44
526.16	35784.45
526.33	35857.01
526.50	36542.78
526.67	35807.86
526.84	35770.41
527.01	35927.22
527.18	36194.04
527.36	36491.29
527.53	36250.22
527.70	36847.05
527.87	36711.30
528.04	36659.81
528.21	36685.56
528.38	36559.17
528.55	37151.32
528.72	37017.91
528.89	37270.69
529.07	36811.95
529.24	36844.71
529.41	37090.47
529.58	36940.68
529.75	36662.15
529.92	37376.01
530.09	37413.46
530.26	37500.06
530.43	37326.86
530.60	37387.72
530.77	37579.64
530.94	37787.95
531.11	37797.31
531.28	37759.86
531.46	37392.40
531.63	38162.43
531.80	37305.80
531.97	37670.92
532.14	37944.76
532.31	37418.14
532.48	37846.46
532.65	38040.73
532.82	38078.18
532.99	38110.94
533.16	38143.71
533.33	37919.02
533.50	38340.32
533.67	38120.31
533.84	37897.95
534.01	38281.80
534.18	38527.56
534.35	38721.82
534.52	38305.21
534.69	38586.07
534.86	38660.97
535.03	38862.26
535.20	38932.47
535.37	38918.43
535.54	39084.61
535.71	38773.31
535.88	39009.71
536.05	39056.52
536.22	38941.83
536.38	39161.84
536.55	39079.92
536.72	38967.58
536.89	38328.61
537.06	38738.21
537.23	39512.92
537.40	39208.65
537.57	39126.74
537.74	39363.13
537.91	39840.60
538.08	39480.16
538.25	39096.31
538.42	39138.44
538.59	39374.83
538.75	39419.30
538.92	39564.42
539.09	40086.36
539.26	39138.44
539.43	40341.47
539.60	39662.72
539.77	39695.49
539.94	40259.55
540.11	40095.72
540.28	40147.21
540.44	39721.23
540.61	40009.12
540.78	40081.67
540.95	39620.59
541.12	39775.06
541.29	39992.73
541.46	39693.15
541.62	40245.51
541.79	40039.54
541.96	39721.23
542.13	40039.54
542.30	40217.43
542.47	40381.26
542.63	40189.34
542.80	40545.10
542.97	40694.89
543.14	40748.73
543.31	40577.87
543.48	41558.55
543.64	41256.62
543.81	41497.70
543.98	40947.67
544.15	40718.30
544.32	41130.23
544.48	41464.93
544.65	41675.58
544.82	41270.67
544.99	41186.41
545.16	41050.66
545.32	40994.48
545.49	41633.45
545.66	41858.14
545.83	41294.07
546.00	42031.34
546.16	41469.61
546.33	41399.40
546.50	41827.71
546.67	41703.67
546.83	41209.81
547.00	41677.92
547.17	41656.85
547.34	41968.15
547.50	41986.87
547.67	42351.99
547.84	41982.19
548.00	42244.33
548.17	42504.13
548.34	41612.38
548.51	42501.79
548.67	42499.45
548.84	42328.59
549.01	41944.74
549.18	42405.83
549.34	42012.62
549.51	42717.12
549.68	42302.84
549.84	42469.02
550.01	42635.20
550.18	42143.69
550.34	42164.75
550.51	42389.44
550.68	42466.68
550.84	42433.91
551.01	42616.47
551.18	42480.72
551.34	42829.46
551.51	42665.63
551.68	42806.06
551.84	42967.55
552.01	42202.20
552.18	43140.75
552.34	42930.11
552.51	43145.44
552.68	42691.37
552.84	43250.76
553.01	43107.99
553.18	42937.13
553.34	42665.63
553.51	42534.56
553.67	42969.90
553.84	43292.89
554.01	43496.52
554.17	43253.10
554.34	43166.50
554.51	43175.86
554.67	43379.49
554.84	43360.76
555.00	42822.44
555.17	42990.96
555.33	43243.74
555.50	43309.27
555.67	43278.85
555.83	43522.26
556.00	43454.39
556.16	43945.90
556.33	43473.11
556.50	43578.43
556.66	43643.97
556.83	43339.70
556.99	43976.33
557.16	43716.53
557.32	43445.02
557.49	43634.61
557.65	43468.43
557.82	43208.63
557.98	43777.38
558.15	43856.96
558.32	43786.74
558.48	43461.41
558.65	43903.77
558.81	43655.67
558.98	43971.64
559.14	43859.30
559.31	44032.50
559.47	43440.34
559.64	43899.09
559.80	44079.31
559.97	43800.79
560.13	43976.33
560.30	43695.46
560.46	44154.21
560.63	44332.09
560.79	43854.62
560.96	44353.15
561.12	44020.80
561.29	44002.07
561.45	44041.86
561.61	44058.24
561.78	44184.63
561.94	44023.14
562.11	43817.17
562.27	43894.41
562.44	43948.24
562.60	44091.01
562.77	44252.51
562.93	44217.40
563.10	44509.97
563.26	44116.76
563.42	44062.93
563.59	43959.94
563.75	44264.21
563.92	44741.68
564.08	44048.88
564.24	44800.19
564.41	44502.95
564.57	44561.46
564.74	44509.97
564.90	44381.24
565.07	44069.95
565.23	44259.53
565.39	44446.77
565.56	44804.88
565.72	44320.38
565.88	44790.83
566.05	44479.54
566.21	44467.84
566.38	44020.80
566.54	44547.42
566.70	44591.89
566.87	44762.75
567.03	44648.06
567.19	44800.19
567.36	44978.07
567.52	44392.94
567.68	44671.46
567.85	44437.41
568.01	44573.16
568.17	44779.13
568.34	44802.53
568.50	44240.81
568.66	44465.50
568.83	44701.89
568.99	44229.10
569.15	44690.19
569.32	44907.86
569.48	44542.74
569.64	44741.68
569.81	44711.25
569.97	44364.85
570.13	44673.81
570.30	44673.81
570.46	44219.74
570.62	44385.92
570.78	44673.81
570.95	44573.16
571.11	44884.45
571.27	44561.46
571.43	44603.59
571.60	45085.74
571.76	44832.96
571.92	44531.03
572.09	44828.28
572.25	44734.66
572.41	44849.35
572.57	45272.98
572.74	45354.90
572.90	45272.98
573.06	44645.72
573.22	45212.13
573.38	45097.44
573.55	44697.21
573.71	44868.07
573.87	44671.46
574.03	44502.95
574.20	44835.30
574.36	45027.23
574.52	44947.65
574.68	45022.54
574.84	45045.95
575.01	44479.54
575.17	44423.37
575.33	44748.70
575.49	45029.57
575.65	44994.46
575.82	45336.18
575.98	44781.47
576.14	45205.11
576.30	44940.63
576.46	44788.49
576.62	44748.70
576.79	44535.71
576.95	44610.61
577.11	44713.59
577.27	45118.51
577.43	45186.38
577.59	44856.37
577.75	44865.73
577.92	44528.69
578.08	44528.69
578.24	44748.70
578.40	44821.26
578.56	45022.54
578.72	45336.18
578.88	45078.72
579.04	44842.32
579.21	44886.79
579.37	45137.23
579.53	44863.39
579.69	44678.49
579.85	44889.13
580.01	45195.74
580.17	45031.91
580.33	45635.77
580.49	44722.96
580.65	45155.96
580.82	45368.94
580.98	44924.24
581.14	44542.74
581.30	45263.62
581.46	44924.24
581.62	45277.66
581.78	45184.04
581.94	45174.68
582.10	45352.56
582.26	45282.34
582.42	45324.47
582.58	45209.79
582.74	45249.58
582.90	45090.42
583.06	45397.03
583.22	45427.46
583.38	45741.09
583.54	45579.59
583.70	45258.94
583.86	45139.57
584.02	44928.92
584.18	45294.05
584.34	45303.41
584.50	45261.28
584.66	45336.18
584.82	44891.48
584.98	45535.12
585.14	45193.40
585.30	45420.44
585.46	45385.33
585.62	45186.38
585.78	44772.11
585.94	44811.90
586.10	44914.88
586.26	45067.02
586.42	44933.60
586.58	45715.34
586.74	45635.77
586.90	45006.16
587.06	44978.07
587.22	45104.46
587.38	44800.19
587.54	45221.49
587.70	45593.64
587.86	45247.24
588.02	45649.81
588.18	45525.76
588.34	45387.67
588.49	45200.43
588.65	44947.65
588.81	44753.38
588.97	45174.68
589.13	45099.78
589.29	44882.11
589.45	45188.72
589.61	45085.74
589.77	45392.35
589.93	45411.07
590.08	45441.50
590.24	45081.06
590.40	45291.71
590.56	45687.26
590.72	45162.98
590.88	45209.79
591.04	45226.17
591.20	45282.34
591.35	45270.64
591.51	45666.19
591.67	45879.18
591.83	45179.36
591.99	45235.53
592.15	45223.83
592.31	45385.33
592.46	45682.58
592.62	45483.63
592.78	45834.71
592.94	45656.83
593.10	45762.15
593.26	45488.31
593.41	45399.37
593.57	45698.96
593.73	45212.13
593.89	45647.47
594.05	45420.44
594.20	45027.23
594.36	45537.46
594.52	45488.31
594.68	45319.79
594.84	45390.01
594.99	45509.38
595.15	45139.57
595.31	45270.64
595.47	45209.79
595.62	45116.17
595.78	45642.79
595.94	45801.94
596.10	45563.21
596.25	45537.46
596.41	45862.80
596.57	45638.11
596.73	46188.13
596.88	45345.54
597.04	45546.82
597.20	45745.77
597.36	45429.80
597.51	45839.39
597.67	45696.62
597.83	45745.77
597.99	46160.05
598.14	45375.97
598.30	45392.35
598.46	45272.98
598.61	45375.97
598.77	45057.65
598.93	45633.42
599.09	45708.32
599.24	45928.33
599.40	45839.39
599.56	45996.21
599.71	45375.97
599.87	45823.01
600.03	45916.63
600.18	45736.41
600.34	45764.49
600.50	45825.35
600.65	45497.67
600.81	45635.77
600.97	45855.78
601.12	45993.87
601.28	45338.52
601.44	45357.24
601.59	45434.48
601.75	45188.72
601.91	45275.32
602.06	45099.78
602.22	45357.24
602.37	45574.91
602.53	45610.02
602.69	45904.93
602.84	45675.55
603.00	45390.01
603.16	45841.73
603.31	45408.73
603.47	45387.67
603.62	45546.82
603.78	45731.73
603.94	45530.44
604.09	45970.46
604.25	45537.46
604.40	45801.94
604.56	45581.93
604.71	45675.55
604.87	45874.50
605.03	45481.29
605.18	45357.24
605.34	45490.65
605.49	45256.60
605.65	45408.73
605.80	45441.50
605.96	45507.04
606.12	45411.07
606.27	45619.38
606.43	46000.89
606.58	45179.36
606.74	45074.04
606.89	45441.50
607.05	45322.13
607.20	45038.93
607.36	45705.98
607.51	45701.30
607.67	45532.78
607.82	45345.54
607.98	45233.19
608.13	45167.66
608.29	45118.51
608.44	45017.86
608.60	44725.30
608.75	45109.14
608.91	44900.84
609.06	45057.65
609.22	45331.50
609.37	44765.09
609.53	45022.54
609.68	45476.61
609.84	45333.84
609.99	45095.10
610.15	44809.56
610.30	45055.31
610.46	45041.27
610.61	44842.32
610.76	44910.20
610.92	44783.81
611.07	45069.36
611.23	44779.13
611.38	44933.60
611.54	44858.71
611.69	45191.06
611.84	44807.22
612.00	44919.56
612.15	44985.10
612.31	45216.81
612.46	44877.43
612.62	44765.09
612.77	44589.55
612.92	44753.38
613.08	44779.13
613.23	45104.46
613.39	44484.22
613.54	44406.98
613.69	44514.65
613.85	44961.69
614.00	44526.35
614.15	44624.65
614.31	44531.03
614.46	45029.57
614.62	44526.35
614.77	44442.09
614.92	44949.99
615.08	44388.26
615.23	44360.17
615.38	44210.38
615.54	44086.33
615.69	43952.92
615.84	43990.37
616.00	44105.06
616.15	43957.60
616.30	44341.45
616.46	43959.94
616.61	43840.57
616.76	44086.33
616.92	44016.11
617.07	43831.21
617.22	43840.57
617.37	44250.17
617.53	44318.04
617.68	44442.09
617.83	44018.46
617.99	44292.30
618.14	44081.65
618.29	43969.30
618.45	43964.62
618.60	44060.58
618.75	43943.56
618.90	44058.24
619.06	43842.92
619.21	43686.10
619.36	44626.99
619.51	44224.42
619.67	43540.99
619.82	43753.97
619.97	44002.07
620.12	43393.53
620.28	43313.95
620.43	43395.87
620.58	43849.94
620.73	43650.99
620.89	43426.30
621.04	43297.57
621.19	43564.39
621.34	43793.76
621.49	43419.28
621.65	43414.60
621.80	43796.10
621.95	43447.36
622.10	43302.25
622.25	42895.00
622.41	43185.22
622.56	43208.63
622.71	43646.31
622.86	43370.13
623.01	43859.30
623.16	43332.68
623.32	43658.01
623.47	43573.75
623.62	43260.12
623.77	43363.11
623.92	43189.91
624.07	43079.90
624.23	42777.97
624.38	42883.30
624.53	43005.00
624.68	43194.59
624.83	43569.07
624.98	42712.44
625.13	43033.09
625.29	43030.75
625.44	43023.73
625.59	42415.19
625.74	42337.95
625.89	42543.92
626.04	42630.52
626.19	42754.57
626.34	42871.59
626.49	42447.96
626.65	42342.63
626.80	42555.62
626.95	42522.85
627.10	42211.56
627.25	42241.99
627.40	41846.44
627.55	42073.47
627.70	41907.29
627.85	42143.69
628.00	42356.67
628.15	42623.50
628.30	42410.51
628.45	42539.24
628.60	42197.52
628.76	42321.57
628.91	42422.21
629.06	41942.40
629.21	42122.62
629.36	42340.29
629.51	42045.38
629.66	41827.71
629.81	42139.00
629.96	41909.63
630.11	42115.60
630.26	41631.11
630.41	41963.46
630.56	41619.41
630.71	41771.54
630.86	41909.63
631.01	41621.75
631.16	41577.28
631.31	41462.59
631.46	41111.51
631.61	41677.92
631.76	41961.12
631.91	41640.47
632.06	41600.68
632.21	41591.32
632.36	41956.44
632.51	41841.76
632.66	41605.36
632.81	41022.57
632.96	41397.06
633.10	41310.46
633.25	40985.12
633.40	41397.06
633.55	41544.51
633.70	41577.28
633.85	41553.87
634.00	41214.49
634.15	41546.85
634.30	41200.45
634.45	40942.99
634.60	40966.40
634.75	41422.80
634.90	41045.97
635.05	41352.58
635.19	41006.19
635.34	41804.31
635.49	40910.22
635.64	41137.26
635.79	40975.76
635.94	41104.49
636.09	41336.20
636.24	40788.52
636.39	40589.57
636.53	40870.43
636.68	40664.47
636.83	40502.97
636.98	40870.43
637.13	40528.72
637.28	40746.39
637.43	41045.97
637.57	40760.43
637.72	40842.35
637.87	41242.58
638.02	40552.12
638.17	40673.83
638.32	40870.43
638.46	40488.93
638.61	40650.42
638.76	40538.08
638.91	40730.00
639.06	40250.19
639.20	40282.96
639.35	41102.15
639.50	40889.16
639.65	40837.67
639.80	40402.33
639.94	40088.70
640.09	40364.88
640.24	40329.77
640.39	40137.85
640.54	39981.03
640.68	40109.76
640.83	40421.05
640.98	40540.42
641.13	40112.10
641.27	40079.33
641.42	40404.67
641.57	40240.83
641.72	40182.32
641.86	39756.34
642.01	39742.30
642.16	39997.41
642.31	39311.64
642.45	39648.68
642.60	39292.91
642.75	39372.49
642.90	39665.06
643.04	39735.27
643.19	39681.44
643.34	39704.85
643.48	39594.84
643.63	39922.52
643.78	39330.36
643.93	39613.57
644.07	39728.25
644.22	39580.80
644.37	39316.32
644.51	39480.16
644.66	39831.24
644.81	39393.56
644.95	39323.34
645.10	39524.63
645.25	39833.58
645.39	39566.76
645.54	39861.66
645.69	39021.41
645.83	39503.56
645.98	39395.90
646.13	39225.04
646.27	39330.36
646.42	39229.72
646.57	39555.05
646.71	39194.61
646.86	38981.62
647.00	39323.34
647.15	39426.32
647.30	39461.43
647.44	39063.54
647.59	38892.68
647.74	39342.06
647.88	38857.57
648.03	38569.69
648.17	38864.60
648.32	38646.93
648.47	38796.72
648.61	39201.63
648.76	39435.69
648.90	39145.46
649.05	38923.11
649.20	38885.66
649.34	38770.97
649.49	38274.78
649.63	38941.83
649.78	38782.68
649.92	38644.59
650.07	38518.20
650.21	38202.22
650.36	38548.62
650.51	38492.45
650.65	38667.99
650.80	39262.49
650.94	38838.85
651.09	38452.66
651.23	38359.04
651.38	38422.23
651.52	38157.75
651.67	38471.39
651.81	38082.86
651.96	38347.34
652.10	38127.33
652.25	38071.15
652.39	38024.34
652.54	37919.02
652.68	38490.11
652.83	38120.31
652.97	38230.31
653.12	38167.12
653.26	38080.52
653.41	38239.67
653.55	37748.16
653.70	38071.15
653.84	37806.67
653.99	38391.81
654.13	37535.17
654.27	37560.92
654.42	37497.72
654.56	37720.07
654.71	37832.42
654.85	37694.33
655.00	37621.77
655.14	37401.76
655.29	37212.18
655.43	37528.15
655.57	37205.16
655.72	37401.76
655.86	37701.35
656.01	37088.13
656.15	37432.19
656.30	37385.38
656.44	37563.26
656.58	37289.42
656.73	37132.60
656.87	37003.87
657.01	37205.16
657.16	36830.67
657.30	36912.59
657.45	37139.62
657.59	36781.52
657.73	36627.04
657.88	37240.26
658.02	37071.75
658.16	36870.46
658.31	37139.62
658.45	37359.63
658.60	37205.16
658.74	36978.12
658.88	36643.43
659.03	36690.24
659.17	36718.32
659.31	36737.05
659.46	36662.15
659.60	36655.13
659.74	36051.27
659.89	36465.55
660.03	36685.56
660.17	36589.59
660.32	36432.78
660.46	36821.31
660.60	36439.80
660.74	36512.36
660.89	36940.68
661.03	36353.20
661.17	36268.94
661.32	35817.22
661.46	36526.40
661.60	36182.34
661.74	36168.30
661.89	36194.04
662.03	36144.89
662.17	35948.29
662.31	35922.54
662.46	35981.06
662.60	36098.08
662.74	35756.36
662.88	35585.50
663.03	35438.05
663.17	35470.82
663.31	35260.17
663.45	35491.88
663.60	35110.38
663.74	35150.17
663.88	35311.66
664.02	35388.90
664.17	35756.36
664.31	35204.00
664.45	34939.52
664.59	35007.39
664.73	34866.96
664.88	34859.94
665.02	34841.21
665.16	34895.05
665.30	34644.61
665.44	34644.61
665.59	34733.55
665.73	34508.86
665.87	35065.91
666.01	34696.10
666.15	34796.74
666.29	34700.78
666.44	34686.74
666.58	34370.77
666.72	34174.16
666.86	34227.99
667.00	34274.80
667.14	34101.61
667.28	34209.27
667.43	34209.27
667.57	34375.45
667.71	34345.02
667.85	34017.35
667.99	33446.26
668.13	33621.80
668.27	33769.25
668.41	33757.55
668.56	33692.01
668.70	33663.93
668.84	33462.64
668.98	33598.39
669.12	33656.90
669.26	33600.73
669.40	33324.55
669.54	33315.19
669.68	33441.57
669.82	33315.19
669.96	33181.77
670.10	33310.50
670.25	32947.72
670.39	33106.88
670.53	32701.96
670.67	32767.50
670.81	33022.62
670.95	32790.91
671.09	32783.88
671.23	32629.41
671.37	32893.89
671.51	32863.46
671.65	32617.71
671.79	32414.08
671.93	32416.42
672.07	32416.42
672.21	32378.97
672.35	31899.16
672.49	32315.78
672.63	32463.23
672.77	32329.82
672.91	32161.30
673.05	31866.39
673.19	31604.25
673.33	31798.52
673.47	31651.06
673.61	31438.08
673.75	31014.44
673.89	31386.58
674.03	31150.19
674.17	31503.61
674.31	31236.79
674.45	31063.59
674.59	31323.39
674.73	31173.60
674.87	31325.73
675.01	31349.14
675.15	31122.10
675.29	30817.83
675.43	30635.27
675.56	30525.27
675.70	31051.89
675.84	31084.65
675.98	29544.58
676.12	30286.53
676.26	30370.79
676.40	30202.27
676.54	30169.51
676.68	30033.75
676.82	29504.79
676.96	29736.51
677.10	29560.97
677.23	29624.16
677.37	29457.98
677.51	29816.08
677.65	29303.51
677.79	29497.77
677.93	29387.77
678.07	28882.21
678.21	29111.58
678.34	28755.82
678.48	28423.47
678.62	28638.80
678.76	28514.75
678.90	28168.35
679.04	28936.04
679.18	28535.81
679.31	28479.64
679.45	28112.17
679.59	28297.08
679.73	28093.45
679.87	27852.38
680.00	28219.84
680.14	27440.44
680.28	27894.50
680.42	27852.38
680.56	27714.28
680.70	27487.25
680.83	27433.42
680.97	27297.67
681.11	27304.69
681.25	26859.99
681.39	27206.39
681.52	26939.57
681.66	27288.31
681.80	26705.51
681.94	26670.40
682.07	26698.49
682.21	26508.91
682.35	26398.90
682.49	26614.23
682.62	26178.89
682.76	26370.82
682.90	25792.70
683.04	25781.00
683.17	25778.66
683.31	25825.47
683.45	25970.58
683.59	25750.57
683.72	25757.60
683.86	25570.35
684.00	25523.54
684.13	25645.25
684.27	25406.52
684.41	25298.85
684.55	25165.44
684.68	25001.60
684.82	25076.50
684.96	24645.84
685.09	24746.48
685.23	24877.55
685.37	24599.03
685.50	24542.86
685.64	24847.13
685.78	24643.50
685.91	24793.29
686.05	24067.73
686.19	24027.94
686.32	24098.16
686.46	23695.58
686.60	23683.88
686.73	23695.58
686.87	23571.54
687.01	23304.71
687.14	23433.44
687.28	23403.02
687.42	23489.62
687.55	23183.01
687.69	23377.27
687.82	22888.10
687.96	23236.84
688.10	22934.91
688.23	22658.73
688.37	22726.60
688.50	22677.45
688.64	22700.86
688.78	22534.68
688.91	22078.27
689.05	22331.05
689.18	22008.06
689.32	21965.93
689.46	21865.28
689.59	22293.60
689.73	21919.12
689.86	21668.68
690.00	21879.33
690.13	22094.66
690.27	21694.43
690.41	21776.34
690.54	21348.03
690.68	21261.43
690.81	21387.82
690.95	21537.61
691.08	21025.03
691.22	21116.31
691.35	21172.49
691.49	21081.21
691.62	20966.52
691.76	21022.69
691.89	20926.73
692.03	20842.47
692.16	20421.17
692.30	20587.35
692.43	20524.16
692.57	20386.07
692.70	20355.64
692.84	20465.64
692.97	20259.68
693.11	20034.99
693.24	19777.53
693.38	19826.68
693.51	19777.53
693.65	19859.45
693.78	20046.69
693.92	19609.01
694.05	19587.94
694.19	19344.53
694.32	19482.62
694.45	19110.47
694.59	18888.12
694.72	19154.94
694.86	18920.89
694.99	18642.37
695.13	18614.28
695.26	18831.95
695.39	18366.18
695.53	18590.88
695.66	18415.34
695.80	18377.89
695.93	18656.41
696.07	18396.61
696.20	18253.84
696.33	18090.00
696.47	18106.38
696.60	17877.01
696.73	17965.95
696.87	18057.23
697.00	17792.75
697.14	17748.28
697.27	17874.67
697.40	17729.56
697.54	17326.99
697.67	17544.66
697.80	17427.63
697.94	17104.64
698.07	17198.26
698.21	17209.96
698.34	17069.53
698.47	17046.12
698.61	16833.13
698.74	16566.31
698.87	16765.26
699.01	16456.31
699.14	16421.20
699.27	16315.87
699.40	16322.90
699.54	16182.46
699.67	16126.29
699.80	16070.12
699.94	16058.42
700.07	16383.75
700.20	16063.10
700.34	16013.95
700.47	15845.43
700.60	15950.75
700.73	15847.77
700.87	15922.66
701.00	15475.62
701.13	15527.11
701.26	15494.35
701.40	15571.58
701.53	15360.94
701.66	15398.38
701.79	15211.14
701.93	15276.68
702.06	15129.22
702.19	15002.83
702.32	15019.22
702.46	14857.72
702.59	14909.21
702.72	14691.54
702.85	14691.54
702.99	14794.53
703.12	14717.29
703.25	14794.53
703.38	14361.53
703.51	14394.29
703.65	14546.43
703.78	14398.98
703.91	14160.24
704.04	14455.15
704.17	14040.87
704.31	14083.00
704.44	13500.21
704.57	13916.83
704.70	13685.11
704.83	13720.22
704.96	13874.70
705.10	13708.52
705.23	13776.39
>>>>>End Processed Spectral Data<<<<<
