SpectraSuite Data File
++++++++++++++++++++++++++++++++++++
Date: Fri Oct 25 10:47:48 EDT 2013
User: price-jones
Dark Spectrum Present: No
Reference Spectrum Present: No
Number of Sampled Component Spectra: 1
Spectrometers: USB2+H05261
Integration Time (usec): 100000 (USB2+H05261)
Spectra Averaged: 1 (USB2+H05261)
Boxcar Smoothing: 0 (USB2+H05261)
Correct for Electrical Dark: No (USB2+H05261)
Strobe/Lamp Enabled: No (USB2+H05261)
Correct for Detector Non-linearity: No (USB2+H05261)
Correct for Stray Light: No (USB2+H05261)
Number of Pixels in Processed Spectrum: 2048
>>>>>Begin Processed Spectral Data<<<<<
365.73	201.29
365.92	201.29
366.12	201.29
366.32	53.83
366.52	46.81
366.72	147.45
366.91	49.15
367.11	60.85
367.31	0.00
367.51	7.02
367.70	18.72
367.90	21.06
368.10	30.43
368.30	60.85
368.49	42.13
368.69	65.54
368.89	18.72
369.09	53.83
369.28	60.85
369.48	79.58
369.68	70.22
369.87	177.88
370.07	175.54
370.27	142.77
370.47	201.29
370.66	332.36
370.86	414.27
371.06	470.45
371.25	449.38
371.45	484.49
371.65	440.02
371.84	416.62
372.04	411.93
372.24	456.40
372.44	514.92
372.63	510.24
372.83	524.28
373.03	451.72
373.22	442.36
373.42	468.11
373.62	533.64
373.81	472.79
374.01	528.96
374.21	465.77
374.40	540.66
374.60	521.94
374.79	571.09
374.99	557.05
375.19	596.84
375.38	557.05
375.58	643.65
375.78	564.07
375.97	594.50
376.17	683.44
376.37	643.65
376.56	533.64
376.76	552.37
376.95	554.71
377.15	704.50
377.35	648.33
377.54	571.09
377.74	524.28
377.93	615.56
378.13	648.33
378.33	648.33
378.52	587.47
378.72	575.77
378.91	636.63
379.11	599.18
379.31	596.84
379.50	615.56
379.70	587.47
379.89	676.41
380.09	645.99
380.28	648.33
380.48	716.20
380.68	636.63
380.87	613.22
381.07	690.46
381.26	601.52
381.46	634.29
381.65	643.65
381.85	624.92
382.04	674.07
382.24	695.14
382.43	627.26
382.63	683.44
382.83	713.86
383.02	746.63
383.22	699.82
383.41	732.59
383.61	699.82
383.80	716.20
384.00	716.20
384.19	690.46
384.39	767.70
384.58	779.40
384.78	802.80
384.97	741.95
385.17	807.48
385.36	802.80
385.56	779.40
385.75	763.01
385.95	734.93
386.14	777.06
386.34	770.04
386.53	847.27
386.72	755.99
386.92	837.91
387.11	821.53
387.31	877.70
387.50	760.67
387.70	868.34
387.89	891.74
388.09	791.10
388.28	814.51
388.48	781.74
388.67	887.06
388.86	844.93
389.06	875.36
389.25	954.94
389.45	945.58
389.64	884.72
389.84	997.07
390.03	994.73
390.22	891.74
390.42	805.14
390.61	947.92
390.81	898.77
391.00	894.08
391.19	983.02
391.39	973.66
391.58	912.81
391.78	908.13
391.97	999.41
392.16	976.00
392.36	1041.54
392.55	1081.33
392.75	933.87
392.94	1004.09
393.13	954.94
393.33	938.55
393.52	997.07
393.71	1034.52
393.91	1064.94
394.10	1093.03
394.29	1064.94
394.49	1102.39
394.68	1039.20
394.88	1088.35
395.07	1156.22
395.26	1116.44
395.46	1083.67
395.65	1071.97
395.84	1123.46
396.04	1132.82
396.23	1128.14
396.42	1123.46
396.62	1139.84
396.81	1158.57
397.00	1123.46
397.19	1179.63
397.39	1263.89
397.58	1270.91
397.77	1191.33
397.97	1259.21
398.16	1214.74
398.35	1308.36
398.55	1184.31
398.74	1266.23
398.93	1313.04
399.12	1324.74
399.32	1390.28
399.51	1294.32
399.70	1315.38
399.90	1299.00
400.09	1406.66
400.28	1493.26
400.47	1362.19
400.67	1458.15
400.86	1495.60
401.05	1500.28
401.24	1519.01
401.44	1502.62
401.63	1497.94
401.82	1467.52
402.01	1504.96
402.21	1481.56
402.40	1516.67
402.59	1514.33
402.78	1500.28
402.97	1650.08
403.17	1544.75
403.36	1610.29
403.55	1568.16
403.74	1664.12
403.93	1612.63
404.13	1750.72
404.32	1661.78
404.51	1631.35
404.70	1750.72
404.89	1685.19
405.09	1687.53
405.28	1694.55
405.47	1762.42
405.66	1856.04
405.85	1820.94
406.05	1696.89
406.24	1694.55
406.43	1795.19
406.62	1813.92
406.81	1949.67
407.00	1886.47
407.20	1746.04
407.39	1732.00
407.58	1813.92
407.77	2092.44
407.96	1860.73
408.15	2064.35
408.34	1912.22
408.54	1902.86
408.73	1837.32
408.92	2047.97
409.11	2047.97
409.30	2139.25
409.49	1959.03
409.68	1977.75
409.87	2001.16
410.07	2150.95
410.26	2069.03
410.45	2090.10
410.64	2223.51
410.83	2181.38
411.02	2246.91
411.21	2263.30
411.40	2289.04
411.59	2300.75
411.78	2289.04
411.98	2335.85
412.17	2356.92
412.36	2324.15
412.55	2427.14
412.74	2413.09
412.93	2516.08
413.12	2452.88
413.31	2537.14
413.50	2410.75
413.69	2527.78
413.88	2626.08
414.07	2502.03
414.26	2616.72
414.45	2626.08
414.64	2569.91
414.83	2665.87
415.02	2658.85
415.22	2726.72
415.41	2743.11
415.60	2799.28
415.79	2829.71
415.98	2764.17
416.17	2789.92
416.36	2825.03
416.55	2876.52
416.74	2979.50
416.93	2916.31
417.12	2942.05
417.31	2923.33
417.50	3021.63
417.69	3082.49
417.88	3157.38
418.07	3000.57
418.26	2902.26
418.45	3124.62
418.64	3370.37
418.83	3276.75
419.02	3122.27
419.21	3255.69
419.39	3169.09
419.58	3028.65
419.77	3232.28
419.96	3227.60
420.15	3185.47
420.34	3197.17
420.53	3251.00
420.72	3466.33
420.91	3316.54
421.10	3386.76
421.29	3489.74
421.48	3379.73
421.67	3515.48
421.86	3405.48
422.05	3389.10
422.24	3393.78
422.43	3445.27
422.61	3471.01
422.80	3517.83
422.99	3382.07
423.18	3609.11
423.37	3667.62
423.56	3571.66
423.75	3559.95
423.94	3482.72
424.13	3372.71
424.32	3330.58
424.50	3461.65
424.69	3604.42
424.88	3562.30
425.07	3581.02
425.26	3382.07
425.45	3634.85
425.64	3557.61
425.83	3515.48
426.01	3606.77
426.20	3571.66
426.39	3641.87
426.58	3499.10
426.77	3630.17
426.96	3515.48
427.15	3632.51
427.33	3555.27
427.52	3665.28
427.71	3707.41
427.90	3824.44
428.09	3726.13
428.28	3728.47
428.46	3786.99
428.65	3665.28
428.84	3735.50
429.03	3922.74
429.22	3700.39
429.40	3801.03
429.59	3691.02
429.78	3761.24
429.97	3625.49
430.16	3740.18
430.34	3747.20
430.53	3904.01
430.72	3831.46
430.91	3845.50
431.10	3936.78
431.28	4049.13
431.47	4187.22
431.66	4112.32
431.85	4257.43
432.03	4170.83
432.22	4269.14
432.41	4201.26
432.60	4308.93
432.79	4241.05
432.97	4145.09
433.16	4278.50
433.35	4154.45
433.54	4177.86
433.72	4236.37
433.91	4278.50
434.10	4227.01
434.28	4215.30
434.47	4367.44
434.66	4416.59
434.85	4390.84
435.03	4470.42
435.22	4620.22
435.41	4652.98
435.59	4512.55
435.78	4660.01
435.97	4568.73
436.16	4540.64
436.34	4678.73
436.53	4676.39
436.72	4802.78
436.90	4699.80
437.09	4638.94
437.28	4589.79
437.46	4854.27
437.65	4667.03
437.84	4755.97
438.02	4650.64
438.21	4613.20
438.40	4835.55
438.58	4748.95
438.77	4917.47
438.96	5015.77
439.14	4978.32
439.33	5074.28
439.52	5081.30
439.70	5195.99
439.89	4983.00
440.08	5193.65
440.26	5107.05
440.45	5027.47
440.63	5322.38
440.82	5479.19
441.01	5284.93
441.19	5439.40
441.38	5591.54
441.57	5394.93
441.75	5565.79
441.94	5528.35
442.12	5472.17
442.31	5657.07
442.50	5511.96
442.68	5596.22
442.87	5631.33
443.05	5591.54
443.24	5680.48
443.43	5706.23
443.61	5886.45
443.80	5989.43
443.98	5591.54
444.17	5565.79
444.35	5989.43
444.54	6127.52
444.73	5806.87
444.91	5818.57
445.10	5874.74
445.28	5797.51
445.47	5650.05
445.65	5818.57
445.84	5781.12
446.02	5982.41
446.21	5963.68
446.39	5785.80
446.58	5942.62
446.77	6010.50
446.95	5937.94
447.14	6061.99
447.32	6179.01
447.51	6001.13
447.69	6024.54
447.88	5930.92
448.06	5839.64
448.25	5951.98
448.43	5991.77
448.62	6129.86
448.80	6085.39
448.99	6169.65
449.17	6164.97
449.36	6258.59
449.54	6375.62
449.73	6207.10
449.91	6427.11
450.10	6298.38
450.28	6443.49
450.46	6431.79
450.65	6359.24
450.83	6562.86
451.02	6331.15
451.20	6389.66
451.39	6527.75
451.57	6560.52
451.76	6340.51
451.94	6480.94
452.13	6497.33
452.31	6387.32
452.49	6396.68
452.68	6462.22
452.86	6471.58
453.05	6572.22
453.23	6558.18
453.42	6480.94
453.60	6579.25
453.78	6747.76
453.97	6623.72
454.15	6588.61
454.34	6555.84
454.52	6527.75
454.70	6715.00
454.89	6890.54
455.07	6855.43
455.26	6771.17
455.44	7009.90
455.62	6829.68
455.81	7187.79
455.99	7246.30
456.17	6998.20
456.36	7052.03
456.54	7133.95
456.73	7077.78
456.91	7426.52
457.09	7157.36
457.28	7370.35
457.46	7344.60
457.64	7232.26
457.83	7133.95
458.01	7131.61
458.19	7482.69
458.38	7281.41
458.56	7344.60
458.74	7368.01
458.93	7344.60
459.11	7379.71
459.29	7372.69
459.48	7492.05
459.66	7674.62
459.84	7522.48
460.03	7700.36
460.21	7637.17
460.39	7763.56
460.57	7644.19
460.76	7625.47
460.94	7728.45
461.12	7779.94
461.31	7880.58
461.49	7681.64
461.67	7775.26
461.85	7960.16
462.04	7873.56
462.22	8374.44
462.40	8114.64
462.59	8121.66
462.77	7964.84
462.95	7978.89
463.13	7983.57
463.32	8079.53
463.50	8114.64
463.68	8285.50
463.86	8280.82
464.05	8074.85
464.23	8030.38
464.41	8264.43
464.59	8049.10
464.78	8334.65
464.96	8301.88
465.14	8002.29
465.32	8322.94
465.50	8468.06
465.69	8435.29
465.87	8252.73
466.05	8315.92
466.23	8194.22
466.41	8231.66
466.60	8400.18
466.78	8322.94
466.96	8351.03
467.14	8432.95
467.32	8554.66
467.51	8667.00
467.69	8365.07
467.87	8589.77
468.05	8610.83
468.23	8510.19
468.41	8634.24
468.60	8638.92
468.78	8823.82
468.96	8652.96
469.14	8964.25
469.32	8898.72
469.50	8592.11
469.69	8901.06
469.87	8917.44
470.05	8952.55
470.23	8765.31
470.41	9156.18
470.59	8999.36
470.77	9025.11
470.95	9036.81
471.14	9172.56
471.32	9160.86
471.50	9305.97
471.68	9144.47
471.86	9324.69
472.04	9287.25
472.22	9399.59
472.40	9205.33
472.58	9181.92
472.77	9607.90
472.95	9528.32
473.13	9909.83
473.31	9764.72
473.49	9521.30
473.67	9635.99
473.85	9778.76
474.03	9837.27
474.21	9825.57
474.39	10068.98
474.57	9820.89
474.75	10183.67
474.93	10148.56
475.12	10001.11
475.30	10298.36
475.48	10073.67
475.66	10457.51
475.84	10118.14
476.02	10499.64
476.20	10600.29
476.38	10764.12
476.56	10794.55
476.74	10672.84
476.92	10614.33
477.10	10764.12
477.28	10892.85
477.46	11012.22
477.64	11147.97
477.82	11335.21
478.00	11222.87
478.18	11382.03
478.36	11555.22
478.54	11372.66
478.72	11782.26
478.90	11698.00
479.08	11920.35
479.26	11997.59
479.44	12095.89
479.62	11918.01
479.80	11967.16
479.98	12142.70
480.16	12336.96
480.34	12381.43
480.52	12657.62
480.70	12496.12
480.88	12203.55
481.06	12575.70
481.24	12809.75
481.41	12807.41
481.59	13156.15
481.77	13282.54
481.95	13135.09
482.13	13317.65
482.31	13284.88
482.49	13467.44
482.67	13502.55
482.85	13401.91
483.03	13647.66
483.21	13776.39
483.39	14078.32
483.57	13879.38
483.74	14207.05
483.92	14319.40
484.10	14324.08
484.28	14597.92
484.46	14822.61
484.64	14991.13
484.82	14848.36
485.00	14932.62
485.18	15091.77
485.35	15068.37
485.53	14904.53
485.71	15105.82
485.89	15428.81
486.07	15342.21
486.25	15503.71
486.43	15625.42
486.61	15562.22
486.78	15950.75
486.96	16301.83
487.14	16238.64
487.32	16449.28
487.50	16409.50
487.68	16812.07
487.85	16943.14
488.03	17121.02
488.21	17039.10
488.39	17139.74
488.57	17226.34
488.75	17289.54
488.92	17638.28
489.10	17642.96
489.28	17717.86
489.46	17984.68
489.64	18108.72
489.81	18438.74
489.99	18431.72
490.17	18628.32
490.35	18635.35
490.53	18532.36
490.70	18679.82
490.88	18618.96
491.06	19206.44
491.24	19101.11
491.41	19314.10
491.59	19028.56
491.77	19112.81
491.95	19653.48
492.13	19798.59
492.30	19733.06
492.48	19971.79
492.66	19997.54
492.84	20063.07
493.01	20250.32
493.19	20365.00
493.37	20250.32
493.54	20725.44
493.72	20865.88
493.90	20744.17
494.08	21170.15
494.25	21303.56
494.43	21390.16
494.61	21551.65
494.79	22031.46
494.96	21668.68
495.14	21451.01
495.32	21968.27
495.49	21699.11
495.67	21923.80
495.85	22242.11
496.02	21947.20
496.20	22551.06
496.38	22614.26
496.55	22581.49
496.73	23274.29
496.91	23000.44
497.09	23094.07
497.26	23145.56
497.44	23044.91
497.62	23335.14
497.79	23447.49
497.97	23211.09
498.14	23421.74
498.32	23679.20
498.50	23585.58
498.67	24004.53
498.85	23908.57
499.03	24091.13
499.20	24119.22
499.38	24343.91
499.56	24912.66
499.73	24283.06
499.91	24409.45
500.08	24486.68
500.26	24524.13
500.44	24802.66
500.61	24603.71
500.79	24533.50
500.97	24720.74
501.14	25289.49
501.32	25205.23
501.49	25034.37
501.67	25287.15
501.84	25549.29
502.02	25432.26
502.20	25795.04
502.37	25944.84
502.55	25788.02
502.72	25846.54
502.90	26031.44
503.07	25970.58
503.25	26061.87
503.43	26092.29
503.60	26192.94
503.78	25998.67
503.95	26291.24
504.13	26672.74
504.30	26382.52
504.48	26338.05
504.65	26518.27
504.83	27297.67
505.01	27124.47
505.18	27021.48
505.36	27194.68
505.53	27150.21
505.71	27316.39
505.88	27410.01
506.06	27250.86
506.23	27592.58
506.41	27351.50
506.58	27723.65
506.76	27669.81
506.93	27796.20
507.11	27913.23
507.28	28161.33
507.46	27721.30
507.63	28137.92
507.81	28423.47
507.98	28067.70
508.16	28184.73
508.33	28584.96
508.50	28439.85
508.68	28421.13
508.85	28903.28
509.03	28861.15
509.20	28943.06
509.38	29266.06
509.55	29362.02
509.73	29039.03
509.90	29036.69
510.08	29249.67
510.25	29198.18
510.42	29544.58
510.60	29432.24
510.77	30038.44
510.95	29762.25
511.12	29724.80
511.30	29935.45
511.47	30085.25
511.64	30291.21
511.82	30092.27
511.99	30066.52
512.17	30380.15
512.34	30199.93
512.51	30504.20
512.69	30288.87
512.86	30698.47
513.04	30731.23
513.21	30639.95
513.38	30710.17
513.56	30335.68
513.73	30471.43
513.90	30888.05
514.08	30600.16
514.25	31007.42
514.43	31131.47
514.60	31117.42
514.77	31007.42
514.95	31248.49
515.12	31632.34
515.29	31388.92
515.47	31667.45
515.64	31772.77
515.81	31068.27
515.99	31604.25
516.16	31866.39
516.33	31784.48
516.51	32034.91
516.68	31461.48
516.85	31728.30
517.03	31962.36
517.20	31903.84
517.37	31924.91
517.54	32435.14
517.72	32016.19
517.89	31702.56
518.06	32006.83
518.24	31812.56
518.41	31885.12
518.58	32416.42
518.75	32294.71
518.93	32811.97
519.10	32826.01
519.27	32914.95
519.45	32985.17
519.62	33041.34
519.79	33237.95
519.96	33549.24
520.14	33359.66
520.31	33156.03
520.48	33717.76
520.65	33715.42
520.83	33701.37
521.00	33371.36
521.17	33677.97
521.34	33542.22
521.52	34253.74
521.69	34129.69
521.86	34022.03
522.03	34251.40
522.20	34155.44
522.38	34536.94
522.55	34504.18
522.72	34270.12
522.89	34307.57
523.07	34515.88
523.24	34579.07
523.41	34550.99
523.58	34773.34
523.75	34897.39
523.92	34878.66
524.10	35257.83
524.27	34787.38
524.44	35185.27
524.61	35164.21
524.78	35494.22
524.96	35543.38
525.13	35648.70
525.30	35042.50
525.47	35742.32
525.64	35723.60
525.81	35140.80
525.98	35501.25
526.16	35089.31
526.33	35414.65
526.50	35594.87
526.67	35112.72
526.84	35639.34
527.01	35564.44
527.18	35735.30
527.36	36086.38
527.53	36189.36
527.70	36545.12
527.87	36151.91
528.04	36067.66
528.21	35821.90
528.38	36273.62
528.55	36371.92
528.72	36395.33
528.89	36444.48
529.07	36282.98
529.24	36573.21
529.41	36886.84
529.58	36327.45
529.75	36463.21
529.92	37095.15
530.09	36797.90
530.26	37062.38
530.43	36814.29
530.60	37008.55
530.77	37240.26
530.94	37261.33
531.11	37092.81
531.28	37427.51
531.46	37291.76
531.63	37450.91
531.80	36828.33
531.97	37015.57
532.14	37315.16
532.31	37462.61
532.48	37312.82
532.65	37640.50
532.82	37596.03
532.99	37682.62
533.16	37380.70
533.33	37282.39
533.50	38237.33
533.67	38036.05
533.84	37752.84
534.01	38017.32
534.18	38003.28
534.35	38190.52
534.52	37937.74
534.69	37949.45
534.86	38139.03
535.03	38005.62
535.20	38712.46
535.37	38642.24
535.54	38857.57
535.71	37970.51
535.88	38464.36
536.05	38600.12
536.22	38728.84
536.38	38424.57
536.55	38288.82
536.72	38443.30
536.89	38429.26
537.06	38944.17
537.23	39133.76
537.40	38384.79
537.57	38480.75
537.74	38948.85
537.91	39021.41
538.08	38902.04
538.25	38899.70
538.42	39196.95
538.59	39126.74
538.75	38759.27
538.92	39608.89
539.09	39456.75
539.26	39065.88
539.43	39288.23
539.60	39138.44
539.77	39524.63
539.94	39480.16
540.11	39442.71
540.28	39491.86
540.44	39728.25
540.61	39379.51
540.78	39199.29
540.95	39466.11
541.12	39739.96
541.29	39690.80
541.46	39690.80
541.62	40025.50
541.79	40114.44
541.96	39557.39
542.13	39627.61
542.30	40091.04
542.47	40100.40
542.63	39941.24
542.80	39735.27
542.97	40362.54
543.14	41057.68
543.31	40357.86
543.48	40734.68
543.64	40781.49
543.81	40870.43
543.98	40488.93
544.15	40488.93
544.32	40980.44
544.48	40790.86
544.65	40854.05
544.82	41118.53
544.99	40683.19
545.16	41088.10
545.32	40589.57
545.49	41027.25
545.66	40919.59
545.83	40706.60
546.00	41118.53
546.16	41193.43
546.33	40931.29
546.50	40629.36
546.67	40982.78
546.83	41102.15
547.00	41036.61
547.17	41324.50
547.34	41111.51
547.50	41471.95
547.67	41415.78
547.84	41448.55
548.00	41640.47
548.17	41867.50
548.34	41574.94
548.51	41694.30
548.67	41593.66
548.84	41773.88
549.01	41628.77
549.18	41918.99
549.34	41933.04
549.51	42157.73
549.68	42050.06
549.84	42047.72
550.01	42155.39
550.18	41528.13
550.34	41797.29
550.51	42124.96
550.68	41893.25
550.84	42036.02
551.01	42300.50
551.18	42066.45
551.34	41958.78
551.51	42127.30
551.68	41659.20
551.84	42632.86
552.01	42391.78
552.18	42637.54
552.34	42506.47
552.51	42682.01
552.68	42026.66
552.84	42782.65
553.01	42548.60
553.18	42234.97
553.34	42457.32
553.51	42300.50
553.67	42073.47
553.84	42768.61
554.01	42979.26
554.17	42665.63
554.34	43068.20
554.51	42923.08
554.67	42983.94
554.84	43021.39
555.00	43093.94
555.17	42873.93
555.33	42719.46
555.50	43122.03
555.67	43084.58
555.83	42738.18
556.00	43281.19
556.16	43360.76
556.33	43154.80
556.50	43215.65
556.66	43412.26
556.83	43103.31
556.99	43208.63
557.16	43615.88
557.32	43171.18
557.49	43140.75
557.65	42834.14
557.82	43384.17
557.98	43166.50
558.15	43131.39
558.32	43271.82
558.48	43159.48
558.65	43311.61
558.81	43400.55
558.98	43227.35
559.14	43360.76
559.31	43777.38
559.47	43283.53
559.64	43578.43
559.80	43428.64
559.97	43681.42
560.13	43402.89
560.30	43374.81
560.46	43475.45
560.63	43522.26
560.79	43718.87
560.96	43901.43
561.12	43969.30
561.29	43845.26
561.45	43693.12
561.61	43524.60
561.78	43721.21
561.94	43517.58
562.11	43887.39
562.27	43622.90
562.44	43597.16
562.60	44006.75
562.77	44051.22
562.93	43880.36
563.10	43742.27
563.26	43718.87
563.42	43627.59
563.59	44128.46
563.75	43620.56
563.92	44177.61
564.08	44065.27
564.24	44245.49
564.41	44395.28
564.57	43658.01
564.74	44023.14
564.90	43863.98
565.07	44196.34
565.23	43578.43
565.39	43789.08
565.56	44140.16
565.72	44240.81
565.88	44210.38
566.05	43826.53
566.21	44013.77
566.38	43887.39
566.54	44191.65
566.70	44456.14
566.87	44704.23
567.03	44112.08
567.19	44786.15
567.36	44514.65
567.52	44289.96
567.68	44566.14
567.85	44088.67
568.01	44053.56
568.17	44437.41
568.34	44385.92
568.50	43899.09
568.66	44360.17
568.83	44261.87
568.99	43810.15
569.15	44336.77
569.32	44144.84
569.48	44158.89
569.64	44336.77
569.81	44641.04
569.97	44751.04
570.13	44154.21
570.30	43943.56
570.46	44135.48
570.62	44062.93
570.78	43985.69
570.95	44421.03
571.11	44814.24
571.27	44360.17
571.43	44729.98
571.60	44545.08
571.76	44250.17
571.92	44402.30
572.09	44395.28
572.25	44205.70
572.41	44577.84
572.57	44081.65
572.74	44772.11
572.90	44369.54
573.06	44278.25
573.22	44432.73
573.38	44514.65
573.55	44570.82
573.71	44334.43
573.87	44472.52
574.03	44294.64
574.20	44425.71
574.36	44802.53
574.52	44575.50
574.68	44671.46
574.84	44814.24
575.01	44563.80
575.17	44449.11
575.33	44554.44
575.49	44498.26
575.65	44793.17
575.82	44982.76
575.98	44423.37
576.14	44779.13
576.30	45057.65
576.46	44268.89
576.62	44374.22
576.79	44357.83
576.95	44465.50
577.11	44720.62
577.27	44854.03
577.43	44634.02
577.59	44858.71
577.75	44769.77
577.92	44617.63
578.08	44030.16
578.24	44355.49
578.40	44563.80
578.56	44657.42
578.72	45001.48
578.88	44830.62
579.04	44690.19
579.21	44844.66
579.37	44933.60
579.53	44662.10
579.69	43983.35
579.85	44769.77
580.01	44634.02
580.17	44676.15
580.33	44870.41
580.49	44580.18
580.65	44877.43
580.82	44673.81
580.98	44521.67
581.14	44573.16
581.30	44685.51
581.46	44692.53
581.62	44832.96
581.78	44626.99
581.94	45113.83
582.10	44559.12
582.26	44617.63
582.42	44463.16
582.58	44404.64
582.74	44144.84
582.90	44863.39
583.06	45020.20
583.22	45010.84
583.38	45209.79
583.54	44893.82
583.70	44626.99
583.86	44575.50
584.02	44514.65
584.18	44765.09
584.34	44694.87
584.50	44781.47
584.66	45076.38
584.82	44514.65
584.98	45120.85
585.14	44549.76
585.30	44839.98
585.46	44718.28
585.62	44554.44
585.78	44643.38
585.94	44254.85
586.10	44561.46
586.26	44626.99
586.42	44594.23
586.58	44968.71
586.74	45069.36
586.90	44847.00
587.06	44706.57
587.22	45069.36
587.38	44580.18
587.54	45118.51
587.70	44931.26
587.86	44905.52
588.02	44734.66
588.18	44832.96
588.34	44861.05
588.49	44493.58
588.65	44786.15
588.81	44367.20
588.97	44900.84
589.13	44652.74
589.29	44397.62
589.45	44650.40
589.61	44907.86
589.77	45263.62
589.93	45003.82
590.08	45303.41
590.24	45078.72
590.40	45287.03
590.56	45298.73
590.72	44758.06
590.88	44856.37
591.04	44863.39
591.20	45677.90
591.35	45158.30
591.51	45705.98
591.67	44776.79
591.83	45277.66
591.99	45099.78
592.15	44666.78
592.31	44706.57
592.46	44769.77
592.62	44790.83
592.78	45212.13
592.94	45198.09
593.10	45570.23
593.26	45200.43
593.41	45139.57
593.57	45055.31
593.73	44741.68
593.89	44994.46
594.05	44839.98
594.20	45343.20
594.36	45441.50
594.52	45029.57
594.68	45315.11
594.84	44975.73
594.99	45570.23
595.15	45102.12
595.31	45397.03
595.47	45539.80
595.62	45120.85
595.78	45125.53
595.94	45249.58
596.10	45549.17
596.25	45036.59
596.41	45446.18
596.57	45006.16
596.73	45043.61
596.88	45001.48
597.04	45212.13
597.20	44734.66
597.36	45048.29
597.51	45443.84
597.67	45181.70
597.83	45385.33
597.99	45481.29
598.14	44975.73
598.30	45020.20
598.46	45645.13
598.61	44919.56
598.77	45132.55
598.93	45240.21
599.09	44851.69
599.24	45462.57
599.40	45205.11
599.56	45134.89
599.71	45588.95
599.87	45605.34
600.03	45078.72
600.18	45284.68
600.34	45162.98
600.50	45453.20
600.65	44863.39
600.81	45420.44
600.97	45029.57
601.12	45429.80
601.28	45598.32
601.44	45134.89
601.59	45305.75
601.75	45099.78
601.91	45308.09
602.06	44708.91
602.22	44957.01
602.37	45198.09
602.53	45045.95
602.69	45579.59
602.84	45354.90
603.00	45251.92
603.16	45006.16
603.31	45350.22
603.47	45797.26
603.62	44928.92
603.78	45310.43
603.94	45399.37
604.09	45216.81
604.25	45251.92
604.40	45549.17
604.56	45177.02
604.71	45368.94
604.87	45284.68
605.03	44870.41
605.18	44959.35
605.34	45167.66
605.49	44786.15
605.65	45390.01
605.80	45118.51
605.96	45081.06
606.12	44931.26
606.27	45457.88
606.43	44739.34
606.58	45373.63
606.74	45095.10
606.89	45324.47
607.05	44954.67
607.20	44999.14
607.36	45167.66
607.51	45237.87
607.67	44954.67
607.82	45074.04
607.98	44683.17
608.13	44905.52
608.29	45024.89
608.44	45013.18
608.60	44341.45
608.75	44811.90
608.91	44697.21
609.06	44725.30
609.22	44957.01
609.37	44612.95
609.53	45017.86
609.68	44589.55
609.84	44910.20
609.99	44744.02
610.15	44615.29
610.30	44664.44
610.46	44619.97
610.61	44554.44
610.76	44725.30
610.92	44678.49
611.07	44191.65
611.23	44835.30
611.38	44554.44
611.54	44453.79
611.69	44577.84
611.84	44149.53
612.00	44348.47
612.15	44250.17
612.31	44882.11
612.46	44598.91
612.62	44612.95
612.77	44034.84
612.92	44942.97
613.08	44580.18
613.23	44779.13
613.39	44397.62
613.54	44444.43
613.69	44371.88
613.85	44142.50
614.00	44329.75
614.15	44346.13
614.31	44355.49
614.46	44800.19
614.62	44704.23
614.77	44051.22
614.92	44121.44
615.08	44201.02
615.23	43840.57
615.38	44046.54
615.54	43723.55
615.69	43878.02
615.84	43749.29
616.00	43938.88
616.15	44091.01
616.30	44334.43
616.46	43606.52
616.61	43920.15
616.76	44107.40
616.92	43751.63
617.07	43889.73
617.22	43688.44
617.37	43566.73
617.53	43903.77
617.68	44060.58
617.83	43957.60
617.99	43934.20
618.14	44044.20
618.29	44018.46
618.45	43604.18
618.60	43384.17
618.75	44013.77
618.90	43428.64
619.06	43332.68
619.21	44058.24
619.36	43426.30
619.51	43442.68
619.67	43384.17
619.82	43903.77
619.97	43702.48
620.12	43274.16
620.28	43126.71
620.43	43042.45
620.58	43606.52
620.73	43629.93
620.89	43117.35
621.04	43573.75
621.19	42909.04
621.34	43292.89
621.49	43138.41
621.65	43208.63
621.80	42799.04
621.95	42534.56
622.10	43138.41
622.25	43002.66
622.41	42843.51
622.56	42789.67
622.71	43330.34
622.86	43044.79
623.01	42808.40
623.16	43009.68
623.32	43253.10
623.47	43501.20
623.62	43522.26
623.77	42810.74
623.92	43063.52
624.07	42691.37
624.23	42740.52
624.38	42588.39
624.53	42731.16
624.68	42815.42
624.83	42738.18
624.98	42869.25
625.13	42644.56
625.29	42913.72
625.44	42387.10
625.59	42447.96
625.74	41989.21
625.89	42314.55
626.04	42188.16
626.19	42497.11
626.34	42471.36
626.49	42642.22
626.65	41923.68
626.80	42452.64
626.95	42260.71
627.10	42300.50
627.25	41581.96
627.40	42103.90
627.55	41596.00
627.70	41766.86
627.85	41928.36
628.00	41970.49
628.15	42267.73
628.30	42288.80
628.45	42256.03
628.60	42115.60
628.76	42253.69
628.91	42431.57
629.06	42298.16
629.21	42012.62
629.36	41230.88
629.51	41628.77
629.66	41888.57
629.81	41652.17
629.96	41493.02
630.11	41872.18
630.26	41528.13
630.41	41471.95
630.56	41720.05
630.71	41970.49
630.86	41593.66
631.01	41291.73
631.16	41640.47
631.31	41280.03
631.46	41151.30
631.61	41633.45
631.76	41535.15
631.91	41364.29
632.06	41521.10
632.21	41579.62
632.36	41738.77
632.51	41102.15
632.66	41336.20
632.81	40741.71
632.96	41392.37
633.10	40865.75
633.25	40868.09
633.40	41055.34
633.55	41455.57
633.70	41060.02
633.85	41022.57
634.00	40924.27
634.15	40823.62
634.30	40767.45
634.45	41390.03
634.60	40933.63
634.75	41223.86
634.90	41263.64
635.05	41067.04
635.19	40891.50
635.34	41207.47
635.49	40821.28
635.64	40109.76
635.79	40065.29
635.94	40676.17
636.09	40540.42
636.24	40790.86
636.39	40481.91
636.53	40662.13
636.68	40271.26
636.83	40399.99
636.98	40687.87
637.13	40449.14
637.28	40828.30
637.43	40659.79
637.57	40605.95
637.72	40589.57
637.87	40502.97
638.02	40502.97
638.17	40488.93
638.32	39735.27
638.46	40013.80
638.61	39943.58
638.76	40161.25
638.91	40208.06
639.06	40465.52
639.20	40268.92
639.35	40474.88
639.50	40350.84
639.65	40502.97
639.80	40231.47
639.94	39864.00
640.09	40179.98
640.24	39531.65
640.39	40009.12
640.54	39435.69
640.68	39632.29
640.83	39618.25
640.98	39496.54
641.13	40058.27
641.27	40329.77
641.42	39992.73
641.57	40224.45
641.72	40018.48
641.86	39447.39
642.01	39849.96
642.16	39669.74
642.31	39065.88
642.45	39260.15
642.60	39278.87
642.75	39618.25
642.90	39449.73
643.04	39330.36
643.19	39255.46
643.34	39381.85
643.48	39243.76
643.63	39667.40
643.78	39086.95
643.93	39463.77
644.07	38965.24
644.22	39075.24
644.37	39098.65
644.51	38958.22
644.66	39414.62
644.81	39009.71
644.95	39332.70
645.10	39178.23
645.25	39515.26
645.39	39241.42
645.54	39512.92
645.69	39187.59
645.83	38494.79
645.98	38909.07
646.13	39070.56
646.27	39012.05
646.42	38899.70
646.57	38637.56
646.71	38960.56
646.86	39065.88
647.00	38988.64
647.15	38932.47
647.30	39140.78
647.44	38766.29
647.59	39131.42
647.74	38506.49
647.88	38410.53
648.03	38366.06
648.17	38689.06
648.32	38391.81
648.47	38117.96
648.61	38499.47
648.76	38557.99
648.90	38188.18
649.05	38436.28
649.20	38485.43
649.34	38803.74
649.49	39012.05
649.63	37991.58
649.78	38675.01
649.92	38447.98
650.07	38541.60
650.21	38146.05
650.36	38546.28
650.51	38483.09
650.65	38691.40
650.80	38398.83
650.94	38429.26
651.09	38501.81
651.23	38134.35
651.38	37986.89
651.52	37956.47
651.67	38171.80
651.81	38099.24
651.96	37839.44
652.10	37993.92
652.25	37701.35
652.39	37954.13
652.54	37876.89
652.68	37748.16
652.83	37986.89
652.97	38284.14
653.12	37792.63
653.26	38085.20
653.41	37717.73
653.55	38040.73
653.70	37603.05
653.84	37919.02
653.99	38047.75
654.13	37422.83
654.27	37481.34
654.42	37844.12
654.56	37937.74
654.71	37614.75
654.85	37607.73
655.00	37806.67
655.14	37291.76
655.29	37209.84
655.43	37228.56
655.57	37184.09
655.72	36842.37
655.86	36849.39
656.01	37280.05
656.15	36652.79
656.30	37230.90
656.44	36774.50
656.58	36943.02
656.73	36807.26
656.87	36751.09
657.01	36973.44
657.16	36510.02
657.30	36727.69
657.45	36828.33
657.59	36708.96
657.73	36217.45
657.88	36882.16
658.02	36474.91
658.16	36795.56
658.31	36921.95
658.45	36842.37
658.60	36910.25
658.74	37062.38
658.88	36999.19
659.03	36205.75
659.17	36524.06
659.31	36172.98
659.46	36147.23
659.60	36240.86
659.74	36130.85
659.89	36130.85
660.03	36528.74
660.17	36711.30
660.32	36439.80
660.46	36175.32
660.60	36498.31
660.74	35950.63
660.89	36236.17
661.03	36037.23
661.17	35887.43
661.32	35646.36
661.46	35763.39
661.60	35810.20
661.74	35950.63
661.89	36006.80
662.03	35730.62
662.17	35908.50
662.31	35239.11
662.46	35838.28
662.60	35330.39
662.74	35667.42
662.88	35026.12
663.03	35140.80
663.17	35510.61
663.31	35615.93
663.45	35028.46
663.60	35051.86
663.74	35103.35
663.88	35262.51
664.02	34993.35
664.17	35140.80
664.31	34703.12
664.45	34902.07
664.59	35201.66
664.73	34866.96
664.88	34808.45
665.02	34548.65
665.16	34415.24
665.30	34752.27
665.44	34438.64
665.59	34499.50
665.73	34403.53
665.87	34134.37
666.01	34127.35
666.15	34197.57
666.29	34539.29
666.44	34548.65
666.58	33809.04
666.72	34340.34
666.86	34345.02
667.00	34242.04
667.14	34157.78
667.28	33785.63
667.43	33682.65
667.57	33862.87
667.71	33439.23
667.85	33436.89
667.99	33741.16
668.13	33525.83
668.27	33432.21
668.41	33652.22
668.56	33284.76
668.70	33464.98
668.84	33198.16
668.98	33123.26
669.12	33408.81
669.26	33319.87
669.40	33036.66
669.54	32767.50
669.68	33259.01
669.82	33158.37
669.96	32830.69
670.10	32783.88
670.25	32966.45
670.39	32821.33
670.53	32687.92
670.67	32591.96
670.81	32758.14
670.95	33057.73
671.09	32552.17
671.23	32929.00
671.37	33006.23
671.51	32706.65
671.65	32460.89
671.79	32084.06
671.93	32009.17
672.07	32498.34
672.21	32034.91
672.35	31662.77
672.49	31754.05
672.63	31894.48
672.77	32196.41
672.91	31819.58
673.05	31941.29
673.19	31690.85
673.33	31063.59
673.47	31145.51
673.61	31112.74
673.75	31208.70
673.89	30799.11
674.03	30871.67
674.17	31166.57
674.31	31042.53
674.45	31000.40
674.59	31068.27
674.73	30862.30
674.87	31330.41
675.01	30923.16
675.15	30499.52
675.29	30590.80
675.43	30714.85
675.56	30836.56
675.70	30724.21
675.84	29663.95
675.98	29450.96
676.12	30199.93
676.26	30340.36
676.40	30363.77
676.54	29827.79
676.68	30235.04
676.82	29378.40
676.96	29467.34
677.10	29167.76
677.23	29359.68
677.37	29523.52
677.51	29209.89
677.65	29181.80
677.79	28973.49
677.93	29060.09
678.07	28767.52
678.21	28889.23
678.34	28563.90
678.48	28807.31
678.62	28332.18
678.76	28500.70
678.90	28444.53
679.04	28189.41
679.18	28259.63
679.31	27969.40
679.45	28086.43
679.59	27623.00
679.73	27969.40
679.87	27866.42
680.00	28056.00
680.14	27529.38
680.28	27276.60
680.42	27292.99
680.56	27618.32
680.70	27143.19
680.83	27426.40
680.97	27112.77
681.11	27199.37
681.25	26810.84
681.39	26799.13
681.52	27225.11
681.66	26969.99
681.80	26841.26
681.94	26810.84
682.07	26682.11
682.21	26111.02
682.35	26052.50
682.49	26162.51
682.62	26263.15
682.76	26228.04
682.90	26134.42
683.04	25827.81
683.17	26218.68
683.31	26012.71
683.45	26122.72
683.59	25663.97
683.72	25308.21
683.86	25308.21
684.00	25460.35
684.13	25392.47
684.27	25369.07
684.41	25355.02
684.55	25025.01
684.68	24657.54
684.82	24746.48
684.96	25048.41
685.09	24669.25
685.23	24587.33
685.37	24678.61
685.50	24280.72
685.64	24348.59
685.78	24425.83
685.91	23922.62
686.05	24215.18
686.19	23761.12
686.32	24182.42
686.46	23880.49
686.60	23812.61
686.73	23185.35
686.87	23311.74
687.01	23367.91
687.14	23421.74
687.28	23147.90
687.42	23405.36
687.55	23068.32
687.69	22836.61
687.82	22803.84
687.96	22892.78
688.10	22607.23
688.23	23026.19
688.37	22691.49
688.50	22349.78
688.64	21965.93
688.78	22204.66
688.91	22445.74
689.05	21886.35
689.18	22340.41
689.32	22054.87
689.46	22003.38
689.59	22242.11
689.73	21951.88
689.86	21776.34
690.00	21591.44
690.13	21699.11
690.27	21685.06
690.41	21378.45
690.54	21151.42
690.68	21041.42
690.81	20954.82
690.95	21254.40
691.08	20922.05
691.22	21102.27
691.35	21090.57
691.49	20704.38
691.62	20849.49
691.76	20947.79
691.89	20781.62
692.03	20704.38
692.16	20381.38
692.30	20664.59
692.43	20556.93
692.57	20168.40
692.70	20283.08
692.84	20060.73
692.97	20034.99
693.11	19887.53
693.24	19723.69
693.38	19494.32
693.51	19524.75
693.65	19304.74
693.78	19164.31
693.92	19693.27
694.05	19037.92
694.19	19477.94
694.32	19222.82
694.45	19524.75
694.59	19152.60
694.72	19037.92
694.86	18850.67
694.99	18717.26
695.13	18647.05
695.26	18221.07
695.39	18059.57
695.53	18415.34
695.66	18497.25
695.80	18373.21
695.93	18300.65
696.07	18162.56
696.20	18174.26
696.33	17961.27
696.47	17907.44
696.60	18061.91
696.73	17692.11
696.87	17811.48
697.00	17916.80
697.14	17645.30
697.27	17783.39
697.40	17642.96
697.54	17640.62
697.67	17088.25
697.80	16980.59
697.94	17109.32
698.07	16826.11
698.21	17195.92
698.34	17041.44
698.47	16702.06
698.61	16664.61
698.74	16809.73
698.87	16414.18
699.01	16383.75
699.14	16266.72
699.27	16215.23
699.40	16194.17
699.54	16173.10
699.67	16170.76
699.80	16205.87
699.94	15992.88
700.07	15995.22
700.20	16107.57
700.34	15557.54
700.47	15854.79
700.60	15751.81
700.73	15910.96
700.87	15749.46
701.00	15424.13
701.13	15459.24
701.26	15576.27
701.40	15576.27
701.53	15484.98
701.66	15070.71
701.79	15073.05
701.93	14986.45
702.06	14890.49
702.19	14895.17
702.32	14813.25
702.46	14539.41
702.59	14754.74
702.72	14665.80
702.85	14494.94
702.99	14899.85
703.12	14698.56
703.25	14427.06
703.38	14459.83
703.51	14295.99
703.65	14239.82
703.78	14288.97
703.91	14157.90
704.04	13963.64
704.17	14115.77
704.31	13963.64
704.44	13652.34
704.57	13703.84
704.70	13699.16
704.83	13771.71
704.96	13603.19
705.10	13530.64
705.23	13568.09
>>>>>End Processed Spectral Data<<<<<
