SpectraSuite Data File
++++++++++++++++++++++++++++++++++++
Date: Fri Oct 25 10:48:28 EDT 2013
User: price-jones
Dark Spectrum Present: No
Reference Spectrum Present: No
Number of Sampled Component Spectra: 1
Spectrometers: USB2+H05261
Integration Time (usec): 100000 (USB2+H05261)
Spectra Averaged: 1 (USB2+H05261)
Boxcar Smoothing: 0 (USB2+H05261)
Correct for Electrical Dark: No (USB2+H05261)
Strobe/Lamp Enabled: No (USB2+H05261)
Correct for Detector Non-linearity: No (USB2+H05261)
Correct for Stray Light: No (USB2+H05261)
Number of Pixels in Processed Spectrum: 2048
>>>>>Begin Processed Spectral Data<<<<<
365.73	184.90
365.92	184.90
366.12	184.90
366.32	60.85
366.52	0.00
366.72	37.45
366.91	0.00
367.11	46.81
367.31	58.51
367.51	30.43
367.70	25.75
367.90	42.13
368.10	58.51
368.30	53.83
368.49	2.34
368.69	102.98
368.89	35.11
369.09	60.85
369.28	95.96
369.48	70.22
369.68	60.85
369.87	67.88
370.07	156.82
370.27	152.13
370.47	198.95
370.66	393.21
370.86	449.38
371.06	444.70
371.25	475.13
371.45	484.49
371.65	493.85
371.84	535.98
372.04	510.24
372.24	489.17
372.44	456.40
372.63	552.37
372.83	500.87
373.03	528.96
373.22	533.64
373.42	540.66
373.62	575.77
373.81	535.98
374.01	559.39
374.21	657.69
374.40	517.26
374.60	552.37
374.79	638.97
374.99	587.47
375.19	538.32
375.38	624.92
375.58	578.11
375.78	643.65
375.97	620.24
376.17	732.59
376.37	592.16
376.56	592.16
376.76	631.94
376.95	636.63
377.15	662.37
377.35	676.41
377.54	641.31
377.74	685.78
377.93	613.22
378.13	695.14
378.33	620.24
378.52	638.97
378.72	613.22
378.91	695.14
379.11	634.29
379.31	667.05
379.50	657.69
379.70	716.20
379.89	772.38
380.09	711.52
380.28	655.35
380.48	748.97
380.68	713.86
380.87	617.90
381.07	744.29
381.26	800.46
381.46	767.70
381.65	739.61
381.85	704.50
382.04	667.05
382.24	739.61
382.43	791.10
382.63	781.74
382.83	737.27
383.02	713.86
383.22	732.59
383.41	732.59
383.61	655.35
383.80	784.08
384.00	741.95
384.19	727.91
384.39	809.83
384.58	788.76
384.78	744.29
384.97	823.87
385.17	821.53
385.36	873.02
385.56	777.06
385.75	837.91
385.95	833.23
386.14	880.04
386.34	816.85
386.53	856.64
386.72	840.25
386.92	964.30
387.11	983.02
387.31	851.96
387.50	924.51
387.70	868.34
387.89	823.87
388.09	917.49
388.28	922.17
388.48	856.64
388.67	919.83
388.86	954.94
389.06	931.53
389.25	1006.43
389.45	950.26
389.64	938.55
389.84	1067.28
390.03	1050.90
390.22	1067.28
390.42	1100.05
390.61	1114.10
390.81	1008.77
391.00	1048.56
391.19	1071.97
391.39	1090.69
391.58	1130.48
391.78	1090.69
391.97	1102.39
392.16	1128.14
392.36	1071.97
392.55	957.28
392.75	1001.75
392.94	933.87
393.13	1086.01
393.33	1041.54
393.52	1050.90
393.71	1114.10
393.91	1132.82
394.10	1093.03
394.29	1132.82
394.49	1214.74
394.68	1186.65
394.88	1261.55
395.07	1247.51
395.26	1146.86
395.46	1167.93
395.65	1228.78
395.84	1263.89
396.04	1207.72
396.23	1217.08
396.42	1153.88
396.62	1249.85
396.81	1231.12
397.00	1231.12
397.19	1301.34
397.39	1231.12
397.58	1434.75
397.77	1430.07
397.97	1397.30
398.16	1411.34
398.35	1387.94
398.55	1554.12
398.74	1537.73
398.93	1486.24
399.12	1455.81
399.32	1481.56
399.51	1547.09
399.70	1568.16
399.90	1563.48
400.09	1666.46
400.28	1671.14
400.47	1603.27
400.67	1671.14
400.86	1664.12
401.05	1750.72
401.24	1739.02
401.44	1764.76
401.63	1837.32
401.82	1668.80
402.01	1643.06
402.21	1713.27
402.40	1750.72
402.59	1750.72
402.78	1797.53
402.97	1678.16
403.17	1802.21
403.36	1778.81
403.55	1820.94
403.74	1891.15
403.93	1820.94
404.13	1902.86
404.32	1865.41
404.51	1954.35
404.70	1977.75
404.89	1893.49
405.09	2078.40
405.28	1944.99
405.47	1975.41
405.66	1940.30
405.85	1919.24
406.05	1970.73
406.24	2040.95
406.43	2050.31
406.62	2083.08
406.81	2118.18
407.00	2085.42
407.20	2052.65
407.39	2101.80
407.58	2200.10
407.77	2155.63
407.96	2195.42
408.15	2190.74
408.34	2214.15
408.54	2258.62
408.73	2251.60
408.92	2307.77
409.11	2396.71
409.30	2235.21
409.49	2375.64
409.68	2270.32
409.87	2298.41
410.07	2408.41
410.26	2499.69
410.45	2455.22
410.64	2427.14
410.83	2513.74
411.02	2644.81
411.21	2574.59
411.40	2621.40
411.59	2586.29
411.78	2504.37
411.98	2576.93
412.17	2672.89
412.36	2640.12
412.55	2576.93
412.74	2689.28
412.93	2757.15
413.12	2775.88
413.31	2881.20
413.50	2761.83
413.69	2813.32
413.88	2970.14
414.07	2860.13
414.26	2939.71
414.45	2967.80
414.64	3000.57
414.83	3047.38
415.02	2981.84
415.22	3108.23
415.41	3075.46
415.60	3084.83
415.79	3265.05
415.98	3297.81
416.17	3335.26
416.36	3192.49
416.55	3243.98
416.74	3262.71
416.93	3241.64
417.12	3215.90
417.31	3337.60
417.50	3344.63
417.69	3534.21
417.88	3365.69
418.07	3365.69
418.26	3428.88
418.45	3384.41
418.64	3616.13
418.83	3552.93
419.02	3508.46
419.21	3524.85
419.39	3630.17
419.58	3564.64
419.77	3574.00
419.96	3435.91
420.15	3784.65
420.34	3674.64
420.53	3740.18
420.72	3735.50
420.91	3801.03
421.10	3826.78
421.29	3824.44
421.48	3831.46
421.67	3758.90
421.86	3857.20
422.05	3679.32
422.24	3744.86
422.43	3772.94
422.61	3948.48
422.80	3885.29
422.99	3826.78
423.18	3974.23
423.37	4065.51
423.56	4072.53
423.75	3974.23
423.94	3971.89
424.13	3758.90
424.32	3861.88
424.50	3995.29
424.69	4044.45
424.88	4018.70
425.07	4016.36
425.26	4093.60
425.45	3997.64
425.64	3829.12
425.83	3948.48
426.01	4063.17
426.20	4060.83
426.39	3932.10
426.58	3857.20
426.77	3946.14
426.96	4002.32
427.15	4030.40
427.33	4177.86
427.52	4086.58
427.71	4173.18
427.90	4121.68
428.09	4175.52
428.28	4180.20
428.46	4189.56
428.65	4131.05
428.84	4322.97
429.03	4276.16
429.22	4025.72
429.40	4189.56
429.59	4152.11
429.78	3882.95
429.97	3798.69
430.16	4014.02
430.34	4053.81
430.53	4147.43
430.72	4152.11
430.91	4182.54
431.10	4322.97
431.28	4479.79
431.47	4571.07
431.66	4603.83
431.85	4526.60
432.03	4657.67
432.22	4613.20
432.41	4746.61
432.60	4652.98
432.79	4774.69
432.97	4819.16
433.16	4730.22
433.35	4627.24
433.54	4746.61
433.72	4435.32
433.91	4676.39
434.10	4940.87
434.28	4739.58
434.47	4877.68
434.66	4924.49
434.85	4870.65
435.03	4903.42
435.22	5076.62
435.41	5191.31
435.59	5144.50
435.78	5231.10
435.97	5144.50
436.16	5085.98
436.34	5181.95
436.53	5224.08
436.72	5160.88
436.90	5062.58
437.09	5266.21
437.28	5036.83
437.46	5160.88
437.65	5097.69
437.84	5165.56
438.02	5109.39
438.21	5163.22
438.40	5116.41
438.58	5451.11
438.77	5343.44
438.96	5371.53
439.14	5516.64
439.33	5582.18
439.52	5703.89
439.70	5621.97
439.89	5893.47
440.08	5774.10
440.26	5685.16
440.45	5776.44
440.63	5940.28
440.82	6045.60
441.01	5919.21
441.19	5902.83
441.38	6115.82
441.57	6134.54
441.75	6136.88
441.94	6289.02
442.12	6197.74
442.31	6497.33
442.50	6286.68
442.68	6286.68
442.87	6370.94
443.05	6518.39
443.24	6450.52
443.43	6427.11
443.61	6478.60
443.80	6665.85
443.98	6476.26
444.17	6202.42
444.35	6579.25
444.54	6630.74
444.73	6609.67
444.91	6436.47
445.10	6427.11
445.28	6436.47
445.47	6408.39
445.65	6424.77
445.84	6434.13
446.02	6712.66
446.21	6663.51
446.39	6656.48
446.58	6633.08
446.77	6595.63
446.95	6525.41
447.14	6452.86
447.32	6750.10
447.51	6773.51
447.69	6565.20
447.88	6597.97
448.06	6565.20
448.25	6703.29
448.43	6750.10
448.62	6754.79
448.80	6703.29
448.99	6745.42
449.17	6803.94
449.36	6707.98
449.54	6906.92
449.73	6972.46
449.91	7035.65
450.10	7021.61
450.28	7440.56
450.46	7272.04
450.65	7131.61
450.83	7108.21
451.02	7037.99
451.20	7295.45
451.39	7304.81
451.57	7117.57
451.76	7250.98
451.94	7276.73
452.13	7232.26
452.31	7309.49
452.49	7045.01
452.68	7365.67
452.86	7269.70
453.05	7262.68
453.23	7407.80
453.42	7250.98
453.60	7360.98
453.78	7470.99
453.97	7272.04
454.15	7426.52
454.34	7368.01
454.52	7435.88
454.70	7487.37
454.89	7456.95
455.07	7445.24
455.26	7478.01
455.44	7815.05
455.62	7585.68
455.81	7716.75
455.99	7756.54
456.17	7728.45
456.36	7798.66
456.54	8042.08
456.73	8081.87
456.91	8138.04
457.09	8030.38
457.28	8437.63
457.46	8212.94
457.64	8327.63
457.83	8044.42
458.01	8018.68
458.19	8145.06
458.38	8004.63
458.56	8327.63
458.74	8259.75
458.93	8191.88
459.11	8322.94
459.29	8166.13
459.48	8411.89
459.66	8208.26
459.84	8374.44
460.03	8400.18
460.21	8568.70
460.39	8451.67
460.57	8465.72
460.76	8681.05
460.94	8524.23
461.12	8912.76
461.31	8622.53
461.49	8681.05
461.67	8894.04
461.85	8849.57
462.04	8615.51
462.22	9064.89
462.40	8865.95
462.59	8943.19
462.77	8863.61
462.95	9022.77
463.13	8912.76
463.32	9006.38
463.50	9179.58
463.68	9179.58
463.86	9083.62
464.05	8798.07
464.23	8978.30
464.41	9142.13
464.59	9118.73
464.78	9217.03
464.96	9179.58
465.14	9123.41
465.32	9345.76
465.50	9301.29
465.69	9392.57
465.87	9020.42
466.05	9500.23
466.23	9193.62
466.41	9130.43
466.60	9406.61
466.78	9121.07
466.96	9397.25
467.14	9441.72
467.32	9369.16
467.51	9355.12
467.69	9408.95
467.87	9497.89
468.05	9561.09
468.23	9448.74
468.41	9411.29
468.60	9312.99
468.78	9813.87
468.96	9533.00
469.14	9666.41
469.32	9858.34
469.50	9474.49
469.69	9879.40
469.87	9830.25
470.05	9933.23
470.23	9785.78
470.41	9912.17
470.59	9888.76
470.77	9811.53
470.95	10008.13
471.14	10274.95
471.32	9977.70
471.50	10136.86
471.68	10338.15
471.86	10162.61
472.04	10466.88
472.22	10677.52
472.40	10380.28
472.58	10384.96
472.77	10537.09
472.95	10436.45
473.13	11091.80
473.31	10523.05
473.49	10399.00
473.67	10637.73
473.85	10637.73
474.03	11005.20
474.21	11133.93
474.39	11014.56
474.57	10843.70
474.75	11056.69
474.93	11199.46
475.12	11166.70
475.30	11300.11
475.48	11358.62
475.66	11295.43
475.84	11257.98
476.02	11587.99
476.20	11585.65
476.38	11482.67
476.56	11889.92
476.74	11840.77
476.92	11805.66
477.10	12049.08
477.28	11927.37
477.46	12212.92
477.64	11992.90
477.82	12241.00
478.00	12601.44
478.18	12498.46
478.36	12437.61
478.54	12545.27
478.72	12526.55
478.90	12999.34
479.08	12816.77
479.26	13167.85
479.44	13212.32
479.62	13184.24
479.80	13415.95
479.98	13282.54
480.16	13778.73
480.34	13748.31
480.52	13722.56
480.70	13832.57
480.88	13818.52
481.06	13745.97
481.24	14141.52
481.41	14111.09
481.59	14478.55
481.77	14537.07
481.95	14789.85
482.13	14644.73
482.31	14546.43
482.49	14993.47
482.67	14841.34
482.85	15152.63
483.03	15115.18
483.21	15323.49
483.39	15590.31
483.57	15337.53
483.74	15475.62
483.92	15515.41
484.10	15290.72
484.28	15522.43
484.46	16350.98
484.64	16681.00
484.82	16006.92
485.00	16105.23
485.18	16526.52
485.35	16659.93
485.53	16451.63
485.71	16346.30
485.89	16411.84
486.07	16957.18
486.25	16915.05
486.43	16690.36
486.61	16868.24
486.78	17266.13
486.96	17350.39
487.14	17633.60
487.32	17926.16
487.50	17949.57
487.68	18366.18
487.85	18625.98
488.03	18696.20
488.21	18862.38
488.39	18649.39
488.57	18483.21
488.75	18803.86
488.92	19276.65
489.10	19365.59
489.28	19569.22
489.46	19676.88
489.64	19875.83
489.81	19836.04
489.99	20173.08
490.17	20175.42
490.35	20596.71
490.53	20545.22
490.70	20409.47
490.88	20573.31
491.06	20910.35
491.24	20793.32
491.41	20910.35
491.59	20798.00
491.77	20872.90
491.95	21282.49
492.13	21759.96
492.30	21790.39
492.48	21972.95
492.66	21696.77
492.84	21979.97
493.01	22347.44
493.19	22209.34
493.37	22483.19
493.54	22508.93
493.72	22434.03
493.90	22665.75
494.08	22855.33
494.25	23117.47
494.43	23274.29
494.61	23498.98
494.79	23686.22
494.96	23403.02
495.14	23573.88
495.32	23761.12
495.49	23793.89
495.67	23943.68
495.85	24304.12
496.02	24257.31
496.20	24594.35
496.38	24269.01
496.55	24514.77
496.73	25202.89
496.91	24837.76
497.09	25062.46
497.26	25570.35
497.44	24917.34
497.62	25261.40
497.79	25422.90
497.97	25425.24
498.14	25507.16
498.32	25640.57
498.50	25376.09
498.67	26150.81
498.85	26106.34
499.03	26103.99
499.20	26197.62
499.38	26562.74
499.56	26466.78
499.73	26518.27
499.91	26572.10
500.08	26937.23
500.26	26815.52
500.44	26808.50
500.61	26726.58
500.79	26789.77
500.97	26869.35
501.14	27402.99
501.32	27274.26
501.49	27576.19
501.67	27227.45
501.84	27494.27
502.02	27737.69
502.20	28161.33
502.37	28151.96
502.55	27964.72
502.72	27946.00
502.90	28339.21
503.07	28130.90
503.25	28503.04
503.43	28306.44
503.60	28411.76
503.78	28297.08
503.95	28325.16
504.13	28615.39
504.30	28669.22
504.48	29125.63
504.65	29046.05
504.83	29406.49
505.01	29137.33
505.18	29453.30
505.36	29647.57
505.53	29439.26
505.71	29862.90
505.88	29844.17
506.06	29905.02
506.23	30033.75
506.41	29802.04
506.58	29612.46
506.76	30377.81
506.93	30485.48
507.11	30543.99
507.28	30073.54
507.46	29876.94
507.63	30258.45
507.81	30513.56
507.98	30080.56
508.16	31096.36
508.33	30719.53
508.50	31091.68
508.68	30855.28
508.85	31353.82
509.03	31388.92
509.20	31185.30
509.38	31255.51
509.55	31564.46
509.73	31360.84
509.90	31672.13
510.08	31344.45
510.25	31405.31
510.42	31962.36
510.60	31894.48
510.77	32091.09
510.95	32210.45
511.12	32238.54
511.30	32486.64
511.47	32547.49
511.64	32723.03
511.82	32573.24
511.99	32311.10
512.17	32758.14
512.34	32636.43
512.51	32882.19
512.69	33031.98
512.86	32826.01
513.04	33048.36
513.21	33071.77
513.38	33362.00
513.56	32961.76
513.73	32772.18
513.90	33574.98
514.08	33434.55
514.25	33734.14
514.43	33394.76
514.60	33254.33
514.77	33780.95
514.95	33479.02
515.12	33883.94
515.29	34267.78
515.47	34050.11
515.64	34132.03
515.81	33734.14
515.99	33933.09
516.16	33979.90
516.33	33865.21
516.51	33806.70
516.68	33706.05
516.85	33448.60
517.03	34120.33
517.20	33961.17
517.37	34408.22
517.54	35098.67
517.72	34330.98
517.89	34227.99
518.06	34246.72
518.24	34440.98
518.41	34668.02
518.58	34979.31
518.75	34836.53
518.93	34974.63
519.10	34967.60
519.27	35615.93
519.45	35627.63
519.62	35480.18
519.79	35438.05
519.96	35529.33
520.14	35683.81
520.31	35915.52
520.48	35569.12
520.65	35730.62
520.83	36065.31
521.00	35985.74
521.17	36102.76
521.34	36566.19
521.52	36563.85
521.69	36343.84
521.86	36552.15
522.03	36615.34
522.20	36442.14
522.38	36994.51
522.55	36568.53
522.72	36814.29
522.89	36603.64
523.07	36809.61
523.24	36503.00
523.41	37406.44
523.58	36645.77
523.75	38085.20
523.92	37319.84
524.10	37563.26
524.27	37500.06
524.44	37839.44
524.61	37684.97
524.78	37521.13
524.96	37724.75
525.13	38132.01
525.30	38281.80
525.47	38234.99
525.64	38101.58
525.81	38298.19
525.98	37663.90
526.16	37429.85
526.33	37331.54
526.50	38192.86
526.67	37806.67
526.84	37963.49
527.01	38139.03
527.18	38014.98
527.36	38368.40
527.53	38785.02
527.70	38934.81
527.87	38944.17
528.04	38909.07
528.21	39145.46
528.38	38213.93
528.55	39002.69
528.72	38876.30
528.89	39388.88
529.07	39229.72
529.24	39196.95
529.41	39379.51
529.58	39061.20
529.75	39349.09
529.92	39489.52
530.09	39281.21
530.26	39494.20
530.43	39688.46
530.60	39295.25
530.77	39941.24
530.94	39842.94
531.11	39845.28
531.28	39723.57
531.46	39955.29
531.63	39854.64
531.80	39833.58
531.97	39697.83
532.14	39995.07
532.31	39936.56
532.48	40381.26
532.65	39976.35
532.82	40411.69
532.99	40804.90
533.16	40039.54
533.33	40203.38
533.50	40669.15
533.67	40835.33
533.84	40079.33
534.01	40128.48
534.18	40123.80
534.35	40875.12
534.52	40954.69
534.69	40786.18
534.86	40886.82
535.03	41045.97
535.20	41289.39
535.37	41170.02
535.54	41521.10
535.71	40989.80
535.88	41127.89
536.05	41043.63
536.22	41493.02
536.38	40879.80
536.55	41329.18
536.72	41034.27
536.89	41361.95
537.06	41188.75
537.23	41659.20
537.40	41397.06
537.57	41284.71
537.74	41801.97
537.91	41741.11
538.08	41490.68
538.25	41359.61
538.42	41823.03
538.59	41846.44
538.75	41015.55
538.92	41530.47
539.09	41874.52
539.26	41881.55
539.43	41848.78
539.60	41890.91
539.77	41586.64
539.94	41900.27
540.11	41944.74
540.28	41677.92
540.44	41846.44
540.61	41909.63
540.78	41979.85
540.95	41820.69
541.12	42223.26
541.29	41720.05
541.46	42164.75
541.62	42078.15
541.79	42618.81
541.96	42581.37
542.13	42115.60
542.30	42206.88
542.47	42492.43
542.63	42227.95
542.80	42834.14
542.97	42696.05
543.14	43189.91
543.31	43136.07
543.48	43058.84
543.64	43601.84
543.81	43559.71
543.98	43311.61
544.15	43103.31
544.32	43395.87
544.48	43562.05
544.65	43597.16
544.82	43285.87
544.99	42920.74
545.16	43716.53
545.32	43215.65
545.49	43798.44
545.66	43346.72
545.83	43931.86
546.00	44095.69
546.16	44016.11
546.33	43618.22
546.50	43180.54
546.67	43812.49
546.83	43274.16
547.00	43730.57
547.17	43552.69
547.34	43585.46
547.50	44189.31
547.67	44191.65
547.84	44147.18
548.00	44222.08
548.17	44032.50
548.34	43997.39
548.51	44292.30
548.67	44362.51
548.84	44222.08
549.01	44055.90
549.18	44491.24
549.34	43753.97
549.51	44194.00
549.68	44329.75
549.84	43948.24
550.01	44832.96
550.18	44294.64
550.34	44245.49
550.51	44566.14
550.68	44093.35
550.84	44201.02
551.01	44350.81
551.18	44760.40
551.34	44233.78
551.51	44608.27
551.68	44491.24
551.84	44786.15
552.01	44664.44
552.18	44589.55
552.34	44238.47
552.51	44769.77
552.68	45015.52
552.84	44774.45
553.01	45148.93
553.18	44917.22
553.34	44779.13
553.51	44949.99
553.67	44891.48
553.84	45287.03
554.01	45191.06
554.17	45617.04
554.34	45123.19
554.51	45565.55
554.67	45633.42
554.84	45214.47
555.00	45198.09
555.17	45052.97
555.33	45485.97
555.50	45249.58
555.67	45588.95
555.83	45272.98
556.00	45485.97
556.16	45942.38
556.33	45481.29
556.50	45357.24
556.66	45542.14
556.83	44907.86
556.99	45385.33
557.16	45500.01
557.32	45317.45
557.49	45989.19
557.65	45125.53
557.82	45439.16
557.98	45406.39
558.15	45560.87
558.32	45624.06
558.48	45427.46
558.65	45289.37
558.81	45469.59
558.98	45663.85
559.14	45336.18
559.31	45830.03
559.47	45977.48
559.64	45900.25
559.80	46408.14
559.97	45469.59
560.13	45708.32
560.30	45787.90
560.46	45563.21
560.63	45970.46
560.79	45933.01
560.96	46199.83
561.12	46129.62
561.29	45806.62
561.45	45724.71
561.61	45813.65
561.78	46050.04
561.94	45715.34
562.11	45865.14
562.27	45947.06
562.44	46087.49
562.60	46408.14
562.77	46120.26
562.93	46239.62
563.10	46019.61
563.26	45909.61
563.42	46227.92
563.59	45827.69
563.75	46150.68
563.92	46092.17
564.08	46085.15
564.24	46373.03
564.41	46312.18
564.57	46131.96
564.74	46192.81
564.90	46469.00
565.07	46288.77
565.23	46461.97
565.39	46160.05
565.56	46272.39
565.72	46138.98
565.88	46337.93
566.05	46384.74
566.21	46232.60
566.38	46529.85
566.54	46344.95
566.70	46492.40
566.87	46600.07
567.03	46300.48
567.19	46637.51
567.36	46616.45
567.52	46204.52
567.68	46969.87
567.85	46284.09
568.01	46351.97
568.17	46260.69
568.34	46401.12
568.50	46628.15
568.66	46103.87
568.83	46085.15
568.99	46010.25
569.15	46436.23
569.32	46134.30
569.48	46284.09
569.64	46934.76
569.81	46576.66
569.97	46358.99
570.13	46185.79
570.30	46403.46
570.46	46548.57
570.62	46204.52
570.78	45935.35
570.95	46326.22
571.11	46600.07
571.27	46644.54
571.43	46791.99
571.60	46377.72
571.76	46349.63
571.92	46663.26
572.09	46227.92
572.25	46279.41
572.41	46691.35
572.57	46621.13
572.74	46452.61
572.90	46843.48
573.06	46628.15
573.22	46831.78
573.38	46595.38
573.55	46101.53
573.71	46927.74
573.87	46564.96
574.03	46375.37
574.20	46660.92
574.36	46260.69
574.52	46672.62
574.68	46717.09
574.84	46768.58
575.01	46918.38
575.17	46742.84
575.33	46356.65
575.49	46632.83
575.65	46745.18
575.82	46630.49
575.98	46548.57
576.14	46920.72
576.30	46880.93
576.46	46532.19
576.62	47084.56
576.79	46829.44
576.95	46099.19
577.11	46351.97
577.27	46550.91
577.43	46518.15
577.59	46354.31
577.75	46703.05
577.92	46267.71
578.08	46265.37
578.24	46377.72
578.40	46300.48
578.56	46735.82
578.72	46712.41
578.88	46822.42
579.04	46883.27
579.21	46323.88
579.37	46665.60
579.53	46780.29
579.69	46373.03
579.85	46476.02
580.01	47051.79
580.17	46745.18
580.33	47136.05
580.49	46724.11
580.65	46857.52
580.82	46873.91
580.98	46803.69
581.14	46756.88
581.30	47004.98
581.46	46508.79
581.62	46667.94
581.78	46782.63
581.94	47084.56
582.10	46857.52
582.26	47070.51
582.42	47112.64
582.58	46586.02
582.74	46607.09
582.90	46979.23
583.06	47339.68
583.22	47262.44
583.38	47047.11
583.54	46777.95
583.70	46836.46
583.86	46363.67
584.02	46590.70
584.18	46864.55
584.34	46501.76
584.50	46707.73
584.66	46841.14
584.82	46918.38
584.98	47332.65
585.14	46801.35
585.30	46684.33
585.46	46478.36
585.62	46691.35
585.78	47264.78
585.94	46710.07
586.10	46660.92
586.26	46571.98
586.42	46880.93
586.58	46525.17
586.74	46843.48
586.90	46916.04
587.06	46595.38
587.22	46916.04
587.38	46803.69
587.54	47194.56
587.70	46918.38
587.86	46899.65
588.02	46602.41
588.18	47070.51
588.34	46810.71
588.49	46623.47
588.65	45876.84
588.81	46492.40
588.97	46328.56
589.13	46679.64
589.29	46588.36
589.45	46527.51
589.61	46321.54
589.77	46979.23
589.93	46803.69
590.08	46674.96
590.24	46866.89
590.40	47075.19
590.56	46773.27
590.72	46930.08
590.88	46953.49
591.04	46740.50
591.20	47079.88
591.35	47344.36
591.51	47164.14
591.67	47096.26
591.83	46930.08
591.99	46607.09
592.15	46717.09
592.31	46920.72
592.46	47145.41
592.62	47035.41
592.78	47255.42
592.94	47147.75
593.10	46866.89
593.26	46883.27
593.41	46885.61
593.57	47129.03
593.73	47096.26
593.89	46904.34
594.05	46897.31
594.20	46813.05
594.36	47269.46
594.52	47180.52
594.68	47000.30
594.84	46696.03
594.99	47112.64
595.15	46951.15
595.31	47634.58
595.47	47026.04
595.62	46932.42
595.78	46955.83
595.94	47079.88
596.10	47250.74
596.25	46892.63
596.41	47096.26
596.57	47323.29
596.73	47166.48
596.88	46426.87
597.04	46997.96
597.20	47068.17
597.36	47351.38
597.51	47140.73
597.67	46944.12
597.83	47173.50
597.99	47576.07
598.14	47098.60
598.30	47091.58
598.46	46897.31
598.61	46965.19
598.77	46738.16
598.93	47023.70
599.09	46857.52
599.24	47370.10
599.40	47334.99
599.56	47358.40
599.71	47372.44
599.87	47409.89
600.03	46941.78
600.18	46696.03
600.34	47058.81
600.50	47269.46
600.65	47028.38
600.81	47571.39
600.97	47414.57
601.12	47260.10
601.28	47189.88
601.44	46948.81
601.59	47047.11
601.75	47077.54
601.91	46862.21
602.06	46845.82
602.22	47267.12
602.37	47145.41
602.53	46855.18
602.69	47313.93
602.84	46567.30
603.00	46913.70
603.16	47033.07
603.31	47234.35
603.47	46887.95
603.62	47100.94
603.78	46866.89
603.94	47004.98
604.09	46845.82
604.25	47323.29
604.40	47028.38
604.56	46824.76
604.71	47187.54
604.87	47297.55
605.03	47040.09
605.18	46864.55
605.34	46899.65
605.49	46817.74
605.65	46635.17
605.80	46564.96
605.96	47227.33
606.12	46857.52
606.27	47070.51
606.43	46972.21
606.58	47210.95
606.74	47201.58
606.89	46742.84
607.05	46791.99
607.20	47182.86
607.36	46955.83
607.51	47075.19
607.67	46916.04
607.82	46824.76
607.98	46363.67
608.13	46892.63
608.29	46934.76
608.44	46206.86
608.60	46143.66
608.75	46520.49
608.91	46553.26
609.06	46546.23
609.22	46869.23
609.37	46295.80
609.53	46731.14
609.68	47122.01
609.84	46370.69
609.99	46368.35
610.15	46855.18
610.30	46621.13
610.46	46417.50
610.61	46452.61
610.76	46440.91
610.92	46422.19
611.07	46506.44
611.23	46078.13
611.38	46237.28
611.54	46532.19
611.69	45935.35
611.84	46225.58
612.00	46438.57
612.15	46298.14
612.31	46410.48
612.46	46225.58
612.62	46445.59
612.77	46106.21
612.92	46082.81
613.08	46351.97
613.23	46312.18
613.39	45820.67
613.54	45656.83
613.69	46216.22
613.85	46000.89
614.00	46031.32
614.15	46185.79
614.31	46391.76
614.46	46391.76
614.62	45820.67
614.77	45865.14
614.92	46136.64
615.08	46092.17
615.23	45792.58
615.38	45811.31
615.54	45483.63
615.69	45523.42
615.84	45329.16
616.00	45687.26
616.15	45844.07
616.30	45478.95
616.46	45663.85
616.61	45270.64
616.76	45584.27
616.92	45654.49
617.07	45656.83
617.22	45680.24
617.37	45258.94
617.53	45553.85
617.68	45776.20
617.83	45607.68
617.99	45752.79
618.14	45577.25
618.29	45055.31
618.45	44961.69
618.60	45425.12
618.75	45366.60
618.90	45518.74
619.06	45326.81
619.21	45336.18
619.36	45574.91
619.51	45305.75
619.67	45509.38
619.82	44856.37
619.97	45310.43
620.12	45043.61
620.28	44369.54
620.43	45469.59
620.58	44851.69
620.73	45057.65
620.89	44949.99
621.04	45027.23
621.19	45247.24
621.34	44615.29
621.49	44751.04
621.65	44594.23
621.80	45015.52
621.95	44769.77
622.10	44910.20
622.25	44444.43
622.41	44945.31
622.56	44830.62
622.71	44842.32
622.86	44825.94
623.01	44516.99
623.16	44851.69
623.32	44795.51
623.47	45134.89
623.62	44744.02
623.77	44692.53
623.92	44786.15
624.07	44083.99
624.23	44362.51
624.38	44463.16
624.53	44442.09
624.68	44442.09
624.83	44018.46
624.98	44739.34
625.13	44194.00
625.29	44259.53
625.44	44320.38
625.59	44074.63
625.74	44259.53
625.89	43599.50
626.04	43585.46
626.19	43957.60
626.34	43758.66
626.49	43702.48
626.65	44198.68
626.80	43562.05
626.95	44037.18
627.10	43983.35
627.25	43419.28
627.40	43906.11
627.55	43693.12
627.70	42712.44
627.85	43119.69
628.00	43658.01
628.15	43653.33
628.30	43812.49
628.45	43536.30
628.60	43449.70
628.76	43611.20
628.91	43777.38
629.06	43459.07
629.21	43330.34
629.36	42958.19
629.51	42974.58
629.66	42955.85
629.81	43054.15
629.96	43367.79
630.11	43239.06
630.26	43501.20
630.41	43313.95
630.56	43316.29
630.71	43456.73
630.86	43236.72
631.01	43063.52
631.16	42906.70
631.31	42602.43
631.46	42429.23
631.61	42806.06
631.76	43049.47
631.91	43058.84
632.06	43164.16
632.21	43072.88
632.36	43515.24
632.51	42862.23
632.66	43306.93
632.81	42792.01
632.96	42630.52
633.10	42501.79
633.25	42192.84
633.40	42761.59
633.55	42864.57
633.70	42836.48
633.85	42682.01
634.00	42628.18
634.15	42410.51
634.30	42806.06
634.45	42457.32
634.60	42265.39
634.75	42225.60
634.90	42527.53
635.05	42422.21
635.19	42188.16
635.34	42656.26
635.49	42253.69
635.64	42167.09
635.79	41848.78
635.94	41862.82
636.09	42466.68
636.24	42078.15
636.39	42052.41
636.53	41605.36
636.68	42000.91
636.83	42150.71
636.98	42057.09
637.13	41383.01
637.28	41801.97
637.43	42078.15
637.57	42033.68
637.72	42127.30
637.87	42129.64
638.02	42167.09
638.17	41823.03
638.32	41469.61
638.46	41273.01
638.61	41776.22
638.76	41734.09
638.91	41574.94
639.06	41553.87
639.20	41792.61
639.35	41806.65
639.50	42082.83
639.65	41993.89
639.80	41876.86
639.94	41628.77
640.09	41223.86
640.24	41675.58
640.39	40818.94
640.54	41205.13
640.68	41514.08
640.83	41401.74
640.98	41280.03
641.13	40715.96
641.27	41507.06
641.42	41036.61
641.57	41134.92
641.72	41053.00
641.86	40802.56
642.01	40879.80
642.16	41038.95
642.31	40832.99
642.45	40945.33
642.60	40804.90
642.75	40945.33
642.90	40893.84
643.04	41062.36
643.19	40685.53
643.34	40741.71
643.48	41024.91
643.63	41022.57
643.78	40854.05
643.93	40435.10
644.07	40488.93
644.22	40924.27
644.37	40023.16
644.51	40215.08
644.66	41064.70
644.81	40664.47
644.95	40905.54
645.10	40800.22
645.25	40786.18
645.39	40069.97
645.54	40863.41
645.69	40811.92
645.83	40130.83
645.98	40325.09
646.13	40610.64
646.27	40577.87
646.42	40409.35
646.57	40074.65
646.71	39908.47
646.86	40020.82
647.00	40311.05
647.15	40308.71
647.30	40151.89
647.44	40062.95
647.59	39990.39
647.74	40399.99
647.88	39906.13
648.03	39662.72
648.17	40130.83
648.32	39828.90
648.47	39840.60
648.61	39894.43
648.76	40219.77
648.90	39721.23
649.05	39679.10
649.20	39922.52
649.34	39955.29
649.49	39721.23
649.63	39573.78
649.78	39449.73
649.92	39936.56
650.07	39578.46
650.21	39723.57
650.36	39704.85
650.51	39466.11
650.65	40589.57
650.80	39810.17
650.94	39974.01
651.09	39601.86
651.23	39854.64
651.38	39784.43
651.52	39402.92
651.67	39306.96
651.81	39016.73
651.96	39337.38
652.10	39524.63
652.25	39295.25
652.39	39138.44
652.54	39498.88
652.68	39505.90
652.83	39428.66
652.97	39246.10
653.12	39168.87
653.26	39096.31
653.41	39096.31
653.55	38969.92
653.70	38920.77
653.84	39342.06
653.99	39063.54
654.13	39131.42
654.27	38583.73
654.42	38843.53
654.56	38883.32
654.71	38988.64
654.85	38974.60
655.00	38890.34
655.14	38375.42
655.29	38352.02
655.43	38298.19
655.57	38316.91
655.72	37975.19
655.86	37947.11
656.01	38078.18
656.15	38438.62
656.30	38043.07
656.44	38272.44
656.58	38129.67
656.73	38630.54
656.87	37944.76
657.01	37893.27
657.16	37895.61
657.30	37816.04
657.45	37979.87
657.59	38007.96
657.73	37944.76
657.88	38022.00
658.02	37720.07
658.16	37759.86
658.31	38024.34
658.45	38022.00
658.60	37755.18
658.74	38478.41
658.88	38096.90
659.03	37476.66
659.17	37287.07
659.31	37902.64
659.46	37504.74
659.60	37663.90
659.74	37282.39
659.89	37256.65
660.03	37380.70
660.17	37696.67
660.32	37542.19
660.46	37191.11
660.60	37324.52
660.74	37273.03
660.89	37097.49
661.03	36975.78
661.17	37076.43
661.32	37436.87
661.46	37193.45
661.60	36823.65
661.74	37013.23
661.89	36622.36
662.03	36884.50
662.17	36786.20
662.31	36844.71
662.46	37027.28
662.60	37118.56
662.74	36931.31
662.88	36776.84
663.03	36470.23
663.17	36715.98
663.31	36549.81
663.45	36697.26
663.60	36664.49
663.74	36580.23
663.88	35985.74
664.02	36027.87
664.17	36327.45
664.31	35770.41
664.45	35852.33
664.59	35913.18
664.73	35854.67
664.88	36121.49
665.02	35747.00
665.16	35969.35
665.30	35704.87
665.44	35637.00
665.59	35599.55
665.73	35571.46
665.87	35323.36
666.01	35768.07
666.15	35445.07
666.29	35501.25
666.44	35508.27
666.58	35299.96
666.72	35384.22
666.86	35681.47
667.00	35531.67
667.14	35360.81
667.28	34588.44
667.43	34660.99
667.57	35260.17
667.71	34843.56
667.85	35009.73
667.99	34541.63
668.13	34431.62
668.27	34668.02
668.41	34841.21
668.56	34433.96
668.70	34916.11
668.84	34588.44
668.98	34382.47
669.12	34471.41
669.26	34506.52
669.40	34319.28
669.54	34024.37
669.68	34302.89
669.82	33937.77
669.96	34000.96
670.10	33528.17
670.25	33968.19
670.39	34054.79
670.53	33722.44
670.67	33247.31
670.81	34043.09
670.95	33558.60
671.09	33970.54
671.23	33558.60
671.37	33792.65
671.51	33450.94
671.65	33034.32
671.79	32987.51
671.93	33095.18
672.07	33469.66
672.21	33156.03
672.35	32907.93
672.49	33418.17
672.63	33001.55
672.77	32800.27
672.91	32519.40
673.05	32856.44
673.19	32964.10
673.33	32552.17
673.47	32432.80
673.61	31974.06
673.75	32086.40
673.89	32105.13
674.03	31885.12
674.17	31920.23
674.31	31775.11
674.45	31969.38
674.59	31838.31
674.73	32163.64
674.87	31938.95
675.01	31667.45
675.15	31632.34
675.29	31782.13
675.43	31765.75
675.56	31812.56
675.70	31543.40
675.84	30948.90
675.98	30389.52
676.12	31297.64
676.26	30803.79
676.40	30813.15
676.54	30735.92
676.68	30857.62
676.82	30251.42
676.96	30398.88
677.10	30157.80
677.23	30513.56
677.37	30309.94
677.51	30410.58
677.65	30356.75
677.79	29848.85
677.93	29933.11
678.07	30284.19
678.21	29652.25
678.34	29820.77
678.48	29376.06
678.62	29432.24
678.76	29338.62
678.90	29336.27
679.04	29174.78
679.18	28851.78
679.31	29216.91
679.45	28739.44
679.59	28561.56
679.73	28914.98
679.87	28945.41
680.00	28854.12
680.14	28531.13
680.28	28304.10
680.42	28320.48
680.56	28467.94
680.70	28350.91
680.83	27948.34
680.97	27974.08
681.11	28060.68
681.25	27840.67
681.39	27859.40
681.52	27784.50
681.66	27854.72
681.80	27761.09
681.94	27658.11
682.07	27414.69
682.21	27180.64
682.35	27321.07
682.49	27112.77
682.62	26932.54
682.76	26937.23
682.90	27157.24
683.04	26672.74
683.17	27075.32
683.31	26473.80
683.45	26639.98
683.59	26221.02
683.72	26316.98
683.86	25797.38
684.00	25893.35
684.13	26354.43
684.27	26188.25
684.41	26136.76
684.55	25965.90
684.68	25268.42
684.82	25434.60
684.96	25713.13
685.09	25717.81
685.23	25252.04
685.37	25450.99
685.50	25387.79
685.64	25144.38
685.78	25102.25
685.91	24959.47
686.05	24917.34
686.19	24751.17
686.32	24451.58
686.46	24453.92
686.60	24182.42
686.73	24039.64
686.87	23910.91
687.01	23758.78
687.14	23597.28
687.28	23630.05
687.42	23613.66
687.55	23655.79
687.69	23824.31
687.82	23592.60
687.96	23545.79
688.10	23344.50
688.23	23154.92
688.37	23318.76
688.50	22850.65
688.64	23192.37
688.78	22644.68
688.91	22850.65
689.05	22668.09
689.18	22572.13
689.32	22134.45
689.46	22625.96
689.59	22361.48
689.73	22300.62
689.86	22377.86
690.00	22642.34
690.13	22434.03
690.27	22195.30
690.41	21996.35
690.54	21837.20
690.68	21888.69
690.81	21858.26
690.95	21605.49
691.08	21762.30
691.22	21275.47
691.35	21593.78
691.49	21685.06
691.62	21406.54
691.76	21584.42
691.89	21376.11
692.03	20868.22
692.16	21015.67
692.30	20760.55
692.43	20886.94
692.57	20559.27
692.70	20526.50
692.84	20676.29
692.97	20348.62
693.11	20465.64
693.24	20217.55
693.38	20233.93
693.51	20269.04
693.65	19983.49
693.78	20105.20
693.92	19976.47
694.05	19653.48
694.19	19735.40
694.32	19786.89
694.45	19594.96
694.59	19627.73
694.72	19536.45
694.86	19433.47
694.99	19087.07
695.13	19190.05
695.26	18923.23
695.39	18728.97
695.53	19021.53
695.66	18747.69
695.80	18979.40
695.93	18735.99
696.07	18431.72
696.20	18700.88
696.33	18462.15
696.47	18321.71
696.60	18410.65
696.73	18319.37
696.87	18342.78
697.00	18284.26
697.14	18317.03
697.27	18087.66
697.40	18310.01
697.54	17767.01
697.67	17649.98
697.80	17591.47
697.94	17577.42
698.07	17631.26
698.21	17511.89
698.34	17144.42
698.47	17549.34
698.61	17352.73
698.74	17242.73
698.87	17092.93
699.01	17008.67
699.14	16896.33
699.27	16659.93
699.40	16814.41
699.54	16615.46
699.67	16325.24
699.80	16533.54
699.94	16535.88
700.07	16444.60
700.20	16444.60
700.34	16114.59
700.47	16365.03
700.60	16137.99
700.73	16224.59
700.87	16264.38
701.00	15859.47
701.13	15768.19
701.26	15941.39
701.40	16102.89
701.53	15749.46
701.66	15817.34
701.79	15461.58
701.93	15330.51
702.06	15316.47
702.19	15433.49
702.32	15421.79
702.46	15260.29
702.59	14857.72
702.72	15187.74
702.85	15063.69
702.99	15276.68
703.12	15140.93
703.25	14998.15
703.38	15000.49
703.51	15005.17
703.65	14747.72
703.78	14333.44
703.91	14494.94
704.04	14443.45
704.17	14579.20
704.31	14342.80
704.44	13991.72
704.57	14064.28
704.70	14162.58
704.83	14193.01
704.96	14083.00
705.10	14228.12
705.23	14162.58
>>>>>End Processed Spectral Data<<<<<
