SpectraSuite Data File
++++++++++++++++++++++++++++++++++++
Date: Fri Oct 25 11:34:22 EDT 2013
User: price-jones
Dark Spectrum Present: No
Reference Spectrum Present: No
Number of Sampled Component Spectra: 1
Spectrometers: USB2+H05261
Integration Time (usec): 100000 (USB2+H05261)
Spectra Averaged: 1 (USB2+H05261)
Boxcar Smoothing: 0 (USB2+H05261)
Correct for Electrical Dark: No (USB2+H05261)
Strobe/Lamp Enabled: No (USB2+H05261)
Correct for Detector Non-linearity: No (USB2+H05261)
Correct for Stray Light: No (USB2+H05261)
Number of Pixels in Processed Spectrum: 2048
>>>>>Begin Processed Spectral Data<<<<<
365.73	264.48
365.92	264.48
366.12	264.48
366.32	201.29
366.52	187.24
366.72	152.13
366.91	180.22
367.11	198.95
367.31	135.75
367.51	110.01
367.70	163.84
367.90	203.63
368.10	180.22
368.30	198.95
368.49	170.86
368.69	95.96
368.89	145.11
369.09	159.16
369.28	184.90
369.48	175.54
369.68	234.05
369.87	250.44
370.07	191.92
370.27	236.39
370.47	280.86
370.66	395.55
370.86	528.96
371.06	545.34
371.25	592.16
371.45	557.05
371.65	608.54
371.84	500.87
372.04	564.07
372.24	526.62
372.44	610.88
372.63	596.84
372.83	615.56
373.03	566.41
373.22	653.01
373.42	641.31
373.62	638.97
373.81	678.76
374.01	657.69
374.21	655.35
374.40	603.86
374.60	720.88
374.79	664.71
374.99	648.33
375.19	622.58
375.38	596.84
375.58	688.12
375.78	695.14
375.97	681.10
376.17	645.99
376.37	653.01
376.56	739.61
376.76	606.20
376.95	622.58
377.15	697.48
377.35	638.97
377.54	648.33
377.74	692.80
377.93	648.33
378.13	688.12
378.33	730.25
378.52	631.94
378.72	732.59
378.91	702.16
379.11	702.16
379.31	732.59
379.50	643.65
379.70	683.44
379.89	734.93
380.09	713.86
380.28	709.18
380.48	730.25
380.68	713.86
380.87	748.97
381.07	739.61
381.26	774.72
381.46	718.54
381.65	723.23
381.85	674.07
382.04	718.54
382.24	755.99
382.43	777.06
382.63	734.93
382.83	751.31
383.02	795.78
383.22	751.31
383.41	786.42
383.61	732.59
383.80	723.23
384.00	830.89
384.19	809.83
384.39	784.08
384.58	833.23
384.78	816.85
384.97	772.38
385.17	849.61
385.36	748.97
385.56	837.91
385.75	816.85
385.95	851.96
386.14	910.47
386.34	931.53
386.53	758.33
386.72	854.30
386.92	887.06
387.11	856.64
387.31	894.08
387.50	868.34
387.70	873.02
387.89	915.15
388.09	919.83
388.28	908.13
388.48	802.80
388.67	875.36
388.86	903.45
389.06	936.21
389.25	875.36
389.45	910.47
389.64	994.73
389.84	1008.77
390.03	971.32
390.22	1020.47
390.42	952.60
390.61	936.21
390.81	968.98
391.00	945.58
391.19	1086.01
391.39	1043.88
391.58	961.96
391.78	1022.81
391.97	1039.20
392.16	990.05
392.36	1055.58
392.55	1039.20
392.75	1057.92
392.94	1027.50
393.13	1060.26
393.33	997.07
393.52	1043.88
393.71	1057.92
393.91	1081.33
394.10	1093.03
394.29	1121.12
394.49	1011.11
394.68	1144.52
394.88	1109.41
395.07	1118.78
395.26	1174.95
395.46	1139.84
395.65	1238.14
395.84	1179.63
396.04	1289.64
396.23	1139.84
396.42	1170.27
396.62	1177.29
396.81	1210.06
397.00	1226.44
397.19	1179.63
397.39	1151.54
397.58	1231.12
397.77	1210.06
397.97	1268.57
398.16	1193.67
398.35	1247.51
398.55	1289.64
398.74	1226.44
398.93	1256.87
399.12	1343.47
399.32	1320.06
399.51	1263.89
399.70	1273.25
399.90	1245.16
400.09	1299.00
400.28	1357.51
400.47	1338.79
400.67	1362.19
400.86	1343.47
401.05	1455.81
401.24	1460.49
401.44	1362.19
401.63	1343.47
401.82	1373.89
402.01	1345.81
402.21	1385.60
402.40	1406.66
402.59	1439.43
402.78	1411.34
402.97	1437.09
403.17	1474.54
403.36	1437.09
403.55	1451.13
403.74	1502.62
403.93	1533.05
404.13	1572.84
404.32	1514.33
404.51	1568.16
404.70	1657.10
404.89	1514.33
405.09	1687.53
405.28	1631.35
405.47	1554.12
405.66	1652.42
405.85	1734.34
406.05	1657.10
406.24	1671.14
406.43	1696.89
406.62	1664.12
406.81	1687.53
407.00	1739.02
407.20	1666.46
407.39	1687.53
407.58	1755.40
407.77	1764.76
407.96	1877.11
408.15	1806.89
408.34	1788.17
408.54	1849.02
408.73	1900.52
408.92	1778.81
409.11	1820.94
409.30	1837.32
409.49	2017.54
409.68	1947.33
409.87	1961.37
410.07	1867.75
410.26	1916.90
410.45	1984.77
410.64	2015.20
410.83	2069.03
411.02	2050.31
411.21	2132.23
411.40	2017.54
411.59	2181.38
411.78	1996.48
411.98	2134.57
412.17	2106.48
412.36	2083.08
412.55	2190.74
412.74	2263.30
412.93	2370.96
413.12	2373.30
413.31	2291.38
413.50	2349.90
413.69	2354.58
413.88	2413.09
414.07	2345.22
414.26	2438.84
414.45	2303.09
414.64	2504.37
414.83	2483.31
415.02	2452.88
415.22	2569.91
415.41	2490.33
415.60	2600.34
415.79	2499.69
415.98	2722.04
416.17	2691.62
416.36	2527.78
416.55	2668.21
416.74	2672.89
416.93	2656.51
417.12	2698.64
417.31	2717.36
417.50	2860.13
417.69	2911.63
417.88	2843.75
418.07	2808.64
418.26	2899.92
418.45	2930.35
418.64	3005.25
418.83	2794.60
419.02	2960.78
419.21	3002.91
419.39	3133.98
419.58	3056.74
419.77	2967.80
419.96	3045.04
420.15	2988.86
420.34	3002.91
420.53	3176.11
420.72	3117.59
420.91	3098.87
421.10	3251.00
421.29	3131.64
421.48	3225.26
421.67	3199.51
421.86	3246.32
422.05	3260.37
422.24	3208.87
422.43	3225.26
422.61	3361.01
422.80	3361.01
422.99	3421.86
423.18	3318.88
423.37	3370.37
423.56	3412.50
423.75	3379.73
423.94	3248.66
424.13	3129.30
424.32	3126.96
424.50	3398.46
424.69	3463.99
424.88	3370.37
425.07	3208.87
425.26	3253.34
425.45	3410.16
425.64	3323.56
425.83	3433.57
426.01	3424.20
426.20	3396.12
426.39	3396.12
426.58	3492.08
426.77	3372.71
426.96	3412.50
427.15	3431.23
427.33	3478.04
427.52	3473.36
427.71	3419.52
427.90	3480.38
428.09	3559.95
428.28	3534.21
428.46	3515.48
428.65	3672.30
428.84	3742.52
429.03	3763.58
429.22	3550.59
429.40	3676.98
429.59	3595.06
429.78	3501.44
429.97	3431.23
430.16	3592.72
430.34	3747.20
430.53	3913.38
430.72	3648.90
430.91	3770.60
431.10	3833.80
431.28	3882.95
431.47	3882.95
431.66	3831.46
431.85	3803.37
432.03	3918.06
432.22	3964.87
432.41	3932.10
432.60	3772.94
432.79	3990.61
432.97	4117.00
433.16	3875.93
433.35	3950.82
433.54	3929.76
433.72	4070.19
433.91	4138.07
434.10	4035.08
434.28	4147.43
434.47	3995.29
434.66	4049.13
434.85	4086.58
435.03	4163.81
435.22	4093.60
435.41	4259.78
435.59	4217.65
435.78	4262.12
435.97	4269.14
436.16	4170.83
436.34	4285.52
436.53	4290.20
436.72	4400.21
436.90	4280.84
437.09	4346.37
437.28	4306.59
437.46	4423.61
437.65	4280.84
437.84	4252.75
438.02	4503.19
438.21	4472.76
438.40	4411.91
438.58	4554.68
438.77	4631.92
438.96	4699.80
439.14	4624.90
439.33	4758.31
439.52	4702.14
439.70	4858.95
439.89	4791.08
440.08	4973.64
440.26	4772.35
440.45	4739.58
440.63	4964.28
440.82	4997.04
441.01	4868.31
441.19	4994.70
441.38	4863.63
441.57	4978.32
441.75	5195.99
441.94	5282.59
442.12	5289.61
442.31	5123.43
442.50	5411.32
442.68	5275.57
442.87	5184.29
443.05	5224.08
443.24	5338.76
443.43	5434.72
443.61	5476.85
443.80	5582.18
443.98	5219.39
444.17	5144.50
444.35	5427.70
444.54	5455.79
444.73	5301.31
444.91	5404.30
445.10	5537.71
445.28	5544.73
445.47	5256.84
445.65	5404.30
445.84	5621.97
446.02	5561.11
446.21	5460.47
446.39	5434.72
446.58	5556.43
446.77	5549.41
446.95	5350.46
447.14	5453.45
447.32	5680.48
447.51	5643.03
447.69	5530.69
447.88	5526.00
448.06	5591.54
448.25	5565.79
448.43	5755.38
448.62	5533.03
448.80	5528.35
448.99	5661.76
449.17	5666.44
449.36	5603.24
449.54	5734.31
449.73	5846.66
449.91	5921.56
450.10	5909.85
450.28	5963.68
450.46	5970.71
450.65	5902.83
450.83	5928.58
451.02	5907.51
451.20	5991.77
451.39	5966.03
451.57	5935.60
451.76	5870.06
451.94	6059.65
452.13	6047.94
452.31	6061.99
452.49	5902.83
452.68	6033.90
452.86	6157.95
453.05	6200.08
453.23	6076.03
453.42	6242.21
453.60	5996.45
453.78	6183.70
453.97	6092.41
454.15	6216.46
454.34	6223.48
454.52	6263.27
454.70	6394.34
454.89	6525.41
455.07	6406.05
455.26	6396.68
455.44	6476.26
455.62	6354.55
455.81	6417.75
455.99	6562.86
456.17	6551.16
456.36	6384.98
456.54	6518.39
456.73	6637.76
456.91	6717.34
457.09	6717.34
457.28	6789.89
457.46	6768.83
457.64	6684.57
457.83	6850.75
458.01	6698.61
458.19	7171.40
458.38	6909.26
458.56	7049.69
458.74	6920.96
458.93	6846.07
459.11	7073.10
459.29	6923.30
459.48	7087.14
459.66	7108.21
459.84	7171.40
460.03	7232.26
460.21	7087.14
460.39	6984.16
460.57	7274.38
460.76	7243.96
460.94	7227.57
461.12	7234.60
461.31	7070.76
461.49	7269.70
461.67	7197.15
461.85	7318.86
462.04	7368.01
462.22	7698.02
462.40	7253.32
462.59	7365.67
462.77	7337.58
462.95	7529.50
463.13	7611.42
463.32	7658.23
463.50	7571.63
463.68	7810.37
463.86	7646.53
464.05	7590.36
464.23	7487.37
464.41	7513.12
464.59	7517.80
464.78	7679.30
464.96	7864.20
465.14	7686.32
465.32	7861.86
465.50	7779.94
465.69	7793.98
465.87	7962.50
466.05	7796.32
466.23	8046.76
466.41	7887.61
466.60	7974.21
466.78	8018.68
466.96	7761.22
467.14	7934.42
467.32	8042.08
467.51	8081.87
467.69	7775.26
467.87	8037.40
468.05	8145.06
468.23	8116.98
468.41	7943.78
468.60	8173.15
468.78	8299.54
468.96	8077.19
469.14	8053.78
469.32	8280.82
469.50	8152.09
469.69	8432.95
469.87	8407.20
470.05	8393.16
470.23	8416.57
470.41	8503.17
470.59	8435.29
470.77	8449.33
470.95	8510.19
471.14	8676.37
471.32	8540.61
471.50	8840.20
471.68	8732.54
471.86	8613.17
472.04	8872.97
472.22	8863.61
472.40	8784.03
472.58	8786.37
472.77	8882.33
472.95	8975.95
473.13	9373.85
473.31	8987.66
473.49	9081.28
473.67	8933.82
473.85	9071.92
474.03	9490.87
474.21	9245.12
474.39	9345.76
474.57	9303.63
474.75	9462.79
474.93	9589.17
475.12	9430.02
475.30	9696.84
475.48	9795.14
475.66	9694.50
475.84	9619.60
476.02	9795.14
476.20	9863.02
476.38	10038.56
476.56	10445.81
476.74	10347.51
476.92	10249.21
477.10	10054.94
477.28	10345.17
477.46	10406.02
477.64	10359.21
477.82	10565.18
478.00	10817.96
478.18	10684.55
478.36	10635.39
478.54	11087.12
478.72	10995.84
478.90	11197.12
479.08	11391.39
479.26	11173.72
479.44	11192.44
479.62	11403.09
479.80	11510.75
479.98	11323.51
480.16	11918.01
480.34	11648.85
480.52	11627.78
480.70	11929.71
480.88	11803.32
481.06	12006.95
481.24	12079.50
481.41	12308.88
481.59	12257.39
481.77	12299.52
481.95	12528.89
482.13	12727.83
482.31	12498.46
482.49	12819.11
482.67	12882.31
482.85	12896.35
483.03	12891.67
483.21	13247.43
483.39	13156.15
483.57	13312.97
483.74	13153.81
483.92	13462.76
484.10	13479.15
484.28	13724.90
484.46	14141.52
484.64	13926.19
484.82	13755.33
485.00	14176.62
485.18	14178.97
485.35	14736.01
485.53	14401.32
485.71	14448.13
485.89	14911.55
486.07	14792.19
486.25	14597.92
486.43	15037.94
486.61	15190.08
486.78	15433.49
486.96	15005.17
487.14	15417.11
487.32	15477.96
487.50	15723.72
487.68	15716.70
487.85	16109.91
488.03	16217.57
488.21	16269.06
488.39	16404.81
488.57	16601.42
488.75	16428.22
488.92	16423.54
489.10	16802.71
489.28	17252.09
489.46	17156.13
489.64	17219.32
489.81	17249.75
489.99	17362.09
490.17	17352.73
490.35	17652.32
490.53	17797.43
490.70	18270.22
490.88	17898.08
491.06	18242.14
491.24	18274.90
491.41	18382.57
491.59	18487.89
491.77	18513.64
491.95	18658.75
492.13	18911.53
492.30	18984.09
492.48	18904.51
492.66	18991.11
492.84	18986.43
493.01	19506.02
493.19	19426.45
493.37	19346.87
493.54	19749.44
493.72	19880.51
493.90	20006.90
494.08	19955.41
494.25	20063.07
494.43	19983.49
494.61	20496.07
494.79	20570.97
494.96	20503.09
495.14	20554.58
495.32	20922.05
495.49	20809.70
495.67	20875.24
495.85	21252.06
496.02	21415.90
496.20	21600.80
496.38	21701.45
496.55	21654.64
496.73	21956.57
496.91	21734.21
497.09	21724.85
497.26	22080.61
497.44	21912.10
497.62	22455.10
497.79	22487.87
497.97	22494.89
498.14	22597.87
498.32	22939.59
498.50	22785.12
498.67	23098.75
498.85	22817.88
499.03	23129.17
499.20	23171.30
499.38	23337.48
499.56	23201.73
499.73	23365.57
499.91	23424.08
500.08	23503.66
500.26	23587.92
500.44	23903.89
500.61	23688.56
500.79	23943.68
500.97	24266.67
501.14	24135.60
501.32	24343.91
501.49	24306.46
501.67	24287.74
501.84	24554.56
502.02	24545.20
502.20	24421.15
502.37	24926.71
502.55	24563.92
502.72	24898.62
502.90	25076.50
503.07	24823.72
503.25	24985.22
503.43	25013.31
503.60	25383.11
503.78	25568.01
503.95	25481.41
504.13	25268.42
504.30	25717.81
504.48	25689.72
504.65	25783.34
504.83	25961.22
505.01	26043.14
505.18	26001.01
505.36	26272.51
505.53	26096.97
505.71	26288.90
505.88	26258.47
506.06	26478.48
506.23	26288.90
506.41	26408.26
506.58	26778.07
506.76	26747.64
506.93	27197.02
507.11	26801.47
507.28	26941.91
507.46	26911.48
507.63	26874.03
507.81	27690.88
507.98	27126.81
508.16	27379.59
508.33	27461.51
508.50	28034.94
508.68	27679.18
508.85	28041.96
509.03	28219.84
509.20	28266.65
509.38	28144.94
509.55	27847.69
509.73	28063.02
509.90	28409.42
510.08	28364.95
510.25	28470.28
510.42	28610.71
510.60	28606.03
510.77	28879.87
510.95	29071.79
511.12	28760.50
511.30	28767.52
511.47	28706.67
511.64	28940.72
511.82	29244.99
511.99	29322.23
512.17	29462.66
512.34	29149.03
512.51	29418.19
512.69	30073.54
512.86	29867.58
513.04	29804.38
513.21	29804.38
513.38	29876.94
513.56	29928.43
513.73	30061.84
513.90	30141.42
514.08	30008.01
514.25	30223.34
514.43	30469.09
514.60	30284.19
514.77	30740.60
514.95	30658.68
515.12	30302.92
515.29	30962.95
515.47	30520.59
515.64	31161.89
515.81	30466.75
515.99	30888.05
516.16	31208.70
516.33	31122.10
516.51	31388.92
516.68	31068.27
516.85	31372.54
517.03	31131.47
517.20	31367.86
517.37	31255.51
517.54	31826.60
517.72	31447.44
517.89	31344.45
518.06	31559.78
518.24	31527.02
518.41	31604.25
518.58	31732.98
518.75	31555.10
518.93	31857.03
519.10	31742.35
519.27	32187.05
519.45	32198.75
519.62	32320.46
519.79	32294.71
519.96	32376.63
520.14	32409.40
520.31	32243.22
520.48	32886.87
520.65	32517.06
520.83	33174.75
521.00	33099.86
521.17	32971.13
521.34	33324.55
521.52	33160.71
521.69	33476.68
521.86	33195.82
522.03	33642.86
522.20	33146.67
522.38	34045.43
522.55	33553.92
522.72	33593.71
522.89	33764.57
523.07	34312.25
523.24	34171.82
523.41	34288.85
523.58	33926.07
523.75	34391.83
523.92	34050.11
524.10	34527.58
524.27	34206.93
524.44	34141.39
524.61	34487.79
524.78	34558.01
524.96	34604.82
525.13	34426.94
525.30	34429.28
525.47	34927.81
525.64	34918.45
525.81	34632.91
525.98	34499.50
526.16	35014.41
526.33	35143.14
526.50	35089.31
526.67	34733.55
526.84	35292.94
527.01	34969.94
527.18	35288.26
527.36	35789.13
527.53	35306.98
527.70	35845.30
527.87	35765.73
528.04	35342.09
528.21	35524.65
528.38	35201.66
528.55	36081.70
528.72	35810.20
528.89	36034.89
529.07	35941.27
529.24	35906.16
529.41	35838.28
529.58	35627.63
529.75	36100.42
529.92	35995.10
530.09	35828.92
530.26	35974.03
530.43	36196.38
530.60	36081.70
530.77	35920.20
530.94	36268.94
531.11	36601.30
531.28	36779.18
531.46	36287.67
531.63	36671.51
531.80	36629.38
531.97	37338.57
532.14	36524.06
532.31	36751.09
532.48	36905.57
532.65	37317.50
532.82	36868.12
532.99	37193.45
533.16	37462.61
533.33	36989.83
533.50	37577.30
533.67	37469.64
533.84	36919.61
534.01	37439.21
534.18	37549.21
534.35	37801.99
534.52	37560.92
534.69	37787.95
534.86	37958.81
535.03	37589.00
535.20	37727.10
535.37	38003.28
535.54	38014.98
535.71	37785.61
535.88	37811.35
536.05	37518.79
536.22	37984.55
536.38	38129.67
536.55	37942.42
536.72	38394.15
536.89	37858.17
537.06	38394.15
537.23	38366.06
537.40	37888.59
537.57	38424.57
537.74	38218.61
537.91	38644.59
538.08	38778.00
538.25	38302.87
538.42	38794.38
538.59	38962.90
538.75	38986.30
538.92	39042.48
539.09	38958.22
539.26	39115.03
539.43	39147.80
539.60	38728.84
539.77	39210.99
539.94	38890.34
540.11	39353.77
540.28	38873.96
540.44	39068.22
540.61	39150.14
540.78	39241.42
540.95	39285.89
541.12	39349.09
541.29	39122.05
541.46	39349.09
541.62	39386.54
541.79	39821.87
541.96	39243.76
542.13	39688.46
542.30	39548.03
542.47	39714.21
542.63	39995.07
542.80	39828.90
542.97	40493.61
543.14	39903.79
543.31	39959.97
543.48	40161.25
543.64	40715.96
543.81	40535.74
543.98	40250.19
544.15	40268.92
544.32	40341.47
544.48	40692.55
544.65	40294.66
544.82	40858.73
544.99	40418.71
545.16	40718.30
545.32	40680.85
545.49	40786.18
545.66	41020.23
545.83	40942.99
546.00	40870.43
546.16	40816.60
546.33	41076.40
546.50	40442.12
546.67	41338.54
546.83	40531.06
547.00	41006.19
547.17	40765.11
547.34	41153.64
547.50	41177.04
547.67	41621.75
547.84	41113.85
548.00	41490.68
548.17	41542.17
548.34	41570.25
548.51	41390.03
548.67	41989.21
548.84	41244.92
549.01	41617.07
549.18	41387.69
549.34	41769.20
549.51	42082.83
549.68	42249.01
549.84	41963.46
550.01	41961.12
550.18	41986.87
550.34	42384.76
550.51	41874.52
550.68	42047.72
550.84	41893.25
551.01	42178.79
551.18	41853.46
551.34	42148.37
551.51	41956.44
551.68	41984.53
551.84	42057.09
552.01	42127.30
552.18	42508.81
552.34	41956.44
552.51	42649.24
552.68	42185.82
552.84	42611.79
553.01	42579.03
553.18	42520.51
553.34	42499.45
553.51	42466.68
553.67	42513.49
553.84	42609.45
554.01	42644.56
554.17	42597.75
554.34	43290.55
554.51	42934.79
554.67	43328.00
554.84	43138.41
555.00	42883.30
555.17	42710.10
555.33	43290.55
555.50	42923.08
555.67	42990.96
555.83	43206.29
556.00	43131.39
556.16	43196.93
556.33	43564.39
556.50	43225.01
556.66	43335.02
556.83	42836.48
556.99	43386.51
557.16	43798.44
557.32	43475.45
557.49	43686.10
557.65	43337.36
557.82	43456.73
557.98	43742.27
558.15	43779.72
558.32	43400.55
558.48	43690.78
558.65	43573.75
558.81	43770.36
558.98	43620.56
559.14	43995.05
559.31	43257.78
559.47	43470.77
559.64	43716.53
559.80	43578.43
559.97	43955.26
560.13	43793.76
560.30	43344.38
560.46	43931.86
560.63	43871.00
560.79	44224.42
560.96	44177.61
561.12	43978.67
561.29	44055.90
561.45	43964.62
561.61	44041.86
561.78	43957.60
561.94	44067.61
562.11	43880.36
562.27	43892.07
562.44	44229.10
562.60	44615.29
562.77	44116.76
562.93	44446.77
563.10	44170.59
563.26	44421.03
563.42	44566.14
563.59	43955.26
563.75	44547.42
563.92	44275.91
564.08	44706.57
564.24	44458.48
564.41	43973.98
564.57	44184.63
564.74	44046.54
564.90	44182.29
565.07	44154.21
565.23	44105.06
565.39	44657.42
565.56	44463.16
565.72	44336.77
565.88	44758.06
566.05	44720.62
566.21	44334.43
566.38	44708.91
566.54	44744.02
566.70	44521.67
566.87	44762.75
567.03	44210.38
567.19	45062.33
567.36	44547.42
567.52	44318.04
567.68	44800.19
567.85	44460.82
568.01	44835.30
568.17	45027.23
568.34	44701.89
568.50	44835.30
568.66	44505.29
568.83	44751.04
568.99	44842.32
569.15	44957.01
569.32	44814.24
569.48	44851.69
569.64	45088.08
569.81	45116.17
569.97	44928.92
570.13	45102.12
570.30	44793.17
570.46	44975.73
570.62	45244.90
570.78	44821.26
570.95	44989.78
571.11	45174.68
571.27	44671.46
571.43	44739.34
571.60	44832.96
571.76	45202.77
571.92	45076.38
572.09	45324.47
572.25	45181.70
572.41	45059.99
572.57	44924.24
572.74	45457.88
572.90	44678.49
573.06	45359.58
573.22	45008.50
573.38	45256.60
573.55	45338.52
573.71	45619.38
573.87	45162.98
574.03	45198.09
574.20	45387.67
574.36	45507.04
574.52	45439.16
574.68	45425.12
574.84	45258.94
575.01	45425.12
575.17	45883.86
575.33	45476.61
575.49	45574.91
575.65	45275.32
575.82	45460.23
575.98	45298.73
576.14	45624.06
576.30	45839.39
576.46	45294.05
576.62	45170.00
576.79	45745.77
576.95	44746.36
577.11	45233.19
577.27	45354.90
577.43	45301.07
577.59	45488.31
577.75	45041.27
577.92	44875.09
578.08	45413.41
578.24	45399.37
578.40	45689.60
578.56	45640.45
578.72	45371.28
578.88	45581.93
579.04	45359.58
579.21	45359.58
579.37	45724.71
579.53	45708.32
579.69	45375.97
579.85	45528.10
580.01	45354.90
580.17	45476.61
580.33	45514.06
580.49	45247.24
580.65	45815.99
580.82	45572.57
580.98	45179.36
581.14	45385.33
581.30	45991.53
581.46	45408.73
581.62	45357.24
581.78	45544.48
581.94	45956.42
582.10	45415.76
582.26	45865.14
582.42	45624.06
582.58	45570.23
582.74	45542.14
582.90	45780.88
583.06	45715.34
583.22	45467.25
583.38	45865.14
583.54	45823.01
583.70	45368.94
583.86	45713.00
584.02	45359.58
584.18	46078.13
584.34	45694.28
584.50	45872.16
584.66	45567.89
584.82	45598.32
584.98	46136.64
585.14	45998.55
585.30	45579.59
585.46	45378.31
585.62	45610.02
585.78	45635.77
585.94	45401.71
586.10	46003.23
586.26	45521.08
586.42	45574.91
586.58	45694.28
586.74	45404.05
586.90	45532.78
587.06	45612.36
587.22	45923.65
587.38	45834.71
587.54	46005.57
587.70	46021.95
587.86	46075.79
588.02	45727.05
588.18	45553.85
588.34	45666.19
588.49	46010.25
588.65	45666.19
588.81	46014.93
588.97	45792.58
589.13	45595.98
589.29	45563.21
589.45	46387.08
589.61	46038.34
589.77	46375.37
589.93	46213.88
590.08	46026.63
590.24	46248.99
590.40	46672.62
590.56	46560.28
590.72	46244.30
590.88	45883.86
591.04	45963.44
591.20	46614.11
591.35	46279.41
591.51	46412.82
591.67	46775.61
591.83	46401.12
591.99	45855.78
592.15	46337.93
592.31	46206.86
592.46	45928.33
592.62	45652.15
592.78	46040.68
592.94	46665.60
593.10	45909.61
593.26	46588.36
593.41	46375.37
593.57	46330.90
593.73	46447.93
593.89	46155.36
594.05	46590.70
594.20	46450.27
594.36	46777.95
594.52	46349.63
594.68	46464.32
594.84	45787.90
594.99	46321.54
595.15	46108.55
595.31	46248.99
595.47	46508.79
595.62	46672.62
595.78	46487.72
595.94	46876.25
596.10	46337.93
596.25	46309.84
596.41	46705.39
596.57	46480.70
596.73	46445.59
596.88	46646.88
597.04	46347.29
597.20	46937.10
597.36	46548.57
597.51	46820.08
597.67	46483.04
597.83	46532.19
597.99	46576.66
598.14	46478.36
598.30	46483.04
598.46	46387.08
598.61	46983.91
598.77	46600.07
598.93	46574.32
599.09	46632.83
599.24	47239.03
599.40	46623.47
599.56	46525.17
599.71	46829.44
599.87	46815.40
600.03	46965.19
600.18	46810.71
600.34	46241.96
600.50	46333.24
600.65	46480.70
600.81	46995.62
600.97	47049.45
601.12	46595.38
601.28	47056.47
601.44	46674.96
601.59	46590.70
601.75	46373.03
601.91	47030.72
602.06	46738.16
602.22	46756.88
602.37	46850.50
602.53	46878.59
602.69	46632.83
602.84	46649.22
603.00	46550.91
603.16	46646.88
603.31	46536.87
603.47	46752.20
603.62	46550.91
603.78	46822.42
603.94	46387.08
604.09	46813.05
604.25	46429.21
604.40	46630.49
604.56	46756.88
604.71	46791.99
604.87	46824.76
605.03	46749.86
605.18	46588.36
605.34	46197.49
605.49	46361.33
605.65	46932.42
605.80	45947.06
605.96	46377.72
606.12	46492.40
606.27	46471.34
606.43	46642.20
606.58	46761.56
606.74	46639.86
606.89	46557.94
607.05	46574.32
607.20	46726.46
607.36	46773.27
607.51	46417.50
607.67	46305.16
607.82	46459.63
607.98	46307.50
608.13	46380.06
608.29	45977.48
608.44	46263.03
608.60	46218.56
608.75	46621.13
608.91	46085.15
609.06	46258.35
609.22	46644.54
609.37	46232.60
609.53	46251.33
609.68	46202.18
609.84	46131.96
609.99	46351.97
610.15	46309.84
610.30	45937.69
610.46	46066.42
610.61	46167.07
610.76	46429.21
610.92	46195.15
611.07	45867.48
611.23	45820.67
611.38	46300.48
611.54	46342.61
611.69	46061.74
611.84	46450.27
612.00	46635.17
612.15	46309.84
612.31	46466.66
612.46	45815.99
612.62	45977.48
612.77	45825.35
612.92	45862.80
613.08	46368.35
613.23	45883.86
613.39	46263.03
613.54	46258.35
613.69	46293.46
613.85	45865.14
614.00	46050.04
614.15	45916.63
614.31	45722.37
614.46	45888.54
614.62	45296.39
614.77	46218.56
614.92	45918.97
615.08	46117.92
615.23	45656.83
615.38	46197.49
615.54	45830.03
615.69	45806.62
615.84	45876.84
616.00	46293.46
616.15	45930.67
616.30	45684.92
616.46	45696.62
616.61	45806.62
616.76	45815.99
616.92	45563.21
617.07	45729.39
617.22	45514.06
617.37	45345.54
617.53	45811.31
617.68	45801.94
617.83	45425.12
617.99	45977.48
618.14	45855.78
618.29	45385.33
618.45	45532.78
618.60	45226.17
618.75	45366.60
618.90	45263.62
619.06	45530.44
619.21	45357.24
619.36	45471.93
619.51	44854.03
619.67	45425.12
619.82	45155.96
619.97	45521.08
620.12	45174.68
620.28	45577.25
620.43	45347.88
620.58	45354.90
620.73	45340.86
620.89	45764.49
621.04	45464.91
621.19	45352.56
621.34	45581.93
621.49	45010.84
621.65	45331.50
621.80	45581.93
621.95	45167.66
622.10	44935.95
622.25	45237.87
622.41	45081.06
622.56	45418.10
622.71	45078.72
622.86	44706.57
623.01	44762.75
623.16	45139.57
623.32	45390.01
623.47	44643.38
623.62	44694.87
623.77	45083.40
623.92	45008.50
624.07	45010.84
624.23	45078.72
624.38	44893.82
624.53	44741.68
624.68	44697.21
624.83	44484.22
624.98	44811.90
625.13	44186.97
625.29	44238.47
625.44	44488.90
625.59	44673.81
625.74	44456.14
625.89	44381.24
626.04	44477.20
626.19	44563.80
626.34	44872.75
626.49	44247.83
626.65	44222.08
626.80	43978.67
626.95	43952.92
627.10	44025.48
627.25	44226.76
627.40	44196.34
627.55	44465.50
627.70	44486.56
627.85	44662.10
628.00	44313.36
628.15	44114.42
628.30	43559.71
628.45	43538.65
628.60	43409.92
628.76	43580.78
628.91	44020.80
629.06	43409.92
629.21	43845.26
629.36	44137.82
629.51	43730.57
629.66	43990.37
629.81	43620.56
629.96	43707.16
630.11	43388.85
630.26	44053.56
630.41	43695.46
630.56	43505.88
630.71	43538.65
630.86	43646.31
631.01	43447.36
631.16	43358.42
631.31	43620.56
631.46	43384.17
631.61	43828.87
631.76	44151.87
631.91	43580.78
632.06	43962.28
632.21	43931.86
632.36	43981.01
632.51	42983.94
632.66	43147.78
632.81	43281.19
632.96	43288.21
633.10	43126.71
633.25	43538.65
633.40	43276.51
633.55	43658.01
633.70	43606.52
633.85	43154.80
634.00	43477.79
634.15	43159.48
634.30	42902.02
634.45	43246.08
634.60	43246.08
634.75	42988.62
634.90	42670.31
635.05	43384.17
635.19	43473.11
635.34	42696.05
635.49	42887.98
635.64	42777.97
635.79	42859.89
635.94	43026.07
636.09	43182.88
636.24	42878.61
636.39	42951.17
636.53	42649.24
636.68	42618.81
636.83	42653.92
636.98	42284.12
637.13	42536.90
637.28	42672.65
637.43	42639.88
637.57	42738.18
637.72	42513.49
637.87	42707.76
638.02	42698.39
638.17	42162.41
638.32	42595.41
638.46	42326.25
638.61	42094.53
638.76	42045.38
638.91	42270.08
639.06	42450.30
639.20	42213.90
639.35	42436.25
639.50	41965.81
639.65	42462.00
639.80	42225.60
639.94	42087.51
640.09	41940.06
640.24	42440.93
640.39	41816.01
640.54	41642.81
640.68	42007.94
640.83	42424.55
640.98	41916.65
641.13	41841.76
641.27	42059.43
641.42	41551.53
641.57	42223.26
641.72	41935.38
641.86	41923.68
642.01	41752.82
642.16	41839.42
642.31	41069.38
642.45	41769.20
642.60	41546.85
642.75	41647.49
642.90	42225.60
643.04	41490.68
643.19	41420.46
643.34	41696.64
643.48	41436.84
643.63	41549.19
643.78	41418.12
643.93	41624.09
644.07	41453.23
644.22	41621.75
644.37	41177.04
644.51	41769.20
644.66	41666.22
644.81	41471.95
644.95	41528.13
645.10	41275.35
645.25	41008.53
645.39	40854.05
645.54	41132.57
645.69	41104.49
645.83	41350.24
645.98	40921.93
646.13	41064.70
646.27	41060.02
646.42	40458.50
646.57	41291.73
646.71	41144.28
646.86	41041.29
647.00	41233.22
647.15	41181.73
647.30	40933.63
647.44	40910.22
647.59	41172.36
647.74	40882.14
647.88	40676.17
648.03	41127.89
648.17	41268.33
648.32	40673.83
648.47	41443.87
648.61	40659.79
648.76	40680.85
648.90	40746.39
649.05	40631.70
649.20	41027.25
649.34	40566.16
649.49	40542.76
649.63	40776.81
649.78	40484.25
649.92	40842.35
650.07	41338.54
650.21	40814.26
650.36	40540.42
650.51	40491.27
650.65	40947.67
650.80	40418.71
650.94	40505.31
651.09	40161.25
651.23	40353.18
651.38	40266.58
651.52	40334.45
651.67	40353.18
651.81	40444.46
651.96	40395.31
652.10	39899.11
652.25	39995.07
652.39	40081.67
652.54	40072.31
652.68	39873.37
652.83	40165.93
652.97	40243.17
653.12	40154.23
653.26	40032.52
653.41	39864.00
653.55	40212.74
653.70	40102.74
653.84	40601.27
653.99	40140.19
654.13	39913.16
654.27	39880.39
654.42	40102.74
654.56	39751.66
654.71	40074.65
654.85	39894.43
655.00	39643.99
655.14	39892.09
655.29	39871.03
655.43	40376.58
655.57	39861.66
655.72	39445.05
655.86	39667.40
656.01	39213.34
656.15	39569.10
656.30	39196.95
656.44	39751.66
656.58	39627.61
656.73	39515.26
656.87	39203.97
657.01	39206.31
657.16	39438.03
657.30	39306.96
657.45	39330.36
657.59	39030.77
657.73	38895.02
657.88	39112.69
658.02	39454.41
658.16	39365.47
658.31	39349.09
658.45	39276.53
658.60	38909.07
658.74	39335.04
658.88	39419.30
659.03	38698.42
659.17	38913.75
659.31	38501.81
659.46	39016.73
659.60	38770.97
659.74	39089.29
659.89	37823.06
660.03	38611.82
660.17	38550.96
660.32	38642.24
660.46	38555.64
660.60	38300.53
660.74	38335.63
660.89	38492.45
661.03	38328.61
661.17	38342.66
661.32	38115.62
661.46	38562.67
661.60	38052.43
661.74	38246.69
661.89	38127.33
662.03	37858.17
662.17	37834.76
662.31	38106.26
662.46	37886.25
662.60	37270.69
662.74	37261.33
662.88	37511.77
663.03	37357.29
663.17	37198.13
663.31	37205.16
663.45	37235.58
663.60	37944.76
663.74	37518.79
663.88	37233.24
664.02	37354.95
664.17	37420.48
664.31	37067.06
664.45	36992.17
664.59	37118.56
664.73	36945.36
664.88	37233.24
665.02	36250.22
665.16	36849.39
665.30	36467.89
665.44	36919.61
665.59	36680.88
665.73	36449.16
665.87	36006.80
666.01	36954.72
666.15	36598.96
666.29	36598.96
666.44	36795.56
666.58	36341.50
666.72	36282.98
666.86	36268.94
667.00	36364.90
667.14	35950.63
667.28	35924.88
667.43	35915.52
667.57	36315.75
667.71	36203.41
667.85	35784.45
667.99	36055.95
668.13	35763.39
668.27	35009.73
668.41	35232.08
668.56	34995.69
668.70	35267.19
668.84	35077.61
668.98	34995.69
669.12	35147.82
669.26	35274.21
669.40	35604.23
669.54	35023.78
669.68	35072.93
669.82	34923.13
669.96	34670.36
670.10	34251.40
670.25	34983.99
670.39	34473.75
670.53	34986.33
670.67	34937.18
670.81	34932.50
670.95	34511.20
671.09	34050.11
671.23	34366.09
671.37	34206.93
671.51	34431.62
671.65	34244.38
671.79	34174.16
671.93	34251.40
672.07	34178.84
672.21	34022.03
672.35	33696.69
672.49	33886.28
672.63	33869.89
672.77	33727.12
672.91	33717.76
673.05	33069.43
673.19	33443.91
673.33	33310.50
673.47	33357.32
673.61	32730.05
673.75	32947.72
673.89	32643.45
674.03	32804.95
674.17	32517.06
674.31	32559.19
674.45	32685.58
674.59	32858.78
674.73	32418.76
674.87	32250.24
675.01	32130.87
675.15	32067.68
675.29	31854.69
675.43	32435.14
675.56	32170.66
675.70	32086.40
675.84	31941.29
675.98	30941.88
676.12	32060.66
676.26	31789.16
676.40	31353.82
676.54	31587.87
676.68	31054.23
676.82	30815.49
676.96	31131.47
677.10	31047.21
677.23	31328.07
677.37	31150.19
677.51	30817.83
677.65	31145.51
677.79	30661.02
677.93	30661.02
678.07	30281.85
678.21	30618.89
678.34	29954.18
678.48	29862.90
678.62	30008.01
678.76	29780.98
678.90	29844.17
679.04	30036.09
679.18	29975.24
679.31	29364.36
679.45	30015.03
679.59	29490.75
679.73	29282.44
679.87	29315.21
680.00	29106.90
680.14	29336.27
680.28	29139.67
680.42	28980.51
680.56	28809.65
680.70	28676.24
680.83	28339.21
680.97	28261.97
681.11	28884.55
681.25	28091.11
681.39	28093.45
681.52	28273.67
681.66	28107.49
681.80	27384.27
681.94	27550.45
682.07	27452.14
682.21	27566.83
682.35	27173.62
682.49	27440.44
682.62	27363.20
682.76	27456.82
682.90	27143.19
683.04	27269.58
683.17	27344.48
683.31	26698.49
683.45	26752.32
683.59	26679.77
683.72	26520.61
683.86	26780.41
684.00	26885.73
684.13	26459.76
684.27	26401.24
684.41	26368.48
684.55	26185.91
684.68	26199.96
684.82	25989.31
684.96	25860.58
685.09	25640.57
685.23	25876.96
685.37	25846.54
685.50	25930.80
685.64	25844.20
685.78	25497.80
685.91	25223.95
686.05	24807.34
686.19	24304.12
686.32	24599.03
686.46	24781.59
686.60	24503.07
686.73	24636.48
686.87	24816.70
687.01	24418.81
687.14	24692.65
687.28	24769.89
687.42	24334.55
687.55	24276.04
687.69	23941.34
687.82	23908.57
687.96	23543.45
688.10	23873.46
688.23	23800.91
688.37	23620.69
688.50	23613.66
688.64	23681.54
688.78	23625.37
688.91	23136.20
689.05	23445.15
689.18	22745.33
689.32	22452.76
689.46	22286.58
689.59	22871.72
689.73	22902.14
689.86	22874.06
690.00	22672.77
690.13	22607.23
690.27	22302.96
690.41	22427.01
690.54	22324.03
690.68	22256.15
690.81	22118.06
690.95	21795.07
691.08	21694.43
691.22	21462.71
691.35	21692.08
691.49	21788.05
691.62	21598.46
691.76	21177.17
691.89	21160.78
692.03	20828.43
692.16	20847.15
692.30	20879.92
692.43	20868.22
692.57	20458.62
692.70	20725.44
692.84	20704.38
692.97	20400.11
693.11	20313.51
693.24	20304.15
693.38	20114.56
693.51	19981.15
693.65	20325.21
693.78	20159.03
693.92	19697.95
694.05	19824.34
694.19	19578.58
694.32	19772.85
694.45	19892.21
694.59	19667.52
694.72	19616.03
694.86	19679.22
694.99	19124.52
695.13	19278.99
695.26	19012.17
695.39	18808.54
695.53	19204.10
695.66	19126.86
695.80	18773.44
695.93	18597.90
696.07	18434.06
696.20	18359.16
696.33	18099.36
696.47	18050.21
696.60	18068.94
696.73	18319.37
696.87	18057.23
697.00	18157.88
697.14	17984.68
697.27	17919.14
697.40	17493.16
697.54	17743.60
697.67	17593.81
697.80	17628.92
697.94	17341.03
698.07	17308.26
698.21	17439.33
698.34	17273.15
698.47	16917.39
698.61	16683.34
698.74	16786.32
698.87	17139.74
699.01	16423.54
699.14	16746.53
699.27	16627.17
699.40	16451.63
699.54	16362.69
699.67	16432.90
699.80	16421.20
699.94	16327.58
700.07	16336.94
700.20	16039.69
700.34	16037.35
700.47	15894.58
700.60	16362.69
700.73	16182.46
700.87	15669.89
701.00	15487.32
701.13	15309.44
701.26	15356.25
701.40	15396.04
701.53	15396.04
701.66	15194.76
701.79	15295.40
701.93	15110.50
702.06	14752.40
702.19	14920.92
702.32	15215.82
702.46	15023.90
702.59	14911.55
702.72	14848.36
702.85	14686.86
702.99	14766.44
703.12	14780.48
703.25	14611.96
703.38	14410.68
703.51	14490.26
703.65	14061.94
703.78	13867.67
703.91	13961.30
704.04	14097.05
704.17	13654.69
704.31	13975.34
704.44	13846.61
704.57	14001.08
704.70	13790.44
704.83	13504.89
704.96	13319.99
705.10	13474.46
705.23	13205.30
>>>>>End Processed Spectral Data<<<<<
