SpectraSuite Data File
++++++++++++++++++++++++++++++++++++
Date: Fri Oct 25 10:43:35 EDT 2013
User: price-jones
Dark Spectrum Present: No
Reference Spectrum Present: No
Number of Sampled Component Spectra: 1
Spectrometers: USB2+H05261
Integration Time (usec): 100000 (USB2+H05261)
Spectra Averaged: 1 (USB2+H05261)
Boxcar Smoothing: 0 (USB2+H05261)
Correct for Electrical Dark: No (USB2+H05261)
Strobe/Lamp Enabled: No (USB2+H05261)
Correct for Detector Non-linearity: No (USB2+H05261)
Correct for Stray Light: No (USB2+H05261)
Number of Pixels in Processed Spectrum: 2048
>>>>>Begin Processed Spectral Data<<<<<
365.73	95.96
365.92	95.96
366.12	95.96
366.32	84.26
366.52	21.06
366.72	0.00
366.91	65.54
367.11	42.13
367.31	0.00
367.51	0.00
367.70	42.13
367.90	46.81
368.10	18.72
368.30	39.79
368.49	32.77
368.69	102.98
368.89	23.41
369.09	32.77
369.28	23.41
369.48	32.77
369.68	140.43
369.87	126.39
370.07	121.71
370.27	124.05
370.47	201.29
370.66	266.82
370.86	517.26
371.06	388.53
371.25	531.30
371.45	416.62
371.65	454.06
371.84	440.02
372.04	411.93
372.24	498.53
372.44	470.45
372.63	503.22
372.83	514.92
373.03	503.22
373.22	486.83
373.42	571.09
373.62	543.00
373.81	578.11
374.01	613.22
374.21	580.45
374.40	510.24
374.60	620.24
374.79	528.96
374.99	683.44
375.19	538.32
375.38	620.24
375.58	566.41
375.78	627.26
375.97	662.37
376.17	617.90
376.37	594.50
376.56	566.41
376.76	580.45
376.95	606.20
377.15	695.14
377.35	657.69
377.54	648.33
377.74	692.80
377.93	681.10
378.13	603.86
378.33	692.80
378.52	631.94
378.72	690.46
378.91	653.01
379.11	573.43
379.31	641.31
379.50	746.63
379.70	664.71
379.89	681.10
380.09	772.38
380.28	699.82
380.48	741.95
380.68	704.50
380.87	634.29
381.07	711.52
381.26	725.57
381.46	739.61
381.65	732.59
381.85	833.23
382.04	669.39
382.24	713.86
382.43	655.35
382.63	676.41
382.83	725.57
383.02	746.63
383.22	758.33
383.41	725.57
383.61	760.67
383.80	802.80
384.00	821.53
384.19	847.27
384.39	849.61
384.58	779.40
384.78	793.44
384.97	812.17
385.17	847.27
385.36	770.04
385.56	795.78
385.75	791.10
385.95	858.98
386.14	882.38
386.34	835.57
386.53	866.00
386.72	887.06
386.92	889.40
387.11	919.83
387.31	952.60
387.50	922.17
387.70	938.55
387.89	877.70
388.09	896.43
388.28	777.06
388.48	947.92
388.67	912.81
388.86	992.39
389.06	992.39
389.25	968.98
389.45	957.28
389.64	936.21
389.84	1036.86
390.03	1039.20
390.22	973.66
390.42	1050.90
390.61	1067.28
390.81	1020.47
391.00	1027.50
391.19	1069.62
391.39	1174.95
391.58	1055.58
391.78	1020.47
391.97	961.96
392.16	1036.86
392.36	1060.26
392.55	1064.94
392.75	990.05
392.94	966.64
393.13	954.94
393.33	1043.88
393.52	997.07
393.71	1137.50
393.91	1121.12
394.10	1135.16
394.29	1160.91
394.49	1151.54
394.68	1238.14
394.88	1277.93
395.07	1184.31
395.26	1198.35
395.46	1378.58
395.65	1348.15
395.84	1221.76
396.04	1296.66
396.23	1242.82
396.42	1083.67
396.62	1177.29
396.81	1217.08
397.00	1212.40
397.19	1315.38
397.39	1366.87
397.58	1392.62
397.77	1448.79
397.97	1451.13
398.16	1451.13
398.35	1528.37
398.55	1427.73
398.74	1561.14
398.93	1549.43
399.12	1514.33
399.32	1535.39
399.51	1490.92
399.70	1619.65
399.90	1586.88
400.09	1643.06
400.28	1661.78
400.47	1629.01
400.67	1701.57
400.86	1771.79
401.05	1713.27
401.24	1741.36
401.44	1715.61
401.63	1811.57
401.82	1694.55
402.01	1680.50
402.21	1804.55
402.40	1788.17
402.59	1788.17
402.78	1755.40
402.97	1661.78
403.17	1844.34
403.36	1919.24
403.55	1907.54
403.74	1919.24
403.93	1982.43
404.13	1893.49
404.32	1895.83
404.51	1933.28
404.70	2003.50
404.89	1937.96
405.09	2005.84
405.28	1947.33
405.47	1959.03
405.66	1963.71
405.85	2017.54
406.05	2108.82
406.24	2033.93
406.43	2122.87
406.62	2207.13
406.81	2167.34
407.00	2101.80
407.20	2090.10
407.39	2139.25
407.58	2169.68
407.77	2256.28
407.96	2253.94
408.15	2286.70
408.34	2167.34
408.54	2317.13
408.73	2291.38
408.92	2422.45
409.11	2373.30
409.30	2342.88
409.49	2303.09
409.68	2244.57
409.87	2387.35
410.07	2305.43
410.26	2422.45
410.45	2455.22
410.64	2513.74
410.83	2626.08
411.02	2539.48
411.21	2635.44
411.40	2635.44
411.59	2675.23
411.78	2686.94
411.98	2658.85
412.17	2780.56
412.36	2663.53
412.55	2752.47
412.74	2829.71
412.93	2846.09
413.12	2820.35
413.31	2867.16
413.50	2806.30
413.69	2956.10
413.88	2951.42
414.07	2841.41
414.26	2920.99
414.45	3045.04
414.64	2998.23
414.83	3155.04
415.02	3157.38
415.22	3185.47
415.41	3122.27
415.60	3187.81
415.79	3281.43
415.98	3335.26
416.17	3379.73
416.36	3349.31
416.55	3335.26
416.74	3372.71
416.93	3307.18
417.12	3445.27
417.31	3363.35
417.50	3445.27
417.69	3522.51
417.88	3489.74
418.07	3412.50
418.26	3403.14
418.45	3543.57
418.64	3768.26
418.83	3705.07
419.02	3648.90
419.21	3590.38
419.39	3676.98
419.58	3660.60
419.77	3756.56
419.96	3693.37
420.15	3723.79
420.34	3761.24
420.53	3808.05
420.72	3815.07
420.91	3927.42
421.10	3840.82
421.29	3953.16
421.48	3892.31
421.67	3882.95
421.86	3960.19
422.05	3829.12
422.24	3866.56
422.43	3878.27
422.61	3817.41
422.80	4044.45
422.99	3908.69
423.18	4086.58
423.37	4105.30
423.56	3950.82
423.75	3997.64
423.94	4100.62
424.13	3803.37
424.32	3927.42
424.50	3934.44
424.69	4147.43
424.88	4121.68
425.07	3932.10
425.26	3962.53
425.45	3964.87
425.64	3948.48
425.83	4044.45
426.01	4156.79
426.20	4063.17
426.39	4107.64
426.58	4035.08
426.77	3955.51
426.96	4095.94
427.15	3997.64
427.33	4131.05
427.52	4058.49
427.71	4238.71
427.90	4292.54
428.09	4304.25
428.28	4021.04
428.46	4255.09
428.65	4248.07
428.84	4484.47
429.03	4390.84
429.22	4079.55
429.40	4145.09
429.59	4072.53
429.78	4177.86
429.97	3845.50
430.16	3985.93
430.34	4084.23
430.53	4189.56
430.72	4304.25
430.91	4156.79
431.10	4444.68
431.28	4510.21
431.47	4865.97
431.66	4702.14
431.85	4620.22
432.03	4753.63
432.22	4847.25
432.41	4788.74
432.60	4896.40
432.79	4713.84
432.97	4943.21
433.16	4919.81
433.35	4777.03
433.54	4793.42
433.72	4760.65
433.91	4880.02
434.10	4791.08
434.28	4880.02
434.47	4978.32
434.66	5062.58
434.85	5111.73
435.03	5050.88
435.22	4961.94
435.41	5177.26
435.59	5170.24
435.78	5228.76
435.97	5057.90
436.16	5275.57
436.34	5282.59
436.53	5245.14
436.72	5486.22
436.90	5191.31
437.09	5315.36
437.28	5130.45
437.46	5172.58
437.65	5291.95
437.84	5268.55
438.02	5275.57
438.21	5181.95
438.40	5203.01
438.58	5282.59
438.77	5703.89
438.96	5598.56
439.14	5600.90
439.33	5849.00
439.52	5734.31
439.70	5811.55
439.89	5776.44
440.08	5816.23
440.26	5710.91
440.45	5813.89
440.63	5989.43
440.82	6279.66
441.01	6057.31
441.19	6113.48
441.38	6146.25
441.57	6267.95
441.75	6291.36
441.94	6494.99
442.12	6370.94
442.31	6534.78
442.50	6490.31
442.68	6478.60
442.87	6452.86
443.05	6429.45
443.24	6471.58
443.43	6612.01
443.61	6600.31
443.80	6869.47
443.98	6434.13
444.17	6469.24
444.35	6670.53
444.54	6724.36
444.73	6712.66
444.91	6754.79
445.10	6810.96
445.28	6630.74
445.47	6424.77
445.65	6420.09
445.84	6700.95
446.02	6630.74
446.21	6691.59
446.39	6775.85
446.58	6778.19
446.77	6623.72
446.95	6619.04
447.14	6775.85
447.32	6939.69
447.51	6808.62
447.69	6729.04
447.88	6803.94
448.06	6927.99
448.25	6747.76
448.43	6979.48
448.62	6822.66
448.80	7021.61
448.99	7194.81
449.17	7026.29
449.36	6953.73
449.54	7073.10
449.73	7150.34
449.91	7162.04
450.10	7375.03
450.28	7489.71
450.46	7414.82
450.65	7117.57
450.83	7220.55
451.02	7363.33
451.20	7449.93
451.39	7342.26
451.57	7391.41
451.76	7276.73
451.94	7297.79
452.13	7344.60
452.31	7283.75
452.49	7260.34
452.68	7295.45
452.86	7204.17
453.05	7391.41
453.23	7365.67
453.42	7552.91
453.60	7410.14
453.78	7618.44
453.97	7698.02
454.15	7506.10
454.34	7557.59
454.52	7524.82
454.70	7510.78
454.89	7639.51
455.07	7714.41
455.26	7590.36
455.44	7999.95
455.62	8018.68
455.81	7946.12
455.99	7922.71
456.17	7950.80
456.36	7941.44
456.54	8145.06
456.73	8142.72
456.91	8341.67
457.09	8390.82
457.28	8353.37
457.46	8219.96
457.64	8269.11
457.83	8381.46
458.01	8336.99
458.19	8568.70
458.38	8248.05
458.56	8472.74
458.74	8477.42
458.93	8320.60
459.11	8484.44
459.29	8437.63
459.48	8540.61
459.66	8404.86
459.84	8468.06
460.03	8823.82
460.21	8524.23
460.39	8561.68
460.57	8671.68
460.76	8690.41
460.94	8765.31
461.12	8819.14
461.31	8615.51
461.49	8643.60
461.67	8847.22
461.85	9193.62
462.04	8945.53
462.22	9378.53
462.40	8987.66
462.59	9095.32
462.77	9284.91
462.95	9198.31
463.13	9050.85
463.32	9158.52
463.50	9240.44
463.68	9268.52
463.86	8992.34
464.05	9181.92
464.23	9214.69
464.41	9221.71
464.59	9107.02
464.78	9322.35
464.96	9336.40
465.14	9144.47
465.32	9240.44
465.50	9483.85
465.69	9544.70
465.87	9561.09
466.05	9357.46
466.23	9523.64
466.41	9352.78
466.60	9362.14
466.78	9259.16
466.96	9348.10
467.14	9458.10
467.32	9486.19
467.51	9870.04
467.69	9479.17
467.87	9666.41
468.05	9479.17
468.23	9544.70
468.41	9504.92
468.60	9678.12
468.78	9905.15
468.96	9682.80
469.14	9844.29
469.32	10092.39
469.50	9631.30
469.69	9844.29
469.87	9984.73
470.05	10001.11
470.23	10038.56
470.41	10246.87
470.59	9958.98
470.77	9834.93
470.95	10092.39
471.14	10377.94
471.32	10186.01
471.50	10335.81
471.68	10410.70
471.86	10417.72
472.04	10754.76
472.22	10658.80
472.40	10459.85
472.58	10574.54
472.77	10740.72
472.95	10888.17
473.13	10998.18
473.31	10630.71
473.49	10764.12
473.67	10869.45
473.85	10836.68
474.03	11115.20
474.21	11192.44
474.39	11398.41
474.57	11105.84
474.75	11218.19
474.93	11288.40
475.12	11302.45
475.30	11426.50
475.48	11337.56
475.66	11363.30
475.84	11440.54
476.02	11609.06
476.20	11686.29
476.38	12002.27
476.56	12037.38
476.74	12070.14
476.92	12028.01
477.10	12056.10
477.28	12203.55
477.46	12343.99
477.64	12496.12
477.82	12634.21
478.00	12847.20
478.18	12652.94
478.36	12912.74
478.54	13018.06
478.72	12776.98
478.90	13212.32
479.08	13282.54
479.26	13425.31
479.44	13392.55
479.62	13638.30
479.80	13486.17
479.98	13642.98
480.16	13792.78
480.34	13708.52
480.52	14118.11
480.70	14333.44
480.88	13802.14
481.06	14354.51
481.24	14057.26
481.41	14597.92
481.59	14537.07
481.77	14590.90
481.95	14672.82
482.13	14806.23
482.31	14986.45
482.49	15197.10
482.67	15332.85
482.85	15260.29
483.03	15475.62
483.21	15576.27
483.39	15597.33
483.57	15463.92
483.74	15620.74
483.92	15922.66
484.10	15665.21
484.28	16086.50
484.46	16542.91
484.64	16290.13
484.82	16390.77
485.00	16486.73
485.18	16678.66
485.35	16786.32
485.53	16381.41
485.71	16243.32
485.89	16580.36
486.07	16800.37
486.25	16893.99
486.43	17198.26
486.61	17027.40
486.78	17500.19
486.96	17678.07
487.14	17806.80
487.32	18211.71
487.50	18111.07
487.68	18391.93
487.85	18712.58
488.03	18623.64
488.21	18864.72
488.39	18803.86
488.57	18920.89
488.75	19056.64
488.92	19452.19
489.10	19653.48
489.28	19768.16
489.46	20044.35
489.64	19847.74
489.81	20311.17
489.99	20116.90
490.17	20407.13
490.35	20446.92
490.53	20531.18
490.70	20688.00
490.88	20798.00
491.06	21060.14
491.24	20868.22
491.41	21048.44
491.59	20919.71
491.77	21216.96
491.95	21434.63
492.13	21827.84
492.30	21727.19
492.48	21869.97
492.66	22260.84
492.84	22148.49
493.01	22356.80
493.19	22415.31
493.37	22679.79
493.54	22838.95
493.72	22895.12
493.90	23136.20
494.08	23098.75
494.25	23548.13
494.43	23400.68
494.61	23777.50
494.79	23901.55
494.96	23728.35
495.14	23697.92
495.32	24079.43
495.49	24107.52
495.67	24271.36
495.85	24233.91
496.02	24582.65
496.20	24648.18
496.38	24556.90
496.55	24931.39
496.73	25193.53
496.91	25048.41
497.09	25413.54
497.26	25694.40
497.44	25446.30
497.62	25593.76
497.79	25635.89
497.97	25584.40
498.14	25776.32
498.32	26073.57
498.50	25909.73
498.67	26429.33
498.85	26284.22
499.03	26497.20
499.20	26710.19
499.38	26789.77
499.56	26335.71
499.73	26773.39
499.91	26937.23
500.08	27049.57
500.26	26953.61
500.44	27187.66
500.61	27473.21
500.79	27009.78
500.97	27676.83
501.14	27777.48
501.32	27505.98
501.49	27426.40
501.67	27857.06
501.84	27906.21
502.02	27901.53
502.20	27896.85
502.37	28376.66
502.55	28116.86
502.72	28437.51
502.90	28051.32
503.07	28357.93
503.25	28678.58
503.43	28140.26
503.60	28238.56
503.78	28678.58
503.95	28554.54
504.13	28840.08
504.30	28957.11
504.48	28809.65
504.65	29631.18
504.83	29296.49
505.01	29516.50
505.18	29289.46
505.36	29598.41
505.53	29965.88
505.71	30204.61
505.88	30096.95
506.06	29729.48
506.23	30195.25
506.41	29703.74
506.58	30192.91
506.76	30639.95
506.93	30270.15
507.11	29909.71
507.28	30246.74
507.46	30270.15
507.63	30703.15
507.81	30590.80
507.98	30583.78
508.16	30874.01
508.33	30698.47
508.50	30834.22
508.68	31129.12
508.85	31529.36
509.03	31566.81
509.20	31487.23
509.38	31498.93
509.55	31550.42
509.73	31749.37
509.90	31821.92
510.08	31852.35
510.25	31475.52
510.42	31908.52
510.60	32547.49
510.77	32201.09
510.95	32545.15
511.12	31763.41
511.30	32797.93
511.47	32804.95
511.64	32947.72
511.82	33385.40
511.99	32397.70
512.17	32528.77
512.34	32598.98
512.51	33001.55
512.69	33081.13
512.86	33088.15
513.04	33303.48
513.21	33296.46
513.38	33315.19
513.56	33111.56
513.73	33249.65
513.90	33446.26
514.08	33539.88
514.25	33551.58
514.43	33783.29
514.60	33528.17
514.77	33689.67
514.95	34115.65
515.12	34148.42
515.29	34096.92
515.47	34712.49
515.64	34307.57
515.81	34288.85
515.99	34267.78
516.16	34319.28
516.33	33787.97
516.51	34625.89
516.68	33591.37
516.85	33984.58
517.03	33958.83
517.20	34373.11
517.37	34714.83
517.54	34871.64
517.72	34871.64
517.89	34429.28
518.06	34321.62
518.24	34492.47
518.41	34326.30
518.58	34555.67
518.75	34881.00
518.93	35519.97
519.10	34960.58
519.27	35505.93
519.45	35056.54
519.62	35299.96
519.79	35796.15
519.96	35763.39
520.14	35885.09
520.31	35477.84
520.48	35964.67
520.65	35800.83
520.83	35725.94
521.00	36128.51
521.17	36362.56
521.34	36580.23
521.52	36694.92
521.69	36641.09
521.86	36641.09
522.03	36662.15
522.20	36685.56
522.38	36861.10
522.55	36725.35
522.72	36514.70
522.89	36737.05
523.07	36875.14
523.24	37064.72
523.41	37298.78
523.58	37556.24
523.75	37923.70
523.92	37589.00
524.10	37572.62
524.27	37715.39
524.44	37546.87
524.61	37893.27
524.78	37675.60
524.96	37780.93
525.13	37736.46
525.30	38237.33
525.47	38452.66
525.64	38101.58
525.81	37675.60
525.98	37600.71
526.16	37549.21
526.33	37509.43
526.50	37902.64
526.67	37202.82
526.84	38026.68
527.01	37558.58
527.18	37720.07
527.36	38469.04
527.53	38499.47
527.70	38951.20
527.87	38504.15
528.04	38403.51
528.21	39285.89
528.38	39210.99
528.55	39288.23
528.72	39402.92
528.89	39063.54
529.07	39164.18
529.24	38918.43
529.41	39133.76
529.58	39316.32
529.75	39210.99
529.92	39648.68
530.09	39573.78
530.26	39842.94
530.43	39461.43
530.60	39662.72
530.77	39798.47
530.94	39702.51
531.11	40135.51
531.28	39756.34
531.46	40065.29
531.63	40254.87
531.80	39861.66
531.97	39931.88
532.14	39449.73
532.31	39625.27
532.48	39878.05
532.65	40140.19
532.82	40039.54
532.99	40189.34
533.16	40624.68
533.33	40275.94
533.50	40566.16
533.67	40566.16
533.84	40332.11
534.01	40671.49
534.18	40554.46
534.35	40577.87
534.52	40521.69
534.69	41514.08
534.86	40711.28
535.03	40587.23
535.20	41092.79
535.37	41155.98
535.54	41258.96
535.71	41088.10
535.88	41228.54
536.05	40968.74
536.22	41102.15
536.38	41205.13
536.55	41464.93
536.72	41289.39
536.89	40917.25
537.06	41174.70
537.23	41778.56
537.40	41315.14
537.57	41254.28
537.74	41488.34
537.91	41832.39
538.08	41593.66
538.25	41216.83
538.42	41205.13
538.59	41635.79
538.75	41303.43
538.92	41642.81
539.09	41825.37
539.26	41940.06
539.43	41179.39
539.60	41970.49
539.77	41581.96
539.94	41701.32
540.11	41930.70
540.28	42087.51
540.44	41764.52
540.61	42202.20
540.78	42024.32
540.95	42099.22
541.12	42241.99
541.29	42087.51
541.46	41949.42
541.62	42831.80
541.79	42639.88
541.96	41874.52
542.13	42384.76
542.30	42096.88
542.47	42557.96
542.63	42218.58
542.80	42749.88
542.97	42852.87
543.14	43007.34
543.31	43044.79
543.48	43054.15
543.64	43356.08
543.81	43225.01
543.98	42937.13
544.15	42911.38
544.32	43278.85
544.48	43948.24
544.65	43154.80
544.82	43449.70
544.99	42789.67
545.16	43206.29
545.32	43152.46
545.49	43498.86
545.66	43690.78
545.83	43290.55
546.00	43744.61
546.16	43494.18
546.33	43676.74
546.50	43498.86
546.67	43463.75
546.83	42948.83
547.00	43856.96
547.17	43679.08
547.34	43426.30
547.50	43545.67
547.67	44002.07
547.84	43636.95
548.00	44072.29
548.17	44325.07
548.34	44030.16
548.51	44486.56
548.67	44240.81
548.84	44156.55
549.01	44364.85
549.18	43770.36
549.34	43697.80
549.51	44140.16
549.68	44009.09
549.84	43889.73
550.01	44444.43
550.18	44299.32
550.34	44453.79
550.51	44163.57
550.68	44254.85
550.84	44271.23
551.01	44538.05
551.18	44088.67
551.34	44339.11
551.51	44643.38
551.68	44884.45
551.84	44626.99
552.01	44900.84
552.18	44463.16
552.34	44289.96
552.51	44746.36
552.68	44825.94
552.84	44729.98
553.01	44868.07
553.18	45151.27
553.34	44889.13
553.51	44842.32
553.67	44790.83
553.84	45233.19
554.01	45081.06
554.17	44650.40
554.34	45280.00
554.51	44893.82
554.67	45038.93
554.84	44917.22
555.00	44870.41
555.17	44816.58
555.33	45071.70
555.50	45020.20
555.67	44854.03
555.83	45057.65
556.00	45146.59
556.16	45397.03
556.33	45186.38
556.50	45120.85
556.66	45202.77
556.83	45064.67
556.99	45762.15
557.16	45614.70
557.32	45380.65
557.49	45385.33
557.65	45340.86
557.82	45272.98
557.98	45352.56
558.15	45563.21
558.32	45488.31
558.48	45226.17
558.65	45132.55
558.81	45268.30
558.98	45181.70
559.14	45013.18
559.31	45500.01
559.47	44907.86
559.64	45415.76
559.80	45804.28
559.97	45404.05
560.13	45209.79
560.30	45041.27
560.46	45776.20
560.63	45841.73
560.79	45787.90
560.96	45600.66
561.12	45661.51
561.29	45633.42
561.45	45970.46
561.61	45490.65
561.78	45523.42
561.94	45581.93
562.11	45483.63
562.27	45542.14
562.44	45717.68
562.60	45848.75
562.77	45680.24
562.93	45907.27
563.10	46068.76
563.26	45720.02
563.42	45918.97
563.59	45727.05
563.75	45825.35
563.92	45766.84
564.08	45748.11
564.24	45736.41
564.41	46183.45
564.57	46066.42
564.74	45799.60
564.90	45879.18
565.07	45865.14
565.23	45982.16
565.39	45439.16
565.56	46078.13
565.72	45691.94
565.88	46103.87
566.05	45696.62
566.21	45666.19
566.38	45567.89
566.54	45937.69
566.70	45911.95
566.87	46525.17
567.03	45886.20
567.19	46476.02
567.36	46057.06
567.52	46061.74
567.68	46494.74
567.85	45773.86
568.01	45813.65
568.17	46190.47
568.34	46218.56
568.50	46232.60
568.66	46391.76
568.83	46370.69
568.99	45832.37
569.15	46239.62
569.32	45797.26
569.48	45975.14
569.64	46621.13
569.81	46110.89
569.97	46028.98
570.13	46120.26
570.30	45603.00
570.46	45804.28
570.62	45284.68
570.78	45729.39
570.95	45867.48
571.11	46225.58
571.27	45698.96
571.43	45918.97
571.60	46794.33
571.76	46241.96
571.92	46394.10
572.09	46401.12
572.25	46181.11
572.41	46237.28
572.57	46326.22
572.74	46845.82
572.90	46349.63
573.06	46667.94
573.22	46143.66
573.38	46567.30
573.55	46122.60
573.71	46499.42
573.87	46436.23
574.03	46302.82
574.20	46124.94
574.36	46129.62
574.52	46195.15
574.68	46326.22
574.84	46265.37
575.01	46518.15
575.17	46225.58
575.33	45830.03
575.49	45586.61
575.65	46272.39
575.82	46148.34
575.98	46225.58
576.14	46667.94
576.30	46459.63
576.46	46115.58
576.62	46096.85
576.79	45783.22
576.95	46263.03
577.11	46363.67
577.27	46185.79
577.43	46195.15
577.59	46536.87
577.75	46003.23
577.92	46050.04
578.08	46103.87
578.24	46267.71
578.40	46422.19
578.56	46284.09
578.72	46597.73
578.88	46834.12
579.04	46405.80
579.21	46326.22
579.37	45954.08
579.53	45933.01
579.69	46213.88
579.85	46370.69
580.01	46621.13
580.17	46307.50
580.33	46377.72
580.49	46319.20
580.65	46024.29
580.82	46443.25
580.98	46300.48
581.14	45799.60
581.30	46497.08
581.46	46134.30
581.62	46473.68
581.78	46710.07
581.94	46806.03
582.10	46433.89
582.26	46398.78
582.42	46543.89
582.58	46377.72
582.74	46138.98
582.90	46429.21
583.06	46501.76
583.22	46082.81
583.38	46754.54
583.54	46836.46
583.70	47051.79
583.86	46040.68
584.02	45935.35
584.18	46649.22
584.34	46239.62
584.50	46604.75
584.66	46239.62
584.82	46511.13
584.98	46513.47
585.14	46625.81
585.30	46274.73
585.46	46138.98
585.62	46508.79
585.78	46412.82
585.94	45708.32
586.10	46101.53
586.26	46129.62
586.42	46499.42
586.58	46532.19
586.74	46321.54
586.90	46419.84
587.06	46522.83
587.22	46447.93
587.38	46679.64
587.54	46719.43
587.70	46368.35
587.86	46220.90
588.02	46417.50
588.18	46649.22
588.34	46164.73
588.49	45593.64
588.65	45731.73
588.81	45738.75
588.97	46122.60
589.13	45876.84
589.29	46251.33
589.45	46415.16
589.61	46459.63
589.77	46838.80
589.93	46295.80
590.08	46277.07
590.24	46726.46
590.40	46461.97
590.56	47021.36
590.72	46679.64
590.88	46513.47
591.04	46607.09
591.20	47068.17
591.35	46513.47
591.51	47248.39
591.67	46518.15
591.83	46548.57
591.99	46232.60
592.15	46424.53
592.31	46532.19
592.46	46536.87
592.62	46628.15
592.78	46574.32
592.94	46763.90
593.10	46628.15
593.26	46480.70
593.41	47091.58
593.57	46487.72
593.73	46190.47
593.89	46733.48
594.05	46424.53
594.20	46490.06
594.36	46476.02
594.52	46450.27
594.68	46583.68
594.84	46398.78
594.99	46625.81
595.15	46546.23
595.31	47143.07
595.47	47026.04
595.62	46642.20
595.78	46494.74
595.94	46740.50
596.10	46628.15
596.25	46890.29
596.41	46225.58
596.57	46199.83
596.73	47072.85
596.88	46401.12
597.04	46703.05
597.20	46787.31
597.36	46799.01
597.51	46754.54
597.67	46513.47
597.83	46293.46
597.99	46782.63
598.14	46445.59
598.30	46649.22
598.46	46724.11
598.61	46883.27
598.77	46148.34
598.93	46672.62
599.09	46658.58
599.24	46618.79
599.40	46567.30
599.56	46937.10
599.71	46721.77
599.87	46799.01
600.03	46756.88
600.18	46408.14
600.34	46433.89
600.50	46326.22
600.65	46497.08
600.81	46597.73
600.97	46457.29
601.12	46728.80
601.28	46623.47
601.44	46328.56
601.59	46712.41
601.75	46108.55
601.91	46251.33
602.06	46536.87
602.22	46719.43
602.37	46391.76
602.53	46602.41
602.69	46588.36
602.84	46712.41
603.00	46443.25
603.16	46286.43
603.31	46366.01
603.47	46557.94
603.62	46155.36
603.78	46422.19
603.94	46628.15
604.09	46911.36
604.25	46609.43
604.40	46295.80
604.56	46426.87
604.71	46742.84
604.87	46829.44
605.03	46326.22
605.18	46265.37
605.34	46398.78
605.49	46162.39
605.65	46651.56
605.80	46000.89
605.96	46483.04
606.12	46398.78
606.27	46553.26
606.43	46190.47
606.58	46391.76
606.74	46129.62
606.89	46190.47
607.05	46354.31
607.20	46555.60
607.36	46398.78
607.51	46710.07
607.67	46298.14
607.82	46426.87
607.98	46026.63
608.13	46246.65
608.29	46106.21
608.44	46089.83
608.60	45947.06
608.75	46344.95
608.91	46337.93
609.06	45886.20
609.22	46625.81
609.37	45956.42
609.53	46248.99
609.68	45921.31
609.84	45986.85
609.99	45965.78
610.15	45619.38
610.30	45656.83
610.46	45539.80
610.61	46398.78
610.76	46141.32
610.92	46307.50
611.07	45844.07
611.23	45776.20
611.38	46321.54
611.54	45848.75
611.69	45757.47
611.84	45799.60
612.00	45661.51
612.15	45935.35
612.31	45532.78
612.46	45921.31
612.62	46085.15
612.77	45844.07
612.92	45830.03
613.08	45715.34
613.23	45687.26
613.39	45202.77
613.54	45294.05
613.69	45897.91
613.85	44825.94
614.00	45621.72
614.15	45141.91
614.31	45443.84
614.46	45766.84
614.62	45530.44
614.77	45263.62
614.92	45031.91
615.08	45090.42
615.23	45567.89
615.38	45076.38
615.54	45043.61
615.69	44741.68
615.84	45113.83
616.00	45228.51
616.15	45155.96
616.30	44973.39
616.46	44954.67
616.61	44947.65
616.76	45057.65
616.92	44858.71
617.07	44643.38
617.22	44779.13
617.37	44746.36
617.53	45130.21
617.68	45216.81
617.83	45502.35
617.99	44783.81
618.14	45226.17
618.29	44619.97
618.45	44406.98
618.60	44442.09
618.75	44292.30
618.90	44364.85
619.06	44531.03
619.21	44917.22
619.36	44865.73
619.51	44680.83
619.67	44760.40
619.82	44502.95
619.97	44779.13
620.12	44261.87
620.28	44275.91
620.43	44580.18
620.58	44584.86
620.73	44692.53
620.89	44238.47
621.04	44617.63
621.19	44435.07
621.34	44350.81
621.49	44467.84
621.65	44091.01
621.80	44540.39
621.95	44198.68
622.10	44250.17
622.25	44062.93
622.41	44245.49
622.56	44442.09
622.71	43971.64
622.86	43941.22
623.01	43934.20
623.16	44016.11
623.32	43894.41
623.47	43786.74
623.62	44091.01
623.77	44203.36
623.92	44189.31
624.07	43356.08
624.23	43526.94
624.38	43873.34
624.53	43447.36
624.68	43604.18
624.83	44086.33
624.98	44039.52
625.13	43587.80
625.29	43264.80
625.44	43604.18
625.59	43157.14
625.74	43569.07
625.89	43328.00
626.04	43096.28
626.19	43229.69
626.34	43470.77
626.49	43739.93
626.65	43356.08
626.80	43674.40
626.95	43091.60
627.10	43225.01
627.25	43421.62
627.40	42733.50
627.55	42637.54
627.70	42677.33
627.85	43047.13
628.00	42532.22
628.15	43023.73
628.30	43381.83
628.45	42892.66
628.60	42993.30
628.76	42801.38
628.91	42986.28
629.06	42777.97
629.21	42581.37
629.36	42607.11
629.51	42796.70
629.66	42366.04
629.81	42590.73
629.96	42576.69
630.11	42557.96
630.26	42588.39
630.41	42522.85
630.56	42478.38
630.71	42120.28
630.86	42506.47
631.01	42164.75
631.16	42307.52
631.31	42050.06
631.46	42096.88
631.61	42316.89
631.76	42469.02
631.91	42522.85
632.06	42618.81
632.21	42351.99
632.36	42719.46
632.51	41741.11
632.66	41734.09
632.81	41893.25
632.96	42543.92
633.10	41853.46
633.25	41956.44
633.40	42143.69
633.55	42171.77
633.70	42241.99
633.85	41413.44
634.00	41839.42
634.15	42213.90
634.30	41846.44
634.45	41383.01
634.60	41518.76
634.75	41408.76
634.90	41436.84
635.05	41546.85
635.19	41280.03
635.34	41977.51
635.49	41371.31
635.64	41771.54
635.79	41588.98
635.94	41429.82
636.09	41413.44
636.24	41357.27
636.39	41233.22
636.53	41357.27
636.68	41687.28
636.83	41015.55
636.98	41085.76
637.13	41453.23
637.28	41521.10
637.43	41474.29
637.57	41478.97
637.72	41352.58
637.87	41060.02
638.02	41237.90
638.17	41205.13
638.32	41397.06
638.46	41322.16
638.61	41188.75
638.76	41184.07
638.91	41003.85
639.06	40994.48
639.20	40987.46
639.35	41340.88
639.50	41315.14
639.65	40840.01
639.80	41006.19
639.94	40549.78
640.09	40561.48
640.24	40978.10
640.39	40648.08
640.54	40919.59
640.68	40367.22
640.83	40514.67
640.98	40481.91
641.13	40198.70
641.27	40643.40
641.42	40444.46
641.57	40322.75
641.72	40428.07
641.86	40336.79
642.01	40327.43
642.16	40477.22
642.31	40041.88
642.45	40502.97
642.60	40325.09
642.75	40348.50
642.90	40692.55
643.04	40016.14
643.19	40615.32
643.34	40360.20
643.48	39852.30
643.63	40023.16
643.78	39817.19
643.93	39997.41
644.07	40273.60
644.22	39791.45
644.37	39562.08
644.51	39611.23
644.66	39779.74
644.81	39955.29
644.95	39971.67
645.10	40271.26
645.25	39515.26
645.39	39959.97
645.54	39651.02
645.69	39597.18
645.83	39421.64
645.98	39583.14
646.13	39728.25
646.27	39924.86
646.42	39632.29
646.57	39393.56
646.71	39267.17
646.86	39798.47
647.00	39803.15
647.15	39721.23
647.30	39449.73
647.44	39339.72
647.59	39491.86
647.74	38972.26
647.88	39054.18
648.03	39129.08
648.17	39536.33
648.32	39332.70
648.47	39033.11
648.61	39112.69
648.76	39325.68
648.90	38892.68
649.05	38696.08
649.20	39089.29
649.34	38789.70
649.49	39009.71
649.63	38932.47
649.78	38838.85
649.92	39068.22
650.07	39573.78
650.21	38731.18
650.36	39040.14
650.51	39070.56
650.65	39461.43
650.80	39440.37
650.94	39178.23
651.09	39005.03
651.23	38738.21
651.38	38419.89
651.52	38192.86
651.67	38443.30
651.81	38637.56
651.96	38508.83
652.10	38773.31
652.25	38871.62
652.39	38588.41
652.54	38656.29
652.68	38642.24
652.83	38843.53
652.97	39037.80
653.12	38890.34
653.26	38614.16
653.41	38204.56
653.55	38923.11
653.70	38167.12
653.84	38363.72
653.99	38181.16
654.13	38188.18
654.27	37963.49
654.42	38242.01
654.56	38298.19
654.71	37993.92
654.85	38225.63
655.00	38356.70
655.14	37893.27
655.29	37439.21
655.43	37867.53
655.57	37258.99
655.72	37476.66
655.86	37191.11
656.01	36814.29
656.15	37038.98
656.30	37392.40
656.44	37195.79
656.58	37589.00
656.73	37598.37
656.87	37266.01
657.01	37399.42
657.16	37308.14
657.30	37378.36
657.45	37088.13
657.59	37256.65
657.73	37443.89
657.88	37624.11
658.02	37581.98
658.16	37385.38
658.31	37565.60
658.45	37474.32
658.60	36987.49
658.74	37038.98
658.88	37275.37
659.03	37247.29
659.17	37163.03
659.31	36627.04
659.46	36811.95
659.60	36762.79
659.74	36687.90
659.89	36842.37
660.03	36769.82
660.17	37151.32
660.32	36734.71
660.46	36856.42
660.60	36411.71
660.74	36835.35
660.89	36734.71
661.03	36486.61
661.17	36385.97
661.32	36229.15
661.46	36264.26
661.60	36215.11
661.74	36294.69
661.89	36334.48
662.03	36549.81
662.17	36264.26
662.31	36219.79
662.46	36474.91
662.60	36521.72
662.74	36077.02
662.88	36039.57
663.03	36009.14
663.17	36112.13
663.31	35592.53
663.45	35477.84
663.60	35728.28
663.74	35615.93
663.88	35522.31
664.02	35693.17
664.17	35564.44
664.31	35349.11
664.45	35395.92
664.59	35459.12
664.73	35379.54
664.88	35194.64
665.02	34820.15
665.16	35199.32
665.30	34438.64
665.44	34792.06
665.59	34939.52
665.73	35250.81
665.87	34431.62
666.01	34824.83
666.15	34705.46
666.29	34700.78
666.44	35166.55
666.58	34717.17
666.72	34904.41
666.86	34749.93
667.00	34480.77
667.14	34462.05
667.28	34349.70
667.43	34010.32
667.57	34567.37
667.71	34307.57
667.85	34188.21
667.99	34529.92
668.13	34375.45
668.27	34396.51
668.41	34443.32
668.56	33514.13
668.70	34218.63
668.84	33364.34
668.98	33624.14
669.12	33453.28
669.26	33556.26
669.40	33294.12
669.54	33607.75
669.68	33198.16
669.82	33287.10
669.96	32964.10
670.10	33006.23
670.25	33729.46
670.39	33060.07
670.53	32746.44
670.67	33067.09
670.81	32858.78
670.95	33106.88
671.09	32755.80
671.23	32767.50
671.37	32776.86
671.51	32517.06
671.65	32943.04
671.79	32390.67
671.93	32229.18
672.07	32287.69
672.21	32598.98
672.35	32261.94
672.49	32402.38
672.63	32283.01
672.77	32191.73
672.91	32023.21
673.05	31922.57
673.19	31859.37
673.33	31927.25
673.47	31842.99
673.61	31157.21
673.75	31424.03
673.89	31681.49
674.03	31164.23
674.17	31630.00
674.31	31552.76
674.45	31260.20
674.59	31611.28
674.73	31693.19
674.87	31290.62
675.01	30911.46
675.15	31012.10
675.29	30890.39
675.43	30576.76
675.56	30749.96
675.70	30661.02
675.84	30410.58
675.98	29839.49
676.12	30469.09
676.26	30705.49
676.40	30738.26
676.54	30476.12
676.68	30398.88
676.82	30005.67
676.96	30132.06
677.10	30143.76
677.23	29605.44
677.37	29816.08
677.51	29542.24
677.65	29706.08
677.79	29146.69
677.93	29441.60
678.07	28900.94
678.21	28556.88
678.34	28753.48
678.48	28563.90
678.62	28428.15
678.76	28371.97
678.90	28163.67
679.04	28353.25
679.18	28603.69
679.31	28119.20
679.45	27962.38
679.59	28233.88
679.73	28336.87
679.87	27901.53
680.00	28226.86
680.14	27999.83
680.28	27756.41
680.42	27967.06
680.56	27559.81
680.70	27599.60
680.83	27571.51
680.97	27381.93
681.11	27501.29
681.25	27498.95
681.39	27316.39
681.52	27292.99
681.66	27051.91
681.80	26808.50
681.94	26824.88
682.07	26843.60
682.21	26654.02
682.35	26576.78
682.49	26576.78
682.62	26682.11
682.76	26075.91
682.90	26192.94
683.04	26052.50
683.17	26279.54
683.31	26115.70
683.45	25773.98
683.59	25773.98
683.72	25766.96
683.86	26153.15
684.00	25560.99
684.13	25120.97
684.27	25317.57
684.41	25186.50
684.55	25205.23
684.68	25050.75
684.82	25111.61
684.96	24936.07
685.09	25046.07
685.23	24694.99
685.37	24816.70
685.50	24903.30
685.64	24870.53
685.78	24276.04
685.91	24477.32
686.05	24283.06
686.19	23950.70
686.32	23702.61
686.46	23461.53
686.60	23269.61
686.73	23594.94
686.87	23264.92
687.01	23438.12
687.14	23000.44
687.28	22993.42
687.42	22862.35
687.55	23201.73
687.69	22948.95
687.82	22958.31
687.96	22972.36
688.10	22941.93
688.23	22782.77
688.37	22792.14
688.50	22586.17
688.64	23012.15
688.78	22417.65
688.91	22043.17
689.05	22295.94
689.18	22134.45
689.32	21928.48
689.46	22286.58
689.59	22127.42
689.73	22326.37
689.86	21626.55
690.00	21968.27
690.13	21603.14
690.27	21575.06
690.41	21125.68
690.54	21535.27
690.68	21493.14
690.81	21238.02
690.95	21277.81
691.08	21128.02
691.22	21200.57
691.35	21256.75
691.49	21266.11
691.62	20900.98
691.76	20849.49
691.89	21076.52
692.03	20643.52
692.16	20847.15
692.30	20159.03
692.43	20428.20
692.57	20161.37
692.70	20100.52
692.84	19939.02
692.97	19871.15
693.11	19833.70
693.24	19651.14
693.38	19749.44
693.51	19573.90
693.65	19768.16
693.78	19026.21
693.92	19637.09
694.05	19161.97
694.19	19206.44
694.32	19351.55
694.45	19229.84
694.59	19330.48
694.72	19201.76
694.86	19009.83
694.99	18719.60
695.13	18682.16
695.26	18572.15
695.39	18616.62
695.53	18717.26
695.66	18581.51
695.80	18614.28
695.93	18370.86
696.07	18349.80
696.20	18335.76
696.33	18232.77
696.47	18188.30
696.60	18373.21
696.73	17930.84
696.87	18017.44
697.00	17912.12
697.14	17495.50
697.27	17706.15
697.40	17628.92
697.54	17319.96
697.67	17242.73
697.80	17149.11
697.94	17184.21
698.07	17095.27
698.21	16954.84
698.34	16978.25
698.47	17209.96
698.61	16706.74
698.74	16851.86
698.87	16809.73
699.01	16760.58
699.14	16524.18
699.27	16432.90
699.40	16400.13
699.54	16699.72
699.67	16196.51
699.80	15967.13
699.94	15953.09
700.07	16149.70
700.20	16116.93
700.34	15948.41
700.47	15747.12
700.60	15723.72
700.73	15850.11
700.87	15721.38
701.00	15597.33
701.13	15550.52
701.26	15377.32
701.40	15496.69
701.53	15330.51
701.66	15197.10
701.79	14949.00
701.93	15199.44
702.06	14862.40
702.19	14848.36
702.32	15035.60
702.46	14970.07
702.59	14897.51
702.72	14904.53
702.85	14867.08
702.99	14576.86
703.12	14670.48
703.25	14490.26
703.38	14420.04
703.51	14567.49
703.65	14340.46
703.78	14263.22
703.91	14043.21
704.04	14216.41
704.17	14148.54
704.31	14073.64
704.44	14099.39
704.57	13748.31
704.70	13860.65
704.83	13802.14
704.96	13547.02
705.10	13603.19
705.23	13540.00
>>>>>End Processed Spectral Data<<<<<
