SpectraSuite Data File
++++++++++++++++++++++++++++++++++++
Date: Fri Oct 25 10:47:19 EDT 2013
User: price-jones
Dark Spectrum Present: No
Reference Spectrum Present: No
Number of Sampled Component Spectra: 1
Spectrometers: USB2+H05261
Integration Time (usec): 100000 (USB2+H05261)
Spectra Averaged: 1 (USB2+H05261)
Boxcar Smoothing: 0 (USB2+H05261)
Correct for Electrical Dark: No (USB2+H05261)
Strobe/Lamp Enabled: No (USB2+H05261)
Correct for Detector Non-linearity: No (USB2+H05261)
Correct for Stray Light: No (USB2+H05261)
Number of Pixels in Processed Spectrum: 2048
>>>>>Begin Processed Spectral Data<<<<<
365.73	184.90
365.92	184.90
366.12	184.90
366.32	95.96
366.52	42.13
366.72	67.88
366.91	72.56
367.11	60.85
367.31	7.02
367.51	86.60
367.70	46.81
367.90	35.11
368.10	46.81
368.30	0.00
368.49	18.72
368.69	42.13
368.89	86.60
369.09	32.77
369.28	53.83
369.48	81.92
369.68	128.73
369.87	107.66
370.07	88.94
370.27	145.11
370.47	220.01
370.66	313.63
370.86	423.64
371.06	414.27
371.25	486.83
371.45	404.91
371.65	407.25
371.84	507.90
372.04	372.15
372.24	465.77
372.44	514.92
372.63	505.56
372.83	503.22
373.03	444.70
373.22	456.40
373.42	465.77
373.62	500.87
373.81	451.72
374.01	575.77
374.21	545.34
374.40	533.64
374.60	547.69
374.79	451.72
374.99	594.50
375.19	657.69
375.38	608.54
375.58	538.32
375.78	552.37
375.97	587.47
376.17	589.82
376.37	552.37
376.56	641.31
376.76	573.43
376.95	603.86
377.15	627.26
377.35	613.22
377.54	547.69
377.74	587.47
377.93	662.37
378.13	561.73
378.33	648.33
378.52	610.88
378.72	582.79
378.91	685.78
379.11	585.13
379.31	655.35
379.50	568.75
379.70	575.77
379.89	650.67
380.09	650.67
380.28	594.50
380.48	643.65
380.68	690.46
380.87	601.52
381.07	753.65
381.26	697.48
381.46	617.90
381.65	690.46
381.85	624.92
382.04	653.01
382.24	706.84
382.43	716.20
382.63	727.91
382.83	535.98
383.02	683.44
383.22	662.37
383.41	589.82
383.61	669.39
383.80	718.54
384.00	713.86
384.19	706.84
384.39	690.46
384.58	695.14
384.78	746.63
384.97	765.36
385.17	795.78
385.36	774.72
385.56	713.86
385.75	674.07
385.95	823.87
386.14	842.59
386.34	720.88
386.53	730.25
386.72	755.99
386.92	760.67
387.11	798.12
387.31	798.12
387.50	821.53
387.70	781.74
387.89	774.72
388.09	856.64
388.28	828.55
388.48	812.17
388.67	854.30
388.86	826.21
389.06	758.33
389.25	809.83
389.45	887.06
389.64	870.68
389.84	833.23
390.03	908.13
390.22	877.70
390.42	837.91
390.61	910.47
390.81	887.06
391.00	894.08
391.19	940.90
391.39	912.81
391.58	905.79
391.78	940.90
391.97	983.02
392.16	926.85
392.36	943.24
392.55	940.90
392.75	894.08
392.94	884.72
393.13	917.49
393.33	959.62
393.52	924.51
393.71	1053.24
393.91	971.32
394.10	997.07
394.29	1034.52
394.49	1067.28
394.68	1064.94
394.88	1067.28
395.07	1102.39
395.26	1109.41
395.46	1074.31
395.65	1123.46
395.84	1130.48
396.04	1053.24
396.23	1095.37
396.42	1135.16
396.62	1055.58
396.81	1111.75
397.00	1109.41
397.19	1214.74
397.39	1181.97
397.58	1179.63
397.77	1153.88
397.97	1240.48
398.16	1240.48
398.35	1226.44
398.55	1121.12
398.74	1261.55
398.93	1275.59
399.12	1299.00
399.32	1238.14
399.51	1261.55
399.70	1263.89
399.90	1306.02
400.09	1371.55
400.28	1437.09
400.47	1446.45
400.67	1359.85
400.86	1451.13
401.05	1343.47
401.24	1376.24
401.44	1434.75
401.63	1416.02
401.82	1467.52
402.01	1401.98
402.21	1439.43
402.40	1441.77
402.59	1446.45
402.78	1432.41
402.97	1462.83
403.17	1593.90
403.36	1460.49
403.55	1530.71
403.74	1542.41
403.93	1519.01
404.13	1554.12
404.32	1678.16
404.51	1558.80
404.70	1680.50
404.89	1696.89
405.09	1610.29
405.28	1682.85
405.47	1685.19
405.66	1783.49
405.85	1760.08
406.05	1671.14
406.24	1776.47
406.43	1743.70
406.62	1842.00
406.81	1708.59
407.00	1830.30
407.20	1797.53
407.39	1851.36
407.58	1881.79
407.77	1823.28
407.96	1778.81
408.15	1757.74
408.34	1877.11
408.54	1809.23
408.73	1842.00
408.92	1949.67
409.11	1984.77
409.30	1940.30
409.49	2073.71
409.68	1944.99
409.87	1902.86
410.07	2043.29
410.26	2083.08
410.45	1949.67
410.64	2099.46
410.83	2139.25
411.02	2134.57
411.21	2125.21
411.40	2186.06
411.59	2197.76
411.78	2209.47
411.98	2136.91
412.17	2209.47
412.36	2263.30
412.55	2298.41
412.74	2368.62
412.93	2328.83
413.12	2305.43
413.31	2408.41
413.50	2314.79
413.69	2354.58
413.88	2569.91
414.07	2445.86
414.26	2518.42
414.45	2560.55
414.64	2530.12
414.83	2708.00
415.02	2677.57
415.22	2569.91
415.41	2736.09
415.60	2768.85
415.79	2789.92
415.98	2693.96
416.17	2768.85
416.36	2792.26
416.55	2818.00
416.74	2733.75
416.93	2766.51
417.12	2883.54
417.31	2932.69
417.50	2923.33
417.69	2984.18
417.88	2888.22
418.07	2965.46
418.26	3049.72
418.45	3035.67
418.64	3019.29
418.83	2928.01
419.02	3101.21
419.21	3075.46
419.39	3075.46
419.58	3087.17
419.77	2946.73
419.96	3192.49
420.15	3220.58
420.34	3227.60
420.53	3112.91
420.72	3293.13
420.91	3251.00
421.10	3377.39
421.29	3274.41
421.48	3225.26
421.67	3234.62
421.86	3190.15
422.05	3342.28
422.24	3361.01
422.43	3424.20
422.61	3368.03
422.80	3309.52
422.99	3246.32
423.18	3452.29
423.37	3419.52
423.56	3421.86
423.75	3316.54
423.94	3368.03
424.13	3262.71
424.32	3316.54
424.50	3396.12
424.69	3499.10
424.88	3548.25
425.07	3468.67
425.26	3344.63
425.45	3426.54
425.64	3396.12
425.83	3538.89
426.01	3545.91
426.20	3463.99
426.39	3318.88
426.58	3531.87
426.77	3342.28
426.96	3562.30
427.15	3555.27
427.33	3595.06
427.52	3571.66
427.71	3667.62
427.90	3623.15
428.09	3571.66
428.28	3700.39
428.46	3875.93
428.65	3688.68
428.84	3721.45
429.03	3712.09
429.22	3719.11
429.40	3679.32
429.59	3672.30
429.78	3595.06
429.97	3574.00
430.16	3618.47
430.34	3702.73
430.53	3794.01
430.72	3695.71
430.91	3871.25
431.10	3803.37
431.28	3829.12
431.47	4053.81
431.66	4100.62
431.85	3889.97
432.03	4156.79
432.22	4147.43
432.41	4072.53
432.60	4030.40
432.79	4067.85
432.97	4250.41
433.16	4166.15
433.35	4065.51
433.54	4049.13
433.72	4154.45
433.91	4189.56
434.10	4266.80
434.28	4252.75
434.47	4241.05
434.66	4315.95
434.85	4358.08
435.03	4306.59
435.22	4252.75
435.41	4367.44
435.59	4463.40
435.78	4287.86
435.97	4404.89
436.16	4524.26
436.34	4402.55
436.53	4416.59
436.72	4475.10
436.90	4477.44
437.09	4650.64
437.28	4470.42
437.46	4580.43
437.65	4660.01
437.84	4592.13
438.02	4760.65
438.21	4505.53
438.40	4435.32
438.58	4657.67
438.77	4720.86
438.96	4678.73
439.14	4924.49
439.33	4830.87
439.52	4938.53
439.70	4983.00
439.89	4868.31
440.08	4938.53
440.26	5018.11
440.45	4952.57
440.63	5011.09
440.82	5163.22
441.01	5139.82
441.19	5158.54
441.38	5298.97
441.57	5345.78
441.75	5329.40
441.94	5437.06
442.12	5483.88
442.31	5338.76
442.50	5408.98
442.68	5603.24
442.87	5504.94
443.05	5570.48
443.24	5598.56
443.43	5533.03
443.61	5518.98
443.80	5720.27
443.98	5575.16
444.17	5418.34
444.35	5621.97
444.54	5731.97
444.73	5624.31
444.91	5715.59
445.10	5619.63
445.28	5516.64
445.47	5565.79
445.65	5633.67
445.84	5577.50
446.02	5596.22
446.21	5682.82
446.39	5605.58
446.58	5792.83
446.77	5809.21
446.95	5678.14
447.14	5771.76
447.32	5806.87
447.51	5628.99
447.69	5867.72
447.88	5778.78
448.06	5846.66
448.25	5853.68
448.43	5628.99
448.62	5879.43
448.80	5753.04
448.99	5900.49
449.17	5870.06
449.36	5853.68
449.54	5884.11
449.73	6047.94
449.91	6071.35
450.10	6223.48
450.28	6153.27
450.46	6129.86
450.65	6162.63
450.83	6331.15
451.02	6363.92
451.20	6200.08
451.39	6101.78
451.57	6340.51
451.76	6092.41
451.94	6293.70
452.13	6305.40
452.31	6347.53
452.49	6256.25
452.68	6291.36
452.86	6300.72
453.05	6363.92
453.23	6354.55
453.42	6326.47
453.60	6459.88
453.78	6424.77
453.97	6438.81
454.15	6375.62
454.34	6190.72
454.52	6560.52
454.70	6523.07
454.89	6572.22
455.07	6698.61
455.26	6637.76
455.44	6626.06
455.62	6757.13
455.81	6867.13
455.99	6668.19
456.17	6801.60
456.36	6930.33
456.54	6825.00
456.73	6916.28
456.91	7185.44
457.09	7213.53
457.28	7218.21
457.46	6935.01
457.64	7293.11
457.83	7124.59
458.01	7117.57
458.19	7164.38
458.38	7222.89
458.56	7358.64
458.74	7269.70
458.93	7119.91
459.11	7386.73
459.29	7152.68
459.48	7417.16
459.66	7117.57
459.84	7358.64
460.03	7562.27
460.21	7456.95
460.39	7389.07
460.57	7501.42
460.76	7513.12
460.94	7438.22
461.12	7426.52
461.31	7517.80
461.49	7531.84
461.67	7651.21
461.85	7845.48
462.04	7573.97
462.22	8152.09
462.40	7847.82
462.59	7658.23
462.77	7637.17
462.95	7791.64
463.13	7903.99
463.32	7845.48
463.50	7911.01
463.68	7714.41
463.86	7932.08
464.05	7702.70
464.23	7908.67
464.41	7915.69
464.59	7758.88
464.78	8067.83
464.96	8241.03
465.14	7889.95
465.32	8131.02
465.50	8093.57
465.69	8189.53
465.87	8102.93
466.05	8105.28
466.23	7927.39
466.41	8201.24
466.60	8329.97
466.78	7939.10
466.96	8093.57
467.14	8100.59
467.32	8327.63
467.51	8341.67
467.69	8051.44
467.87	8299.54
468.05	8196.56
468.23	8175.49
468.41	8278.47
468.60	8313.58
468.78	8336.99
468.96	8163.79
469.14	8468.06
469.32	8641.26
469.50	8449.33
469.69	8514.87
469.87	8596.79
470.05	8580.40
470.23	8669.34
470.41	8755.94
470.59	8725.52
470.77	8781.69
470.95	8912.76
471.14	9034.47
471.32	8856.59
471.50	9062.55
471.68	9001.70
471.86	9184.26
472.04	9142.13
472.22	9193.62
472.40	8959.57
472.58	9280.22
472.77	9254.48
472.95	9266.18
473.13	9495.55
473.31	9308.31
473.49	9268.52
473.67	9256.82
473.85	9439.38
474.03	9481.51
474.21	9685.14
474.39	9554.07
474.57	9399.59
474.75	9727.27
474.93	9753.01
475.12	9865.36
475.30	10068.98
475.48	9856.00
475.66	10136.86
475.84	10050.26
476.02	10153.24
476.20	10146.22
476.38	10246.87
476.56	10457.51
476.74	10434.11
476.92	10604.97
477.10	10277.29
477.28	10523.05
477.46	10607.31
477.64	10939.66
477.82	10724.33
478.00	11164.36
478.18	11265.00
478.36	11047.33
478.54	11463.94
478.72	11475.65
478.90	11470.97
479.08	11548.20
479.26	11618.42
479.44	11648.85
479.62	11300.11
479.80	11765.87
479.98	11974.18
480.16	12086.53
480.34	11950.78
480.52	12072.48
480.70	11957.80
480.88	12056.10
481.06	12269.09
481.24	12051.42
481.41	12793.37
481.59	12617.83
481.77	12732.51
481.95	12545.27
482.13	12917.42
482.31	12945.50
482.49	13214.66
482.67	12847.20
482.85	13451.06
483.03	13495.53
483.21	13561.06
483.39	13823.20
483.57	13675.75
483.74	13612.56
483.92	13975.34
484.10	13785.76
484.28	14122.79
484.46	14314.72
484.64	14623.67
484.82	14494.94
485.00	14387.27
485.18	14609.62
485.35	14719.63
485.53	14822.61
485.71	14897.51
485.89	14974.75
486.07	14684.52
486.25	15339.87
486.43	15382.00
486.61	15452.22
486.78	15648.82
486.96	15550.52
487.14	15983.52
487.32	15857.13
487.50	16159.06
487.68	16053.73
487.85	16287.79
488.03	16486.73
488.21	16676.32
488.39	16603.76
488.57	16755.90
488.75	16898.67
488.92	17090.59
489.10	17261.45
489.28	17298.90
489.46	17699.13
489.64	17362.09
489.81	17818.50
489.99	17837.22
490.17	17869.99
490.35	18141.49
490.53	18183.62
490.70	18492.57
490.88	18562.79
491.06	18207.03
491.24	18235.11
491.41	18663.43
491.59	19023.87
491.77	18633.00
491.95	19084.73
492.13	19019.19
492.30	19037.92
492.48	19243.88
492.66	19351.55
492.84	19719.01
493.01	19805.61
493.19	19758.80
493.37	20116.90
493.54	20074.77
493.72	20526.50
493.90	20280.74
494.08	20631.82
494.25	20898.64
494.43	20809.70
494.61	21006.31
494.79	20933.75
494.96	20629.48
495.14	20933.75
495.32	21317.60
495.49	21326.96
495.67	21497.82
495.85	21359.73
496.02	21837.20
496.20	21745.92
496.38	22061.89
496.55	21902.73
496.73	22487.87
496.91	22490.21
497.09	22171.89
497.26	22684.47
497.44	22537.02
497.62	22693.83
497.79	22675.11
497.97	22808.52
498.14	22787.46
498.32	22958.31
498.50	23173.64
498.67	23087.04
498.85	23585.58
499.03	23747.08
499.20	24189.44
499.38	23529.41
499.56	23791.55
499.73	23999.85
499.91	23969.43
500.08	24283.06
500.26	23941.34
500.44	24210.50
500.61	24322.85
500.79	24276.04
500.97	24346.25
501.14	24561.58
501.32	24517.11
501.49	24718.40
501.67	24610.73
501.84	25167.78
502.02	24592.01
502.20	25343.32
502.37	25273.10
502.55	25268.42
502.72	25067.14
502.90	25310.55
503.07	25331.62
503.25	25582.06
503.43	25411.20
503.60	25699.08
503.78	25743.55
503.95	25930.80
504.13	25865.26
504.30	26324.01
504.48	25865.26
504.65	26066.55
504.83	26256.13
505.01	26527.63
505.18	26099.31
505.36	26810.84
505.53	26632.96
505.71	26850.63
505.88	27049.57
506.06	26902.12
506.23	26478.48
506.41	26639.98
506.58	26920.84
506.76	27360.86
506.93	27241.50
507.11	27220.43
507.28	27070.64
507.46	27227.45
507.63	27145.53
507.81	28093.45
507.98	27126.81
508.16	27505.98
508.33	27871.10
508.50	27878.12
508.68	28360.27
508.85	28318.14
509.03	27927.27
509.20	28489.00
509.38	28704.33
509.55	28587.30
509.73	28458.57
509.90	28467.94
510.08	28491.34
510.25	28467.94
510.42	28622.41
510.60	28692.63
510.77	29142.01
510.95	29233.29
511.12	28807.31
511.30	28992.22
511.47	29369.04
511.64	29565.65
511.82	29699.06
511.99	29523.52
512.17	29397.13
512.34	29607.78
512.51	29914.39
512.69	30036.09
512.86	29773.95
513.04	30094.61
513.21	30029.07
513.38	30057.16
513.56	29982.26
513.73	29977.58
513.90	30103.97
514.08	30457.39
514.25	30150.78
514.43	30654.00
514.60	30438.67
514.77	30190.57
514.95	31112.74
515.12	30487.82
515.29	30890.39
515.47	30930.18
515.64	31208.70
515.81	31037.84
515.99	31056.57
516.16	31124.44
516.33	31243.81
516.51	31735.32
516.68	31140.83
516.85	31126.78
517.03	31061.25
517.20	31711.92
517.37	31307.01
517.54	31648.72
517.72	31611.28
517.89	31522.34
518.06	31857.03
518.24	31910.86
518.41	31889.80
518.58	31758.73
518.75	32048.96
518.93	32449.19
519.10	32369.61
519.27	32142.58
519.45	32140.24
519.62	32437.48
519.79	32615.37
519.96	32411.74
520.14	32802.61
520.31	32835.38
520.48	32762.82
520.65	32610.68
520.83	32917.29
521.00	33275.40
521.17	33017.94
521.34	32931.34
521.52	32931.34
521.69	33153.69
521.86	33284.76
522.03	34047.77
522.20	33333.91
522.38	33839.47
522.55	33727.12
522.72	33560.94
522.89	33865.21
523.07	33942.45
523.24	33907.34
523.41	34045.43
523.58	33715.42
523.75	34188.21
523.92	34089.90
524.10	34113.31
524.27	34356.72
524.44	34527.58
524.61	34085.22
524.78	34515.88
524.96	34806.11
525.13	34756.96
525.30	34916.11
525.47	34689.08
525.64	34857.60
525.81	34871.64
525.98	34974.63
526.16	35005.05
526.33	35044.84
526.50	35091.65
526.67	34848.24
526.84	34689.08
527.01	34787.38
527.18	34885.68
527.36	35152.51
527.53	35204.00
527.70	35936.59
527.87	35496.56
528.04	35644.02
528.21	35424.01
528.38	35751.68
528.55	35468.48
528.72	35501.25
528.89	36006.80
529.07	35800.83
529.24	36189.36
529.41	35915.52
529.58	35857.01
529.75	35985.74
529.92	36027.87
530.09	36385.97
530.26	36264.26
530.43	36259.58
530.60	36226.81
530.77	35983.40
530.94	36273.62
531.11	36870.46
531.28	36538.10
531.46	36580.23
531.63	36598.96
531.80	36535.76
531.97	37074.09
532.14	36893.86
532.31	36404.69
532.48	36788.54
532.65	36790.88
532.82	36779.18
532.99	37273.03
533.16	36655.13
533.33	37095.15
533.50	37261.33
533.67	37429.85
533.84	37443.89
534.01	37071.75
534.18	37406.44
534.35	37432.19
534.52	37317.50
534.69	37376.01
534.86	37750.50
535.03	37195.79
535.20	37464.96
535.37	38253.72
535.54	37886.25
535.71	37422.83
535.88	37713.05
536.05	37525.81
536.22	37631.13
536.38	37804.33
536.55	37792.63
536.72	38473.73
536.89	37572.62
537.06	38122.65
537.23	38022.00
537.40	37614.75
537.57	38188.18
537.74	38586.07
537.91	38696.08
538.08	38190.52
538.25	38141.37
538.42	38141.37
538.59	38728.84
538.75	38164.78
538.92	38499.47
539.09	38960.56
539.26	39147.80
539.43	38770.97
539.60	39103.33
539.77	38848.21
539.94	39126.74
540.11	38628.20
540.28	39143.12
540.44	38953.54
540.61	38789.70
540.78	38600.12
540.95	39068.22
541.12	38534.58
541.29	38646.93
541.46	38845.87
541.62	38918.43
541.79	39035.45
541.96	39019.07
542.13	39442.71
542.30	39119.71
542.47	39299.94
542.63	39515.26
542.80	39697.83
542.97	39880.39
543.14	39700.17
543.31	39688.46
543.48	39615.91
543.64	39864.00
543.81	40191.68
543.98	39812.51
544.15	39922.52
544.32	40023.16
544.48	40657.45
544.65	40460.84
544.82	40404.67
544.99	39875.71
545.16	40292.32
545.32	39854.64
545.49	40170.61
545.66	40577.87
545.83	40285.30
546.00	40531.06
546.16	40603.61
546.33	40481.91
546.50	40301.68
546.67	40397.65
546.83	40282.96
547.00	40884.48
547.17	40423.39
547.34	40367.22
547.50	40451.48
547.67	40863.41
547.84	40926.61
548.00	41013.21
548.17	41060.02
548.34	40954.69
548.51	41439.18
548.67	41144.28
548.84	41081.08
549.01	41001.50
549.18	41015.55
549.34	41053.00
549.51	41294.07
549.68	41532.81
549.84	41680.26
550.01	41647.49
550.18	41064.70
550.34	41160.66
550.51	41322.16
550.68	41212.15
550.84	40994.48
551.01	41326.84
551.18	41823.03
551.34	41471.95
551.51	41673.24
551.68	41645.15
551.84	41787.92
552.01	41488.34
552.18	41670.90
552.34	41523.44
552.51	41996.23
552.68	41656.85
552.84	42167.09
553.01	42089.85
553.18	42003.25
553.34	41720.05
553.51	41659.20
553.67	42108.58
553.84	42293.48
554.01	42337.95
554.17	42499.45
554.34	42525.19
554.51	42047.72
554.67	42124.96
554.84	42223.26
555.00	41717.71
555.17	42043.04
555.33	42476.04
555.50	42316.89
555.67	41970.49
555.83	42300.50
556.00	42508.81
556.16	43009.68
556.33	42309.86
556.50	42185.82
556.66	42763.93
556.83	42295.82
556.99	42564.98
557.16	43016.71
557.32	42637.54
557.49	42637.54
557.65	42408.17
557.82	42665.63
557.98	42548.60
558.15	42946.49
558.32	42892.66
558.48	42101.56
558.65	42557.96
558.81	42993.30
558.98	42651.58
559.14	42658.60
559.31	42560.30
559.47	43164.16
559.64	42391.78
559.80	43210.97
559.97	43433.32
560.13	42649.24
560.30	42876.27
560.46	42703.07
560.63	42712.44
560.79	43168.84
560.96	43281.19
561.12	43072.88
561.29	42967.55
561.45	42754.57
561.61	42733.50
561.78	43098.62
561.94	42845.85
562.11	43349.06
562.27	42972.24
562.44	42995.64
562.60	43374.81
562.77	43529.28
562.93	42897.34
563.10	43618.22
563.26	42981.60
563.42	43290.55
563.59	43068.20
563.75	43325.66
563.92	43655.67
564.08	43459.07
564.24	43578.43
564.41	43615.88
564.57	43445.02
564.74	43484.81
564.90	43533.96
565.07	43262.46
565.23	43363.11
565.39	43194.59
565.56	43346.72
565.72	43157.14
565.88	43452.05
566.05	43676.74
566.21	43587.80
566.38	43372.47
566.54	43648.65
566.70	43770.36
566.87	43468.43
567.03	43473.11
567.19	43964.62
567.36	43473.11
567.52	43583.12
567.68	43512.90
567.85	43576.09
568.01	43653.33
568.17	43498.86
568.34	43999.73
568.50	43924.83
568.66	43669.72
568.83	43693.12
568.99	43690.78
569.15	44161.23
569.32	43660.35
569.48	43632.27
569.64	43725.89
569.81	43882.70
569.97	43328.00
570.13	43697.80
570.30	43552.69
570.46	43489.49
570.62	43548.01
570.78	43761.00
570.95	43892.07
571.11	43959.94
571.27	43758.66
571.43	43681.42
571.60	44172.93
571.76	44025.48
571.92	43576.09
572.09	43714.19
572.25	43557.37
572.41	43749.29
572.57	43606.52
572.74	44285.28
572.90	44217.40
573.06	43950.58
573.22	44158.89
573.38	44018.46
573.55	43810.15
573.71	44247.83
573.87	43742.27
574.03	43721.21
574.20	43941.22
574.36	43810.15
574.52	44098.03
574.68	44238.47
574.84	44521.67
575.01	43702.48
575.17	44229.10
575.33	43758.66
575.49	43578.43
575.65	44409.32
575.82	44720.62
575.98	43999.73
576.14	44051.22
576.30	44025.48
576.46	43700.14
576.62	43948.24
576.79	43650.99
576.95	43484.81
577.11	43983.35
577.27	43889.73
577.43	44402.30
577.59	43793.76
577.75	44053.56
577.92	43494.18
578.08	43966.96
578.24	43690.78
578.40	44123.78
578.56	44100.37
578.72	44250.17
578.88	44243.15
579.04	44346.13
579.21	43915.47
579.37	43847.60
579.53	43903.77
579.69	43475.45
579.85	44076.97
580.01	43782.06
580.17	44058.24
580.33	44322.72
580.49	44009.09
580.65	44402.30
580.82	44088.67
580.98	43838.23
581.14	44107.40
581.30	44299.32
581.46	44102.71
581.62	44144.84
581.78	44095.69
581.94	44325.07
582.10	44062.93
582.26	44151.87
582.42	44404.64
582.58	44069.95
582.74	44126.12
582.90	44411.67
583.06	44023.14
583.22	44713.59
583.38	43952.92
583.54	44289.96
583.70	44002.07
583.86	44170.59
584.02	43976.33
584.18	44083.99
584.34	43910.79
584.50	44144.84
584.66	44165.91
584.82	43985.69
584.98	44336.77
585.14	44219.74
585.30	44018.46
585.46	44083.99
585.62	43983.35
585.78	44474.86
585.94	44158.89
586.10	43730.57
586.26	44121.44
586.42	44079.31
586.58	44341.45
586.74	44376.56
586.90	43962.28
587.06	44257.19
587.22	44797.85
587.38	44261.87
587.54	44692.53
587.70	44739.34
587.86	44390.60
588.02	44477.20
588.18	44891.48
588.34	44226.76
588.49	44067.61
588.65	43929.51
588.81	44119.10
588.97	44165.91
589.13	44484.22
589.29	44163.57
589.45	44201.02
589.61	43941.22
589.77	44694.87
589.93	44732.32
590.08	44500.61
590.24	44470.18
590.40	44362.51
590.56	44502.95
590.72	44367.20
590.88	43966.96
591.04	44252.51
591.20	44624.65
591.35	44472.52
591.51	45090.42
591.67	44416.35
591.83	44378.90
591.99	44601.25
592.15	44161.23
592.31	44348.47
592.46	44823.60
592.62	44554.44
592.78	44865.73
592.94	44563.80
593.10	44528.69
593.26	45029.57
593.41	44968.71
593.57	44383.58
593.73	44533.37
593.89	44428.05
594.05	44395.28
594.20	44350.81
594.36	44629.34
594.52	44746.36
594.68	44800.19
594.84	44493.58
594.99	45268.30
595.15	44360.17
595.31	44524.01
595.47	44692.53
595.62	45209.79
595.78	44566.14
595.94	45081.06
596.10	44641.04
596.25	45191.06
596.41	44701.89
596.57	44659.76
596.73	44968.71
596.88	44142.50
597.04	44498.26
597.20	44711.25
597.36	44912.54
597.51	45244.90
597.67	44769.77
597.83	44947.65
597.99	45179.36
598.14	44245.49
598.30	44914.88
598.46	44329.75
598.61	44648.06
598.77	44512.31
598.93	44851.69
599.09	44580.18
599.24	45162.98
599.40	45038.93
599.56	44830.62
599.71	44879.77
599.87	45008.50
600.03	45228.51
600.18	44802.53
600.34	44694.87
600.50	44470.18
600.65	44896.16
600.81	45099.78
600.97	45207.45
601.12	45057.65
601.28	44921.90
601.44	44823.60
601.59	44982.76
601.75	44488.90
601.91	44870.41
602.06	44816.58
602.22	44697.21
602.37	45141.91
602.53	44360.17
602.69	44964.03
602.84	44914.88
603.00	44706.57
603.16	44739.34
603.31	44392.94
603.47	45141.91
603.62	44278.25
603.78	45162.98
603.94	44549.76
604.09	44692.53
604.25	45043.61
604.40	44921.90
604.56	44760.40
604.71	44832.96
604.87	44587.21
605.03	44844.66
605.18	44814.24
605.34	44870.41
605.49	44329.75
605.65	44631.68
605.80	44725.30
605.96	45109.14
606.12	44641.04
606.27	44559.12
606.43	44449.11
606.58	44568.48
606.74	44259.53
606.89	44320.38
607.05	44425.71
607.20	44477.20
607.36	44435.07
607.51	44465.50
607.67	44868.07
607.82	44690.19
607.98	44816.58
608.13	44762.75
608.29	44423.37
608.44	43985.69
608.60	44411.67
608.75	44423.37
608.91	44107.40
609.06	44020.80
609.22	44575.50
609.37	44016.11
609.53	44421.03
609.68	44397.62
609.84	44292.30
609.99	44456.14
610.15	44119.10
610.30	44348.47
610.46	43868.66
610.61	44222.08
610.76	43859.30
610.92	44549.76
611.07	43899.09
611.23	43915.47
611.38	44259.53
611.54	43948.24
611.69	43908.45
611.84	44402.30
612.00	44622.31
612.15	43826.53
612.31	44486.56
612.46	43676.74
612.62	44186.97
612.77	43924.83
612.92	44177.61
613.08	44002.07
613.23	43847.60
613.39	43442.68
613.54	43824.19
613.69	43728.23
613.85	43824.19
614.00	44009.09
614.15	44350.81
614.31	44540.39
614.46	44416.35
614.62	43761.00
614.77	43597.16
614.92	44280.60
615.08	43725.89
615.23	43426.30
615.38	43545.67
615.54	43709.50
615.69	43421.62
615.84	43297.57
616.00	43475.45
616.15	43936.54
616.30	43793.76
616.46	43601.84
616.61	43363.11
616.76	43054.15
616.92	43430.98
617.07	43278.85
617.22	43105.65
617.37	43639.29
617.53	43831.21
617.68	43702.48
617.83	43229.69
617.99	43810.15
618.14	43604.18
618.29	42946.49
618.45	43105.65
618.60	43201.61
618.75	43199.27
618.90	43107.99
619.06	43419.28
619.21	43316.29
619.36	43381.83
619.51	42817.76
619.67	43276.51
619.82	43243.74
619.97	43194.59
620.12	42834.14
620.28	42459.66
620.43	43091.60
620.58	42806.06
620.73	42899.68
620.89	42878.61
621.04	42962.87
621.19	42632.86
621.34	42749.88
621.49	42621.16
621.65	42717.12
621.80	42607.11
621.95	42618.81
622.10	42693.71
622.25	42389.44
622.41	41916.65
622.56	42721.80
622.71	42419.87
622.86	42572.00
623.01	42642.22
623.16	42714.78
623.32	42890.32
623.47	42780.31
623.62	42913.72
623.77	42288.80
623.92	42450.30
624.07	42419.87
624.23	42497.11
624.38	42555.62
624.53	41930.70
624.68	42373.06
624.83	42239.65
624.98	42181.13
625.13	42307.52
625.29	42251.35
625.44	42014.96
625.59	41872.18
625.74	41734.09
625.89	41514.08
626.04	41570.25
626.19	41881.55
626.34	42218.58
626.49	42202.20
626.65	41476.63
626.80	41904.95
626.95	41830.05
627.10	41563.23
627.25	41956.44
627.40	41722.39
627.55	41179.39
627.70	41284.71
627.85	41350.24
628.00	41766.86
628.15	41813.67
628.30	41352.58
628.45	41876.86
628.60	41951.76
628.76	41495.36
628.91	41956.44
629.06	41666.22
629.21	41394.71
629.36	41071.72
629.51	41298.75
629.66	41165.34
629.81	41123.21
629.96	41177.04
630.11	41373.65
630.26	41535.15
630.41	41766.86
630.56	41326.84
630.71	41141.94
630.86	40832.99
631.01	40996.82
631.16	41092.79
631.31	40945.33
631.46	40507.65
631.61	40975.76
631.76	41450.89
631.91	41036.61
632.06	41095.13
632.21	40701.92
632.36	40971.08
632.51	40837.67
632.66	40886.82
632.81	40884.48
632.96	40952.35
633.10	40601.27
633.25	40388.28
633.40	40790.86
633.55	40919.59
633.70	40521.69
633.85	40636.38
634.00	40872.78
634.15	40734.68
634.30	39751.66
634.45	40587.23
634.60	40425.73
634.75	40884.48
634.90	40442.12
635.05	40627.02
635.19	40989.80
635.34	40790.86
635.49	40734.68
635.64	40620.00
635.79	40339.13
635.94	40313.39
636.09	39763.36
636.24	39913.16
636.39	39728.25
636.53	39655.70
636.68	39728.25
636.83	39852.30
636.98	40187.00
637.13	39728.25
637.28	40023.16
637.43	39985.71
637.57	39976.35
637.72	40095.72
637.87	39849.96
638.02	39885.07
638.17	39775.06
638.32	39456.75
638.46	39882.73
638.61	39599.52
638.76	39459.09
638.91	39459.09
639.06	39709.53
639.20	39751.66
639.35	39798.47
639.50	39936.56
639.65	39847.62
639.80	39807.83
639.94	39901.45
640.09	39662.72
640.24	39400.58
640.39	39089.29
640.54	39122.05
640.68	39524.63
640.83	40069.97
640.98	39295.25
641.13	39440.37
641.27	39662.72
641.42	39367.81
641.57	39571.44
641.72	39634.63
641.86	39236.74
642.01	39189.93
642.16	38981.62
642.31	38906.73
642.45	39196.95
642.60	39119.71
642.75	38618.84
642.90	39079.92
643.04	38845.87
643.19	39564.42
643.34	39152.48
643.48	38588.41
643.63	38946.51
643.78	39124.40
643.93	38607.14
644.07	38885.66
644.22	38621.18
644.37	38389.47
644.51	38319.25
644.66	38651.61
644.81	38958.22
644.95	39239.08
645.10	38986.30
645.25	39021.41
645.39	39150.14
645.54	38565.01
645.69	38532.24
645.83	38499.47
645.98	38377.76
646.13	38763.95
646.27	38960.56
646.42	38534.58
646.57	38742.89
646.71	38841.19
646.86	38555.64
647.00	38607.14
647.15	38525.22
647.30	38721.82
647.44	38667.99
647.59	38017.32
647.74	38602.46
647.88	38464.36
648.03	38054.77
648.17	38237.33
648.32	38127.33
648.47	38153.07
648.61	38183.50
648.76	38340.32
648.90	38548.62
649.05	38274.78
649.20	38319.25
649.34	38389.47
649.49	37926.04
649.63	38178.82
649.78	38309.89
649.92	37708.37
650.07	38225.63
650.21	37912.00
650.36	38094.56
650.51	37764.54
650.65	38354.36
650.80	38462.02
650.94	38202.22
651.09	38087.54
651.23	37783.27
651.38	37457.93
651.52	37975.19
651.67	38043.07
651.81	37450.91
651.96	37699.01
652.10	37675.60
652.25	37668.58
652.39	37710.71
652.54	37680.28
652.68	37490.70
652.83	37460.27
652.97	37553.90
653.12	37743.48
653.26	37525.81
653.41	37954.13
653.55	37254.31
653.70	37198.13
653.84	37516.45
653.99	37364.31
654.13	37488.36
654.27	37345.59
654.42	37081.11
654.56	37347.93
654.71	37373.67
654.85	36996.85
655.00	37156.00
655.14	36594.28
655.29	36992.17
655.43	37184.09
655.57	37046.00
655.72	36629.38
655.86	37170.05
656.01	36624.70
656.15	36802.58
656.30	36723.01
656.44	37237.92
656.58	36837.69
656.73	36772.16
656.87	36879.82
657.01	36570.87
657.16	36575.55
657.30	36503.00
657.45	36531.08
657.59	36732.37
657.73	36194.04
657.88	36825.99
658.02	36767.48
658.16	36765.14
658.31	36783.86
658.45	37069.40
658.60	36395.33
658.74	36608.32
658.88	36313.41
659.03	36418.74
659.17	36018.50
659.31	35409.96
659.46	36161.28
659.60	36093.40
659.74	36100.42
659.89	35854.67
660.03	35952.97
660.17	36128.51
660.32	36004.46
660.46	36112.13
660.60	36243.20
660.74	35800.83
660.89	36067.66
661.03	35234.42
661.17	35370.18
661.32	34890.37
661.46	35395.92
661.60	35365.49
661.74	35452.09
661.89	35077.61
662.03	35606.57
662.17	35138.46
662.31	35136.12
662.46	35681.47
662.60	35306.98
662.74	35353.79
662.88	35115.06
663.03	35180.59
663.17	35276.55
663.31	34558.01
663.45	34934.84
663.60	34918.45
663.74	34600.14
663.88	34836.53
664.02	34480.77
664.17	34895.05
664.31	34682.06
664.45	34749.93
664.59	34820.15
664.73	34822.49
664.88	34522.90
665.02	34089.90
665.16	34122.67
665.30	34211.61
665.44	34256.08
665.59	33886.28
665.73	33935.43
665.87	33684.99
666.01	34270.12
666.15	33776.27
666.29	34087.56
666.44	34209.27
666.58	33584.35
666.72	34326.30
666.86	33802.02
667.00	33603.07
667.14	33900.32
667.28	33455.62
667.43	33497.75
667.57	33619.46
667.71	33455.62
667.85	33603.07
667.99	33722.44
668.13	33149.01
668.27	32994.53
668.41	33464.98
668.56	32856.44
668.70	33263.69
668.84	33331.57
668.98	32844.74
669.12	32905.59
669.26	32718.35
669.40	32870.48
669.54	32800.27
669.68	32751.12
669.82	32872.82
669.96	32561.53
670.10	32598.98
670.25	32648.13
670.39	32858.78
670.53	32472.59
670.67	32456.21
670.81	32507.70
670.95	32411.74
671.09	32488.98
671.23	32624.73
671.37	32474.93
671.51	32053.64
671.65	32109.81
671.79	31950.65
671.93	32020.87
672.07	31828.95
672.21	31583.19
672.35	31608.93
672.49	31697.88
672.63	32016.19
672.77	31433.39
672.91	31503.61
673.05	31260.20
673.19	31419.35
673.33	31117.42
673.47	31225.09
673.61	31222.75
673.75	30780.39
673.89	30625.91
674.03	30703.15
674.17	30607.19
674.31	30820.17
674.45	30679.74
674.59	30663.36
674.73	31101.04
674.87	30625.91
675.01	30553.35
675.15	30635.27
675.29	31077.63
675.43	30590.80
675.56	30293.55
675.70	30171.85
675.84	30171.85
675.98	28968.81
676.12	30015.03
676.26	29717.78
676.40	29322.23
676.54	29677.99
676.68	29963.54
676.82	29125.63
676.96	29373.72
677.10	28781.57
677.23	29432.24
677.37	29427.56
677.51	28872.85
677.65	28739.44
677.79	28727.74
677.93	28709.01
678.07	28601.35
678.21	28325.16
678.34	28645.82
678.48	28847.10
678.62	28437.51
678.76	27899.19
678.90	28226.86
679.04	28198.77
679.18	28177.71
679.31	27527.04
679.45	27913.23
679.59	27468.53
679.73	27573.85
679.87	27679.18
680.00	27770.46
680.14	27608.96
680.28	27220.43
680.42	27012.12
680.56	27297.67
680.70	27080.00
680.83	26632.96
680.97	27002.76
681.11	26965.31
681.25	26593.17
681.39	26686.79
681.52	27082.34
681.66	26726.58
681.80	26852.97
681.94	26529.97
682.07	26242.09
682.21	26394.22
682.35	26183.57
682.49	26096.97
682.62	26539.33
682.76	25972.92
682.90	25678.02
683.04	26099.31
683.17	25755.26
683.31	25703.76
683.45	25640.57
683.59	25385.45
683.72	25003.94
683.86	25132.67
684.00	24758.19
684.13	25195.87
684.27	25294.17
684.41	24994.58
684.55	24919.68
684.68	24819.04
684.82	24673.93
684.96	24821.38
685.09	24568.60
685.23	24416.47
685.37	24276.04
685.50	24290.08
685.64	24372.00
685.78	24210.50
685.91	24498.39
686.05	23616.01
686.19	23428.76
686.32	24002.19
686.46	23770.48
686.60	23569.19
686.73	23632.39
686.87	23161.94
687.01	23335.14
687.14	23321.10
687.28	22977.04
687.42	22918.53
687.55	22710.22
687.69	22817.88
687.82	22738.30
687.96	22948.95
688.10	22515.95
688.23	22258.49
688.37	22518.29
688.50	21942.52
688.64	22237.43
688.78	22338.07
688.91	21703.79
689.05	22335.73
689.18	21963.59
689.32	21891.03
689.46	21900.39
689.59	21738.90
689.73	22075.93
689.86	21287.17
690.00	21341.00
690.13	21523.57
690.27	21617.19
690.41	21551.65
690.54	21113.97
690.68	21219.30
690.81	20744.17
690.95	21123.33
691.08	20816.72
691.22	20606.08
691.35	20732.47
691.49	20952.48
691.62	20840.13
691.76	20566.29
691.89	20596.71
692.03	20154.35
692.16	20259.68
692.30	20322.87
692.43	20074.77
692.57	20229.25
692.70	19901.58
692.84	20034.99
692.97	19906.26
693.11	19777.53
693.24	19510.71
693.38	19178.35
693.51	19470.92
693.65	19290.70
693.78	19108.13
693.92	19356.23
694.05	19129.20
694.19	19138.56
694.32	19138.56
694.45	19115.16
694.59	18970.04
694.72	19014.51
694.86	18654.07
694.99	18625.98
695.13	18845.99
695.26	18618.96
695.39	17998.72
695.53	17916.80
695.66	18204.69
695.80	18354.48
695.93	17968.29
696.07	17771.69
696.20	17930.84
696.33	17628.92
696.47	17631.26
696.60	18059.57
696.73	17762.33
696.87	17577.42
697.00	17687.43
697.14	17355.07
697.27	17462.74
697.40	17476.78
697.54	17331.67
697.67	17193.58
697.80	17205.28
697.94	17095.27
698.07	16788.66
698.21	16964.20
698.34	16882.28
698.47	17240.39
698.61	16688.02
698.74	16428.22
698.87	16463.33
699.01	16416.52
699.14	16130.97
699.27	15988.20
699.40	16252.68
699.54	16114.59
699.67	15939.05
699.80	16049.05
699.94	16231.62
700.07	15726.06
700.20	15875.85
700.34	15686.27
700.47	15447.54
700.60	15728.40
700.73	15815.00
700.87	15735.42
701.00	15344.55
701.13	15323.49
701.26	15419.45
701.40	15468.60
701.53	15190.08
701.66	15276.68
701.79	14927.94
701.93	14885.81
702.06	14682.18
702.19	14724.31
702.32	14710.27
702.46	14745.38
702.59	14586.22
702.72	14448.13
702.85	14607.28
702.99	14586.22
703.12	14698.56
703.25	14588.56
703.38	14410.68
703.51	14176.62
703.65	13970.66
703.78	14164.92
703.91	14068.96
704.04	14005.77
704.17	14008.11
704.31	13956.61
704.44	13565.74
704.57	13532.98
704.70	13198.28
704.83	13490.85
704.96	13507.23
705.10	13673.41
705.23	13350.42
>>>>>End Processed Spectral Data<<<<<
