SpectraSuite Data File
++++++++++++++++++++++++++++++++++++
Date: Fri Oct 25 10:44:16 EDT 2013
User: price-jones
Dark Spectrum Present: No
Reference Spectrum Present: No
Number of Sampled Component Spectra: 1
Spectrometers: USB2+H05261
Integration Time (usec): 100000 (USB2+H05261)
Spectra Averaged: 1 (USB2+H05261)
Boxcar Smoothing: 0 (USB2+H05261)
Correct for Electrical Dark: No (USB2+H05261)
Strobe/Lamp Enabled: No (USB2+H05261)
Correct for Detector Non-linearity: No (USB2+H05261)
Correct for Stray Light: No (USB2+H05261)
Number of Pixels in Processed Spectrum: 2048
>>>>>Begin Processed Spectral Data<<<<<
365.73	156.82
365.92	156.82
366.12	156.82
366.32	63.19
366.52	30.43
366.72	84.26
366.91	77.24
367.11	39.79
367.31	35.11
367.51	0.00
367.70	0.00
367.90	51.49
368.10	23.41
368.30	21.06
368.49	0.00
368.69	51.49
368.89	4.68
369.09	49.15
369.28	98.30
369.48	107.66
369.68	112.35
369.87	98.30
370.07	81.92
370.27	138.09
370.47	175.54
370.66	411.93
370.86	498.53
371.06	411.93
371.25	500.87
371.45	463.43
371.65	517.26
371.84	404.91
372.04	451.72
372.24	456.40
372.44	400.23
372.63	505.56
372.83	519.60
373.03	575.77
373.22	552.37
373.42	533.64
373.62	461.09
373.81	545.34
374.01	580.45
374.21	582.79
374.40	550.03
374.60	526.62
374.79	543.00
374.99	575.77
375.19	566.41
375.38	589.82
375.58	613.22
375.78	636.63
375.97	622.58
376.17	685.78
376.37	566.41
376.56	627.26
376.76	571.09
376.95	620.24
377.15	704.50
377.35	692.80
377.54	688.12
377.74	636.63
377.93	592.16
378.13	645.99
378.33	573.43
378.52	660.03
378.72	690.46
378.91	674.07
379.11	622.58
379.31	582.79
379.50	690.46
379.70	685.78
379.89	720.88
380.09	683.44
380.28	667.05
380.48	725.57
380.68	734.93
380.87	615.56
381.07	725.57
381.26	788.76
381.46	725.57
381.65	711.52
381.85	671.73
382.04	662.37
382.24	725.57
382.43	716.20
382.63	692.80
382.83	709.18
383.02	795.78
383.22	765.36
383.41	660.03
383.61	734.93
383.80	835.57
384.00	819.19
384.19	704.50
384.39	837.91
384.58	788.76
384.78	706.84
384.97	805.14
385.17	814.51
385.36	786.42
385.56	741.95
385.75	802.80
385.95	748.97
386.14	887.06
386.34	807.48
386.53	887.06
386.72	779.40
386.92	884.72
387.11	875.36
387.31	842.59
387.50	898.77
387.70	854.30
387.89	887.06
388.09	837.91
388.28	887.06
388.48	837.91
388.67	1036.86
388.86	924.51
389.06	905.79
389.25	973.66
389.45	994.73
389.64	929.19
389.84	964.30
390.03	1006.43
390.22	1050.90
390.42	1036.86
390.61	1062.60
390.81	1015.79
391.00	917.49
391.19	1086.01
391.39	990.05
391.58	1043.88
391.78	1107.07
391.97	1055.58
392.16	1095.37
392.36	1025.15
392.55	992.39
392.75	999.41
392.94	1006.43
393.13	1053.24
393.33	966.64
393.52	1055.58
393.71	1062.60
393.91	1095.37
394.10	1102.39
394.29	1146.86
394.49	1100.05
394.68	1179.63
394.88	1174.95
395.07	1345.81
395.26	1254.53
395.46	1247.51
395.65	1235.80
395.84	1203.04
396.04	1238.14
396.23	1146.86
396.42	1139.84
396.62	1135.16
396.81	1186.65
397.00	1247.51
397.19	1345.81
397.39	1306.02
397.58	1277.93
397.77	1378.58
397.97	1497.94
398.16	1359.85
398.35	1430.07
398.55	1441.77
398.74	1584.54
398.93	1624.33
399.12	1561.14
399.32	1369.21
399.51	1514.33
399.70	1636.03
399.90	1432.41
400.09	1582.20
400.28	1575.18
400.47	1551.78
400.67	1586.88
400.86	1661.78
401.05	1706.25
401.24	1614.97
401.44	1734.34
401.63	1713.27
401.82	1713.27
402.01	1664.12
402.21	1668.80
402.40	1753.06
402.59	1739.02
402.78	1944.99
402.97	1776.47
403.17	1820.94
403.36	1839.66
403.55	1724.97
403.74	1837.32
403.93	1839.66
404.13	1856.04
404.32	1905.20
404.51	1842.00
404.70	1982.43
404.89	1900.52
405.09	2167.34
405.28	1884.13
405.47	1952.01
405.66	2024.56
405.85	1994.14
406.05	1893.49
406.24	1989.46
406.43	2031.58
406.62	1919.24
406.81	2090.10
407.00	2069.03
407.20	2073.71
407.39	2197.76
407.58	2092.44
407.77	2225.85
407.96	2221.17
408.15	2253.94
408.34	2235.21
408.54	2272.66
408.73	2429.48
408.92	2394.37
409.11	2314.79
409.30	2251.60
409.49	2317.13
409.68	2307.77
409.87	2270.32
410.07	2326.49
410.26	2298.41
410.45	2361.60
410.64	2392.03
410.83	2487.99
411.02	2553.52
411.21	2567.57
411.40	2605.02
411.59	2644.81
411.78	2733.75
411.98	2532.46
412.17	2663.53
412.36	2576.93
412.55	2644.81
412.74	2729.06
412.93	2717.36
413.12	2668.21
413.31	2902.26
413.50	2813.32
413.69	2874.18
413.88	2909.29
414.07	2904.60
414.26	2799.28
414.45	3023.97
414.64	3063.76
414.83	3080.14
415.02	3141.00
415.22	3190.15
415.41	3016.95
415.60	2988.86
415.79	3227.60
415.98	3145.68
416.17	3229.94
416.36	3248.66
416.55	3262.71
416.74	3241.64
416.93	3213.56
417.12	3304.84
417.31	3473.36
417.50	3251.00
417.69	3449.95
417.88	3346.97
418.07	3365.69
418.26	3412.50
418.45	3421.86
418.64	3653.58
418.83	3524.85
419.02	3442.93
419.21	3747.20
419.39	3595.06
419.58	3503.78
419.77	3398.46
419.96	3681.66
420.15	3719.11
420.34	3648.90
420.53	3728.47
420.72	3777.62
420.91	3836.14
421.10	3815.07
421.29	3880.61
421.48	3735.50
421.67	3808.05
421.86	3887.63
422.05	3880.61
422.24	3744.86
422.43	3669.96
422.61	3955.51
422.80	3852.52
422.99	3922.74
423.18	3962.53
423.37	3934.44
423.56	3864.22
423.75	3899.33
423.94	3861.88
424.13	3730.81
424.32	3861.88
424.50	3999.98
424.69	4056.15
424.88	3950.82
425.07	4053.81
425.26	3871.25
425.45	3871.25
425.64	3918.06
425.83	3887.63
426.01	3974.23
426.20	4086.58
426.39	3967.21
426.58	3978.91
426.77	3915.72
426.96	3990.61
427.15	4102.96
427.33	3995.29
427.52	4152.11
427.71	4093.60
427.90	4058.49
428.09	4154.45
428.28	4194.24
428.46	4147.43
428.65	4198.92
428.84	4156.79
429.03	4159.13
429.22	4140.41
429.40	4280.84
429.59	4154.45
429.78	3922.74
429.97	3852.52
430.16	4081.89
430.34	4079.55
430.53	4203.60
430.72	4067.85
430.91	4290.20
431.10	4376.80
431.28	4432.97
431.47	4688.09
431.66	4777.03
431.85	4447.02
432.03	4613.20
432.22	4671.71
432.41	4594.47
432.60	4709.16
432.79	4854.27
432.97	4798.10
433.16	4657.67
433.35	4699.80
433.54	4737.24
433.72	4664.69
433.91	4608.51
434.10	4704.48
434.28	4800.44
434.47	4784.06
434.66	4842.57
434.85	5022.79
435.03	4950.23
435.22	4828.53
435.41	5135.14
435.59	5111.73
435.78	5020.45
435.97	5167.90
436.16	5071.94
436.34	5095.35
436.53	5158.54
436.72	5121.09
436.90	5116.41
437.09	5193.65
437.28	5095.35
437.46	5191.31
437.65	5057.90
437.84	5139.82
438.02	5142.16
438.21	5219.39
438.40	5132.79
438.58	5397.28
438.77	5254.50
438.96	5427.70
439.14	5631.33
439.33	5516.64
439.52	5469.83
439.70	5682.82
439.89	5877.09
440.08	5617.29
440.26	5689.84
440.45	5621.97
440.63	5825.59
440.82	6010.50
441.01	5907.51
441.19	5956.66
441.38	6193.06
441.57	6305.40
441.75	6106.46
441.94	6286.68
442.12	6319.45
442.31	6162.63
442.50	6335.83
442.68	6394.34
442.87	6256.25
443.05	6256.25
443.24	6490.31
443.43	6394.34
443.61	6403.71
443.80	6565.20
443.98	6296.04
444.17	6167.31
444.35	6429.45
444.54	6520.73
444.73	6478.60
444.91	6396.68
445.10	6363.92
445.28	6530.09
445.47	6380.30
445.65	6333.49
445.84	6485.62
446.02	6686.91
446.21	6670.53
446.39	6679.89
446.58	6693.93
446.77	6707.98
446.95	6604.99
447.14	6857.77
447.32	6789.89
447.51	6747.76
447.69	6604.99
447.88	6696.27
448.06	6679.89
448.25	6867.13
448.43	6820.32
448.62	6801.60
448.80	6726.70
448.99	6759.47
449.17	6855.43
449.36	6820.32
449.54	6942.03
449.73	6904.58
449.91	7180.76
450.10	7126.93
450.28	7250.98
450.46	7246.30
450.65	7206.51
450.83	7101.19
451.02	7148.00
451.20	7232.26
451.39	7337.58
451.57	7159.70
451.76	7140.97
451.94	7349.28
452.13	7386.73
452.31	7290.77
452.49	7091.82
452.68	7269.70
452.86	7178.42
453.05	7304.81
453.23	7384.39
453.42	7548.23
453.60	7225.23
453.78	7412.48
453.97	7243.96
454.15	7487.37
454.34	7377.37
454.52	7538.87
454.70	7412.48
454.89	7452.27
455.07	7573.97
455.26	7707.38
455.44	7688.66
455.62	7786.96
455.81	7878.24
455.99	7730.79
456.17	7709.72
456.36	7843.14
456.54	7815.05
456.73	8039.74
456.91	7983.57
457.09	8170.81
457.28	8278.47
457.46	8191.88
457.64	8051.44
457.83	7868.88
458.01	7920.37
458.19	8259.75
458.38	8114.64
458.56	8315.92
458.74	8301.88
458.93	8322.94
459.11	8283.16
459.29	8243.37
459.48	8409.54
459.66	8166.13
459.84	8409.54
460.03	8573.38
460.21	8589.77
460.39	8390.82
460.57	8571.04
460.76	8549.98
460.94	8746.58
461.12	8596.79
461.31	8648.28
461.49	8823.82
461.67	8629.56
461.85	8741.90
462.04	8603.81
462.22	9071.92
462.40	8898.72
462.59	8908.08
462.77	8879.99
462.95	8954.89
463.13	9004.04
463.32	8945.53
463.50	9064.89
463.68	8781.69
463.86	8997.02
464.05	8779.35
464.23	8901.06
464.41	8929.14
464.59	8894.04
464.78	9397.25
464.96	9181.92
465.14	9064.89
465.32	9296.61
465.50	9090.64
465.69	9369.16
465.87	9261.50
466.05	9275.54
466.23	9078.94
466.41	9172.56
466.60	9366.82
466.78	9156.18
466.96	9294.27
467.14	9289.59
467.32	9280.22
467.51	9474.49
467.69	9254.48
467.87	9275.54
468.05	9378.53
468.23	9277.88
468.41	9355.12
468.60	9455.76
468.78	9518.96
468.96	9631.30
469.14	9715.56
469.32	9673.43
469.50	9446.40
469.69	9783.44
469.87	9675.77
470.05	9900.47
470.23	9671.09
470.41	9872.38
470.59	9837.27
470.77	9863.02
470.95	10026.86
471.14	9984.73
471.32	10125.16
471.50	10232.82
471.68	10391.98
471.86	10303.04
472.04	10195.37
472.22	10682.20
472.40	10377.94
472.58	10457.51
472.77	10324.10
472.95	10586.24
473.13	10813.28
473.31	10677.52
473.49	10473.90
473.67	10672.84
473.85	10839.02
474.03	10916.26
474.21	10902.22
474.39	11105.84
474.57	11049.67
474.75	10984.13
474.93	11173.72
475.12	11000.52
475.30	11124.57
475.48	11154.99
475.66	11325.85
475.84	11286.06
476.02	11456.92
476.20	11386.71
476.38	11630.12
476.56	12079.50
476.74	11857.15
476.92	11852.47
477.10	11782.26
477.28	12264.41
477.46	12098.23
477.64	12088.87
477.82	12608.47
478.00	12732.51
478.18	12561.66
478.36	12318.24
478.54	12568.68
478.72	12807.41
478.90	12952.52
479.08	13092.96
479.26	13329.35
479.44	13242.75
479.62	13376.16
479.80	13392.55
479.98	13263.82
480.16	13507.23
480.34	13565.74
480.52	13788.10
480.70	13872.36
480.88	13769.37
481.06	13989.38
481.24	13865.33
481.41	14265.57
481.59	14408.34
481.77	14319.40
481.95	14597.92
482.13	14698.56
482.31	14726.65
482.49	14956.02
482.67	14789.85
482.85	14743.03
483.03	15157.31
483.21	15281.36
483.39	15358.60
483.57	15288.38
483.74	15424.13
483.92	15775.21
484.10	15503.71
484.28	15859.47
484.46	15920.32
484.64	16042.03
484.82	16226.93
485.00	16210.55
485.18	16446.94
485.35	16430.56
485.53	15805.64
485.71	16149.70
485.89	16280.77
486.07	16573.33
486.25	16681.00
486.43	16910.37
486.61	17181.87
486.78	17055.48
486.96	17343.37
487.14	17862.97
487.32	17738.92
487.50	18270.22
487.68	18036.17
487.85	18579.17
488.03	18541.72
488.21	18338.10
488.39	18630.66
488.57	18286.61
488.75	18719.60
488.92	18937.27
489.10	19545.81
489.28	19403.04
489.46	19927.32
489.64	19768.16
489.81	20067.75
489.99	20315.85
490.17	20144.99
490.35	20369.68
490.53	20486.71
490.70	20489.05
490.88	20638.84
491.06	20877.58
491.24	20903.32
491.41	20741.83
491.59	20774.60
491.77	20830.77
491.95	21128.02
492.13	21420.58
492.30	21589.10
492.48	21692.08
492.66	21577.40
492.84	21528.25
493.01	22146.15
493.19	22001.04
493.37	22312.33
493.54	22263.18
493.72	22438.72
493.90	22459.78
494.08	22946.61
494.25	23047.26
494.43	23372.59
494.61	23477.91
494.79	23843.04
494.96	23414.72
495.14	23461.53
495.32	23475.57
495.49	23489.62
495.67	24109.86
495.85	23908.57
496.02	24156.67
496.20	24531.15
496.38	24315.83
496.55	24549.88
496.73	24805.00
496.91	24673.93
497.09	25032.03
497.26	25055.43
497.44	24971.18
497.62	25450.99
497.79	25275.45
497.97	25266.08
498.14	25582.06
498.32	25542.27
498.50	25862.92
498.67	26103.99
498.85	25752.91
499.03	26096.97
499.20	26178.89
499.38	26214.00
499.56	26422.31
499.73	26529.97
499.91	26789.77
500.08	26326.35
500.26	26679.77
500.44	26696.15
500.61	26593.17
500.79	26536.99
500.97	27337.46
501.14	26967.65
501.32	26948.93
501.49	27321.07
501.67	27290.65
501.84	27529.38
502.02	27140.85
502.20	27807.90
502.37	28215.16
502.55	27716.62
502.72	27974.08
502.90	28041.96
503.07	27854.72
503.25	27988.13
503.43	27803.22
503.60	27953.02
503.78	28402.40
503.95	28304.10
504.13	28650.50
504.30	28559.22
504.48	28889.23
504.65	28769.86
504.83	29156.05
505.01	29305.85
505.18	29600.76
505.36	29434.58
505.53	29385.43
505.71	29844.17
505.88	29518.84
506.06	29090.52
506.23	29685.01
506.41	29738.85
506.58	29586.71
506.76	29727.14
506.93	29883.96
507.11	30000.99
507.28	29956.52
507.46	30010.35
507.63	30113.33
507.81	30258.45
507.98	29820.77
508.16	30352.07
508.33	30974.65
508.50	30581.44
508.68	30848.26
508.85	31428.71
509.03	31342.11
509.20	31253.17
509.38	31030.82
509.55	31253.17
509.73	31515.31
509.90	31564.46
510.08	31381.90
510.25	31421.69
510.42	31482.55
510.60	31695.53
510.77	31847.67
510.95	31960.02
511.12	32116.83
511.30	31922.57
511.47	32570.90
511.64	32479.61
511.82	32545.15
511.99	32308.76
512.17	32327.48
512.34	32266.63
512.51	32552.17
512.69	32863.46
512.86	32535.79
513.04	33041.34
513.21	32921.98
513.38	32554.51
513.56	33083.47
513.73	32875.16
513.90	33556.26
514.08	33071.77
514.25	33586.69
514.43	33024.96
514.60	33024.96
514.77	33362.00
514.95	34022.03
515.12	33668.61
515.29	33848.83
515.47	33909.68
515.64	33998.62
515.81	33656.90
515.99	33956.49
516.16	33928.41
516.33	33387.74
516.51	33717.76
516.68	33448.60
516.85	33511.79
517.03	33450.94
517.20	34052.45
517.37	34450.35
517.54	34728.87
517.72	34323.96
517.89	34106.29
518.06	33876.91
518.24	34000.96
518.41	34448.00
518.58	34614.18
518.75	34553.33
518.93	34944.20
519.10	34946.54
519.27	35208.68
519.45	35314.00
519.62	35419.33
519.79	35414.65
519.96	35646.36
520.14	35690.83
520.31	35194.64
520.48	35627.63
520.65	35606.57
520.83	35910.84
521.00	35924.88
521.17	35751.68
521.34	36320.43
521.52	36290.01
521.69	36053.61
521.86	36318.09
522.03	36458.52
522.20	36205.75
522.38	36416.40
522.55	36868.12
522.72	36734.71
522.89	36914.93
523.07	36699.60
523.24	36737.05
523.41	36921.95
523.58	36886.84
523.75	37579.64
523.92	36985.15
524.10	37296.44
524.27	37488.36
524.44	37397.08
524.61	37467.30
524.78	37432.19
524.96	37610.07
525.13	37975.19
525.30	37570.28
525.47	38333.29
525.64	37677.94
525.81	38202.22
525.98	37432.19
526.16	37572.62
526.33	37387.72
526.50	37773.91
526.67	37649.86
526.84	37762.20
527.01	37443.89
527.18	37764.54
527.36	38103.92
527.53	38614.16
527.70	38593.09
527.87	38270.10
528.04	38122.65
528.21	38597.77
528.38	39164.18
528.55	38742.89
528.72	38820.13
528.89	39171.21
529.07	39236.74
529.24	39014.39
529.41	38859.91
529.58	38965.24
529.75	39143.12
529.92	39346.75
530.09	39306.96
530.26	39533.99
530.43	39042.48
530.60	39402.92
530.77	39091.63
530.94	39625.27
531.11	39304.62
531.28	39693.15
531.46	39606.55
531.63	39796.13
531.80	39096.31
531.97	39580.80
532.14	39751.66
532.31	39531.65
532.48	39491.86
532.65	39601.86
532.82	39700.17
532.99	39831.24
533.16	40034.86
533.33	39739.96
533.50	40238.49
533.67	40011.46
533.84	40032.52
534.01	39983.37
534.18	40402.33
534.35	40409.35
534.52	40329.77
534.69	40648.08
534.86	40411.69
535.03	40568.51
535.20	40739.36
535.37	41153.64
535.54	41081.08
535.71	41097.47
535.88	41024.91
536.05	40648.08
536.22	40840.01
536.38	40748.73
536.55	40545.10
536.72	40505.31
536.89	40381.26
537.06	40891.50
537.23	40999.16
537.40	41031.93
537.57	40924.27
537.74	41167.68
537.91	41205.13
538.08	41322.16
538.25	41116.19
538.42	41158.32
538.59	41418.12
538.75	41371.31
538.92	41591.32
539.09	41759.84
539.26	41507.06
539.43	41710.69
539.60	41631.11
539.77	41001.50
539.94	41893.25
540.11	41090.44
540.28	41495.36
540.44	41603.02
540.61	42024.32
540.78	41808.99
540.95	41776.22
541.12	41785.58
541.29	41659.20
541.46	41771.54
541.62	41766.86
541.79	42181.13
541.96	42019.64
542.13	42436.25
542.30	42026.66
542.47	42007.94
542.63	42305.18
542.80	42234.97
542.97	42443.27
543.14	42810.74
543.31	42843.51
543.48	42698.39
543.64	43213.31
543.81	42904.36
543.98	42609.45
544.15	43093.94
544.32	42705.41
544.48	43480.13
544.65	43021.39
544.82	43040.11
544.99	42576.69
545.16	42981.60
545.32	43096.28
545.49	43915.47
545.66	43606.52
545.83	43105.65
546.00	43487.15
546.16	43203.95
546.33	43239.06
546.50	42993.30
546.67	43428.64
546.83	43028.41
547.00	43356.08
547.17	43468.43
547.34	43161.82
547.50	43283.53
547.67	43201.61
547.84	43519.92
548.00	44039.52
548.17	44037.18
548.34	43653.33
548.51	44123.78
548.67	43564.39
548.84	44095.69
549.01	43814.83
549.18	43934.20
549.34	44369.54
549.51	44135.48
549.68	44137.82
549.84	44177.61
550.01	44058.24
550.18	44355.49
550.34	44208.04
550.51	44205.70
550.68	44357.83
550.84	43852.28
551.01	44406.98
551.18	44067.61
551.34	43927.17
551.51	44580.18
551.68	44102.71
551.84	44662.10
552.01	44315.70
552.18	44481.88
552.34	44294.64
552.51	44371.88
552.68	44231.44
552.84	44954.67
553.01	44898.50
553.18	44739.34
553.34	44584.86
553.51	44596.57
553.67	44601.25
553.84	44634.02
554.01	45062.33
554.17	44788.49
554.34	44769.77
554.51	45148.93
554.67	45179.36
554.84	44608.27
555.00	44795.51
555.17	44690.19
555.33	44971.05
555.50	44966.37
555.67	44966.37
555.83	44947.65
556.00	45132.55
556.16	45251.92
556.33	45031.91
556.50	44942.97
556.66	45097.44
556.83	44758.06
556.99	45193.40
557.16	45165.32
557.32	44928.92
557.49	45202.77
557.65	45125.53
557.82	45340.86
557.98	45343.20
558.15	45008.50
558.32	45617.04
558.48	45216.81
558.65	45303.41
558.81	44781.47
558.98	45361.92
559.14	45048.29
559.31	45237.87
559.47	45352.56
559.64	45432.14
559.80	45457.88
559.97	45352.56
560.13	45507.04
560.30	44875.09
560.46	45357.24
560.63	45731.73
560.79	45876.84
560.96	45654.49
561.12	45694.28
561.29	45476.61
561.45	45752.79
561.61	45595.98
561.78	45474.27
561.94	45226.17
562.11	45600.66
562.27	45839.39
562.44	45860.46
562.60	45425.12
562.77	45759.81
562.93	45909.61
563.10	46160.05
563.26	45439.16
563.42	45544.48
563.59	45296.39
563.75	45427.46
563.92	46155.36
564.08	45500.01
564.24	45743.43
564.41	45930.67
564.57	45944.72
564.74	46050.04
564.90	45991.53
565.07	46192.81
565.23	45670.87
565.39	45558.53
565.56	46078.13
565.72	45638.11
565.88	45668.53
566.05	45390.01
566.21	45680.24
566.38	45947.06
566.54	46323.88
566.70	46300.48
566.87	46291.12
567.03	46087.49
567.19	46258.35
567.36	46232.60
567.52	46232.60
567.68	46108.55
567.85	46150.68
568.01	46073.45
568.17	46031.32
568.34	45965.78
568.50	46176.43
568.66	45979.82
568.83	45961.10
568.99	45757.47
569.15	45811.31
569.32	45734.07
569.48	45691.94
569.64	46234.94
569.81	46323.88
569.97	46192.81
570.13	46138.98
570.30	45635.77
570.46	45488.31
570.62	45713.00
570.78	45713.00
570.95	45687.26
571.11	46075.79
571.27	45755.13
571.43	46050.04
571.60	46068.76
571.76	46183.45
571.92	46246.65
572.09	45911.95
572.25	46312.18
572.41	46000.89
572.57	46335.59
572.74	46330.90
572.90	45935.35
573.06	46265.37
573.22	46204.52
573.38	46199.83
573.55	45780.88
573.71	46197.49
573.87	46216.22
574.03	46202.18
574.20	45844.07
574.36	45897.91
574.52	46286.43
574.68	46052.38
574.84	46227.92
575.01	45940.04
575.17	46171.75
575.33	45481.29
575.49	46036.00
575.65	46225.58
575.82	46476.02
575.98	46436.23
576.14	46415.16
576.30	46096.85
576.46	46248.99
576.62	46117.92
576.79	46188.13
576.95	46080.47
577.11	46082.81
577.27	46354.31
577.43	46405.80
577.59	46480.70
577.75	45539.80
577.92	45811.31
578.08	45982.16
578.24	45949.40
578.40	46031.32
578.56	45993.87
578.72	46377.72
578.88	46745.18
579.04	46260.69
579.21	45925.99
579.37	46185.79
579.53	46134.30
579.69	46094.51
579.85	46256.01
580.01	46513.47
580.17	46230.26
580.33	46813.05
580.49	46691.35
580.65	46454.95
580.82	46293.46
580.98	46181.11
581.14	46230.26
581.30	46164.73
581.46	46705.39
581.62	46571.98
581.78	46438.57
581.94	46700.71
582.10	46335.59
582.26	46129.62
582.42	46164.73
582.58	46293.46
582.74	46700.71
582.90	46045.36
583.06	46356.65
583.22	46583.68
583.38	46768.58
583.54	46436.23
583.70	46043.02
583.86	46073.45
584.02	46230.26
584.18	46366.01
584.34	46129.62
584.50	46660.92
584.66	46253.67
584.82	46108.55
584.98	46667.94
585.14	46408.14
585.30	45841.73
585.46	46099.19
585.62	46431.55
585.78	46274.73
585.94	45839.39
586.10	46838.80
586.26	46354.31
586.42	46522.83
586.58	46351.97
586.74	46415.16
586.90	46550.91
587.06	46457.29
587.22	46415.16
587.38	45921.31
587.54	46141.32
587.70	46827.10
587.86	46504.10
588.02	46469.00
588.18	46122.60
588.34	46230.26
588.49	45853.44
588.65	45563.21
588.81	45689.60
588.97	45818.33
589.13	45661.51
589.29	46101.53
589.45	46007.91
589.61	46265.37
589.77	46646.88
589.93	46342.61
590.08	46583.68
590.24	46586.02
590.40	46272.39
590.56	47012.00
590.72	46501.76
590.88	46445.59
591.04	46522.83
591.20	46766.24
591.35	46677.30
591.51	46937.10
591.67	46829.44
591.83	46621.13
591.99	46178.77
592.15	46309.84
592.31	46635.17
592.46	46576.66
592.62	46461.97
592.78	46499.42
592.94	46897.31
593.10	46590.70
593.26	46574.32
593.41	46609.43
593.57	46394.10
593.73	46307.50
593.89	46382.40
594.05	46288.77
594.20	46499.42
594.36	46450.27
594.52	46391.76
594.68	46698.37
594.84	46082.81
594.99	46693.69
595.15	46485.38
595.31	46356.65
595.47	46363.67
595.62	46735.82
595.78	46087.49
595.94	46775.61
596.10	46780.29
596.25	46550.91
596.41	46667.94
596.57	46707.73
596.73	46878.59
596.88	46447.93
597.04	46553.26
597.20	46579.00
597.36	46752.20
597.51	46841.14
597.67	46543.89
597.83	46639.86
597.99	46829.44
598.14	46852.84
598.30	46445.59
598.46	46916.04
598.61	46344.95
598.77	46328.56
598.93	46487.72
599.09	46497.08
599.24	47288.18
599.40	47091.58
599.56	46726.46
599.71	46476.02
599.87	46740.50
600.03	46831.78
600.18	46356.65
600.34	46574.32
600.50	46286.43
600.65	46546.23
600.81	46511.13
600.97	46377.72
601.12	46766.24
601.28	46677.30
601.44	46213.88
601.59	46518.15
601.75	46642.20
601.91	46667.94
602.06	46328.56
602.22	46054.72
602.37	46286.43
602.53	46665.60
602.69	47133.71
602.84	46656.24
603.00	46377.72
603.16	46511.13
603.31	46319.20
603.47	46314.52
603.62	46450.27
603.78	46616.45
603.94	46246.65
604.09	46927.74
604.25	46749.86
604.40	46485.38
604.56	46024.29
604.71	46574.32
604.87	46260.69
605.03	46527.51
605.18	46309.84
605.34	46436.23
605.49	46195.15
605.65	46508.79
605.80	46024.29
605.96	46471.34
606.12	46422.19
606.27	46717.09
606.43	46167.07
606.58	46412.82
606.74	45895.56
606.89	46295.80
607.05	46483.04
607.20	46681.98
607.36	46314.52
607.51	46326.22
607.67	46344.95
607.82	46171.75
607.98	46143.66
608.13	46293.46
608.29	46026.63
608.44	45815.99
608.60	45336.18
608.75	45771.52
608.91	46253.67
609.06	46251.33
609.22	46525.17
609.37	45764.49
609.53	46307.50
609.68	46110.89
609.84	45694.28
609.99	46036.00
610.15	45715.34
610.30	45858.12
610.46	45867.48
610.61	45923.65
610.76	45895.56
610.92	45923.65
611.07	45794.92
611.23	46085.15
611.38	45221.49
611.54	45806.62
611.69	45397.03
611.84	45485.97
612.00	45350.22
612.15	45661.51
612.31	45972.80
612.46	45624.06
612.62	45488.31
612.77	45717.68
612.92	45691.94
613.08	45502.35
613.23	45804.28
613.39	45280.00
613.54	44954.67
613.69	45518.74
613.85	45656.83
614.00	45951.74
614.15	45752.79
614.31	45731.73
614.46	45724.71
614.62	45703.64
614.77	45635.77
614.92	45434.48
615.08	45390.01
615.23	45509.38
615.38	45546.82
615.54	44786.15
615.69	45340.86
615.84	44905.52
616.00	44870.41
616.15	44865.73
616.30	45230.85
616.46	44961.69
616.61	44837.64
616.76	44987.44
616.92	44444.43
617.07	45120.85
617.22	44638.70
617.37	44289.96
617.53	45450.86
617.68	45186.38
617.83	45205.11
617.99	44994.46
618.14	44788.49
618.29	44797.85
618.45	44671.46
618.60	44495.92
618.75	44577.84
618.90	44685.51
619.06	45006.16
619.21	44854.03
619.36	45074.04
619.51	44821.26
619.67	44992.12
619.82	44760.40
619.97	44339.11
620.12	44261.87
620.28	44460.82
620.43	44411.67
620.58	44362.51
620.73	44311.02
620.89	43880.36
621.04	44210.38
621.19	44669.12
621.34	44334.43
621.49	44306.34
621.65	43969.30
621.80	44341.45
621.95	44107.40
622.10	43997.39
622.25	43873.34
622.41	43517.58
622.56	44151.87
622.71	44524.01
622.86	44048.88
623.01	44093.35
623.16	43772.70
623.32	44020.80
623.47	44020.80
623.62	43658.01
623.77	43606.52
623.92	44301.66
624.07	43461.41
624.23	43496.52
624.38	43288.21
624.53	43655.67
624.68	43835.89
624.83	43538.65
624.98	43732.91
625.13	43276.51
625.29	43871.00
625.44	43611.20
625.59	43040.11
625.74	42988.62
625.89	42799.04
626.04	42941.81
626.19	43140.75
626.34	43548.01
626.49	43468.43
626.65	43217.99
626.80	43503.54
626.95	43236.72
627.10	43000.32
627.25	43159.48
627.40	42375.40
627.55	42691.37
627.70	42609.45
627.85	42646.90
628.00	42539.24
628.15	43056.50
628.30	42667.97
628.45	43035.43
628.60	42981.60
628.76	42454.98
628.91	42899.68
629.06	43175.86
629.21	43096.28
629.36	42660.94
629.51	42735.84
629.66	42747.54
629.81	42237.31
629.96	42424.55
630.11	42572.00
630.26	42810.74
630.41	42410.51
630.56	42429.23
630.71	42691.37
630.86	42054.75
631.01	42387.10
631.16	42314.55
631.31	42464.34
631.46	42209.22
631.61	42281.78
631.76	41923.68
631.91	42344.97
632.06	42745.20
632.21	42323.91
632.36	42483.06
632.51	42036.02
632.66	42038.36
632.81	41649.83
632.96	41921.34
633.10	42029.00
633.25	42085.17
633.40	42307.52
633.55	42010.28
633.70	41834.74
633.85	42036.02
634.00	41787.92
634.15	41766.86
634.30	42384.76
634.45	41778.56
634.60	42169.43
634.75	41984.53
634.90	41801.97
635.05	42033.68
635.19	41345.56
635.34	42260.71
635.49	41818.35
635.64	41708.35
635.79	41483.66
635.94	41219.17
636.09	41848.78
636.24	41607.70
636.39	41336.20
636.53	41027.25
636.68	41581.96
636.83	41415.78
636.98	41521.10
637.13	41043.63
637.28	41448.55
637.43	41701.32
637.57	41619.41
637.72	41839.42
637.87	41001.50
638.02	41514.08
638.17	41312.80
638.32	40655.11
638.46	40856.39
638.61	41256.62
638.76	41464.93
638.91	40975.76
639.06	41570.25
639.20	41221.52
639.35	41268.33
639.50	40725.32
639.65	41322.16
639.80	41076.40
639.94	41235.56
640.09	41198.11
640.24	40809.58
640.39	40261.90
640.54	40488.93
640.68	40676.17
640.83	40608.29
640.98	40542.76
641.13	40254.87
641.27	40842.35
641.42	40828.30
641.57	40584.89
641.72	40648.08
641.86	40287.64
642.01	40126.14
642.16	39859.32
642.31	40144.87
642.45	40238.49
642.60	40224.45
642.75	40264.24
642.90	40474.88
643.04	40130.83
643.19	40156.57
643.34	40229.13
643.48	40041.88
643.63	40137.85
643.78	40067.63
643.93	40170.61
644.07	39896.77
644.22	39770.38
644.37	39934.22
644.51	39749.32
644.66	39957.63
644.81	40121.46
644.95	40182.32
645.10	40062.95
645.25	40154.23
645.39	39976.35
645.54	39622.93
645.69	39761.02
645.83	40013.80
645.98	39620.59
646.13	39761.02
646.27	39803.15
646.42	39318.66
646.57	39784.43
646.71	39629.95
646.86	39707.19
647.00	39859.32
647.15	39672.08
647.30	39393.56
647.44	39339.72
647.59	39824.22
647.74	39199.29
647.88	39416.96
648.03	39562.08
648.17	39283.55
648.32	38799.06
648.47	39669.74
648.61	39269.51
648.76	39290.57
648.90	39257.81
649.05	38789.70
649.20	39189.93
649.34	38841.19
649.49	38646.93
649.63	38855.23
649.78	39056.52
649.92	38904.38
650.07	39117.37
650.21	39063.54
650.36	39201.63
650.51	39063.54
650.65	39538.67
650.80	39405.26
650.94	38941.83
651.09	38998.01
651.23	38813.10
651.38	39386.54
651.52	38721.82
651.67	38536.92
651.81	38691.40
651.96	38433.94
652.10	38450.32
652.25	38667.99
652.39	38773.31
652.54	38857.57
652.68	38911.41
652.83	38555.64
652.97	38845.87
653.12	38396.49
653.26	38565.01
653.41	38845.87
653.55	38206.90
653.70	38478.41
653.84	38754.59
653.99	38071.15
654.13	38473.73
654.27	38473.73
654.42	37954.13
654.56	37816.04
654.71	38120.31
654.85	38272.44
655.00	38115.62
655.14	37841.78
655.29	37659.22
655.43	38057.11
655.57	37677.94
655.72	37455.59
655.86	37308.14
656.01	37666.24
656.15	37167.71
656.30	37464.96
656.44	37773.91
656.58	37411.12
656.73	37219.20
656.87	37284.73
657.01	37322.18
657.16	37584.32
657.30	37361.97
657.45	37144.30
657.59	37649.86
657.73	37593.68
657.88	37759.86
658.02	37624.11
658.16	37710.71
658.31	37776.25
658.45	37689.65
658.60	37308.14
658.74	37490.70
658.88	37394.74
659.03	37240.26
659.17	37095.15
659.31	37088.13
659.46	37148.98
659.60	37294.10
659.74	36765.14
659.89	36287.67
660.03	36912.59
660.17	37268.35
660.32	36643.43
660.46	37287.07
660.60	36727.69
660.74	36863.44
660.89	36739.39
661.03	36290.01
661.17	36147.23
661.32	36198.73
661.46	36439.80
661.60	37022.59
661.74	36404.69
661.89	36746.41
662.03	36147.23
662.17	36495.97
662.31	36189.36
662.46	36400.01
662.60	36605.98
662.74	36367.24
662.88	35934.24
663.03	35622.95
663.17	35908.50
663.31	35936.59
663.45	35704.87
663.60	36030.21
663.74	35601.89
663.88	35875.73
664.02	35679.13
664.17	35985.74
664.31	35323.36
664.45	35655.72
664.59	35627.63
664.73	35398.26
664.88	35889.77
665.02	35281.24
665.16	35058.88
665.30	35416.99
665.44	35189.95
665.59	35225.06
665.73	34925.47
665.87	34988.67
666.01	35040.16
666.15	35171.23
666.29	34555.67
666.44	35054.20
666.58	34822.49
666.72	34590.78
666.86	35122.08
667.00	34604.82
667.14	34398.85
667.28	34153.10
667.43	34005.64
667.57	34143.74
667.71	34452.69
667.85	34038.41
667.99	34391.83
668.13	33893.30
668.27	34005.64
668.41	34260.76
668.56	34000.96
668.70	34375.45
668.84	33867.55
668.98	33371.36
669.12	33397.10
669.26	33612.43
669.40	33167.73
669.54	33394.76
669.68	33560.94
669.82	33567.96
669.96	33500.09
670.10	33249.65
670.25	33530.51
670.39	33387.74
670.53	33046.02
670.67	33123.26
670.81	33383.06
670.95	33251.99
671.09	32840.06
671.23	33280.08
671.37	32655.15
671.51	32790.91
671.65	32554.51
671.79	32451.53
671.93	32505.36
672.07	33008.58
672.21	32477.27
672.35	32535.79
672.49	32772.18
672.63	32617.71
672.77	32449.19
672.91	32304.07
673.05	32325.14
673.19	32063.00
673.33	31927.25
673.47	31782.13
673.61	31772.77
673.75	31555.10
673.89	31534.04
674.03	31101.04
674.17	31307.01
674.31	31576.17
674.45	31723.62
674.59	31360.84
674.73	31489.57
674.87	31068.27
675.01	31606.59
675.15	31129.12
675.29	31379.56
675.43	30906.77
675.56	30773.36
675.70	31211.04
675.84	30710.17
675.98	29965.88
676.12	30941.88
676.26	30492.50
676.40	30644.63
676.54	30560.37
676.68	30167.16
676.82	29979.92
676.96	30249.08
677.10	30438.67
677.23	29745.87
677.37	29839.49
677.51	29649.91
677.65	29488.41
677.79	29551.60
677.93	29352.66
678.07	29355.00
678.21	28821.36
678.34	28971.15
678.48	29048.39
678.62	29127.97
678.76	28549.85
678.90	28465.60
679.04	28556.88
679.18	28840.08
679.31	28582.62
679.45	28166.01
679.59	28056.00
679.73	28360.27
679.87	28175.37
680.00	28154.30
680.14	28086.43
680.28	27924.93
680.42	28266.65
680.56	28194.09
680.70	27171.28
680.83	27791.52
680.97	27833.65
681.11	27559.81
681.25	27524.70
681.39	27278.94
681.52	27400.65
681.66	27264.90
681.80	27091.70
681.94	27276.60
682.07	27068.30
682.21	26754.66
682.35	26565.08
682.49	27138.51
682.62	26670.40
682.76	26661.04
682.90	26169.53
683.04	26141.44
683.17	26405.92
683.31	26115.70
683.45	26176.55
683.59	25610.14
683.72	25710.78
683.86	25619.50
684.00	25874.62
684.13	25495.46
684.27	25156.08
684.41	25287.15
684.55	25556.31
684.68	25228.63
684.82	25167.78
684.96	25287.15
685.09	24858.83
685.23	24900.96
685.37	24987.56
685.50	24622.44
685.64	24950.11
685.78	24423.49
685.91	24390.72
686.05	24367.32
686.19	24130.92
686.32	24278.38
686.46	23616.01
686.60	23552.81
686.73	23419.40
686.87	23438.12
687.01	23314.08
687.14	23030.87
687.28	22934.91
687.42	23276.63
687.55	23330.46
687.69	23365.57
687.82	23213.43
687.96	23124.49
688.10	23070.66
688.23	22827.24
688.37	22345.09
688.50	22799.16
688.64	22616.60
688.78	22721.92
688.91	22436.38
689.05	22181.26
689.18	22356.80
689.32	22204.66
689.46	22118.06
689.59	22218.71
689.73	22190.62
689.86	21921.46
690.00	21937.84
690.13	22073.59
690.27	21771.66
690.41	21628.89
690.54	21165.46
690.68	21216.96
690.81	21364.41
690.95	21619.53
691.08	21074.18
691.22	21078.86
691.35	21385.47
691.49	21111.63
691.62	21385.47
691.76	21401.86
691.89	20819.07
692.03	20711.40
692.16	20416.49
692.30	20650.55
692.43	20210.53
692.57	20320.53
692.70	20496.07
692.84	20456.28
692.97	20116.90
693.11	20121.59
693.24	20079.46
693.38	19789.23
693.51	19798.59
693.65	19896.89
693.78	19686.25
693.92	19644.12
694.05	19709.65
694.19	19459.21
694.32	19227.50
694.45	19353.89
694.59	18874.08
694.72	19138.56
694.86	18892.80
694.99	18981.74
695.13	18977.06
695.26	19229.84
695.39	18953.66
695.53	18705.56
695.66	18838.97
695.80	18810.89
695.93	18480.87
696.07	18188.30
696.20	18307.67
696.33	18422.36
696.47	18225.75
696.60	18099.36
696.73	18029.15
696.87	17994.04
697.00	17841.90
697.14	17853.61
697.27	17879.35
697.40	17738.92
697.54	17575.08
697.67	17397.20
697.80	17415.93
697.94	17078.89
698.07	17308.26
698.21	17188.89
698.34	17198.26
698.47	17011.01
698.61	16730.15
698.74	16840.15
698.87	16610.78
699.01	16346.30
699.14	16505.46
699.27	16545.25
699.40	16430.56
699.54	16231.62
699.67	16231.62
699.80	16311.19
699.94	16145.02
700.07	16149.70
700.20	15957.77
700.34	15868.83
700.47	16215.23
700.60	16175.44
700.73	16170.76
700.87	15793.94
701.00	15426.47
701.13	15651.16
701.26	15737.76
701.40	15410.09
701.53	15438.17
701.66	15283.70
701.79	15522.43
701.93	15286.04
702.06	15248.59
702.19	15101.14
702.32	14972.41
702.46	15007.52
702.59	14661.12
702.72	14934.96
702.85	14752.40
702.99	14558.13
703.12	14654.09
703.25	14553.45
703.38	14593.24
703.51	14640.05
703.65	14452.81
703.78	14333.44
703.91	14171.94
704.04	14384.93
704.17	14368.55
704.31	14001.08
704.44	14143.86
704.57	14178.97
704.70	13968.32
704.83	13757.67
704.96	13776.39
705.10	14080.66
705.23	13685.11
>>>>>End Processed Spectral Data<<<<<
