SpectraSuite Data File
++++++++++++++++++++++++++++++++++++
Date: Fri Oct 25 10:44:04 EDT 2013
User: price-jones
Dark Spectrum Present: No
Reference Spectrum Present: No
Number of Sampled Component Spectra: 1
Spectrometers: USB2+H05261
Integration Time (usec): 100000 (USB2+H05261)
Spectra Averaged: 1 (USB2+H05261)
Boxcar Smoothing: 0 (USB2+H05261)
Correct for Electrical Dark: No (USB2+H05261)
Strobe/Lamp Enabled: No (USB2+H05261)
Correct for Detector Non-linearity: No (USB2+H05261)
Correct for Stray Light: No (USB2+H05261)
Number of Pixels in Processed Spectrum: 2048
>>>>>Begin Processed Spectral Data<<<<<
365.73	121.71
365.92	121.71
366.12	121.71
366.32	81.92
366.52	0.00
366.72	72.56
366.91	70.22
367.11	0.00
367.31	53.83
367.51	32.77
367.70	39.79
367.90	0.00
368.10	0.00
368.30	56.17
368.49	0.00
368.69	30.43
368.89	0.00
369.09	4.68
369.28	79.58
369.48	63.19
369.68	102.98
369.87	79.58
370.07	117.03
370.27	91.28
370.47	173.20
370.66	442.36
370.86	435.34
371.06	491.51
371.25	606.20
371.45	479.81
371.65	524.28
371.84	444.70
372.04	559.39
372.24	433.00
372.44	566.41
372.63	550.03
372.83	559.39
373.03	503.22
373.22	585.13
373.42	547.69
373.62	514.92
373.81	526.62
374.01	592.16
374.21	538.32
374.40	587.47
374.60	535.98
374.79	606.20
374.99	603.86
375.19	603.86
375.38	678.76
375.58	643.65
375.78	631.94
375.97	645.99
376.17	615.56
376.37	624.92
376.56	653.01
376.76	681.10
376.95	589.82
377.15	566.41
377.35	622.58
377.54	657.69
377.74	648.33
377.93	725.57
378.13	667.05
378.33	667.05
378.52	716.20
378.72	688.12
378.91	695.14
379.11	737.27
379.31	683.44
379.50	587.47
379.70	739.61
379.89	737.27
380.09	727.91
380.28	676.41
380.48	561.73
380.68	645.99
380.87	711.52
381.07	699.82
381.26	695.14
381.46	779.40
381.65	690.46
381.85	690.46
382.04	629.60
382.24	681.10
382.43	657.69
382.63	727.91
382.83	739.61
383.02	798.12
383.22	690.46
383.41	725.57
383.61	723.23
383.80	772.38
384.00	805.14
384.19	653.01
384.39	821.53
384.58	805.14
384.78	833.23
384.97	875.36
385.17	835.57
385.36	866.00
385.56	837.91
385.75	856.64
385.95	805.14
386.14	863.66
386.34	840.25
386.53	840.25
386.72	917.49
386.92	908.13
387.11	847.27
387.31	814.51
387.50	971.32
387.70	924.51
387.89	922.17
388.09	905.79
388.28	830.89
388.48	901.11
388.67	968.98
388.86	1111.75
389.06	964.30
389.25	957.28
389.45	994.73
389.64	1041.54
389.84	1043.88
390.03	1057.92
390.22	1090.69
390.42	1018.13
390.61	1043.88
390.81	1121.12
391.00	1074.31
391.19	1060.26
391.39	1048.56
391.58	1095.37
391.78	1118.78
391.97	1067.28
392.16	1071.97
392.36	1060.26
392.55	1102.39
392.75	1018.13
392.94	1039.20
393.13	971.32
393.33	997.07
393.52	1064.94
393.71	1160.91
393.91	1212.40
394.10	1207.72
394.29	1118.78
394.49	1196.01
394.68	1277.93
394.88	1299.00
395.07	1294.32
395.26	1287.29
395.46	1261.55
395.65	1296.66
395.84	1231.12
396.04	1341.13
396.23	1219.42
396.42	1160.91
396.62	1146.86
396.81	1291.98
397.00	1315.38
397.19	1303.68
397.39	1376.24
397.58	1451.13
397.77	1411.34
397.97	1430.07
398.16	1497.94
398.35	1530.71
398.55	1465.18
398.74	1549.43
398.93	1535.39
399.12	1526.03
399.32	1607.95
399.51	1600.93
399.70	1638.38
399.90	1692.21
400.09	1727.32
400.28	1650.08
400.47	1703.91
400.67	1722.63
400.86	1710.93
401.05	1771.79
401.24	1769.44
401.44	1694.55
401.63	1858.39
401.82	1895.83
402.01	1764.76
402.21	1905.20
402.40	1774.13
402.59	1893.49
402.78	1865.41
402.97	1804.55
403.17	1963.71
403.36	1851.36
403.55	1912.22
403.74	2017.54
403.93	1930.94
404.13	1954.35
404.32	1928.60
404.51	1975.41
404.70	1949.67
404.89	2015.20
405.09	2097.12
405.28	1952.01
405.47	1994.14
405.66	2101.80
405.85	2111.16
406.05	2050.31
406.24	2047.97
406.43	2153.29
406.62	2132.23
406.81	2190.74
407.00	2216.49
407.20	2183.72
407.39	2094.78
407.58	2174.36
407.77	2186.06
407.96	2356.92
408.15	2293.72
408.34	2270.32
408.54	2413.09
408.73	2349.90
408.92	2377.98
409.11	2473.95
409.30	2321.81
409.49	2314.79
409.68	2354.58
409.87	2354.58
410.07	2396.71
410.26	2321.81
410.45	2478.63
410.64	2441.18
410.83	2520.76
411.02	2619.06
411.21	2672.89
411.40	2712.68
411.59	2668.21
411.78	2715.02
411.98	2743.11
412.17	2743.11
412.36	2803.96
412.55	2841.41
412.74	2808.64
412.93	2789.92
413.12	2834.39
413.31	2925.67
413.50	2939.71
413.69	2920.99
413.88	2995.89
414.07	2911.63
414.26	3033.33
414.45	3075.46
414.64	3119.93
414.83	3166.74
415.02	3227.60
415.22	3243.98
415.41	3351.65
415.60	3241.64
415.79	3351.65
415.98	3414.84
416.17	3466.33
416.36	3304.84
416.55	3363.35
416.74	3414.84
416.93	3510.80
417.12	3456.97
417.31	3536.55
417.50	3361.01
417.69	3459.31
417.88	3644.21
418.07	3536.55
418.26	3487.40
418.45	3681.66
418.64	3634.85
418.83	3801.03
419.02	3665.28
419.21	3751.88
419.39	3882.95
419.58	3712.09
419.77	3606.77
419.96	3730.81
420.15	3796.35
420.34	3733.15
420.53	3904.01
420.72	3838.48
420.91	3885.29
421.10	3967.21
421.29	4030.40
421.48	3901.67
421.67	4032.74
421.86	3927.42
422.05	3847.84
422.24	3950.82
422.43	4016.36
422.61	3941.46
422.80	3964.87
422.99	3997.64
423.18	4126.36
423.37	4117.00
423.56	4011.68
423.75	3981.25
423.94	4133.39
424.13	3763.58
424.32	3868.91
424.50	4119.34
424.69	4152.11
424.88	4121.68
425.07	4042.11
425.26	4030.40
425.45	4053.81
425.64	4011.68
425.83	4100.62
426.01	4170.83
426.20	4196.58
426.39	4306.59
426.58	4138.07
426.77	4014.02
426.96	4257.43
427.15	4243.39
427.33	4367.44
427.52	4308.93
427.71	4278.50
427.90	4194.24
428.09	4198.92
428.28	4238.71
428.46	4271.48
428.65	4421.27
428.84	4531.28
429.03	4428.29
429.22	4042.11
429.40	4339.35
429.59	4418.93
429.78	4072.53
429.97	4079.55
430.16	4161.47
430.34	4243.39
430.53	4229.35
430.72	4512.55
430.91	4381.48
431.10	4538.30
431.28	4660.01
431.47	4805.12
431.66	4734.90
431.85	4730.22
432.03	4821.50
432.22	4821.50
432.41	4781.71
432.60	4779.37
432.79	4922.15
432.97	5085.98
433.16	4840.23
433.35	4725.54
433.54	4713.84
433.72	4772.35
433.91	4863.63
434.10	4880.02
434.28	4957.25
434.47	5100.03
434.66	5158.54
434.85	5167.90
435.03	5156.20
435.22	5034.49
435.41	5305.99
435.59	5238.12
435.78	5188.97
435.97	5331.74
436.16	5268.55
436.34	5275.57
436.53	5366.85
436.72	5439.40
436.90	5406.64
437.09	5371.53
437.28	5214.71
437.46	5376.21
437.65	5387.91
437.84	5392.59
438.02	5139.82
438.21	5324.72
438.40	5303.65
438.58	5558.77
438.77	5488.56
438.96	5493.24
439.14	5741.33
439.33	5643.03
439.52	5816.23
439.70	5841.98
439.89	5788.14
440.08	5891.13
440.26	6001.13
440.45	5830.27
440.63	6223.48
440.82	6033.90
441.01	6239.87
441.19	6148.59
441.38	6377.96
441.57	6333.49
441.75	6410.73
441.94	6452.86
442.12	6555.84
442.31	6630.74
442.50	6677.55
442.68	6654.14
442.87	6579.25
443.05	6534.78
443.24	6785.21
443.43	6782.87
443.61	6778.19
443.80	6775.85
443.98	6614.35
444.17	6396.68
444.35	6729.04
444.54	6902.24
444.73	6717.34
444.91	6761.81
445.10	6796.92
445.28	6754.79
445.47	6616.69
445.65	6705.63
445.84	6663.51
446.02	6792.23
446.21	6860.11
446.39	6691.59
446.58	6771.17
446.77	6855.43
446.95	6661.16
447.14	6991.18
447.32	7009.90
447.51	7023.95
447.69	6820.32
447.88	7037.99
448.06	6923.30
448.25	6956.07
448.43	6991.18
448.62	7138.63
448.80	7019.27
448.99	7138.63
449.17	7248.64
449.36	7054.37
449.54	7283.75
449.73	7297.79
449.91	7344.60
450.10	7461.63
450.28	7583.34
450.46	7609.08
450.65	7538.87
450.83	7449.93
451.02	7426.52
451.20	7583.34
451.39	7585.68
451.57	7447.58
451.76	7452.27
451.94	7475.67
452.13	7590.36
452.31	7494.40
452.49	7293.11
452.68	7428.86
452.86	7468.65
453.05	7492.05
453.23	7492.05
453.42	7520.14
453.60	7531.84
453.78	7721.43
453.97	7665.25
454.15	7541.21
454.34	7658.23
454.52	7845.48
454.70	7911.01
454.89	7847.82
455.07	7903.99
455.26	7868.88
455.44	8088.89
455.62	8266.77
455.81	8231.66
455.99	8182.51
456.17	8051.44
456.36	7995.27
456.54	8152.09
456.73	8224.64
456.91	8173.15
457.09	8374.44
457.28	8580.40
457.46	8257.41
457.64	8400.18
457.83	8664.66
458.01	8276.13
458.19	8449.33
458.38	8503.17
458.56	8557.00
458.74	8624.87
458.93	8379.12
459.11	8681.05
459.29	8620.19
459.48	8606.15
459.66	8575.72
459.84	8580.40
460.03	8791.05
460.21	8805.10
460.39	8861.27
460.57	8837.86
460.76	8856.59
460.94	9029.79
461.12	8968.93
461.31	9025.11
461.49	8947.87
461.67	8856.59
461.85	9132.77
462.04	8966.59
462.22	9490.87
462.40	9210.01
462.59	9153.84
462.77	9132.77
462.95	9287.25
463.13	9296.61
463.32	9338.74
463.50	9254.48
463.68	9420.66
463.86	9181.92
464.05	9081.28
464.23	9064.89
464.41	9453.42
464.59	9352.78
464.78	9547.05
464.96	9392.57
465.14	9387.89
465.32	9490.87
465.50	9710.88
465.69	9544.70
465.87	9549.39
466.05	9535.34
466.23	9558.75
466.41	9647.69
466.60	9657.05
466.78	9430.02
466.96	9432.36
467.14	9521.30
467.32	9856.00
467.51	9706.20
467.69	9537.68
467.87	9568.11
468.05	9776.42
468.23	9881.74
468.41	9664.07
468.60	9844.29
468.78	10061.96
468.96	9689.82
469.14	9935.57
469.32	10078.35
469.50	9778.76
469.69	9944.94
469.87	10204.74
470.05	9848.97
470.23	10134.52
470.41	10132.18
470.59	10359.21
470.77	10223.46
470.95	10368.57
471.14	10286.65
471.32	10249.21
471.50	10724.33
471.68	10616.67
471.86	10817.96
472.04	10637.73
472.22	11000.52
472.40	10614.33
472.58	10759.44
472.77	10822.64
472.95	10892.85
473.13	11101.16
473.31	11047.33
473.49	10724.33
473.67	10909.24
473.85	11101.16
474.03	11325.85
474.21	11419.47
474.39	11452.24
474.57	11693.32
474.75	11463.94
474.93	11459.26
475.12	11592.67
475.30	11637.14
475.48	11426.50
475.66	11534.16
475.84	11592.67
476.02	11793.96
476.20	11606.72
476.38	12079.50
476.56	12248.02
476.74	11969.50
476.92	12313.56
477.10	12224.62
477.28	12446.97
477.46	12535.91
477.64	12596.76
477.82	12875.29
478.00	13013.38
478.18	12828.48
478.36	13048.49
478.54	12933.80
478.72	13083.59
478.90	13589.15
479.08	13427.65
479.26	13502.55
479.44	13628.94
479.62	13743.63
479.80	13565.74
479.98	13980.02
480.16	14155.56
480.34	13954.27
480.52	14108.75
480.70	14087.68
480.88	14038.53
481.06	14352.16
481.24	14450.47
481.41	14726.65
481.59	14911.55
481.77	14993.47
481.95	14766.44
482.13	15257.95
482.31	15103.48
482.49	15328.17
482.67	15426.47
482.85	15468.60
483.03	15676.91
483.21	15637.12
483.39	15829.04
483.57	15906.28
483.74	16231.62
483.92	16369.71
484.10	16105.23
484.28	16325.24
484.46	16582.70
484.64	16833.13
484.82	16711.42
485.00	16723.13
485.18	16814.41
485.35	17064.85
485.53	16418.86
485.71	16629.51
485.89	16992.29
486.07	17252.09
486.25	17331.67
486.43	17242.73
486.61	17614.87
486.78	18071.28
486.96	18111.07
487.14	18394.27
487.32	18448.10
487.50	18527.68
487.68	18600.24
487.85	18960.68
488.03	19187.71
488.21	19218.14
488.39	18951.32
488.57	19283.67
488.75	19389.00
488.92	19733.06
489.10	20215.21
489.28	20091.16
489.46	20168.40
489.64	19962.43
489.81	20730.12
489.99	20673.95
490.17	21151.42
490.35	21284.83
490.53	20940.77
490.70	21195.89
490.88	20994.61
491.06	21453.35
491.24	21436.97
491.41	21043.76
491.59	21238.02
491.77	21542.29
491.95	21568.04
492.13	22059.55
492.30	22045.51
492.48	22342.75
492.66	22363.82
492.84	22747.67
493.01	22642.34
493.19	22757.03
493.37	22766.39
493.54	23190.03
493.72	23304.71
493.90	23417.06
494.08	23716.65
494.25	23836.02
494.43	24219.86
494.61	24233.91
494.79	23955.38
494.96	24276.04
495.14	24294.76
495.32	24224.54
495.49	24556.90
495.67	24596.69
495.85	24793.29
496.02	24877.55
496.20	24882.24
496.38	24961.81
496.55	25132.67
496.73	25750.57
496.91	25596.10
497.09	25930.80
497.26	25865.26
497.44	25912.07
497.62	26235.06
497.79	26176.55
497.97	25755.26
498.14	26036.12
498.32	26326.35
498.50	26455.08
498.67	26574.44
498.85	26995.74
499.03	27047.23
499.20	27042.55
499.38	26857.65
499.56	27030.85
499.73	27358.52
499.91	27208.73
500.08	27585.55
500.26	26876.37
500.44	27440.44
500.61	27749.39
500.79	27171.28
500.97	27817.27
501.14	27880.46
501.32	27716.62
501.49	27880.46
501.67	28109.83
501.84	28168.35
502.02	28091.11
502.20	28268.99
502.37	28790.93
502.55	28624.75
502.72	28793.27
502.90	28870.51
503.07	28652.84
503.25	28882.21
503.43	28947.75
503.60	28992.22
503.78	28573.26
503.95	28952.43
504.13	29331.59
504.30	29649.91
504.48	29408.83
504.65	29532.88
504.83	29972.90
505.01	29919.07
505.18	29979.92
505.36	30089.93
505.53	30134.40
505.71	30391.86
505.88	30522.93
506.06	30017.37
506.23	30707.83
506.41	30183.55
506.58	30731.23
506.76	30710.17
506.93	30810.81
507.11	30724.21
507.28	30944.22
507.46	30504.20
507.63	30632.93
507.81	31159.55
507.98	31007.42
508.16	31316.37
508.33	31335.09
508.50	31805.54
508.68	31487.23
508.85	31742.35
509.03	31852.35
509.20	31929.59
509.38	32245.56
509.55	32329.82
509.73	32313.44
509.90	32149.60
510.08	32130.87
510.25	32327.48
510.42	32907.93
510.60	32701.96
510.77	32680.90
510.95	32680.90
511.12	32706.65
511.30	33146.67
511.47	33607.75
511.64	33354.97
511.82	33619.46
511.99	33153.69
512.17	33149.01
512.34	33209.86
512.51	33301.14
512.69	33228.59
512.86	33795.00
513.04	34117.99
513.21	33912.02
513.38	33586.69
513.56	33560.94
513.73	33453.28
513.90	34183.52
514.08	33684.99
514.25	33979.90
514.43	33909.68
514.60	34204.59
514.77	34019.69
514.95	34567.37
515.12	34719.51
515.29	34710.14
515.47	34829.51
515.64	34705.46
515.81	34827.17
515.99	34595.46
516.16	34412.90
516.33	34543.97
516.51	34216.29
516.68	33670.95
516.85	33954.15
517.03	34188.21
517.20	34714.83
517.37	35093.99
517.54	35367.84
517.72	35239.11
517.89	34705.46
518.06	34600.14
518.24	35077.61
518.41	34843.56
518.58	35388.90
518.75	35463.80
518.93	35498.91
519.10	35571.46
519.27	35775.09
519.45	36065.31
519.62	36140.21
519.79	36271.28
519.96	36416.40
520.14	36048.93
520.31	36545.12
520.48	36233.83
520.65	36212.77
520.83	37015.57
521.00	37090.47
521.17	36996.85
521.34	36694.92
521.52	37024.93
521.69	37069.40
521.86	37453.25
522.03	37319.84
522.20	37151.32
522.38	37247.29
522.55	37024.93
522.72	37216.86
522.89	37432.19
523.07	37539.85
523.24	37312.82
523.41	37879.23
523.58	37897.95
523.75	38536.92
523.92	38087.54
524.10	38003.28
524.27	37626.45
524.44	38230.31
524.61	38139.03
524.78	38176.48
524.96	38141.37
525.13	38473.73
525.30	38464.36
525.47	38773.31
525.64	38731.18
525.81	38597.77
525.98	38244.35
526.16	38370.74
526.33	37928.38
526.50	38490.11
526.67	37972.85
526.84	38382.45
527.01	38415.21
527.18	38689.06
527.36	38902.04
527.53	38974.60
527.70	39433.35
527.87	39438.03
528.04	39592.50
528.21	39330.36
528.38	39597.18
528.55	40140.19
528.72	39856.98
528.89	40224.45
529.07	39871.03
529.24	39559.73
529.41	39828.90
529.58	39498.88
529.75	39651.02
529.92	39990.39
530.09	40088.70
530.26	39971.67
530.43	40404.67
530.60	40123.80
530.77	40264.24
530.94	40725.32
531.11	40149.55
531.28	40425.73
531.46	40671.49
531.63	40816.60
531.80	40739.36
531.97	40797.88
532.14	40002.10
532.31	40046.57
532.48	40280.62
532.65	40926.61
532.82	40374.24
532.99	40802.56
533.16	40713.62
533.33	40690.21
533.50	41053.00
533.67	40765.11
533.84	41017.89
534.01	41106.83
534.18	41013.21
534.35	41551.53
534.52	40832.99
534.69	41254.28
534.86	41490.68
535.03	41441.53
535.20	41792.61
535.37	41834.74
535.54	42021.98
535.71	41434.50
535.88	41914.31
536.05	41895.59
536.22	41895.59
536.38	42047.72
536.55	41841.76
536.72	41794.95
536.89	41331.52
537.06	41808.99
537.23	42157.73
537.40	41858.14
537.57	42377.74
537.74	42164.75
537.91	42206.88
538.08	41923.68
538.25	41998.57
538.42	42373.06
538.59	42162.41
538.75	42117.94
538.92	41769.20
539.09	42387.10
539.26	42377.74
539.43	42361.36
539.60	42340.29
539.77	42211.56
539.94	42284.12
540.11	42124.96
540.28	42572.00
540.44	42323.91
540.61	42377.74
540.78	42396.46
540.95	42366.04
541.12	42719.46
541.29	42604.77
541.46	42990.96
541.62	43028.41
541.79	42761.59
541.96	42335.61
542.13	42990.96
542.30	42808.40
542.47	43196.93
542.63	43033.09
542.80	43346.72
542.97	43304.59
543.14	43356.08
543.31	43313.95
543.48	43721.21
543.64	43716.53
543.81	43538.65
543.98	43744.61
544.15	44065.27
544.32	43763.34
544.48	44341.45
544.65	43906.11
544.82	44367.20
544.99	43391.19
545.16	43819.51
545.32	43938.88
545.49	44418.69
545.66	44357.83
545.83	44203.36
546.00	44322.72
546.16	43964.62
546.33	44004.41
546.50	43632.27
546.67	44516.99
546.83	44140.16
547.00	43786.74
547.17	43964.62
547.34	44500.61
547.50	44554.44
547.67	44226.76
547.84	44626.99
548.00	44554.44
548.17	44549.76
548.34	44577.84
548.51	45193.40
548.67	44786.15
548.84	45015.52
549.01	44825.94
549.18	44610.61
549.34	44779.13
549.51	45055.31
549.68	45139.57
549.84	45181.70
550.01	44910.20
550.18	44795.51
550.34	44371.88
550.51	44734.66
550.68	44877.43
550.84	44371.88
551.01	45162.98
551.18	45020.20
551.34	45167.66
551.51	45368.94
551.68	45036.59
551.84	45420.44
552.01	44945.31
552.18	45404.05
552.34	44839.98
552.51	45160.64
552.68	45315.11
552.84	45684.92
553.01	45523.42
553.18	45240.21
553.34	44954.67
553.51	45088.08
553.67	45467.25
553.84	45446.18
554.01	45270.64
554.17	45759.81
554.34	45682.58
554.51	45715.34
554.67	45776.20
554.84	45563.21
555.00	45214.47
555.17	45530.44
555.33	45549.17
555.50	45181.70
555.67	45858.12
555.83	45619.38
556.00	45776.20
556.16	46204.52
556.33	45504.70
556.50	45457.88
556.66	45696.62
556.83	45170.00
556.99	45762.15
557.16	45879.18
557.32	45993.87
557.49	46190.47
557.65	45722.37
557.82	46454.95
557.98	46054.72
558.15	46155.36
558.32	45961.10
558.48	45769.18
558.65	45738.75
558.81	45815.99
558.98	45841.73
559.14	45862.80
559.31	45820.67
559.47	46089.83
559.64	46305.16
559.80	46101.53
559.97	46410.48
560.13	45734.07
560.30	45942.38
560.46	45984.51
560.63	46358.99
560.79	46721.77
560.96	46258.35
561.12	46138.98
561.29	46188.13
561.45	46302.82
561.61	46291.12
561.78	46321.54
561.94	45998.55
562.11	46206.86
562.27	45935.35
562.44	46232.60
562.60	46525.17
562.77	46534.53
562.93	46681.98
563.10	46461.97
563.26	46497.08
563.42	46581.34
563.59	46319.20
563.75	46452.61
563.92	46412.82
564.08	46621.13
564.24	46382.40
564.41	46691.35
564.57	46628.15
564.74	46880.93
564.90	46293.46
565.07	46401.12
565.23	46232.60
565.39	46684.33
565.56	46382.40
565.72	45851.09
565.88	46342.61
566.05	46239.62
566.21	46363.67
566.38	46089.83
566.54	46672.62
566.70	46602.41
566.87	47075.19
567.03	46660.92
567.19	46794.33
567.36	46693.69
567.52	46560.28
567.68	47030.72
567.85	46761.56
568.01	46761.56
568.17	46843.48
568.34	46834.12
568.50	46457.29
568.66	46454.95
568.83	46227.92
568.99	46595.38
569.15	46309.84
569.32	46497.08
569.48	46616.45
569.64	46700.71
569.81	46902.00
569.97	45989.19
570.13	46700.71
570.30	46319.20
570.46	46459.63
570.62	46461.97
570.78	46417.50
570.95	46480.70
571.11	46717.09
571.27	46543.89
571.43	46256.01
571.60	46817.74
571.76	46504.10
571.92	47004.98
572.09	46705.39
572.25	46693.69
572.41	46806.03
572.57	47255.42
572.74	47044.77
572.90	47002.64
573.06	46719.43
573.22	46543.89
573.38	47196.90
573.55	46944.12
573.71	47049.45
573.87	47161.79
574.03	46653.90
574.20	46820.08
574.36	46747.52
574.52	46817.74
574.68	46656.24
574.84	46663.26
575.01	46824.76
575.17	46787.31
575.33	46466.66
575.49	46885.61
575.65	47222.65
575.82	46838.80
575.98	47199.24
576.14	46897.31
576.30	47196.90
576.46	46579.00
576.62	46768.58
576.79	46649.22
576.95	46529.85
577.11	47210.95
577.27	46635.17
577.43	46822.42
577.59	46583.68
577.75	47009.66
577.92	46476.02
578.08	46656.24
578.24	46782.63
578.40	46944.12
578.56	46923.06
578.72	46820.08
578.88	47065.83
579.04	47302.23
579.21	46904.34
579.37	47042.43
579.53	47012.00
579.69	46740.50
579.85	46763.90
580.01	46934.76
580.17	47136.05
580.33	47054.13
580.49	46806.03
580.65	46782.63
580.82	46841.14
580.98	46892.63
581.14	46670.28
581.30	47063.49
581.46	47065.83
581.62	46974.55
581.78	46735.82
581.94	47229.67
582.10	46696.03
582.26	47091.58
582.42	46724.11
582.58	47337.33
582.74	46696.03
582.90	47489.47
583.06	47625.22
583.22	47056.47
583.38	46946.47
583.54	47288.18
583.70	47178.18
583.86	47157.11
584.02	46754.54
584.18	47173.50
584.34	47079.88
584.50	47016.68
584.66	46967.53
584.82	47009.66
584.98	47208.61
585.14	46604.75
585.30	46700.71
585.46	46646.88
585.62	46761.56
585.78	46916.04
585.94	46546.23
586.10	46913.70
586.26	46848.16
586.42	47306.91
586.58	46988.60
586.74	47021.36
586.90	46719.43
587.06	46681.98
587.22	46894.97
587.38	46677.30
587.54	46894.97
587.70	47227.33
587.86	46871.57
588.02	46784.97
588.18	46880.93
588.34	46674.96
588.49	46602.41
588.65	46560.28
588.81	46258.35
588.97	46518.15
589.13	46660.92
589.29	46710.07
589.45	46754.54
589.61	47098.60
589.77	46817.74
589.93	46827.10
590.08	46777.95
590.24	47028.38
590.40	47363.08
590.56	47325.63
590.72	47175.84
590.88	47089.24
591.04	47086.90
591.20	47402.87
591.35	47297.55
591.51	47253.08
591.67	47372.44
591.83	47213.29
591.99	47255.42
592.15	46995.62
592.31	47194.56
592.46	47084.56
592.62	46794.33
592.78	47143.07
592.94	47070.51
593.10	47276.48
593.26	47299.89
593.41	47131.37
593.57	47192.22
593.73	47035.41
593.89	47185.20
594.05	47302.23
594.20	46960.51
594.36	47363.08
594.52	46820.08
594.68	46777.95
594.84	47117.32
594.99	47388.83
595.15	47103.28
595.31	47168.82
595.47	47129.03
595.62	47189.88
595.78	46930.08
595.94	47442.66
596.10	46988.60
596.25	47379.46
596.41	47344.36
596.57	47283.50
596.73	47224.99
596.88	47271.80
597.04	47363.08
597.20	47180.52
597.36	46796.67
597.51	47297.55
597.67	47456.70
597.83	47217.97
597.99	47360.74
598.14	47522.24
598.30	47236.69
598.46	46930.08
598.61	47243.71
598.77	46810.71
598.93	46871.57
599.09	46810.71
599.24	47917.79
599.40	47496.49
599.56	47323.29
599.71	47040.09
599.87	47049.45
600.03	46843.48
600.18	47129.03
600.34	47105.62
600.50	46972.21
600.65	46974.55
600.81	47398.19
600.97	47374.78
601.12	47290.52
601.28	46904.34
601.44	46857.52
601.59	46691.35
601.75	46344.95
601.91	47171.16
602.06	46717.09
602.22	47456.70
602.37	46784.97
602.53	47168.82
602.69	47154.77
602.84	46995.62
603.00	46417.50
603.16	47091.58
603.31	47000.30
603.47	47227.33
603.62	46696.03
603.78	46836.46
603.94	47246.05
604.09	47192.22
604.25	46740.50
604.40	46761.56
604.56	47168.82
604.71	47154.77
604.87	46696.03
605.03	46946.47
605.18	46843.48
605.34	46869.23
605.49	46543.89
605.65	47232.01
605.80	47114.98
605.96	46920.72
606.12	47119.66
606.27	47086.90
606.43	46906.68
606.58	47196.90
606.74	46691.35
606.89	46965.19
607.05	46738.16
607.20	46724.11
607.36	46548.57
607.51	46550.91
607.67	46944.12
607.82	46972.21
607.98	46667.94
608.13	46871.57
608.29	46644.54
608.44	46471.34
608.60	46265.37
608.75	46504.10
608.91	46717.09
609.06	46609.43
609.22	47077.54
609.37	46721.77
609.53	46637.51
609.68	46653.90
609.84	46586.02
609.99	46391.76
610.15	46183.45
610.30	46438.57
610.46	46138.98
610.61	46412.82
610.76	46469.00
610.92	46918.38
611.07	46642.20
611.23	46377.72
611.38	46410.48
611.54	46225.58
611.69	46136.64
611.84	45886.20
612.00	45958.76
612.15	46333.24
612.31	46581.34
612.46	46033.66
612.62	46305.16
612.77	46080.47
612.92	46726.46
613.08	46443.25
613.23	46361.33
613.39	45876.84
613.54	45624.06
613.69	46305.16
613.85	46148.34
614.00	46162.39
614.15	45769.18
614.31	45923.65
614.46	46225.58
614.62	46141.32
614.77	45886.20
614.92	46295.80
615.08	45865.14
615.23	45897.91
615.38	45610.02
615.54	45600.66
615.69	45628.74
615.84	45584.27
616.00	45958.76
616.15	45490.65
616.30	45860.46
616.46	45350.22
616.61	45691.94
616.76	45469.59
616.92	45045.95
617.07	45226.17
617.22	45165.32
617.37	45507.04
617.53	45415.76
617.68	45965.78
617.83	45792.58
617.99	45605.34
618.14	45202.77
618.29	45343.20
618.45	44919.56
618.60	45123.19
618.75	44802.53
618.90	44823.60
619.06	44987.44
619.21	45160.64
619.36	45422.78
619.51	45036.59
619.67	45235.53
619.82	45170.00
619.97	45359.58
620.12	44921.90
620.28	44535.71
620.43	44781.47
620.58	45151.27
620.73	44882.11
620.89	44856.37
621.04	44987.44
621.19	45057.65
621.34	44797.85
621.49	44421.03
621.65	45010.84
621.80	44421.03
621.95	44500.61
622.10	44350.81
622.25	44608.27
622.41	44201.02
622.56	44624.65
622.71	45118.51
622.86	44493.58
623.01	44519.33
623.16	44540.39
623.32	44582.52
623.47	43936.54
623.62	44287.62
623.77	44500.61
623.92	44811.90
624.07	44456.14
624.23	44177.61
624.38	44296.98
624.53	44477.20
624.68	44299.32
624.83	44182.29
624.98	43920.15
625.13	44116.76
625.29	43959.94
625.44	44161.23
625.59	43805.47
625.74	43721.21
625.89	43576.09
626.04	43707.16
626.19	43725.89
626.34	43707.16
626.49	43765.68
626.65	43786.74
626.80	43627.59
626.95	43552.69
627.10	43522.26
627.25	43756.32
627.40	43423.96
627.55	43203.95
627.70	43131.39
627.85	43299.91
628.00	43110.33
628.15	43430.98
628.30	43260.12
628.45	43744.61
628.60	43339.70
628.76	43213.31
628.91	43697.80
629.06	43147.78
629.21	43515.24
629.36	43110.33
629.51	42873.93
629.66	42988.62
629.81	42487.74
629.96	43175.86
630.11	43264.80
630.26	43320.98
630.41	43449.70
630.56	43217.99
630.71	43475.45
630.86	42995.64
631.01	42895.00
631.16	43030.75
631.31	42731.16
631.46	43084.58
631.61	43262.46
631.76	42635.20
631.91	42763.93
632.06	42887.98
632.21	42780.31
632.36	42958.19
632.51	42733.50
632.66	42567.32
632.81	42604.77
632.96	42749.88
633.10	42658.60
633.25	42733.50
633.40	42682.01
633.55	42539.24
633.70	42293.48
633.85	42356.67
634.00	42700.73
634.15	42408.17
634.30	42574.34
634.45	42148.37
634.60	42445.62
634.75	42153.05
634.90	42101.56
635.05	42391.78
635.19	41626.43
635.34	42124.96
635.49	42050.06
635.64	42115.60
635.79	41776.22
635.94	42113.26
636.09	41797.29
636.24	41663.88
636.39	41851.12
636.53	41911.97
636.68	41794.95
636.83	41844.10
636.98	42059.43
637.13	41638.13
637.28	41722.39
637.43	42274.76
637.57	42387.10
637.72	42117.94
637.87	41715.37
638.02	41486.00
638.17	41935.38
638.32	41539.83
638.46	41635.79
638.61	41626.43
638.76	41397.06
638.91	41532.81
639.06	41483.66
639.20	41514.08
639.35	41825.37
639.50	41570.25
639.65	41656.85
639.80	41446.21
639.94	41319.82
640.09	41284.71
640.24	41375.99
640.39	40627.02
640.54	41024.91
640.68	41219.17
640.83	40987.46
640.98	40886.82
641.13	41425.14
641.27	41371.31
641.42	40971.08
641.57	40879.80
641.72	40772.13
641.86	40732.34
642.01	40739.36
642.16	40985.12
642.31	40350.84
642.45	41130.23
642.60	40147.21
642.75	40931.29
642.90	40737.02
643.04	40992.14
643.19	40428.07
643.34	40788.52
643.48	40701.92
643.63	40552.12
643.78	40526.38
643.93	40809.58
644.07	40545.10
644.22	40364.88
644.37	40261.90
644.51	40596.59
644.66	40556.80
644.81	40507.65
644.95	40301.68
645.10	40577.87
645.25	40891.50
645.39	40432.75
645.54	40156.57
645.69	40554.46
645.83	40140.19
645.98	39791.45
646.13	39873.37
646.27	40074.65
646.42	40048.91
646.57	39768.04
646.71	39653.36
646.86	39875.71
647.00	39789.11
647.15	40109.76
647.30	40069.97
647.44	39409.94
647.59	39751.66
647.74	39608.89
647.88	39672.08
648.03	40254.87
648.17	39978.69
648.32	39852.30
648.47	39861.66
648.61	39323.34
648.76	39742.30
648.90	39934.22
649.05	39283.55
649.20	39873.37
649.34	39255.46
649.49	39351.43
649.63	39629.95
649.78	39091.63
649.92	39758.68
650.07	39442.71
650.21	39316.32
650.36	39426.32
650.51	39538.67
650.65	39519.95
650.80	39707.19
650.94	39885.07
651.09	39274.19
651.23	38815.44
651.38	39023.75
651.52	38981.62
651.67	39194.61
651.81	39009.71
651.96	38925.45
652.10	38717.14
652.25	39075.24
652.39	39351.43
652.54	38810.76
652.68	39068.22
652.83	38850.55
652.97	39636.97
653.12	39091.63
653.26	38543.94
653.41	38927.79
653.55	38850.55
653.70	38658.63
653.84	38990.98
653.99	38787.36
654.13	38513.52
654.27	38447.98
654.42	38719.48
654.56	38815.44
654.71	38600.12
654.85	38899.70
655.00	38370.74
655.14	38139.03
655.29	38080.52
655.43	38000.94
655.57	37968.17
655.72	37605.39
655.86	37570.28
656.01	37509.43
656.15	37350.27
656.30	37909.66
656.44	38054.77
656.58	37771.57
656.73	38293.50
656.87	37975.19
657.01	37752.84
657.16	38012.64
657.30	37778.59
657.45	37778.59
657.59	37921.36
657.73	38160.09
657.88	38127.33
658.02	38045.41
658.16	37900.29
658.31	37991.58
658.45	38101.58
658.60	37689.65
658.74	37556.24
658.88	37872.21
659.03	37607.73
659.17	37291.76
659.31	37212.18
659.46	37275.37
659.60	37301.12
659.74	37495.38
659.89	37464.96
660.03	37148.98
660.17	37111.53
660.32	37408.78
660.46	37345.59
660.60	37172.39
660.74	37120.90
660.89	37392.40
661.03	37104.51
661.17	36287.67
661.32	36601.30
661.46	36912.59
661.60	36538.10
661.74	37242.60
661.89	36919.61
662.03	36484.27
662.17	36669.17
662.31	36268.94
662.46	36510.02
662.60	36776.84
662.74	36554.49
662.88	36535.76
663.03	36156.60
663.17	36479.59
663.31	36222.13
663.45	36264.26
663.60	36065.31
663.74	36514.70
663.88	35899.14
664.02	36215.11
664.17	36194.04
664.31	35742.32
664.45	35864.03
664.59	35948.29
664.73	35622.95
664.88	35452.09
665.02	35285.92
665.16	35522.31
665.30	35510.61
665.44	35641.68
665.59	35096.33
665.73	35192.30
665.87	35122.08
666.01	35302.30
666.15	35288.26
666.29	35508.27
666.44	35424.01
666.58	35084.63
666.72	35131.44
666.86	35250.81
667.00	35030.80
667.14	34899.73
667.28	34937.18
667.43	34979.31
667.57	34941.86
667.71	34951.22
667.85	35019.10
667.99	34433.96
668.13	34731.21
668.27	34553.33
668.41	34438.64
668.56	34026.71
668.70	34422.26
668.84	34265.44
668.98	33972.88
669.12	34412.90
669.26	34082.88
669.40	33851.17
669.54	33984.58
669.68	34022.03
669.82	33593.71
669.96	33338.59
670.10	33722.44
670.25	34019.69
670.39	33532.86
670.53	33235.61
670.67	33530.51
670.81	33982.24
670.95	33305.82
671.09	33462.64
671.23	33001.55
671.37	32849.42
671.51	32933.68
671.65	33109.22
671.79	33041.34
671.93	33008.58
672.07	33141.99
672.21	33116.24
672.35	32840.06
672.49	32954.74
672.63	32854.10
672.77	32535.79
672.91	32868.14
673.05	32498.34
673.19	32493.66
673.33	32322.80
673.47	32065.34
673.61	32086.40
673.75	32292.37
673.89	31751.71
674.03	32025.55
674.17	32112.15
674.31	31714.26
674.45	31625.32
674.59	31468.50
674.73	31842.99
674.87	31786.82
675.01	31466.16
675.15	31463.82
675.29	31206.36
675.43	31138.49
675.56	31304.67
675.70	31150.19
675.84	30913.80
675.98	30082.91
676.12	30625.91
676.26	31311.69
676.40	30972.31
676.54	30958.27
676.68	30712.51
676.82	30361.43
676.96	30541.65
677.10	30012.69
677.23	30377.81
677.37	30031.41
677.51	30176.53
677.65	30377.81
677.79	29291.80
677.93	29364.36
678.07	29422.87
678.21	29317.55
678.34	29467.34
678.48	29139.67
678.62	29160.73
678.76	29113.92
678.90	28884.55
679.04	28732.42
679.18	29160.73
679.31	28549.85
679.45	28547.51
679.59	28549.85
679.73	28446.87
679.87	28046.64
680.00	28540.49
680.14	28409.42
680.28	28371.97
680.42	28437.51
680.56	28060.68
680.70	28030.26
680.83	28013.87
680.97	27953.02
681.11	28051.32
681.25	27676.83
681.39	27859.40
681.52	27353.84
681.66	27424.06
681.80	27515.34
681.94	27255.54
682.07	27498.95
682.21	26941.91
682.35	26628.27
682.49	27065.96
682.62	26806.16
682.76	26778.07
682.90	26867.01
683.04	26721.90
683.17	26305.28
683.31	26195.28
683.45	26316.98
683.59	26211.66
683.72	25783.34
683.86	26171.87
684.00	26387.20
684.13	26197.62
684.27	25783.34
684.41	25710.78
684.55	25678.02
684.68	25804.41
684.82	25441.62
684.96	25502.48
685.09	25223.95
685.23	25156.08
685.37	25039.05
685.50	25598.44
685.64	24966.49
685.78	24982.88
685.91	24805.00
686.05	24613.07
686.19	24491.37
686.32	24336.89
686.46	24006.87
686.60	23534.09
686.73	23414.72
686.87	23136.20
687.01	23407.70
687.14	23637.07
687.28	23211.09
687.42	23349.18
687.55	23417.06
687.69	23278.97
687.82	23098.75
687.96	22948.95
688.10	23302.37
688.23	23091.73
688.37	22651.70
688.50	22892.78
688.64	22593.19
688.78	22958.31
688.91	22611.92
689.05	22689.15
689.18	22389.56
689.32	22487.87
689.46	22394.25
689.59	22434.03
689.73	22354.46
689.86	22342.75
690.00	21933.16
690.13	22036.14
690.27	21944.86
690.41	21998.70
690.54	21277.81
690.68	21380.79
690.81	21537.61
690.95	21439.31
691.08	21420.58
691.22	21191.21
691.35	21270.79
691.49	21488.46
691.62	21474.42
691.76	21149.08
691.89	21090.57
692.03	21041.42
692.16	20833.11
692.30	20793.32
692.43	20666.93
692.57	20414.15
692.70	20336.91
692.84	20484.37
692.97	20060.73
693.11	20184.78
693.24	20126.27
693.38	19793.91
693.51	19756.46
693.65	19850.08
693.78	19826.68
693.92	19840.72
694.05	19695.61
694.19	19365.59
694.32	19491.98
694.45	19372.61
694.59	18867.06
694.72	19112.81
694.86	19440.49
694.99	18972.38
695.13	18965.36
695.26	19009.83
695.39	18780.46
695.53	18890.46
695.66	18904.51
695.80	19035.58
695.93	18616.62
696.07	18618.96
696.20	18640.03
696.33	18422.36
696.47	18518.32
696.60	18342.78
696.73	18324.05
696.87	18052.55
697.00	18267.88
697.14	18026.81
697.27	18050.21
697.40	17610.19
697.54	17717.86
697.67	17699.13
697.80	17635.94
697.94	17322.30
698.07	17200.60
698.21	17156.13
698.34	17497.84
698.47	16851.86
698.61	16950.16
698.74	16954.84
698.87	17329.33
699.01	16994.63
699.14	16556.95
699.27	16753.55
699.40	16294.81
699.54	16589.72
699.67	16336.94
699.80	16453.97
699.94	16236.30
700.07	16395.45
700.20	16320.56
700.34	16121.61
700.47	15927.35
700.60	16135.65
700.73	16404.81
700.87	15953.09
701.00	15868.83
701.13	15688.61
701.26	15578.61
701.40	15541.16
701.53	15391.36
701.66	15616.05
701.79	15358.60
701.93	15084.75
702.06	14958.36
702.19	15307.10
702.32	15105.82
702.46	15075.39
702.59	15066.03
702.72	15243.91
702.85	15185.40
702.99	14906.87
703.12	14614.30
703.25	14616.65
703.38	14647.07
703.51	14588.56
703.65	14455.15
703.78	14677.50
703.91	14314.72
704.04	14293.65
704.17	14183.65
704.31	14204.71
704.44	14075.98
704.57	14101.73
704.70	13905.12
704.83	13862.99
704.96	13865.33
705.10	13893.42
705.23	14073.64
>>>>>End Processed Spectral Data<<<<<
