SpectraSuite Data File
++++++++++++++++++++++++++++++++++++
Date: Fri Oct 25 10:44:06 EDT 2013
User: price-jones
Dark Spectrum Present: No
Reference Spectrum Present: No
Number of Sampled Component Spectra: 1
Spectrometers: USB2+H05261
Integration Time (usec): 100000 (USB2+H05261)
Spectra Averaged: 1 (USB2+H05261)
Boxcar Smoothing: 0 (USB2+H05261)
Correct for Electrical Dark: No (USB2+H05261)
Strobe/Lamp Enabled: No (USB2+H05261)
Correct for Detector Non-linearity: No (USB2+H05261)
Correct for Stray Light: No (USB2+H05261)
Number of Pixels in Processed Spectrum: 2048
>>>>>Begin Processed Spectral Data<<<<<
365.73	168.52
365.92	168.52
366.12	168.52
366.32	23.41
366.52	0.00
366.72	32.77
366.91	0.00
367.11	44.47
367.31	0.00
367.51	81.92
367.70	7.02
367.90	39.79
368.10	0.00
368.30	63.19
368.49	7.02
368.69	35.11
368.89	30.43
369.09	86.60
369.28	30.43
369.48	35.11
369.68	16.38
369.87	79.58
370.07	7.02
370.27	194.26
370.47	170.86
370.66	458.74
370.86	461.09
371.06	449.38
371.25	493.85
371.45	528.96
371.65	512.58
371.84	435.34
372.04	423.64
372.24	479.81
372.44	531.30
372.63	545.34
372.83	435.34
373.03	498.53
373.22	543.00
373.42	517.26
373.62	601.52
373.81	510.24
374.01	514.92
374.21	564.07
374.40	568.75
374.60	648.33
374.79	559.39
374.99	589.82
375.19	589.82
375.38	575.77
375.58	606.20
375.78	557.05
375.97	552.37
376.17	585.13
376.37	566.41
376.56	620.24
376.76	631.94
376.95	571.09
377.15	669.39
377.35	667.05
377.54	676.41
377.74	683.44
377.93	608.54
378.13	641.31
378.33	704.50
378.52	725.57
378.72	662.37
378.91	716.20
379.11	690.46
379.31	664.71
379.50	615.56
379.70	685.78
379.89	664.71
380.09	660.03
380.28	655.35
380.48	704.50
380.68	702.16
380.87	657.69
381.07	711.52
381.26	664.71
381.46	695.14
381.65	781.74
381.85	709.18
382.04	760.67
382.24	751.31
382.43	777.06
382.63	655.35
382.83	720.88
383.02	777.06
383.22	793.44
383.41	713.86
383.61	730.25
383.80	821.53
384.00	809.83
384.19	795.78
384.39	791.10
384.58	798.12
384.78	826.21
384.97	823.87
385.17	791.10
385.36	786.42
385.56	678.76
385.75	800.46
385.95	791.10
386.14	882.38
386.34	840.25
386.53	767.70
386.72	954.94
386.92	947.92
387.11	819.19
387.31	772.38
387.50	840.25
387.70	940.90
387.89	821.53
388.09	863.66
388.28	856.64
388.48	840.25
388.67	898.77
388.86	919.83
389.06	940.90
389.25	990.05
389.45	912.81
389.64	870.68
389.84	959.62
390.03	999.41
390.22	1020.47
390.42	987.71
390.61	1022.81
390.81	1015.79
391.00	1064.94
391.19	1142.18
391.39	1039.20
391.58	1053.24
391.78	1001.75
391.97	1062.60
392.16	1100.05
392.36	1025.15
392.55	1006.43
392.75	997.07
392.94	1053.24
393.13	926.85
393.33	1011.11
393.52	1001.75
393.71	1123.46
393.91	1097.71
394.10	1067.28
394.29	1118.78
394.49	1170.27
394.68	1205.38
394.88	1144.52
395.07	1144.52
395.26	1245.16
395.46	1313.04
395.65	1254.53
395.84	1266.23
396.04	1207.72
396.23	1083.67
396.42	1151.54
396.62	1153.88
396.81	1196.01
397.00	1315.38
397.19	1254.53
397.39	1315.38
397.58	1294.32
397.77	1418.36
397.97	1455.81
398.16	1418.36
398.35	1448.79
398.55	1458.15
398.74	1462.83
398.93	1427.73
399.12	1584.54
399.32	1549.43
399.51	1565.82
399.70	1533.05
399.90	1533.05
400.09	1516.67
400.28	1591.56
400.47	1603.27
400.67	1636.03
400.86	1706.25
401.05	1750.72
401.24	1579.86
401.44	1715.61
401.63	1762.42
401.82	1668.80
402.01	1643.06
402.21	1790.51
402.40	1795.19
402.59	1783.49
402.78	1802.21
402.97	1792.85
403.17	1806.89
403.36	1874.77
403.55	1839.66
403.74	1891.15
403.93	1856.04
404.13	1849.02
404.32	1898.17
404.51	1893.49
404.70	1942.64
404.89	1968.39
405.09	2052.65
405.28	2003.50
405.47	2015.20
405.66	1994.14
405.85	1944.99
406.05	1902.86
406.24	2003.50
406.43	2047.97
406.62	2078.40
406.81	2179.04
407.00	2143.93
407.20	2143.93
407.39	2134.57
407.58	2221.17
407.77	2181.38
407.96	2225.85
408.15	2207.13
408.34	2190.74
408.54	2396.71
408.73	2317.13
408.92	2359.26
409.11	2291.38
409.30	2303.09
409.49	2237.55
409.68	2314.79
409.87	2431.82
410.07	2310.11
410.26	2389.69
410.45	2401.39
410.64	2473.95
410.83	2427.14
411.02	2630.76
411.21	2635.44
411.40	2516.08
411.59	2626.08
411.78	2700.98
411.98	2679.91
412.17	2717.36
412.36	2647.15
412.55	2724.38
412.74	2768.85
412.93	2803.96
413.12	2651.83
413.31	2930.35
413.50	2923.33
413.69	2818.00
413.88	2963.12
414.07	2876.52
414.26	2911.63
414.45	2754.81
414.64	2881.20
414.83	3204.19
415.02	3084.83
415.22	3096.53
415.41	3236.96
415.60	3159.72
415.79	3234.62
415.98	3183.13
416.17	3243.98
416.36	3234.62
416.55	3274.41
416.74	3330.58
416.93	3234.62
417.12	3302.50
417.31	3382.07
417.50	3410.16
417.69	3377.39
417.88	3463.99
418.07	3419.52
418.26	3398.46
418.45	3480.38
418.64	3641.87
418.83	3564.64
419.02	3541.23
419.21	3723.79
419.39	3644.21
419.58	3480.38
419.77	3545.91
419.96	3672.30
420.15	3658.26
420.34	3698.05
420.53	3784.65
420.72	3861.88
420.91	3723.79
421.10	3915.72
421.29	3896.99
421.48	3742.52
421.67	3843.16
421.86	3782.31
422.05	3730.81
422.24	3822.09
422.43	3829.12
422.61	3803.37
422.80	3838.48
422.99	3943.80
423.18	3997.64
423.37	3896.99
423.56	3997.64
423.75	3943.80
423.94	3719.11
424.13	3679.32
424.32	3733.15
424.50	3866.56
424.69	3934.44
424.88	4039.76
425.07	3915.72
425.26	3882.95
425.45	4032.74
425.64	4102.96
425.83	4114.66
426.01	4046.79
426.20	4025.72
426.39	4002.32
426.58	3920.40
426.77	3868.91
426.96	3948.48
427.15	4021.04
427.33	4072.53
427.52	4067.85
427.71	4109.98
427.90	4194.24
428.09	4138.07
428.28	4128.70
428.46	4147.43
428.65	4217.65
428.84	4404.89
429.03	4329.99
429.22	4315.95
429.40	4074.87
429.59	4280.84
429.78	3946.14
429.97	3941.46
430.16	3967.21
430.34	4102.96
430.53	4100.62
430.72	4297.22
430.91	4161.47
431.10	4332.33
431.28	4486.81
431.47	4634.26
431.66	4706.82
431.85	4589.79
432.03	4582.77
432.22	4716.18
432.41	4645.96
432.60	4681.07
432.79	4800.44
432.97	4816.82
433.16	4657.67
433.35	4718.52
433.54	4641.28
433.72	4657.67
433.91	4802.78
434.10	4711.50
434.28	4697.46
434.47	4994.70
434.66	4980.66
434.85	4968.96
435.03	5020.45
435.22	5060.24
435.41	5153.86
435.59	5212.37
435.78	5036.83
435.97	5097.69
436.16	5144.50
436.34	5142.16
436.53	5226.42
436.72	5336.42
436.90	5205.35
437.09	5102.37
437.28	4959.60
437.46	5322.38
437.65	5270.89
437.84	5341.10
438.02	5142.16
438.21	5130.45
438.40	5095.35
438.58	5238.12
438.77	5556.43
438.96	5282.59
439.14	5722.61
439.33	5558.77
439.52	5673.46
439.70	5605.58
439.89	5722.61
440.08	5610.26
440.26	5708.57
440.45	5720.27
440.63	5734.31
440.82	5991.77
441.01	5921.56
441.19	6026.88
441.38	6125.18
441.57	6202.42
441.75	6122.84
441.94	6232.85
442.12	6361.58
442.31	6480.94
442.50	6296.04
442.68	6324.13
442.87	6476.26
443.05	6296.04
443.24	6595.63
443.43	6567.54
443.61	6518.39
443.80	6654.14
443.98	6277.32
444.17	6216.46
444.35	6380.30
444.54	6637.76
444.73	6516.05
444.91	6462.22
445.10	6572.22
445.28	6513.71
445.47	6497.33
445.65	6562.86
445.84	6565.20
446.02	6696.27
446.21	6726.70
446.39	6619.04
446.58	6759.47
446.77	6640.10
446.95	6609.67
447.14	6553.50
447.32	6857.77
447.51	6759.47
447.69	6724.36
447.88	6640.10
448.06	6612.01
448.25	6684.57
448.43	6696.27
448.62	6661.16
448.80	6759.47
448.99	6759.47
449.17	6993.52
449.36	6778.19
449.54	7037.99
449.73	7232.26
449.91	7126.93
450.10	7215.87
450.28	7140.97
450.46	7325.88
450.65	7236.94
450.83	7133.95
451.02	7215.87
451.20	7176.08
451.39	7073.10
451.57	7391.41
451.76	7297.79
451.94	7281.41
452.13	7283.75
452.31	7321.20
452.49	7059.06
452.68	7143.32
452.86	7169.06
453.05	7302.47
453.23	7599.72
453.42	7382.05
453.60	7403.11
453.78	7513.12
453.97	7431.20
454.15	7623.12
454.34	7351.62
454.52	7613.76
454.70	7503.76
454.89	7604.40
455.07	7630.15
455.26	7609.08
455.44	7829.09
455.62	7620.78
455.81	7770.58
455.99	7967.18
456.17	7925.05
456.36	8032.72
456.54	8006.97
456.73	8051.44
456.91	8149.75
457.09	8056.12
457.28	8400.18
457.46	8215.28
457.64	8109.96
457.83	8109.96
458.01	7967.18
458.19	8294.86
458.38	8147.40
458.56	8397.84
458.74	8271.45
458.93	8238.69
459.11	8397.84
459.29	8156.77
459.48	8276.13
459.66	8423.59
459.84	8540.61
460.03	8475.08
460.21	8540.61
460.39	8641.26
460.57	8549.98
460.76	8662.32
460.94	8629.56
461.12	8538.27
461.31	8741.90
461.49	8769.99
461.67	8662.32
461.85	8987.66
462.04	8994.68
462.22	9240.44
462.40	9125.75
462.59	9004.04
462.77	8943.19
462.95	9018.08
463.13	8985.32
463.32	8947.87
463.50	8973.61
463.68	8975.95
463.86	9025.11
464.05	8865.95
464.23	9076.60
464.41	9064.89
464.59	8943.19
464.78	9163.20
464.96	9270.86
465.14	9121.07
465.32	9301.29
465.50	9275.54
465.69	9430.02
465.87	9109.36
466.05	9167.88
466.23	9153.84
466.41	9401.93
466.60	9493.21
466.78	9268.52
466.96	9254.48
467.14	9303.63
467.32	9289.59
467.51	9643.01
467.69	9364.48
467.87	9600.88
468.05	9565.77
468.23	9502.58
468.41	9568.11
468.60	9488.53
468.78	9500.23
468.96	9582.15
469.14	9795.14
469.32	9870.04
469.50	9507.26
469.69	9851.31
469.87	9743.65
470.05	9846.63
470.23	9617.26
470.41	9888.76
470.59	9872.38
470.77	9844.29
470.95	9970.68
471.14	10186.01
471.32	10087.71
471.50	10132.18
471.68	10443.47
471.86	10457.51
472.04	10532.41
472.22	10511.35
472.40	10183.67
472.58	10380.28
472.77	10436.45
472.95	10469.22
473.13	11091.80
473.31	10775.83
473.49	10700.93
473.67	10544.11
473.85	10525.39
474.03	11026.26
474.21	10995.84
474.39	10988.82
474.57	11152.65
474.75	11190.10
474.93	11286.06
475.12	11171.38
475.30	11396.07
475.48	11358.62
475.66	11377.34
475.84	11204.14
476.02	11246.27
476.20	11557.57
476.38	11749.49
476.56	12255.04
476.74	11791.62
476.92	11623.10
477.10	11730.76
477.28	11946.09
477.46	12009.29
477.64	12128.66
477.82	12477.40
478.00	12498.46
478.18	12524.21
478.36	12540.59
478.54	12524.21
478.72	12596.76
478.90	12819.11
479.08	12957.21
479.26	13317.65
479.44	13303.60
479.62	13355.10
479.80	13341.05
479.98	13586.81
480.16	14033.85
480.34	13495.53
480.52	14052.58
480.70	13699.16
480.88	13729.58
481.06	13870.01
481.24	13921.51
481.41	14321.74
481.59	14310.04
481.77	14377.91
481.95	14710.27
482.13	14623.67
482.31	14766.44
482.49	15040.28
482.67	15250.93
482.85	14941.98
483.03	15272.00
483.21	15370.30
483.39	15494.35
483.57	15412.43
483.74	15611.37
483.92	15899.26
484.10	15510.73
484.28	15929.69
484.46	16166.08
484.64	16336.94
484.82	15775.21
485.00	16343.96
485.18	16472.69
485.35	16512.48
485.53	16128.63
485.71	16219.91
485.89	16528.86
486.07	16510.14
486.25	16673.98
486.43	17003.99
486.61	17301.24
486.78	17514.23
486.96	17451.03
487.14	17916.80
487.32	17628.92
487.50	18134.47
487.68	18302.99
487.85	18445.76
488.03	18506.62
488.21	18817.91
488.39	18808.54
488.57	18735.99
488.75	18888.12
488.92	19267.29
489.10	19403.04
489.28	19398.36
489.46	19887.53
489.64	19850.08
489.81	20463.30
489.99	20034.99
490.17	20144.99
490.35	20545.22
490.53	20154.35
490.70	20535.86
490.88	20465.64
491.06	20800.34
491.24	20823.75
491.41	20954.82
491.59	20903.32
491.77	20776.94
491.95	21135.04
492.13	21745.92
492.30	21734.21
492.48	21811.45
492.66	21806.77
492.84	22082.95
493.01	22504.25
493.19	22714.90
493.37	22132.11
493.54	22080.61
493.72	22775.75
493.90	22941.93
494.08	23124.49
494.25	23278.97
494.43	23501.32
494.61	23316.42
494.79	23676.86
494.96	23597.28
495.14	23337.48
495.32	23578.56
495.49	23960.06
495.67	23735.37
495.85	24044.32
496.02	24570.94
496.20	24229.23
496.38	24095.82
496.55	24996.92
496.73	24947.77
496.91	24765.21
497.09	25277.79
497.26	25198.21
497.44	25003.94
497.62	25296.51
497.79	25467.37
497.97	25181.82
498.14	25434.60
498.32	25790.36
498.50	25811.43
498.67	26164.85
498.85	25909.73
499.03	25975.27
499.20	26445.71
499.38	26525.29
499.56	26387.20
499.73	26593.17
499.91	26597.85
500.08	26562.74
500.26	26525.29
500.44	26532.31
500.61	26658.70
500.79	26572.10
500.97	26883.39
501.14	27138.51
501.32	27297.67
501.49	27124.47
501.67	27332.78
501.84	27775.14
502.02	27447.46
502.20	27756.41
502.37	27995.15
502.55	27709.60
502.72	27796.20
502.90	28301.76
503.07	27936.63
503.25	28444.53
503.43	28058.34
503.60	28554.54
503.78	28301.76
503.95	28472.62
504.13	28802.63
504.30	29008.60
504.48	28774.55
504.65	29139.67
504.83	29043.71
505.01	29153.71
505.18	29422.87
505.36	29788.00
505.53	29532.88
505.71	29926.09
505.88	30005.67
506.06	29558.63
506.23	30235.04
506.41	29736.51
506.58	30115.67
506.76	30143.76
506.93	30059.50
507.11	29855.87
507.28	30338.02
507.46	30038.44
507.63	30347.39
507.81	30157.80
507.98	30387.18
508.16	30473.78
508.33	31058.91
508.50	30735.92
508.68	30888.05
508.85	31079.97
509.03	31307.01
509.20	31126.78
509.38	31545.74
509.55	31470.84
509.73	31278.92
509.90	31573.83
510.08	31393.61
510.25	31431.05
510.42	31707.24
510.60	31732.98
510.77	32065.34
510.95	32500.68
511.12	32254.92
511.30	32339.18
511.47	32411.74
511.64	32348.54
511.82	32912.61
511.99	32512.38
512.17	32673.88
512.34	32615.37
512.51	32704.31
512.69	32978.15
512.86	32685.58
513.04	33198.16
513.21	32718.35
513.38	32786.22
513.56	33340.93
513.73	33104.54
513.90	33502.43
514.08	33404.13
514.25	33198.16
514.43	33383.06
514.60	33652.22
514.77	33867.55
514.95	33654.56
515.12	33663.93
515.29	33717.76
515.47	34085.22
515.64	34132.03
515.81	34061.82
515.99	34057.14
516.16	33769.25
516.33	33553.92
516.51	34183.52
516.68	33621.80
516.85	33488.38
517.03	33858.19
517.20	34064.16
517.37	34906.75
517.54	34452.69
517.72	34408.22
517.89	34218.63
518.06	34050.11
518.24	34335.66
518.41	34747.59
518.58	34471.41
518.75	34426.94
518.93	35007.39
519.10	35072.93
519.27	35639.34
519.45	35119.74
519.62	35646.36
519.79	35548.06
519.96	35908.50
520.14	35817.22
520.31	35552.74
520.48	35494.22
520.65	35611.25
520.83	35981.06
521.00	36542.78
521.17	36023.19
521.34	36582.57
521.52	36292.35
521.69	36385.97
521.86	36767.48
522.03	36327.45
522.20	36360.22
522.38	36479.59
522.55	36732.37
522.72	36446.82
522.89	36484.27
523.07	36690.24
523.24	37207.50
523.41	36971.10
523.58	36910.25
523.75	37090.47
523.92	37820.72
524.10	37359.63
524.27	37495.38
524.44	37317.50
524.61	37471.98
524.78	37935.40
524.96	37801.99
525.13	37631.13
525.30	37930.72
525.47	38508.83
525.64	37624.11
525.81	38167.12
525.98	37949.45
526.16	37581.98
526.33	37179.41
526.50	37848.80
526.67	37813.70
526.84	37537.51
527.01	37935.40
527.18	37928.38
527.36	38256.06
527.53	38377.76
527.70	38565.01
527.87	38951.20
528.04	38937.15
528.21	38852.89
528.38	38808.42
528.55	39084.61
528.72	38529.90
528.89	39356.11
529.07	38756.93
529.24	38443.30
529.41	38806.08
529.58	39316.32
529.75	38759.27
529.92	39622.93
530.09	38972.26
530.26	39433.35
530.43	39381.85
530.60	39239.08
530.77	39459.09
530.94	39634.63
531.11	39646.33
531.28	39660.38
531.46	39611.23
531.63	39772.72
531.80	39812.51
531.97	39845.28
532.14	39533.99
532.31	39374.83
532.48	39346.75
532.65	39765.70
532.82	39669.74
532.99	40238.49
533.16	39936.56
533.33	40215.08
533.50	40133.17
533.67	40502.97
533.84	40128.48
534.01	40229.13
534.18	39768.04
534.35	40615.32
534.52	40362.54
534.69	40868.09
534.86	40676.17
535.03	40612.98
535.20	40676.17
535.37	41570.25
535.54	40865.75
535.71	40758.09
535.88	40580.21
536.05	41174.70
536.22	40720.64
536.38	41160.66
536.55	40900.86
536.72	40797.88
536.89	40940.65
537.06	41125.55
537.23	41441.53
537.40	41102.15
537.57	41715.37
537.74	41109.17
537.91	41778.56
538.08	41177.04
538.25	41216.83
538.42	41408.76
538.59	41614.72
538.75	41062.36
538.92	41364.29
539.09	41610.04
539.26	41689.62
539.43	41549.19
539.60	41471.95
539.77	41289.39
539.94	41954.10
540.11	41518.76
540.28	41422.80
540.44	41605.36
540.61	41521.10
540.78	41715.37
540.95	41851.12
541.12	41752.82
541.29	41745.80
541.46	41930.70
541.62	42220.92
541.79	42295.82
541.96	41722.39
542.13	41888.57
542.30	41762.18
542.47	42190.50
542.63	42396.46
542.80	42625.84
542.97	42700.73
543.14	42965.21
543.31	42422.21
543.48	42703.07
543.64	43470.77
543.81	42941.81
543.98	43330.34
544.15	43292.89
544.32	43388.85
544.48	43330.34
544.65	43065.86
544.82	43309.27
544.99	42997.98
545.16	42965.21
545.32	43019.05
545.49	44046.54
545.66	43517.58
545.83	43475.45
546.00	43627.59
546.16	43328.00
546.33	43515.24
546.50	43318.64
546.67	43463.75
546.83	43000.32
547.00	43360.76
547.17	43634.61
547.34	43381.83
547.50	43269.48
547.67	43730.57
547.84	43871.00
548.00	43838.23
548.17	44130.80
548.34	44257.19
548.51	44343.79
548.67	43852.28
548.84	44219.74
549.01	43742.27
549.18	44023.14
549.34	44039.52
549.51	43973.98
549.68	44245.49
549.84	44318.04
550.01	44395.28
550.18	44081.65
550.34	44605.93
550.51	44327.41
550.68	44259.53
550.84	44395.28
551.01	44273.57
551.18	44264.21
551.34	44245.49
551.51	44205.70
551.68	44392.94
551.84	44755.72
552.01	44369.54
552.18	44687.85
552.34	44535.71
552.51	44282.94
552.68	44945.31
552.84	45179.36
553.01	44891.48
553.18	44753.38
553.34	44406.98
553.51	44755.72
553.67	44737.00
553.84	44849.35
554.01	44917.22
554.17	44680.83
554.34	45251.92
554.51	45186.38
554.67	45471.93
554.84	44795.51
555.00	45057.65
555.17	44748.70
555.33	45221.49
555.50	45364.26
555.67	45118.51
555.83	44760.40
556.00	44744.02
556.16	45563.21
556.33	44711.25
556.50	45338.52
556.66	44982.76
556.83	44949.99
556.99	45015.52
557.16	45874.50
557.32	45408.73
557.49	45750.45
557.65	45172.34
557.82	45195.74
557.98	45460.23
558.15	45289.37
558.32	45448.52
558.48	45214.47
558.65	45134.89
558.81	45511.72
558.98	45579.59
559.14	45081.06
559.31	45315.11
559.47	45979.82
559.64	45439.16
559.80	45851.09
559.97	45514.06
560.13	45581.93
560.30	45294.05
560.46	45392.35
560.63	45876.84
560.79	45593.64
560.96	45525.76
561.12	45413.41
561.29	45965.78
561.45	45579.59
561.61	45694.28
561.78	45530.44
561.94	45324.47
562.11	45785.56
562.27	45717.68
562.44	45661.51
562.60	45897.91
562.77	45918.97
562.93	45308.09
563.10	45734.07
563.26	45336.18
563.42	45799.60
563.59	45546.82
563.75	45872.16
563.92	45677.90
564.08	46281.75
564.24	46036.00
564.41	45961.10
564.57	45823.01
564.74	46000.89
564.90	46024.29
565.07	46047.70
565.23	46106.21
565.39	45823.01
565.56	45720.02
565.72	45682.58
565.88	46024.29
566.05	45911.95
566.21	45895.56
566.38	45755.13
566.54	45872.16
566.70	46089.83
566.87	46253.67
567.03	46117.92
567.19	46211.54
567.36	46115.58
567.52	46057.06
567.68	45769.18
567.85	46143.66
568.01	46642.20
568.17	45846.41
568.34	46281.75
568.50	46305.16
568.66	45827.69
568.83	46344.95
568.99	45425.12
569.15	45844.07
569.32	46052.38
569.48	45886.20
569.64	45933.01
569.81	45986.85
569.97	45979.82
570.13	46075.79
570.30	45757.47
570.46	45542.14
570.62	45764.49
570.78	46038.34
570.95	45930.67
571.11	46291.12
571.27	46595.38
571.43	45996.21
571.60	46134.30
571.76	46115.58
571.92	46277.07
572.09	46017.27
572.25	46110.89
572.41	46213.88
572.57	46174.09
572.74	46569.64
572.90	46335.59
573.06	46274.73
573.22	46220.90
573.38	46225.58
573.55	46195.15
573.71	46791.99
573.87	46080.47
574.03	46089.83
574.20	46227.92
574.36	46162.39
574.52	45879.18
574.68	46169.41
574.84	45815.99
575.01	46110.89
575.17	46120.26
575.33	45675.55
575.49	46122.60
575.65	46745.18
575.82	46452.61
575.98	46499.42
576.14	46672.62
576.30	46492.40
576.46	46457.29
576.62	46127.28
576.79	46307.50
576.95	46043.02
577.11	46506.44
577.27	46031.32
577.43	46494.74
577.59	46082.81
577.75	46141.32
577.92	46263.03
578.08	46323.88
578.24	46101.53
578.40	45839.39
578.56	46754.54
578.72	46382.40
578.88	46564.96
579.04	46464.32
579.21	46138.98
579.37	46366.01
579.53	46422.19
579.69	46384.74
579.85	46148.34
580.01	46726.46
580.17	45783.22
580.33	46316.86
580.49	46916.04
580.65	46471.34
580.82	46721.77
580.98	46033.66
581.14	46309.84
581.30	46780.29
581.46	46323.88
581.62	46684.33
581.78	46216.22
581.94	46768.58
582.10	46703.05
582.26	47002.64
582.42	46337.93
582.58	46323.88
582.74	46375.37
582.90	46452.61
583.06	46419.84
583.22	46143.66
583.38	46649.22
583.54	46810.71
583.70	46326.22
583.86	46375.37
584.02	46096.85
584.18	46752.20
584.34	46543.89
584.50	46557.94
584.66	46192.81
584.82	46047.70
584.98	46461.97
585.14	46375.37
585.30	46071.10
585.46	46639.86
585.62	46506.44
585.78	46616.45
585.94	46033.66
586.10	46742.84
586.26	46628.15
586.42	46834.12
586.58	46412.82
586.74	46450.27
586.90	46391.76
587.06	46632.83
587.22	46567.30
587.38	46263.03
587.54	46660.92
587.70	46838.80
587.86	46784.97
588.02	46405.80
588.18	46281.75
588.34	46522.83
588.49	45858.12
588.65	45588.95
588.81	45991.53
588.97	45942.38
589.13	45963.44
589.29	45862.80
589.45	46405.80
589.61	46277.07
589.77	46604.75
589.93	46663.26
590.08	46649.22
590.24	46206.86
590.40	46930.08
590.56	46281.75
590.72	46714.75
590.88	46326.22
591.04	46770.93
591.20	47023.70
591.35	46520.49
591.51	47086.90
591.67	46780.29
591.83	46681.98
591.99	46724.11
592.15	46515.81
592.31	46663.26
592.46	46476.02
592.62	46525.17
592.78	46674.96
592.94	46866.89
593.10	46529.85
593.26	47040.09
593.41	46263.03
593.57	46047.70
593.73	46696.03
593.89	46560.28
594.05	46689.01
594.20	46712.41
594.36	46831.78
594.52	46094.51
594.68	46447.93
594.84	46759.22
594.99	46820.08
595.15	46904.34
595.31	46714.75
595.47	46653.90
595.62	46808.37
595.78	46206.86
595.94	46602.41
596.10	46719.43
596.25	47072.85
596.41	46878.59
596.57	46681.98
596.73	47351.38
596.88	46625.81
597.04	46864.55
597.20	46396.44
597.36	46745.18
597.51	46976.89
597.67	46616.45
597.83	46602.41
597.99	47150.09
598.14	46920.72
598.30	46513.47
598.46	46607.09
598.61	46642.20
598.77	46171.75
598.93	46375.37
599.09	46602.41
599.24	47393.51
599.40	46822.42
599.56	46976.89
599.71	46604.75
599.87	46766.24
600.03	46719.43
600.18	46724.11
600.34	46457.29
600.50	46714.75
600.65	46504.10
600.81	46894.97
600.97	46759.22
601.12	47098.60
601.28	46621.13
601.44	46728.80
601.59	46450.27
601.75	46445.59
601.91	46536.87
602.06	45839.39
602.22	46649.22
602.37	46574.32
602.53	46829.44
602.69	46583.68
602.84	46319.20
603.00	46464.32
603.16	46319.20
603.31	46642.20
603.47	47056.47
603.62	46677.30
603.78	46703.05
603.94	46696.03
604.09	46981.57
604.25	46120.26
604.40	46419.84
604.56	46302.82
604.71	46789.65
604.87	46347.29
605.03	46181.11
605.18	46309.84
605.34	46447.93
605.49	46440.91
605.65	46600.07
605.80	46529.85
605.96	46464.32
606.12	46389.42
606.27	46660.92
606.43	46527.51
606.58	46518.15
606.74	46438.57
606.89	46834.12
607.05	46291.12
607.20	46358.99
607.36	46567.30
607.51	46532.19
607.67	46887.95
607.82	46450.27
607.98	45993.87
608.13	45968.12
608.29	46253.67
608.44	46157.70
608.60	46131.96
608.75	45876.84
608.91	46277.07
609.06	45888.54
609.22	46499.42
609.37	46080.47
609.53	46101.53
609.68	45961.10
609.84	45918.97
609.99	46019.61
610.15	45727.05
610.30	45680.24
610.46	45668.53
610.61	46223.24
610.76	45923.65
610.92	46260.69
611.07	46176.43
611.23	45949.40
611.38	45560.87
611.54	45853.44
611.69	45450.86
611.84	45633.42
612.00	45528.10
612.15	45652.15
612.31	45944.72
612.46	45776.20
612.62	46031.32
612.77	45914.29
612.92	46241.96
613.08	45518.74
613.23	45837.05
613.39	45528.10
613.54	44959.35
613.69	45710.66
613.85	45666.19
614.00	45296.39
614.15	45759.81
614.31	45607.68
614.46	45682.58
614.62	45411.07
614.77	45406.39
614.92	45675.55
615.08	45593.64
615.23	45027.23
615.38	45162.98
615.54	45418.10
615.69	45167.66
615.84	44938.29
616.00	44905.52
616.15	45160.64
616.30	45413.41
616.46	44648.06
616.61	44748.70
616.76	44971.05
616.92	45024.89
617.07	45048.29
617.22	44891.48
617.37	44556.78
617.53	45251.92
617.68	45366.60
617.83	45399.37
617.99	45078.72
618.14	45118.51
618.29	44928.92
618.45	44617.63
618.60	44601.25
618.75	44636.36
618.90	44421.03
619.06	45017.86
619.21	44367.20
619.36	45469.59
619.51	44751.04
619.67	44837.64
619.82	45029.57
619.97	44774.45
620.12	44617.63
620.28	43901.43
620.43	44360.17
620.58	44765.09
620.73	43906.11
620.89	44217.40
621.04	44664.44
621.19	44500.61
621.34	44271.23
621.49	44119.10
621.65	44144.84
621.80	44357.83
621.95	44254.85
622.10	44212.72
622.25	44617.63
622.41	43969.30
622.56	44392.94
622.71	44397.62
622.86	44271.23
623.01	44135.48
623.16	44058.24
623.32	44222.08
623.47	44133.14
623.62	43529.28
623.77	44133.14
623.92	44336.77
624.07	44016.11
624.23	43885.04
624.38	43859.30
624.53	43557.37
624.68	43814.83
624.83	43856.96
624.98	43697.80
625.13	43482.47
625.29	43634.61
625.44	43704.82
625.59	43524.60
625.74	43086.92
625.89	43283.53
626.04	43255.44
626.19	43391.19
626.34	42960.53
626.49	43533.96
626.65	43576.09
626.80	43744.61
626.95	43203.95
627.10	42749.88
627.25	43143.09
627.40	43381.83
627.55	42717.12
627.70	42806.06
627.85	43023.73
628.00	42775.63
628.15	43206.29
628.30	43103.31
628.45	43110.33
628.60	42712.44
628.76	43157.14
628.91	43306.93
629.06	42714.78
629.21	42323.91
629.36	42586.05
629.51	42691.37
629.66	42899.68
629.81	42546.26
629.96	42810.74
630.11	43005.00
630.26	42951.17
630.41	43072.88
630.56	42359.02
630.71	42490.09
630.86	42398.80
631.01	42862.23
631.16	42279.44
631.31	42110.92
631.46	42120.28
631.61	42384.76
631.76	42761.59
631.91	42134.32
632.06	42759.25
632.21	42234.97
632.36	42658.60
632.51	42115.60
632.66	41977.51
632.81	41855.80
632.96	42349.65
633.10	42171.77
633.25	41940.06
633.40	42284.12
633.55	42038.36
633.70	42412.85
633.85	42021.98
634.00	41830.05
634.15	41792.61
634.30	42071.13
634.45	41886.23
634.60	41771.54
634.75	41825.37
634.90	41801.97
635.05	41481.31
635.19	41860.48
635.34	41668.56
635.49	42232.63
635.64	41511.74
635.79	41841.76
635.94	41525.78
636.09	41528.13
636.24	41567.91
636.39	40903.20
636.53	41663.88
636.68	41823.03
636.83	41305.77
636.98	42087.51
637.13	41350.24
637.28	41640.47
637.43	41876.86
637.57	41689.62
637.72	41127.89
637.87	41298.75
638.02	41860.48
638.17	41684.94
638.32	41478.97
638.46	40851.71
638.61	41710.69
638.76	41350.24
638.91	41118.53
639.06	41200.45
639.20	41560.89
639.35	41284.71
639.50	40989.80
639.65	41294.07
639.80	41010.87
639.94	40921.93
640.09	41008.53
640.24	40538.08
640.39	40708.94
640.54	40612.98
640.68	40715.96
640.83	40966.40
640.98	40577.87
641.13	40435.10
641.27	40610.64
641.42	40643.40
641.57	40594.25
641.72	40659.79
641.86	40659.79
642.01	40105.08
642.16	40804.90
642.31	40313.39
642.45	39931.88
642.60	40502.97
642.75	40591.91
642.90	40392.97
643.04	40301.68
643.19	40257.21
643.34	40470.20
643.48	40261.90
643.63	40158.91
643.78	40196.36
643.93	40418.71
644.07	40062.95
644.22	40210.40
644.37	40107.42
644.51	40025.50
644.66	40512.33
644.81	40121.46
644.95	40343.81
645.10	40116.78
645.25	39746.98
645.39	39754.00
645.54	40154.23
645.69	39768.04
645.83	39835.92
645.98	39660.38
646.13	40023.16
646.27	40451.48
646.42	40154.23
646.57	39255.46
646.71	39545.69
646.86	39732.93
647.00	39688.46
647.15	39929.54
647.30	40009.12
647.44	39487.18
647.59	39178.23
647.74	39480.16
647.88	39641.65
648.03	39885.07
648.17	39627.61
648.32	38843.53
648.47	39435.69
648.61	38859.91
648.76	39861.66
648.90	39346.75
649.05	39178.23
649.20	39030.77
649.34	39098.65
649.49	38803.74
649.63	38789.70
649.78	39236.74
649.92	39196.95
650.07	39510.58
650.21	38990.98
650.36	39021.41
650.51	39241.42
650.65	39543.35
650.80	39594.84
650.94	39489.52
651.09	39381.85
651.23	38920.77
651.38	38892.68
651.52	38897.36
651.67	38845.87
651.81	39075.24
651.96	38618.84
652.10	38557.99
652.25	38754.59
652.39	38841.19
652.54	38469.04
652.68	38377.76
652.83	38724.16
652.97	38876.30
653.12	38675.01
653.26	38412.87
653.41	38529.90
653.55	38539.26
653.70	38349.68
653.84	38710.12
653.99	38639.90
654.13	38548.62
654.27	38234.99
654.42	37853.48
654.56	38066.47
654.71	38384.79
654.85	38534.58
655.00	38745.23
655.14	38024.34
655.29	37965.83
655.43	38178.82
655.57	37682.62
655.72	37212.18
655.86	37329.20
656.01	37542.19
656.15	37628.79
656.30	37565.60
656.44	37542.19
656.58	37652.20
656.73	37926.04
656.87	37944.76
657.01	37539.85
657.16	37654.54
657.30	37397.08
657.45	37549.21
657.59	37558.58
657.73	37783.27
657.88	38066.47
658.02	38253.72
658.16	37940.08
658.31	37701.35
658.45	37567.94
658.60	37635.81
658.74	37457.93
658.88	37614.75
659.03	37081.11
659.17	37397.08
659.31	37308.14
659.46	37361.97
659.60	37589.00
659.74	37263.67
659.89	37146.64
660.03	36605.98
660.17	37301.12
660.32	37041.32
660.46	37308.14
660.60	36816.63
660.74	36999.19
660.89	36917.27
661.03	36627.04
661.17	36563.85
661.32	36397.67
661.46	36549.81
661.60	36788.54
661.74	36783.86
661.89	36524.06
662.03	36460.87
662.17	36392.99
662.31	36114.47
662.46	36526.40
662.60	36676.19
662.74	36498.31
662.88	36201.07
663.03	36133.19
663.17	36116.81
663.31	35838.28
663.45	35812.54
663.60	35976.37
663.74	35779.77
663.88	36135.53
664.02	35700.19
664.17	35674.45
664.31	35393.58
664.45	35585.50
664.59	35253.15
664.73	35613.59
664.88	35629.98
665.02	35597.21
665.16	35482.52
665.30	35517.63
665.44	35524.65
665.59	34948.88
665.73	35550.40
665.87	35201.66
666.01	34778.02
666.15	34883.34
666.29	35213.36
666.44	35168.89
666.58	34810.79
666.72	34712.49
666.86	34850.58
667.00	34820.15
667.14	34265.44
667.28	34155.44
667.43	34312.25
667.57	34789.72
667.71	34464.39
667.85	34639.93
667.99	34614.18
668.13	33982.24
668.27	34274.80
668.41	34642.27
668.56	34178.84
668.70	34206.93
668.84	33787.97
668.98	33666.27
669.12	33525.83
669.26	33799.68
669.40	33649.88
669.54	33703.71
669.68	33579.67
669.82	33263.69
669.96	33305.82
670.10	33675.63
670.25	33371.36
670.39	33008.58
670.53	32858.78
670.67	33158.37
670.81	33312.84
670.95	32987.51
671.09	32891.55
671.23	33174.75
671.37	33109.22
671.51	32533.45
671.65	32964.10
671.79	32364.93
671.93	32561.53
672.07	32849.42
672.21	32762.82
672.35	32706.65
672.49	32245.56
672.63	32343.86
672.77	32781.54
672.91	32315.78
673.05	32493.66
673.19	32547.49
673.33	32304.07
673.47	31732.98
673.61	31613.62
673.75	31480.21
673.89	31667.45
674.03	31419.35
674.17	31510.63
674.31	31501.27
674.45	31208.70
674.59	31452.12
674.73	31859.37
674.87	31519.99
675.01	31133.81
675.15	31269.56
675.29	31494.25
675.43	31063.59
675.56	31082.31
675.70	31056.57
675.84	30813.15
675.98	29844.17
676.12	30651.66
676.26	30747.62
676.40	30513.56
676.54	30628.25
676.68	30462.07
676.82	30115.67
676.96	30272.49
677.10	30380.15
677.23	30256.11
677.37	29954.18
677.51	29879.28
677.65	29745.87
677.79	29280.10
677.93	29411.17
678.07	29240.31
678.21	29029.66
678.34	29355.00
678.48	28910.30
678.62	28872.85
678.76	28723.05
678.90	28610.71
679.04	28711.35
679.18	28627.09
679.31	28240.90
679.45	28053.66
679.59	28231.54
679.73	28163.67
679.87	28554.54
680.00	28245.58
680.14	28158.99
680.28	28430.49
680.42	28226.86
680.56	27847.69
680.70	27953.02
680.83	28158.99
680.97	27658.11
681.11	27597.26
681.25	27447.46
681.39	27611.30
681.52	26895.10
681.66	27300.01
681.80	27190.00
681.94	26998.08
682.07	27070.64
682.21	26944.25
682.35	26902.12
682.49	26977.01
682.62	26677.43
682.76	26256.13
682.90	26438.69
683.04	26244.43
683.17	26258.47
683.31	25937.82
683.45	26167.19
683.59	25848.88
683.72	26214.00
683.86	25834.83
684.00	25813.77
684.13	26094.63
684.27	25427.58
684.41	25717.81
684.55	25310.55
684.68	25291.83
684.82	25275.45
684.96	25223.95
685.09	24723.08
685.23	24844.79
685.37	24732.44
685.50	24669.25
685.64	24463.28
685.78	24781.59
685.91	24437.53
686.05	24542.86
686.19	24201.14
686.32	24126.24
686.46	23700.26
686.60	23763.46
686.73	23545.79
686.87	23281.31
687.01	23112.79
687.14	23012.15
687.28	23065.98
687.42	23424.08
687.55	22960.66
687.69	23578.56
687.82	23101.09
687.96	23262.58
688.10	23063.64
688.23	22838.95
688.37	22822.56
688.50	22742.99
688.64	22590.85
688.78	22712.56
688.91	22581.49
689.05	22773.41
689.18	22106.36
689.32	22405.95
689.46	22452.76
689.59	22391.91
689.73	22356.80
689.86	22015.08
690.00	21954.22
690.13	21825.50
690.27	21764.64
690.41	21434.63
690.54	21191.21
690.68	21242.70
690.81	21563.36
690.95	21322.28
691.08	21593.78
691.22	21364.41
691.35	21174.83
691.49	21462.71
691.62	21163.12
691.76	21151.42
691.89	21050.78
692.03	20709.06
692.16	21055.46
692.30	20329.89
692.43	20262.02
692.57	20304.15
692.70	20034.99
692.84	20233.93
692.97	20025.62
693.11	20255.00
693.24	19957.75
693.38	19606.67
693.51	19943.70
693.65	20027.96
693.78	19899.23
693.92	19810.29
694.05	19932.00
694.19	19653.48
694.32	19452.19
694.45	19000.47
694.59	19480.28
694.72	19126.86
694.86	19161.97
694.99	18782.80
695.13	18735.99
695.26	18635.35
695.39	18745.35
695.53	18672.79
695.66	18958.34
695.80	18855.36
695.93	18621.30
696.07	18272.56
696.20	18321.71
696.33	18455.12
696.47	18230.43
696.60	18183.62
696.73	17825.52
696.87	18064.25
697.00	18008.08
697.14	17713.17
697.27	17448.69
697.40	17525.93
697.54	17778.71
697.67	17589.13
697.80	17848.93
697.94	17317.62
698.07	17294.22
698.21	16978.25
698.34	17287.20
698.47	17144.42
698.61	16697.38
698.74	16844.84
698.87	16982.93
699.01	16608.44
699.14	16414.18
699.27	16589.72
699.40	16496.10
699.54	16592.06
699.67	16063.10
699.80	16358.00
699.94	16475.03
700.07	16210.55
700.20	16175.44
700.34	16074.80
700.47	15822.02
700.60	16280.77
700.73	16053.73
700.87	15955.43
701.00	15733.08
701.13	15489.67
701.26	15578.61
701.40	15676.91
701.53	15286.04
701.66	15349.23
701.79	15157.31
701.93	15054.33
702.06	15044.96
702.19	15082.41
702.32	15009.86
702.46	14930.28
702.59	14803.89
702.72	14965.39
702.85	14867.08
702.99	14829.63
703.12	14768.78
703.25	14714.95
703.38	14274.93
703.51	14413.02
703.65	14398.98
703.78	14492.60
703.91	14223.44
704.04	14230.46
704.17	14214.07
704.31	14097.05
704.44	14010.45
704.57	13949.59
704.70	13767.03
704.83	13774.05
704.96	14033.85
705.10	13715.54
705.23	13760.01
>>>>>End Processed Spectral Data<<<<<
