SpectraSuite Data File
++++++++++++++++++++++++++++++++++++
Date: Fri Oct 25 10:48:06 EDT 2013
User: price-jones
Dark Spectrum Present: No
Reference Spectrum Present: No
Number of Sampled Component Spectra: 1
Spectrometers: USB2+H05261
Integration Time (usec): 100000 (USB2+H05261)
Spectra Averaged: 1 (USB2+H05261)
Boxcar Smoothing: 0 (USB2+H05261)
Correct for Electrical Dark: No (USB2+H05261)
Strobe/Lamp Enabled: No (USB2+H05261)
Correct for Detector Non-linearity: No (USB2+H05261)
Correct for Stray Light: No (USB2+H05261)
Number of Pixels in Processed Spectrum: 2048
>>>>>Begin Processed Spectral Data<<<<<
365.73	182.56
365.92	182.56
366.12	182.56
366.32	70.22
366.52	60.85
366.72	77.24
366.91	32.77
367.11	0.00
367.31	32.77
367.51	105.32
367.70	0.00
367.90	25.75
368.10	81.92
368.30	86.60
368.49	21.06
368.69	102.98
368.89	42.13
369.09	63.19
369.28	63.19
369.48	0.00
369.68	81.92
369.87	117.03
370.07	117.03
370.27	180.22
370.47	119.37
370.66	393.21
370.86	444.70
371.06	437.68
371.25	456.40
371.45	465.77
371.65	521.94
371.84	449.38
372.04	381.51
372.24	496.19
372.44	409.59
372.63	416.62
372.83	447.04
373.03	491.51
373.22	479.81
373.42	521.94
373.62	552.37
373.81	540.66
374.01	557.05
374.21	514.92
374.40	550.03
374.60	587.47
374.79	479.81
374.99	573.43
375.19	561.73
375.38	587.47
375.58	641.31
375.78	564.07
375.97	667.05
376.17	571.09
376.37	535.98
376.56	547.69
376.76	550.03
376.95	641.31
377.15	617.90
377.35	587.47
377.54	638.97
377.74	617.90
377.93	552.37
378.13	608.54
378.33	643.65
378.52	671.73
378.72	615.56
378.91	627.26
379.11	582.79
379.31	638.97
379.50	582.79
379.70	657.69
379.89	634.29
380.09	571.09
380.28	631.94
380.48	636.63
380.68	638.97
380.87	716.20
381.07	681.10
381.26	645.99
381.46	554.71
381.65	634.29
381.85	557.05
382.04	599.18
382.24	645.99
382.43	734.93
382.63	589.82
382.83	678.76
383.02	685.78
383.22	690.46
383.41	671.73
383.61	751.31
383.80	812.17
384.00	800.46
384.19	849.61
384.39	755.99
384.58	772.38
384.78	685.78
384.97	753.65
385.17	681.10
385.36	800.46
385.56	737.27
385.75	645.99
385.95	791.10
386.14	821.53
386.34	877.70
386.53	823.87
386.72	819.19
386.92	805.14
387.11	791.10
387.31	837.91
387.50	816.85
387.70	802.80
387.89	819.19
388.09	809.83
388.28	800.46
388.48	835.57
388.67	772.38
388.86	854.30
389.06	889.40
389.25	929.19
389.45	889.40
389.64	863.66
389.84	905.79
390.03	842.59
390.22	884.72
390.42	926.85
390.61	910.47
390.81	887.06
391.00	938.55
391.19	961.96
391.39	1006.43
391.58	863.66
391.78	919.83
391.97	943.24
392.16	891.74
392.36	1001.75
392.55	889.40
392.75	959.62
392.94	952.60
393.13	1053.24
393.33	926.85
393.52	1008.77
393.71	999.41
393.91	1015.79
394.10	1036.86
394.29	1006.43
394.49	1069.62
394.68	1114.10
394.88	1184.31
395.07	1156.22
395.26	1074.31
395.46	1067.28
395.65	1146.86
395.84	1128.14
396.04	1163.25
396.23	1046.22
396.42	1074.31
396.62	1104.73
396.81	1071.97
397.00	1076.65
397.19	1226.44
397.39	1123.46
397.58	1214.74
397.77	1163.25
397.97	1231.12
398.16	1247.51
398.35	1142.18
398.55	1247.51
398.74	1249.85
398.93	1240.48
399.12	1327.08
399.32	1310.70
399.51	1238.14
399.70	1284.95
399.90	1343.47
400.09	1350.49
400.28	1397.30
400.47	1423.05
400.67	1338.79
400.86	1357.51
401.05	1423.05
401.24	1434.75
401.44	1486.24
401.63	1467.52
401.82	1376.24
402.01	1401.98
402.21	1451.13
402.40	1369.21
402.59	1502.62
402.78	1526.03
402.97	1547.09
403.17	1570.50
403.36	1565.82
403.55	1509.65
403.74	1598.59
403.93	1593.90
404.13	1614.97
404.32	1614.97
404.51	1537.73
404.70	1678.16
404.89	1575.18
405.09	1610.29
405.28	1682.85
405.47	1706.25
405.66	1661.78
405.85	1750.72
406.05	1675.82
406.24	1661.78
406.43	1708.59
406.62	1806.89
406.81	1842.00
407.00	1820.94
407.20	1825.62
407.39	1802.21
407.58	1778.81
407.77	1729.66
407.96	1898.17
408.15	1980.09
408.34	1879.45
408.54	1998.82
408.73	1912.22
408.92	1900.52
409.11	1991.80
409.30	1888.81
409.49	2062.01
409.68	1935.62
409.87	2038.61
410.07	2038.61
410.26	2057.33
410.45	2045.63
410.64	2106.48
410.83	2043.29
411.02	2094.78
411.21	2186.06
411.40	2298.41
411.59	2188.40
411.78	2258.62
411.98	2228.19
412.17	2347.56
412.36	2347.56
412.55	2422.45
412.74	2490.33
412.93	2410.75
413.12	2410.75
413.31	2399.05
413.50	2340.54
413.69	2464.58
413.88	2567.57
414.07	2483.31
414.26	2579.27
414.45	2691.62
414.64	2576.93
414.83	2621.40
415.02	2637.78
415.22	2609.70
415.41	2635.44
415.60	2665.87
415.79	2663.53
415.98	2836.73
416.17	2853.11
416.36	2754.81
416.55	2815.66
416.74	2834.39
416.93	2850.77
417.12	2825.03
417.31	2970.14
417.50	2869.50
417.69	3030.99
417.88	2981.84
418.07	2965.46
418.26	2965.46
418.45	2972.48
418.64	3103.55
418.83	3049.72
419.02	3194.83
419.21	3164.40
419.39	3077.80
419.58	3117.59
419.77	3033.33
419.96	3159.72
420.15	3220.58
420.34	3075.46
420.53	3243.98
420.72	3311.86
420.91	3297.81
421.10	3335.26
421.29	3293.13
421.48	3215.90
421.67	3309.52
421.86	3335.26
422.05	3302.50
422.24	3272.07
422.43	3346.97
422.61	3499.10
422.80	3527.19
422.99	3368.03
423.18	3344.63
423.37	3471.01
423.56	3599.74
423.75	3365.69
423.94	3421.86
424.13	3211.22
424.32	3372.71
424.50	3454.63
424.69	3431.23
424.88	3620.81
425.07	3421.86
425.26	3328.24
425.45	3482.72
425.64	3515.48
425.83	3557.61
426.01	3562.30
426.20	3536.55
426.39	3529.53
426.58	3524.85
426.77	3492.08
426.96	3522.51
427.15	3606.77
427.33	3550.59
427.52	3543.57
427.71	3555.27
427.90	3676.98
428.09	3707.41
428.28	3669.96
428.46	3648.90
428.65	3805.71
428.84	3770.60
429.03	3779.97
429.22	3730.81
429.40	3761.24
429.59	3829.12
429.78	3665.28
429.97	3604.42
430.16	3641.87
430.34	3705.07
430.53	3819.75
430.72	3737.84
430.91	3730.81
431.10	3850.18
431.28	3922.74
431.47	3932.10
431.66	4159.13
431.85	3904.01
432.03	4074.87
432.22	4112.32
432.41	4084.23
432.60	4198.92
432.79	4107.64
432.97	4210.62
433.16	4126.36
433.35	4224.67
433.54	4234.03
433.72	4102.96
433.91	4145.09
434.10	4245.73
434.28	4182.54
434.47	4224.67
434.66	4311.27
434.85	4329.99
435.03	4425.95
435.22	4360.42
435.41	4507.87
435.59	4531.28
435.78	4425.95
435.97	4451.70
436.16	4557.02
436.34	4503.19
436.53	4442.34
436.72	4652.98
436.90	4411.91
437.09	4585.11
437.28	4613.20
437.46	4554.68
437.65	4554.68
437.84	4517.23
438.02	4622.56
438.21	4688.09
438.40	4538.30
438.58	4695.11
438.77	4741.93
438.96	4720.86
439.14	4865.97
439.33	4875.34
439.52	4922.15
439.70	4905.76
439.89	4929.17
440.08	5008.75
440.26	5011.09
440.45	5067.26
440.63	5123.43
440.82	5376.21
441.01	5210.03
441.19	5268.55
441.38	5291.95
441.57	5149.18
441.75	5217.05
441.94	5488.56
442.12	5558.77
442.31	5408.98
442.50	5411.32
442.68	5579.84
442.87	5497.92
443.05	5586.86
443.24	5619.63
443.43	5533.03
443.61	5565.79
443.80	5746.02
443.98	5570.48
444.17	5643.03
444.35	5640.69
444.54	5750.70
444.73	5628.99
444.91	5706.23
445.10	5713.25
445.28	5853.68
445.47	5645.37
445.65	5661.76
445.84	5858.36
446.02	5797.51
446.21	5872.40
446.39	5778.78
446.58	5914.53
446.77	5851.34
446.95	5778.78
447.14	5792.83
447.32	5968.37
447.51	5675.80
447.69	5858.36
447.88	5849.00
448.06	5731.97
448.25	5844.32
448.43	5820.91
448.62	5703.89
448.80	5888.79
448.99	5937.94
449.17	5905.17
449.36	5743.67
449.54	6040.92
449.73	6218.80
449.91	6150.93
450.10	6108.80
450.28	6164.97
450.46	6258.59
450.65	6106.46
450.83	6171.99
451.02	6246.89
451.20	6324.13
451.39	6478.60
451.57	6293.70
451.76	6417.75
451.94	6251.57
452.13	6401.37
452.31	6525.41
452.49	6504.35
452.68	6338.17
452.86	6366.26
453.05	6480.94
453.23	6530.09
453.42	6382.64
453.60	6473.92
453.78	6523.07
453.97	6562.86
454.15	6541.80
454.34	6359.24
454.52	6644.78
454.70	6644.78
454.89	6597.97
455.07	6541.80
455.26	6675.21
455.44	6909.26
455.62	6743.08
455.81	6672.87
455.99	6927.99
456.17	6935.01
456.36	6822.66
456.54	6949.05
456.73	7105.87
456.91	7073.10
457.09	7131.61
457.28	7316.51
457.46	7183.10
457.64	6970.12
457.83	7037.99
458.01	7255.66
458.19	7475.67
458.38	7293.11
458.56	7478.01
458.74	7365.67
458.93	7204.17
459.11	7164.38
459.29	7283.75
459.48	7496.74
459.66	7272.04
459.84	7295.45
460.03	7538.87
460.21	7330.56
460.39	7353.96
460.57	7445.24
460.76	7543.55
460.94	7576.31
461.12	7557.59
461.31	7578.65
461.49	7761.22
461.67	7620.78
461.85	7871.22
462.04	7700.36
462.22	8308.90
462.40	7770.58
462.59	7784.62
462.77	7964.84
462.95	7768.24
463.13	7864.20
463.32	8023.36
463.50	8084.21
463.68	7793.98
463.86	8009.31
464.05	7772.92
464.23	7875.90
464.41	7999.95
464.59	7908.67
464.78	8411.89
464.96	8056.12
465.14	7985.91
465.32	8135.70
465.50	8011.65
465.69	8367.42
465.87	8051.44
466.05	8128.68
466.23	8189.53
466.41	8072.51
466.60	8388.48
466.78	8091.23
466.96	8191.88
467.14	8093.57
467.32	8325.29
467.51	8423.59
467.69	8238.69
467.87	8234.00
468.05	8545.30
468.23	8538.27
468.41	8379.12
468.60	8439.97
468.78	8500.83
468.96	8461.04
469.14	8620.19
469.32	8641.26
469.50	8526.57
469.69	8634.24
469.87	8695.09
470.05	8826.16
470.23	8645.94
470.41	8802.75
470.59	8830.84
470.77	8727.86
470.95	9032.13
471.14	9132.77
471.32	8802.75
471.50	9217.03
471.68	9064.89
471.86	9341.08
472.04	9184.26
472.22	9270.86
472.40	8971.27
472.58	9327.03
472.77	9415.98
472.95	9451.08
473.13	9617.26
473.31	9315.33
473.49	9273.20
473.67	9249.80
473.85	9659.39
474.03	9699.18
474.21	9486.19
474.39	9846.63
474.57	9881.74
474.75	9958.98
474.93	9841.95
475.12	9881.74
475.30	10188.35
475.48	9785.78
475.66	9921.53
475.84	9912.17
476.02	10094.73
476.20	10296.02
476.38	10349.85
476.56	10579.22
476.74	10448.15
476.92	10443.47
477.10	10628.37
477.28	10485.60
477.46	10654.12
477.64	10785.19
477.82	11023.92
478.00	11325.85
478.18	11335.21
478.36	11122.23
478.54	11300.11
478.72	11386.71
478.90	11630.12
479.08	11522.46
479.26	11496.71
479.44	11712.04
479.62	11639.48
479.80	11770.55
479.98	11868.86
480.16	12224.62
480.34	11999.93
480.52	12243.34
480.70	12395.48
480.88	12112.27
481.06	12210.57
481.24	12191.85
481.41	12676.34
481.59	12704.43
481.77	12886.99
481.95	12842.52
482.13	12922.10
482.31	13069.55
482.49	13165.51
482.67	13284.88
482.85	13195.94
483.03	13605.53
483.21	13816.18
483.39	13523.62
483.57	13790.44
483.74	13921.51
483.92	13870.01
484.10	13935.55
484.28	14108.75
484.46	14530.05
484.64	14558.13
484.82	14595.58
485.00	14422.38
485.18	14663.46
485.35	14750.06
485.53	14848.36
485.71	15133.90
485.89	14956.02
486.07	15136.24
486.25	15283.70
486.43	15449.88
486.61	15576.27
486.78	15707.34
486.96	15396.04
487.14	16081.82
487.32	16058.42
487.50	16271.40
487.68	16308.85
487.85	16093.52
488.03	16676.32
488.21	16400.13
488.39	16519.50
488.57	16884.62
488.75	17039.10
488.92	17240.39
489.10	17462.74
489.28	17427.63
489.46	17425.29
489.64	17462.74
489.81	17975.31
489.99	18047.87
490.17	18157.88
490.35	18384.91
490.53	18019.78
490.70	18422.36
490.88	18258.52
491.06	18707.90
491.24	18644.71
491.41	18466.83
491.59	18860.04
491.77	18956.00
491.95	18775.78
492.13	19185.37
492.30	19253.25
492.48	19248.57
492.66	19288.35
492.84	19583.26
493.01	19683.91
493.19	19765.82
493.37	20198.82
493.54	20093.50
493.72	20540.54
493.90	20503.09
494.08	20776.94
494.25	20957.16
494.43	20779.28
494.61	20994.61
494.79	21139.72
494.96	21092.91
495.14	20978.22
495.32	21380.79
495.49	21366.75
495.67	21458.03
495.85	21666.34
496.02	21734.21
496.20	22075.93
496.38	22174.24
496.55	22022.10
496.73	22747.67
496.91	22375.52
497.09	22614.26
497.26	22710.22
497.44	22630.64
497.62	22742.99
497.79	22965.34
497.97	22960.66
498.14	23250.88
498.32	23065.98
498.50	23328.12
498.67	23386.63
498.85	23805.59
499.03	23967.09
499.20	23616.01
499.38	23536.43
499.56	23751.76
499.73	23873.46
499.91	24217.52
500.08	24313.48
500.26	24098.16
500.44	24364.98
500.61	24372.00
500.79	24297.10
500.97	24517.11
501.14	24608.39
501.32	24861.17
501.49	24655.20
501.67	24950.11
501.84	25076.50
502.02	24690.31
502.20	25362.04
502.37	25500.14
502.55	25404.17
502.72	25500.14
502.90	25509.50
503.07	25340.98
503.25	25500.14
503.43	25558.65
503.60	25750.57
503.78	25818.45
503.95	25891.01
504.13	25963.56
504.30	25905.05
504.48	26305.28
504.65	26242.09
504.83	26377.84
505.01	26429.33
505.18	26607.21
505.36	26824.88
505.53	26618.91
505.71	26902.12
505.88	26836.58
506.06	26794.45
506.23	27234.47
506.41	27058.93
506.58	27182.98
506.76	27255.54
506.93	27220.43
507.11	27660.45
507.28	27805.56
507.46	27482.57
507.63	27723.65
507.81	27702.58
507.98	27702.58
508.16	27606.62
508.33	28299.42
508.50	28039.62
508.68	27845.35
508.85	28381.34
509.03	28144.94
509.20	28514.75
509.38	28400.06
509.55	28767.52
509.73	28683.27
509.90	28774.55
510.08	28615.39
510.25	29071.79
510.42	28802.63
510.60	29008.60
510.77	29198.18
510.95	29413.51
511.12	29074.13
511.30	29507.13
511.47	29783.32
511.64	29556.28
511.82	29834.81
511.99	29467.34
512.17	29699.06
512.34	29640.54
512.51	30433.99
512.69	29919.07
512.86	30281.85
513.04	30174.19
513.21	30281.85
513.38	29879.28
513.56	30068.86
513.73	30288.87
513.90	30515.90
514.08	30525.27
514.25	30565.06
514.43	29956.52
514.60	30448.03
514.77	30422.28
514.95	31014.44
515.12	30796.77
515.29	30841.24
515.47	31445.10
515.64	31342.11
515.81	30885.71
515.99	31028.48
516.16	31627.66
516.33	31000.40
516.51	31419.35
516.68	31583.19
516.85	31175.94
517.03	31290.62
517.20	31594.89
517.37	31447.44
517.54	32175.34
517.72	31952.99
517.89	31747.03
518.06	31779.79
518.24	31915.54
518.41	31990.44
518.58	32058.32
518.75	32072.36
518.93	32727.71
519.10	32378.97
519.27	32240.88
519.45	32233.86
519.62	32610.68
519.79	32362.59
519.96	32652.81
520.14	32933.68
520.31	32884.53
520.48	33060.07
520.65	32671.54
520.83	33167.73
521.00	33249.65
521.17	33118.58
521.34	33448.60
521.52	33163.05
521.69	33263.69
521.86	33687.33
522.03	33242.63
522.20	33216.88
522.38	33872.23
522.55	33647.54
522.72	33345.61
522.89	33766.91
523.07	33834.78
523.24	33202.84
523.41	34703.12
523.58	34054.79
523.75	34417.58
523.92	34527.58
524.10	34436.30
524.27	34433.96
524.44	34536.94
524.61	34380.13
524.78	34438.64
524.96	34553.33
525.13	34457.37
525.30	35386.56
525.47	35159.53
525.64	34623.54
525.81	35321.02
525.98	34857.60
526.16	35047.18
526.33	34909.09
526.50	35487.20
526.67	35122.08
526.84	35026.12
527.01	34600.14
527.18	35519.97
527.36	35215.70
527.53	35463.80
527.70	36060.63
527.87	35847.64
528.04	35185.27
528.21	35789.13
528.38	35433.37
528.55	35784.45
528.72	35817.22
528.89	35885.09
529.07	36112.13
529.24	36051.27
529.41	36367.24
529.58	35651.04
529.75	36065.31
529.92	36013.82
530.09	36268.94
530.26	36392.99
530.43	36334.48
530.60	36439.80
530.77	36715.98
530.94	36535.76
531.11	36339.16
531.28	36741.73
531.46	36823.65
531.63	37518.79
531.80	36678.54
531.97	36629.38
532.14	36505.34
532.31	36517.04
532.48	37170.05
532.65	37420.48
532.82	37230.90
532.99	37067.06
533.16	37099.83
533.33	37504.74
533.50	37811.35
533.67	37741.14
533.84	36765.14
534.01	37532.83
534.18	37670.92
534.35	37890.93
534.52	37474.32
534.69	37624.11
534.86	37383.04
535.03	37621.77
535.20	38183.50
535.37	37776.25
535.54	38026.68
535.71	37614.75
535.88	38007.96
536.05	37839.44
536.22	38398.83
536.38	37975.19
536.55	37883.91
536.72	38270.10
536.89	38122.65
537.06	38202.22
537.23	38286.48
537.40	38384.79
537.57	38202.22
537.74	38216.27
537.91	38534.58
538.08	38553.30
538.25	38431.60
538.42	38862.26
538.59	38773.31
538.75	38225.63
538.92	38960.56
539.09	38843.53
539.26	38752.25
539.43	38951.20
539.60	38665.65
539.77	38597.77
539.94	39208.65
540.11	38775.66
540.28	39131.42
540.44	38909.07
540.61	38939.49
540.78	38726.50
540.95	39049.50
541.12	38965.24
541.29	39346.75
541.46	39669.74
541.62	39243.76
541.79	39232.06
541.96	38932.47
542.13	39538.67
542.30	39042.48
542.47	40020.82
542.63	39412.28
542.80	39831.24
542.97	40264.24
543.14	40006.78
543.31	40385.94
543.48	40046.57
543.64	40645.74
543.81	40570.85
543.98	40416.37
544.15	39952.94
544.32	40278.28
544.48	40671.49
544.65	39992.73
544.82	40175.30
544.99	40456.16
545.16	40545.10
545.32	40292.32
545.49	40739.36
545.66	40620.00
545.83	40678.51
546.00	40987.46
546.16	40844.69
546.33	40673.83
546.50	40320.41
546.67	40538.08
546.83	40318.07
547.00	40336.79
547.17	40950.01
547.34	40982.78
547.50	40582.55
547.67	41170.02
547.84	41067.04
548.00	41001.50
548.17	41034.27
548.34	41076.40
548.51	41261.30
548.67	41621.75
548.84	41493.02
549.01	41659.20
549.18	41003.85
549.34	41263.64
549.51	41216.83
549.68	41067.04
549.84	41523.44
550.01	41677.92
550.18	41275.35
550.34	41855.80
550.51	41165.34
550.68	41354.93
550.84	41165.34
551.01	41738.77
551.18	41696.64
551.34	41621.75
551.51	41743.45
551.68	41677.92
551.84	41713.03
552.01	42026.66
552.18	41893.25
552.34	41984.53
552.51	42043.04
552.68	42188.16
552.84	42010.28
553.01	41914.31
553.18	41832.39
553.34	42370.72
553.51	41897.93
553.67	41736.43
553.84	42052.41
554.01	42433.91
554.17	42487.74
554.34	42450.30
554.51	42342.63
554.67	42216.24
554.84	42153.05
555.00	42141.35
555.17	42335.61
555.33	42735.84
555.50	42342.63
555.67	42649.24
555.83	42445.62
556.00	42588.39
556.16	43002.66
556.33	42794.36
556.50	42600.09
556.66	42890.32
556.83	42195.18
556.99	42899.68
557.16	42843.51
557.32	42705.41
557.49	42740.52
557.65	42553.28
557.82	42656.26
557.98	42660.94
558.15	43229.69
558.32	42965.21
558.48	42962.87
558.65	42810.74
558.81	42588.39
558.98	43166.50
559.14	43014.37
559.31	43173.52
559.47	43349.06
559.64	43592.48
559.80	43337.36
559.97	43126.71
560.13	43161.82
560.30	43061.18
560.46	43185.22
560.63	42946.49
560.79	42967.55
560.96	43175.86
561.12	43040.11
561.29	43271.82
561.45	43044.79
561.61	43089.26
561.78	43281.19
561.94	43026.07
562.11	43398.21
562.27	43196.93
562.44	43540.99
562.60	43409.92
562.77	43119.69
562.93	43194.59
563.10	43768.02
563.26	43138.41
563.42	43459.07
563.59	43182.88
563.75	43491.83
563.92	43723.55
564.08	43400.55
564.24	43927.17
564.41	43648.65
564.57	43086.92
564.74	43952.92
564.90	43627.59
565.07	43246.08
565.23	43316.29
565.39	43381.83
565.56	43686.10
565.72	43496.52
565.88	43878.02
566.05	43442.68
566.21	43524.60
566.38	43643.97
566.54	43725.89
566.70	43824.19
566.87	43908.45
567.03	43711.84
567.19	43854.62
567.36	43793.76
567.52	43686.10
567.68	44201.02
567.85	43529.28
568.01	43779.72
568.17	43718.87
568.34	44250.17
568.50	44194.00
568.66	44009.09
568.83	44053.56
568.99	43512.90
569.15	43758.66
569.32	43618.22
569.48	43042.45
569.64	43871.00
569.81	44320.38
569.97	44130.80
570.13	43650.99
570.30	43945.90
570.46	43753.97
570.62	43475.45
570.78	43957.60
570.95	43800.79
571.11	44177.61
571.27	43768.02
571.43	43721.21
571.60	44025.48
571.76	43901.43
571.92	44121.44
572.09	43908.45
572.25	44105.06
572.41	44154.21
572.57	44521.67
572.74	44795.51
572.90	44236.12
573.06	44304.00
573.22	44252.51
573.38	43878.02
573.55	43786.74
573.71	44210.38
573.87	44112.08
574.03	43765.68
574.20	44236.12
574.36	44009.09
574.52	44065.27
574.68	43922.49
574.84	44395.28
575.01	44463.16
575.17	43667.37
575.33	43964.62
575.49	44013.77
575.65	44545.08
575.82	44542.74
575.98	44247.83
576.14	44959.35
576.30	44189.31
576.46	44191.65
576.62	43756.32
576.79	44369.54
576.95	43835.89
577.11	43632.27
577.27	43948.24
577.43	44308.68
577.59	44039.52
577.75	43957.60
577.92	43791.42
578.08	44161.23
578.24	43672.06
578.40	44219.74
578.56	44392.94
578.72	44261.87
578.88	44500.61
579.04	44011.43
579.21	44081.65
579.37	44055.90
579.53	43945.90
579.69	44318.04
579.85	43700.14
580.01	44542.74
580.17	44275.91
580.33	44636.36
580.49	44257.19
580.65	44414.01
580.82	44315.70
580.98	44301.66
581.14	44208.04
581.30	44713.59
581.46	44367.20
581.62	44203.36
581.78	44219.74
581.94	44779.13
582.10	44505.29
582.26	44566.14
582.42	44215.06
582.58	43969.30
582.74	44226.76
582.90	44257.19
583.06	44275.91
583.22	44519.33
583.38	44369.54
583.54	44175.27
583.70	44067.61
583.86	44189.31
584.02	44336.77
584.18	44367.20
584.34	44608.27
584.50	44502.95
584.66	44456.14
584.82	44163.57
584.98	44676.15
585.14	44526.35
585.30	44130.80
585.46	44390.60
585.62	44076.97
585.78	44467.84
585.94	43999.73
586.10	43955.26
586.26	44341.45
586.42	44484.22
586.58	44360.17
586.74	44123.78
586.90	44116.76
587.06	43786.74
587.22	44570.82
587.38	43969.30
587.54	44795.51
587.70	44472.52
587.86	44680.83
588.02	44706.57
588.18	44514.65
588.34	44451.45
588.49	44020.80
588.65	44128.46
588.81	43880.36
588.97	44357.83
589.13	44570.82
589.29	44767.43
589.45	44362.51
589.61	44622.31
589.77	45052.97
589.93	44591.89
590.08	44318.04
590.24	44788.49
590.40	44357.83
590.56	44320.38
590.72	44594.23
590.88	44451.45
591.04	44802.53
591.20	44524.01
591.35	44910.20
591.51	45111.49
591.67	44519.33
591.83	44814.24
591.99	44673.81
592.15	44198.68
592.31	45029.57
592.46	44638.70
592.62	44797.85
592.78	44870.41
592.94	44839.98
593.10	44486.56
593.26	44889.13
593.41	44472.52
593.57	44584.86
593.73	44680.83
593.89	44861.05
594.05	45125.53
594.20	44601.25
594.36	45045.95
594.52	44882.11
594.68	44561.46
594.84	44975.73
594.99	45006.16
595.15	44425.71
595.31	45441.50
595.47	45296.39
595.62	44949.99
595.78	44842.32
595.94	45071.70
596.10	44783.81
596.25	45235.53
596.41	45289.37
596.57	44722.96
596.73	45024.89
596.88	44666.78
597.04	44718.28
597.20	44818.92
597.36	44769.77
597.51	45254.26
597.67	44889.13
597.83	44720.62
597.99	45062.33
598.14	45043.61
598.30	44809.56
598.46	44465.50
598.61	44835.30
598.77	44388.26
598.93	44779.13
599.09	44591.89
599.24	45219.15
599.40	44898.50
599.56	45272.98
599.71	45329.16
599.87	44914.88
600.03	45106.80
600.18	45038.93
600.34	44966.37
600.50	44982.76
600.65	44669.12
600.81	44877.43
600.97	45385.33
601.12	45628.74
601.28	44975.73
601.44	44844.66
601.59	44472.52
601.75	44495.92
601.91	44779.13
602.06	44355.49
602.22	45036.59
602.37	45155.96
602.53	45118.51
602.69	44945.31
602.84	45205.11
603.00	44872.75
603.16	44769.77
603.31	44549.76
603.47	44612.95
603.62	44608.27
603.78	45244.90
603.94	44725.30
604.09	44779.13
604.25	44905.52
604.40	44711.25
604.56	44596.57
604.71	45177.02
604.87	44882.11
605.03	44783.81
605.18	44385.92
605.34	45059.99
605.49	44474.86
605.65	44872.75
605.80	44615.29
605.96	45034.25
606.12	44931.26
606.27	45043.61
606.43	44790.83
606.58	44619.97
606.74	44292.30
606.89	44868.07
607.05	44624.65
607.20	44830.62
607.36	44648.06
607.51	44868.07
607.67	44708.91
607.82	44762.75
607.98	44715.93
608.13	44528.69
608.29	44671.46
608.44	44364.85
608.60	43746.95
608.75	44194.00
608.91	44299.32
609.06	44390.60
609.22	44486.56
609.37	44484.22
609.53	44982.76
609.68	44329.75
609.84	44486.56
609.99	44416.35
610.15	44479.54
610.30	44498.26
610.46	43966.96
610.61	44264.21
610.76	44540.39
610.92	43803.13
611.07	44048.88
611.23	44495.92
611.38	44186.97
611.54	44121.44
611.69	43931.86
611.84	44126.12
612.00	44376.56
612.15	44161.23
612.31	43924.83
612.46	44051.22
612.62	44231.44
612.77	43948.24
612.92	44458.48
613.08	44032.50
613.23	44203.36
613.39	43978.67
613.54	43873.34
613.69	44076.97
613.85	43819.51
614.00	43943.56
614.15	44397.62
614.31	44039.52
614.46	44245.49
614.62	43917.81
614.77	43828.87
614.92	43833.55
615.08	43723.55
615.23	44079.31
615.38	43690.78
615.54	43753.97
615.69	43896.75
615.84	43571.41
616.00	44011.43
616.15	43665.03
616.30	43739.93
616.46	43576.09
616.61	43335.02
616.76	43227.35
616.92	43409.92
617.07	43356.08
617.22	43484.81
617.37	43040.11
617.53	43798.44
617.68	43395.87
617.83	43440.34
617.99	43875.68
618.14	43540.99
618.29	43372.47
618.45	42843.51
618.60	43175.86
618.75	43374.81
618.90	43302.25
619.06	43426.30
619.21	43363.11
619.36	43456.73
619.51	42665.63
619.67	43178.20
619.82	43044.79
619.97	43615.88
620.12	42869.25
620.28	42740.52
620.43	43271.82
620.58	42855.21
620.73	43157.14
620.89	42990.96
621.04	42663.28
621.19	43119.69
621.34	42918.40
621.49	42817.76
621.65	42604.77
621.80	43335.02
621.95	43044.79
622.10	42878.61
622.25	42146.03
622.41	42464.34
622.56	42511.15
622.71	42953.51
622.86	43166.50
623.01	42824.78
623.16	42707.76
623.32	42993.30
623.47	43047.13
623.62	42768.61
623.77	42665.63
623.92	42761.59
624.07	42377.74
624.23	42429.23
624.38	42176.45
624.53	42253.69
624.68	42639.88
624.83	42454.98
624.98	42522.85
625.13	42452.64
625.29	42473.70
625.44	42635.20
625.59	42305.18
625.74	41851.12
625.89	41984.53
626.04	41333.86
626.19	42497.11
626.34	41961.12
626.49	42162.41
626.65	41666.22
626.80	42258.37
626.95	41834.74
627.10	41876.86
627.25	41741.11
627.40	41628.77
627.55	41284.71
627.70	41525.78
627.85	41261.30
628.00	41724.73
628.15	42040.70
628.30	41659.20
628.45	42019.64
628.60	41556.21
628.76	41783.24
628.91	41944.74
629.06	41890.91
629.21	41251.94
629.36	41345.56
629.51	41228.54
629.66	41415.78
629.81	41626.43
629.96	41324.50
630.11	41383.01
630.26	41598.34
630.41	41631.11
630.56	41385.35
630.71	41345.56
630.86	41329.18
631.01	41212.15
631.16	41001.50
631.31	40720.64
631.46	40704.26
631.61	40992.14
631.76	41310.46
631.91	41158.32
632.06	41528.13
632.21	41539.83
632.36	40989.80
632.51	40741.71
632.66	40889.16
632.81	40914.90
632.96	40582.55
633.10	40463.18
633.25	40582.55
633.40	41071.72
633.55	41006.19
633.70	41387.69
633.85	40919.59
634.00	40699.58
634.15	40418.71
634.30	40741.71
634.45	40505.31
634.60	40385.94
634.75	40437.44
634.90	40294.66
635.05	40711.28
635.19	40624.68
635.34	40683.19
635.49	40591.91
635.64	40381.26
635.79	40168.27
635.94	40109.76
636.09	40472.54
636.24	40360.20
636.39	39917.84
636.53	40172.96
636.68	40037.20
636.83	40215.08
636.98	40395.31
637.13	39948.26
637.28	40545.10
637.43	40086.36
637.57	40474.88
637.72	40552.12
637.87	40203.38
638.02	40299.34
638.17	40208.06
638.32	39700.17
638.46	39885.07
638.61	39742.30
638.76	39763.36
638.91	39831.24
639.06	39667.40
639.20	40224.45
639.35	39814.85
639.50	39398.24
639.65	40025.50
639.80	39992.73
639.94	39966.99
640.09	40208.06
640.24	39213.34
640.39	39260.15
640.54	39384.19
640.68	39255.46
640.83	39255.46
640.98	39342.06
641.13	39299.94
641.27	39646.33
641.42	39782.09
641.57	39562.08
641.72	39800.81
641.86	39218.02
642.01	39281.21
642.16	39129.08
642.31	39253.12
642.45	39285.89
642.60	39353.77
642.75	38724.16
642.90	39126.74
643.04	39468.45
643.19	39213.34
643.34	39274.19
643.48	38911.41
643.63	39063.54
643.78	39164.18
643.93	38906.73
644.07	38773.31
644.22	39152.48
644.37	39023.75
644.51	38639.90
644.66	39044.82
644.81	38656.29
644.95	39246.10
645.10	38314.57
645.25	39182.91
645.39	39274.19
645.54	39012.05
645.69	38572.03
645.83	38525.22
645.98	39161.84
646.13	38913.75
646.27	39068.22
646.42	38349.68
646.57	38337.98
646.71	38880.98
646.86	38314.57
647.00	38611.82
647.15	38838.85
647.30	38794.38
647.44	38541.60
647.59	38710.12
647.74	38607.14
647.88	38316.91
648.03	38653.95
648.17	38286.48
648.32	37900.29
648.47	38218.61
648.61	38480.75
648.76	38525.22
648.90	38305.21
649.05	38761.61
649.20	38590.75
649.34	38288.82
649.49	37937.74
649.63	37699.01
649.78	38218.61
649.92	38178.82
650.07	38263.08
650.21	37851.14
650.36	38265.42
650.51	37883.91
650.65	38717.14
650.80	38309.89
650.94	38117.96
651.09	38181.16
651.23	37862.85
651.38	37680.28
651.52	37881.57
651.67	38031.36
651.81	37731.78
651.96	37305.80
652.10	37748.16
652.25	37373.67
652.39	37912.00
652.54	37755.18
652.68	38101.58
652.83	37848.80
652.97	37635.81
653.12	37801.99
653.26	37570.28
653.41	37691.99
653.55	37624.11
653.70	37270.69
653.84	37294.10
653.99	37511.77
654.13	37270.69
654.27	37057.70
654.42	37645.18
654.56	37233.24
654.71	37357.29
654.85	37368.99
655.00	37137.28
655.14	37031.96
655.29	36730.03
655.43	37083.45
655.57	36746.41
655.72	36727.69
655.86	36582.57
656.01	37141.96
656.15	36856.42
656.30	37017.91
656.44	37104.51
656.58	37024.93
656.73	36549.81
656.87	36545.12
657.01	36589.59
657.16	37062.38
657.30	36088.72
657.45	36439.80
657.59	36809.61
657.73	36449.16
657.88	36985.15
658.02	36538.10
658.16	36648.11
658.31	36435.12
658.45	36580.23
658.60	36524.06
658.74	36797.90
658.88	36802.58
659.03	36119.15
659.17	36432.78
659.31	36102.76
659.46	35978.72
659.60	36163.62
659.74	35943.61
659.89	35857.01
660.03	35768.07
660.17	36062.97
660.32	36123.83
660.46	36659.81
660.60	36224.47
660.74	35985.74
660.89	36378.95
661.03	35473.16
661.17	35737.64
661.32	35475.50
661.46	35658.06
661.60	35519.97
661.74	35639.34
661.89	35728.28
662.03	36002.12
662.17	35395.92
662.31	35407.62
662.46	35414.65
662.60	35641.68
662.74	35700.19
662.88	35089.31
663.03	35276.55
663.17	35318.68
663.31	35082.29
663.45	35269.53
663.60	35136.12
663.74	34888.03
663.88	34522.90
664.02	34817.81
664.17	35000.37
664.31	34824.83
664.45	34492.47
664.59	34815.47
664.73	34827.17
664.88	34576.73
665.02	34242.04
665.16	34705.46
665.30	34953.56
665.44	34263.10
665.59	34244.38
665.73	34218.63
665.87	33832.44
666.01	34209.27
666.15	34153.10
666.29	34235.02
666.44	34103.95
666.58	34242.04
666.72	33996.28
666.86	34213.95
667.00	33989.26
667.14	33900.32
667.28	33673.29
667.43	33235.61
667.57	33504.77
667.71	33802.02
667.85	33415.83
667.99	33546.90
668.13	33237.95
668.27	33652.22
668.41	33254.33
668.56	33125.60
668.70	33387.74
668.84	33099.86
668.98	32980.49
669.12	32893.89
669.26	33067.09
669.40	32762.82
669.54	33069.43
669.68	32680.90
669.82	32512.38
669.96	32486.64
670.10	32589.62
670.25	32779.20
670.39	32795.59
670.53	32355.57
670.67	32636.43
670.81	32229.18
670.95	32456.21
671.09	32378.97
671.23	32514.72
671.37	32177.68
671.51	32442.17
671.65	32402.38
671.79	31854.69
671.93	31850.01
672.07	31873.42
672.21	32018.53
672.35	31793.84
672.49	31349.14
672.63	31936.61
672.77	31758.73
672.91	31353.82
673.05	31545.74
673.19	31573.83
673.33	31735.32
673.47	31075.29
673.61	31042.53
673.75	30586.12
673.89	31070.61
674.03	30792.09
674.17	31110.40
674.31	30871.67
674.45	31197.00
674.59	30696.13
674.73	31044.87
674.87	30731.23
675.01	30731.23
675.15	30665.70
675.29	30845.92
675.43	30050.14
675.56	30443.35
675.70	30223.34
675.84	30319.30
675.98	29195.84
676.12	29881.62
676.26	29961.20
676.40	29759.91
676.54	29895.66
676.68	29783.32
676.82	29252.02
676.96	29675.65
677.10	29263.72
677.23	29244.99
677.37	29137.33
677.51	29237.97
677.65	29074.13
677.79	29078.82
677.93	28973.49
678.07	28662.20
678.21	28758.16
678.34	28917.32
678.48	28388.36
678.62	28802.63
678.76	28449.21
678.90	28250.27
679.04	28397.72
679.18	28128.56
679.31	27768.12
679.45	27651.09
679.59	27592.58
679.73	27674.49
679.87	27770.46
680.00	27718.96
680.14	27716.62
680.28	27594.92
680.42	27379.59
680.56	27779.82
680.70	27197.02
680.83	27000.42
680.97	26874.03
681.11	26831.90
681.25	26661.04
681.39	26562.74
681.52	26808.50
681.66	26831.90
681.80	26527.63
681.94	26396.56
682.07	26316.98
682.21	26305.28
682.35	26059.52
682.49	26387.20
682.62	26373.16
682.76	26125.06
682.90	25916.75
683.04	25680.36
683.17	26040.80
683.31	25523.54
683.45	25626.53
683.59	25771.64
683.72	25577.37
683.86	25123.31
684.00	25010.96
684.13	25420.56
684.27	24837.76
684.41	25113.95
684.55	24833.08
684.68	24800.32
684.82	24519.45
684.96	24489.03
685.09	24587.33
685.23	24266.67
685.37	24276.04
685.50	24151.99
685.64	24535.84
685.78	24348.59
685.91	23941.34
686.05	24151.99
686.19	23709.63
686.32	23789.20
686.46	23726.01
686.60	23414.72
686.73	23239.18
686.87	23388.97
687.01	23054.28
687.14	23147.90
687.28	23012.15
687.42	22862.35
687.55	22881.08
687.69	22871.72
687.82	23047.26
687.96	22860.01
688.10	22628.30
688.23	22691.49
688.37	22394.25
688.50	22396.59
688.64	22122.74
688.78	22293.60
688.91	21748.26
689.05	21708.47
689.18	21778.68
689.32	21685.06
689.46	21745.92
689.59	22192.96
689.73	21736.56
689.86	21958.91
690.00	21488.46
690.13	21673.36
690.27	21397.18
690.41	21495.48
690.54	21153.76
690.68	21341.00
690.81	20957.16
690.95	21020.35
691.08	20964.18
691.22	20980.56
691.35	20669.27
691.49	21025.03
691.62	20493.73
691.76	20730.12
691.89	20821.41
692.03	20250.32
692.16	20156.69
692.30	20112.22
692.43	20336.91
692.57	20079.46
692.70	20051.37
692.84	19901.58
692.97	19796.25
693.11	19597.31
693.24	19627.73
693.38	19601.99
693.51	19447.51
693.65	19489.64
693.78	19597.31
693.92	19356.23
694.05	19187.71
694.19	18986.43
694.32	18836.63
694.45	19253.25
694.59	18815.57
694.72	18815.57
694.86	18565.13
694.99	18368.52
695.13	18312.35
695.26	18246.82
695.39	18263.20
695.53	18609.60
695.66	18780.46
695.80	18064.25
695.93	17914.46
696.07	18176.60
696.20	17989.36
696.33	17965.95
696.47	18036.17
696.60	17563.38
696.73	17596.15
696.87	17619.55
697.00	17600.83
697.14	17633.60
697.27	17472.10
697.40	17497.84
697.54	17060.16
697.67	17160.81
697.80	17109.32
697.94	16835.47
698.07	16879.94
698.21	17034.42
698.34	16905.69
698.47	16802.71
698.61	16484.39
698.74	16470.35
698.87	16540.57
699.01	16432.90
699.14	16154.38
699.27	16348.64
699.40	16170.76
699.54	16327.58
699.67	15854.79
699.80	15927.35
699.94	16009.26
700.07	15936.71
700.20	15700.31
700.34	15660.52
700.47	15819.68
700.60	15819.68
700.73	15868.83
700.87	15578.61
701.00	15524.77
701.13	15536.48
701.26	15625.42
701.40	15431.15
701.53	15075.39
701.66	15330.51
701.79	14836.66
701.93	14827.29
702.06	14871.76
702.19	14759.42
702.32	14560.47
702.46	14527.71
702.59	14693.88
702.72	14810.91
702.85	14506.64
702.99	14703.25
703.12	14670.48
703.25	14551.11
703.38	14326.42
703.51	14373.23
703.65	14209.39
703.78	14090.02
703.91	14015.13
704.04	13928.53
704.17	14059.60
704.31	13701.50
704.44	13652.34
704.57	13628.94
704.70	13547.02
704.83	13565.74
704.96	13474.46
705.10	13745.97
705.23	13682.77
>>>>>End Processed Spectral Data<<<<<
