SpectraSuite Data File
++++++++++++++++++++++++++++++++++++
Date: Fri Oct 25 11:34:15 EDT 2013
User: price-jones
Dark Spectrum Present: No
Reference Spectrum Present: No
Number of Sampled Component Spectra: 1
Spectrometers: USB2+H05261
Integration Time (usec): 100000 (USB2+H05261)
Spectra Averaged: 1 (USB2+H05261)
Boxcar Smoothing: 0 (USB2+H05261)
Correct for Electrical Dark: No (USB2+H05261)
Strobe/Lamp Enabled: No (USB2+H05261)
Correct for Detector Non-linearity: No (USB2+H05261)
Correct for Stray Light: No (USB2+H05261)
Number of Pixels in Processed Spectrum: 2048
>>>>>Begin Processed Spectral Data<<<<<
365.73	325.33
365.92	325.33
366.12	325.33
366.32	198.95
366.52	184.90
366.72	189.58
366.91	149.79
367.11	208.31
367.31	149.79
367.51	205.97
367.70	124.05
367.90	170.86
368.10	145.11
368.30	191.92
368.49	117.03
368.69	187.24
368.89	231.71
369.09	173.20
369.28	154.48
369.48	243.42
369.68	252.78
369.87	290.23
370.07	203.63
370.27	308.95
370.47	320.65
370.66	440.02
370.86	524.28
371.06	540.66
371.25	580.45
371.45	566.41
371.65	554.71
371.84	554.71
372.04	535.98
372.24	543.00
372.44	557.05
372.63	608.54
372.83	676.41
373.03	566.41
373.22	571.09
373.42	603.86
373.62	603.86
373.81	601.52
374.01	653.01
374.21	676.41
374.40	580.45
374.60	650.67
374.79	592.16
374.99	638.97
375.19	692.80
375.38	638.97
375.58	634.29
375.78	671.73
375.97	662.37
376.17	692.80
376.37	657.69
376.56	634.29
376.76	645.99
376.95	758.33
377.15	638.97
377.35	685.78
377.54	690.46
377.74	690.46
377.93	624.92
378.13	739.61
378.33	678.76
378.52	634.29
378.72	667.05
378.91	732.59
379.11	678.76
379.31	739.61
379.50	758.33
379.70	767.70
379.89	812.17
380.09	702.16
380.28	702.16
380.48	753.65
380.68	739.61
380.87	669.39
381.07	730.25
381.26	716.20
381.46	704.50
381.65	772.38
381.85	746.63
382.04	704.50
382.24	755.99
382.43	702.16
382.63	793.44
382.83	816.85
383.02	786.42
383.22	755.99
383.41	781.74
383.61	763.01
383.80	819.19
384.00	739.61
384.19	774.72
384.39	777.06
384.58	833.23
384.78	840.25
384.97	800.46
385.17	812.17
385.36	809.83
385.56	842.59
385.75	863.66
385.95	898.77
386.14	866.00
386.34	891.74
386.53	880.04
386.72	891.74
386.92	854.30
387.11	882.38
387.31	858.98
387.50	812.17
387.70	858.98
387.89	917.49
388.09	854.30
388.28	945.58
388.48	856.64
388.67	931.53
388.86	821.53
389.06	917.49
389.25	947.92
389.45	947.92
389.64	908.13
389.84	933.87
390.03	952.60
390.22	950.26
390.42	793.44
390.61	912.81
390.81	1067.28
391.00	987.71
391.19	950.26
391.39	978.34
391.58	1001.75
391.78	1050.90
391.97	1090.69
392.16	1041.54
392.36	1062.60
392.55	1055.58
392.75	1027.50
392.94	1013.45
393.13	1013.45
393.33	1064.94
393.52	1071.97
393.71	1018.13
393.91	1093.03
394.10	1055.58
394.29	1027.50
394.49	1104.73
394.68	1083.67
394.88	1090.69
395.07	1116.44
395.26	1181.97
395.46	1104.73
395.65	1254.53
395.84	1184.31
396.04	1177.29
396.23	1107.07
396.42	1069.62
396.62	1111.75
396.81	1186.65
397.00	1235.80
397.19	1181.97
397.39	1149.20
397.58	1158.57
397.77	1273.25
397.97	1252.19
398.16	1207.72
398.35	1266.23
398.55	1270.91
398.74	1376.24
398.93	1301.34
399.12	1322.40
399.32	1343.47
399.51	1181.97
399.70	1338.79
399.90	1308.36
400.09	1261.55
400.28	1329.42
400.47	1404.32
400.67	1394.96
400.86	1416.02
401.05	1432.41
401.24	1465.18
401.44	1446.45
401.63	1493.26
401.82	1437.09
402.01	1348.15
402.21	1439.43
402.40	1479.22
402.59	1413.68
402.78	1462.83
402.97	1582.20
403.17	1451.13
403.36	1500.28
403.55	1465.18
403.74	1547.09
403.93	1441.77
404.13	1577.52
404.32	1533.05
404.51	1544.75
404.70	1631.35
404.89	1624.33
405.09	1710.93
405.28	1631.35
405.47	1654.76
405.66	1621.99
405.85	1664.12
406.05	1750.72
406.24	1650.08
406.43	1701.57
406.62	1804.55
406.81	1785.83
407.00	1715.61
407.20	1734.34
407.39	1764.76
407.58	1769.44
407.77	1867.75
407.96	1898.17
408.15	1774.13
408.34	1792.85
408.54	1776.47
408.73	1813.92
408.92	1891.15
409.11	1870.09
409.30	1907.54
409.49	1900.52
409.68	1977.75
409.87	1973.07
410.07	1947.33
410.26	2029.24
410.45	1973.07
410.64	2141.59
410.83	2092.44
411.02	2036.27
411.21	2101.80
411.40	2057.33
411.59	2136.91
411.78	2136.91
411.98	2106.48
412.17	2202.44
412.36	2162.66
412.55	2335.85
412.74	2246.91
412.93	2279.68
413.12	2263.30
413.31	2326.49
413.50	2289.04
413.69	2408.41
413.88	2441.18
414.07	2267.98
414.26	2466.92
414.45	2513.74
414.64	2504.37
414.83	2483.31
415.02	2565.23
415.22	2555.86
415.41	2588.63
415.60	2682.25
415.79	2562.89
415.98	2670.55
416.17	2586.29
416.36	2609.70
416.55	2656.51
416.74	2715.02
416.93	2712.68
417.12	2913.97
417.31	2923.33
417.50	2803.96
417.69	2813.32
417.88	2850.77
418.07	2782.90
418.26	2876.52
418.45	2939.71
418.64	3030.99
418.83	3035.67
419.02	3056.74
419.21	3045.04
419.39	3063.76
419.58	3014.61
419.77	2956.10
419.96	2981.84
420.15	3112.91
420.34	3115.25
420.53	2986.52
420.72	3180.79
420.91	3316.54
421.10	3131.64
421.29	3211.22
421.48	3101.21
421.67	3323.56
421.86	3281.43
422.05	3218.24
422.24	3218.24
422.43	3283.77
422.61	3321.22
422.80	3246.32
422.99	3239.30
423.18	3232.28
423.37	3349.31
423.56	3155.04
423.75	3300.16
423.94	3251.00
424.13	3157.38
424.32	3136.32
424.50	3353.99
424.69	3456.97
424.88	3435.91
425.07	3272.07
425.26	3293.13
425.45	3314.20
425.64	3290.79
425.83	3337.60
426.01	3286.11
426.20	3414.84
426.39	3363.35
426.58	3346.97
426.77	3454.63
426.96	3461.65
427.15	3358.67
427.33	3482.72
427.52	3412.50
427.71	3520.17
427.90	3566.98
428.09	3634.85
428.28	3456.97
428.46	3482.72
428.65	3625.49
428.84	3679.32
429.03	3644.21
429.22	3555.27
429.40	3611.45
429.59	3651.24
429.78	3538.89
429.97	3503.78
430.16	3653.58
430.34	3768.26
430.53	3756.56
430.72	3740.18
430.91	3726.13
431.10	3618.47
431.28	3817.41
431.47	3836.14
431.66	3920.40
431.85	3878.27
432.03	3974.23
432.22	3866.56
432.41	3976.57
432.60	4018.70
432.79	3925.08
432.97	4070.19
433.16	4037.42
433.35	4011.68
433.54	4035.08
433.72	4021.04
433.91	4138.07
434.10	4109.98
434.28	4065.51
434.47	4039.76
434.66	4049.13
434.85	4070.19
435.03	4276.16
435.22	4161.47
435.41	4465.74
435.59	4306.59
435.78	4234.03
435.97	4177.86
436.16	4339.35
436.34	4278.50
436.53	4166.15
436.72	4404.89
436.90	4273.82
437.09	4348.72
437.28	4423.61
437.46	4374.46
437.65	4327.65
437.84	4585.11
438.02	4444.68
438.21	4575.75
438.40	4358.08
438.58	4521.92
438.77	4655.33
438.96	4669.37
439.14	4812.14
439.33	4746.61
439.52	4760.65
439.70	4840.23
439.89	4875.34
440.08	4760.65
440.26	4805.12
440.45	4933.85
440.63	4865.97
440.82	4973.64
441.01	5074.28
441.19	5078.96
441.38	5102.37
441.57	5135.14
441.75	5158.54
441.94	5261.52
442.12	5137.48
442.31	5270.89
442.50	5231.10
442.68	5247.48
442.87	5266.21
443.05	5313.02
443.24	5420.68
443.43	5448.77
443.61	5259.18
443.80	5497.92
443.98	5261.52
444.17	5219.39
444.35	5357.49
444.54	5526.00
444.73	5371.53
444.91	5488.56
445.10	5390.25
445.28	5418.34
445.47	5497.92
445.65	5575.16
445.84	5561.11
446.02	5528.35
446.21	5453.45
446.39	5544.73
446.58	5621.97
446.77	5472.17
446.95	5392.59
447.14	5521.32
447.32	5687.50
447.51	5572.82
447.69	5547.07
447.88	5654.73
448.06	5593.88
448.25	5518.98
448.43	5631.33
448.62	5710.91
448.80	5685.16
448.99	5638.35
449.17	5631.33
449.36	5823.25
449.54	5736.65
449.73	5790.49
449.91	5895.81
450.10	5895.81
450.28	5996.45
450.46	5867.72
450.65	5963.68
450.83	5884.11
451.02	5912.19
451.20	6141.57
451.39	5954.32
451.57	6040.92
451.76	5984.75
451.94	6038.58
452.13	6127.52
452.31	6101.78
452.49	5977.73
452.68	6071.35
452.86	6169.65
453.05	6235.19
453.23	6249.23
453.42	6296.04
453.60	6235.19
453.78	6298.38
453.97	6094.76
454.15	6150.93
454.34	6111.14
454.52	6328.81
454.70	6293.70
454.89	6223.48
455.07	6356.90
455.26	6600.31
455.44	6478.60
455.62	6562.86
455.81	6478.60
455.99	6644.78
456.17	6516.05
456.36	6392.00
456.54	6736.06
456.73	6562.86
456.91	6789.89
457.09	6698.61
457.28	6927.99
457.46	6764.15
457.64	6942.03
457.83	6759.47
458.01	6644.78
458.19	7119.91
458.38	6911.60
458.56	6834.36
458.74	6871.81
458.93	6864.79
459.11	7084.80
459.29	7077.78
459.48	7063.74
459.66	6869.47
459.84	7157.36
460.03	7349.28
460.21	7302.47
460.39	7337.58
460.57	7152.68
460.76	7119.91
460.94	7197.15
461.12	7208.85
461.31	7288.43
461.49	7234.60
461.67	7227.57
461.85	7330.56
462.04	7517.80
462.22	7859.52
462.40	7784.62
462.59	7431.20
462.77	7510.78
462.95	7517.80
463.13	7473.33
463.32	7576.31
463.50	7618.44
463.68	7756.54
463.86	7688.66
464.05	7630.15
464.23	7674.62
464.41	7646.53
464.59	7508.44
464.78	7850.16
464.96	7751.85
465.14	7737.81
465.32	7770.58
465.50	7885.26
465.69	7740.15
465.87	7768.24
466.05	7925.05
466.23	7808.03
466.41	7964.84
466.60	7922.71
466.78	7962.50
466.96	7913.35
467.14	7964.84
467.32	7997.61
467.51	8131.02
467.69	7775.26
467.87	8154.43
468.05	8147.40
468.23	8102.93
468.41	8028.04
468.60	8250.39
468.78	8159.11
468.96	8226.98
469.14	8285.50
469.32	8404.86
469.50	8159.11
469.69	8573.38
469.87	8390.82
470.05	8374.44
470.23	8531.25
470.41	8465.72
470.59	8613.17
470.77	8587.43
470.95	8624.87
471.14	8830.84
471.32	8533.59
471.50	8561.68
471.68	8706.79
471.86	8791.05
472.04	8872.97
472.22	8744.24
472.40	8819.14
472.58	8936.17
472.77	8894.04
472.95	9132.77
473.13	9366.82
473.31	9039.15
473.49	9102.34
473.67	9156.18
473.85	9413.63
474.03	9413.63
474.21	9362.14
474.39	9418.32
474.57	9425.34
474.75	9570.45
474.93	9593.86
475.12	9717.90
475.30	9764.72
475.48	9465.13
475.66	9867.70
475.84	9832.59
476.02	9884.08
476.20	9795.14
476.38	10052.60
476.56	10310.06
476.74	10225.80
476.92	10164.95
477.10	10092.39
477.28	10455.17
477.46	10321.76
477.64	10406.02
477.82	10438.79
478.00	10860.09
478.18	10696.25
478.36	10888.17
478.54	11124.57
478.72	11061.37
478.90	11047.33
479.08	11358.62
479.26	11290.74
479.44	11379.68
479.62	11309.47
479.80	11665.23
479.98	11665.23
480.16	11997.59
480.34	11763.53
480.52	11946.09
480.70	12046.74
480.88	11796.30
481.06	11950.78
481.24	12208.23
481.41	12159.08
481.59	12411.86
481.77	12500.80
481.95	12360.37
482.13	12573.36
482.31	12486.76
482.49	12924.44
482.67	12924.44
482.85	13158.49
483.03	12896.35
483.21	12933.80
483.39	13170.19
483.57	13188.92
483.74	13444.04
483.92	13593.83
484.10	13425.31
484.28	13525.96
484.46	14073.64
484.64	14281.95
484.82	14040.87
485.00	14141.52
485.18	14235.14
485.35	14707.93
485.53	14501.96
485.71	14808.57
485.89	15147.95
486.07	15091.77
486.25	14991.13
486.43	14986.45
486.61	15204.12
486.78	15243.91
486.96	15309.44
487.14	15417.11
487.32	15651.16
487.50	15688.61
487.68	16032.67
487.85	16020.97
488.03	16252.68
488.21	16170.76
488.39	16109.91
488.57	16367.37
488.75	16669.30
488.92	16870.58
489.10	17069.53
489.28	17273.15
489.46	17027.40
489.64	17294.22
489.81	17603.17
489.99	17280.18
490.17	17664.02
490.35	17708.49
490.53	17869.99
490.70	17802.11
490.88	17977.65
491.06	18410.65
491.24	18581.51
491.41	18314.69
491.59	18640.03
491.77	18398.95
491.95	18740.67
492.13	18787.48
492.30	19119.84
492.48	19264.95
492.66	19154.94
492.84	19056.64
493.01	19391.34
493.19	19288.35
493.37	19709.65
493.54	19672.20
493.72	20081.80
493.90	19784.55
494.08	19985.83
494.25	20350.96
494.43	20339.26
494.61	20556.93
494.79	20769.91
494.96	20432.88
495.14	20613.10
495.32	21018.01
495.49	20891.62
495.67	21142.06
495.85	21013.33
496.02	21273.13
496.20	21425.26
496.38	21818.47
496.55	21933.16
496.73	22078.27
496.91	21867.63
497.09	22036.14
497.26	21949.54
497.44	21954.22
497.62	22780.43
497.79	22565.10
497.97	22801.50
498.14	22611.92
498.32	22857.67
498.50	22888.10
498.67	23307.05
498.85	23075.34
499.03	23372.59
499.20	23302.37
499.38	23417.06
499.56	23396.00
499.73	23522.38
499.91	23730.69
500.08	24058.37
500.26	23967.09
500.44	23999.85
500.61	23826.65
500.79	23796.23
500.97	24353.27
501.14	24259.65
501.32	24060.71
501.49	23971.77
501.67	24634.14
501.84	24788.61
502.02	24856.49
502.20	24795.64
502.37	24872.87
502.55	24938.41
502.72	25039.05
502.90	25453.33
503.07	24809.68
503.25	25277.79
503.43	25179.48
503.60	25387.79
503.78	25427.58
503.95	25497.80
504.13	25769.30
504.30	25996.33
504.48	25750.57
504.65	25640.57
504.83	26366.13
505.01	25984.63
505.18	26384.86
505.36	26036.12
505.53	26092.29
505.71	26735.94
505.88	26384.86
506.06	26558.06
506.23	26724.24
506.41	26682.11
506.58	26665.72
506.76	27068.30
506.93	27311.71
507.11	27452.14
507.28	27068.30
507.46	27508.32
507.63	27271.92
507.81	27796.20
507.98	27150.21
508.16	27337.46
508.33	27660.45
508.50	27725.99
508.68	27889.82
508.85	27885.14
509.03	27775.14
509.20	27742.37
509.38	28273.67
509.55	28259.63
509.73	28355.59
509.90	28297.08
510.08	28425.81
510.25	28346.23
510.42	28828.38
510.60	28659.86
510.77	28964.13
510.95	29064.77
511.12	28783.91
511.30	28603.69
511.47	28950.09
511.64	29188.82
511.82	29586.71
511.99	29350.32
512.17	29226.27
512.34	29202.86
512.51	29935.45
512.69	29755.23
512.86	29766.93
513.04	30059.50
513.21	30085.25
513.38	29961.20
513.56	29762.25
513.73	29858.21
513.90	29820.77
514.08	30136.74
514.25	30532.29
514.43	30410.58
514.60	30361.43
514.77	30295.89
514.95	31096.36
515.12	30611.87
515.29	30726.55
515.47	30888.05
515.64	30958.27
515.81	31105.72
515.99	31356.16
516.16	31477.86
516.33	31089.34
516.51	31372.54
516.68	30946.56
516.85	31318.71
517.03	31627.66
517.20	31761.07
517.37	31473.18
517.54	31805.54
517.72	32037.25
517.89	31927.25
518.06	32332.16
518.24	31962.36
518.41	31798.52
518.58	31814.90
518.75	31969.38
518.93	32273.65
519.10	32332.16
519.27	32283.01
519.45	32584.94
519.62	32348.54
519.79	32474.93
519.96	32884.53
520.14	32521.74
520.31	32500.68
520.48	32652.81
520.65	32683.24
520.83	33521.15
521.00	33097.52
521.17	32917.29
521.34	33467.32
521.52	33411.15
521.69	33446.26
521.86	33603.07
522.03	33902.66
522.20	33832.44
522.38	34057.14
522.55	33902.66
522.72	33862.87
522.89	33603.07
523.07	34019.69
523.24	34127.35
523.41	34305.23
523.58	33879.25
523.75	34211.61
523.92	34022.03
524.10	34625.89
524.27	34469.07
524.44	34478.43
524.61	34384.81
524.78	34525.24
524.96	34522.90
525.13	34567.37
525.30	35196.98
525.47	34834.19
525.64	35101.01
525.81	34869.30
525.98	34827.17
526.16	35424.01
526.33	35377.20
526.50	35321.02
526.67	35089.31
526.84	35763.39
527.01	35571.46
527.18	34974.63
527.36	35440.39
527.53	35915.52
527.70	36098.08
527.87	35831.26
528.04	36025.53
528.21	35817.22
528.38	35945.95
528.55	35969.35
528.72	36018.50
528.89	36285.33
529.07	36086.38
529.24	35826.58
529.41	36013.82
529.58	36261.92
529.75	36275.96
529.92	36484.27
530.09	36655.13
530.26	36105.10
530.43	36643.43
530.60	36486.61
530.77	36423.42
530.94	36392.99
531.11	36404.69
531.28	36568.53
531.46	37031.96
531.63	37378.36
531.80	36978.12
531.97	36861.10
532.14	37111.53
532.31	37242.60
532.48	37216.86
532.65	37361.97
532.82	37263.67
532.99	37078.77
533.16	37200.47
533.33	37453.25
533.50	37340.91
533.67	37497.72
533.84	37296.44
534.01	37626.45
534.18	37724.75
534.35	38211.59
534.52	37783.27
534.69	37785.61
534.86	38117.96
535.03	37993.92
535.20	37841.78
535.37	38068.81
535.54	38127.33
535.71	37734.12
535.88	37914.34
536.05	38185.84
536.22	38644.59
536.38	38337.98
536.55	38424.57
536.72	38316.91
536.89	38286.48
537.06	38410.53
537.23	38445.64
537.40	38335.63
537.57	38609.48
537.74	38618.84
537.91	39042.48
538.08	38618.84
538.25	38672.67
538.42	38679.69
538.59	39220.36
538.75	38705.44
538.92	39047.16
539.09	39236.74
539.26	39154.82
539.43	39316.32
539.60	39253.12
539.77	39096.31
539.94	39454.41
540.11	39606.55
540.28	39438.03
540.44	39629.95
540.61	39548.03
540.78	39559.73
540.95	39316.32
541.12	39456.75
541.29	39353.77
541.46	39309.30
541.62	39599.52
541.79	40107.42
541.96	39744.64
542.13	39966.99
542.30	40046.57
542.47	39880.39
542.63	40175.30
542.80	40046.57
542.97	40315.73
543.14	40418.71
543.31	40032.52
543.48	40374.24
543.64	40552.12
543.81	40570.85
543.98	40538.08
544.15	40659.79
544.32	40898.52
544.48	40795.54
544.65	40912.56
544.82	40957.03
544.99	40507.65
545.16	40636.38
545.32	40889.16
545.49	41450.89
545.66	41406.42
545.83	40858.73
546.00	41645.15
546.16	41120.87
546.33	40708.94
546.50	40886.82
546.67	41186.41
546.83	41057.68
547.00	40999.16
547.17	40950.01
547.34	41460.25
547.50	41720.05
547.67	41914.31
547.84	41095.13
548.00	41223.86
548.17	41717.71
548.34	41923.68
548.51	41598.34
548.67	42087.51
548.84	41965.81
549.01	41621.75
549.18	41666.22
549.34	42000.91
549.51	42122.62
549.68	42054.75
549.84	42312.20
550.01	42066.45
550.18	42230.29
550.34	42174.11
550.51	42375.40
550.68	42639.88
550.84	42443.27
551.01	42543.92
551.18	42419.87
551.34	42480.72
551.51	42033.68
551.68	42113.26
551.84	42454.98
552.01	42593.07
552.18	42366.04
552.34	42630.52
552.51	42944.15
552.68	42817.76
552.84	42806.06
553.01	42993.30
553.18	42674.99
553.34	42829.46
553.51	42403.49
553.67	43061.18
553.84	43192.25
554.01	42899.68
554.17	43119.69
554.34	43374.81
554.51	43203.95
554.67	43248.42
554.84	43613.54
555.00	43152.46
555.17	43154.80
555.33	43192.25
555.50	43288.21
555.67	43086.92
555.83	42953.51
556.00	43210.97
556.16	44018.46
556.33	43583.12
556.50	43288.21
556.66	43473.11
556.83	43175.86
556.99	44196.34
557.16	43746.95
557.32	43306.93
557.49	43889.73
557.65	43576.09
557.82	43817.17
557.98	43943.56
558.15	43456.73
558.32	43550.35
558.48	43302.25
558.65	43695.46
558.81	43852.28
558.98	43803.13
559.14	43821.85
559.31	44002.07
559.47	44041.86
559.64	44048.88
559.80	43854.62
559.97	43999.73
560.13	43676.74
560.30	44044.20
560.46	44397.62
560.63	43978.67
560.79	44076.97
560.96	44444.43
561.12	43976.33
561.29	43969.30
561.45	44189.31
561.61	44332.09
561.78	43971.64
561.94	44027.82
562.11	44086.33
562.27	44212.72
562.44	44556.78
562.60	44289.96
562.77	44287.62
562.93	44212.72
563.10	44781.47
563.26	43931.86
563.42	44678.49
563.59	43819.51
563.75	44350.81
563.92	44432.73
564.08	44322.72
564.24	45088.08
564.41	44863.39
564.57	44465.50
564.74	44856.37
564.90	44392.94
565.07	44502.95
565.23	44528.69
565.39	44491.24
565.56	44659.76
565.72	44453.79
565.88	44210.38
566.05	44711.25
566.21	44603.59
566.38	45010.84
566.54	44942.97
566.70	44657.42
566.87	44900.84
567.03	44802.53
567.19	45111.49
567.36	45057.65
567.52	45010.84
567.68	45230.85
567.85	45074.04
568.01	44924.24
568.17	45291.71
568.34	45099.78
568.50	45144.25
568.66	44966.37
568.83	45553.85
568.99	45050.63
569.15	45050.63
569.32	45244.90
569.48	45050.63
569.64	45125.53
569.81	45490.65
569.97	45123.19
570.13	45560.87
570.30	45074.04
570.46	45284.68
570.62	45598.32
570.78	45354.90
570.95	45474.27
571.11	45474.27
571.27	44788.49
571.43	45146.59
571.60	45221.49
571.76	45258.94
571.92	45127.87
572.09	45090.42
572.25	45186.38
572.41	44940.63
572.57	45298.73
572.74	45766.84
572.90	45233.19
573.06	45572.57
573.22	45118.51
573.38	45839.39
573.55	45476.61
573.71	46164.73
573.87	45139.57
574.03	45338.52
574.20	45860.46
574.36	45595.98
574.52	45474.27
574.68	45565.55
574.84	45820.67
575.01	45727.05
575.17	45507.04
575.33	45294.05
575.49	45488.31
575.65	45502.35
575.82	45909.61
575.98	45261.28
576.14	45769.18
576.30	46295.80
576.46	45439.16
576.62	45378.31
576.79	45680.24
576.95	45170.00
577.11	45535.12
577.27	45146.59
577.43	45846.41
577.59	45713.00
577.75	45301.07
577.92	45280.00
578.08	45954.08
578.24	45579.59
578.40	45846.41
578.56	45963.44
578.72	45928.33
578.88	45956.42
579.04	45755.13
579.21	45727.05
579.37	46120.26
579.53	45703.64
579.69	45111.49
579.85	45666.19
580.01	45907.27
580.17	45673.21
580.33	45958.76
580.49	45366.60
580.65	45776.20
580.82	45642.79
580.98	45834.71
581.14	45352.56
581.30	45738.75
581.46	45918.97
581.62	45745.77
581.78	45778.54
581.94	46115.58
582.10	45619.38
582.26	45958.76
582.42	45815.99
582.58	45993.87
582.74	45773.86
582.90	45661.51
583.06	45970.46
583.22	45205.11
583.38	45544.48
583.54	45834.71
583.70	46115.58
583.86	45968.12
584.02	45736.41
584.18	46171.75
584.34	46033.66
584.50	46354.31
584.66	45977.48
584.82	45956.42
584.98	46251.33
585.14	46300.48
585.30	46190.47
585.46	45944.72
585.62	45895.56
585.78	45977.48
585.94	45867.48
586.10	46054.72
586.26	45701.30
586.42	46003.23
586.58	46028.98
586.74	45940.04
586.90	45790.24
587.06	46024.29
587.22	46272.39
587.38	46162.39
587.54	46213.88
587.70	46146.00
587.86	46195.15
588.02	45951.74
588.18	45993.87
588.34	45813.65
588.49	46080.47
588.65	46085.15
588.81	46066.42
588.97	46230.26
589.13	45598.32
589.29	45881.52
589.45	46113.23
589.61	46230.26
589.77	46253.67
589.93	46010.25
590.08	46302.82
590.24	46373.03
590.40	46560.28
590.56	46564.96
590.72	46499.42
590.88	46131.96
591.04	46492.40
591.20	46429.21
591.35	46686.67
591.51	46534.53
591.67	46670.28
591.83	46728.80
591.99	46148.34
592.15	45886.20
592.31	46089.83
592.46	45965.78
592.62	46061.74
592.78	47012.00
592.94	46583.68
593.10	46541.55
593.26	46834.12
593.41	46593.04
593.57	46382.40
593.73	46567.30
593.89	47096.26
594.05	46733.48
594.20	46738.16
594.36	47012.00
594.52	46787.31
594.68	46602.41
594.84	46712.41
594.99	46791.99
595.15	46766.24
595.31	46850.50
595.47	46501.76
595.62	46593.04
595.78	46396.44
595.94	46471.34
596.10	46887.95
596.25	47002.64
596.41	46918.38
596.57	46607.09
596.73	46548.57
596.88	46696.03
597.04	46459.63
597.20	46719.43
597.36	46581.34
597.51	46817.74
597.67	47026.04
597.83	46548.57
597.99	46398.78
598.14	46653.90
598.30	46616.45
598.46	46862.21
598.61	46838.80
598.77	46974.55
598.93	46813.05
599.09	46843.48
599.24	47086.90
599.40	46791.99
599.56	47243.71
599.71	47000.30
599.87	46986.25
600.03	47150.09
600.18	47002.64
600.34	46831.78
600.50	47281.16
600.65	46979.23
600.81	46925.40
600.97	47030.72
601.12	47044.77
601.28	47257.76
601.44	46667.94
601.59	46667.94
601.75	46602.41
601.91	46724.11
602.06	46829.44
602.22	47089.24
602.37	47152.43
602.53	46653.90
602.69	46878.59
602.84	46342.61
603.00	47035.41
603.16	47203.92
603.31	47040.09
603.47	47154.77
603.62	46955.83
603.78	47206.26
603.94	46787.31
604.09	46948.81
604.25	46862.21
604.40	46824.76
604.56	46904.34
604.71	47264.78
604.87	47131.37
605.03	46639.86
605.18	47002.64
605.34	46930.08
605.49	46602.41
605.65	46752.20
605.80	46450.27
605.96	46431.55
606.12	46693.69
606.27	46721.77
606.43	46272.39
606.58	46698.37
606.74	46681.98
606.89	46653.90
607.05	47091.58
607.20	47250.74
607.36	46447.93
607.51	46674.96
607.67	46761.56
607.82	46602.41
607.98	46560.28
608.13	46541.55
608.29	46815.40
608.44	46735.82
608.60	46607.09
608.75	46532.19
608.91	46646.88
609.06	46361.33
609.22	46965.19
609.37	46417.50
609.53	46644.54
609.68	47002.64
609.84	46541.55
609.99	46576.66
610.15	46279.41
610.30	46553.26
610.46	46363.67
610.61	46862.21
610.76	46756.88
610.92	45928.33
611.07	46031.32
611.23	46066.42
611.38	46279.41
611.54	46714.75
611.69	46358.99
611.84	46394.10
612.00	46174.09
612.15	46358.99
612.31	46822.42
612.46	46316.86
612.62	46375.37
612.77	46464.32
612.92	46457.29
613.08	46560.28
613.23	46487.72
613.39	46061.74
613.54	45961.10
613.69	46426.87
613.85	46181.11
614.00	46274.73
614.15	46351.97
614.31	46124.94
614.46	46192.81
614.62	45930.67
614.77	45921.31
614.92	46129.62
615.08	45947.06
615.23	46047.70
615.38	46190.47
615.54	46162.39
615.69	46089.83
615.84	45972.80
616.00	45780.88
616.15	46347.29
616.30	46431.55
616.46	45874.50
616.61	46075.79
616.76	46080.47
616.92	45617.04
617.07	45762.15
617.22	45668.53
617.37	45074.04
617.53	45584.27
617.68	45659.17
617.83	46040.68
617.99	46036.00
618.14	45806.62
618.29	45390.01
618.45	45677.90
618.60	45860.46
618.75	45411.07
618.90	45577.25
619.06	45502.35
619.21	45727.05
619.36	45759.81
619.51	45588.95
619.67	45394.69
619.82	45291.71
619.97	45642.79
620.12	45219.15
620.28	45724.71
620.43	45378.31
620.58	45635.77
620.73	45645.13
620.89	45790.24
621.04	46136.64
621.19	45366.60
621.34	45359.58
621.49	44926.58
621.65	45003.82
621.80	45394.69
621.95	45677.90
622.10	45542.14
622.25	45392.35
622.41	45162.98
622.56	45322.13
622.71	45518.74
622.86	45041.27
623.01	45504.70
623.16	45404.05
623.32	45181.70
623.47	45148.93
623.62	45221.49
623.77	44870.41
623.92	45464.91
624.07	45504.70
624.23	45151.27
624.38	45146.59
624.53	45207.45
624.68	45013.18
624.83	44596.57
624.98	45017.86
625.13	44636.36
625.29	44940.63
625.44	45120.85
625.59	44676.15
625.74	44830.62
625.89	44715.93
626.04	44533.37
626.19	44715.93
626.34	45195.74
626.49	44243.15
626.65	44594.23
626.80	44339.11
626.95	44041.86
627.10	44367.20
627.25	44376.56
627.40	44528.69
627.55	44383.58
627.70	44294.64
627.85	44418.69
628.00	44381.24
628.15	44322.72
628.30	43840.57
628.45	43894.41
628.60	43753.97
628.76	43922.49
628.91	44299.32
629.06	43679.08
629.21	43845.26
629.36	44100.37
629.51	43922.49
629.66	44371.88
629.81	44002.07
629.96	44315.70
630.11	44229.10
630.26	43679.08
630.41	44091.01
630.56	43601.84
630.71	43838.23
630.86	44346.13
631.01	43512.90
631.16	43887.39
631.31	43510.56
631.46	43344.38
631.61	43812.49
631.76	44191.65
631.91	43571.41
632.06	44484.22
632.21	43973.98
632.36	43934.20
632.51	43622.90
632.66	43718.87
632.81	43636.95
632.96	43952.92
633.10	43126.71
633.25	43613.54
633.40	43730.57
633.55	43718.87
633.70	43566.73
633.85	43189.91
634.00	43349.06
634.15	43323.32
634.30	43229.69
634.45	42827.12
634.60	43402.89
634.75	43070.54
634.90	43438.00
635.05	43445.02
635.19	42918.40
635.34	43349.06
635.49	42941.81
635.64	43332.68
635.79	43316.29
635.94	43393.53
636.09	43636.95
636.24	43257.78
636.39	43269.48
636.53	42822.44
636.68	42710.10
636.83	43005.00
636.98	42394.12
637.13	42925.42
637.28	42564.98
637.43	42808.40
637.57	43068.20
637.72	42576.69
637.87	42918.40
638.02	43028.41
638.17	42738.18
638.32	42749.88
638.46	42525.19
638.61	42543.92
638.76	42522.85
638.91	42859.89
639.06	42546.26
639.20	42031.34
639.35	42380.08
639.50	42181.13
639.65	42366.04
639.80	42536.90
639.94	42293.48
640.09	42658.60
640.24	42433.91
640.39	41930.70
640.54	42141.35
640.68	42333.27
640.83	42211.56
640.98	42036.02
641.13	41706.01
641.27	42302.84
641.42	42714.78
641.57	41900.27
641.72	42185.82
641.86	42621.16
642.01	41790.27
642.16	41874.52
642.31	41769.20
642.45	42293.48
642.60	41825.37
642.75	41656.85
642.90	42209.22
643.04	41935.38
643.19	41874.52
643.34	41701.32
643.48	41521.10
643.63	41757.50
643.78	42043.04
643.93	42064.11
644.07	41773.88
644.22	41621.75
644.37	41523.44
644.51	41844.10
644.66	41724.73
644.81	41890.91
644.95	41603.02
645.10	41170.02
645.25	41153.64
645.39	41261.30
645.54	41015.55
645.69	40889.16
645.83	41556.21
645.98	41134.92
646.13	41092.79
646.27	41425.14
646.42	41055.34
646.57	41048.32
646.71	41331.52
646.86	41593.66
647.00	41378.33
647.15	41621.75
647.30	41528.13
647.44	40762.77
647.59	41036.61
647.74	41118.53
647.88	41139.60
648.03	41558.55
648.17	41596.00
648.32	41099.81
648.47	41453.23
648.61	40935.97
648.76	40573.19
648.90	40980.44
649.05	40722.98
649.20	41181.73
649.34	40926.61
649.49	40982.78
649.63	40664.47
649.78	40905.54
649.92	41076.40
650.07	41467.27
650.21	41120.87
650.36	40992.14
650.51	40744.05
650.65	40704.26
650.80	40924.27
650.94	41008.53
651.09	40444.46
651.23	40561.48
651.38	40261.90
651.52	40491.27
651.67	40577.87
651.81	40500.63
651.96	40037.20
652.10	40453.82
652.25	39885.07
652.39	39917.84
652.54	40236.15
652.68	40517.01
652.83	40491.27
652.97	40720.64
653.12	40474.88
653.26	40657.45
653.41	40191.68
653.55	40318.07
653.70	40229.13
653.84	40896.18
653.99	40601.27
654.13	40449.14
654.27	40390.62
654.42	40088.70
654.56	40222.11
654.71	40271.26
654.85	40154.23
655.00	39765.70
655.14	40446.80
655.29	40362.54
655.43	40369.56
655.57	39821.87
655.72	39653.36
655.86	39854.64
656.01	39756.34
656.15	39491.86
656.30	39412.28
656.44	39997.41
656.58	39606.55
656.73	39351.43
656.87	39409.94
657.01	38876.30
657.16	39557.39
657.30	39449.73
657.45	39789.11
657.59	39262.49
657.73	39611.23
657.88	39386.54
658.02	39381.85
658.16	39770.38
658.31	39810.17
658.45	39145.46
658.60	38958.22
658.74	39489.52
658.88	39070.56
659.03	39330.36
659.17	38967.58
659.31	39241.42
659.46	38579.05
659.60	38995.67
659.74	39023.75
659.89	38724.16
660.03	38349.68
660.17	38553.30
660.32	38171.80
660.46	38375.42
660.60	38721.82
660.74	38927.79
660.89	38803.74
661.03	38302.87
661.17	38483.09
661.32	38220.95
661.46	38658.63
661.60	38096.90
661.74	38157.75
661.89	38190.52
662.03	38520.54
662.17	37977.53
662.31	38036.05
662.46	38244.35
662.60	38073.49
662.74	37652.20
662.88	37794.97
663.03	37244.94
663.17	37336.23
663.31	37867.53
663.45	37734.12
663.60	38019.66
663.74	37607.73
663.88	37818.38
664.02	37589.00
664.17	37895.61
664.31	37244.94
664.45	37062.38
664.59	37280.05
664.73	36622.36
664.88	37158.34
665.02	36540.44
665.16	37043.66
665.30	36961.74
665.44	37017.91
665.59	36758.11
665.73	36847.05
665.87	36442.14
666.01	36568.53
666.15	36987.49
666.29	36687.90
666.44	36816.63
666.58	36570.87
666.72	36252.56
666.86	36369.58
667.00	36449.16
667.14	36327.45
667.28	36290.01
667.43	36222.13
667.57	36187.02
667.71	36109.78
667.85	36175.32
667.99	36507.68
668.13	35784.45
668.27	35899.14
668.41	36027.87
668.56	35126.76
668.70	35461.46
668.84	35573.80
668.98	35189.95
669.12	35716.58
669.26	35754.02
669.40	35585.50
669.54	34927.81
669.68	35225.06
669.82	35306.98
669.96	35054.20
670.10	34562.69
670.25	35117.40
670.39	34677.38
670.53	35159.53
670.67	34843.56
670.81	35040.16
670.95	35201.66
671.09	34785.04
671.23	34773.34
671.37	34567.37
671.51	34284.17
671.65	34803.77
671.79	34047.77
671.93	34359.06
672.07	34209.27
672.21	34347.36
672.35	33914.36
672.49	33958.83
672.63	33984.58
672.77	33888.62
672.91	33823.08
673.05	33528.17
673.19	33514.13
673.33	33340.93
673.47	33429.87
673.61	33301.14
673.75	33095.18
673.89	33015.60
674.03	32968.79
674.17	33450.94
674.31	33193.48
674.45	32741.75
674.59	33008.58
674.73	32739.41
674.87	32498.34
675.01	32531.11
675.15	32273.65
675.29	32320.46
675.43	32428.12
675.56	32439.82
675.70	32554.51
675.84	32369.61
675.98	30817.83
676.12	32332.16
676.26	32128.53
676.40	31704.90
676.54	31250.83
676.68	31309.35
676.82	31192.32
676.96	31541.06
677.10	31508.29
677.23	31087.00
677.37	31122.10
677.51	30789.75
677.65	31342.11
677.79	30735.92
677.93	30820.17
678.07	30906.77
678.21	30338.02
678.34	30377.81
678.48	30368.45
678.62	29907.37
678.76	30071.20
678.90	30213.98
679.04	30218.66
679.18	30359.09
679.31	29759.91
679.45	29818.42
679.59	29507.13
679.73	30190.57
679.87	29612.46
680.00	29647.57
680.14	29752.89
680.28	29226.27
680.42	29263.72
680.56	29146.69
680.70	29008.60
680.83	28987.53
680.97	28676.24
681.11	28720.71
681.25	28687.95
681.39	28549.85
681.52	28474.96
681.66	28198.77
681.80	27772.80
681.94	27702.58
682.07	27735.35
682.21	27447.46
682.35	27899.19
682.49	27871.10
682.62	27381.93
682.76	27482.57
682.90	27431.08
683.04	27253.20
683.17	27562.15
683.31	26972.33
683.45	27037.87
683.59	26852.97
683.72	26558.06
683.86	26319.32
684.00	26352.09
684.13	26859.99
684.27	26445.71
684.41	26277.19
684.55	26544.02
684.68	26682.11
684.82	25560.99
684.96	25703.76
685.09	25750.57
685.23	26092.29
685.37	26024.42
685.50	26426.99
685.64	25778.66
685.78	25521.20
685.91	25685.04
686.05	25345.66
686.19	25076.50
686.32	24959.47
686.46	24521.79
686.60	24496.05
686.73	24641.16
686.87	24833.08
687.01	25127.99
687.14	24458.60
687.28	24601.37
687.42	24617.75
687.55	24144.97
687.69	24098.16
687.82	23995.17
687.96	23955.38
688.10	23817.29
688.23	24163.69
688.37	24322.85
688.50	24144.97
688.64	23840.70
688.78	23506.00
688.91	23234.50
689.05	23475.57
689.18	23222.80
689.32	22761.71
689.46	22761.71
689.59	23185.35
689.73	23101.09
689.86	23084.70
690.00	22897.46
690.13	22885.76
690.27	22640.00
690.41	22513.61
690.54	22368.50
690.68	22036.14
690.81	21930.82
690.95	21790.39
691.08	21804.43
691.22	21795.07
691.35	21839.54
691.49	22052.53
691.62	21774.00
691.76	21490.80
691.89	21245.04
692.03	20957.16
692.16	20877.58
692.30	21221.64
692.43	21195.89
692.57	20751.19
692.70	20624.80
692.84	20840.13
692.97	20280.74
693.11	20500.75
693.24	20580.33
693.38	20482.03
693.51	20144.99
693.65	20168.40
693.78	20086.48
693.92	20046.69
694.05	19934.34
694.19	19941.36
694.32	20114.56
694.45	20147.33
694.59	20025.62
694.72	20219.89
694.86	19566.88
694.99	19456.87
695.13	19129.20
695.26	19049.62
695.39	19204.10
695.53	18920.89
695.66	18754.71
695.80	18874.08
695.93	18794.50
696.07	18710.24
696.20	18420.02
696.33	18183.62
696.47	18340.44
696.60	18195.32
696.73	18317.03
696.87	18480.87
697.00	18284.26
697.14	18012.76
697.27	18078.30
697.40	18097.02
697.54	17884.03
697.67	17509.55
697.80	17869.99
697.94	17706.15
698.07	17575.08
698.21	17647.64
698.34	17359.75
698.47	17343.37
698.61	16753.55
698.74	17123.36
698.87	17027.40
699.01	16746.53
699.14	17123.36
699.27	16819.09
699.40	16533.54
699.54	16664.61
699.67	16645.89
699.80	16493.76
699.94	16362.69
700.07	16395.45
700.20	16243.32
700.34	15733.08
700.47	16135.65
700.60	16416.52
700.73	16093.52
700.87	16126.29
701.00	15672.23
701.13	15484.98
701.26	15564.56
701.40	15602.01
701.53	15515.41
701.66	15602.01
701.79	15309.44
701.93	15506.05
702.06	15026.24
702.19	15084.75
702.32	15213.48
702.46	15012.20
702.59	14984.11
702.72	15066.03
702.85	15105.82
702.99	14836.66
703.12	14689.20
703.25	14384.93
703.38	14473.87
703.51	14541.75
703.65	14146.20
703.78	14122.79
703.91	13965.98
704.04	14193.01
704.17	14031.51
704.31	13963.64
704.44	13961.30
704.57	13832.57
704.70	13589.15
704.83	13575.11
704.96	13673.41
705.10	13385.52
705.23	13137.43
>>>>>End Processed Spectral Data<<<<<
