SpectraSuite Data File
++++++++++++++++++++++++++++++++++++
Date: Fri Oct 25 11:33:49 EDT 2013
User: price-jones
Dark Spectrum Present: No
Reference Spectrum Present: No
Number of Sampled Component Spectra: 1
Spectrometers: USB2+H05261
Integration Time (usec): 100000 (USB2+H05261)
Spectra Averaged: 1 (USB2+H05261)
Boxcar Smoothing: 0 (USB2+H05261)
Correct for Electrical Dark: No (USB2+H05261)
Strobe/Lamp Enabled: No (USB2+H05261)
Correct for Detector Non-linearity: No (USB2+H05261)
Correct for Stray Light: No (USB2+H05261)
Number of Pixels in Processed Spectrum: 2048
>>>>>Begin Processed Spectral Data<<<<<
365.73	308.95
365.92	308.95
366.12	308.95
366.32	224.69
366.52	180.22
366.72	201.29
366.91	208.31
367.11	102.98
367.31	131.07
367.51	152.13
367.70	210.65
367.90	227.03
368.10	142.77
368.30	238.73
368.49	154.48
368.69	145.11
368.89	182.56
369.09	224.69
369.28	224.69
369.48	154.48
369.68	238.73
369.87	252.78
370.07	231.71
370.27	330.02
370.47	348.74
370.66	402.57
370.86	568.75
371.06	638.97
371.25	535.98
371.45	547.69
371.65	664.71
371.84	526.62
372.04	507.90
372.24	601.52
372.44	554.71
372.63	580.45
372.83	603.86
373.03	704.50
373.22	533.64
373.42	608.54
373.62	653.01
373.81	641.31
374.01	613.22
374.21	662.37
374.40	580.45
374.60	716.20
374.79	610.88
374.99	683.44
375.19	734.93
375.38	636.63
375.58	540.66
375.78	699.82
375.97	596.84
376.17	664.71
376.37	634.29
376.56	685.78
376.76	645.99
376.95	697.48
377.15	716.20
377.35	638.97
377.54	645.99
377.74	648.33
377.93	603.86
378.13	662.37
378.33	753.65
378.52	610.88
378.72	725.57
378.91	739.61
379.11	751.31
379.31	692.80
379.50	629.60
379.70	713.86
379.89	744.29
380.09	774.72
380.28	657.69
380.48	737.27
380.68	704.50
380.87	671.73
381.07	760.67
381.26	718.54
381.46	732.59
381.65	763.01
381.85	758.33
382.04	711.52
382.24	802.80
382.43	802.80
382.63	772.38
382.83	809.83
383.02	805.14
383.22	870.68
383.41	840.25
383.61	842.59
383.80	781.74
384.00	763.01
384.19	858.98
384.39	812.17
384.58	854.30
384.78	755.99
384.97	840.25
385.17	772.38
385.36	922.17
385.56	854.30
385.75	894.08
385.95	858.98
386.14	858.98
386.34	791.10
386.53	858.98
386.72	791.10
386.92	882.38
387.11	861.32
387.31	851.96
387.50	877.70
387.70	933.87
387.89	931.53
388.09	849.61
388.28	805.14
388.48	896.43
388.67	971.32
388.86	919.83
389.06	915.15
389.25	1050.90
389.45	990.05
389.64	1013.45
389.84	1015.79
390.03	1029.84
390.22	957.28
390.42	840.25
390.61	917.49
390.81	1041.54
391.00	973.66
391.19	926.85
391.39	983.02
391.58	901.11
391.78	1050.90
391.97	1093.03
392.16	985.37
392.36	1076.65
392.55	992.39
392.75	1086.01
392.94	1086.01
393.13	961.96
393.33	1064.94
393.52	1097.71
393.71	1013.45
393.91	1123.46
394.10	1032.18
394.29	1224.10
394.49	1107.07
394.68	1114.10
394.88	1130.48
395.07	1174.95
395.26	1165.59
395.46	1170.27
395.65	1132.82
395.84	1217.08
396.04	1245.16
396.23	1151.54
396.42	1123.46
396.62	1177.29
396.81	1245.16
397.00	1174.95
397.19	1149.20
397.39	1226.44
397.58	1235.80
397.77	1181.97
397.97	1219.42
398.16	1207.72
398.35	1280.27
398.55	1238.14
398.74	1282.61
398.93	1343.47
399.12	1266.23
399.32	1385.60
399.51	1299.00
399.70	1320.06
399.90	1331.76
400.09	1341.13
400.28	1451.13
400.47	1406.66
400.67	1409.00
400.86	1420.71
401.05	1462.83
401.24	1437.09
401.44	1383.26
401.63	1514.33
401.82	1448.79
402.01	1490.92
402.21	1439.43
402.40	1423.05
402.59	1469.86
402.78	1519.01
402.97	1497.94
403.17	1542.41
403.36	1558.80
403.55	1423.05
403.74	1549.43
403.93	1535.39
404.13	1621.99
404.32	1579.86
404.51	1612.63
404.70	1617.31
404.89	1629.01
405.09	1715.61
405.28	1708.59
405.47	1645.40
405.66	1729.66
405.85	1621.99
406.05	1668.80
406.24	1736.68
406.43	1736.68
406.62	1813.92
406.81	1764.76
407.00	1661.78
407.20	1678.16
407.39	1851.36
407.58	1877.11
407.77	1769.44
407.96	1865.41
408.15	1898.17
408.34	1849.02
408.54	1991.80
408.73	1895.83
408.92	1954.35
409.11	2003.50
409.30	2057.33
409.49	2036.27
409.68	2005.84
409.87	2026.90
410.07	2146.27
410.26	2057.33
410.45	1935.62
410.64	2099.46
410.83	2062.01
411.02	2204.78
411.21	2150.95
411.40	2228.19
411.59	2202.44
411.78	2143.93
411.98	2150.95
412.17	2165.00
412.36	2335.85
412.55	2279.68
412.74	2284.36
412.93	2291.38
413.12	2352.24
413.31	2382.67
413.50	2438.84
413.69	2459.90
413.88	2457.56
414.07	2485.65
414.26	2565.23
414.45	2560.55
414.64	2551.18
414.83	2509.05
415.02	2574.59
415.22	2644.81
415.41	2729.06
415.60	2780.56
415.79	2726.72
415.98	2752.47
416.17	2672.89
416.36	2712.68
416.55	2766.51
416.74	2752.47
416.93	2602.68
417.12	2818.00
417.31	2918.65
417.50	2902.26
417.69	2939.71
417.88	2939.71
418.07	2956.10
418.26	3056.74
418.45	2970.14
418.64	3035.67
418.83	3047.38
419.02	3087.17
419.21	3138.66
419.39	3131.64
419.58	3047.38
419.77	3105.89
419.96	3138.66
420.15	3138.66
420.34	3152.70
420.53	3164.40
420.72	3211.22
420.91	3337.60
421.10	3183.13
421.29	3405.48
421.48	3265.05
421.67	3396.12
421.86	3302.50
422.05	3314.20
422.24	3276.75
422.43	3405.48
422.61	3349.31
422.80	3421.86
422.99	3288.45
423.18	3452.29
423.37	3466.33
423.56	3426.54
423.75	3363.35
423.94	3361.01
424.13	3180.79
424.32	3318.88
424.50	3424.20
424.69	3524.85
424.88	3529.53
425.07	3377.39
425.26	3384.41
425.45	3337.60
425.64	3281.43
425.83	3447.61
426.01	3386.76
426.20	3393.78
426.39	3431.23
426.58	3531.87
426.77	3574.00
426.96	3585.70
427.15	3391.44
427.33	3583.36
427.52	3620.81
427.71	3611.45
427.90	3595.06
428.09	3630.17
428.28	3595.06
428.46	3726.13
428.65	3700.39
428.84	3786.99
429.03	3805.71
429.22	3644.21
429.40	3765.92
429.59	3880.61
429.78	3726.13
429.97	3569.32
430.16	3786.99
430.34	4081.89
430.53	3609.11
430.72	3779.97
430.91	3791.67
431.10	3911.04
431.28	3768.26
431.47	4035.08
431.66	3918.06
431.85	3967.21
432.03	4091.26
432.22	4065.51
432.41	4039.76
432.60	4035.08
432.79	4023.38
432.97	4063.17
433.16	4117.00
433.35	4117.00
433.54	4182.54
433.72	4208.28
433.91	4109.98
434.10	4215.30
434.28	4079.55
434.47	4201.26
434.66	4241.05
434.85	4456.38
435.03	4332.33
435.22	4271.48
435.41	4454.04
435.59	4344.03
435.78	4362.76
435.97	4306.59
436.16	4449.36
436.34	4393.19
436.53	4482.13
436.72	4458.72
436.90	4435.32
437.09	4456.38
437.28	4358.08
437.46	4564.04
437.65	4573.41
437.84	4657.67
438.02	4535.96
438.21	4617.88
438.40	4587.45
438.58	4732.56
438.77	4795.76
438.96	4786.40
439.14	4734.90
439.33	4990.02
439.52	4952.57
439.70	4978.32
439.89	5088.32
440.08	4985.34
440.26	4950.23
440.45	5055.56
440.63	5055.56
440.82	5062.58
441.01	5067.26
441.19	5128.11
441.38	5334.08
441.57	5212.37
441.75	5317.70
441.94	5423.02
442.12	5355.15
442.31	5479.19
442.50	5462.81
442.68	5392.59
442.87	5366.85
443.05	5434.72
443.24	5565.79
443.43	5408.98
443.61	5537.71
443.80	5617.29
443.98	5547.07
444.17	5352.81
444.35	5380.89
444.54	5575.16
444.73	5617.29
444.91	5722.61
445.10	5643.03
445.28	5607.92
445.47	5652.39
445.65	5551.75
445.84	5680.48
446.02	5795.17
446.21	5596.22
446.39	5715.59
446.58	5687.50
446.77	5760.06
446.95	5783.46
447.14	5755.38
447.32	5731.97
447.51	5776.44
447.69	5671.12
447.88	5823.25
448.06	5781.12
448.25	5743.67
448.43	5865.38
448.62	5753.04
448.80	5893.47
448.99	5715.59
449.17	5949.64
449.36	5951.98
449.54	5949.64
449.73	6097.10
449.91	6221.14
450.10	5996.45
450.28	6036.24
450.46	6108.80
450.65	6141.57
450.83	6127.52
451.02	6148.59
451.20	6274.98
451.39	6155.61
451.57	6188.38
451.76	6289.02
451.94	6183.70
452.13	6352.21
452.31	6265.61
452.49	6153.27
452.68	6221.14
452.86	6171.99
453.05	6478.60
453.23	6698.61
453.42	6408.39
453.60	6223.48
453.78	6541.80
453.97	6392.00
454.15	6537.12
454.34	6420.09
454.52	6647.12
454.70	6623.72
454.89	6616.69
455.07	6590.95
455.26	6516.05
455.44	6679.89
455.62	6764.15
455.81	6604.99
455.99	6862.45
456.17	6892.88
456.36	6792.23
456.54	6792.23
456.73	7007.56
456.91	6960.75
457.09	7014.59
457.28	7077.78
457.46	6942.03
457.64	7016.93
457.83	7126.93
458.01	6888.20
458.19	7234.60
458.38	7080.12
458.56	7239.28
458.74	6937.35
458.93	7255.66
459.11	7246.30
459.29	7187.79
459.48	7140.97
459.66	7290.77
459.84	7208.85
460.03	7508.44
460.21	7377.37
460.39	7496.74
460.57	7414.82
460.76	7487.37
460.94	7510.78
461.12	7606.74
461.31	7463.97
461.49	7571.63
461.67	7714.41
461.85	7770.58
462.04	7506.10
462.22	7936.76
462.40	7894.63
462.59	7859.52
462.77	7850.16
462.95	7702.70
463.13	7831.43
463.32	7859.52
463.50	7861.86
463.68	7868.88
463.86	7889.95
464.05	7957.82
464.23	7978.89
464.41	8035.06
464.59	8051.44
464.78	8128.68
464.96	8006.97
465.14	7918.03
465.32	8023.36
465.50	8030.38
465.69	8126.34
465.87	8128.68
466.05	8039.74
466.23	8257.41
466.41	8032.72
466.60	8353.37
466.78	8180.17
466.96	8299.54
467.14	8182.51
467.32	8095.91
467.51	8461.04
467.69	7971.86
467.87	8430.61
468.05	8568.70
468.23	8322.94
468.41	8411.89
468.60	8472.74
468.78	8477.42
468.96	8458.70
469.14	8561.68
469.32	8624.87
469.50	8540.61
469.69	8753.60
469.87	8751.26
470.05	8662.32
470.23	8564.02
470.41	8695.09
470.59	8795.73
470.77	8905.74
470.95	8732.54
471.14	8973.61
471.32	8879.99
471.50	9092.98
471.68	8889.35
471.86	9202.99
472.04	9118.73
472.22	9444.06
472.40	9022.77
472.58	9198.31
472.77	9252.14
472.95	9401.93
473.13	9551.73
473.31	9240.44
473.49	9334.06
473.67	9523.64
473.85	9345.76
474.03	9647.69
474.21	9792.80
474.39	9839.61
474.57	9750.67
474.75	9928.55
474.93	9996.43
475.12	9820.89
475.30	10059.62
475.48	9870.04
475.66	10190.69
475.84	10164.95
476.02	10176.65
476.20	10319.42
476.38	10431.77
476.56	10597.95
476.74	10401.34
476.92	10593.26
477.10	10511.35
477.28	10614.33
477.46	10696.25
477.64	10951.37
477.82	10942.00
478.00	11183.08
478.18	11241.59
478.36	11234.57
478.54	11218.19
478.72	11232.23
478.90	11396.07
479.08	11719.06
479.26	11477.99
479.44	11585.65
479.62	11744.81
479.80	11859.49
479.98	12243.34
480.16	12070.14
480.34	11978.86
480.52	12311.22
480.70	12245.68
480.88	12278.45
481.06	12320.58
481.24	12517.18
481.41	12690.38
481.59	12671.66
481.77	12996.99
481.95	12709.11
482.13	12922.10
482.31	12865.92
482.49	13415.95
482.67	13341.05
482.85	13429.99
483.03	13502.55
483.21	13549.36
483.39	13968.32
483.57	13895.76
483.74	13860.65
483.92	13994.06
484.10	14092.37
484.28	14356.85
484.46	14691.54
484.64	14747.72
484.82	14539.41
485.00	14747.72
485.18	14897.51
485.35	15084.75
485.53	14717.29
485.71	15063.69
485.89	15293.06
486.07	15545.84
486.25	15330.51
486.43	15791.59
486.61	15564.56
486.78	15992.88
486.96	15852.45
487.14	16156.72
487.32	15917.98
487.50	15992.88
487.68	16348.64
487.85	16556.95
488.03	16905.69
488.21	16992.29
488.39	16994.63
488.57	16950.16
488.75	17177.19
488.92	17202.94
489.10	17514.23
489.28	17486.14
489.46	17731.90
489.64	17858.29
489.81	18305.33
489.99	18132.13
490.17	18209.37
490.35	18403.63
490.53	18230.43
490.70	18331.08
490.88	18665.77
491.06	19035.58
491.24	18864.72
491.41	19117.50
491.59	19302.40
491.77	18838.97
491.95	19358.57
492.13	19435.81
492.30	19733.06
492.48	19829.02
492.66	19768.16
492.84	19782.21
493.01	20627.14
493.19	19981.15
493.37	20339.26
493.54	20423.51
493.72	20718.42
493.90	20730.12
494.08	20592.03
494.25	20896.30
494.43	20879.92
494.61	21198.23
494.79	21387.82
494.96	21010.99
495.14	21259.09
495.32	21575.06
495.49	21429.94
495.67	22087.64
495.85	21902.73
496.02	22312.33
496.20	22347.44
496.38	22546.38
496.55	22647.02
496.73	22970.02
496.91	23063.64
497.09	23105.77
497.26	22677.45
497.44	22803.84
497.62	23285.99
497.79	23466.21
497.97	23194.71
498.14	23735.37
498.32	23616.01
498.50	23850.06
498.67	23786.86
498.85	23754.10
499.03	23974.11
499.20	24060.71
499.38	24430.51
499.56	24479.66
499.73	24648.18
499.91	24451.58
500.08	24706.70
500.26	24510.09
500.44	24758.19
500.61	24968.84
500.79	24645.84
500.97	25027.35
501.14	25287.15
501.32	25207.57
501.49	25242.68
501.67	25289.49
501.84	25525.88
502.02	25614.82
502.20	25738.87
502.37	25713.13
502.55	25713.13
502.72	25954.20
502.90	25876.96
503.07	25874.62
503.25	26314.64
503.43	26251.45
503.60	26277.19
503.78	26581.46
503.95	26558.06
504.13	26483.16
504.30	26501.89
504.48	26808.50
504.65	26843.60
504.83	27131.49
505.01	27164.26
505.18	27185.32
505.36	27557.47
505.53	27250.86
505.71	27522.36
505.88	27330.44
506.06	27201.71
506.23	27442.78
506.41	27459.16
506.58	27503.64
506.76	27576.19
506.93	28074.73
507.11	27821.95
507.28	28194.09
507.46	28191.75
507.63	28166.01
507.81	28556.88
507.98	28025.57
508.16	28362.61
508.33	28383.68
508.50	28467.94
508.68	28608.37
508.85	28893.91
509.03	28694.97
509.20	28804.97
509.38	29677.99
509.55	29287.12
509.73	28973.49
509.90	29439.26
510.08	29448.62
510.25	29556.28
510.42	29631.18
510.60	29876.94
510.77	29659.27
510.95	30323.98
511.12	29979.92
511.30	29851.19
511.47	29874.60
511.64	29851.19
511.82	30192.91
511.99	30352.07
512.17	30548.67
512.34	30553.35
512.51	30728.89
512.69	31058.91
512.86	30780.39
513.04	30988.69
513.21	30836.56
513.38	30710.17
513.56	31285.94
513.73	31108.06
513.90	31180.62
514.08	31019.12
514.25	31192.32
514.43	31529.36
514.60	31470.84
514.77	31803.20
514.95	31889.80
515.12	32123.85
515.29	31356.16
515.47	31941.29
515.64	32009.17
515.81	32247.90
515.99	32002.14
516.16	32168.32
516.33	32348.54
516.51	32545.15
516.68	32325.14
516.85	32449.19
517.03	32718.35
517.20	32746.44
517.37	32655.15
517.54	32847.08
517.72	32863.46
517.89	33031.98
518.06	33207.52
518.24	32943.04
518.41	32919.63
518.58	33043.68
518.75	32788.56
518.93	33092.83
519.10	33064.75
519.27	33738.82
519.45	33848.83
519.62	33647.54
519.79	33820.74
519.96	33890.96
520.14	33624.14
520.31	33860.53
520.48	33542.22
520.65	34370.77
520.83	34279.49
521.00	34115.65
521.17	34188.21
521.34	34405.88
521.52	34417.58
521.69	34323.96
521.86	34677.38
522.03	35098.67
522.20	34817.81
522.38	34918.45
522.55	34703.12
522.72	35126.76
522.89	34948.88
523.07	35545.72
523.24	35377.20
523.41	35564.44
523.58	35175.91
523.75	35356.13
523.92	35065.91
524.10	35269.53
524.27	35316.34
524.44	36074.68
524.61	35852.33
524.78	35391.24
524.96	35955.31
525.13	36364.90
525.30	36177.66
525.47	36184.68
525.64	36287.67
525.81	36416.40
525.98	36479.59
526.16	36458.52
526.33	36135.53
526.50	36463.21
526.67	36407.03
526.84	36945.36
527.01	36430.44
527.18	36222.13
527.36	36641.09
527.53	36533.42
527.70	36975.78
527.87	37427.51
528.04	36776.84
528.21	37109.19
528.38	37036.64
528.55	37479.00
528.72	37308.14
528.89	37067.06
529.07	37275.37
529.24	37034.30
529.41	37666.24
529.58	36790.88
529.75	37226.22
529.92	37542.19
530.09	37624.11
530.26	37661.56
530.43	37626.45
530.60	37446.23
530.77	37340.91
530.94	37764.54
531.11	37715.39
531.28	37872.21
531.46	38087.54
531.63	38054.77
531.80	38440.96
531.97	38359.04
532.14	38234.99
532.31	38225.63
532.48	38677.35
532.65	38803.74
532.82	38653.95
532.99	38707.78
533.16	38656.29
533.33	38637.56
533.50	39002.69
533.67	38550.96
533.84	38911.41
534.01	38663.31
534.18	39175.89
534.35	39213.34
534.52	39203.97
534.69	39377.17
534.86	39423.98
535.03	38876.30
535.20	39028.43
535.37	39166.52
535.54	39459.09
535.71	39335.04
535.88	39510.58
536.05	39749.32
536.22	39770.38
536.38	39526.97
536.55	39770.38
536.72	39550.37
536.89	39346.75
537.06	40165.93
537.23	39908.47
537.40	39695.49
537.57	39845.28
537.74	39723.57
537.91	40285.30
538.08	39786.77
538.25	39634.63
538.42	39957.63
538.59	40299.34
538.75	40140.19
538.92	40435.10
539.09	40636.38
539.26	40676.17
539.43	40900.86
539.60	40715.96
539.77	40280.62
539.94	40645.74
540.11	40884.48
540.28	40594.25
540.44	40737.02
540.61	40680.85
540.78	40601.27
540.95	40512.33
541.12	40928.95
541.29	40451.48
541.46	41006.19
541.62	41160.66
541.79	41596.00
541.96	40425.73
542.13	40924.27
542.30	40802.56
542.47	41357.27
542.63	41715.37
542.80	41563.23
542.97	41823.03
543.14	41977.51
543.31	41486.00
543.48	41701.32
543.64	42059.43
543.81	41876.86
543.98	42141.35
544.15	41926.02
544.32	42150.71
544.48	42454.98
544.65	42267.73
544.82	42696.05
544.99	42525.19
545.16	41839.42
545.32	42415.19
545.49	42384.76
545.66	43070.54
545.83	42541.58
546.00	42642.22
546.16	42628.18
546.33	42485.40
546.50	42174.11
546.67	42639.88
546.83	42305.18
547.00	42454.98
547.17	42682.01
547.34	43016.71
547.50	42902.02
547.67	43522.26
547.84	42962.87
548.00	43180.54
548.17	43758.66
548.34	43185.22
548.51	43428.64
548.67	43306.93
548.84	42747.54
549.01	42895.00
549.18	43276.51
549.34	43929.51
549.51	43456.73
549.68	43599.50
549.84	43199.27
550.01	43849.94
550.18	43360.76
550.34	43643.97
550.51	43199.27
550.68	43543.33
550.84	43562.05
551.01	44027.82
551.18	43730.57
551.34	43241.40
551.51	43920.15
551.68	43545.67
551.84	43512.90
552.01	43634.61
552.18	44044.20
552.34	44018.46
552.51	44004.41
552.68	43629.93
552.84	44486.56
553.01	44006.75
553.18	44210.38
553.34	43777.38
553.51	44044.20
553.67	44236.12
553.84	44072.29
554.01	44456.14
554.17	44278.25
554.34	44299.32
554.51	44311.02
554.67	44594.23
554.84	44666.78
555.00	44683.17
555.17	44549.76
555.33	44467.84
555.50	44734.66
555.67	44554.44
555.83	44559.12
556.00	44760.40
556.16	45120.85
556.33	44598.91
556.50	44652.74
556.66	44619.97
556.83	44725.30
556.99	45448.52
557.16	45500.01
557.32	45104.46
557.49	45425.12
557.65	44903.18
557.82	45137.23
557.98	44776.79
558.15	45361.92
558.32	44994.46
558.48	44804.88
558.65	45067.02
558.81	44959.35
558.98	44870.41
559.14	45069.36
559.31	45361.92
559.47	45476.61
559.64	44992.12
559.80	45064.67
559.97	45549.17
560.13	45289.37
560.30	45205.11
560.46	45736.41
560.63	45743.43
560.79	45528.10
560.96	45736.41
561.12	45799.60
561.29	45680.24
561.45	45727.05
561.61	45790.24
561.78	45331.50
561.94	45610.02
562.11	45408.73
562.27	45661.51
562.44	45464.91
562.60	45815.99
562.77	46131.96
562.93	45371.28
563.10	46176.43
563.26	45483.63
563.42	45890.88
563.59	45762.15
563.75	45570.23
563.92	45705.98
564.08	45911.95
564.24	46380.06
564.41	45947.06
564.57	45993.87
564.74	45897.91
564.90	45848.75
565.07	45886.20
565.23	46188.13
565.39	45893.22
565.56	46138.98
565.72	45724.71
565.88	46014.93
566.05	46167.07
566.21	46349.63
566.38	46157.70
566.54	46323.88
566.70	46248.99
566.87	46036.00
567.03	46047.70
567.19	46445.59
567.36	46160.05
567.52	46227.92
567.68	46543.89
567.85	46380.06
568.01	46628.15
568.17	46155.36
568.34	46681.98
568.50	46349.63
568.66	46260.69
568.83	46480.70
568.99	46433.89
569.15	46358.99
569.32	46110.89
569.48	46050.04
569.64	46742.84
569.81	46724.11
569.97	46417.50
570.13	46457.29
570.30	46281.75
570.46	46337.93
570.62	46333.24
570.78	46670.28
570.95	46143.66
571.11	46794.33
571.27	46298.14
571.43	46366.01
571.60	46766.24
571.76	46447.93
571.92	46473.68
572.09	46408.14
572.25	46770.93
572.41	46492.40
572.57	46810.71
572.74	47002.64
572.90	46827.10
573.06	46799.01
573.22	46955.83
573.38	47026.04
573.55	46820.08
573.71	46878.59
573.87	47278.82
574.03	47213.29
574.20	47143.07
574.36	47056.47
574.52	46836.46
574.68	46642.20
574.84	46698.37
575.01	47220.31
575.17	47140.73
575.33	46731.14
575.49	46576.66
575.65	46909.02
575.82	47014.34
575.98	46593.04
576.14	47178.18
576.30	47150.09
576.46	46911.36
576.62	47208.61
576.79	46841.14
576.95	46689.01
577.11	46672.62
577.27	46920.72
577.43	47388.83
577.59	46941.78
577.75	46986.25
577.92	46749.86
578.08	46878.59
578.24	46712.41
578.40	47051.79
578.56	47295.21
578.72	46990.94
578.88	47035.41
579.04	47157.11
579.21	47229.67
579.37	47281.16
579.53	46880.93
579.69	47168.82
579.85	47023.70
580.01	47267.12
580.17	46597.73
580.33	46775.61
580.49	47222.65
580.65	47313.93
580.82	47140.73
580.98	46969.87
581.14	46789.65
581.30	47002.64
581.46	46890.29
581.62	47192.22
581.78	46845.82
581.94	47056.47
582.10	47632.24
582.26	47278.82
582.42	47220.31
582.58	47367.76
582.74	47379.46
582.90	47239.03
583.06	47473.09
583.22	46937.10
583.38	47512.88
583.54	47510.53
583.70	47299.89
583.86	47026.04
584.02	47379.46
584.18	47608.84
584.34	47306.91
584.50	47224.99
584.66	47302.23
584.82	47379.46
584.98	47964.60
585.14	47812.46
585.30	47356.06
585.46	47391.17
585.62	47026.04
585.78	47515.22
585.94	47058.81
586.10	47529.26
586.26	47014.34
586.42	47667.35
586.58	47407.55
586.74	47693.10
586.90	47061.15
587.06	47728.20
587.22	47250.74
587.38	47599.47
587.54	47004.98
587.70	47650.97
587.86	47604.16
588.02	46927.74
588.18	47585.43
588.34	47426.28
588.49	47639.26
588.65	47110.30
588.81	47339.68
588.97	47512.88
589.13	47447.34
589.29	47845.23
589.45	47524.58
589.61	47550.32
589.77	47875.66
589.93	47948.21
590.08	47447.34
590.24	47796.08
590.40	47732.89
590.56	47693.10
590.72	47835.87
590.88	47374.78
591.04	47505.85
591.20	47988.00
591.35	47966.94
591.51	48198.65
591.67	48114.39
591.83	48320.36
591.99	47812.46
592.15	47653.31
592.31	47585.43
592.46	47264.78
592.62	47702.46
592.78	48069.92
592.94	48226.74
593.10	48282.91
593.26	48275.89
593.41	48025.45
593.57	47700.12
593.73	47917.79
593.89	48418.66
594.05	48182.27
594.20	48027.79
594.36	48055.88
594.52	47559.69
594.68	48299.30
594.84	47686.07
594.99	48030.13
595.15	48100.35
595.31	48090.99
595.47	47978.64
595.62	48161.20
595.78	48200.99
595.94	47723.52
596.10	48037.16
596.25	47990.34
596.41	48135.46
596.57	47840.55
596.73	48123.75
596.88	48231.42
597.04	48212.70
597.20	48189.29
597.36	47971.62
597.51	48142.48
597.67	48168.22
597.83	48098.01
597.99	48011.41
598.14	47730.54
598.30	47924.81
598.46	48086.31
598.61	48418.66
598.77	47831.19
598.93	48751.02
599.09	48067.58
599.24	48175.25
599.40	48430.36
599.56	48058.22
599.71	48395.26
599.87	48720.59
600.03	48458.45
600.18	48236.10
600.34	47849.91
600.50	47943.53
600.65	48006.73
600.81	48296.95
600.97	48224.40
601.12	48299.30
601.28	48067.58
601.44	48238.44
601.59	48149.50
601.75	48463.13
601.91	48566.12
602.06	48079.28
602.22	47992.68
602.37	48133.12
602.53	48224.40
602.69	48156.52
602.84	48395.26
603.00	48142.48
603.16	48193.97
603.31	48287.59
603.47	48603.56
603.62	48114.39
603.78	48460.79
603.94	48250.14
604.09	48582.50
604.25	48208.01
604.40	47957.58
604.56	47873.32
604.71	48725.27
604.87	47957.58
605.03	48034.81
605.18	48112.05
605.34	48835.28
605.49	48058.22
605.65	48315.68
605.80	48189.29
605.96	47770.33
606.12	48229.08
606.27	48196.31
606.43	48233.76
606.58	48023.11
606.74	48067.58
606.89	48090.99
607.05	48313.34
607.20	48353.13
607.36	48453.77
607.51	48168.22
607.67	47924.81
607.82	47950.56
607.98	47597.13
608.13	48196.31
608.29	47955.24
608.44	47978.64
608.60	47732.89
608.75	48275.89
608.91	48027.79
609.06	47882.68
609.22	48172.91
609.37	48107.37
609.53	48161.20
609.68	48346.11
609.84	47915.45
609.99	48210.35
610.15	47793.74
610.30	47952.90
610.46	47976.30
610.61	47920.13
610.76	47515.22
610.92	47524.58
611.07	47702.46
611.23	47599.47
611.38	47936.51
611.54	48236.10
611.69	48332.06
611.84	47988.00
612.00	47653.31
612.15	47522.24
612.31	47999.71
612.46	47468.40
612.62	47643.94
612.77	47920.13
612.92	48072.26
613.08	47655.65
613.23	47695.44
613.39	47913.11
613.54	47524.58
613.69	47870.98
613.85	47168.82
614.00	47702.46
614.15	47583.09
614.31	47805.44
614.46	47700.12
614.62	47627.56
614.77	47552.66
614.92	47606.50
615.08	47566.71
615.23	47592.45
615.38	48046.52
615.54	47681.39
615.69	47229.67
615.84	47391.17
616.00	47487.13
616.15	47772.67
616.30	47407.55
616.46	47342.02
616.61	47241.37
616.76	47779.70
616.92	46972.21
617.07	47798.42
617.22	47171.16
617.37	47075.19
617.53	46974.55
617.68	46974.55
617.83	47119.66
617.99	47578.41
618.14	47339.68
618.29	46796.67
618.45	47491.81
618.60	47061.15
618.75	47051.79
618.90	47098.60
619.06	47023.70
619.21	46787.31
619.36	47119.66
619.51	46775.61
619.67	46344.95
619.82	46944.12
619.97	47065.83
620.12	46464.32
620.28	47232.01
620.43	47070.51
620.58	46810.71
620.73	47072.85
620.89	47075.19
621.04	47089.24
621.19	46866.89
621.34	46569.64
621.49	46696.03
621.65	46796.67
621.80	47281.16
621.95	46684.33
622.10	46691.35
622.25	46787.31
622.41	46607.09
622.56	46560.28
622.71	46564.96
622.86	46841.14
623.01	46300.48
623.16	46637.51
623.32	46380.06
623.47	46639.86
623.62	46508.79
623.77	46635.17
623.92	46663.26
624.07	46763.90
624.23	46887.95
624.38	46497.08
624.53	46342.61
624.68	46176.43
624.83	46124.94
624.98	46532.19
625.13	45839.39
625.29	45916.63
625.44	46192.81
625.59	46007.91
625.74	46094.51
625.89	45914.29
626.04	46071.10
626.19	46141.32
626.34	45935.35
626.49	45729.39
626.65	45832.37
626.80	46117.92
626.95	45876.84
627.10	45759.81
627.25	45759.81
627.40	45680.24
627.55	45787.90
627.70	45680.24
627.85	45996.21
628.00	46038.34
628.15	46031.32
628.30	45514.06
628.45	45198.09
628.60	44996.80
628.76	45556.19
628.91	45535.12
629.06	45397.03
629.21	45074.04
629.36	45441.50
629.51	45455.54
629.66	46148.34
629.81	45488.31
629.96	45322.13
630.11	45413.41
630.26	45120.85
630.41	45174.68
630.56	45490.65
630.71	45673.21
630.86	45031.91
631.01	45174.68
631.16	44638.70
631.31	45151.27
631.46	45390.01
631.61	45184.04
631.76	45263.62
631.91	45294.05
632.06	45485.97
632.21	45598.32
632.36	45518.74
632.51	44924.24
632.66	45172.34
632.81	45029.57
632.96	44903.18
633.10	45216.81
633.25	44727.64
633.40	44559.12
633.55	45031.91
633.70	44982.76
633.85	44692.53
634.00	44266.55
634.15	44821.26
634.30	44439.75
634.45	44650.40
634.60	44737.00
634.75	44828.28
634.90	44980.42
635.05	44982.76
635.19	44746.36
635.34	44493.58
635.49	44685.51
635.64	45137.23
635.79	44509.97
635.94	44102.71
636.09	44708.91
636.24	44533.37
636.39	45057.65
636.53	44521.67
636.68	44083.99
636.83	44423.37
636.98	44236.12
637.13	44538.05
637.28	44142.50
637.43	44151.87
637.57	44243.15
637.72	43650.99
637.87	44526.35
638.02	44519.33
638.17	44313.36
638.32	43847.60
638.46	43676.74
638.61	44282.94
638.76	43753.97
638.91	43997.39
639.06	43957.60
639.20	43374.81
639.35	43840.57
639.50	43650.99
639.65	43840.57
639.80	43700.14
639.94	44360.17
640.09	43793.76
640.24	43962.28
640.39	43379.49
640.54	43571.41
640.68	43648.65
640.83	44011.43
640.98	43793.76
641.13	43515.24
641.27	43966.96
641.42	43463.75
641.57	43601.84
641.72	43342.04
641.86	43344.38
642.01	43489.49
642.16	43576.09
642.31	42754.57
642.45	43297.57
642.60	43192.25
642.75	43416.94
642.90	43866.32
643.04	43072.88
643.19	43491.83
643.34	43447.36
643.48	42796.70
643.63	42738.18
643.78	43564.39
643.93	43449.70
644.07	43206.29
644.22	43271.82
644.37	42958.19
644.51	43058.84
644.66	43042.45
644.81	43255.44
644.95	43040.11
645.10	43040.11
645.25	42913.72
645.39	43023.73
645.54	42689.03
645.69	42642.22
645.83	42705.41
645.98	42340.29
646.13	42944.15
646.27	42497.11
646.42	42576.69
646.57	42897.34
646.71	43096.28
646.86	42719.46
647.00	42504.13
647.15	42499.45
647.30	42932.45
647.44	42546.26
647.59	42614.13
647.74	42263.05
647.88	42672.65
648.03	42801.38
648.17	43063.52
648.32	42792.01
648.47	43091.60
648.61	42452.64
648.76	42288.80
648.90	41888.57
649.05	41865.16
649.20	42370.72
649.34	42525.19
649.49	42483.06
649.63	42082.83
649.78	42424.55
649.92	42124.96
650.07	42756.91
650.21	42267.73
650.36	42672.65
650.51	42429.23
650.65	42209.22
650.80	42199.86
650.94	42260.71
651.09	41801.97
651.23	41645.15
651.38	42272.42
651.52	41769.20
651.67	41956.44
651.81	41844.10
651.96	41844.10
652.10	41560.89
652.25	41441.53
652.39	41881.55
652.54	41825.37
652.68	41493.02
652.83	41895.59
652.97	42244.33
653.12	41986.87
653.26	41757.50
653.41	42050.06
653.55	41853.46
653.70	41469.61
653.84	41867.50
653.99	41841.76
654.13	41420.46
654.27	40907.88
654.42	41486.00
654.56	41443.87
654.71	41586.64
654.85	41598.34
655.00	41581.96
655.14	41572.60
655.29	41619.41
655.43	41380.67
655.57	41448.55
655.72	41464.93
655.86	41654.51
656.01	40935.97
656.15	40907.88
656.30	41144.28
656.44	41104.49
656.58	41275.35
656.73	41375.99
656.87	40832.99
657.01	41036.61
657.16	41024.91
657.30	41273.01
657.45	41036.61
657.59	40517.01
657.73	40769.79
657.88	40446.80
658.02	40718.30
658.16	40954.69
658.31	40371.90
658.45	40624.68
658.60	40680.85
658.74	40540.42
658.88	40409.35
659.03	40474.88
659.17	40041.88
659.31	40198.70
659.46	40224.45
659.60	39992.73
659.74	40280.62
659.89	39494.20
660.03	39807.83
660.17	40116.78
660.32	40105.08
660.46	40425.73
660.60	40032.52
660.74	39955.29
660.89	39901.45
661.03	39475.48
661.17	39576.12
661.32	39487.18
661.46	39833.58
661.60	39763.36
661.74	39489.52
661.89	39732.93
662.03	39171.21
662.17	39501.22
662.31	39557.39
662.46	39580.80
662.60	39274.19
662.74	38934.81
662.88	38541.60
663.03	38820.13
663.17	38665.65
663.31	38862.26
663.45	38983.96
663.60	39470.79
663.74	39028.43
663.88	39402.92
664.02	38958.22
664.17	39079.92
664.31	38337.98
664.45	38312.23
664.59	38754.59
664.73	38529.90
664.88	38347.34
665.02	38000.94
665.16	38653.95
665.30	38328.61
665.44	37940.08
665.59	37738.80
665.73	38141.37
665.87	37794.97
666.01	37750.50
666.15	38075.84
666.29	37778.59
666.44	38005.62
666.58	37598.37
666.72	37570.28
666.86	38000.94
667.00	37691.99
667.14	37249.63
667.28	37500.06
667.43	37741.14
667.57	37708.37
667.71	37469.64
667.85	37759.86
667.99	37385.38
668.13	36774.50
668.27	37254.31
668.41	37102.17
668.56	37050.68
668.70	36727.69
668.84	36304.05
668.98	36816.63
669.12	36767.48
669.26	36776.84
669.40	36645.77
669.54	36528.74
669.68	36943.02
669.82	36552.15
669.96	35948.29
670.10	36582.57
670.25	36320.43
670.39	36144.89
670.53	36201.07
670.67	36151.91
670.81	36137.87
670.95	36568.53
671.09	35950.63
671.23	35552.74
671.37	35707.21
671.51	35358.47
671.65	35604.23
671.79	35269.53
671.93	35510.61
672.07	35585.50
672.21	35264.85
672.35	35543.38
672.49	35346.77
672.63	35133.78
672.77	35035.48
672.91	35295.28
673.05	34651.63
673.19	34724.19
673.33	34801.43
673.47	34698.44
673.61	34419.92
673.75	34581.42
673.89	34550.99
674.03	34139.05
674.17	34389.49
674.31	34050.11
674.45	33565.62
674.59	34239.70
674.73	34031.39
674.87	34045.43
675.01	33563.28
675.15	33413.49
675.29	33244.97
675.43	33123.26
675.56	33825.42
675.70	33380.72
675.84	33404.13
675.98	32173.00
676.12	33024.96
676.26	33125.60
676.40	32818.99
676.54	32912.61
676.68	32641.11
676.82	32247.90
676.96	32657.49
677.10	32514.72
677.23	32416.42
677.37	32603.66
677.51	32173.00
677.65	32437.48
677.79	31784.48
677.93	31864.05
678.07	32102.79
678.21	31438.08
678.34	31412.33
678.48	31613.62
678.62	31147.85
678.76	31304.67
678.90	31615.96
679.04	31138.49
679.18	31548.08
679.31	30988.69
679.45	30923.16
679.59	31302.32
679.73	30607.19
679.87	30555.69
680.00	30412.92
680.14	30841.24
680.28	30010.35
680.42	30293.55
680.56	30118.01
680.70	29802.04
680.83	29724.80
680.97	29567.99
681.11	29553.94
681.25	29570.33
681.39	29546.92
681.52	29687.36
681.66	28807.31
681.80	28699.65
681.94	28905.62
682.07	28699.65
682.21	28687.95
682.35	28559.22
682.49	28217.50
682.62	28868.17
682.76	28716.03
682.90	28533.47
683.04	28716.03
683.17	28161.33
683.31	27957.70
683.45	27948.34
683.59	27892.16
683.72	27648.75
683.86	27810.25
684.00	27599.60
684.13	27639.39
684.27	27388.95
684.41	27344.48
684.55	27555.13
684.68	26939.57
684.82	26923.18
684.96	27054.25
685.09	27295.33
685.23	26843.60
685.37	27098.72
685.50	27014.46
685.64	26766.37
685.78	26576.78
685.91	26326.35
686.05	26553.38
686.19	25951.86
686.32	25816.11
686.46	25607.80
686.60	25612.48
686.73	25633.55
686.87	25340.98
687.01	25603.12
687.14	25521.20
687.28	25479.07
687.42	25280.13
687.55	25034.37
687.69	25205.23
687.82	25167.78
687.96	25090.54
688.10	24830.74
688.23	24907.98
688.37	24790.95
688.50	24875.21
688.64	24706.70
688.78	24608.39
688.91	24465.62
689.05	24245.61
689.18	23892.19
689.32	23314.08
689.46	23473.23
689.59	23997.51
689.73	24081.77
689.86	24013.90
690.00	23328.12
690.13	23494.30
690.27	23271.95
690.41	23077.68
690.54	23456.85
690.68	23236.84
690.81	23112.79
690.95	22534.68
691.08	22712.56
691.22	22499.57
691.35	22398.93
691.49	22703.20
691.62	22267.86
691.76	22111.04
691.89	22132.11
692.03	21575.06
692.16	21820.81
692.30	21785.71
692.43	21806.77
692.57	21825.50
692.70	21710.81
692.84	21474.42
692.97	21378.45
693.11	21130.36
693.24	20989.92
693.38	21170.15
693.51	21018.01
693.65	21099.93
693.78	20697.36
693.92	20844.81
694.05	20830.77
694.19	20442.24
694.32	20592.03
694.45	20790.98
694.59	20496.07
694.72	20648.21
694.86	20287.76
694.99	20046.69
695.13	19676.88
695.26	19868.81
695.39	20027.96
695.53	19564.54
695.66	19704.97
695.80	19711.99
695.93	19473.26
696.07	19688.59
696.20	19176.01
696.33	19166.65
696.47	18972.38
696.60	19157.28
696.73	18970.04
696.87	18682.16
697.00	18876.42
697.14	18665.77
697.27	18625.98
697.40	18326.39
697.54	18305.33
697.67	18778.12
697.80	18434.06
697.94	18136.81
698.07	18134.47
698.21	18031.49
698.34	18209.37
698.47	17750.62
698.61	17415.93
698.74	17659.34
698.87	17642.96
699.01	17090.59
699.14	17628.92
699.27	17376.14
699.40	17357.41
699.54	17310.60
699.67	17181.87
699.80	17238.05
699.94	17146.76
700.07	17209.96
700.20	16753.55
700.34	16669.30
700.47	16788.66
700.60	16877.60
700.73	16755.90
700.87	16444.60
701.00	16114.59
701.13	16147.36
701.26	16442.26
701.40	16053.73
701.53	16067.78
701.66	15901.60
701.79	15941.39
701.93	15686.27
702.06	15660.52
702.19	15557.54
702.32	15606.69
702.46	15683.93
702.59	15459.24
702.72	15492.01
702.85	15487.32
702.99	15321.15
703.12	15239.23
703.25	14876.44
703.38	14890.49
703.51	15054.33
703.65	14677.50
703.78	14876.44
703.91	14731.33
704.04	14499.62
704.17	14569.83
704.31	14450.47
704.44	14403.66
704.57	14263.22
704.70	14057.26
704.83	14312.38
704.96	14019.81
705.10	13987.04
705.23	13912.14
>>>>>End Processed Spectral Data<<<<<
