SpectraSuite Data File
++++++++++++++++++++++++++++++++++++
Date: Fri Oct 25 10:47:40 EDT 2013
User: price-jones
Dark Spectrum Present: No
Reference Spectrum Present: No
Number of Sampled Component Spectra: 1
Spectrometers: USB2+H05261
Integration Time (usec): 100000 (USB2+H05261)
Spectra Averaged: 1 (USB2+H05261)
Boxcar Smoothing: 0 (USB2+H05261)
Correct for Electrical Dark: No (USB2+H05261)
Strobe/Lamp Enabled: No (USB2+H05261)
Correct for Detector Non-linearity: No (USB2+H05261)
Correct for Stray Light: No (USB2+H05261)
Number of Pixels in Processed Spectrum: 2048
>>>>>Begin Processed Spectral Data<<<<<
365.73	142.77
365.92	142.77
366.12	142.77
366.32	98.30
366.52	93.62
366.72	53.83
366.91	28.09
367.11	77.24
367.31	42.13
367.51	58.51
367.70	4.68
367.90	14.04
368.10	65.54
368.30	49.15
368.49	44.47
368.69	60.85
368.89	0.00
369.09	21.06
369.28	39.79
369.48	72.56
369.68	72.56
369.87	163.84
370.07	124.05
370.27	91.28
370.47	180.22
370.66	376.83
370.86	421.30
371.06	440.02
371.25	428.32
371.45	493.85
371.65	477.47
371.84	379.17
372.04	461.09
372.24	449.38
372.44	472.79
372.63	479.81
372.83	512.58
373.03	526.62
373.22	533.64
373.42	575.77
373.62	472.79
373.81	491.51
374.01	528.96
374.21	533.64
374.40	540.66
374.60	643.65
374.79	557.05
374.99	498.53
375.19	545.34
375.38	594.50
375.58	631.94
375.78	557.05
375.97	596.84
376.17	552.37
376.37	552.37
376.56	706.84
376.76	552.37
376.95	641.31
377.15	571.09
377.35	657.69
377.54	606.20
377.74	566.41
377.93	568.75
378.13	655.35
378.33	629.60
378.52	582.79
378.72	723.23
378.91	676.41
379.11	631.94
379.31	648.33
379.50	622.58
379.70	692.80
379.89	697.48
380.09	617.90
380.28	648.33
380.48	641.31
380.68	734.93
380.87	653.01
381.07	660.03
381.26	734.93
381.46	645.99
381.65	732.59
381.85	697.48
382.04	674.07
382.24	692.80
382.43	767.70
382.63	711.52
382.83	662.37
383.02	655.35
383.22	741.95
383.41	784.08
383.61	739.61
383.80	772.38
384.00	758.33
384.19	770.04
384.39	732.59
384.58	793.44
384.78	805.14
384.97	793.44
385.17	802.80
385.36	748.97
385.56	781.74
385.75	748.97
385.95	753.65
386.14	744.29
386.34	767.70
386.53	812.17
386.72	819.19
386.92	931.53
387.11	875.36
387.31	861.32
387.50	840.25
387.70	870.68
387.89	931.53
388.09	868.34
388.28	833.23
388.48	875.36
388.67	926.85
388.86	908.13
389.06	840.25
389.25	929.19
389.45	933.87
389.64	788.76
389.84	915.15
390.03	1001.75
390.22	992.39
390.42	926.85
390.61	976.00
390.81	924.51
391.00	1015.79
391.19	1060.26
391.39	994.73
391.58	957.28
391.78	1006.43
391.97	931.53
392.16	936.21
392.36	1015.79
392.55	980.68
392.75	959.62
392.94	905.79
393.13	947.92
393.33	933.87
393.52	1011.11
393.71	1111.75
393.91	1020.47
394.10	1057.92
394.29	1100.05
394.49	1057.92
394.68	1156.22
394.88	1156.22
395.07	1158.57
395.26	1102.39
395.46	1158.57
395.65	1078.99
395.84	1160.91
396.04	1137.50
396.23	1104.73
396.42	1081.33
396.62	1179.63
396.81	1184.31
397.00	1174.95
397.19	1146.86
397.39	1193.67
397.58	1221.76
397.77	1336.45
397.97	1280.27
398.16	1299.00
398.35	1252.19
398.55	1252.19
398.74	1284.95
398.93	1488.58
399.12	1446.45
399.32	1270.91
399.51	1376.24
399.70	1359.85
399.90	1423.05
400.09	1345.81
400.28	1401.98
400.47	1511.99
400.67	1516.67
400.86	1439.43
401.05	1474.54
401.24	1589.22
401.44	1516.67
401.63	1486.24
401.82	1455.81
402.01	1439.43
402.21	1507.30
402.40	1514.33
402.59	1504.96
402.78	1586.88
402.97	1533.05
403.17	1607.95
403.36	1607.95
403.55	1582.20
403.74	1619.65
403.93	1741.36
404.13	1710.93
404.32	1621.99
404.51	1724.97
404.70	1640.72
404.89	1572.84
405.09	1799.87
405.28	1764.76
405.47	1736.68
405.66	1823.28
405.85	1771.79
406.05	1764.76
406.24	1816.26
406.43	1834.98
406.62	1893.49
406.81	1959.03
407.00	1788.17
407.20	1870.09
407.39	1853.70
407.58	1952.01
407.77	1942.64
407.96	1998.82
408.15	2029.24
408.34	2015.20
408.54	2045.63
408.73	2019.88
408.92	1949.67
409.11	2045.63
409.30	1970.73
409.49	2120.53
409.68	2043.29
409.87	2040.95
410.07	2181.38
410.26	2139.25
410.45	2188.40
410.64	2167.34
410.83	2204.78
411.02	2305.43
411.21	2289.04
411.40	2200.10
411.59	2373.30
411.78	2345.22
411.98	2331.17
412.17	2448.20
412.36	2377.98
412.55	2466.92
412.74	2424.80
412.93	2511.39
413.12	2473.95
413.31	2541.82
413.50	2499.69
413.69	2560.55
413.88	2612.04
414.07	2605.02
414.26	2656.51
414.45	2612.04
414.64	2623.74
414.83	2754.81
415.02	2736.09
415.22	2715.02
415.41	2700.98
415.60	2750.13
415.79	2916.31
415.98	2895.24
416.17	2977.16
416.36	2942.05
416.55	2888.22
416.74	3014.61
416.93	2839.07
417.12	2977.16
417.31	3080.14
417.50	3133.98
417.69	3110.57
417.88	3063.76
418.07	3091.85
418.26	3080.14
418.45	3096.53
418.64	3220.58
418.83	3218.24
419.02	3227.60
419.21	3342.28
419.39	3295.47
419.58	3290.79
419.77	3253.34
419.96	3344.63
420.15	3452.29
420.34	3232.28
420.53	3414.84
420.72	3445.27
420.91	3431.23
421.10	3440.59
421.29	3475.70
421.48	3407.82
421.67	3353.99
421.86	3503.78
422.05	3442.93
422.24	3445.27
422.43	3456.97
422.61	3487.40
422.80	3641.87
422.99	3440.59
423.18	3550.59
423.37	3506.12
423.56	3480.38
423.75	3576.34
423.94	3552.93
424.13	3302.50
424.32	3463.99
424.50	3562.30
424.69	3658.26
424.88	3658.26
425.07	3527.19
425.26	3503.78
425.45	3639.53
425.64	3569.32
425.83	3672.30
426.01	3726.13
426.20	3513.14
426.39	3597.40
426.58	3644.21
426.77	3714.43
426.96	3595.06
427.15	3627.83
427.33	3698.05
427.52	3829.12
427.71	3681.66
427.90	3658.26
428.09	3679.32
428.28	3779.97
428.46	3815.07
428.65	3906.35
428.84	3859.54
429.03	3920.40
429.22	3871.25
429.40	3889.97
429.59	3873.59
429.78	3698.05
429.97	3691.02
430.16	3749.54
430.34	3850.18
430.53	3899.33
430.72	3918.06
430.91	3971.89
431.10	4049.13
431.28	4032.74
431.47	4273.82
431.66	4100.62
431.85	4149.77
432.03	4210.62
432.22	4334.67
432.41	4224.67
432.60	4217.65
432.79	4294.88
432.97	4393.19
433.16	4360.42
433.35	4191.90
433.54	4332.33
433.72	4327.65
433.91	4301.90
434.10	4393.19
434.28	4243.39
434.47	4564.04
434.66	4491.49
434.85	4552.34
435.03	4521.92
435.22	4484.47
435.41	4550.00
435.59	4575.75
435.78	4578.09
435.97	4645.96
436.16	4613.20
436.34	4496.17
436.53	4641.28
436.72	4741.93
436.90	4641.28
437.09	4821.50
437.28	4585.11
437.46	4755.97
437.65	4603.83
437.84	4737.24
438.02	4903.42
438.21	4723.20
438.40	4713.84
438.58	4870.65
438.77	4945.55
438.96	5020.45
439.14	4992.36
439.33	4975.98
439.52	5158.54
439.70	5163.22
439.89	5111.73
440.08	5327.06
440.26	5172.58
440.45	5245.14
440.63	5179.61
440.82	5465.15
441.01	5467.49
441.19	5427.70
441.38	5633.67
441.57	5584.52
441.75	5507.28
441.94	5610.26
442.12	5645.37
442.31	5818.57
442.50	5734.31
442.68	5703.89
442.87	5696.86
443.05	5743.67
443.24	5905.17
443.43	5830.27
443.61	5841.98
443.80	6017.52
443.98	5867.72
444.17	5764.74
444.35	5944.96
444.54	5968.37
444.73	6076.03
444.91	6026.88
445.10	5823.25
445.28	5930.92
445.47	5792.83
445.65	5767.08
445.84	6019.86
446.02	6031.56
446.21	5989.43
446.39	5795.17
446.58	6169.65
446.77	5975.39
446.95	5947.30
447.14	6148.59
447.32	6071.35
447.51	6106.46
447.69	5989.43
447.88	5996.45
448.06	6029.22
448.25	5900.49
448.43	6143.91
448.62	6141.57
448.80	5970.71
448.99	6101.78
449.17	6164.97
449.36	6228.17
449.54	6349.87
449.73	6214.12
449.91	6438.81
450.10	6567.54
450.28	6457.54
450.46	6555.84
450.65	6476.26
450.83	6408.39
451.02	6555.84
451.20	6569.88
451.39	6607.33
451.57	6609.67
451.76	6553.50
451.94	6452.86
452.13	6593.29
452.31	6612.01
452.49	6424.77
452.68	6644.78
452.86	6560.52
453.05	6640.10
453.23	6956.07
453.42	6553.50
453.60	6595.63
453.78	6764.15
453.97	6630.74
454.15	6780.53
454.34	6864.79
454.52	6923.30
454.70	6932.67
454.89	6925.65
455.07	6808.62
455.26	7009.90
455.44	7021.61
455.62	7045.01
455.81	7028.63
455.99	6846.07
456.17	7023.95
456.36	7133.95
456.54	7075.44
456.73	7133.95
456.91	7431.20
457.09	7382.05
457.28	7440.56
457.46	7461.63
457.64	7274.38
457.83	7396.09
458.01	7428.86
458.19	7627.81
458.38	7506.10
458.56	7452.27
458.74	7541.21
458.93	7571.63
459.11	7552.91
459.29	7693.34
459.48	7648.87
459.66	7665.25
459.84	7672.28
460.03	7763.56
460.21	7742.49
460.39	7817.39
460.57	7838.45
460.76	7765.90
460.94	7908.67
461.12	7922.71
461.31	7948.46
461.49	7960.16
461.67	7819.73
461.85	8116.98
462.04	7817.39
462.22	8226.98
462.40	8166.13
462.59	7864.20
462.77	8072.51
462.95	8049.10
463.13	8182.51
463.32	8140.38
463.50	8285.50
463.68	8131.02
463.86	8156.77
464.05	8049.10
464.23	8128.68
464.41	8138.04
464.59	8358.05
464.78	8362.73
464.96	8468.06
465.14	8287.84
465.32	8285.50
465.50	8423.59
465.69	8423.59
465.87	8205.92
466.05	8456.36
466.23	8407.20
466.41	8461.04
466.60	8655.30
466.78	8358.05
466.96	8484.44
467.14	8594.45
467.32	8493.80
467.51	8875.31
467.69	8334.65
467.87	8657.64
468.05	8795.73
468.23	8496.14
468.41	8542.96
468.60	8814.46
468.78	8851.91
468.96	8999.36
469.14	8868.29
469.32	8961.91
469.50	8535.93
469.69	8931.48
469.87	9158.52
470.05	9266.18
470.23	8985.32
470.41	8915.10
470.59	9130.43
470.77	9025.11
470.95	9287.25
471.14	9146.81
471.32	9139.79
471.50	9312.99
471.68	9336.40
471.86	9444.06
472.04	9451.08
472.22	9659.39
472.40	9275.54
472.58	9593.86
472.77	9507.26
472.95	9650.03
473.13	9923.87
473.31	9694.50
473.49	9795.14
473.67	9523.64
473.85	9675.77
474.03	10127.50
474.21	10171.97
474.39	10352.19
474.57	9837.27
474.75	10305.38
474.93	10289.00
475.12	10270.27
475.30	10375.59
475.48	10253.89
475.66	10464.54
475.84	10562.84
476.02	10445.81
476.20	10558.16
476.38	10775.83
476.56	10869.45
476.74	10937.32
476.92	10857.75
477.10	10883.49
477.28	10927.96
477.46	10965.41
477.64	11063.71
477.82	11449.90
478.00	11440.54
478.18	11513.10
478.36	11419.47
478.54	11758.85
478.72	11627.78
478.90	11798.64
479.08	11845.45
479.26	12079.50
479.44	11976.52
479.62	12128.66
479.80	12222.28
479.98	12278.45
480.16	12451.65
480.34	12519.53
480.52	12521.87
480.70	12821.45
480.88	12496.12
481.06	12666.98
481.24	12556.97
481.41	13111.68
481.59	13240.41
481.77	13156.15
481.95	13376.16
482.13	13689.79
482.31	13390.20
482.49	13556.38
482.67	13767.03
482.85	13834.91
483.03	13781.07
483.21	14134.50
483.39	14157.90
483.57	14057.26
483.74	14370.89
483.92	14637.71
484.10	13970.66
484.28	14728.99
484.46	15023.90
484.64	14956.02
484.82	14733.67
485.00	14806.23
485.18	15255.61
485.35	15147.95
485.53	15192.42
485.71	15227.53
485.89	15733.08
486.07	15353.91
486.25	15510.73
486.43	15690.95
486.61	15819.68
486.78	16137.99
486.96	16379.07
487.14	16517.16
487.32	16285.45
487.50	16973.56
487.68	16723.13
487.85	17022.72
488.03	17172.51
488.21	17277.83
488.39	17373.80
488.57	17497.84
488.75	17619.55
488.92	17664.02
489.10	17736.58
489.28	17958.93
489.46	18111.07
489.64	17935.53
489.81	18703.22
489.99	18607.26
490.17	18679.82
490.35	18705.56
490.53	18820.25
490.70	18773.44
490.88	19082.39
491.06	19267.29
491.24	19197.07
491.41	19199.41
491.59	19183.03
491.77	19484.96
491.95	19805.61
492.13	19779.87
492.30	20119.24
492.48	19819.66
492.66	20243.29
492.84	20037.33
493.01	20561.61
493.19	20362.66
493.37	20748.85
493.54	20781.62
493.72	20978.22
493.90	21043.76
494.08	21263.77
494.25	21586.76
494.43	21593.78
494.61	21811.45
494.79	21785.71
494.96	21647.61
495.14	21671.02
495.32	22068.91
495.49	21827.84
495.67	22607.23
495.85	22352.12
496.02	22382.54
496.20	22874.06
496.38	22740.64
496.55	22810.86
496.73	23091.73
496.91	22754.69
497.09	23183.01
497.26	23173.64
497.44	23225.14
497.62	23342.16
497.79	23623.03
497.97	23484.94
498.14	24091.13
498.32	23709.63
498.50	23875.80
498.67	24648.18
498.85	24201.14
499.03	24147.31
499.20	24641.16
499.38	24444.56
499.56	24482.00
499.73	24797.98
499.91	24631.80
500.08	25074.16
500.26	24711.38
500.44	24821.38
500.61	24861.17
500.79	24982.88
500.97	25200.55
501.14	25458.01
501.32	25420.56
501.49	25568.01
501.67	25619.50
501.84	25848.88
502.02	25649.93
502.20	26171.87
502.37	25825.47
502.55	25958.88
502.72	26349.75
502.90	26232.72
503.07	26150.81
503.25	26274.85
503.43	26127.40
503.60	26595.51
503.78	26244.43
503.95	26494.86
504.13	26574.44
504.30	26693.81
504.48	26871.69
504.65	27035.53
504.83	27068.30
505.01	27112.77
505.18	26925.52
505.36	27637.05
505.53	27091.70
505.71	27749.39
505.88	27922.59
506.06	27721.30
506.23	28222.18
506.41	27655.77
506.58	27922.59
506.76	28231.54
506.93	28163.67
507.11	28680.92
507.28	28093.45
507.46	28034.94
507.63	28376.66
507.81	28463.25
507.98	28388.36
508.16	28208.14
508.33	28671.56
508.50	28830.72
508.68	29184.14
508.85	29247.33
509.03	28936.04
509.20	29394.79
509.38	29455.64
509.55	29567.99
509.73	29553.94
509.90	29586.71
510.08	29212.23
510.25	29689.70
510.42	29738.85
510.60	29919.07
510.77	29804.38
510.95	29970.56
511.12	29811.40
511.30	30122.69
511.47	30586.12
511.64	30181.21
511.82	30426.96
511.99	29944.81
512.17	30691.44
512.34	30270.15
512.51	30817.83
512.69	30396.54
512.86	30871.67
513.04	30852.94
513.21	30792.09
513.38	30780.39
513.56	30953.58
513.73	30806.13
513.90	31002.74
514.08	31035.50
514.25	31042.53
514.43	31594.89
514.60	31409.99
514.77	31330.41
514.95	31615.96
515.12	31431.05
515.29	31882.78
515.47	32109.81
515.64	31875.76
515.81	32060.66
515.99	32041.93
516.16	32030.23
516.33	31718.94
516.51	31981.08
516.68	31747.03
516.85	31714.26
517.03	32102.79
517.20	32271.31
517.37	32624.73
517.54	32879.85
517.72	32517.06
517.89	32498.34
518.06	32732.39
518.24	32121.51
518.41	32598.98
518.58	32734.73
518.75	32610.68
518.93	33020.28
519.10	33181.77
519.27	33464.98
519.45	33390.08
519.62	33830.10
519.79	33453.28
519.96	33226.24
520.14	33614.77
520.31	33582.01
520.48	33783.29
520.65	33759.89
520.83	34071.18
521.00	33670.95
521.17	34293.53
521.34	33937.77
521.52	34338.00
521.69	34553.33
521.86	34349.70
522.03	34387.15
522.20	34803.77
522.38	34335.66
522.55	34452.69
522.72	34558.01
522.89	34394.17
523.07	35117.40
523.24	34480.77
523.41	34876.32
523.58	35138.46
523.75	35257.83
523.92	35115.06
524.10	34991.01
524.27	35154.85
524.44	35194.64
524.61	35400.60
524.78	35723.60
524.96	35634.66
525.13	35686.15
525.30	36184.68
525.47	35995.10
525.64	35424.01
525.81	35466.14
525.98	35522.31
526.16	35323.36
526.33	35833.60
526.50	35798.49
526.67	35632.32
526.84	36123.83
527.01	36432.78
527.18	36165.96
527.36	36400.01
527.53	36783.86
527.70	36701.94
527.87	36559.17
528.04	36201.07
528.21	36467.89
528.38	36467.89
528.55	36933.65
528.72	36971.10
528.89	36797.90
529.07	36889.18
529.24	36622.36
529.41	36748.75
529.58	37268.35
529.75	36624.70
529.92	37202.82
530.09	37092.81
530.26	36840.03
530.43	37476.66
530.60	37186.43
530.77	37069.40
530.94	37380.70
531.11	37462.61
531.28	37329.20
531.46	37731.78
531.63	37570.28
531.80	37736.46
531.97	37804.33
532.14	37509.43
532.31	37755.18
532.48	37900.29
532.65	37900.29
532.82	37839.44
532.99	38197.54
533.16	37687.31
533.33	38218.61
533.50	38319.25
533.67	38167.12
533.84	37940.08
534.01	38326.27
534.18	38022.00
534.35	38658.63
534.52	37977.53
534.69	38747.57
534.86	38590.75
535.03	38373.08
535.20	38593.09
535.37	39201.63
535.54	39005.03
535.71	38691.40
535.88	38579.05
536.05	38738.21
536.22	39187.59
536.38	38906.73
536.55	38913.75
536.72	39012.05
536.89	38440.96
537.06	38913.75
537.23	39360.79
537.40	38677.35
537.57	39253.12
537.74	38944.17
537.91	39398.24
538.08	39082.27
538.25	39367.81
538.42	39421.64
538.59	39330.36
538.75	39196.95
538.92	39531.65
539.09	39641.65
539.26	39601.86
539.43	39763.36
539.60	39896.77
539.77	39676.76
539.94	39679.10
540.11	39079.92
540.28	39964.65
540.44	39873.37
540.61	39536.33
540.78	39608.89
540.95	39229.72
541.12	39950.60
541.29	39601.86
541.46	40158.91
541.62	40067.63
541.79	40315.73
541.96	40088.70
542.13	40158.91
542.30	40542.76
542.47	40107.42
542.63	40495.95
542.80	40369.56
542.97	41198.11
543.14	40905.54
543.31	40493.61
543.48	40875.12
543.64	41003.85
543.81	40914.90
543.98	41055.34
544.15	40814.26
544.32	40783.83
544.48	41350.24
544.65	41207.47
544.82	41212.15
544.99	40917.25
545.16	41436.84
545.32	41060.02
545.49	41481.31
545.66	41474.29
545.83	41383.01
546.00	41993.89
546.16	42082.83
546.33	40685.53
546.50	40851.71
546.67	41324.50
546.83	40903.20
547.00	41434.50
547.17	41497.70
547.34	41577.28
547.50	41893.25
547.67	41701.32
547.84	41911.97
548.00	41963.46
548.17	41780.90
548.34	42052.41
548.51	42410.51
548.67	41970.49
548.84	42003.25
549.01	41944.74
549.18	41799.63
549.34	42337.95
549.51	41949.42
549.68	42387.10
549.84	42162.41
550.01	42726.48
550.18	42122.62
550.34	42370.72
550.51	42171.77
550.68	42099.22
550.84	41696.64
551.01	42445.62
551.18	41944.74
551.34	42347.31
551.51	42761.59
551.68	42469.02
551.84	42567.32
552.01	42728.82
552.18	42572.00
552.34	42279.44
552.51	42644.56
552.68	42703.07
552.84	42916.06
553.01	43316.29
553.18	42995.64
553.34	42768.61
553.51	43140.75
553.67	42658.60
553.84	43248.42
554.01	43159.48
554.17	43288.21
554.34	43023.73
554.51	42960.53
554.67	43107.99
554.84	42621.16
555.00	43180.54
555.17	42916.06
555.33	42988.62
555.50	42712.44
555.67	42953.51
555.83	43414.60
556.00	43129.05
556.16	43622.90
556.33	43180.54
556.50	43236.72
556.66	43328.00
556.83	43037.77
556.99	43456.73
557.16	43105.65
557.32	43276.51
557.49	43379.49
557.65	43107.99
557.82	43267.14
557.98	43459.07
558.15	43625.25
558.32	43711.84
558.48	43594.82
558.65	43477.79
558.81	43704.82
558.98	43533.96
559.14	44034.84
559.31	43449.70
559.47	43716.53
559.64	44203.36
559.80	44062.93
559.97	43751.63
560.13	43468.43
560.30	43590.14
560.46	43349.06
560.63	43697.80
560.79	43931.86
560.96	44037.18
561.12	44069.95
561.29	44425.71
561.45	43978.67
561.61	43873.34
561.78	43922.49
561.94	43807.81
562.11	44254.85
562.27	43702.48
562.44	43407.58
562.60	44051.22
562.77	44308.68
562.93	44182.29
563.10	44135.48
563.26	44009.09
563.42	44006.75
563.59	43725.89
563.75	43992.71
563.92	44444.43
564.08	44350.81
564.24	44308.68
564.41	44467.84
564.57	44140.16
564.74	44149.53
564.90	44531.03
565.07	44465.50
565.23	44065.27
565.39	44292.30
565.56	44526.35
565.72	43952.92
565.88	44030.16
566.05	44364.85
566.21	44170.59
566.38	44091.01
566.54	44025.48
566.70	44339.11
566.87	44294.64
567.03	44336.77
567.19	44877.43
567.36	44748.70
567.52	44577.84
567.68	44694.87
567.85	44294.64
568.01	44404.64
568.17	44250.17
568.34	44964.03
568.50	44624.65
568.66	44786.15
568.83	44556.78
568.99	44505.29
569.15	44774.45
569.32	44619.97
569.48	44589.55
569.64	44727.64
569.81	45001.48
569.97	44676.15
570.13	44502.95
570.30	44423.37
570.46	44128.46
570.62	44149.53
570.78	44315.70
570.95	44161.23
571.11	44837.64
571.27	44542.74
571.43	44486.56
571.60	44781.47
571.76	44755.72
571.92	44650.40
572.09	44486.56
572.25	44512.31
572.41	44617.63
572.57	44992.12
572.74	45120.85
572.90	44687.85
573.06	44800.19
573.22	44879.77
573.38	44662.10
573.55	44261.87
573.71	44863.39
573.87	44891.48
574.03	44456.14
574.20	44713.59
574.36	44608.27
574.52	44849.35
574.68	45298.73
574.84	44687.85
575.01	44552.10
575.17	44758.06
575.33	44945.31
575.49	44261.87
575.65	44926.58
575.82	45181.70
575.98	44800.19
576.14	45174.68
576.30	44823.60
576.46	44690.19
576.62	44697.21
576.79	44151.87
576.95	44135.48
577.11	44828.28
577.27	44842.32
577.43	45010.84
577.59	44748.70
577.75	45106.80
577.92	44680.83
578.08	44746.36
578.24	44641.04
578.40	44697.21
578.56	44577.84
578.72	45034.25
578.88	44739.34
579.04	44509.97
579.21	44568.48
579.37	44938.29
579.53	44692.53
579.69	44664.44
579.85	44905.52
580.01	45001.48
580.17	44699.55
580.33	45008.50
580.49	44945.31
580.65	44776.79
580.82	44823.60
580.98	44484.22
581.14	44617.63
581.30	44849.35
581.46	44680.83
581.62	45045.95
581.78	45041.27
581.94	44816.58
582.10	45256.60
582.26	45249.58
582.42	44629.34
582.58	44926.58
582.74	44566.14
582.90	44421.03
583.06	45123.19
583.22	44776.79
583.38	45280.00
583.54	44949.99
583.70	45221.49
583.86	44957.01
584.02	44816.58
584.18	44699.55
584.34	45170.00
584.50	44982.76
584.66	44608.27
584.82	44889.13
584.98	45017.86
585.14	44692.53
585.30	44877.43
585.46	44849.35
585.62	45162.98
585.78	44863.39
585.94	44201.02
586.10	44809.56
586.26	45067.02
586.42	45116.17
586.58	45272.98
586.74	45102.12
586.90	44683.17
587.06	44839.98
587.22	45050.63
587.38	44406.98
587.54	45251.92
587.70	45125.53
587.86	45139.57
588.02	45595.98
588.18	45282.34
588.34	44830.62
588.49	44509.97
588.65	44514.65
588.81	44474.86
588.97	44554.44
589.13	45139.57
589.29	44790.83
589.45	44884.45
589.61	45113.83
589.77	45298.73
589.93	44856.37
590.08	45162.98
590.24	45001.48
590.40	44978.07
590.56	45497.67
590.72	45469.59
590.88	45184.04
591.04	45092.76
591.20	45537.46
591.35	45324.47
591.51	45528.10
591.67	45390.01
591.83	45296.39
591.99	45109.14
592.15	45048.29
592.31	45296.39
592.46	45418.10
592.62	45558.53
592.78	45153.62
592.94	45689.60
593.10	45078.72
593.26	45228.51
593.41	45539.80
593.57	45118.51
593.73	45366.60
593.89	45413.41
594.05	45539.80
594.20	45223.83
594.36	45413.41
594.52	45275.32
594.68	45406.39
594.84	45439.16
594.99	45556.19
595.15	45647.47
595.31	45406.39
595.47	45209.79
595.62	45265.96
595.78	45305.75
595.94	45319.79
596.10	45464.91
596.25	45511.72
596.41	45586.61
596.57	45757.47
596.73	45518.74
596.88	45048.29
597.04	45375.97
597.20	45495.33
597.36	45366.60
597.51	45708.32
597.67	45490.65
597.83	45654.49
597.99	45713.00
598.14	45258.94
598.30	45326.81
598.46	45347.88
598.61	45542.14
598.77	45240.21
598.93	45308.09
599.09	45226.17
599.24	45933.01
599.40	45366.60
599.56	45663.85
599.71	45715.34
599.87	45553.85
600.03	45240.21
600.18	45593.64
600.34	45673.21
600.50	45949.40
600.65	45612.36
600.81	45675.55
600.97	46033.66
601.12	45577.25
601.28	45242.56
601.44	45514.06
601.59	45673.21
601.75	45294.05
601.91	45415.76
602.06	44964.03
602.22	45787.90
602.37	45338.52
602.53	45399.37
602.69	45598.32
602.84	45411.07
603.00	45577.25
603.16	45249.58
603.31	45174.68
603.47	45390.01
603.62	45745.77
603.78	45720.02
603.94	45418.10
604.09	45570.23
604.25	45160.64
604.40	45333.84
604.56	45287.03
604.71	45242.56
604.87	45375.97
605.03	45607.68
605.18	45347.88
605.34	45350.22
605.49	44907.86
605.65	45256.60
605.80	45085.74
605.96	45406.39
606.12	45673.21
606.27	45425.12
606.43	45556.19
606.58	45455.54
606.74	44900.84
606.89	45502.35
607.05	45001.48
607.20	45565.55
607.36	45563.21
607.51	45553.85
607.67	45312.77
607.82	45584.27
607.98	45106.80
608.13	45113.83
608.29	45235.53
608.44	44949.99
608.60	44528.69
608.75	44863.39
608.91	45029.57
609.06	44774.45
609.22	45177.02
609.37	45144.25
609.53	45024.89
609.68	44753.38
609.84	44985.10
609.99	45069.36
610.15	45350.22
610.30	45031.91
610.46	44671.46
610.61	44685.51
610.76	45184.04
610.92	44608.27
611.07	44999.14
611.23	44678.49
611.38	45062.33
611.54	44509.97
611.69	44746.36
611.84	44748.70
612.00	44835.30
612.15	44418.69
612.31	44680.83
612.46	44921.90
612.62	44847.00
612.77	44341.45
612.92	44729.98
613.08	44119.10
613.23	44739.34
613.39	44762.75
613.54	44641.04
613.69	44186.97
613.85	44378.90
614.00	45191.06
614.15	44701.89
614.31	44095.69
614.46	44638.70
614.62	44411.67
614.77	44306.34
614.92	44318.04
615.08	44559.12
615.23	44425.71
615.38	44287.62
615.54	44072.29
615.69	44547.42
615.84	43681.42
616.00	44301.66
616.15	44315.70
616.30	44105.06
616.46	43924.83
616.61	43758.66
616.76	43854.62
616.92	43903.77
617.07	44112.08
617.22	43522.26
617.37	43777.38
617.53	43856.96
617.68	44018.46
617.83	44418.69
617.99	44456.14
618.14	43990.37
618.29	43906.11
618.45	43964.62
618.60	43789.08
618.75	43969.30
618.90	43456.73
619.06	44257.19
619.21	43959.94
619.36	43915.47
619.51	43791.42
619.67	43438.00
619.82	43805.47
619.97	43981.01
620.12	43737.59
620.28	43255.44
620.43	43447.36
620.58	43903.77
620.73	43852.28
620.89	43253.10
621.04	43871.00
621.19	43620.56
621.34	43047.13
621.49	43723.55
621.65	43009.68
621.80	43466.09
621.95	43210.97
622.10	43129.05
622.25	43405.23
622.41	43199.27
622.56	42667.97
622.71	43662.69
622.86	43236.72
623.01	43005.00
623.16	43229.69
623.32	43452.05
623.47	43508.22
623.62	43496.52
623.77	43056.50
623.92	42890.32
624.07	42784.99
624.23	42934.79
624.38	42342.63
624.53	43105.65
624.68	43077.56
624.83	42967.55
624.98	42677.33
625.13	42855.21
625.29	42667.97
625.44	42834.14
625.59	42604.77
625.74	42305.18
625.89	42586.05
626.04	42202.20
626.19	42405.83
626.34	42312.20
626.49	42415.19
626.65	42506.47
626.80	42595.41
626.95	42323.91
627.10	42197.52
627.25	42555.62
627.40	42305.18
627.55	41916.65
627.70	42005.59
627.85	42162.41
628.00	42082.83
628.15	42408.17
628.30	42745.20
628.45	41965.81
628.60	42241.99
628.76	42277.10
628.91	42209.22
629.06	41902.61
629.21	42284.12
629.36	41998.57
629.51	42136.66
629.66	42106.24
629.81	41808.99
629.96	42106.24
630.11	41724.73
630.26	41914.31
630.41	41914.31
630.56	41530.47
630.71	42061.77
630.86	41825.37
631.01	41799.63
631.16	41816.01
631.31	41336.20
631.46	41308.11
631.61	41605.36
631.76	41474.29
631.91	41542.17
632.06	41495.36
632.21	42066.45
632.36	41504.72
632.51	41153.64
632.66	41244.92
632.81	41268.33
632.96	41467.27
633.10	41221.52
633.25	40875.12
633.40	41345.56
633.55	41364.29
633.70	41448.55
633.85	41315.14
634.00	41109.17
634.15	41205.13
634.30	41242.58
634.45	41191.09
634.60	40964.06
634.75	41619.41
634.90	41212.15
635.05	40870.43
635.19	41106.83
635.34	41301.09
635.49	40851.71
635.64	41170.02
635.79	40790.86
635.94	40856.39
636.09	40706.60
636.24	40884.48
636.39	40135.51
636.53	40832.99
636.68	40399.99
636.83	40493.61
636.98	40547.44
637.13	40030.18
637.28	40627.02
637.43	40779.15
637.57	40802.56
637.72	40463.18
637.87	40935.97
638.02	40355.52
638.17	40659.79
638.32	40554.46
638.46	40362.54
638.61	40488.93
638.76	40189.34
638.91	40343.81
639.06	40187.00
639.20	40612.98
639.35	40509.99
639.50	39796.13
639.65	40081.67
639.80	40264.24
639.94	40308.71
640.09	40629.36
640.24	39864.00
640.39	39739.96
640.54	40278.28
640.68	40399.99
640.83	39737.62
640.98	39641.65
641.13	39674.42
641.27	40084.01
641.42	39976.35
641.57	40357.86
641.72	39856.98
641.86	39651.02
642.01	39791.45
642.16	39880.39
642.31	39452.07
642.45	39782.09
642.60	39459.09
642.75	39199.29
642.90	39683.78
643.04	39304.62
643.19	39744.64
643.34	39517.60
643.48	39456.75
643.63	39594.84
643.78	39519.95
643.93	39168.87
644.07	39086.95
644.22	39117.37
644.37	39332.70
644.51	39321.00
644.66	38920.77
644.81	39171.21
644.95	39608.89
645.10	39672.08
645.25	39475.48
645.39	39632.29
645.54	39459.09
645.69	39377.17
645.83	39229.72
645.98	39033.11
646.13	39215.68
646.27	39536.33
646.42	39070.56
646.57	38852.89
646.71	38965.24
646.86	39119.71
647.00	39044.82
647.15	39201.63
647.30	39250.78
647.44	39150.14
647.59	39576.12
647.74	38829.49
647.88	38675.01
648.03	38546.28
648.17	38623.52
648.32	38747.57
648.47	38579.05
648.61	38527.56
648.76	38850.55
648.90	38766.29
649.05	38969.92
649.20	39002.69
649.34	38955.88
649.49	38766.29
649.63	38546.28
649.78	38597.77
649.92	37968.17
650.07	38698.42
650.21	37741.14
650.36	38600.12
650.51	37909.66
650.65	38932.47
650.80	39075.24
650.94	38827.15
651.09	38604.80
651.23	38164.78
651.38	38309.89
651.52	37998.60
651.67	38494.79
651.81	38284.14
651.96	37935.40
652.10	38188.18
652.25	38319.25
652.39	38052.43
652.54	38124.99
652.68	38314.57
652.83	38050.09
652.97	38770.97
653.12	38129.67
653.26	37998.60
653.41	38171.80
653.55	37731.78
653.70	37858.17
653.84	38412.87
653.99	37715.39
654.13	37600.71
654.27	37759.86
654.42	37523.47
654.56	37902.64
654.71	37659.22
654.85	37872.21
655.00	37682.62
655.14	37158.34
655.29	37422.83
655.43	37436.87
655.57	37226.22
655.72	37462.61
655.86	37088.13
656.01	37294.10
656.15	37422.83
656.30	37277.71
656.44	37036.64
656.58	36989.83
656.73	36795.56
656.87	37099.83
657.01	36914.93
657.16	36603.64
657.30	36690.24
657.45	36737.05
657.59	36659.81
657.73	36865.78
657.88	37322.18
658.02	36774.50
658.16	36875.14
658.31	36746.41
658.45	36828.33
658.60	36755.77
658.74	36996.85
658.88	36861.10
659.03	36683.22
659.17	36254.90
659.31	36746.41
659.46	36816.63
659.60	36371.92
659.74	36334.48
659.89	36488.95
660.03	36074.68
660.17	36577.89
660.32	36540.44
660.46	36467.89
660.60	36545.12
660.74	36598.96
660.89	36046.59
661.03	36039.57
661.17	36053.61
661.32	35957.65
661.46	35346.77
661.60	35737.64
661.74	35683.81
661.89	35707.21
662.03	35735.30
662.17	35372.52
662.31	35842.96
662.46	35913.18
662.60	35833.60
662.74	35756.36
662.88	35618.27
663.03	35367.84
663.17	35651.04
663.31	34969.94
663.45	35445.07
663.60	35367.84
663.74	35143.14
663.88	35164.21
664.02	35321.02
664.17	35440.39
664.31	35161.87
664.45	34937.18
664.59	35164.21
664.73	34946.54
664.88	34920.79
665.02	34728.87
665.16	35051.86
665.30	34838.87
665.44	34595.46
665.59	34433.96
665.73	34220.97
665.87	34139.05
666.01	34738.23
666.15	34593.12
666.29	34265.44
666.44	34319.28
666.58	34216.29
666.72	34345.02
666.86	34380.13
667.00	34567.37
667.14	34120.33
667.28	34052.45
667.43	33977.56
667.57	34054.79
667.71	33916.70
667.85	33785.63
667.99	33839.47
668.13	33694.35
668.27	34134.37
668.41	33785.63
668.56	33743.50
668.70	33722.44
668.84	33996.28
668.98	33390.08
669.12	33390.08
669.26	33294.12
669.40	33326.89
669.54	33359.66
669.68	33017.94
669.82	33298.80
669.96	32870.48
670.10	32910.27
670.25	33158.37
670.39	33130.28
670.53	32875.16
670.67	32524.08
670.81	32816.65
670.95	32973.47
671.09	33165.39
671.23	32905.59
671.37	32896.23
671.51	32292.37
671.65	32460.89
671.79	31861.71
671.93	32065.34
672.07	32615.37
672.21	32519.40
672.35	32308.76
672.49	32037.25
672.63	31758.73
672.77	31927.25
672.91	31896.82
673.05	31693.19
673.19	31529.36
673.33	31543.40
673.47	31545.74
673.61	31454.46
673.75	31356.16
673.89	31304.67
674.03	31087.00
674.17	31075.29
674.31	31241.47
674.45	30855.28
674.59	31316.37
674.73	31089.34
674.87	31218.07
675.01	30946.56
675.15	30944.22
675.29	31089.34
675.43	31019.12
675.56	30895.07
675.70	30462.07
675.84	30597.82
675.98	29521.18
676.12	30125.04
676.26	30246.74
676.40	30099.29
676.54	29642.88
676.68	30548.67
676.82	29277.76
676.96	30143.76
677.10	29776.30
677.23	29867.58
677.37	29876.94
677.51	29305.85
677.65	29427.56
677.79	29139.67
677.93	29244.99
678.07	28985.19
678.21	28828.38
678.34	28718.37
678.48	28711.35
678.62	28788.59
678.76	28397.72
678.90	28687.95
679.04	28458.57
679.18	28556.88
679.31	27969.40
679.45	27901.53
679.59	27908.55
679.73	28163.67
679.87	27974.08
680.00	27978.76
680.14	27566.83
680.28	27866.42
680.42	27508.32
680.56	27398.31
680.70	27477.89
680.83	27529.38
680.97	27243.84
681.11	26815.52
681.25	26848.29
681.39	27302.35
681.52	26883.39
681.66	27026.17
681.80	26717.22
681.94	27035.53
682.07	26686.79
682.21	26408.26
682.35	26621.25
682.49	26532.31
682.62	26492.52
682.76	26162.51
682.90	25942.50
683.04	26148.46
683.17	25909.73
683.31	25961.22
683.45	26188.25
683.59	26059.52
683.72	25369.07
683.86	25378.43
684.00	25448.64
684.13	25600.78
684.27	25308.21
684.41	25362.04
684.55	25273.10
684.68	24966.49
684.82	24968.84
684.96	25104.59
685.09	24720.74
685.23	24751.17
685.37	24467.96
685.50	24489.03
685.64	24678.61
685.78	24500.73
685.91	24304.12
686.05	24325.19
686.19	24086.45
686.32	23990.49
686.46	24009.22
686.60	23447.49
686.73	23548.13
686.87	23578.56
687.01	23372.59
687.14	23213.43
687.28	23157.26
687.42	23262.58
687.55	23206.41
687.69	23075.34
687.82	23133.86
687.96	22794.48
688.10	22801.50
688.23	22822.56
688.37	22373.18
688.50	22422.33
688.64	22621.28
688.78	22394.25
688.91	21937.84
689.05	22506.59
689.18	22218.71
689.32	22022.10
689.46	21802.09
689.59	22139.13
689.73	22188.28
689.86	21867.63
690.00	21926.14
690.13	21448.67
690.27	21633.57
690.41	21596.12
690.54	21221.64
690.68	21380.79
690.81	21504.84
690.95	20769.91
691.08	20898.64
691.22	21057.80
691.35	20746.51
691.49	20964.18
691.62	20964.18
691.76	20823.75
691.89	20957.16
692.03	20669.27
692.16	20372.02
692.30	20184.78
692.43	20437.56
692.57	20397.77
692.70	20482.03
692.84	20365.00
692.97	19967.11
693.11	20091.16
693.24	19847.74
693.38	19896.89
693.51	19374.95
693.65	19606.67
693.78	19889.87
693.92	19576.24
694.05	19428.79
694.19	19321.12
694.32	19227.50
694.45	19028.56
694.59	18897.49
694.72	19286.01
694.86	19075.37
694.99	18759.39
695.13	18651.73
695.26	18670.45
695.39	18340.44
695.53	18438.74
695.66	18530.02
695.80	18450.44
695.93	18438.74
696.07	18202.35
696.20	18415.34
696.33	18415.34
696.47	17982.34
696.60	17860.63
696.73	17755.30
696.87	17860.63
697.00	18047.87
697.14	17628.92
697.27	17460.40
697.40	17752.96
697.54	17397.20
697.67	17235.70
697.80	17401.88
697.94	17085.91
698.07	17205.28
698.21	17060.16
698.34	17160.81
698.47	17081.23
698.61	16666.95
698.74	16669.30
698.87	16685.68
699.01	15941.39
699.14	16563.97
699.27	16446.94
699.40	16423.54
699.54	16372.05
699.67	15934.37
699.80	16362.69
699.94	16336.94
700.07	16233.96
700.20	16194.17
700.34	15777.55
700.47	15861.81
700.60	15948.41
700.73	16011.60
700.87	15728.40
701.00	15527.11
701.13	15644.14
701.26	15585.63
701.40	15543.50
701.53	15594.99
701.66	15349.23
701.79	15033.26
701.93	15325.83
702.06	14815.59
702.19	14831.97
702.32	14668.14
702.46	14707.93
702.59	14897.51
702.72	14986.45
702.85	14773.46
702.99	14588.56
703.12	14822.61
703.25	14733.67
703.38	14565.15
703.51	14511.32
703.65	14272.59
703.78	14295.99
703.91	14087.68
704.04	14066.62
704.17	14059.60
704.31	13853.63
704.44	13757.67
704.57	13521.27
704.70	13434.68
704.83	13788.10
704.96	13797.46
705.10	14047.90
705.23	13736.60
>>>>>End Processed Spectral Data<<<<<
