SpectraSuite Data File
++++++++++++++++++++++++++++++++++++
Date: Fri Oct 25 10:44:01 EDT 2013
User: price-jones
Dark Spectrum Present: No
Reference Spectrum Present: No
Number of Sampled Component Spectra: 1
Spectrometers: USB2+H05261
Integration Time (usec): 100000 (USB2+H05261)
Spectra Averaged: 1 (USB2+H05261)
Boxcar Smoothing: 0 (USB2+H05261)
Correct for Electrical Dark: No (USB2+H05261)
Strobe/Lamp Enabled: No (USB2+H05261)
Correct for Detector Non-linearity: No (USB2+H05261)
Correct for Stray Light: No (USB2+H05261)
Number of Pixels in Processed Spectrum: 2048
>>>>>Begin Processed Spectral Data<<<<<
365.73	93.62
365.92	93.62
366.12	93.62
366.32	35.11
366.52	9.36
366.72	0.00
366.91	23.41
367.11	63.19
367.31	25.75
367.51	0.00
367.70	77.24
367.90	21.06
368.10	77.24
368.30	0.00
368.49	0.00
368.69	9.36
368.89	56.17
369.09	11.70
369.28	105.32
369.48	14.04
369.68	21.06
369.87	58.51
370.07	168.52
370.27	51.49
370.47	180.22
370.66	482.15
370.86	379.17
371.06	440.02
371.25	498.53
371.45	423.64
371.65	507.90
371.84	557.05
372.04	482.15
372.24	498.53
372.44	468.11
372.63	535.98
372.83	468.11
373.03	465.77
373.22	475.13
373.42	477.47
373.62	482.15
373.81	531.30
374.01	463.43
374.21	524.28
374.40	482.15
374.60	622.58
374.79	552.37
374.99	517.26
375.19	615.56
375.38	535.98
375.58	559.39
375.78	587.47
375.97	608.54
376.17	615.56
376.37	620.24
376.56	669.39
376.76	561.73
376.95	601.52
377.15	648.33
377.35	610.88
377.54	634.29
377.74	678.76
377.93	660.03
378.13	627.26
378.33	648.33
378.52	650.67
378.72	650.67
378.91	617.90
379.11	702.16
379.31	716.20
379.50	653.01
379.70	739.61
379.89	660.03
380.09	793.44
380.28	730.25
380.48	648.33
380.68	688.12
380.87	720.88
381.07	788.76
381.26	676.41
381.46	734.93
381.65	720.88
381.85	713.86
382.04	798.12
382.24	702.16
382.43	791.10
382.63	697.48
382.83	692.80
383.02	779.40
383.22	772.38
383.41	720.88
383.61	812.17
383.80	821.53
384.00	753.65
384.19	812.17
384.39	842.59
384.58	819.19
384.78	854.30
384.97	922.17
385.17	842.59
385.36	770.04
385.56	758.33
385.75	788.76
385.95	809.83
386.14	936.21
386.34	870.68
386.53	896.43
386.72	863.66
386.92	863.66
387.11	894.08
387.31	866.00
387.50	807.48
387.70	798.12
387.89	873.02
388.09	868.34
388.28	894.08
388.48	964.30
388.67	943.24
388.86	952.60
389.06	1050.90
389.25	1067.28
389.45	1011.11
389.64	987.71
389.84	1116.44
390.03	1015.79
390.22	1032.18
390.42	1032.18
390.61	1069.62
390.81	1048.56
391.00	1114.10
391.19	1158.57
391.39	1123.46
391.58	1093.03
391.78	1053.24
391.97	987.71
392.16	1053.24
392.36	1057.92
392.55	1139.84
392.75	999.41
392.94	1041.54
393.13	987.71
393.33	1013.45
393.52	1064.94
393.71	1121.12
393.91	1158.57
394.10	1078.99
394.29	1121.12
394.49	1203.04
394.68	1219.42
394.88	1273.25
395.07	1219.42
395.26	1228.78
395.46	1249.85
395.65	1196.01
395.84	1247.51
396.04	1341.13
396.23	1235.80
396.42	1144.52
396.62	1186.65
396.81	1252.19
397.00	1352.83
397.19	1350.49
397.39	1320.06
397.58	1404.32
397.77	1507.30
397.97	1462.83
398.16	1507.30
398.35	1453.47
398.55	1467.52
398.74	1610.29
398.93	1643.06
399.12	1533.05
399.32	1476.88
399.51	1626.67
399.70	1626.67
399.90	1582.20
400.09	1582.20
400.28	1696.89
400.47	1652.42
400.67	1834.98
400.86	1617.31
401.05	1818.60
401.24	1680.50
401.44	1685.19
401.63	1762.42
401.82	1830.30
402.01	1774.13
402.21	1795.19
402.40	1799.87
402.59	1816.26
402.78	1811.57
402.97	1811.57
403.17	1856.04
403.36	1919.24
403.55	1914.56
403.74	1994.14
403.93	1982.43
404.13	1893.49
404.32	1937.96
404.51	1966.05
404.70	2045.63
404.89	2015.20
405.09	1984.77
405.28	1921.58
405.47	2054.99
405.66	2085.42
405.85	2122.87
406.05	2022.22
406.24	2183.72
406.43	2092.44
406.62	2092.44
406.81	2146.27
407.00	2092.44
407.20	2101.80
407.39	2118.18
407.58	2200.10
407.77	2172.02
407.96	2340.54
408.15	2221.17
408.34	2333.51
408.54	2298.41
408.73	2293.72
408.92	2361.60
409.11	2544.16
409.30	2356.92
409.49	2223.51
409.68	2326.49
409.87	2354.58
410.07	2434.16
410.26	2483.31
410.45	2415.43
410.64	2509.05
410.83	2485.65
411.02	2602.68
411.21	2696.30
411.40	2541.82
411.59	2663.53
411.78	2654.17
411.98	2609.70
412.17	2691.62
412.36	2715.02
412.55	2761.83
412.74	2745.45
412.93	2792.26
413.12	2792.26
413.31	2981.84
413.50	2965.46
413.69	2937.37
413.88	2911.63
414.07	2965.46
414.26	2935.03
414.45	3009.93
414.64	3068.44
414.83	3087.17
415.02	3225.26
415.22	3253.34
415.41	3218.24
415.60	3323.56
415.79	3248.66
415.98	3410.16
416.17	3304.84
416.36	3302.50
416.55	3267.39
416.74	3344.63
416.93	3211.22
417.12	3485.06
417.31	3510.80
417.50	3459.31
417.69	3639.53
417.88	3534.21
418.07	3475.70
418.26	3513.14
418.45	3566.98
418.64	3761.24
418.83	3686.34
419.02	3728.47
419.21	3665.28
419.39	3681.66
419.58	3707.41
419.77	3634.85
419.96	3803.37
420.15	3775.28
420.34	3784.65
420.53	3904.01
420.72	3913.38
420.91	3962.53
421.10	4065.51
421.29	3999.98
421.48	3819.75
421.67	3948.48
421.86	3976.57
422.05	3894.65
422.24	3929.76
422.43	3871.25
422.61	4011.68
422.80	4086.58
422.99	4023.38
423.18	3971.89
423.37	4133.39
423.56	4044.45
423.75	3920.40
423.94	4025.72
424.13	3894.65
424.32	3852.52
424.50	4128.70
424.69	4264.46
424.88	4189.56
425.07	4077.21
425.26	4077.21
425.45	4114.66
425.64	4112.32
425.83	3943.80
426.01	4203.60
426.20	4114.66
426.39	4112.32
426.58	4016.36
426.77	4154.45
426.96	4058.49
427.15	3974.23
427.33	4114.66
427.52	4187.22
427.71	4208.28
427.90	4329.99
428.09	4461.06
428.28	4126.36
428.46	4285.52
428.65	4308.93
428.84	4341.69
429.03	4393.19
429.22	4234.03
429.40	4266.80
429.59	4222.33
429.78	4035.08
429.97	3969.55
430.16	4180.20
430.34	4142.75
430.53	4271.48
430.72	4234.03
430.91	4329.99
431.10	4358.08
431.28	4547.66
431.47	4676.39
431.66	4730.22
431.85	4711.50
432.03	4662.35
432.22	4861.29
432.41	4856.61
432.60	4809.80
432.79	4844.91
432.97	4915.12
433.16	4980.66
433.35	4767.67
433.54	4610.86
433.72	4896.40
433.91	4741.93
434.10	4908.10
434.28	4922.15
434.47	4784.06
434.66	4926.83
434.85	5188.97
435.03	4980.66
435.22	5121.09
435.41	5146.84
435.59	5214.71
435.78	5146.84
435.97	5210.03
436.16	5240.46
436.34	5301.31
436.53	5254.50
436.72	5369.19
436.90	5191.31
437.09	5270.89
437.28	5296.63
437.46	5420.68
437.65	5394.93
437.84	5420.68
438.02	5416.00
438.21	5289.61
438.40	5184.29
438.58	5423.02
438.77	5507.28
438.96	5568.13
439.14	5589.20
439.33	5844.32
439.52	5870.06
439.70	5832.62
439.89	6033.90
440.08	5858.36
440.26	5832.62
440.45	6003.47
440.63	5977.73
440.82	6134.54
441.01	6209.44
441.19	6040.92
441.38	6235.19
441.57	6263.27
441.75	6342.85
441.94	6642.44
442.12	6331.15
442.31	6305.40
442.50	6466.90
442.68	6525.41
442.87	6518.39
443.05	6476.26
443.24	6619.04
443.43	6511.37
443.61	6635.42
443.80	6843.73
443.98	6635.42
444.17	6476.26
444.35	6773.51
444.54	6764.15
444.73	6647.12
444.91	6672.87
445.10	6621.38
445.28	6754.79
445.47	6551.16
445.65	6724.36
445.84	6787.55
446.02	6740.74
446.21	6693.93
446.39	6754.79
446.58	7047.35
446.77	6832.02
446.95	6808.62
447.14	6855.43
447.32	6988.84
447.51	6937.35
447.69	6883.52
447.88	6871.81
448.06	6932.67
448.25	6829.68
448.43	6832.02
448.62	6817.98
448.80	6920.96
448.99	7049.69
449.17	7007.56
449.36	7026.29
449.54	7265.02
449.73	7267.36
449.91	7318.86
450.10	7304.81
450.28	7379.71
450.46	7576.31
450.65	7353.96
450.83	7499.08
451.02	7349.28
451.20	7660.57
451.39	7494.40
451.57	7499.08
451.76	7229.91
451.94	7375.03
452.13	7440.56
452.31	7283.75
452.49	7323.54
452.68	7288.43
452.86	7414.82
453.05	7391.41
453.23	7522.48
453.42	7599.72
453.60	7688.66
453.78	7585.68
453.97	7618.44
454.15	7698.02
454.34	7648.87
454.52	7772.92
454.70	7964.84
454.89	7768.24
455.07	7852.50
455.26	7798.66
455.44	7852.50
455.62	8018.68
455.81	7974.21
455.99	8095.91
456.17	8037.40
456.36	8006.97
456.54	8173.15
456.73	8173.15
456.91	8402.52
457.09	8372.10
457.28	8475.08
457.46	8271.45
457.64	8212.94
457.83	8304.22
458.01	8276.13
458.19	8329.97
458.38	8234.00
458.56	8535.93
458.74	8341.67
458.93	8493.80
459.11	8425.93
459.29	8500.83
459.48	8798.07
459.66	8571.04
459.84	8629.56
460.03	8779.35
460.21	8648.28
460.39	8655.30
460.57	8943.19
460.76	8706.79
460.94	8898.72
461.12	8741.90
461.31	8889.35
461.49	8725.52
461.67	8849.57
461.85	9177.24
462.04	9013.40
462.22	9397.25
462.40	9233.41
462.59	9139.79
462.77	9231.07
462.95	9425.34
463.13	9032.13
463.32	9254.48
463.50	9533.00
463.68	9252.14
463.86	9160.86
464.05	9128.09
464.23	9062.55
464.41	9102.34
464.59	9170.22
464.78	9551.73
464.96	9568.11
465.14	9256.82
465.32	9441.72
465.50	9659.39
465.69	9385.55
465.87	9664.07
466.05	9385.55
466.23	9324.69
466.41	9535.34
466.60	9575.13
466.78	9376.19
466.96	9544.70
467.14	9647.69
467.32	9633.64
467.51	9650.03
467.69	9572.79
467.87	9437.04
468.05	9767.06
468.23	9745.99
468.41	9736.63
468.60	9701.52
468.78	9755.35
468.96	9881.74
469.14	9858.34
469.32	10090.05
469.50	9865.36
469.69	9734.29
469.87	9802.16
470.05	10113.45
470.23	10076.01
470.41	10148.56
470.59	10272.61
470.77	9994.09
470.95	10281.97
471.14	10438.79
471.32	10228.14
471.50	10729.02
471.68	10593.26
471.86	10658.80
472.04	10619.01
472.22	10677.52
472.40	10565.18
472.58	10675.18
472.77	10810.93
472.95	10836.68
473.13	11052.01
473.31	11016.90
473.49	10913.92
473.67	10808.59
473.85	10888.17
474.03	11185.42
474.21	11400.75
474.39	11208.83
474.57	11417.13
474.75	11344.58
474.93	11405.43
475.12	11370.32
475.30	11583.31
475.48	11466.28
475.66	11733.11
475.84	11590.33
476.02	11775.24
476.20	11875.88
476.38	12018.65
476.56	12049.08
476.74	12142.70
476.92	12278.45
477.10	11964.82
477.28	12479.74
477.46	12409.52
477.64	12549.95
477.82	12795.71
478.00	12882.31
478.18	12549.95
478.36	12865.92
478.54	13067.21
478.72	13165.51
478.90	13362.12
479.08	13444.04
479.26	13516.59
479.44	13589.15
479.62	13743.63
479.80	13432.33
479.98	13760.01
480.16	14214.07
480.34	14047.90
480.52	14040.87
480.70	14310.04
480.88	14092.37
481.06	14328.76
481.24	14263.22
481.41	14611.96
481.59	14642.39
481.77	14878.79
481.95	15094.11
482.13	15061.35
482.31	15229.87
482.49	15283.70
482.67	15433.49
482.85	15377.32
483.03	15309.44
483.21	15648.82
483.39	15571.58
483.57	15723.72
483.74	15796.28
483.92	16128.63
484.10	15805.64
484.28	16252.68
484.46	16521.84
484.64	16964.20
484.82	16655.25
485.00	16510.14
485.18	16753.55
485.35	16795.68
485.53	16404.81
485.71	16325.24
485.89	16865.90
486.07	16840.15
486.25	16849.52
486.43	17200.60
486.61	17376.14
486.78	17736.58
486.96	17860.63
487.14	18097.02
487.32	18398.95
487.50	18764.07
487.68	18616.62
487.85	18782.80
488.03	19058.98
488.21	19171.33
488.39	19002.81
488.57	19332.82
488.75	19070.68
488.92	19475.60
489.10	19960.09
489.28	20032.65
489.46	19906.26
489.64	19700.29
489.81	20650.55
489.99	20795.66
490.17	20842.47
490.35	20615.44
490.53	20936.09
490.70	21071.84
490.88	20973.54
491.06	21472.07
491.24	21277.81
491.41	21113.97
491.59	21074.18
491.77	21282.49
491.95	21174.83
492.13	21860.60
492.30	22148.49
492.48	21942.52
492.66	22235.09
492.84	22148.49
493.01	22616.60
493.19	22532.34
493.37	22822.56
493.54	22892.78
493.72	23370.25
493.90	23248.54
494.08	23765.80
494.25	23936.66
494.43	23887.51
494.61	24041.98
494.79	24079.43
494.96	24205.82
495.14	24182.42
495.32	24746.48
495.49	24414.13
495.67	24599.03
495.85	24559.24
496.02	24727.76
496.20	24964.15
496.38	25113.95
496.55	25069.48
496.73	25579.71
496.91	25420.56
497.09	25923.77
497.26	26050.16
497.44	25420.56
497.62	25951.86
497.79	26218.68
497.97	25661.63
498.14	26192.94
498.32	26279.54
498.50	26204.64
498.67	26658.70
498.85	26630.62
499.03	26925.52
499.20	27168.94
499.38	26897.44
499.56	27098.72
499.73	27257.88
499.91	27665.13
500.08	27398.31
500.26	26595.51
500.44	27332.78
500.61	27042.55
500.79	27187.66
500.97	27529.38
501.14	27543.42
501.32	27449.80
501.49	27709.60
501.67	27988.13
501.84	27831.31
502.02	28020.89
502.20	27934.29
502.37	28587.30
502.55	28217.50
502.72	28554.54
502.90	28793.27
503.07	28725.39
503.25	28877.53
503.43	28608.37
503.60	28898.59
503.78	28718.37
503.95	28952.43
504.13	29324.57
504.30	29261.38
504.48	29549.26
504.65	29813.74
504.83	29788.00
505.01	29699.06
505.18	29589.05
505.36	30228.02
505.53	29944.81
505.71	30476.12
505.88	30941.88
506.06	30082.91
506.23	30707.83
506.41	30216.32
506.58	30455.05
506.76	30085.25
506.93	30764.00
507.11	30448.03
507.28	30646.97
507.46	30401.22
507.63	30972.31
507.81	31012.10
507.98	30588.46
508.16	30799.11
508.33	31318.71
508.50	31220.41
508.68	31548.08
508.85	32002.14
509.03	31805.54
509.20	32140.24
509.38	32065.34
509.55	31716.60
509.73	31779.79
509.90	32271.31
510.08	31997.46
510.25	32011.51
510.42	31985.76
510.60	32283.01
510.77	32484.30
510.95	32477.27
511.12	32453.87
511.30	32842.40
511.47	33102.20
511.64	33106.88
511.82	33120.92
511.99	32657.49
512.17	32999.21
512.34	33046.02
512.51	33689.67
512.69	33715.42
512.86	33277.74
513.04	33631.16
513.21	33408.81
513.38	33638.18
513.56	33284.76
513.73	33504.77
513.90	33589.03
514.08	33855.85
514.25	33797.34
514.43	33930.75
514.60	33813.72
514.77	34153.10
514.95	34415.24
515.12	34204.59
515.29	34356.72
515.47	35248.47
515.64	35047.18
515.81	34541.63
515.99	34487.79
516.16	34476.09
516.33	34181.18
516.51	34480.77
516.68	33846.49
516.85	33750.52
517.03	34213.95
517.20	34536.94
517.37	35285.92
517.54	34682.06
517.72	34885.68
517.89	34375.45
518.06	34897.39
518.24	34536.94
518.41	35084.63
518.58	35306.98
518.75	35330.39
518.93	35377.20
519.10	35253.15
519.27	35613.59
519.45	35742.32
519.62	36470.23
519.79	36264.26
519.96	36217.45
520.14	36453.84
520.31	35398.26
520.48	36175.32
520.65	35660.40
520.83	36603.64
521.00	36479.59
521.17	36528.74
521.34	36615.34
521.52	36856.42
521.69	36774.50
521.86	37214.52
522.03	36886.84
522.20	37298.78
522.38	37053.02
522.55	37031.96
522.72	37214.52
522.89	37060.04
523.07	37659.22
523.24	36999.19
523.41	37804.33
523.58	38024.34
523.75	38174.14
523.92	37979.87
524.10	38045.41
524.27	38120.31
524.44	38148.39
524.61	38237.33
524.78	38153.07
524.96	38403.51
525.13	38415.21
525.30	38543.94
525.47	38403.51
525.64	38178.82
525.81	38085.20
525.98	38239.67
526.16	38139.03
526.33	37766.88
526.50	38094.56
526.67	37951.79
526.84	38087.54
527.01	38321.59
527.18	38906.73
527.36	39129.08
527.53	38965.24
527.70	39182.91
527.87	39215.68
528.04	39002.69
528.21	39168.87
528.38	39559.73
528.55	39653.36
528.72	39346.75
528.89	39555.05
529.07	39438.03
529.24	39512.92
529.41	39641.65
529.58	39419.30
529.75	39536.33
529.92	39730.59
530.09	39641.65
530.26	39805.49
530.43	39885.07
530.60	39629.95
530.77	39988.05
530.94	40418.71
531.11	39955.29
531.28	40175.30
531.46	40208.06
531.63	40123.80
531.80	40102.74
531.97	40205.72
532.14	40046.57
532.31	40006.78
532.48	40432.75
532.65	40236.15
532.82	40172.96
532.99	40191.68
533.16	40491.27
533.33	40683.19
533.50	40959.38
533.67	40858.73
533.84	40662.13
534.01	40753.41
534.18	40517.01
534.35	41158.32
534.52	40769.79
534.69	40884.48
534.86	40957.03
535.03	41436.84
535.20	41464.93
535.37	41675.58
535.54	42319.23
535.71	41448.55
535.88	41345.56
536.05	41659.20
536.22	41364.29
536.38	41399.40
536.55	41336.20
536.72	41083.42
536.89	40905.54
537.06	41493.02
537.23	41418.12
537.40	41703.67
537.57	41682.60
537.74	41890.91
537.91	42328.59
538.08	41979.85
538.25	42171.77
538.42	42012.62
538.59	42356.67
538.75	41844.10
538.92	42199.86
539.09	41691.96
539.26	42075.81
539.43	41918.99
539.60	41853.46
539.77	42061.77
539.94	42089.85
540.11	42305.18
540.28	41794.95
540.44	42092.19
540.61	42197.52
540.78	42054.75
540.95	42251.35
541.12	42398.80
541.29	42588.39
541.46	42703.07
541.62	42955.85
541.79	42768.61
541.96	42241.99
542.13	42515.83
542.30	42609.45
542.47	42742.86
542.63	43143.09
542.80	42756.91
542.97	43093.94
543.14	43007.34
543.31	43491.83
543.48	43494.18
543.64	43775.04
543.81	43845.26
543.98	43817.17
544.15	43131.39
544.32	43945.90
544.48	44130.80
544.65	43552.69
544.82	43629.93
544.99	43658.01
545.16	44219.74
545.32	43140.75
545.49	43906.11
545.66	44327.41
545.83	43847.60
546.00	44081.65
546.16	44142.50
546.33	44037.18
546.50	43519.92
546.67	43707.16
546.83	43650.99
547.00	43800.79
547.17	43924.83
547.34	43812.49
547.50	43964.62
547.67	44016.11
547.84	44121.44
548.00	44306.34
548.17	44350.81
548.34	44100.37
548.51	44542.74
548.67	44811.90
548.84	44467.84
549.01	44334.43
549.18	44421.03
549.34	44839.98
549.51	45050.63
549.68	44720.62
549.84	44655.08
550.01	44755.72
550.18	44591.89
550.34	44722.96
550.51	44566.14
550.68	44655.08
550.84	44390.60
551.01	44575.50
551.18	44678.49
551.34	44835.30
551.51	44980.42
551.68	45443.84
551.84	45141.91
552.01	44779.13
552.18	45223.83
552.34	44847.00
552.51	45261.28
552.68	44928.92
552.84	44802.53
553.01	45188.72
553.18	44842.32
553.34	44779.13
553.51	45055.31
553.67	45476.61
553.84	45759.81
554.01	45640.45
554.17	45668.53
554.34	45514.06
554.51	45773.86
554.67	45427.46
554.84	45523.42
555.00	45338.52
555.17	45146.59
555.33	45434.48
555.50	45673.21
555.67	45202.77
555.83	45397.03
556.00	45717.68
556.16	45490.65
556.33	45595.98
556.50	45563.21
556.66	45605.34
556.83	45572.57
556.99	46061.74
557.16	45825.35
557.32	45830.03
557.49	45923.65
557.65	45886.20
557.82	45455.54
557.98	45933.01
558.15	45808.96
558.32	45893.22
558.48	45600.66
558.65	45827.69
558.81	45680.24
558.98	45984.51
559.14	45567.89
559.31	45815.99
559.47	45935.35
559.64	46061.74
559.80	46190.47
559.97	45998.55
560.13	45647.47
560.30	45640.45
560.46	46096.85
560.63	45991.53
560.79	46183.45
560.96	46391.76
561.12	45881.52
561.29	45970.46
561.45	46319.20
561.61	46117.92
561.78	46036.00
561.94	46117.92
562.11	45858.12
562.27	46014.93
562.44	46181.11
562.60	46347.29
562.77	46307.50
562.93	46136.64
563.10	46248.99
563.26	46241.96
563.42	46433.89
563.59	46270.05
563.75	46344.95
563.92	46344.95
564.08	46256.01
564.24	46721.77
564.41	46595.38
564.57	45713.00
564.74	46356.65
564.90	46452.61
565.07	45731.73
565.23	46347.29
565.39	46557.94
565.56	46263.03
565.72	45743.43
565.88	46417.50
566.05	46178.77
566.21	45872.16
566.38	46010.25
566.54	46190.47
566.70	46639.86
566.87	46754.54
567.03	46302.82
567.19	46993.28
567.36	46742.84
567.52	46279.41
567.68	46740.50
567.85	46628.15
568.01	46642.20
568.17	46183.45
568.34	46700.71
568.50	46454.95
568.66	46731.14
568.83	46298.14
568.99	46059.40
569.15	46263.03
569.32	46457.29
569.48	45961.10
569.64	47103.28
569.81	46731.14
569.97	46256.01
570.13	46548.57
570.30	46167.07
570.46	46199.83
570.62	45982.16
570.78	46274.73
570.95	46483.04
571.11	46663.26
571.27	46412.82
571.43	46403.46
571.60	46284.09
571.76	46747.52
571.92	46557.94
572.09	46604.75
572.25	46515.81
572.41	46621.13
572.57	46880.93
572.74	46946.47
572.90	46492.40
573.06	46808.37
573.22	46541.55
573.38	46363.67
573.55	46394.10
573.71	46876.25
573.87	46894.97
574.03	46560.28
574.20	46581.34
574.36	46791.99
574.52	46368.35
574.68	46689.01
574.84	46808.37
575.01	46230.26
575.17	46480.70
575.33	46504.10
575.49	46501.76
575.65	46670.28
575.82	46902.00
575.98	46230.26
576.14	47297.55
576.30	46892.63
576.46	46649.22
576.62	47028.38
576.79	46791.99
576.95	46167.07
577.11	46478.36
577.27	47044.77
577.43	46436.23
577.59	46639.86
577.75	46396.44
577.92	46693.69
578.08	46555.60
578.24	46326.22
578.40	46782.63
578.56	47136.05
578.72	46424.53
578.88	46913.70
579.04	46773.27
579.21	46595.38
579.37	46763.90
579.53	46705.39
579.69	46773.27
579.85	47042.43
580.01	46483.04
580.17	46712.41
580.33	46363.67
580.49	46934.76
580.65	47007.32
580.82	46815.40
580.98	46178.77
581.14	46726.46
581.30	46672.62
581.46	46880.93
581.62	46761.56
581.78	46628.15
581.94	46824.76
582.10	46646.88
582.26	46824.76
582.42	46710.07
582.58	46925.40
582.74	46316.86
582.90	46653.90
583.06	47494.15
583.22	47185.20
583.38	47096.26
583.54	46838.80
583.70	46897.31
583.86	46930.08
584.02	46300.48
584.18	46789.65
584.34	46918.38
584.50	46689.01
584.66	46892.63
584.82	46639.86
584.98	47040.09
585.14	47009.66
585.30	46880.93
585.46	46836.46
585.62	46401.12
585.78	46590.70
585.94	46461.97
586.10	46911.36
586.26	46770.93
586.42	47103.28
586.58	46876.25
586.74	46852.84
586.90	47004.98
587.06	46871.57
587.22	46937.10
587.38	46497.08
587.54	47089.24
587.70	46934.76
587.86	47063.49
588.02	46827.10
588.18	47079.88
588.34	46497.08
588.49	46396.44
588.65	46380.06
588.81	46237.28
588.97	46113.23
589.13	46160.05
589.29	46548.57
589.45	46689.01
589.61	46845.82
589.77	46965.19
589.93	46665.60
590.08	46834.12
590.24	46632.83
590.40	46871.57
590.56	47145.41
590.72	46972.21
590.88	46932.42
591.04	47196.90
591.20	47255.42
591.35	46967.53
591.51	47201.58
591.67	46890.29
591.83	46831.78
591.99	46857.52
592.15	46906.68
592.31	46611.77
592.46	46777.95
592.62	46885.61
592.78	47194.56
592.94	47110.30
593.10	47004.98
593.26	47000.30
593.41	46958.17
593.57	46789.65
593.73	46988.60
593.89	46817.74
594.05	46721.77
594.20	46611.77
594.36	47077.54
594.52	46642.20
594.68	46787.31
594.84	47047.11
594.99	47084.56
595.15	47154.77
595.31	46920.72
595.47	46876.25
595.62	47014.34
595.78	46902.00
595.94	47171.16
596.10	47150.09
596.25	47091.58
596.41	47199.24
596.57	47243.71
596.73	47047.11
596.88	46419.84
597.04	47346.70
597.20	47093.92
597.36	47304.57
597.51	46635.17
597.67	47056.47
597.83	46878.59
597.99	47524.58
598.14	47009.66
598.30	46967.53
598.46	46920.72
598.61	46674.96
598.77	47004.98
598.93	46822.42
599.09	47206.26
599.24	47611.18
599.40	47538.62
599.56	46766.24
599.71	46759.22
599.87	47009.66
600.03	47068.17
600.18	47150.09
600.34	46913.70
600.50	46780.29
600.65	46752.20
600.81	47257.76
600.97	47103.28
601.12	47339.68
601.28	46710.07
601.44	46892.63
601.59	46969.87
601.75	46726.46
601.91	46892.63
602.06	46817.74
602.22	46782.63
602.37	46511.13
602.53	47346.70
602.69	47320.95
602.84	46930.08
603.00	47033.07
603.16	46759.22
603.31	46862.21
603.47	46920.72
603.62	46976.89
603.78	47044.77
603.94	46824.76
604.09	47220.31
604.25	47051.79
604.40	46754.54
604.56	46843.48
604.71	47316.27
604.87	46763.90
605.03	46609.43
605.18	46588.36
605.34	46763.90
605.49	46548.57
605.65	47166.48
605.80	46618.79
605.96	46836.46
606.12	46892.63
606.27	46698.37
606.43	46581.34
606.58	46653.90
606.74	46712.41
606.89	47276.48
607.05	46941.78
607.20	46611.77
607.36	46731.14
607.51	46433.89
607.67	47161.79
607.82	46277.07
607.98	46548.57
608.13	46864.55
608.29	46335.59
608.44	46284.09
608.60	46103.87
608.75	46429.21
608.91	46536.87
609.06	46529.85
609.22	46281.75
609.37	46632.83
609.53	46616.45
609.68	46520.49
609.84	46099.19
609.99	46073.45
610.15	45628.74
610.30	46103.87
610.46	46019.61
610.61	46101.53
610.76	46157.70
610.92	46593.04
611.07	46330.90
611.23	46284.09
611.38	46321.54
611.54	45818.33
611.69	45937.69
611.84	45741.09
612.00	45804.28
612.15	45996.21
612.31	45890.88
612.46	45963.44
612.62	46277.07
612.77	46038.34
612.92	46520.49
613.08	46017.27
613.23	45942.38
613.39	45937.69
613.54	45565.55
613.69	45778.54
613.85	45710.66
614.00	45806.62
614.15	46043.02
614.31	45977.48
614.46	46171.75
614.62	45958.76
614.77	45696.62
614.92	45598.32
615.08	45539.80
615.23	45289.37
615.38	45996.21
615.54	45492.99
615.69	44917.22
615.84	45099.78
616.00	45715.34
616.15	45397.03
616.30	45357.24
616.46	45532.78
616.61	45017.86
616.76	45289.37
616.92	45151.27
617.07	44854.03
617.22	45586.61
617.37	44924.24
617.53	45090.42
617.68	45390.01
617.83	45312.77
617.99	45181.70
618.14	45357.24
618.29	44987.44
618.45	44893.82
618.60	44968.71
618.75	45151.27
618.90	45059.99
619.06	44954.67
619.21	44809.56
619.36	45146.59
619.51	45074.04
619.67	44926.58
619.82	44842.32
619.97	45120.85
620.12	45081.06
620.28	44371.88
620.43	44559.12
620.58	44954.67
620.73	45172.34
620.89	44626.99
621.04	44854.03
621.19	44526.35
621.34	44949.99
621.49	44720.62
621.65	44662.10
621.80	45095.10
621.95	44643.38
622.10	44580.18
622.25	44650.40
622.41	44170.59
622.56	44521.67
622.71	44720.62
622.86	44360.17
623.01	44570.82
623.16	44641.04
623.32	44453.79
623.47	44296.98
623.62	44357.83
623.77	44456.14
623.92	44563.80
624.07	44222.08
624.23	44034.84
624.38	43873.34
624.53	43798.44
624.68	44259.53
624.83	44158.89
624.98	44044.20
625.13	43363.11
625.29	44030.16
625.44	43777.38
625.59	43569.07
625.74	43330.34
625.89	43480.13
626.04	43646.31
626.19	43892.07
626.34	43676.74
626.49	43768.02
626.65	44233.78
626.80	43753.97
626.95	43650.99
627.10	43667.37
627.25	43370.13
627.40	43241.40
627.55	42979.26
627.70	42726.48
627.85	43309.27
628.00	43288.21
628.15	43269.48
628.30	43229.69
628.45	43313.95
628.60	43349.06
628.76	43683.76
628.91	43297.57
629.06	43484.81
629.21	43412.26
629.36	42850.53
629.51	43005.00
629.66	42831.80
629.81	42866.91
629.96	43044.79
630.11	42983.94
630.26	43398.21
630.41	43419.28
630.56	42906.70
630.71	42745.20
630.86	42644.56
631.01	42892.66
631.16	42745.20
631.31	42586.05
631.46	42452.64
631.61	42719.46
631.76	42761.59
631.91	42700.73
632.06	42682.01
632.21	42719.46
632.36	42794.36
632.51	41848.78
632.66	42794.36
632.81	42319.23
632.96	42543.92
633.10	42651.58
633.25	42031.34
633.40	42581.37
633.55	42679.67
633.70	42717.12
633.85	42440.93
634.00	42714.78
634.15	42164.75
634.30	42017.30
634.45	42066.45
634.60	42050.06
634.75	42494.77
634.90	42096.88
635.05	41837.08
635.19	41926.02
635.34	42092.19
635.49	41996.23
635.64	41680.26
635.79	41991.55
635.94	42134.32
636.09	41605.36
636.24	41708.35
636.39	41439.18
636.53	41462.59
636.68	41790.27
636.83	41867.50
636.98	42171.77
637.13	41514.08
637.28	41937.72
637.43	41722.39
637.57	41677.92
637.72	41347.90
637.87	42043.04
638.02	42195.18
638.17	41570.25
638.32	41661.54
638.46	41736.43
638.61	41333.86
638.76	41488.34
638.91	41406.42
639.06	41251.94
639.20	41244.92
639.35	41579.62
639.50	41214.49
639.65	41294.07
639.80	41364.29
639.94	41324.50
640.09	41139.60
640.24	41177.04
640.39	40809.58
640.54	40699.58
640.68	41083.42
640.83	41254.28
640.98	41385.35
641.13	40795.54
641.27	41366.63
641.42	40446.80
641.57	40678.51
641.72	40882.14
641.86	40451.48
642.01	40720.64
642.16	40538.08
642.31	40154.23
642.45	40828.30
642.60	40325.09
642.75	40449.14
642.90	40509.99
643.04	40526.38
643.19	40870.43
643.34	40240.83
643.48	39927.20
643.63	40313.39
643.78	40566.16
643.93	40353.18
644.07	40484.25
644.22	40430.41
644.37	39943.58
644.51	40224.45
644.66	40369.56
644.81	40198.70
644.95	40385.94
645.10	40428.07
645.25	40608.29
645.39	40076.99
645.54	40509.99
645.69	40229.13
645.83	40109.76
645.98	40013.80
646.13	40149.55
646.27	40140.19
646.42	39564.42
646.57	39995.07
646.71	39255.46
646.86	40002.10
647.00	40098.06
647.15	39643.99
647.30	39976.35
647.44	39669.74
647.59	39873.37
647.74	39910.82
647.88	39636.97
648.03	39798.47
648.17	40142.53
648.32	39873.37
648.47	39903.79
648.61	39824.22
648.76	39791.45
648.90	39721.23
649.05	39718.89
649.20	39360.79
649.34	39367.81
649.49	38918.43
649.63	39274.19
649.78	39786.77
649.92	39735.27
650.07	39370.15
650.21	39634.63
650.36	38979.28
650.51	39391.22
650.65	40046.57
650.80	39873.37
650.94	39665.06
651.09	39632.29
651.23	39641.65
651.38	39093.97
651.52	38747.57
651.67	39201.63
651.81	38501.81
651.96	39119.71
652.10	39292.91
652.25	38789.70
652.39	38988.64
652.54	39131.42
652.68	39358.45
652.83	38707.78
652.97	39129.08
653.12	38504.15
653.26	38792.04
653.41	38719.48
653.55	38817.78
653.70	38864.60
653.84	38829.49
653.99	38443.30
654.13	38930.13
654.27	38436.28
654.42	38586.07
654.56	38440.96
654.71	38188.18
654.85	38693.74
655.00	38347.34
655.14	38462.02
655.29	38234.99
655.43	38146.05
655.57	37701.35
655.72	37244.94
655.86	37450.91
656.01	37631.13
656.15	37574.96
656.30	37483.68
656.44	37834.76
656.58	37691.99
656.73	38115.62
656.87	38178.82
657.01	37696.67
657.16	37624.11
657.30	37673.26
657.45	37502.40
657.59	37589.00
657.73	37530.49
657.88	38274.78
658.02	37862.85
658.16	37794.97
658.31	38195.20
658.45	37567.94
658.60	37780.93
658.74	37724.75
658.88	37635.81
659.03	37390.06
659.17	37359.63
659.31	37539.85
659.46	37179.41
659.60	37518.79
659.74	37556.24
659.89	36980.46
660.03	36891.52
660.17	36931.31
660.32	37181.75
660.46	37462.61
660.60	36776.84
660.74	36900.89
660.89	36968.76
661.03	36638.75
661.17	36561.51
661.32	36608.32
661.46	36755.77
661.60	36898.55
661.74	36730.03
661.89	36769.82
662.03	36467.89
662.17	36570.87
662.31	36737.05
662.46	36566.19
662.60	36231.49
662.74	36816.63
662.88	36371.92
663.03	36121.49
663.17	36374.27
663.31	36126.17
663.45	36404.69
663.60	36435.12
663.74	35999.78
663.88	35756.36
664.02	36203.41
664.17	36051.27
664.31	35840.62
664.45	35735.30
664.59	35990.42
664.73	35908.50
664.88	35627.63
665.02	35227.40
665.16	35639.34
665.30	35117.40
665.44	35257.83
665.59	35075.27
665.73	35498.91
665.87	34733.55
666.01	35569.12
666.15	35264.85
666.29	35419.33
666.44	35304.64
666.58	34728.87
666.72	34951.22
666.86	35325.71
667.00	35051.86
667.14	34717.17
667.28	34445.66
667.43	34712.49
667.57	34904.41
667.71	34562.69
667.85	35037.82
667.99	34780.36
668.13	34455.03
668.27	34586.10
668.41	34225.65
668.56	34197.57
668.70	34618.86
668.84	33799.68
668.98	33399.44
669.12	34164.80
669.26	33933.09
669.40	33848.83
669.54	33874.57
669.68	33710.74
669.82	33825.42
669.96	33755.21
670.10	33287.10
670.25	33544.56
670.39	33542.22
670.53	33207.52
670.67	33305.82
670.81	33357.32
670.95	33392.42
671.09	33013.26
671.23	32943.04
671.37	33111.56
671.51	32790.91
671.65	32758.14
671.79	32636.43
671.93	32978.15
672.07	32999.21
672.21	32666.86
672.35	32713.67
672.49	33160.71
672.63	32496.00
672.77	32699.62
672.91	32488.98
673.05	32404.72
673.19	32325.14
673.33	32364.93
673.47	31658.09
673.61	31798.52
673.75	31927.25
673.89	31510.63
674.03	31613.62
674.17	31463.82
674.31	31601.91
674.45	31669.79
674.59	31330.41
674.73	31728.30
674.87	31742.35
675.01	31342.11
675.15	31269.56
675.29	31028.48
675.43	31283.60
675.56	30948.90
675.70	31145.51
675.84	30656.34
675.98	30139.08
676.12	31079.97
676.26	30562.72
676.40	30499.52
676.54	30813.15
676.68	30799.11
676.82	30150.78
676.96	30197.59
677.10	30312.28
677.23	30279.51
677.37	30164.82
677.51	29757.57
677.65	29935.45
677.79	29329.25
677.93	29142.01
678.07	29474.37
678.21	29242.65
678.34	28973.49
678.48	28896.25
678.62	29312.87
678.76	28938.38
678.90	28680.92
679.04	28774.55
679.18	28718.37
679.31	28837.74
679.45	28379.00
679.59	28425.81
679.73	28343.89
679.87	28678.58
680.00	28416.44
680.14	28329.84
680.28	28147.28
680.42	28252.61
680.56	28215.16
680.70	27714.28
680.83	28144.94
680.97	27838.33
681.11	27814.93
681.25	27623.00
681.39	27295.33
681.52	27477.89
681.66	27379.59
681.80	27147.87
681.94	27379.59
682.07	27157.24
682.21	27316.39
682.35	26913.82
682.49	27271.92
682.62	26883.39
682.76	26843.60
682.90	26838.92
683.04	26298.26
683.17	26071.23
683.31	26270.17
683.45	26031.44
683.59	25769.30
683.72	25799.73
683.86	26314.64
684.00	26335.71
684.13	25549.29
684.27	25715.47
684.41	25490.77
684.55	25296.51
684.68	25394.81
684.82	25649.93
684.96	24959.47
685.09	25408.86
685.23	24802.66
685.37	25116.29
685.50	25036.71
685.64	25158.42
685.78	24814.36
685.91	24837.76
686.05	24631.80
686.19	24058.37
686.32	24070.07
686.46	23885.17
686.60	23641.75
686.73	23896.87
686.87	23335.14
687.01	23346.84
687.14	23426.42
687.28	23405.36
687.42	23281.31
687.55	23208.75
687.69	23400.68
687.82	23030.87
687.96	23183.01
688.10	23634.73
688.23	22698.52
688.37	22637.66
688.50	22607.23
688.64	22778.09
688.78	22843.63
688.91	22541.70
689.05	22712.56
689.18	22258.49
689.32	22017.42
689.46	22305.31
689.59	22572.13
689.73	22522.98
689.86	22279.56
690.00	21949.54
690.13	21809.11
690.27	21731.87
690.41	21921.46
690.54	21495.48
690.68	21378.45
690.81	21420.58
690.95	21446.33
691.08	21343.35
691.22	21420.58
691.35	21331.64
691.49	21263.77
691.62	21085.89
691.76	21181.85
691.89	21216.96
692.03	20950.14
692.16	20915.03
692.30	20828.43
692.43	20638.84
692.57	20411.81
692.70	20348.62
692.84	20348.62
692.97	19744.76
693.11	20084.14
693.24	19714.33
693.38	20011.58
693.51	19976.47
693.65	20023.28
693.78	19901.58
693.92	19674.54
694.05	19836.04
694.19	19728.38
694.32	19283.67
694.45	19442.83
694.59	19276.65
694.72	19026.21
694.86	19344.53
694.99	18995.79
695.13	18717.26
695.26	18773.44
695.39	18967.70
695.53	19054.30
695.66	19096.43
695.80	18864.72
695.93	18661.09
696.07	18654.07
696.20	18869.40
696.33	18574.49
696.47	18504.28
696.60	18274.90
696.73	18104.04
696.87	18171.92
697.00	18033.83
697.14	18022.12
697.27	17781.05
697.40	17659.34
697.54	17600.83
697.67	17589.13
697.80	17221.66
697.94	17362.09
698.07	17254.43
698.21	17088.25
698.34	17132.72
698.47	16886.97
698.61	17130.38
698.74	16929.09
698.87	16781.64
699.01	16643.55
699.14	16697.38
699.27	16549.93
699.40	16514.82
699.54	16505.46
699.67	16563.97
699.80	16465.67
699.94	16350.98
700.07	16353.32
700.20	16388.43
700.34	16035.01
700.47	16072.46
700.60	16224.59
700.73	16081.82
700.87	16187.14
701.00	15733.08
701.13	15686.27
701.26	15499.03
701.40	15356.25
701.53	15524.77
701.66	15599.67
701.79	15229.87
701.93	15173.69
702.06	14979.43
702.19	14747.72
702.32	15103.48
702.46	14857.72
702.59	15059.01
702.72	14892.83
702.85	15084.75
702.99	15089.43
703.12	14932.62
703.25	14618.99
703.38	14406.00
703.51	14626.01
703.65	14366.21
703.78	14389.61
703.91	13909.80
704.04	14146.20
704.17	14406.00
704.31	14174.28
704.44	14073.64
704.57	14246.84
704.70	13867.67
704.83	13928.53
704.96	13884.06
705.10	13731.92
705.23	13825.54
>>>>>End Processed Spectral Data<<<<<
