SpectraSuite Data File
++++++++++++++++++++++++++++++++++++
Date: Fri Oct 25 10:47:17 EDT 2013
User: price-jones
Dark Spectrum Present: No
Reference Spectrum Present: No
Number of Sampled Component Spectra: 1
Spectrometers: USB2+H05261
Integration Time (usec): 100000 (USB2+H05261)
Spectra Averaged: 1 (USB2+H05261)
Boxcar Smoothing: 0 (USB2+H05261)
Correct for Electrical Dark: No (USB2+H05261)
Strobe/Lamp Enabled: No (USB2+H05261)
Correct for Detector Non-linearity: No (USB2+H05261)
Correct for Stray Light: No (USB2+H05261)
Number of Pixels in Processed Spectrum: 2048
>>>>>Begin Processed Spectral Data<<<<<
365.73	110.01
365.92	110.01
366.12	110.01
366.32	98.30
366.52	98.30
366.72	93.62
366.91	16.38
367.11	16.38
367.31	37.45
367.51	32.77
367.70	21.06
367.90	65.54
368.10	49.15
368.30	53.83
368.49	60.85
368.69	93.62
368.89	86.60
369.09	25.75
369.28	84.26
369.48	91.28
369.68	105.32
369.87	93.62
370.07	46.81
370.27	81.92
370.47	126.39
370.66	299.59
370.86	358.10
371.06	376.83
371.25	437.68
371.45	404.91
371.65	416.62
371.84	477.47
372.04	454.06
372.24	463.43
372.44	472.79
372.63	444.70
372.83	491.51
373.03	540.66
373.22	535.98
373.42	416.62
373.62	484.49
373.81	425.98
374.01	585.13
374.21	528.96
374.40	564.07
374.60	547.69
374.79	533.64
374.99	571.09
375.19	521.94
375.38	526.62
375.58	550.03
375.78	543.00
375.97	629.60
376.17	636.63
376.37	498.53
376.56	566.41
376.76	547.69
376.95	592.16
377.15	571.09
377.35	660.03
377.54	585.13
377.74	587.47
377.93	592.16
378.13	517.26
378.33	566.41
378.52	519.60
378.72	627.26
378.91	592.16
379.11	547.69
379.31	585.13
379.50	557.05
379.70	592.16
379.89	629.60
380.09	624.92
380.28	655.35
380.48	566.41
380.68	601.52
380.87	568.75
381.07	664.71
381.26	716.20
381.46	571.09
381.65	620.24
381.85	723.23
382.04	669.39
382.24	648.33
382.43	674.07
382.63	737.27
382.83	655.35
383.02	667.05
383.22	692.80
383.41	650.67
383.61	631.94
383.80	802.80
384.00	678.76
384.19	709.18
384.39	734.93
384.58	791.10
384.78	753.65
384.97	751.31
385.17	734.93
385.36	748.97
385.56	657.69
385.75	725.57
385.95	741.95
386.14	772.38
386.34	821.53
386.53	798.12
386.72	727.91
386.92	760.67
387.11	770.04
387.31	791.10
387.50	725.57
387.70	753.65
387.89	863.66
388.09	755.99
388.28	746.63
388.48	791.10
388.67	746.63
388.86	767.70
389.06	809.83
389.25	905.79
389.45	791.10
389.64	763.01
389.84	793.44
390.03	905.79
390.22	903.45
390.42	882.38
390.61	833.23
390.81	851.96
391.00	896.43
391.19	926.85
391.39	917.49
391.58	952.60
391.78	929.19
391.97	938.55
392.16	844.93
392.36	966.64
392.55	992.39
392.75	905.79
392.94	964.30
393.13	924.51
393.33	873.02
393.52	912.81
393.71	1015.79
393.91	1001.75
394.10	1011.11
394.29	1093.03
394.49	994.73
394.68	1088.35
394.88	983.02
395.07	1048.56
395.26	1104.73
395.46	1006.43
395.65	1046.22
395.84	1027.50
396.04	1224.10
396.23	1043.88
396.42	997.07
396.62	1088.35
396.81	1158.57
397.00	1114.10
397.19	1174.95
397.39	1111.75
397.58	1207.72
397.77	1174.95
397.97	1217.08
398.16	1308.36
398.35	1172.61
398.55	1188.99
398.74	1200.69
398.93	1207.72
399.12	1193.67
399.32	1219.42
399.51	1186.65
399.70	1380.92
399.90	1254.53
400.09	1334.11
400.28	1357.51
400.47	1310.70
400.67	1357.51
400.86	1299.00
401.05	1350.49
401.24	1406.66
401.44	1390.28
401.63	1458.15
401.82	1444.11
402.01	1432.41
402.21	1441.77
402.40	1453.47
402.59	1416.02
402.78	1411.34
402.97	1430.07
403.17	1535.39
403.36	1446.45
403.55	1558.80
403.74	1577.52
403.93	1614.97
404.13	1504.96
404.32	1497.94
404.51	1537.73
404.70	1582.20
404.89	1479.22
405.09	1621.99
405.28	1701.57
405.47	1610.29
405.66	1617.31
405.85	1715.61
406.05	1788.17
406.24	1694.55
406.43	1732.00
406.62	1811.57
406.81	1818.60
407.00	1629.01
407.20	1668.80
407.39	1720.29
407.58	1755.40
407.77	1799.87
407.96	1923.92
408.15	1767.10
408.34	1879.45
408.54	1834.98
408.73	1926.26
408.92	1881.79
409.11	1947.33
409.30	1860.73
409.49	2001.16
409.68	1973.07
409.87	1923.92
410.07	2010.52
410.26	2059.67
410.45	2010.52
410.64	1987.11
410.83	2022.22
411.02	2064.35
411.21	2073.71
411.40	2129.89
411.59	2069.03
411.78	2115.84
411.98	2150.95
412.17	2162.66
412.36	2181.38
412.55	2214.15
412.74	2293.72
412.93	2293.72
413.12	2143.93
413.31	2370.96
413.50	2317.13
413.69	2424.80
413.88	2328.83
414.07	2305.43
414.26	2495.01
414.45	2567.57
414.64	2590.97
414.83	2502.03
415.02	2616.72
415.22	2583.95
415.41	2647.15
415.60	2693.96
415.79	2600.34
415.98	2771.19
416.17	2710.34
416.36	2668.21
416.55	2754.81
416.74	2747.79
416.93	2801.62
417.12	2715.02
417.31	2792.26
417.50	2890.56
417.69	3063.76
417.88	2827.37
418.07	2916.31
418.26	2909.29
418.45	2869.50
418.64	2963.12
418.83	2916.31
419.02	2991.20
419.21	3019.29
419.39	3005.25
419.58	3103.55
419.77	3049.72
419.96	3082.49
420.15	3089.51
420.34	3166.74
420.53	3316.54
420.72	3265.05
420.91	3201.85
421.10	3229.94
421.29	3426.54
421.48	3213.56
421.67	3302.50
421.86	3243.98
422.05	3222.92
422.24	3194.83
422.43	3222.92
422.61	3110.57
422.80	3433.57
422.99	3309.52
423.18	3389.10
423.37	3389.10
423.56	3229.94
423.75	3337.60
423.94	3300.16
424.13	3251.00
424.32	3180.79
424.50	3377.39
424.69	3454.63
424.88	3501.44
425.07	3421.86
425.26	3332.92
425.45	3384.41
425.64	3321.22
425.83	3438.25
426.01	3574.00
426.20	3459.31
426.39	3449.95
426.58	3361.01
426.77	3426.54
426.96	3419.52
427.15	3449.95
427.33	3475.70
427.52	3681.66
427.71	3667.62
427.90	3513.14
428.09	3541.23
428.28	3658.26
428.46	3714.43
428.65	3599.74
428.84	3730.81
429.03	3644.21
429.22	3527.19
429.40	3581.02
429.59	3634.85
429.78	3403.14
429.97	3513.14
430.16	3508.46
430.34	3749.54
430.53	3784.65
430.72	3623.15
430.91	3726.13
431.10	3698.05
431.28	3756.56
431.47	3999.98
431.66	4030.40
431.85	3798.69
432.03	4051.47
432.22	4074.87
432.41	3981.25
432.60	4021.04
432.79	3936.78
432.97	4159.13
433.16	4163.81
433.35	4053.81
433.54	4114.66
433.72	4021.04
433.91	4119.34
434.10	3943.80
434.28	3997.64
434.47	4180.20
434.66	4102.96
434.85	4138.07
435.03	4252.75
435.22	4210.62
435.41	4432.97
435.59	4273.82
435.78	4294.88
435.97	4454.04
436.16	4273.82
436.34	4369.78
436.53	4325.31
436.72	4526.60
436.90	4344.03
437.09	4418.93
437.28	4299.56
437.46	4348.72
437.65	4479.79
437.84	4617.88
438.02	4512.55
438.21	4430.63
438.40	4503.19
438.58	4444.68
438.77	4809.80
438.96	4557.02
439.14	4765.33
439.33	4865.97
439.52	4910.44
439.70	4730.22
439.89	4870.65
440.08	4891.72
440.26	4999.38
440.45	4765.33
440.63	5001.72
440.82	5064.92
441.01	5188.97
441.19	5135.14
441.38	4936.19
441.57	5254.50
441.75	5203.01
441.94	5352.81
442.12	5343.44
442.31	5591.54
442.50	5441.75
442.68	5563.45
442.87	5341.10
443.05	5434.72
443.24	5474.51
443.43	5423.02
443.61	5476.85
443.80	5584.52
443.98	5437.06
444.17	5252.16
444.35	5378.55
444.54	5652.39
444.73	5624.31
444.91	5425.36
445.10	5556.43
445.28	5603.24
445.47	5537.71
445.65	5568.13
445.84	5540.05
446.02	5680.48
446.21	5579.84
446.39	5612.60
446.58	5605.58
446.77	5713.25
446.95	5750.70
447.14	5703.89
447.32	5708.57
447.51	5654.73
447.69	5654.73
447.88	5724.95
448.06	5647.71
448.25	5544.73
448.43	5809.21
448.62	5734.31
448.80	5701.54
448.99	5900.49
449.17	5699.20
449.36	5715.59
449.54	5841.98
449.73	6026.88
449.91	6043.26
450.10	6113.48
450.28	6005.81
450.46	6122.84
450.65	5893.47
450.83	6160.29
451.02	6284.34
451.20	6106.46
451.39	6244.55
451.57	6008.16
451.76	6061.99
451.94	6202.42
452.13	6211.78
452.31	6200.08
452.49	6270.30
452.68	6370.94
452.86	6188.38
453.05	6207.10
453.23	6286.68
453.42	6277.32
453.60	6352.21
453.78	6452.86
453.97	6375.62
454.15	6218.80
454.34	6090.07
454.52	6530.09
454.70	6527.75
454.89	6258.59
455.07	6565.20
455.26	6417.75
455.44	6534.78
455.62	6541.80
455.81	6541.80
455.99	6700.95
456.17	6516.05
456.36	6597.97
456.54	6822.66
456.73	6724.36
456.91	6883.52
457.09	6902.24
457.28	7098.84
457.46	6794.58
457.64	7084.80
457.83	6848.41
458.01	6916.28
458.19	7148.00
458.38	7124.59
458.56	6979.48
458.74	6892.88
458.93	7206.51
459.11	7129.27
459.29	7117.57
459.48	7342.26
459.66	7199.49
459.84	7122.25
460.03	7353.96
460.21	7232.26
460.39	7389.07
460.57	7236.94
460.76	7384.39
460.94	7431.20
461.12	7581.00
461.31	7503.76
461.49	7396.09
461.67	7286.09
461.85	7742.49
462.04	7456.95
462.22	8042.08
462.40	7674.62
462.59	7634.83
462.77	7632.49
462.95	7578.65
463.13	7709.72
463.32	7772.92
463.50	7714.41
463.68	7777.60
463.86	7782.28
464.05	7836.11
464.23	7669.94
464.41	7705.04
464.59	7850.16
464.78	7779.94
464.96	7882.92
465.14	7920.37
465.32	8205.92
465.50	7981.23
465.69	7730.79
465.87	7920.37
466.05	8072.51
466.23	8046.76
466.41	7971.86
466.60	8210.60
466.78	8088.89
466.96	8095.91
467.14	8044.42
467.32	8224.64
467.51	8329.97
467.69	8018.68
467.87	8189.53
468.05	8292.52
468.23	7999.95
468.41	8205.92
468.60	8446.99
468.78	8280.82
468.96	8388.48
469.14	8322.94
469.32	8411.89
469.50	8269.11
469.69	8720.84
469.87	8444.65
470.05	8608.49
470.23	8552.32
470.41	8561.68
470.59	8585.08
470.77	8566.36
470.95	8805.10
471.14	8854.25
471.32	8568.70
471.50	8844.88
471.68	8978.30
471.86	8922.12
472.04	8847.22
472.22	9184.26
472.40	9036.81
472.58	9104.68
472.77	9202.99
472.95	9195.96
473.13	9366.82
473.31	9174.90
473.49	9280.22
473.67	9025.11
473.85	9158.52
474.03	9488.53
474.21	9572.79
474.39	9551.73
474.57	9666.41
474.75	9664.07
474.93	9776.42
475.12	9792.80
475.30	9661.73
475.48	9488.53
475.66	9968.34
475.84	9865.36
476.02	10040.90
476.20	10033.88
476.38	10211.76
476.56	10293.68
476.74	10270.27
476.92	10600.29
477.10	10373.25
477.28	10415.38
477.46	10487.94
477.64	10700.93
477.82	10366.23
478.00	10998.18
478.18	10862.43
478.36	11103.50
478.54	11295.43
478.72	11016.90
478.90	11527.14
479.08	11257.98
479.26	11384.37
479.44	11559.91
479.62	11414.79
479.80	11548.20
479.98	11630.12
480.16	11948.43
480.34	11658.21
480.52	11887.58
480.70	11578.63
480.88	11667.57
481.06	12180.15
481.24	12154.40
481.41	12313.56
481.59	12643.57
481.77	12552.29
481.95	12477.40
482.13	12695.07
482.31	12397.82
482.49	13085.94
482.67	13039.12
482.85	12779.32
483.03	13156.15
483.21	13071.89
483.39	13455.74
483.57	13441.70
483.74	13790.44
483.92	13797.46
484.10	13521.27
484.28	14272.59
484.46	14057.26
484.64	14415.36
484.82	14005.77
485.00	14141.52
485.18	14684.52
485.35	14806.23
485.53	14518.34
485.71	14490.26
485.89	14960.70
486.07	14590.90
486.25	15044.96
486.43	15103.48
486.61	15246.25
486.78	15433.49
486.96	15435.83
487.14	15667.55
487.32	15609.03
487.50	16035.01
487.68	15953.09
487.85	16306.51
488.03	16116.93
488.21	16465.67
488.39	16360.34
488.57	16683.34
488.75	16755.90
488.92	16781.64
489.10	16982.93
489.28	16975.91
489.46	17109.32
489.64	17226.34
489.81	17474.44
489.99	17734.24
490.17	17706.15
490.35	17762.33
490.53	17984.68
490.70	18005.74
490.88	18239.79
491.06	18618.96
491.24	18483.21
491.41	18258.52
491.59	18628.32
491.77	18845.99
491.95	18745.35
492.13	19026.21
492.30	19482.62
492.48	19178.35
492.66	19131.54
492.84	19459.21
493.01	19538.79
493.19	19482.62
493.37	19857.10
493.54	20051.37
493.72	20009.24
493.90	20030.30
494.08	20044.35
494.25	20533.52
494.43	20425.86
494.61	20486.71
494.79	20814.38
494.96	20748.85
495.14	20678.63
495.32	20931.41
495.49	21137.38
495.67	21209.93
495.85	21289.51
496.02	21331.64
496.20	21488.46
496.38	21837.20
496.55	21727.19
496.73	22012.74
496.91	21951.88
497.09	21905.07
497.26	22408.29
497.44	22328.71
497.62	22197.64
497.79	22537.02
497.97	22537.02
498.14	22728.94
498.32	22806.18
498.50	22984.06
498.67	23278.97
498.85	22986.40
499.03	23421.74
499.20	23316.42
499.38	23372.59
499.56	23620.69
499.73	23688.56
499.91	23543.45
500.08	23866.44
500.26	23690.90
500.44	24077.09
500.61	23854.74
500.79	23819.63
500.97	24114.54
501.14	24687.97
501.32	24350.93
501.49	24416.47
501.67	24133.26
501.84	24561.58
502.02	24636.48
502.20	24872.87
502.37	24776.91
502.55	25230.98
502.72	24854.15
502.90	24943.09
503.07	24945.43
503.25	25230.98
503.43	25266.08
503.60	25928.45
503.78	25598.44
503.95	25387.79
504.13	25481.41
504.30	25799.73
504.48	25542.27
504.65	25729.51
504.83	25928.45
505.01	25671.00
505.18	25881.64
505.36	26038.46
505.53	26253.79
505.71	26501.89
505.88	26691.47
506.06	26426.99
506.23	26506.57
506.41	26267.83
506.58	26520.61
506.76	26686.79
506.93	26719.56
507.11	26939.57
507.28	27117.45
507.46	27124.47
507.63	27234.47
507.81	27454.48
507.98	27243.84
508.16	27307.03
508.33	27182.98
508.50	27606.62
508.68	27524.70
508.85	27709.60
509.03	27440.44
509.20	28016.21
509.38	28041.96
509.55	28168.35
509.73	28166.01
509.90	28109.83
510.08	28325.16
510.25	28264.31
510.42	28261.97
510.60	28294.74
510.77	28641.14
510.95	28907.96
511.12	28814.34
511.30	28746.46
511.47	29214.57
511.64	29280.10
511.82	29193.50
511.99	29362.02
512.17	29193.50
512.34	29076.48
512.51	29298.83
512.69	29797.36
512.86	29972.90
513.04	29785.66
513.21	29809.06
513.38	29776.30
513.56	29612.46
513.73	29312.87
513.90	30206.95
514.08	30136.74
514.25	30185.89
514.43	30150.78
514.60	30132.06
514.77	30403.56
514.95	30644.63
515.12	30293.55
515.29	30410.58
515.47	30579.10
515.64	30756.98
515.81	30368.45
515.99	30869.33
516.16	30876.35
516.33	30810.81
516.51	30899.75
516.68	30925.50
516.85	30806.13
517.03	31077.63
517.20	31005.08
517.37	30862.30
517.54	31381.90
517.72	30991.03
517.89	31197.00
518.06	30899.75
518.24	31075.29
518.41	31562.12
518.58	31805.54
518.75	31662.77
518.93	31950.65
519.10	32208.11
519.27	32034.91
519.45	31805.54
519.62	32407.06
519.79	32180.03
519.96	32072.36
520.14	32301.73
520.31	31803.20
520.48	32151.94
520.65	32496.00
520.83	32680.90
521.00	32823.67
521.17	32851.76
521.34	32608.34
521.52	32837.72
521.69	32718.35
521.86	33193.48
522.03	33029.64
522.20	33167.73
522.38	33064.75
522.55	33823.08
522.72	33762.23
522.89	33472.00
523.07	33457.96
523.24	33233.27
523.41	33436.89
523.58	33565.62
523.75	33706.05
523.92	33818.40
524.10	33991.60
524.27	33631.16
524.44	34291.19
524.61	33954.15
524.78	34110.97
524.96	34202.25
525.13	34485.45
525.30	34672.70
525.47	34450.35
525.64	34595.46
525.81	33912.02
525.98	34508.86
526.16	34567.37
526.33	34497.16
526.50	34611.84
526.67	34508.86
526.84	34410.56
527.01	34658.65
527.18	34789.72
527.36	35051.86
527.53	35218.04
527.70	35115.06
527.87	35379.54
528.04	35152.51
528.21	35716.58
528.38	35297.62
528.55	35573.80
528.72	35400.60
528.89	35349.11
529.07	35601.89
529.24	35204.00
529.41	35901.48
529.58	35576.14
529.75	35480.18
529.92	35672.10
530.09	35917.86
530.26	35831.26
530.43	35793.81
530.60	35445.07
530.77	35660.40
530.94	35847.64
531.11	36203.41
531.28	36435.12
531.46	36435.12
531.63	36219.79
531.80	36257.24
531.97	36254.90
532.14	36360.22
532.31	36311.07
532.48	36514.70
532.65	36739.39
532.82	36430.44
532.99	37043.66
533.16	36231.49
533.33	36613.00
533.50	37013.23
533.67	36828.33
533.84	36715.98
534.01	36818.97
534.18	36554.49
534.35	37195.79
534.52	36760.45
534.69	37095.15
534.86	37549.21
535.03	37006.21
535.20	37354.95
535.37	37282.39
535.54	37380.70
535.71	37418.14
535.88	37656.88
536.05	37453.25
536.22	37380.70
536.38	37680.28
536.55	37357.29
536.72	37546.87
536.89	37708.37
537.06	37666.24
537.23	37907.32
537.40	37326.86
537.57	37851.14
537.74	38059.45
537.91	38445.64
538.08	38389.47
538.25	37841.78
538.42	38480.75
538.59	38242.01
538.75	37949.45
538.92	38356.70
539.09	38445.64
539.26	37949.45
539.43	38136.69
539.60	38335.63
539.77	37979.87
539.94	38424.57
540.11	38342.66
540.28	38160.09
540.44	38609.48
540.61	38541.60
540.78	38403.51
540.95	39140.78
541.12	38490.11
541.29	38939.49
541.46	38937.15
541.62	38630.54
541.79	39253.12
541.96	38611.82
542.13	38801.40
542.30	39419.30
542.47	38651.61
542.63	38920.77
542.80	39473.13
542.97	39601.86
543.14	39828.90
543.31	39299.94
543.48	39562.08
543.64	39929.54
543.81	39732.93
543.98	39796.13
544.15	39782.09
544.32	40231.47
544.48	39833.58
544.65	39445.05
544.82	39957.63
544.99	39545.69
545.16	40039.54
545.32	40020.82
545.49	39508.24
545.66	40191.68
545.83	39770.38
546.00	40620.00
546.16	40247.85
546.33	39803.15
546.50	39758.68
546.67	40004.44
546.83	40020.82
547.00	40362.54
547.17	39966.99
547.34	40493.61
547.50	40428.07
547.67	40491.27
547.84	40540.42
548.00	41109.17
548.17	40870.43
548.34	40367.22
548.51	40755.75
548.67	40549.78
548.84	41287.05
549.01	40521.69
549.18	40521.69
549.34	40505.31
549.51	40435.10
549.68	40980.44
549.84	40942.99
550.01	41305.77
550.18	41258.96
550.34	40793.20
550.51	41338.54
550.68	41132.57
550.84	40685.53
551.01	40858.73
551.18	41031.93
551.34	40926.61
551.51	41212.15
551.68	41207.47
551.84	41422.80
552.01	41261.30
552.18	41338.54
552.34	40973.42
552.51	41343.22
552.68	41322.16
552.84	41429.82
553.01	41801.97
553.18	41839.42
553.34	41720.05
553.51	41170.02
553.67	41881.55
553.84	41818.35
554.01	42134.32
554.17	41890.91
554.34	41823.03
554.51	42071.13
554.67	42167.09
554.84	41647.49
555.00	41947.08
555.17	42150.71
555.33	41806.65
555.50	41633.45
555.67	41834.74
555.83	42209.22
556.00	42384.76
556.16	42520.51
556.33	42335.61
556.50	41858.14
556.66	42057.09
556.83	42181.13
556.99	42457.32
557.16	42396.46
557.32	42127.30
557.49	42527.53
557.65	42003.25
557.82	42286.46
557.98	41993.89
558.15	42183.48
558.32	42684.35
558.48	42848.19
558.65	42637.54
558.81	42012.62
558.98	42344.97
559.14	42412.85
559.31	42403.49
559.47	42319.23
559.64	42932.45
559.80	42387.10
559.97	42717.12
560.13	42010.28
560.30	42735.84
560.46	42735.84
560.63	43042.45
560.79	43075.22
560.96	42864.57
561.12	42658.60
561.29	42178.79
561.45	42686.69
561.61	42609.45
561.78	42497.11
561.94	42806.06
562.11	42625.84
562.27	43040.11
562.44	42717.12
562.60	42742.86
562.77	43217.99
562.93	43026.07
563.10	42939.47
563.26	42866.91
563.42	42377.74
563.59	43037.77
563.75	42911.38
563.92	43248.42
564.08	43274.16
564.24	43655.67
564.41	43543.33
564.57	43058.84
564.74	43058.84
564.90	43381.83
565.07	43697.80
565.23	43112.67
565.39	43533.96
565.56	43140.75
565.72	43201.61
565.88	43072.88
566.05	42937.13
566.21	43484.81
566.38	42454.98
566.54	43292.89
566.70	43779.72
566.87	43819.51
567.03	43164.16
567.19	43845.26
567.36	43674.40
567.52	42775.63
567.68	43576.09
567.85	42979.26
568.01	43384.17
568.17	43215.65
568.34	43264.80
568.50	43655.67
568.66	43351.40
568.83	43262.46
568.99	43140.75
569.15	43358.42
569.32	43117.35
569.48	43140.75
569.64	43669.72
569.81	43662.69
569.97	43501.20
570.13	43653.33
570.30	43323.32
570.46	43498.86
570.62	43136.07
570.78	43370.13
570.95	43456.73
571.11	43704.82
571.27	43330.34
571.43	43353.74
571.60	43606.52
571.76	43665.03
571.92	43232.04
572.09	43391.19
572.25	43613.54
572.41	43393.53
572.57	43899.09
572.74	43894.41
572.90	43658.01
573.06	43763.34
573.22	43550.35
573.38	43440.34
573.55	43325.66
573.71	43983.35
573.87	43552.69
574.03	43175.86
574.20	43285.87
574.36	43849.94
574.52	43428.64
574.68	43126.71
574.84	43744.61
575.01	43449.70
575.17	43421.62
575.33	43814.83
575.49	43419.28
575.65	44161.23
575.82	44130.80
575.98	43721.21
576.14	43997.39
576.30	43878.02
576.46	43339.70
576.62	43576.09
576.79	43510.56
576.95	43555.03
577.11	43751.63
577.27	43770.36
577.43	43423.96
577.59	43934.20
577.75	44271.23
577.92	43779.72
578.08	43447.36
578.24	43662.69
578.40	43744.61
578.56	43957.60
578.72	44048.88
578.88	43929.51
579.04	43938.88
579.21	43824.19
579.37	43203.95
579.53	43688.44
579.69	43416.94
579.85	43765.68
580.01	44245.49
580.17	44083.99
580.33	44409.32
580.49	43997.39
580.65	43639.29
580.82	43739.93
580.98	43988.03
581.14	43672.06
581.30	44528.69
581.46	43934.20
581.62	43718.87
581.78	44273.57
581.94	44322.72
582.10	43901.43
582.26	43971.64
582.42	43943.56
582.58	43847.60
582.74	43777.38
582.90	43753.97
583.06	44151.87
583.22	43803.13
583.38	44453.79
583.54	43929.51
583.70	43445.02
583.86	43847.60
584.02	43536.30
584.18	44034.84
584.34	43842.92
584.50	44170.59
584.66	44381.24
584.82	43746.95
584.98	44198.68
585.14	43917.81
585.30	43653.33
585.46	44116.76
585.62	43880.36
585.78	43772.70
585.94	43981.01
586.10	44016.11
586.26	43753.97
586.42	44128.46
586.58	43966.96
586.74	43969.30
586.90	43276.51
587.06	43728.23
587.22	43978.67
587.38	43826.53
587.54	44229.10
587.70	44133.14
587.86	44088.67
588.02	44374.22
588.18	44304.00
588.34	44055.90
588.49	43871.00
588.65	43665.03
588.81	43915.47
588.97	43992.71
589.13	43875.68
589.29	43725.89
589.45	44144.84
589.61	43934.20
589.77	44245.49
589.93	44772.11
590.08	44442.09
590.24	44320.38
590.40	44507.63
590.56	44226.76
590.72	44065.27
590.88	44236.12
591.04	44208.04
591.20	44453.79
591.35	44629.34
591.51	44645.72
591.67	44236.12
591.83	44397.62
591.99	44449.11
592.15	44058.24
592.31	44442.09
592.46	43990.37
592.62	44264.21
592.78	44383.58
592.94	44423.37
593.10	44390.60
593.26	44460.82
593.41	44301.66
593.57	44100.37
593.73	44311.02
593.89	44306.34
594.05	44238.47
594.20	43929.51
594.36	44861.05
594.52	44051.22
594.68	44435.07
594.84	44238.47
594.99	44786.15
595.15	43983.35
595.31	44353.15
595.47	44575.50
595.62	44243.15
595.78	44849.35
595.94	44360.17
596.10	44612.95
596.25	44767.43
596.41	44732.32
596.57	44598.91
596.73	44371.88
596.88	44088.67
597.04	44006.75
597.20	44376.56
597.36	44154.21
597.51	44601.25
597.67	44172.93
597.83	44514.65
597.99	44594.23
598.14	44540.39
598.30	44383.58
598.46	43875.68
598.61	44332.09
598.77	44144.84
598.93	44570.82
599.09	44112.08
599.24	44865.73
599.40	44648.06
599.56	44287.62
599.71	44491.24
599.87	44477.20
600.03	44437.41
600.18	44727.64
600.34	44603.59
600.50	44678.49
600.65	44296.98
600.81	44662.10
600.97	44725.30
601.12	44795.51
601.28	44706.57
601.44	44802.53
601.59	44713.59
601.75	43931.86
601.91	44545.08
602.06	44751.04
602.22	44727.64
602.37	44727.64
602.53	44722.96
602.69	44374.22
602.84	44027.82
603.00	44362.51
603.16	44348.47
603.31	44009.09
603.47	44142.50
603.62	44559.12
603.78	44671.46
603.94	44561.46
604.09	45001.48
604.25	45125.53
604.40	44514.65
604.56	44364.85
604.71	44559.12
604.87	44437.41
605.03	44926.58
605.18	44140.16
605.34	44453.79
605.49	44285.28
605.65	44432.73
605.80	44706.57
605.96	44636.36
606.12	44168.25
606.27	44582.52
606.43	44226.76
606.58	44098.03
606.74	44233.78
606.89	44364.85
607.05	44486.56
607.20	44498.26
607.36	43833.55
607.51	44516.99
607.67	44591.89
607.82	44107.40
607.98	44519.33
608.13	44215.06
608.29	44477.20
608.44	44189.31
608.60	43250.76
608.75	43938.88
608.91	44210.38
609.06	44364.85
609.22	44451.45
609.37	44072.29
609.53	44196.34
609.68	44142.50
609.84	44243.15
609.99	44268.89
610.15	43878.02
610.30	43845.26
610.46	43845.26
610.61	44020.80
610.76	43814.83
610.92	43983.35
611.07	43852.28
611.23	43941.22
611.38	44175.27
611.54	43838.23
611.69	43456.73
611.84	43524.60
612.00	43819.51
612.15	43856.96
612.31	43950.58
612.46	43901.43
612.62	44081.65
612.77	43868.66
612.92	44210.38
613.08	43737.59
613.23	43700.14
613.39	44016.11
613.54	43173.52
613.69	43746.95
613.85	43629.93
614.00	44039.52
614.15	43393.53
614.31	43648.65
614.46	43995.05
614.62	43983.35
614.77	43686.10
614.92	43117.35
615.08	43665.03
615.23	43519.92
615.38	43814.83
615.54	42796.70
615.69	43360.76
615.84	43220.33
616.00	43433.32
616.15	43585.46
616.30	43580.78
616.46	43463.75
616.61	43194.59
616.76	43325.66
616.92	43077.56
617.07	43147.78
617.22	42899.68
617.37	43075.22
617.53	43171.18
617.68	43171.18
617.83	43175.86
617.99	43367.79
618.14	43562.05
618.29	43320.98
618.45	42953.51
618.60	42714.78
618.75	43072.88
618.90	43133.73
619.06	42859.89
619.21	43049.47
619.36	43194.59
619.51	42693.71
619.67	42850.53
619.82	43117.35
619.97	43217.99
620.12	42440.93
620.28	42230.29
620.43	42405.83
620.58	42646.90
620.73	42934.79
620.89	42319.23
621.04	43309.27
621.19	42471.36
621.34	42806.06
621.49	42218.58
621.65	41916.65
621.80	42658.60
621.95	42094.53
622.10	42424.55
622.25	42452.64
622.41	42129.64
622.56	42078.15
622.71	42768.61
622.86	42373.06
623.01	42632.86
623.16	42431.57
623.32	42480.72
623.47	42459.66
623.62	42649.24
623.77	42206.88
623.92	41764.52
624.07	42176.45
624.23	41977.51
624.38	42082.83
624.53	41940.06
624.68	42010.28
624.83	42366.04
624.98	42192.84
625.13	42171.77
625.29	42061.77
625.44	42080.49
625.59	41808.99
625.74	41549.19
625.89	41165.34
626.04	41703.67
626.19	41696.64
626.34	41366.63
626.49	41888.57
626.65	41855.80
626.80	41588.98
626.95	41647.49
627.10	41675.58
627.25	41588.98
627.40	41373.65
627.55	41291.73
627.70	40678.51
627.85	41481.31
628.00	41619.41
628.15	41844.10
628.30	41139.60
628.45	42047.72
628.60	41670.90
628.76	41439.18
628.91	41394.71
629.06	41371.31
629.21	41069.38
629.36	41268.33
629.51	40980.44
629.66	41354.93
629.81	40992.14
629.96	41165.34
630.11	41064.70
630.26	41031.93
630.41	41434.50
630.56	41163.00
630.71	41184.07
630.86	41139.60
631.01	41495.36
631.16	41088.10
631.31	40563.82
631.46	40549.78
631.61	40889.16
631.76	41277.69
631.91	41230.88
632.06	40882.14
632.21	40933.63
632.36	40900.86
632.51	40495.95
632.66	40767.45
632.81	40304.02
632.96	40762.77
633.10	40301.68
633.25	40500.63
633.40	40732.34
633.55	40835.33
633.70	40273.60
633.85	40545.10
634.00	40502.97
634.15	40282.96
634.30	39915.50
634.45	40285.30
634.60	40465.52
634.75	40044.23
634.90	40528.72
635.05	40304.02
635.19	40306.37
635.34	40662.13
635.49	40556.80
635.64	39885.07
635.79	39887.41
635.94	40297.00
636.09	39805.49
636.24	39936.56
636.39	39789.11
636.53	39459.09
636.68	39950.60
636.83	39962.31
636.98	39711.87
637.13	39255.46
637.28	39739.96
637.43	40149.55
637.57	40245.51
637.72	39889.75
637.87	39871.03
638.02	39545.69
638.17	39833.58
638.32	39824.22
638.46	39414.62
638.61	39735.27
638.76	39194.61
638.91	39311.64
639.06	39931.88
639.20	39655.70
639.35	39739.96
639.50	39559.73
639.65	39501.22
639.80	39817.19
639.94	39564.42
640.09	39707.19
640.24	39264.83
640.39	39346.75
640.54	39145.46
640.68	39332.70
640.83	38944.17
640.98	38976.94
641.13	38880.98
641.27	39421.64
641.42	39594.84
641.57	39505.90
641.72	39566.76
641.86	39185.25
642.01	38597.77
642.16	39138.44
642.31	38976.94
642.45	38892.68
642.60	38948.85
642.75	38689.06
642.90	38906.73
643.04	38635.22
643.19	38675.01
643.34	38714.80
643.48	38965.24
643.63	38738.21
643.78	38841.19
643.93	38380.10
644.07	38579.05
644.22	38588.41
644.37	38628.20
644.51	37979.87
644.66	38541.60
644.81	39063.54
644.95	38852.89
645.10	38836.51
645.25	38902.04
645.39	39203.97
645.54	38904.38
645.69	38529.90
645.83	38309.89
645.98	38548.62
646.13	38752.25
646.27	38703.10
646.42	38710.12
646.57	38534.58
646.71	38279.46
646.86	38368.40
647.00	38827.15
647.15	38181.16
647.30	38436.28
647.44	38490.11
647.59	38141.37
647.74	38375.42
647.88	37942.42
648.03	38307.55
648.17	38003.28
648.32	37715.39
648.47	37935.40
648.61	38101.58
648.76	38227.97
648.90	37591.34
649.05	38389.47
649.20	37951.79
649.34	38099.24
649.49	38279.46
649.63	37846.46
649.78	37914.34
649.92	37626.45
650.07	38328.61
650.21	37722.41
650.36	38073.49
650.51	37666.24
650.65	38164.78
650.80	37972.85
650.94	37930.72
651.09	37890.93
651.23	37483.68
651.38	37486.02
651.52	37785.61
651.67	37556.24
651.81	37528.15
651.96	37549.21
652.10	37621.77
652.25	37368.99
652.39	37188.77
652.54	37331.54
652.68	37223.88
652.83	37652.20
652.97	37413.46
653.12	37818.38
653.26	37226.22
653.41	37422.83
653.55	37123.24
653.70	37457.93
653.84	37331.54
653.99	37441.55
654.13	36921.95
654.27	37455.59
654.42	37354.95
654.56	37022.59
654.71	37120.90
654.85	37460.27
655.00	36896.20
655.14	36713.64
655.29	36769.82
655.43	36788.54
655.57	36437.46
655.72	36739.39
655.86	36601.30
656.01	36652.79
656.15	36900.89
656.30	36655.13
656.44	36257.24
656.58	36325.11
656.73	36533.42
656.87	36591.94
657.01	36039.57
657.16	36547.47
657.30	36226.81
657.45	35955.31
657.59	36589.59
657.73	35896.80
657.88	36601.30
658.02	35974.03
658.16	36430.44
658.31	36416.40
658.45	36095.74
658.60	36086.38
658.74	36332.14
658.88	36112.13
659.03	35618.27
659.17	35683.81
659.31	35985.74
659.46	36407.03
659.60	36077.02
659.74	35924.88
659.89	35835.94
660.03	35749.34
660.17	35796.15
660.32	35730.62
660.46	36180.00
660.60	35835.94
660.74	35988.08
660.89	35917.86
661.03	35077.61
661.17	35489.54
661.32	35206.34
661.46	34679.72
661.60	34881.00
661.74	35517.63
661.89	34939.52
662.03	35386.56
662.17	34995.69
662.31	35199.32
662.46	35103.35
662.60	35379.54
662.74	34660.99
662.88	34993.35
663.03	34347.36
663.17	34862.28
663.31	34366.09
663.45	34965.26
663.60	34684.40
663.74	34955.90
663.88	34747.59
664.02	34085.22
664.17	34691.42
664.31	34384.81
664.45	34127.35
664.59	34424.60
664.73	34478.43
664.88	34632.91
665.02	33991.60
665.16	34646.95
665.30	34115.65
665.44	33787.97
665.59	33469.66
665.73	33895.64
665.87	33511.79
666.01	33596.05
666.15	33928.41
666.29	33598.39
666.44	33738.82
666.58	33598.39
666.72	34089.90
666.86	33766.91
667.00	33666.27
667.14	33516.47
667.28	33095.18
667.43	33699.03
667.57	33301.14
667.71	33544.56
667.85	33139.65
667.99	33596.05
668.13	32503.02
668.27	32905.59
668.41	33230.93
668.56	32739.41
668.70	33343.27
668.84	32903.25
668.98	32774.52
669.12	32613.02
669.26	32524.08
669.40	32606.00
669.54	32711.33
669.68	32989.85
669.82	32755.80
669.96	32135.56
670.10	32002.14
670.25	32561.53
670.39	32587.28
670.53	32486.64
670.67	32636.43
670.81	32364.93
670.95	32603.66
671.09	32067.68
671.23	32208.11
671.37	32465.57
671.51	32070.02
671.65	31709.58
671.79	31929.59
671.93	31817.24
672.07	31737.66
672.21	31552.76
672.35	31173.60
672.49	31608.93
672.63	31772.77
672.77	31538.72
672.91	31426.37
673.05	31147.85
673.19	31218.07
673.33	31061.25
673.47	30756.98
673.61	30892.73
673.75	31143.17
673.89	30604.84
674.03	30590.80
674.17	30717.19
674.31	30679.74
674.45	30511.22
674.59	30916.14
674.73	30614.21
674.87	30567.40
675.01	30504.20
675.15	30761.66
675.29	30682.08
675.43	30216.32
675.56	30307.60
675.70	29832.47
675.84	29928.43
675.98	28739.44
676.12	30080.56
676.26	29745.87
676.40	29832.47
676.54	29619.48
676.68	29596.07
676.82	28952.43
676.96	29270.74
677.10	28966.47
677.23	29097.54
677.37	29177.12
677.51	28807.31
677.65	28774.55
677.79	28477.30
677.93	28793.27
678.07	28306.44
678.21	28336.87
678.34	28205.80
678.48	28030.26
678.62	28217.50
678.76	28161.33
678.90	27894.50
679.04	28081.75
679.18	27969.40
679.31	27597.26
679.45	27754.07
679.59	27234.47
679.73	27426.40
679.87	27559.81
680.00	27449.80
680.14	27393.63
680.28	27194.68
680.42	27147.87
680.56	27220.43
680.70	27241.50
680.83	26822.54
680.97	26934.88
681.11	26637.64
681.25	26522.95
681.39	26628.27
681.52	26431.67
681.66	26368.48
681.80	26855.31
681.94	26462.10
682.07	26450.39
682.21	25942.50
682.35	25865.26
682.49	26066.55
682.62	25982.29
682.76	25874.62
682.90	25755.26
683.04	25591.42
683.17	25565.67
683.31	25614.82
683.45	25692.06
683.59	25619.50
683.72	25053.09
683.86	25118.63
684.00	24664.57
684.13	25163.10
684.27	25090.54
684.41	24849.47
684.55	24779.25
684.68	24732.44
684.82	24697.33
684.96	24421.15
685.09	24308.80
685.23	24086.45
685.37	24531.15
685.50	24203.48
685.64	24287.74
685.78	23985.81
685.91	23953.04
686.05	23852.40
686.19	23388.97
686.32	23784.52
686.46	23569.19
686.60	23489.62
686.73	23513.02
686.87	23250.88
687.01	23290.67
687.14	23435.78
687.28	22705.54
687.42	23295.35
687.55	22572.13
687.69	22663.41
687.82	22366.16
687.96	22457.44
688.10	22874.06
688.23	22291.26
688.37	22167.21
688.50	22082.95
688.64	21930.82
688.78	22061.89
688.91	21984.65
689.05	21975.29
689.18	21659.32
689.32	21605.49
689.46	21500.16
689.59	21687.40
689.73	21830.18
689.86	21841.88
690.00	21324.62
690.13	21659.32
690.27	21198.23
690.41	21125.68
690.54	20926.73
690.68	20643.52
690.81	21036.74
690.95	20971.20
691.08	20671.61
691.22	20769.91
691.35	20964.18
691.49	20678.63
691.62	20552.24
691.76	20587.35
691.89	20430.54
692.03	20053.71
692.16	19922.64
692.30	20123.93
692.43	20037.33
692.57	19847.74
692.70	19840.72
692.84	20027.96
692.97	19831.36
693.11	19623.05
693.24	19311.76
693.38	19496.66
693.51	19374.95
693.65	19082.39
693.78	19506.02
693.92	19213.46
694.05	19047.28
694.19	19105.79
694.32	18817.91
694.45	18958.34
694.59	18831.95
694.72	18775.78
694.86	18934.93
694.99	18501.93
695.13	18607.26
695.26	18258.52
695.39	18394.27
695.53	18209.37
695.66	18293.63
695.80	17715.51
695.93	17881.69
696.07	18363.84
696.20	17869.99
696.33	17642.96
696.47	17444.01
696.60	17490.82
696.73	17603.17
696.87	17334.01
697.00	17507.21
697.14	17589.13
697.27	17439.33
697.40	17422.95
697.54	17301.24
697.67	16966.54
697.80	17228.68
697.94	17027.40
698.07	16812.07
698.21	16915.05
698.34	16704.40
698.47	16788.66
698.61	16355.66
698.74	16538.23
698.87	16549.93
699.01	16252.68
699.14	16294.81
699.27	16166.08
699.40	16030.33
699.54	15793.94
699.67	15857.13
699.80	15756.49
699.94	15662.86
700.07	16219.91
700.20	15843.09
700.34	15758.83
700.47	15473.28
700.60	15761.17
700.73	15646.48
700.87	15482.64
701.00	15257.95
701.13	15433.49
701.26	15632.44
701.40	15194.76
701.53	14965.39
701.66	15185.40
701.79	15054.33
701.93	14740.69
702.06	14705.59
702.19	14436.42
702.32	14834.32
702.46	14827.29
702.59	14354.51
702.72	14511.32
702.85	14593.24
702.99	14565.15
703.12	14817.93
703.25	14609.62
703.38	14237.48
703.51	14155.56
703.65	14183.65
703.78	13867.67
703.91	13980.02
704.04	13862.99
704.17	13949.59
704.31	13802.14
704.44	13603.19
704.57	13675.75
704.70	13481.49
704.83	13542.34
704.96	13364.46
705.10	13542.34
705.23	13577.45
>>>>>End Processed Spectral Data<<<<<
