SpectraSuite Data File
++++++++++++++++++++++++++++++++++++
Date: Fri Oct 25 10:43:31 EDT 2013
User: price-jones
Dark Spectrum Present: No
Reference Spectrum Present: No
Number of Sampled Component Spectra: 1
Spectrometers: USB2+H05261
Integration Time (usec): 100000 (USB2+H05261)
Spectra Averaged: 1 (USB2+H05261)
Boxcar Smoothing: 0 (USB2+H05261)
Correct for Electrical Dark: No (USB2+H05261)
Strobe/Lamp Enabled: No (USB2+H05261)
Correct for Detector Non-linearity: No (USB2+H05261)
Correct for Stray Light: No (USB2+H05261)
Number of Pixels in Processed Spectrum: 2048
>>>>>Begin Processed Spectral Data<<<<<
365.73	142.77
365.92	142.77
366.12	142.77
366.32	44.47
366.52	0.00
366.72	9.36
366.91	86.60
367.11	35.11
367.31	35.11
367.51	70.22
367.70	0.00
367.90	105.32
368.10	11.70
368.30	11.70
368.49	0.00
368.69	100.64
368.89	11.70
369.09	28.09
369.28	65.54
369.48	0.00
369.68	124.05
369.87	49.15
370.07	93.62
370.27	142.77
370.47	208.31
370.66	341.72
370.86	428.32
371.06	510.24
371.25	540.66
371.45	472.79
371.65	440.02
371.84	400.23
372.04	425.98
372.24	444.70
372.44	510.24
372.63	585.13
372.83	521.94
373.03	519.60
373.22	505.56
373.42	484.49
373.62	428.32
373.81	531.30
374.01	564.07
374.21	554.71
374.40	528.96
374.60	512.58
374.79	524.28
374.99	557.05
375.19	624.92
375.38	486.83
375.58	580.45
375.78	615.56
375.97	550.03
376.17	657.69
376.37	627.26
376.56	615.56
376.76	554.71
376.95	622.58
377.15	566.41
377.35	702.16
377.54	671.73
377.74	648.33
377.93	557.05
378.13	582.79
378.33	781.74
378.52	739.61
378.72	638.97
378.91	653.01
379.11	545.34
379.31	531.30
379.50	704.50
379.70	613.22
379.89	674.07
380.09	634.29
380.28	739.61
380.48	725.57
380.68	641.31
380.87	667.05
381.07	702.16
381.26	781.74
381.46	678.76
381.65	739.61
381.85	667.05
382.04	690.46
382.24	741.95
382.43	674.07
382.63	636.63
382.83	748.97
383.02	772.38
383.22	753.65
383.41	678.76
383.61	767.70
383.80	798.12
384.00	774.72
384.19	784.08
384.39	795.78
384.58	779.40
384.78	772.38
384.97	861.32
385.17	777.06
385.36	842.59
385.56	805.14
385.75	758.33
385.95	791.10
386.14	793.44
386.34	807.48
386.53	851.96
386.72	830.89
386.92	868.34
387.11	933.87
387.31	863.66
387.50	821.53
387.70	819.19
387.89	894.08
388.09	791.10
388.28	912.81
388.48	877.70
388.67	908.13
388.86	884.72
389.06	964.30
389.25	997.07
389.45	1011.11
389.64	1032.18
389.84	985.37
390.03	840.25
390.22	1046.22
390.42	940.90
390.61	1022.81
390.81	983.02
391.00	1027.50
391.19	1015.79
391.39	1046.22
391.58	1067.28
391.78	922.17
391.97	1041.54
392.16	1004.09
392.36	992.39
392.55	1015.79
392.75	966.64
392.94	980.68
393.13	959.62
393.33	964.30
393.52	1095.37
393.71	1177.29
393.91	1074.31
394.10	1046.22
394.29	1107.07
394.49	1020.47
394.68	1139.84
394.88	1191.33
395.07	1165.59
395.26	1167.93
395.46	1266.23
395.65	1289.64
395.84	1196.01
396.04	1341.13
396.23	1200.69
396.42	1160.91
396.62	1174.95
396.81	1174.95
397.00	1186.65
397.19	1282.61
397.39	1345.81
397.58	1355.17
397.77	1336.45
397.97	1416.02
398.16	1411.34
398.35	1411.34
398.55	1401.98
398.74	1404.32
398.93	1504.96
399.12	1451.13
399.32	1423.05
399.51	1547.09
399.70	1577.52
399.90	1612.63
400.09	1708.59
400.28	1624.33
400.47	1666.46
400.67	1706.25
400.86	1631.35
401.05	1717.95
401.24	1739.02
401.44	1659.44
401.63	1743.70
401.82	1769.44
402.01	1713.27
402.21	1722.63
402.40	1727.32
402.59	1678.16
402.78	1750.72
402.97	1776.47
403.17	1729.66
403.36	1781.15
403.55	1715.61
403.74	1884.13
403.93	1888.81
404.13	1839.66
404.32	1881.79
404.51	1846.68
404.70	1863.07
404.89	1811.57
405.09	1923.92
405.28	1949.67
405.47	1935.62
405.66	1952.01
405.85	1982.43
406.05	1930.94
406.24	1933.28
406.43	2069.03
406.62	2069.03
406.81	2127.55
407.00	2099.46
407.20	2143.93
407.39	2050.31
407.58	2108.82
407.77	2251.60
407.96	2242.23
408.15	2275.00
408.34	2190.74
408.54	2263.30
408.73	2239.89
408.92	2242.23
409.11	2232.87
409.30	2333.51
409.49	2303.09
409.68	2169.68
409.87	2298.41
410.07	2377.98
410.26	2272.66
410.45	2382.67
410.64	2394.37
410.83	2537.14
411.02	2520.76
411.21	2485.65
411.40	2525.44
411.59	2502.03
411.78	2480.97
411.98	2553.52
412.17	2553.52
412.36	2747.79
412.55	2796.94
412.74	2703.32
412.93	2782.90
413.12	2644.81
413.31	2820.35
413.50	2930.35
413.69	2960.78
413.88	2981.84
414.07	2949.08
414.26	2986.52
414.45	2932.69
414.64	2906.95
414.83	2942.05
415.02	3012.27
415.22	3131.64
415.41	3061.42
415.60	3098.87
415.79	3173.77
415.98	3211.22
416.17	3141.00
416.36	3162.06
416.55	3300.16
416.74	3246.32
416.93	3225.26
417.12	3239.30
417.31	3239.30
417.50	3344.63
417.69	3461.65
417.88	3431.23
418.07	3445.27
418.26	3328.24
418.45	3452.29
418.64	3548.25
418.83	3564.64
419.02	3480.38
419.21	3421.86
419.39	3529.53
419.58	3513.14
419.77	3398.46
419.96	3641.87
420.15	3634.85
420.34	3693.37
420.53	3655.92
420.72	3742.52
420.91	3702.73
421.10	3775.28
421.29	3955.51
421.48	3679.32
421.67	3765.92
421.86	3824.44
422.05	3889.97
422.24	3798.69
422.43	3843.16
422.61	3847.84
422.80	3983.59
422.99	3810.39
423.18	3892.31
423.37	3943.80
423.56	3871.25
423.75	3833.80
423.94	3772.94
424.13	3641.87
424.32	3700.39
424.50	3918.06
424.69	3985.93
424.88	3981.25
425.07	3765.92
425.26	3969.55
425.45	3974.23
425.64	3918.06
425.83	3770.60
426.01	3894.65
426.20	3976.57
426.39	4166.15
426.58	3831.46
426.77	3997.64
426.96	3831.46
427.15	4028.06
427.33	3939.12
427.52	4147.43
427.71	4124.02
427.90	4067.85
428.09	4154.45
428.28	4114.66
428.46	4219.99
428.65	4208.28
428.84	4152.11
429.03	4219.99
429.22	3962.53
429.40	3943.80
429.59	4168.49
429.78	3936.78
429.97	4002.32
430.16	3964.87
430.34	4198.92
430.53	4070.19
430.72	4203.60
430.91	4093.60
431.10	4276.16
431.28	4362.76
431.47	4533.62
431.66	4676.39
431.85	4517.23
432.03	4606.17
432.22	4692.77
432.41	4498.51
432.60	4608.51
432.79	4615.54
432.97	4732.56
433.16	4620.22
433.35	4575.75
433.54	4711.50
433.72	4421.27
433.91	4594.47
434.10	4660.01
434.28	4674.05
434.47	4788.74
434.66	4711.50
434.85	4781.71
435.03	4952.57
435.22	4809.80
435.41	5111.73
435.59	5078.96
435.78	5011.09
435.97	5184.29
436.16	5055.56
436.34	5039.17
436.53	5081.30
436.72	5263.86
436.90	5060.24
437.09	5172.58
437.28	5069.60
437.46	5083.64
437.65	5254.50
437.84	5097.69
438.02	5057.90
438.21	5116.41
438.40	5020.45
438.58	5320.04
438.77	5331.74
438.96	5315.36
439.14	5547.07
439.33	5661.76
439.52	5540.05
439.70	5547.07
439.89	5767.08
440.08	5533.03
440.26	5643.03
440.45	5483.88
440.63	5614.95
440.82	5874.74
441.01	5619.63
441.19	5937.94
441.38	6071.35
441.57	6146.25
441.75	6160.29
441.94	6200.08
442.12	6090.07
442.31	6328.81
442.50	6216.46
442.68	6122.84
442.87	6190.72
443.05	6139.23
443.24	6363.92
443.43	6448.18
443.61	6272.64
443.80	6612.01
443.98	6445.84
444.17	6251.57
444.35	6462.22
444.54	6548.82
444.73	6441.15
444.91	6455.20
445.10	6464.56
445.28	6462.22
445.47	6406.05
445.65	6396.68
445.84	6342.85
446.02	6530.09
446.21	6548.82
446.39	6476.26
446.58	6516.05
446.77	6457.54
446.95	6654.14
447.14	6649.46
447.32	6731.38
447.51	6530.09
447.69	6546.48
447.88	6525.41
448.06	6672.87
448.25	6595.63
448.43	6888.20
448.62	6768.83
448.80	6630.74
448.99	6923.30
449.17	6883.52
449.36	6623.72
449.54	6857.77
449.73	7068.42
449.91	7162.04
450.10	7155.02
450.28	7143.32
450.46	7012.24
450.65	7337.58
450.83	7124.59
451.02	6927.99
451.20	7225.23
451.39	7206.51
451.57	7082.46
451.76	7103.53
451.94	7208.85
452.13	7201.83
452.31	7372.69
452.49	6960.75
452.68	7148.00
452.86	7220.55
453.05	7171.40
453.23	7164.38
453.42	7316.51
453.60	7349.28
453.78	7342.26
453.97	7133.95
454.15	7173.74
454.34	7201.83
454.52	7243.96
454.70	7328.22
454.89	7517.80
455.07	7431.20
455.26	7459.29
455.44	7620.78
455.62	7812.71
455.81	7702.70
455.99	7707.38
456.17	7817.39
456.36	7662.91
456.54	7887.61
456.73	8091.23
456.91	8135.70
457.09	7901.65
457.28	8147.40
457.46	8053.78
457.64	8098.25
457.83	7932.08
458.01	7997.61
458.19	8161.45
458.38	8187.19
458.56	8177.83
458.74	8208.26
458.93	8107.62
459.11	8196.56
459.29	8234.00
459.48	8388.48
459.66	8086.55
459.84	8285.50
460.03	8437.63
460.21	8334.65
460.39	8285.50
460.57	8348.69
460.76	8566.36
460.94	8638.92
461.12	8475.08
461.31	8662.32
461.49	8472.74
461.67	8688.07
461.85	8648.28
462.04	8601.47
462.22	9235.75
462.40	8835.52
462.59	8685.73
462.77	8872.97
462.95	8872.97
463.13	8966.59
463.32	8882.33
463.50	8924.46
463.68	8753.60
463.86	8800.41
464.05	8606.15
464.23	9018.08
464.41	9114.05
464.59	8891.70
464.78	9245.12
464.96	9041.49
465.14	9029.79
465.32	9135.11
465.50	9114.05
465.69	9118.73
465.87	8926.80
466.05	9158.52
466.23	9027.45
466.41	9015.74
466.60	9184.26
466.78	9043.83
466.96	9245.12
467.14	9310.65
467.32	9165.54
467.51	9427.68
467.69	9095.32
467.87	9144.47
468.05	9500.23
468.23	9273.20
468.41	9366.82
468.60	9430.02
468.78	9565.77
468.96	9380.87
469.14	9839.61
469.32	9900.47
469.50	9327.03
469.69	9605.56
469.87	9638.33
470.05	9715.56
470.23	9628.96
470.41	9757.69
470.59	9710.88
470.77	9891.10
470.95	9823.23
471.14	10150.90
471.32	9968.34
471.50	10293.68
471.68	10008.13
471.86	10066.64
472.04	10134.52
472.22	10459.85
472.40	10160.27
472.58	10370.91
472.77	10377.94
472.95	10565.18
473.13	10743.06
473.31	10443.47
473.49	10478.58
473.67	10340.49
473.85	10633.05
474.03	10939.66
474.21	10937.32
474.39	10897.53
474.57	10855.40
474.75	11138.61
474.93	11052.01
475.12	11122.23
475.30	11077.76
475.48	11173.72
475.66	11318.83
475.84	11379.68
476.02	11276.70
476.20	11433.52
476.38	11573.95
476.56	11592.67
476.74	11880.56
476.92	11569.27
477.10	11765.87
477.28	12070.14
477.46	12020.99
477.64	11922.69
477.82	12322.92
478.00	12374.41
478.18	12489.10
478.36	12336.96
478.54	12568.68
478.72	12837.84
478.90	12898.69
479.08	12786.35
479.26	13069.55
479.44	13099.98
479.62	12903.37
479.80	13270.84
479.98	13277.86
480.16	13502.55
480.34	13369.14
480.52	13673.41
480.70	13540.00
480.88	13549.36
481.06	14087.68
481.24	13661.71
481.41	13958.96
481.59	14398.98
481.77	14232.80
481.95	14148.54
482.13	14391.95
482.31	14384.93
482.49	14869.42
482.67	14567.49
482.85	14607.28
483.03	15028.58
483.21	15026.24
483.39	15335.19
483.57	15262.63
483.74	15353.91
483.92	15552.86
484.10	15456.90
484.28	15824.36
484.46	15871.17
484.64	16191.83
484.82	15957.77
485.00	16063.10
485.18	16290.13
485.35	16116.93
485.53	15807.98
485.71	15976.50
485.89	16152.04
486.07	16276.09
486.25	16559.29
486.43	16947.82
486.61	17165.49
486.78	17011.01
486.96	17158.47
487.14	17518.91
487.32	17586.79
487.50	17628.92
487.68	18043.19
487.85	18195.32
488.03	18487.89
488.21	18237.45
488.39	17933.18
488.57	18625.98
488.75	18476.19
488.92	18637.69
489.10	19356.23
489.28	19140.90
489.46	19726.04
489.64	19262.61
489.81	19864.13
489.99	20121.59
490.17	20023.28
490.35	20301.81
490.53	19889.87
490.70	20407.13
490.88	20369.68
491.06	20727.78
491.24	20692.68
491.41	20327.55
491.59	20568.63
491.77	20669.27
491.95	20690.34
492.13	21275.47
492.30	21504.84
492.48	21502.50
492.66	21521.23
492.84	21680.38
493.01	21806.77
493.19	21879.33
493.37	21963.59
493.54	22029.12
493.72	22567.45
493.90	22204.66
494.08	23070.66
494.25	22988.74
494.43	23065.98
494.61	23131.51
494.79	23351.52
494.96	23396.00
495.14	23239.18
495.32	23616.01
495.49	23557.49
495.67	23688.56
495.85	24053.69
496.02	23913.25
496.20	23903.89
496.38	24390.72
496.55	24273.70
496.73	24816.70
496.91	24638.82
497.09	24748.82
497.26	25013.31
497.44	24395.40
497.62	25111.61
497.79	25081.18
497.97	25060.12
498.14	25242.68
498.32	25048.41
498.50	25249.70
498.67	25848.88
498.85	25443.96
499.03	25991.65
499.20	25954.20
499.38	25998.67
499.56	26127.40
499.73	25965.90
499.91	26478.48
500.08	26209.32
500.26	26108.68
500.44	26551.04
500.61	26632.96
500.79	26001.01
500.97	26651.68
501.14	27054.25
501.32	26663.38
501.49	27002.76
501.67	27082.34
501.84	27337.46
502.02	27131.49
502.20	27211.07
502.37	27623.00
502.55	27740.03
502.72	28435.17
502.90	28093.45
503.07	27693.22
503.25	28276.01
503.43	27779.82
503.60	27857.06
503.78	27807.90
503.95	27938.97
504.13	28252.61
504.30	28397.72
504.48	28334.53
504.65	28467.94
504.83	28510.07
505.01	29558.63
505.18	28938.38
505.36	29132.65
505.53	29036.69
505.71	29355.00
505.88	29404.15
506.06	29397.13
506.23	29146.69
506.41	29221.59
506.58	29757.57
506.76	29802.04
506.93	29448.62
507.11	29509.47
507.28	29378.40
507.46	29820.77
507.63	29860.55
507.81	30080.56
507.98	29804.38
508.16	30132.06
508.33	30490.16
508.50	30157.80
508.68	30539.31
508.85	30562.72
509.03	31091.68
509.20	30663.36
509.38	30988.69
509.55	31171.25
509.73	31159.55
509.90	31250.83
510.08	31302.32
510.25	31016.78
510.42	31419.35
510.60	31587.87
510.77	31728.30
510.95	31627.66
511.12	31267.22
511.30	31814.90
511.47	32081.72
511.64	31901.50
511.82	32266.63
511.99	32189.39
512.17	32194.07
512.34	32170.66
512.51	32208.11
512.69	32158.96
512.86	32479.61
513.04	32577.92
513.21	32411.74
513.38	32582.60
513.56	32290.03
513.73	32821.33
513.90	32627.07
514.08	32666.86
514.25	32690.26
514.43	32912.61
514.60	32968.79
514.77	33095.18
514.95	33071.77
515.12	33287.10
515.29	33443.91
515.47	33827.76
515.64	33895.64
515.81	33490.73
515.99	33542.22
516.16	33649.88
516.33	33256.67
516.51	33729.46
516.68	33036.66
516.85	33156.03
517.03	33270.72
517.20	33659.24
517.37	34078.20
517.54	34455.03
517.72	34043.09
517.89	33706.05
518.06	33675.63
518.24	33736.48
518.41	34036.07
518.58	34087.56
518.75	34225.65
518.93	34567.37
519.10	34417.58
519.27	34726.53
519.45	34698.44
519.62	34937.18
519.79	34953.56
519.96	35044.84
520.14	35363.15
520.31	34696.10
520.48	35381.88
520.65	35365.49
520.83	35337.41
521.00	35803.17
521.17	35758.70
521.34	35861.69
521.52	35857.01
521.69	35644.02
521.86	36077.02
522.03	35920.20
522.20	35952.97
522.38	36297.03
522.55	36332.14
522.72	36374.27
522.89	36196.38
523.07	36601.30
523.24	36336.82
523.41	36699.60
523.58	36196.38
523.75	37132.60
523.92	36861.10
524.10	36928.97
524.27	36355.54
524.44	36947.70
524.61	36931.31
524.78	37207.50
524.96	37244.94
525.13	37720.07
525.30	37146.64
525.47	37682.62
525.64	37338.57
525.81	37179.41
525.98	37249.63
526.16	36982.80
526.33	36973.44
526.50	37102.17
526.67	37038.98
526.84	37092.81
527.01	36872.80
527.18	37546.87
527.36	37794.97
527.53	37816.04
527.70	38309.89
527.87	38061.79
528.04	37879.23
528.21	38040.73
528.38	38511.17
528.55	38447.98
528.72	38218.61
528.89	38625.86
529.07	38473.73
529.24	38314.57
529.41	38286.48
529.58	38227.97
529.75	38291.16
529.92	38948.85
530.09	38902.04
530.26	38871.62
530.43	39182.91
530.60	38469.04
530.77	38518.20
530.94	39206.31
531.11	38766.29
531.28	38859.91
531.46	39262.49
531.63	39414.62
531.80	38927.79
531.97	38862.26
532.14	39136.10
532.31	38871.62
532.48	39489.52
532.65	39758.68
532.82	39323.34
532.99	39405.26
533.16	39358.45
533.33	39639.31
533.50	39473.13
533.67	39852.30
533.84	39363.13
534.01	40133.17
534.18	40112.10
534.35	39908.47
534.52	39646.33
534.69	40109.76
534.86	40549.78
535.03	40046.57
535.20	40289.98
535.37	40409.35
535.54	40844.69
535.71	40339.13
535.88	40444.46
536.05	40224.45
536.22	40713.62
536.38	40346.15
536.55	40325.09
536.72	40102.74
536.89	40119.12
537.06	40128.48
537.23	40505.31
537.40	40617.66
537.57	40840.01
537.74	40875.12
537.91	41315.14
538.08	40870.43
538.25	40884.48
538.42	41148.96
538.59	41284.71
538.75	40690.21
538.92	40928.95
539.09	41029.59
539.26	41228.54
539.43	41235.56
539.60	40924.27
539.77	41074.06
539.94	40964.06
540.11	40924.27
540.28	41160.66
540.44	41036.61
540.61	41242.58
540.78	41160.66
540.95	41422.80
541.12	41188.75
541.29	41177.04
541.46	41387.69
541.62	41404.08
541.79	41645.15
541.96	41535.15
542.13	41806.65
542.30	41605.36
542.47	41827.71
542.63	41832.39
542.80	41848.78
542.97	42066.45
543.14	42019.64
543.31	42616.47
543.48	42534.56
543.64	42593.07
543.81	42415.19
543.98	42684.35
544.15	42550.94
544.32	42567.32
544.48	42784.99
544.65	42684.35
544.82	42370.72
544.99	42480.72
545.16	43274.16
545.32	42684.35
545.49	43005.00
545.66	43035.43
545.83	43054.15
546.00	42689.03
546.16	42974.58
546.33	42911.38
546.50	42405.83
546.67	43129.05
546.83	42433.91
547.00	42974.58
547.17	42838.83
547.34	42773.29
547.50	43248.42
547.67	43236.72
547.84	43182.88
548.00	43473.11
548.17	43679.08
548.34	43597.16
548.51	43433.32
548.67	43981.01
548.84	43491.83
549.01	42869.25
549.18	42969.90
549.34	42934.79
549.51	43505.88
549.68	43405.23
549.84	43817.17
550.01	43393.53
550.18	43311.61
550.34	43548.01
550.51	43168.84
550.68	43688.44
550.84	43096.28
551.01	44217.40
551.18	43587.80
551.34	43973.98
551.51	44311.02
551.68	44280.60
551.84	43814.83
552.01	43901.43
552.18	43807.81
552.34	43779.72
552.51	43576.09
552.68	43962.28
552.84	44208.04
553.01	43999.73
553.18	44154.21
553.34	44414.01
553.51	44154.21
553.67	44060.58
553.84	44626.99
554.01	44306.34
554.17	44346.13
554.34	44524.01
554.51	44285.28
554.67	44484.22
554.84	44275.91
555.00	44339.11
555.17	44205.70
555.33	44622.31
555.50	44149.53
555.67	44023.14
555.83	44411.67
556.00	44554.44
556.16	44566.14
556.33	44631.68
556.50	44502.95
556.66	44561.46
556.83	44088.67
556.99	44739.34
557.16	44488.90
557.32	44612.95
557.49	44409.32
557.65	44671.46
557.82	44779.13
557.98	45139.57
558.15	44973.39
558.32	44919.56
558.48	44322.72
558.65	44718.28
558.81	44477.20
558.98	44388.26
559.14	44856.37
559.31	44746.36
559.47	44854.03
559.64	45153.62
559.80	44741.68
559.97	44931.26
560.13	44753.38
560.30	44809.56
560.46	44933.60
560.63	45003.82
560.79	45537.46
560.96	45162.98
561.12	45151.27
561.29	44758.06
561.45	45052.97
561.61	44760.40
561.78	45500.01
561.94	45172.34
562.11	44659.76
562.27	44809.56
562.44	45036.59
562.60	45495.33
562.77	45205.11
562.93	44783.81
563.10	45507.04
563.26	45181.70
563.42	45565.55
563.59	45155.96
563.75	45188.72
563.92	45125.53
564.08	45013.18
564.24	45701.30
564.41	45411.07
564.57	45368.94
564.74	45191.06
564.90	44999.14
565.07	45020.20
565.23	45303.41
565.39	45212.13
565.56	45488.31
565.72	45027.23
565.88	45059.99
566.05	45090.42
566.21	45329.16
566.38	45500.01
566.54	45249.58
566.70	45628.74
566.87	45778.54
567.03	45628.74
567.19	45942.38
567.36	45853.44
567.52	45635.77
567.68	45764.49
567.85	45338.52
568.01	45832.37
568.17	45780.88
568.34	45387.67
568.50	45237.87
568.66	45521.08
568.83	45546.82
568.99	45148.93
569.15	45200.43
569.32	45577.25
569.48	45642.79
569.64	45902.59
569.81	45588.95
569.97	45415.76
570.13	45528.10
570.30	45146.59
570.46	45193.40
570.62	45020.20
570.78	44828.28
570.95	45177.02
571.11	45525.76
571.27	45235.53
571.43	45130.21
571.60	45626.40
571.76	45579.59
571.92	45593.64
572.09	45794.92
572.25	45556.19
572.41	45951.74
572.57	46075.79
572.74	46134.30
572.90	45289.37
573.06	45305.75
573.22	45703.64
573.38	45476.61
573.55	45509.38
573.71	45942.38
573.87	45825.35
574.03	45497.67
574.20	45656.83
574.36	45638.11
574.52	45825.35
574.68	46171.75
574.84	45549.17
575.01	45287.03
575.17	45401.71
575.33	45696.62
575.49	45336.18
575.65	45874.50
575.82	45722.37
575.98	45385.33
576.14	46162.39
576.30	46073.45
576.46	45710.66
576.62	45577.25
576.79	45485.97
576.95	45525.76
577.11	45984.51
577.27	45743.43
577.43	45535.12
577.59	45228.51
577.75	45375.97
577.92	45364.26
578.08	45326.81
578.24	45418.10
578.40	45598.32
578.56	45544.48
578.72	45476.61
578.88	45511.72
579.04	45469.59
579.21	45694.28
579.37	46045.36
579.53	45659.17
579.69	45357.24
579.85	45624.06
580.01	45893.22
580.17	46167.07
580.33	45593.64
580.49	45993.87
580.65	45677.90
580.82	45874.50
580.98	45511.72
581.14	45322.13
581.30	46054.72
581.46	45715.34
581.62	45483.63
581.78	45769.18
581.94	46354.31
582.10	45771.52
582.26	45911.95
582.42	46003.23
582.58	45336.18
582.74	45713.00
582.90	46014.93
583.06	46199.83
583.22	45741.09
583.38	46246.65
583.54	45862.80
583.70	46120.26
583.86	45724.71
584.02	45841.73
584.18	45907.27
584.34	45813.65
584.50	45560.87
584.66	45970.46
584.82	46064.08
584.98	46253.67
585.14	46150.68
585.30	45296.39
585.46	45818.33
585.62	45401.71
585.78	45731.73
585.94	45446.18
586.10	45862.80
586.26	45944.72
586.42	46171.75
586.58	46148.34
586.74	46043.02
586.90	46120.26
587.06	46211.54
587.22	45968.12
587.38	45935.35
587.54	45839.39
587.70	46380.06
587.86	45705.98
588.02	45516.40
588.18	45977.48
588.34	45823.01
588.49	45965.78
588.65	45249.58
588.81	45649.81
588.97	45539.80
589.13	45263.62
589.29	45670.87
589.45	45563.21
589.61	45982.16
589.77	45940.04
589.93	45790.24
590.08	45736.41
590.24	45869.82
590.40	46174.09
590.56	46302.82
590.72	45841.73
590.88	45757.47
591.04	46153.02
591.20	46782.63
591.35	46396.44
591.51	46312.18
591.67	45937.69
591.83	46181.11
591.99	45680.24
592.15	45603.00
592.31	45858.12
592.46	45900.25
592.62	45474.27
592.78	46117.92
592.94	45914.29
593.10	45961.10
593.26	46153.02
593.41	45656.83
593.57	46134.30
593.73	45991.53
593.89	46366.01
594.05	45832.37
594.20	45970.46
594.36	46073.45
594.52	45942.38
594.68	46234.94
594.84	46092.17
594.99	46068.76
595.15	46131.96
595.31	46204.52
595.47	45961.10
595.62	46204.52
595.78	45759.81
595.94	46036.00
596.10	45991.53
596.25	46321.54
596.41	45682.58
596.57	46155.36
596.73	46286.43
596.88	45713.00
597.04	46014.93
597.20	45752.79
597.36	46153.02
597.51	45752.79
597.67	46550.91
597.83	46363.67
597.99	46150.68
598.14	46134.30
598.30	46089.83
598.46	45968.12
598.61	46085.15
598.77	45823.01
598.93	45818.33
599.09	45954.08
599.24	46354.31
599.40	45996.21
599.56	46298.14
599.71	45476.61
599.87	46183.45
600.03	46199.83
600.18	46014.93
600.34	45883.86
600.50	46225.58
600.65	45844.07
600.81	45918.97
600.97	46670.28
601.12	46267.71
601.28	45694.28
601.44	45834.71
601.59	45848.75
601.75	45780.88
601.91	45748.11
602.06	46199.83
602.22	46302.82
602.37	45975.14
602.53	46033.66
602.69	45923.65
602.84	45982.16
603.00	45652.15
603.16	45925.99
603.31	45425.12
603.47	46480.70
603.62	45736.41
603.78	46162.39
603.94	46171.75
604.09	46270.05
604.25	45911.95
604.40	46003.23
604.56	45860.46
604.71	46068.76
604.87	46202.18
605.03	45951.74
605.18	46190.47
605.34	45986.85
605.49	46087.49
605.65	46211.54
605.80	45991.53
605.96	45930.67
606.12	45806.62
606.27	46043.02
606.43	45439.16
606.58	45806.62
606.74	45640.45
606.89	45523.42
607.05	46064.08
607.20	45752.79
607.36	45673.21
607.51	46028.98
607.67	45785.56
607.82	45464.91
607.98	45563.21
608.13	45317.45
608.29	45198.09
608.44	45366.60
608.60	45148.93
608.75	45649.81
608.91	45900.25
609.06	45521.08
609.22	45764.49
609.37	45670.87
609.53	45748.11
609.68	45769.18
609.84	45404.05
609.99	45153.62
610.15	45265.96
610.30	45113.83
610.46	45186.38
610.61	45483.63
610.76	45528.10
610.92	45621.72
611.07	45457.88
611.23	45530.44
611.38	45663.85
611.54	45308.09
611.69	45158.30
611.84	45207.45
612.00	45059.99
612.15	45177.02
612.31	45418.10
612.46	45301.07
612.62	45464.91
612.77	45504.70
612.92	45193.40
613.08	44907.86
613.23	45471.93
613.39	44418.69
613.54	44409.32
613.69	45041.27
613.85	44734.66
614.00	45022.54
614.15	45027.23
614.31	45134.89
614.46	45123.19
614.62	44755.72
614.77	44666.78
614.92	44893.82
615.08	44715.93
615.23	44636.36
615.38	44725.30
615.54	44502.95
615.69	44341.45
615.84	44594.23
616.00	44587.21
616.15	44671.46
616.30	44507.63
616.46	44870.41
616.61	44350.81
616.76	43887.39
616.92	44184.63
617.07	44343.79
617.22	44348.47
617.37	44074.63
617.53	44596.57
617.68	44760.40
617.83	43995.05
617.99	44257.19
618.14	43814.83
618.29	44147.18
618.45	44289.96
618.60	44194.00
618.75	44023.14
618.90	43828.87
619.06	44034.84
619.21	43861.64
619.36	44416.35
619.51	44261.87
619.67	43466.09
619.82	44257.19
619.97	44009.09
620.12	43672.06
620.28	42733.50
620.43	43812.49
620.58	43697.80
620.73	43838.23
620.89	43611.20
621.04	43814.83
621.19	43938.88
621.34	43533.96
621.49	43533.96
621.65	43494.18
621.80	43784.40
621.95	43559.71
622.10	44006.75
622.25	43707.16
622.41	43318.64
622.56	43711.84
622.71	43988.03
622.86	43922.49
623.01	43299.91
623.16	43796.10
623.32	43210.97
623.47	43302.25
623.62	43501.20
623.77	43042.45
623.92	43480.13
624.07	43103.31
624.23	43283.53
624.38	43344.38
624.53	43260.12
624.68	43524.60
624.83	43372.47
624.98	43161.82
625.13	42986.28
625.29	42831.80
625.44	43536.30
625.59	42911.38
625.74	42962.87
625.89	42555.62
626.04	42843.51
626.19	42651.58
626.34	42855.21
626.49	42710.10
626.65	42838.83
626.80	42878.61
626.95	42759.25
627.10	42260.71
627.25	42803.72
627.40	42555.62
627.55	42576.69
627.70	42487.74
627.85	42841.17
628.00	42548.60
628.15	42939.47
628.30	42227.95
628.45	42752.23
628.60	42604.77
628.76	42237.31
628.91	42766.27
629.06	42143.69
629.21	42281.78
629.36	41874.52
629.51	41933.04
629.66	42054.75
629.81	42115.60
629.96	42312.20
630.11	42192.84
630.26	42258.37
630.41	42167.09
630.56	41736.43
630.71	42361.36
630.86	41926.02
631.01	41511.74
631.16	41776.22
631.31	41502.38
631.46	41415.78
631.61	41668.56
631.76	41855.80
631.91	41600.68
632.06	42106.24
632.21	42337.95
632.36	42225.60
632.51	41298.75
632.66	41483.66
632.81	41404.08
632.96	41794.95
633.10	41567.91
633.25	41588.98
633.40	41888.57
633.55	41542.17
633.70	41408.76
633.85	41219.17
634.00	41588.98
634.15	41958.78
634.30	41586.64
634.45	41368.97
634.60	41226.20
634.75	40996.82
634.90	41050.66
635.05	41350.24
635.19	41104.49
635.34	41696.64
635.49	40828.30
635.64	41064.70
635.79	41020.23
635.94	40517.01
636.09	41060.02
636.24	40488.93
636.39	40690.21
636.53	40783.83
636.68	40968.74
636.83	40858.73
636.98	40814.26
637.13	40868.09
637.28	41256.62
637.43	41457.91
637.57	41102.15
637.72	40931.29
637.87	40622.34
638.02	40734.68
638.17	41322.16
638.32	40769.79
638.46	40470.20
638.61	40301.68
638.76	39966.99
638.91	40505.31
639.06	40910.22
639.20	40917.25
639.35	41109.17
639.50	40458.50
639.65	40865.75
639.80	40383.60
639.94	40425.73
640.09	40730.00
640.24	40257.21
640.39	40053.59
640.54	39859.32
640.68	40093.38
640.83	40109.76
640.98	39431.01
641.13	39498.88
641.27	40175.30
641.42	40107.42
641.57	39814.85
641.72	40245.51
641.86	40046.57
642.01	39948.26
642.16	39786.77
642.31	39583.14
642.45	39882.73
642.60	39681.44
642.75	39852.30
642.90	39723.57
643.04	39821.87
643.19	39374.83
643.34	39889.75
643.48	39798.47
643.63	39487.18
643.78	39590.16
643.93	40102.74
644.07	39543.35
644.22	39306.96
644.37	39370.15
644.51	39409.94
644.66	39426.32
644.81	39683.78
644.95	39793.79
645.10	39683.78
645.25	39885.07
645.39	39880.39
645.54	39391.22
645.69	39262.49
645.83	39147.80
645.98	39100.99
646.13	39765.70
646.27	39232.06
646.42	39157.16
646.57	39035.45
646.71	39058.86
646.86	39468.45
647.00	39262.49
647.15	38951.20
647.30	38354.36
647.44	39306.96
647.59	38799.06
647.74	38953.54
647.88	38663.31
648.03	39126.74
648.17	38986.30
648.32	38623.52
648.47	38300.53
648.61	38557.99
648.76	39033.11
648.90	38672.67
649.05	38464.36
649.20	38831.83
649.34	38869.28
649.49	38443.30
649.63	38731.18
649.78	38476.07
649.92	38431.60
650.07	38391.81
650.21	38749.91
650.36	38569.69
650.51	38447.98
650.65	39065.88
650.80	39040.14
650.94	38604.80
651.09	38426.92
651.23	37773.91
651.38	38340.32
651.52	37689.65
651.67	38277.12
651.81	38302.87
651.96	38110.94
652.10	38328.61
652.25	38094.56
652.39	38237.33
652.54	38085.20
652.68	37956.47
652.83	38068.81
652.97	38307.55
653.12	38150.73
653.26	37645.18
653.41	37982.21
653.55	37778.59
653.70	37886.25
653.84	37926.04
653.99	37797.31
654.13	38073.49
654.27	37853.48
654.42	37649.86
654.56	37874.55
654.71	37839.44
654.85	37457.93
655.00	38033.71
655.14	37862.85
655.29	37371.33
655.43	37242.60
655.57	37062.38
655.72	37055.36
655.86	37268.35
656.01	37034.30
656.15	37085.79
656.30	36968.76
656.44	37460.27
656.58	37069.40
656.73	37104.51
656.87	36645.77
657.01	36900.89
657.16	36980.46
657.30	36889.18
657.45	36762.79
657.59	36971.10
657.73	36725.35
657.88	36851.73
658.02	36840.03
658.16	37137.28
658.31	36959.40
658.45	36772.16
658.60	36903.23
658.74	37144.30
658.88	36208.09
659.03	37074.09
659.17	36605.98
659.31	36465.55
659.46	36575.55
659.60	36671.51
659.74	36713.64
659.89	36294.69
660.03	36011.48
660.17	36840.03
660.32	36807.26
660.46	36383.63
660.60	36622.36
660.74	36313.41
660.89	36439.80
661.03	36016.16
661.17	35962.33
661.32	36009.14
661.46	36140.21
661.60	35929.56
661.74	35573.80
661.89	36020.84
662.03	36002.12
662.17	35786.79
662.31	35777.43
662.46	36290.01
662.60	36107.44
662.74	35470.82
662.88	35810.20
663.03	35351.45
663.17	35538.69
663.31	35234.42
663.45	35215.70
663.60	35416.99
663.74	34967.60
663.88	35211.02
664.02	34911.43
664.17	35470.82
664.31	34852.92
664.45	35070.59
664.59	34958.24
664.73	35040.16
664.88	34979.31
665.02	34314.59
665.16	34632.91
665.30	34375.45
665.44	34249.06
665.59	34450.35
665.73	34630.57
665.87	34801.43
666.01	34316.93
666.15	34410.56
666.29	34218.63
666.44	34342.68
666.58	34422.26
666.72	34197.57
666.86	34323.96
667.00	34005.64
667.14	34101.61
667.28	33802.02
667.43	33820.74
667.57	34113.31
667.71	34127.35
667.85	33893.30
667.99	34000.96
668.13	34031.39
668.27	33701.37
668.41	34136.71
668.56	33757.55
668.70	33418.17
668.84	33057.73
668.98	33184.12
669.12	32996.87
669.26	33539.88
669.40	32760.48
669.54	33057.73
669.68	32884.53
669.82	32624.73
669.96	32849.42
670.10	32711.33
670.25	32694.94
670.39	32748.78
670.53	32741.75
670.67	32725.37
670.81	32439.82
670.95	32699.62
671.09	32524.08
671.23	32318.12
671.37	32353.23
671.51	32081.72
671.65	32259.60
671.79	32137.90
671.93	32222.16
672.07	32112.15
672.21	32041.93
672.35	31697.88
672.49	32100.45
672.63	31824.26
672.77	31571.49
672.91	31896.82
673.05	31417.01
673.19	31487.23
673.33	31435.74
673.47	31445.10
673.61	31248.49
673.75	30967.63
673.89	30965.29
674.03	31285.94
674.17	30946.56
674.31	30871.67
674.45	31021.46
674.59	31101.04
674.73	31140.83
674.87	31147.85
675.01	30948.90
675.15	31377.22
675.29	30419.94
675.43	30665.70
675.56	30895.07
675.70	30579.10
675.84	30548.67
675.98	29575.01
676.12	30244.40
676.26	30199.93
676.40	30096.95
676.54	30235.04
676.68	30134.40
676.82	29649.91
676.96	29968.22
677.10	29666.29
677.23	29799.70
677.37	29392.45
677.51	29256.70
677.65	29081.16
677.79	29039.03
677.93	29050.73
678.07	28814.34
678.21	28828.38
678.34	28989.88
678.48	28514.75
678.62	28318.14
678.76	28517.09
678.90	28091.11
679.04	28315.80
679.18	28114.52
679.31	27826.63
679.45	27967.06
679.59	28020.89
679.73	28063.02
679.87	27501.29
680.00	27740.03
680.14	27524.70
680.28	27665.13
680.42	27386.61
680.56	27168.94
680.70	27756.41
680.83	27161.92
680.97	27019.14
681.11	27197.02
681.25	27173.62
681.39	26967.65
681.52	27161.92
681.66	26780.41
681.80	26611.89
681.94	26609.55
682.07	26359.11
682.21	26249.11
682.35	26581.46
682.49	26319.32
682.62	26265.49
682.76	26036.12
682.90	26127.40
683.04	25855.90
683.17	25989.31
683.31	25563.33
683.45	25673.34
683.59	25579.71
683.72	25654.61
683.86	25586.74
684.00	25514.18
684.13	25228.63
684.27	24987.56
684.41	24816.70
684.55	24903.30
684.68	24805.00
684.82	24535.84
684.96	24676.27
685.09	24463.28
685.23	24652.86
685.37	24748.82
685.50	24418.81
685.64	24336.89
685.78	24526.47
685.91	23985.81
686.05	23714.31
686.19	23487.28
686.32	23803.25
686.46	23681.54
686.60	23246.20
686.73	23199.39
686.87	22979.38
687.01	23349.18
687.14	22927.89
687.28	22705.54
687.42	22911.50
687.55	22972.36
687.69	22745.33
687.82	22885.76
687.96	23105.77
688.10	22548.72
688.23	22703.20
688.37	22801.50
688.50	22445.74
688.64	22321.69
688.78	22265.52
688.91	22033.80
689.05	22089.98
689.18	22153.17
689.32	21572.72
689.46	22104.02
689.59	22120.40
689.73	22022.10
689.86	21521.23
690.00	21434.63
690.13	21720.17
690.27	21188.87
690.41	21113.97
690.54	20900.98
690.68	21041.42
690.81	21282.49
690.95	21128.02
691.08	20936.09
691.22	21020.35
691.35	20809.70
691.49	20793.32
691.62	20704.38
691.76	20695.02
691.89	20627.14
692.03	20409.47
692.16	20716.08
692.30	20290.10
692.43	20360.32
692.57	19852.42
692.70	19985.83
692.84	19784.55
692.97	19777.53
693.11	19829.02
693.24	19424.11
693.38	19578.58
693.51	19370.27
693.65	19349.21
693.78	19616.03
693.92	19157.28
694.05	19274.31
694.19	19047.28
694.32	19049.62
694.45	19056.64
694.59	19218.14
694.72	19037.92
694.86	18537.04
694.99	18700.88
695.13	18457.46
695.26	18640.03
695.39	18424.70
695.53	18525.34
695.66	18515.98
695.80	18586.19
695.93	18169.58
696.07	18122.77
696.20	18038.51
696.33	18232.77
696.47	18211.71
696.60	18064.25
696.73	17706.15
696.87	17661.68
697.00	17486.14
697.14	17247.41
697.27	17591.47
697.40	17221.66
697.54	17359.75
697.67	17032.08
697.80	17331.67
697.94	16971.22
698.07	16828.45
698.21	16912.71
698.34	17029.74
698.47	16994.63
698.61	16620.14
698.74	16950.16
698.87	16585.04
699.01	16519.50
699.14	16437.58
699.27	15910.96
699.40	16533.54
699.54	16266.72
699.67	15950.75
699.80	15857.13
699.94	16133.31
700.07	15733.08
700.20	15934.37
700.34	16161.40
700.47	15840.75
700.60	15634.78
700.73	16006.92
700.87	15358.60
701.00	15527.11
701.13	15552.86
701.26	15192.42
701.40	15129.22
701.53	15075.39
701.66	15129.22
701.79	15061.35
701.93	15119.86
702.06	14794.53
702.19	14565.15
702.32	14827.29
702.46	14813.25
702.59	14771.12
702.72	14682.18
702.85	14831.97
702.99	14520.68
703.12	14483.24
703.25	14279.61
703.38	14312.38
703.51	14356.85
703.65	14193.01
703.78	14115.77
703.91	13701.50
704.04	14108.75
704.17	13806.82
704.31	13703.84
704.44	13584.47
704.57	13474.46
704.70	13502.55
704.83	13600.85
704.96	13724.90
705.10	13500.21
705.23	13549.36
>>>>>End Processed Spectral Data<<<<<
