SpectraSuite Data File
++++++++++++++++++++++++++++++++++++
Date: Fri Oct 25 11:34:14 EDT 2013
User: price-jones
Dark Spectrum Present: No
Reference Spectrum Present: No
Number of Sampled Component Spectra: 1
Spectrometers: USB2+H05261
Integration Time (usec): 100000 (USB2+H05261)
Spectra Averaged: 1 (USB2+H05261)
Boxcar Smoothing: 0 (USB2+H05261)
Correct for Electrical Dark: No (USB2+H05261)
Strobe/Lamp Enabled: No (USB2+H05261)
Correct for Detector Non-linearity: No (USB2+H05261)
Correct for Stray Light: No (USB2+H05261)
Number of Pixels in Processed Spectrum: 2048
>>>>>Begin Processed Spectral Data<<<<<
365.73	278.52
365.92	278.52
366.12	278.52
366.32	212.99
366.52	149.79
366.72	175.54
366.91	147.45
367.11	175.54
367.31	133.41
367.51	191.92
367.70	128.73
367.90	196.60
368.10	189.58
368.30	238.73
368.49	173.20
368.69	208.31
368.89	203.63
369.09	217.67
369.28	163.84
369.48	210.65
369.68	229.37
369.87	220.01
370.07	184.90
370.27	203.63
370.47	285.55
370.66	475.13
370.86	521.94
371.06	526.62
371.25	599.18
371.45	638.97
371.65	550.03
371.84	580.45
372.04	554.71
372.24	582.79
372.44	561.73
372.63	592.16
372.83	568.75
373.03	543.00
373.22	664.71
373.42	608.54
373.62	704.50
373.81	585.13
374.01	653.01
374.21	667.05
374.40	664.71
374.60	629.60
374.79	676.41
374.99	669.39
375.19	667.05
375.38	681.10
375.58	653.01
375.78	713.86
375.97	643.65
376.17	716.20
376.37	650.67
376.56	699.82
376.76	669.39
376.95	636.63
377.15	631.94
377.35	702.16
377.54	723.23
377.74	631.94
377.93	676.41
378.13	697.48
378.33	760.67
378.52	744.29
378.72	727.91
378.91	727.91
379.11	751.31
379.31	699.82
379.50	706.84
379.70	826.21
379.89	723.23
380.09	720.88
380.28	681.10
380.48	765.36
380.68	645.99
380.87	706.84
381.07	699.82
381.26	709.18
381.46	706.84
381.65	753.65
381.85	777.06
382.04	753.65
382.24	725.57
382.43	847.27
382.63	798.12
382.83	770.04
383.02	793.44
383.22	861.32
383.41	763.01
383.61	788.76
383.80	795.78
384.00	786.42
384.19	823.87
384.39	851.96
384.58	854.30
384.78	739.61
384.97	840.25
385.17	849.61
385.36	863.66
385.56	826.21
385.75	816.85
385.95	791.10
386.14	887.06
386.34	795.78
386.53	910.47
386.72	837.91
386.92	894.08
387.11	912.81
387.31	835.57
387.50	795.78
387.70	833.23
387.89	758.33
388.09	819.19
388.28	858.98
388.48	856.64
388.67	947.92
388.86	912.81
389.06	933.87
389.25	903.45
389.45	887.06
389.64	910.47
389.84	957.28
390.03	990.05
390.22	1025.15
390.42	936.21
390.61	938.55
390.81	873.02
391.00	992.39
391.19	964.30
391.39	959.62
391.58	938.55
391.78	1039.20
391.97	1018.13
392.16	1078.99
392.36	1149.20
392.55	1062.60
392.75	1090.69
392.94	992.39
393.13	1004.09
393.33	1036.86
393.52	1034.52
393.71	1076.65
393.91	1064.94
394.10	990.05
394.29	1048.56
394.49	1095.37
394.68	1060.26
394.88	1144.52
395.07	1160.91
395.26	1116.44
395.46	1093.03
395.65	1071.97
395.84	1064.94
396.04	1247.51
396.23	1144.52
396.42	1179.63
396.62	1205.38
396.81	1289.64
397.00	1184.31
397.19	1266.23
397.39	1245.16
397.58	1188.99
397.77	1200.69
397.97	1287.29
398.16	1224.10
398.35	1324.74
398.55	1219.42
398.74	1282.61
398.93	1294.32
399.12	1151.54
399.32	1245.16
399.51	1242.82
399.70	1306.02
399.90	1287.29
400.09	1364.53
400.28	1418.36
400.47	1301.34
400.67	1521.35
400.86	1357.51
401.05	1430.07
401.24	1385.60
401.44	1376.24
401.63	1507.30
401.82	1420.71
402.01	1462.83
402.21	1516.67
402.40	1458.15
402.59	1537.73
402.78	1387.94
402.97	1509.65
403.17	1493.26
403.36	1523.69
403.55	1490.92
403.74	1563.48
403.93	1549.43
404.13	1507.30
404.32	1631.35
404.51	1561.14
404.70	1549.43
404.89	1537.73
405.09	1687.53
405.28	1617.31
405.47	1654.76
405.66	1631.35
405.85	1607.95
406.05	1640.72
406.24	1703.91
406.43	1774.13
406.62	1687.53
406.81	1788.17
407.00	1706.25
407.20	1699.23
407.39	1645.40
407.58	1708.59
407.77	1743.70
407.96	1760.08
408.15	1907.54
408.34	1837.32
408.54	1802.21
408.73	1849.02
408.92	1891.15
409.11	1923.92
409.30	1998.82
409.49	2012.86
409.68	1940.30
409.87	1989.46
410.07	1940.30
410.26	2069.03
410.45	1952.01
410.64	2043.29
410.83	2059.67
411.02	2080.74
411.21	2113.50
411.40	2043.29
411.59	2073.71
411.78	2150.95
411.98	2115.84
412.17	2174.36
412.36	2174.36
412.55	2291.38
412.74	2296.07
412.93	2265.64
413.12	2209.47
413.31	2347.56
413.50	2298.41
413.69	2286.70
413.88	2511.39
414.07	2410.75
414.26	2408.41
414.45	2457.56
414.64	2396.71
414.83	2457.56
415.02	2548.84
415.22	2495.01
415.41	2612.04
415.60	2553.52
415.79	2628.42
415.98	2757.15
416.17	2551.18
416.36	2677.57
416.55	2658.85
416.74	2722.04
416.93	2717.36
417.12	2705.66
417.31	2757.15
417.50	2740.77
417.69	2775.88
417.88	2708.00
418.07	2906.95
418.26	2935.03
418.45	2935.03
418.64	3068.44
418.83	2885.88
419.02	2949.08
419.21	3049.72
419.39	3047.38
419.58	3091.85
419.77	3016.95
419.96	3000.57
420.15	3068.44
420.34	3091.85
420.53	3112.91
420.72	3152.70
420.91	3258.03
421.10	3101.21
421.29	3178.45
421.48	3197.17
421.67	3133.98
421.86	3286.11
422.05	3176.11
422.24	3332.92
422.43	3222.92
422.61	3258.03
422.80	3239.30
422.99	3162.06
423.18	3295.47
423.37	3276.75
423.56	3251.00
423.75	3375.05
423.94	3187.81
424.13	3082.49
424.32	3218.24
424.50	3452.29
424.69	3405.48
424.88	3304.84
425.07	3314.20
425.26	3358.67
425.45	3297.81
425.64	3386.76
425.83	3339.94
426.01	3328.24
426.20	3300.16
426.39	3468.67
426.58	3251.00
426.77	3351.65
426.96	3503.78
427.15	3349.31
427.33	3506.12
427.52	3468.67
427.71	3571.66
427.90	3574.00
428.09	3445.27
428.28	3414.84
428.46	3482.72
428.65	3428.88
428.84	3632.51
429.03	3676.98
429.22	3520.17
429.40	3662.94
429.59	3754.22
429.78	3581.02
429.97	3590.38
430.16	3595.06
430.34	3646.55
430.53	3679.32
430.72	3822.09
430.91	3822.09
431.10	3784.65
431.28	3927.42
431.47	3861.88
431.66	3864.22
431.85	3967.21
432.03	3985.93
432.22	3955.51
432.41	3995.29
432.60	3950.82
432.79	4023.38
432.97	4114.66
433.16	3939.12
433.35	3829.12
433.54	3915.72
433.72	3978.91
433.91	4086.58
434.10	4032.74
434.28	3918.06
434.47	4149.77
434.66	4042.11
434.85	4201.26
435.03	4243.39
435.22	4100.62
435.41	4423.61
435.59	4311.27
435.78	4212.96
435.97	4308.93
436.16	4484.47
436.34	4341.69
436.53	4292.54
436.72	4322.97
436.90	4278.50
437.09	4425.95
437.28	4231.69
437.46	4423.61
437.65	4402.55
437.84	4512.55
438.02	4547.66
438.21	4524.26
438.40	4430.63
438.58	4655.33
438.77	4629.58
438.96	4636.60
439.14	4737.24
439.33	4805.12
439.52	4664.69
439.70	4683.41
439.89	4805.12
440.08	4959.60
440.26	4744.27
440.45	4926.83
440.63	4908.10
440.82	5135.14
441.01	4975.98
441.19	5093.01
441.38	5188.97
441.57	5228.76
441.75	5177.26
441.94	5280.25
442.12	5240.46
442.31	5301.31
442.50	5273.23
442.68	5357.49
442.87	5235.78
443.05	5277.91
443.24	5392.59
443.43	5397.28
443.61	5413.66
443.80	5689.84
443.98	5329.40
444.17	5191.31
444.35	5420.68
444.54	5462.81
444.73	5474.51
444.91	5509.62
445.10	5521.32
445.28	5399.62
445.47	5380.89
445.65	5607.92
445.84	5537.71
446.02	5607.92
446.21	5563.45
446.39	5376.21
446.58	5703.89
446.77	5631.33
446.95	5486.22
447.14	5474.51
447.32	5659.42
447.51	5591.54
447.69	5554.09
447.88	5624.31
448.06	5612.60
448.25	5598.56
448.43	5661.76
448.62	5734.31
448.80	5666.44
448.99	5699.20
449.17	5757.72
449.36	5617.29
449.54	5767.08
449.73	5753.04
449.91	5809.21
450.10	5863.04
450.28	5900.49
450.46	5863.04
450.65	5947.30
450.83	5914.53
451.02	5991.77
451.20	5975.39
451.39	6125.18
451.57	6010.50
451.76	5996.45
451.94	6054.97
452.13	6087.73
452.31	6186.04
452.49	6106.46
452.68	6167.31
452.86	6265.61
453.05	6267.95
453.23	6265.61
453.42	6232.85
453.60	6237.53
453.78	6155.61
453.97	6293.70
454.15	6235.19
454.34	6118.16
454.52	6298.38
454.70	6289.02
454.89	6459.88
455.07	6363.92
455.26	6506.69
455.44	6399.02
455.62	6452.86
455.81	6614.35
455.99	6534.78
456.17	6576.91
456.36	6539.46
456.54	6572.22
456.73	6715.00
456.91	6864.79
457.09	6771.17
457.28	6913.94
457.46	6703.29
457.64	6820.32
457.83	6822.66
458.01	6902.24
458.19	6923.30
458.38	6883.52
458.56	7023.95
458.74	6967.77
458.93	7005.22
459.11	7014.59
459.29	7061.40
459.48	7049.69
459.66	6939.69
459.84	7213.53
460.03	7241.62
460.21	7232.26
460.39	6944.37
460.57	7194.81
460.76	7208.85
460.94	7222.89
461.12	7279.07
461.31	7384.39
461.49	7377.37
461.67	7351.62
461.85	7442.90
462.04	7131.61
462.22	7793.98
462.40	7400.77
462.59	7609.08
462.77	7536.52
462.95	7412.48
463.13	7442.90
463.32	7688.66
463.50	7639.51
463.68	7744.83
463.86	7693.34
464.05	7431.20
464.23	7744.83
464.41	7737.81
464.59	7719.09
464.78	8028.04
464.96	7775.26
465.14	7583.34
465.32	7749.51
465.50	7957.82
465.69	7880.58
465.87	7686.32
466.05	7826.75
466.23	7847.82
466.41	7955.48
466.60	8084.21
466.78	8011.65
466.96	7852.50
467.14	8058.46
467.32	8205.92
467.51	8238.69
467.69	8161.45
467.87	8053.78
468.05	8255.07
468.23	7943.78
468.41	7913.35
468.60	8100.59
468.78	8177.83
468.96	8100.59
469.14	8479.76
469.32	8594.45
469.50	8299.54
469.69	8472.74
469.87	8358.05
470.05	8571.04
470.23	8582.74
470.41	8645.94
470.59	8439.97
470.77	8545.30
470.95	8599.13
471.14	8812.12
471.32	8688.07
471.50	8706.79
471.68	8711.47
471.86	8753.60
472.04	9055.53
472.22	9165.54
472.40	8936.17
472.58	8821.48
472.77	8905.74
472.95	9083.62
473.13	9380.87
473.31	9130.43
473.49	9027.45
473.67	9130.43
473.85	9228.73
474.03	9537.68
474.21	9427.68
474.39	9493.21
474.57	9287.25
474.75	9547.05
474.93	9804.50
475.12	9600.88
475.30	9809.19
475.48	9694.50
475.66	9748.33
475.84	9755.35
476.02	9877.06
476.20	9785.78
476.38	10085.37
476.56	10246.87
476.74	10303.04
476.92	10017.49
477.10	10281.97
477.28	10230.48
477.46	10375.59
477.64	10656.46
477.82	10443.47
478.00	10881.15
478.18	10757.10
478.36	10850.72
478.54	10925.62
478.72	11073.07
478.90	11274.36
479.08	11199.46
479.26	11403.09
479.44	11309.47
479.62	11405.43
479.80	11389.05
479.98	11730.76
480.16	11824.39
480.34	11695.66
480.52	11934.39
480.70	11943.75
480.88	11833.75
481.06	12091.21
481.24	11990.56
481.41	12161.42
481.59	12217.60
481.77	12198.87
481.95	12425.90
482.13	12643.57
482.31	12549.95
482.49	12835.50
482.67	12964.23
482.85	12915.08
483.03	13352.76
483.21	13245.09
483.39	13329.35
483.57	13296.58
483.74	13128.06
483.92	13600.85
484.10	13554.04
484.28	13891.08
484.46	13893.42
484.64	14185.99
484.82	13996.40
485.00	14183.65
485.18	14291.31
485.35	14611.96
485.53	14661.12
485.71	14534.73
485.89	14930.28
486.07	14930.28
486.25	14839.00
486.43	15206.46
486.61	15056.67
486.78	15154.97
486.96	15571.58
487.14	15508.39
487.32	15700.31
487.50	15901.60
487.68	16044.37
487.85	16170.76
488.03	16112.25
488.21	16519.50
488.39	16510.14
488.57	16896.33
488.75	16720.79
488.92	16957.18
489.10	17135.06
489.28	16973.56
489.46	17170.17
489.64	17092.93
489.81	17762.33
489.99	17521.25
490.17	17949.57
490.35	17928.50
490.53	17837.22
490.70	18200.01
490.88	18052.55
491.06	18277.24
491.24	18387.25
491.41	18260.86
491.59	18782.80
491.77	18422.36
491.95	18981.74
492.13	18885.78
492.30	18988.77
492.48	18857.70
492.66	19075.37
492.84	19592.62
493.01	19548.15
493.19	19571.56
493.37	19889.87
493.54	19826.68
493.72	19892.21
493.90	19906.26
494.08	20320.53
494.25	20463.30
494.43	20507.77
494.61	20737.15
494.79	20573.31
494.96	20718.42
495.14	20739.49
495.32	20915.03
495.49	20978.22
495.67	21043.76
495.85	21521.23
496.02	21654.64
496.20	21743.58
496.38	22008.06
496.55	21783.37
496.73	22195.30
496.91	21902.73
497.09	22427.01
497.26	22352.12
497.44	22071.25
497.62	22604.89
497.79	22661.07
497.97	22560.42
498.14	23215.77
498.32	22941.93
498.50	23028.53
498.67	23426.42
498.85	23012.15
499.03	23456.85
499.20	24049.00
499.38	23632.39
499.56	23552.81
499.73	23857.08
499.91	23730.69
500.08	23697.92
500.26	23913.25
500.44	24063.05
500.61	24144.97
500.79	24079.43
500.97	24313.48
501.14	24449.24
501.32	24554.56
501.49	24334.55
501.67	24449.24
501.84	24879.89
502.02	24980.54
502.20	24741.80
502.37	24545.20
502.55	25076.50
502.72	25247.36
502.90	25355.02
503.07	25191.19
503.25	25057.78
503.43	25427.58
503.60	25790.36
503.78	26022.08
503.95	25689.72
504.13	25839.51
504.30	25816.11
504.48	25666.31
504.65	25666.31
504.83	26075.91
505.01	26485.50
505.18	25986.97
505.36	26675.09
505.53	26146.12
505.71	26539.33
505.88	26719.56
506.06	26792.11
506.23	26787.43
506.41	26534.65
506.58	27133.83
506.76	26941.91
506.93	27517.68
507.11	26892.76
507.28	27246.18
507.46	27016.80
507.63	27199.37
507.81	27683.86
507.98	27587.89
508.16	27503.64
508.33	27592.58
508.50	28091.11
508.68	27892.16
508.85	28187.07
509.03	27922.59
509.20	28613.05
509.38	28692.63
509.55	28386.02
509.73	29064.77
509.90	28526.45
510.08	28566.24
510.25	28716.03
510.42	28858.81
510.60	28606.03
510.77	28830.72
510.95	29331.59
511.12	29085.84
511.30	29064.77
511.47	29085.84
511.64	29153.71
511.82	29642.88
511.99	29404.15
512.17	29488.41
512.34	29598.41
512.51	29905.02
512.69	30052.48
512.86	29668.63
513.04	30274.83
513.21	30249.08
513.38	30026.73
513.56	30071.20
513.73	30565.06
513.90	30331.00
514.08	30127.38
514.25	30471.43
514.43	30632.93
514.60	30600.16
514.77	30792.09
514.95	30433.99
515.12	30717.19
515.29	30602.50
515.47	30923.16
515.64	31281.26
515.81	30939.54
515.99	31091.68
516.16	31517.65
516.33	31349.14
516.51	31534.04
516.68	30965.29
516.85	31182.96
517.03	31428.71
517.20	31515.31
517.37	31248.49
517.54	31597.23
517.72	31971.72
517.89	31480.21
518.06	31927.25
518.24	32144.92
518.41	31765.75
518.58	31536.38
518.75	31503.61
518.93	32449.19
519.10	32877.51
519.27	32236.20
519.45	32491.32
519.62	32737.07
519.79	32828.35
519.96	32676.22
520.14	32762.82
520.31	32603.66
520.48	32931.34
520.65	33275.40
520.83	33516.47
521.00	33186.46
521.17	33450.94
521.34	33289.44
521.52	33240.29
521.69	33219.22
521.86	33757.55
522.03	33635.84
522.20	33626.48
522.38	33614.77
522.55	34057.14
522.72	33820.74
522.89	34185.86
523.07	33993.94
523.24	33977.56
523.41	34494.82
523.58	34309.91
523.75	34466.73
523.92	34316.93
524.10	34375.45
524.27	34857.60
524.44	34529.92
524.61	34396.51
524.78	35056.54
524.96	35211.02
525.13	35136.12
525.30	35068.25
525.47	35182.93
525.64	35065.91
525.81	35187.61
525.98	35133.78
526.16	34972.28
526.33	34838.87
526.50	35365.49
526.67	35215.70
526.84	35424.01
527.01	35541.03
527.18	35393.58
527.36	35620.61
527.53	35814.88
527.70	36018.50
527.87	35889.77
528.04	36156.60
528.21	35924.88
528.38	35882.75
528.55	35988.08
528.72	36390.65
528.89	36135.53
529.07	35962.33
529.24	35906.16
529.41	36376.61
529.58	36690.24
529.75	36280.64
529.92	36425.76
530.09	36409.37
530.26	36687.90
530.43	36512.36
530.60	36971.10
530.77	36563.85
530.94	36758.11
531.11	36477.25
531.28	37031.96
531.46	37273.03
531.63	36704.28
531.80	37181.75
531.97	37469.64
532.14	37191.11
532.31	37097.49
532.48	37371.33
532.65	37289.42
532.82	37174.73
532.99	37251.97
533.16	37453.25
533.33	37331.54
533.50	37567.94
533.67	37530.49
533.84	37387.72
534.01	37972.85
534.18	37567.94
534.35	37860.51
534.52	37741.14
534.69	38031.36
534.86	38169.46
535.03	37928.38
535.20	38256.06
535.37	38443.30
535.54	38455.00
535.71	38017.32
535.88	38586.07
536.05	38691.40
536.22	38480.75
536.38	38031.36
536.55	38366.06
536.72	39089.29
536.89	38532.24
537.06	38635.22
537.23	39105.67
537.40	38948.85
537.57	38555.64
537.74	38848.21
537.91	39332.70
538.08	38913.75
538.25	38490.11
538.42	39108.01
538.59	39452.07
538.75	38506.49
538.92	39360.79
539.09	39342.06
539.26	39377.17
539.43	39332.70
539.60	39690.80
539.77	39330.36
539.94	39716.55
540.11	39597.18
540.28	39770.38
540.44	39529.31
540.61	39381.85
540.78	39543.35
540.95	39524.63
541.12	39482.50
541.29	40215.08
541.46	39903.79
541.62	39791.45
541.79	40353.18
541.96	39573.78
542.13	39349.09
542.30	40304.02
542.47	40027.84
542.63	40044.23
542.80	40432.75
542.97	40575.53
543.14	40603.61
543.31	40575.53
543.48	40353.18
543.64	41172.36
543.81	41085.76
543.98	40620.00
544.15	40821.28
544.32	40683.19
544.48	41116.19
544.65	40664.47
544.82	41099.81
544.99	40818.94
545.16	41097.47
545.32	41160.66
545.49	41619.41
545.66	41780.90
545.83	40868.09
546.00	41273.01
546.16	41584.30
546.33	41174.70
546.50	41179.39
546.67	41074.06
546.83	41366.63
547.00	41397.06
547.17	41567.91
547.34	41446.21
547.50	41661.54
547.67	41610.04
547.84	41897.93
548.00	41764.52
548.17	41942.40
548.34	42213.90
548.51	42150.71
548.67	42113.26
548.84	41897.93
549.01	41933.04
549.18	41687.28
549.34	42061.77
549.51	41935.38
549.68	42307.52
549.84	42391.78
550.01	42354.33
550.18	41865.16
550.34	42323.91
550.51	42277.10
550.68	42459.66
550.84	41935.38
551.01	42550.94
551.18	42693.71
551.34	42993.30
551.51	42747.54
551.68	42878.61
551.84	42323.91
552.01	42232.63
552.18	42401.14
552.34	42492.43
552.51	42796.70
552.68	42567.32
552.84	42782.65
553.01	42904.36
553.18	43075.22
553.34	42653.92
553.51	42995.64
553.67	42887.98
553.84	43030.75
554.01	42993.30
554.17	42927.77
554.34	43318.64
554.51	42958.19
554.67	43337.36
554.84	43304.59
555.00	43407.58
555.17	43222.67
555.33	43742.27
555.50	43126.71
555.67	43196.93
555.83	43222.67
556.00	43480.13
556.16	43728.23
556.33	43826.53
556.50	43440.34
556.66	43983.35
556.83	43477.79
556.99	43442.68
557.16	43966.96
557.32	43721.21
557.49	43742.27
557.65	43758.66
557.82	43973.98
557.98	43746.95
558.15	44308.68
558.32	43896.75
558.48	43597.16
558.65	43945.90
558.81	43964.62
558.98	43814.83
559.14	43655.67
559.31	43746.95
559.47	44074.63
559.64	43924.83
559.80	43536.30
559.97	44406.98
560.13	43709.50
560.30	44329.75
560.46	44329.75
560.63	44350.81
560.79	44409.32
560.96	44308.68
561.12	44332.09
561.29	44339.11
561.45	44311.02
561.61	44261.87
561.78	44395.28
561.94	43995.05
562.11	44542.74
562.27	44886.79
562.44	44435.07
562.60	44638.70
562.77	44949.99
562.93	44460.82
563.10	44847.00
563.26	44493.58
563.42	44917.22
563.59	44060.58
563.75	44921.90
563.92	44914.88
564.08	44392.94
564.24	45055.31
564.41	44624.65
564.57	44830.62
564.74	44886.79
564.90	44673.81
565.07	44732.32
565.23	44622.31
565.39	44477.20
565.56	45310.43
565.72	44540.39
565.88	44821.26
566.05	45146.59
566.21	44947.65
566.38	44861.05
566.54	45071.70
566.70	45008.50
566.87	44999.14
567.03	45223.83
567.19	45223.83
567.36	44938.29
567.52	45085.74
567.68	45404.05
567.85	45249.58
568.01	45287.03
568.17	45120.85
568.34	45425.12
568.50	45366.60
568.66	45106.80
568.83	45207.45
568.99	45331.50
569.15	45406.39
569.32	44994.46
569.48	45179.36
569.64	45570.23
569.81	45226.17
569.97	45617.04
570.13	45326.81
570.30	45272.98
570.46	45251.92
570.62	45425.12
570.78	45382.99
570.95	45198.09
571.11	45876.84
571.27	45584.27
571.43	44971.05
571.60	45717.68
571.76	45034.25
571.92	45289.37
572.09	44828.28
572.25	45296.39
572.41	45244.90
572.57	45500.01
572.74	45979.82
572.90	45373.63
573.06	45869.82
573.22	45792.58
573.38	45755.13
573.55	45275.32
573.71	45811.31
573.87	45846.41
574.03	45668.53
574.20	45921.31
574.36	45607.68
574.52	45801.94
574.68	45956.42
574.84	45911.95
575.01	46071.10
575.17	46136.64
575.33	45640.45
575.49	46064.08
575.65	45633.42
575.82	45928.33
575.98	45631.08
576.14	46040.68
576.30	45937.69
576.46	45991.53
576.62	45170.00
576.79	45839.39
576.95	45500.01
577.11	45045.95
577.27	45670.87
577.43	45591.30
577.59	45778.54
577.75	45820.67
577.92	45296.39
578.08	45549.17
578.24	45710.66
578.40	46347.29
578.56	46143.66
578.72	46197.49
578.88	46096.85
579.04	45713.00
579.21	45614.70
579.37	46080.47
579.53	45787.90
579.69	45834.71
579.85	45467.25
580.01	45663.85
580.17	45734.07
580.33	45986.85
580.49	45923.65
580.65	46286.43
580.82	45933.01
580.98	45729.39
581.14	45500.01
581.30	45874.50
581.46	45684.92
581.62	45963.44
581.78	45612.36
581.94	45986.85
582.10	46045.36
582.26	45998.55
582.42	45797.26
582.58	45806.62
582.74	45708.32
582.90	45977.48
583.06	45853.44
583.22	45708.32
583.38	46138.98
583.54	45862.80
583.70	45642.79
583.86	45998.55
584.02	46131.96
584.18	46096.85
584.34	45670.87
584.50	46431.55
584.66	45925.99
584.82	46204.52
584.98	46394.10
585.14	45965.78
585.30	45890.88
585.46	45731.73
585.62	46071.10
585.78	46115.58
585.94	45928.33
586.10	46211.54
586.26	45642.79
586.42	46028.98
586.58	45975.14
586.74	46019.61
586.90	46024.29
587.06	45918.97
587.22	46087.49
587.38	46010.25
587.54	46410.48
587.70	46403.46
587.86	46401.12
588.02	46181.11
588.18	46225.58
588.34	46120.26
588.49	46265.37
588.65	45993.87
588.81	46124.94
588.97	46536.87
589.13	46223.24
589.29	45954.08
589.45	46270.05
589.61	46639.86
589.77	46527.51
589.93	46401.12
590.08	46129.62
590.24	46646.88
590.40	46700.71
590.56	46672.62
590.72	46515.81
590.88	46513.47
591.04	46288.77
591.20	46705.39
591.35	46684.33
591.51	46546.23
591.67	46384.74
591.83	46852.84
591.99	46270.05
592.15	46600.07
592.31	46377.72
592.46	46525.17
592.62	46567.30
592.78	46827.10
592.94	47194.56
593.10	47107.96
593.26	46894.97
593.41	46731.14
593.57	47016.68
593.73	46677.30
593.89	46703.05
594.05	47082.22
594.20	46735.82
594.36	46885.61
594.52	46873.91
594.68	46696.03
594.84	46862.21
594.99	47145.41
595.15	46721.77
595.31	47049.45
595.47	46803.69
595.62	46541.55
595.78	46855.18
595.94	46983.91
596.10	46707.73
596.25	46897.31
596.41	46632.83
596.57	46623.47
596.73	46976.89
596.88	46824.76
597.04	46810.71
597.20	46564.96
597.36	46810.71
597.51	46389.42
597.67	46614.11
597.83	46834.12
597.99	47143.07
598.14	47143.07
598.30	46981.57
598.46	46616.45
598.61	47547.98
598.77	47267.12
598.93	47248.39
599.09	46986.25
599.24	47075.19
599.40	47292.86
599.56	47164.14
599.71	47203.92
599.87	47152.43
600.03	47189.88
600.18	47339.68
600.34	46976.89
600.50	47033.07
600.65	46972.21
600.81	47281.16
600.97	46761.56
601.12	46831.78
601.28	46923.06
601.44	47133.71
601.59	47089.24
601.75	46817.74
601.91	46869.23
602.06	46983.91
602.22	47143.07
602.37	46813.05
602.53	47089.24
602.69	47012.00
602.84	46862.21
603.00	46799.01
603.16	47173.50
603.31	47028.38
603.47	47503.51
603.62	46841.14
603.78	47281.16
603.94	47292.86
604.09	47224.99
604.25	47110.30
604.40	46689.01
604.56	47269.46
604.71	47622.88
604.87	46780.29
605.03	46864.55
605.18	46611.77
605.34	46808.37
605.49	46763.90
605.65	47084.56
605.80	46885.61
605.96	46747.52
606.12	47189.88
606.27	47159.45
606.43	46698.37
606.58	47206.26
606.74	46520.49
606.89	46731.14
607.05	46962.85
607.20	46745.18
607.36	46726.46
607.51	46644.54
607.67	46752.20
607.82	46410.48
607.98	46799.01
608.13	47320.95
608.29	46464.32
608.44	46897.31
608.60	46553.26
608.75	47129.03
608.91	46679.64
609.06	46356.65
609.22	46651.56
609.37	46508.79
609.53	46829.44
609.68	47320.95
609.84	46677.30
609.99	46670.28
610.15	46630.49
610.30	46635.17
610.46	46440.91
610.61	46223.24
610.76	46768.58
610.92	46181.11
611.07	46595.38
611.23	46328.56
611.38	46527.51
611.54	46770.93
611.69	46560.28
611.84	46602.41
612.00	46328.56
612.15	46202.18
612.31	46686.67
612.46	46279.41
612.62	46157.70
612.77	46457.29
612.92	46590.70
613.08	46192.81
613.23	46597.73
613.39	46375.37
613.54	46087.49
613.69	46230.26
613.85	46024.29
614.00	46382.40
614.15	46323.88
614.31	45883.86
614.46	46054.72
614.62	46433.89
614.77	46071.10
614.92	46389.42
615.08	45921.31
615.23	46490.06
615.38	46604.75
615.54	46206.86
615.69	46363.67
615.84	46387.08
616.00	46932.42
616.15	46361.33
616.30	46232.60
616.46	46010.25
616.61	45713.00
616.76	46164.73
616.92	46326.22
617.07	46218.56
617.22	45780.88
617.37	45675.55
617.53	46101.53
617.68	45886.20
617.83	46012.59
617.99	46197.49
618.14	46155.36
618.29	45909.61
618.45	45448.52
618.60	45734.07
618.75	46078.13
618.90	45567.89
619.06	45797.26
619.21	46057.06
619.36	46080.47
619.51	45567.89
619.67	45769.18
619.82	45663.85
619.97	46103.87
620.12	45577.25
620.28	45771.52
620.43	46181.11
620.58	45708.32
620.73	45551.51
620.89	45645.13
621.04	45558.53
621.19	45771.52
621.34	45081.06
621.49	45078.72
621.65	45478.95
621.80	45598.32
621.95	44931.26
622.10	45654.49
622.25	45502.35
622.41	45640.45
622.56	45350.22
622.71	45471.93
622.86	45338.52
623.01	45626.40
623.16	45324.47
623.32	45158.30
623.47	45287.03
623.62	45392.35
623.77	45130.21
623.92	45551.51
624.07	45375.97
624.23	45549.17
624.38	45319.79
624.53	44900.84
624.68	44863.39
624.83	45118.51
624.98	45010.84
625.13	44601.25
625.29	44261.87
625.44	44942.97
625.59	45003.82
625.74	44598.91
625.89	44411.67
626.04	44954.67
626.19	45059.99
626.34	44744.02
626.49	44987.44
626.65	44701.89
626.80	44430.39
626.95	44154.21
627.10	44369.54
627.25	44505.29
627.40	44582.52
627.55	44442.09
627.70	44444.43
627.85	44554.44
628.00	44638.70
628.15	44722.96
628.30	44399.96
628.45	44636.36
628.60	44130.80
628.76	44725.30
628.91	44060.58
629.06	44236.12
629.21	44156.55
629.36	43945.90
629.51	44093.35
629.66	44830.62
629.81	44095.69
629.96	44182.29
630.11	44041.86
630.26	44133.14
630.41	44505.29
630.56	44076.97
630.71	43866.32
630.86	44406.98
631.01	43751.63
631.16	43548.01
631.31	43737.59
631.46	43969.30
631.61	44018.46
631.76	43721.21
631.91	43838.23
632.06	44105.06
632.21	44301.66
632.36	44032.50
632.51	43887.39
632.66	44069.95
632.81	43901.43
632.96	43655.67
633.10	43573.75
633.25	43669.72
633.40	43903.77
633.55	44020.80
633.70	43732.91
633.85	43124.37
634.00	43564.39
634.15	43208.63
634.30	43145.44
634.45	43344.38
634.60	43746.95
634.75	43501.20
634.90	43220.33
635.05	43220.33
635.19	43271.82
635.34	43248.42
635.49	43199.27
635.64	43503.54
635.79	43220.33
635.94	43239.06
636.09	43548.01
636.24	42864.57
636.39	43243.74
636.53	43512.90
636.68	42632.86
636.83	43089.26
636.98	42677.33
637.13	42780.31
637.28	42618.81
637.43	42873.93
637.57	42892.66
637.72	42770.95
637.87	42658.60
638.02	42817.76
638.17	42438.59
638.32	42747.54
638.46	42501.79
638.61	42749.88
638.76	42469.02
638.91	42829.46
639.06	42127.30
639.20	42532.22
639.35	42478.38
639.50	42515.83
639.65	42705.41
639.80	42274.76
639.94	42443.27
640.09	42382.42
640.24	42513.49
640.39	42260.71
640.54	42026.66
640.68	42543.92
640.83	42836.48
640.98	42197.52
641.13	42080.49
641.27	42588.39
641.42	42403.49
641.57	42169.43
641.72	42019.64
641.86	42286.46
642.01	41486.00
642.16	42073.47
642.31	41715.37
642.45	41937.72
642.60	42206.88
642.75	42010.28
642.90	42256.03
643.04	41682.60
643.19	41680.26
643.34	41947.08
643.48	41654.51
643.63	41881.55
643.78	41764.52
643.93	42124.96
644.07	41937.72
644.22	41860.48
644.37	41572.60
644.51	41982.19
644.66	41696.64
644.81	42017.30
644.95	41605.36
645.10	41411.10
645.25	41654.51
645.39	41258.96
645.54	41205.13
645.69	41022.57
645.83	41460.25
645.98	41191.09
646.13	41736.43
646.27	41277.69
646.42	41338.54
646.57	41333.86
646.71	41603.02
646.86	41631.11
647.00	41516.42
647.15	41734.09
647.30	41315.14
647.44	41310.46
647.59	41287.05
647.74	40683.19
647.88	41223.86
648.03	41715.37
648.17	41654.51
648.32	41074.06
648.47	41511.74
648.61	41134.92
648.76	41053.00
648.90	40938.31
649.05	41155.98
649.20	41053.00
649.34	41329.18
649.49	40739.36
649.63	41436.84
649.78	41219.17
649.92	41254.28
650.07	41092.79
650.21	41062.36
650.36	41282.37
650.51	40952.35
650.65	41055.34
650.80	40882.14
650.94	41027.25
651.09	40844.69
651.23	40758.09
651.38	40793.20
651.52	40474.88
651.67	40659.79
651.81	40442.12
651.96	40737.02
652.10	40156.57
652.25	40603.61
652.39	40594.25
652.54	40378.92
652.68	40781.49
652.83	40357.86
652.97	40692.55
653.12	40509.99
653.26	40432.75
653.41	40222.11
653.55	40509.99
653.70	40430.41
653.84	40699.58
653.99	40402.33
654.13	40247.85
654.27	40030.18
654.42	40678.51
654.56	40105.08
654.71	39985.71
654.85	40198.70
655.00	40552.12
655.14	40301.68
655.29	40442.12
655.43	40364.88
655.57	40409.35
655.72	39662.72
655.86	39978.69
656.01	39878.05
656.15	39660.38
656.30	39983.37
656.44	40287.64
656.58	40102.74
656.73	39896.77
656.87	39515.26
657.01	39426.32
657.16	39669.74
657.30	39899.11
657.45	39332.70
657.59	39150.14
657.73	39391.22
657.88	39442.71
658.02	39531.65
658.16	39899.11
658.31	39646.33
658.45	39686.12
658.60	39157.16
658.74	39651.02
658.88	38993.32
659.03	38995.67
659.17	39250.78
659.31	39129.08
659.46	39065.88
659.60	39316.32
659.74	39246.10
659.89	38621.18
660.03	38565.01
660.17	39384.19
660.32	38962.90
660.46	38974.60
660.60	38307.55
660.74	39129.08
660.89	38822.47
661.03	38522.88
661.17	38092.22
661.32	38014.98
661.46	38314.57
661.60	38349.68
661.74	38391.81
661.89	38436.28
662.03	38377.76
662.17	38239.67
662.31	38040.73
662.46	38314.57
662.60	38054.77
662.74	37720.07
662.88	37476.66
663.03	37778.59
663.17	37790.29
663.31	37645.18
663.45	38045.41
663.60	38277.12
663.74	37947.11
663.88	37710.71
664.02	37385.38
664.17	38073.49
664.31	37242.60
664.45	37654.54
664.59	37551.56
664.73	37432.19
664.88	37357.29
665.02	36781.52
665.16	37102.17
665.30	37134.94
665.44	37701.35
665.59	36912.59
665.73	37015.57
665.87	36182.34
666.01	36762.79
666.15	36835.35
666.29	36767.48
666.44	36629.38
666.58	36591.94
666.72	36804.92
666.86	36322.77
667.00	36636.41
667.14	36212.77
667.28	36332.14
667.43	35810.20
667.57	36617.68
667.71	36643.43
667.85	36533.42
667.99	36353.20
668.13	36451.50
668.27	35941.27
668.41	35938.93
668.56	35384.22
668.70	35489.54
668.84	35201.66
668.98	35318.68
669.12	35854.67
669.26	35599.55
669.40	35978.72
669.54	35381.88
669.68	35424.01
669.82	35229.74
669.96	34983.99
670.10	35194.64
670.25	34944.20
670.39	35166.55
670.53	35344.43
670.67	34909.09
670.81	35030.80
670.95	35276.55
671.09	35082.29
671.23	34644.61
671.37	34499.50
671.51	34244.38
671.65	34330.98
671.79	34658.65
671.93	34639.93
672.07	34909.09
672.21	34068.84
672.35	33699.03
672.49	34398.85
672.63	33963.51
672.77	33874.57
672.91	34232.68
673.05	34024.37
673.19	33633.50
673.33	33352.63
673.47	33633.50
673.61	33366.68
673.75	33125.60
673.89	33123.26
674.03	33088.15
674.17	33352.63
674.31	32486.64
674.45	33179.43
674.59	33097.52
674.73	32648.13
674.87	32842.40
675.01	32945.38
675.15	32311.10
675.29	32144.92
675.43	32306.41
675.56	32236.20
675.70	32470.25
675.84	32266.63
675.98	31285.94
676.12	32208.11
676.26	32205.77
676.40	31545.74
676.54	31740.00
676.68	31590.21
676.82	30878.69
676.96	31655.75
677.10	31248.49
677.23	31370.20
677.37	31388.92
677.51	31449.78
677.65	31185.30
677.79	31328.07
677.93	31058.91
678.07	30984.01
678.21	30703.15
678.34	30536.97
678.48	30251.42
678.62	30197.59
678.76	30073.54
678.90	30008.01
679.04	30356.75
679.18	30401.22
679.31	29926.09
679.45	29626.50
679.59	30122.69
679.73	29834.81
679.87	29163.08
680.00	29764.59
680.14	29366.70
680.28	29167.76
680.42	29326.91
680.56	29392.45
680.70	28809.65
680.83	28706.67
680.97	28893.91
681.11	29219.25
681.25	28500.70
681.39	28559.22
681.52	28608.37
681.66	27894.50
681.80	27852.38
681.94	27868.76
682.07	27552.79
682.21	27669.81
682.35	27573.85
682.49	27618.32
682.62	27800.88
682.76	27667.47
682.90	27644.07
683.04	27599.60
683.17	27618.32
683.31	27274.26
683.45	27318.73
683.59	26658.70
683.72	26764.03
683.86	26487.84
684.00	26710.19
684.13	26424.65
684.27	26345.07
684.41	26525.29
684.55	26527.63
684.68	26827.22
684.82	26094.63
684.96	26340.39
685.09	26176.55
685.23	25956.54
685.37	25816.11
685.50	26214.00
685.64	25568.01
685.78	25560.99
685.91	25572.69
686.05	25151.40
686.19	25113.95
686.32	24910.32
686.46	24896.28
686.60	24641.16
686.73	24915.00
686.87	24788.61
687.01	24886.92
687.14	24872.87
687.28	24753.51
687.42	24865.85
687.55	24271.36
687.69	24470.30
687.82	24276.04
687.96	24051.34
688.10	23826.65
688.23	23939.00
688.37	24130.92
688.50	24084.11
688.64	23796.23
688.78	23772.82
688.91	23623.03
689.05	23377.27
689.18	23220.45
689.32	22717.24
689.46	22972.36
689.59	22808.52
689.73	23180.67
689.86	22953.63
690.00	22883.42
690.13	22607.23
690.27	22803.84
690.41	22684.47
690.54	22368.50
690.68	22089.98
690.81	22160.19
690.95	22132.11
691.08	21954.22
691.22	22075.93
691.35	21834.86
691.49	21947.20
691.62	21635.91
691.76	21465.05
691.89	21521.23
692.03	21467.39
692.16	20957.16
692.30	20996.95
692.43	21018.01
692.57	21060.14
692.70	21125.68
692.84	20884.60
692.97	20444.58
693.11	20821.41
693.24	20238.61
693.38	20442.24
693.51	20465.64
693.65	20299.47
693.78	20081.80
693.92	20140.31
694.05	19866.47
694.19	20044.35
694.32	20018.60
694.45	20002.22
694.59	20072.43
694.72	19934.34
694.86	19690.93
694.99	19421.77
695.13	19138.56
695.26	19297.72
695.39	18979.40
695.53	18792.16
695.66	19138.56
695.80	18841.31
695.93	19028.56
696.07	18810.89
696.20	18380.23
696.33	18370.86
696.47	18427.04
696.60	18097.02
696.73	18258.52
696.87	18471.51
697.00	18143.83
697.14	18298.31
697.27	17912.12
697.40	18174.26
697.54	17994.04
697.67	17785.73
697.80	17509.55
697.94	17902.76
698.07	17572.74
698.21	17448.69
698.34	17287.20
698.47	16889.31
698.61	16847.18
698.74	17071.87
698.87	17067.19
699.01	16917.39
699.14	16971.22
699.27	17177.19
699.40	16563.97
699.54	16610.78
699.67	16587.38
699.80	16610.78
699.94	16535.88
700.07	16231.62
700.20	16645.89
700.34	16147.36
700.47	16161.40
700.60	16393.11
700.73	16194.17
700.87	15831.38
701.00	15807.98
701.13	15824.36
701.26	15648.82
701.40	15768.19
701.53	15466.26
701.66	15569.24
701.79	15234.55
701.93	15358.60
702.06	15040.28
702.19	15185.40
702.32	15246.25
702.46	15262.63
702.59	15059.01
702.72	14871.76
702.85	15012.20
702.99	14665.80
703.12	14707.93
703.25	14511.32
703.38	14183.65
703.51	14284.29
703.65	14291.31
703.78	14274.93
703.91	13884.06
704.04	14193.01
704.17	13715.54
704.31	14012.79
704.44	13832.57
704.57	14003.43
704.70	13619.58
704.83	13989.38
704.96	13472.12
705.10	13493.19
705.23	13366.80
>>>>>End Processed Spectral Data<<<<<
