SpectraSuite Data File
++++++++++++++++++++++++++++++++++++
Date: Fri Oct 25 11:33:42 EDT 2013
User: price-jones
Dark Spectrum Present: No
Reference Spectrum Present: No
Number of Sampled Component Spectra: 1
Spectrometers: USB2+H05261
Integration Time (usec): 100000 (USB2+H05261)
Spectra Averaged: 1 (USB2+H05261)
Boxcar Smoothing: 0 (USB2+H05261)
Correct for Electrical Dark: No (USB2+H05261)
Strobe/Lamp Enabled: No (USB2+H05261)
Correct for Detector Non-linearity: No (USB2+H05261)
Correct for Stray Light: No (USB2+H05261)
Number of Pixels in Processed Spectrum: 2048
>>>>>Begin Processed Spectral Data<<<<<
365.73	271.50
365.92	271.50
366.12	271.50
366.32	203.63
366.52	173.20
366.72	196.60
366.91	220.01
367.11	138.09
367.31	168.52
367.51	156.82
367.70	135.75
367.90	236.39
368.10	184.90
368.30	203.63
368.49	187.24
368.69	269.16
368.89	245.76
369.09	224.69
369.28	201.29
369.48	180.22
369.68	264.48
369.87	259.80
370.07	205.97
370.27	301.93
370.47	290.23
370.66	461.09
370.86	461.09
371.06	524.28
371.25	575.77
371.45	538.32
371.65	517.26
371.84	573.43
372.04	470.45
372.24	512.58
372.44	575.77
372.63	580.45
372.83	615.56
373.03	599.18
373.22	528.96
373.42	697.48
373.62	631.94
373.81	634.29
374.01	594.50
374.21	660.03
374.40	620.24
374.60	660.03
374.79	660.03
374.99	587.47
375.19	645.99
375.38	592.16
375.58	641.31
375.78	702.16
375.97	699.82
376.17	699.82
376.37	638.97
376.56	655.35
376.76	620.24
376.95	641.31
377.15	727.91
377.35	697.48
377.54	711.52
377.74	725.57
377.93	667.05
378.13	758.33
378.33	734.93
378.52	685.78
378.72	732.59
378.91	716.20
379.11	737.27
379.31	812.17
379.50	702.16
379.70	709.18
379.89	732.59
380.09	713.86
380.28	723.23
380.48	725.57
380.68	706.84
380.87	730.25
381.07	807.48
381.26	777.06
381.46	737.27
381.65	784.08
381.85	784.08
382.04	727.91
382.24	826.21
382.43	786.42
382.63	763.01
382.83	706.84
383.02	819.19
383.22	800.46
383.41	800.46
383.61	814.51
383.80	821.53
384.00	781.74
384.19	870.68
384.39	786.42
384.58	840.25
384.78	748.97
384.97	791.10
385.17	891.74
385.36	816.85
385.56	833.23
385.75	863.66
385.95	901.11
386.14	842.59
386.34	847.27
386.53	880.04
386.72	901.11
386.92	990.05
387.11	875.36
387.31	889.40
387.50	950.26
387.70	924.51
387.89	926.85
388.09	929.19
388.28	936.21
388.48	910.47
388.67	828.55
388.86	931.53
389.06	917.49
389.25	1020.47
389.45	940.90
389.64	1025.15
389.84	968.98
390.03	1025.15
390.22	1006.43
390.42	924.51
390.61	947.92
390.81	999.41
391.00	1022.81
391.19	945.58
391.39	936.21
391.58	980.68
391.78	1121.12
391.97	976.00
392.16	978.34
392.36	1174.95
392.55	1097.71
392.75	1057.92
392.94	1114.10
393.13	1121.12
393.33	997.07
393.52	1114.10
393.71	1076.65
393.91	1083.67
394.10	1093.03
394.29	1153.88
394.49	1041.54
394.68	1046.22
394.88	1181.97
395.07	1205.38
395.26	1188.99
395.46	1158.57
395.65	1139.84
395.84	1203.04
396.04	1219.42
396.23	1203.04
396.42	1261.55
396.62	1163.25
396.81	1142.18
397.00	1224.10
397.19	1214.74
397.39	1165.59
397.58	1231.12
397.77	1231.12
397.97	1247.51
398.16	1294.32
398.35	1256.87
398.55	1245.16
398.74	1242.82
398.93	1369.21
399.12	1256.87
399.32	1254.53
399.51	1291.98
399.70	1315.38
399.90	1399.64
400.09	1348.15
400.28	1294.32
400.47	1425.39
400.67	1366.87
400.86	1474.54
401.05	1455.81
401.24	1446.45
401.44	1425.39
401.63	1465.18
401.82	1441.77
402.01	1411.34
402.21	1523.69
402.40	1467.52
402.59	1437.09
402.78	1507.30
402.97	1535.39
403.17	1563.48
403.36	1474.54
403.55	1605.61
403.74	1607.95
403.93	1626.67
404.13	1614.97
404.32	1579.86
404.51	1621.99
404.70	1638.38
404.89	1645.40
405.09	1694.55
405.28	1689.87
405.47	1680.50
405.66	1668.80
405.85	1710.93
406.05	1706.25
406.24	1734.34
406.43	1734.34
406.62	1830.30
406.81	1781.15
407.00	1767.10
407.20	1832.64
407.39	1802.21
407.58	1914.56
407.77	1937.96
407.96	1844.34
408.15	1893.49
408.34	1748.38
408.54	1919.24
408.73	1982.43
408.92	1952.01
409.11	1982.43
409.30	2005.84
409.49	2024.56
409.68	1961.37
409.87	1947.33
410.07	1994.14
410.26	2134.57
410.45	2003.50
410.64	2069.03
410.83	2073.71
411.02	2136.91
411.21	2167.34
411.40	2200.10
411.59	2167.34
411.78	2293.72
411.98	2195.42
412.17	2335.85
412.36	2359.26
412.55	2380.32
412.74	2291.38
412.93	2370.96
413.12	2396.71
413.31	2511.39
413.50	2429.48
413.69	2399.05
413.88	2504.37
414.07	2443.52
414.26	2504.37
414.45	2452.88
414.64	2572.25
414.83	2656.51
415.02	2548.84
415.22	2609.70
415.41	2668.21
415.60	2731.41
415.79	2747.79
415.98	2717.36
416.17	2775.88
416.36	2689.28
416.55	2717.36
416.74	2902.26
416.93	2752.47
417.12	2808.64
417.31	2960.78
417.50	2913.97
417.69	2836.73
417.88	2881.20
418.07	2911.63
418.26	3016.95
418.45	2871.84
418.64	3169.09
418.83	3077.80
419.02	3016.95
419.21	3152.70
419.39	3159.72
419.58	3136.32
419.77	3045.04
419.96	3098.87
420.15	3304.84
420.34	3129.30
420.53	3136.32
420.72	3321.22
420.91	3180.79
421.10	3183.13
421.29	3283.77
421.48	3145.68
421.67	3253.34
421.86	3297.81
422.05	3421.86
422.24	3302.50
422.43	3466.33
422.61	3337.60
422.80	3438.25
422.99	3410.16
423.18	3389.10
423.37	3463.99
423.56	3372.71
423.75	3431.23
423.94	3403.14
424.13	3169.09
424.32	3321.22
424.50	3375.05
424.69	3487.40
424.88	3480.38
425.07	3445.27
425.26	3529.53
425.45	3445.27
425.64	3396.12
425.83	3342.28
426.01	3520.17
426.20	3513.14
426.39	3534.21
426.58	3386.76
426.77	3517.83
426.96	3508.46
427.15	3726.13
427.33	3529.53
427.52	3569.32
427.71	3520.17
427.90	3562.30
428.09	3653.58
428.28	3784.65
428.46	3651.24
428.65	3777.62
428.84	3691.02
429.03	3829.12
429.22	3737.84
429.40	3817.41
429.59	3805.71
429.78	3728.47
429.97	3709.75
430.16	3684.00
430.34	3983.59
430.53	3880.61
430.72	3922.74
430.91	3882.95
431.10	3775.28
431.28	3962.53
431.47	4021.04
431.66	4028.06
431.85	3962.53
432.03	3964.87
432.22	4037.42
432.41	4058.49
432.60	4138.07
432.79	4098.28
432.97	4205.94
433.16	4154.45
433.35	4051.47
433.54	4264.46
433.72	4161.47
433.91	4203.60
434.10	4173.18
434.28	4135.73
434.47	4276.16
434.66	4360.42
434.85	4175.52
435.03	4430.63
435.22	4346.37
435.41	4402.55
435.59	4369.78
435.78	4451.70
435.97	4395.53
436.16	4409.57
436.34	4409.57
436.53	4407.23
436.72	4617.88
436.90	4346.37
437.09	4376.80
437.28	4463.40
437.46	4456.38
437.65	4519.57
437.84	4606.17
438.02	4615.54
438.21	4695.11
438.40	4383.82
438.58	4573.41
438.77	4624.90
438.96	4870.65
439.14	4863.63
439.33	5027.47
439.52	4779.37
439.70	4926.83
439.89	5144.50
440.08	5111.73
440.26	4978.32
440.45	4966.62
440.63	5172.58
440.82	5256.84
441.01	5228.76
441.19	5102.37
441.38	5268.55
441.57	5221.74
441.75	5289.61
441.94	5252.16
442.12	5451.11
442.31	5572.82
442.50	5542.39
442.68	5490.90
442.87	5495.58
443.05	5673.46
443.24	5586.86
443.43	5575.16
443.61	5544.73
443.80	5636.01
443.98	5383.23
444.17	5394.93
444.35	5659.42
444.54	5685.16
444.73	5619.63
444.91	5589.20
445.10	5659.42
445.28	5586.86
445.47	5521.32
445.65	5736.65
445.84	5795.17
446.02	5877.09
446.21	5755.38
446.39	5804.53
446.58	5720.27
446.77	5738.99
446.95	5636.01
447.14	5706.23
447.32	5771.76
447.51	5755.38
447.69	5858.36
447.88	5654.73
448.06	5858.36
448.25	5790.49
448.43	5738.99
448.62	5781.12
448.80	5795.17
448.99	5966.03
449.17	5959.00
449.36	5898.15
449.54	5830.27
449.73	6108.80
449.91	6029.22
450.10	5928.58
450.28	6129.86
450.46	6127.52
450.65	6202.42
450.83	5956.66
451.02	6054.97
451.20	6319.45
451.39	6167.31
451.57	6164.97
451.76	6033.90
451.94	6179.01
452.13	6274.98
452.31	6293.70
452.49	6218.80
452.68	6450.52
452.86	6235.19
453.05	6328.81
453.23	6590.95
453.42	6410.73
453.60	6239.87
453.78	6527.75
453.97	6399.02
454.15	6450.52
454.34	6338.17
454.52	6647.12
454.70	6396.68
454.89	6707.98
455.07	6670.53
455.26	6785.21
455.44	6675.21
455.62	6579.25
455.81	6616.69
455.99	6717.34
456.17	6555.84
456.36	6724.36
456.54	6722.02
456.73	6932.67
456.91	7002.88
457.09	7068.42
457.28	7117.57
457.46	7000.54
457.64	7014.59
457.83	7267.36
458.01	7000.54
458.19	7201.83
458.38	7166.72
458.56	7215.87
458.74	7339.92
458.93	7110.55
459.11	7239.28
459.29	7281.41
459.48	7138.63
459.66	7470.99
459.84	7349.28
460.03	7602.06
460.21	7208.85
460.39	7288.43
460.57	7267.36
460.76	7566.95
460.94	7578.65
461.12	7527.16
461.31	7669.94
461.49	7492.05
461.67	7536.52
461.85	7660.57
462.04	7597.38
462.22	7999.95
462.40	7779.94
462.59	7824.41
462.77	7819.73
462.95	7786.96
463.13	7779.94
463.32	7838.45
463.50	8039.74
463.68	7901.65
463.86	7920.37
464.05	7852.50
464.23	7803.35
464.41	7967.18
464.59	7955.48
464.78	8131.02
464.96	7789.30
465.14	7922.71
465.32	8107.62
465.50	7978.89
465.69	8262.09
465.87	8037.40
466.05	8142.72
466.23	7957.82
466.41	8201.24
466.60	8407.20
466.78	8198.90
466.96	8219.96
467.14	8180.17
467.32	8294.86
467.51	8400.18
467.69	8100.59
467.87	8187.19
468.05	8514.87
468.23	8358.05
468.41	8201.24
468.60	8318.26
468.78	8404.86
468.96	8451.67
469.14	8636.58
469.32	8650.62
469.50	8320.60
469.69	8650.62
469.87	8744.24
470.05	8737.22
470.23	8889.35
470.41	8791.05
470.59	8950.21
470.77	8877.65
470.95	8966.59
471.14	9088.30
471.32	8681.05
471.50	9165.54
471.68	8954.89
471.86	9142.13
472.04	9102.34
472.22	9376.19
472.40	9261.50
472.58	9270.86
472.77	9425.34
472.95	9390.23
473.13	9647.69
473.31	9348.10
473.49	9418.32
473.67	9282.56
473.85	9563.43
474.03	9820.89
474.21	10040.90
474.39	9804.50
474.57	9558.75
474.75	9898.13
474.93	9837.27
475.12	9916.85
475.30	9973.02
475.48	9921.53
475.66	9935.57
475.84	9973.02
476.02	10078.35
476.20	10190.69
476.38	10431.77
476.56	10602.63
476.74	10637.73
476.92	10501.98
477.10	10504.32
477.28	10644.76
477.46	10696.25
477.64	10883.49
477.82	10839.02
478.00	11480.33
478.18	11290.74
478.36	11201.80
478.54	11197.12
478.72	11585.65
478.90	11522.46
479.08	11850.13
479.26	11751.83
479.44	11590.33
479.62	11784.60
479.80	11974.18
479.98	12002.27
480.16	12248.02
480.34	12140.36
480.52	12306.54
480.70	12224.62
480.88	12166.10
481.06	12362.71
481.24	12453.99
481.41	12746.56
481.59	12720.81
481.77	12814.43
481.95	13053.17
482.13	12774.64
482.31	13104.66
482.49	13528.30
482.67	13437.02
482.85	13493.19
483.03	13369.14
483.21	13596.17
483.39	13893.42
483.57	13659.37
483.74	14090.02
483.92	13930.87
484.10	13951.93
484.28	14174.28
484.46	14394.29
484.64	14403.66
484.82	14504.30
485.00	14682.18
485.18	14927.94
485.35	15143.27
485.53	15098.80
485.71	15241.57
485.89	15484.98
486.07	15283.70
486.25	15440.51
486.43	15428.81
486.61	15639.46
486.78	15992.88
486.96	16049.05
487.14	16215.23
487.32	16056.08
487.50	16156.72
487.68	16271.40
487.85	16858.88
488.03	16669.30
488.21	17216.98
488.39	16959.52
488.57	17025.06
488.75	17249.75
488.92	17334.01
489.10	17509.55
489.28	17645.30
489.46	18001.06
489.64	17570.40
489.81	18389.59
489.99	18047.87
490.17	18382.57
490.35	18473.85
490.53	18438.74
490.70	18888.12
490.88	18492.57
491.06	18937.27
491.24	19164.31
491.41	19150.26
491.59	19227.50
491.77	19262.61
491.95	19150.26
492.13	19772.85
492.30	19630.07
492.48	19459.21
492.66	19824.34
492.84	19878.17
493.01	20250.32
493.19	20250.32
493.37	20442.24
493.54	20498.41
493.72	20697.36
493.90	20493.73
494.08	20919.71
494.25	21429.94
494.43	21317.60
494.61	20996.95
494.79	21062.48
494.96	21469.73
495.14	22188.28
495.32	21614.85
495.49	21872.31
495.67	21860.60
495.85	21968.27
496.02	22284.24
496.20	22515.95
496.38	22305.31
496.55	22714.90
496.73	22761.71
496.91	22904.48
497.09	22806.18
497.26	23206.41
497.44	22745.33
497.62	23023.85
497.79	23377.27
497.97	23435.78
498.14	23501.32
498.32	23730.69
498.50	23740.05
498.67	23899.21
498.85	23513.02
499.03	24191.78
499.20	24154.33
499.38	23892.19
499.56	24645.84
499.73	24797.98
499.91	24442.21
500.08	24751.17
500.26	24793.29
500.44	24772.23
500.61	25127.99
500.79	25032.03
500.97	25123.31
501.14	25619.50
501.32	25298.85
501.49	25235.66
501.67	25301.19
501.84	25678.02
502.02	25907.39
502.20	25757.60
502.37	25741.21
502.55	25879.30
502.72	26136.76
502.90	26356.77
503.07	25837.17
503.25	26122.72
503.43	26134.42
503.60	26188.25
503.78	26611.89
503.95	26562.74
504.13	26321.66
504.30	26742.96
504.48	26665.72
504.65	26883.39
504.83	27044.89
505.01	27356.18
505.18	27152.55
505.36	27428.74
505.53	27225.11
505.71	27583.21
505.88	27541.08
506.06	27328.10
506.23	27541.08
506.41	27456.82
506.58	27707.26
506.76	27754.07
506.93	28095.79
507.11	28208.14
507.28	28268.99
507.46	28100.47
507.63	28465.60
507.81	28762.84
507.98	28292.40
508.16	28357.93
508.33	28912.64
508.50	28835.40
508.68	28966.47
508.85	29142.01
509.03	28896.25
509.20	28973.49
509.38	29420.53
509.55	29429.90
509.73	29188.82
509.90	29401.81
510.08	29764.59
510.25	29921.41
510.42	29624.16
510.60	30017.37
510.77	30050.14
510.95	30132.06
511.12	29773.95
511.30	30349.73
511.47	30359.09
511.64	30054.82
511.82	30438.67
511.99	30637.61
512.17	30595.48
512.34	30305.26
512.51	30993.37
512.69	31166.57
512.86	30801.45
513.04	31550.42
513.21	31157.21
513.38	31147.85
513.56	31112.74
513.73	31508.29
513.90	30951.24
514.08	31171.25
514.25	31512.97
514.43	31515.31
514.60	31854.69
514.77	31463.82
514.95	32004.49
515.12	31487.23
515.29	31850.01
515.47	31681.49
515.64	32238.54
515.81	32161.30
515.99	32435.14
516.16	32725.37
516.33	32201.09
516.51	32318.12
516.68	32470.25
516.85	32669.20
517.03	32570.90
517.20	32549.83
517.37	32793.25
517.54	33008.58
517.72	33106.88
517.89	32840.06
518.06	33048.36
518.24	33036.66
518.41	33041.34
518.58	33275.40
518.75	32975.81
518.93	33511.79
519.10	33366.68
519.27	33638.18
519.45	33741.16
519.62	33790.31
519.79	34029.05
519.96	33989.26
520.14	33926.07
520.31	33968.19
520.48	34239.70
520.65	33731.80
520.83	34560.35
521.00	34513.54
521.17	34136.71
521.34	34075.86
521.52	34438.64
521.69	34658.65
521.86	35044.84
522.03	34801.43
522.20	35356.13
522.38	34920.79
522.55	35079.95
522.72	34693.76
522.89	35220.38
523.07	35660.40
523.24	35117.40
523.41	35325.71
523.58	34941.86
523.75	35608.91
523.92	35522.31
524.10	35920.20
524.27	35426.35
524.44	35847.64
524.61	35945.95
524.78	36020.84
524.96	36121.49
525.13	36187.02
525.30	36446.82
525.47	36095.74
525.64	36011.48
525.81	36411.71
525.98	36385.97
526.16	36533.42
526.33	36140.21
526.50	36350.86
526.67	36486.61
526.84	36858.76
527.01	36751.09
527.18	36669.17
527.36	36631.72
527.53	36952.38
527.70	37368.99
527.87	37413.46
528.04	37256.65
528.21	37317.50
528.38	37223.88
528.55	37429.85
528.72	37158.34
528.89	37727.10
529.07	37322.18
529.24	36987.49
529.41	37518.79
529.58	37315.16
529.75	37710.71
529.92	37584.32
530.09	37759.86
530.26	37862.85
530.43	37638.15
530.60	37783.27
530.77	37593.68
530.94	37862.85
531.11	37703.69
531.28	38487.77
531.46	38082.86
531.63	38061.79
531.80	37930.72
531.97	38738.21
532.14	38527.56
532.31	38272.44
532.48	38335.63
532.65	38665.65
532.82	38398.83
532.99	38726.50
533.16	38576.71
533.33	38969.92
533.50	38916.09
533.67	38768.63
533.84	38162.43
534.01	38747.57
534.18	39115.03
534.35	39730.59
534.52	39306.96
534.69	39559.73
534.86	39557.39
535.03	39503.56
535.20	38974.60
535.37	39292.91
535.54	39791.45
535.71	39470.79
535.88	40102.74
536.05	39178.23
536.22	39730.59
536.38	39487.18
536.55	39990.39
536.72	39997.41
536.89	39611.23
537.06	39896.77
537.23	40020.82
537.40	39924.86
537.57	39381.85
537.74	39866.34
537.91	40252.53
538.08	40044.23
538.25	39641.65
538.42	40383.60
538.59	40641.06
538.75	40069.97
538.92	40603.61
539.09	40685.53
539.26	40369.56
539.43	40421.05
539.60	40840.01
539.77	40844.69
539.94	41090.44
540.11	40865.75
540.28	41179.39
540.44	40720.64
540.61	41045.97
540.78	40840.01
540.95	40680.85
541.12	40502.97
541.29	40847.03
541.46	41179.39
541.62	41270.67
541.79	41256.62
541.96	40992.14
542.13	41062.36
542.30	41179.39
542.47	41237.90
542.63	41144.28
542.80	41663.88
542.97	41680.26
543.14	42241.99
543.31	41694.30
543.48	41888.57
543.64	41956.44
543.81	42272.42
543.98	42291.14
544.15	41687.28
544.32	42291.14
544.48	42555.62
544.65	42642.22
544.82	42309.86
544.99	41930.70
545.16	42480.72
545.32	42333.27
545.49	42799.04
545.66	42726.48
545.83	42745.20
546.00	42993.30
546.16	42632.86
546.33	42344.97
546.50	42457.32
546.67	42927.77
546.83	42562.64
547.00	42497.11
547.17	42293.48
547.34	42775.63
547.50	42960.53
547.67	43335.02
547.84	43154.80
548.00	43143.09
548.17	43585.46
548.34	43239.06
548.51	43409.92
548.67	43304.59
548.84	43583.12
549.01	43304.59
549.18	43370.13
549.34	43489.49
549.51	43810.15
549.68	43601.84
549.84	43402.89
550.01	43545.67
550.18	43452.05
550.34	43400.55
550.51	44072.29
550.68	43505.88
550.84	43192.25
551.01	43772.70
551.18	43157.14
551.34	43540.99
551.51	44081.65
551.68	43650.99
551.84	43608.86
552.01	44004.41
552.18	44219.74
552.34	43831.21
552.51	44133.14
552.68	44093.35
552.84	44334.43
553.01	43990.37
553.18	44086.33
553.34	44282.94
553.51	44760.40
553.67	44294.64
553.84	44650.40
554.01	44439.75
554.17	44762.75
554.34	44479.54
554.51	44816.58
554.67	44584.86
554.84	44437.41
555.00	44385.92
555.17	44666.78
555.33	44683.17
555.50	44622.31
555.67	44945.31
555.83	44697.21
556.00	44488.90
556.16	45244.90
556.33	44870.41
556.50	44968.71
556.66	45202.77
556.83	44512.31
556.99	45184.04
557.16	45022.54
557.32	45329.16
557.49	45235.53
557.65	45294.05
557.82	45186.38
557.98	44921.90
558.15	44959.35
558.32	45331.50
558.48	45230.85
558.65	45088.08
558.81	45603.00
558.98	44961.69
559.14	45287.03
559.31	45223.83
559.47	45336.18
559.64	45282.34
559.80	45584.27
559.97	45780.88
560.13	45373.63
560.30	45914.29
560.46	45780.88
560.63	45825.35
560.79	45851.09
560.96	45792.58
561.12	45595.98
561.29	45638.11
561.45	45705.98
561.61	46134.30
561.78	45607.68
561.94	45876.84
562.11	45731.73
562.27	45626.40
562.44	45628.74
562.60	45949.40
562.77	46279.41
562.93	45993.87
563.10	46319.20
563.26	46003.23
563.42	46169.41
563.59	46045.36
563.75	45600.66
563.92	46206.86
564.08	46005.57
564.24	46270.05
564.41	45940.04
564.57	45956.42
564.74	46258.35
564.90	45724.71
565.07	46190.47
565.23	46321.54
565.39	46384.74
565.56	46424.53
565.72	46094.51
565.88	45705.98
566.05	46588.36
566.21	46082.81
566.38	46401.12
566.54	46005.57
566.70	46602.41
566.87	46555.60
567.03	46464.32
567.19	46506.44
567.36	46129.62
567.52	46391.76
567.68	46494.74
567.85	46450.27
568.01	46681.98
568.17	46560.28
568.34	46358.99
568.50	46597.73
568.66	46256.01
568.83	46855.18
568.99	46508.79
569.15	46838.80
569.32	46323.88
569.48	46735.82
569.64	47023.70
569.81	46939.44
569.97	46609.43
570.13	46281.75
570.30	46248.99
570.46	46841.14
570.62	46649.22
570.78	46958.17
570.95	46784.97
571.11	46967.53
571.27	46576.66
571.43	46735.82
571.60	46660.92
571.76	46571.98
571.92	46611.77
572.09	46672.62
572.25	46490.06
572.41	47147.75
572.57	46625.81
572.74	46979.23
572.90	46789.65
573.06	46972.21
573.22	46822.42
573.38	47114.98
573.55	46902.00
573.71	47449.68
573.87	47110.30
574.03	46920.72
574.20	47426.28
574.36	46841.14
574.52	46979.23
574.68	46972.21
574.84	46862.21
575.01	47222.65
575.17	47398.19
575.33	47428.62
575.49	46988.60
575.65	47159.45
575.82	47239.03
575.98	46768.58
576.14	47290.52
576.30	47463.72
576.46	47117.32
576.62	47173.50
576.79	46806.03
576.95	46672.62
577.11	46637.51
577.27	47185.20
577.43	47021.36
577.59	47243.71
577.75	47070.51
577.92	46539.21
578.08	46969.87
578.24	47445.00
578.40	47524.58
578.56	47091.58
578.72	47021.36
578.88	47154.77
579.04	47255.42
579.21	47248.39
579.37	47325.63
579.53	47559.69
579.69	46906.68
579.85	47037.75
580.01	47002.64
580.17	46873.91
580.33	47140.73
580.49	47194.56
580.65	47248.39
580.82	47454.36
580.98	47131.37
581.14	46878.59
581.30	47489.47
581.46	46995.62
581.62	47154.77
581.78	47110.30
581.94	47393.51
582.10	47152.43
582.26	47751.61
582.42	47175.84
582.58	47283.50
582.74	47302.23
582.90	47037.75
583.06	47349.04
583.22	47208.61
583.38	47409.89
583.54	47613.52
583.70	47398.19
583.86	47524.58
584.02	47250.74
584.18	47519.90
584.34	47838.21
584.50	47611.18
584.66	47819.49
584.82	47454.36
584.98	48322.70
585.14	47931.83
585.30	47159.45
585.46	47196.90
585.62	47334.99
585.78	47679.05
585.94	47021.36
586.10	47379.46
586.26	47152.43
586.42	48081.63
586.58	47655.65
586.74	47468.40
586.90	47220.31
587.06	47182.86
587.22	47594.79
587.38	47306.91
587.54	47821.83
587.70	47775.02
587.86	47356.06
588.02	47477.77
588.18	47463.72
588.34	47508.19
588.49	47229.67
588.65	47316.27
588.81	47445.00
588.97	47491.81
589.13	47704.80
589.29	47510.53
589.45	47901.40
589.61	47730.54
589.77	47985.66
589.93	47606.50
590.08	47496.49
590.24	47945.87
590.40	48062.90
590.56	48109.71
590.72	48048.86
590.88	47653.31
591.04	47660.33
591.20	48156.52
591.35	47913.11
591.51	48177.59
591.67	47957.58
591.83	48165.88
591.99	48261.85
592.15	47758.63
592.31	47676.71
592.46	47861.61
592.62	47852.25
592.78	47936.51
592.94	48147.16
593.10	48287.59
593.26	48186.95
593.41	48205.67
593.57	48020.77
593.73	48406.96
593.89	48378.87
594.05	48189.29
594.20	47922.47
594.36	48725.27
594.52	48161.20
594.68	47800.76
594.84	48154.18
594.99	48215.04
595.15	48044.18
595.31	48395.26
595.47	47849.91
595.62	48158.86
595.78	48229.08
595.94	48390.58
596.10	48308.66
596.25	48158.86
596.41	48212.70
596.57	47966.94
596.73	48659.74
596.88	48208.01
597.04	47990.34
597.20	48421.00
597.36	48311.00
597.51	48563.78
597.67	47938.85
597.83	48322.70
597.99	48287.59
598.14	48069.92
598.30	48303.98
598.46	48257.17
598.61	48353.13
598.77	48378.87
598.93	48531.01
599.09	48491.22
599.24	48655.06
599.40	48533.35
599.56	48430.36
599.71	48736.98
599.87	48727.61
600.03	48582.50
600.18	48364.83
600.34	48009.07
600.50	48346.11
600.65	48205.67
600.81	48884.43
600.97	48781.45
601.12	48961.67
601.28	48271.21
601.44	48413.98
601.59	48093.33
601.75	48114.39
601.91	48566.12
602.06	48311.00
602.22	48519.31
602.37	48282.91
602.53	48645.69
602.69	48523.99
602.84	48552.07
603.00	48360.15
603.16	48245.46
603.31	48563.78
603.47	48863.36
603.62	48254.82
603.78	48170.57
603.94	48404.62
604.09	48701.87
604.25	48545.05
604.40	48250.14
604.56	48570.80
604.71	48659.74
604.87	48133.12
605.03	48032.47
605.18	48133.12
605.34	48156.52
605.49	47957.58
605.65	48402.28
605.80	48215.04
605.96	48224.40
606.12	48296.95
606.27	48505.26
606.43	48240.78
606.58	48706.55
606.74	48205.67
606.89	48367.17
607.05	48479.52
607.20	48013.75
607.36	48203.33
607.51	47880.34
607.67	48479.52
607.82	47927.15
607.98	47955.24
608.13	48105.03
608.29	48299.30
608.44	48123.75
608.60	48034.81
608.75	48364.83
608.91	48355.47
609.06	48240.78
609.22	48067.58
609.37	47831.19
609.53	48170.57
609.68	48264.19
609.84	48240.78
609.99	48395.26
610.15	47812.46
610.30	48046.52
610.46	47742.25
610.61	47973.96
610.76	48027.79
610.92	48011.41
611.07	47840.55
611.23	47765.65
611.38	47866.30
611.54	47840.55
611.69	47674.37
611.84	47927.15
612.00	47985.66
612.15	47765.65
612.31	48301.64
612.46	47838.21
612.62	47786.72
612.77	47892.04
612.92	48058.22
613.08	48016.09
613.23	47917.79
613.39	47775.02
613.54	47992.68
613.69	47913.11
613.85	47910.77
614.00	47995.03
614.15	47676.71
614.31	47744.59
614.46	47555.00
614.62	47657.99
614.77	47744.59
614.92	47051.79
615.08	47416.91
615.23	47728.20
615.38	47711.82
615.54	47299.89
615.69	47313.93
615.84	47452.02
616.00	47555.00
616.15	47414.57
616.30	47739.91
616.46	47566.71
616.61	47569.05
616.76	47437.98
616.92	47660.33
617.07	47475.43
617.22	47374.78
617.37	47379.46
617.53	47330.31
617.68	47672.03
617.83	47026.04
617.99	47456.70
618.14	47370.10
618.29	47004.98
618.45	46887.95
618.60	46745.18
618.75	46983.91
618.90	46831.78
619.06	46817.74
619.21	47430.96
619.36	47119.66
619.51	47332.65
619.67	47040.09
619.82	47112.64
619.97	47672.03
620.12	47122.01
620.28	46859.87
620.43	47299.89
620.58	47110.30
620.73	47192.22
620.89	47157.11
621.04	47292.86
621.19	46799.01
621.34	46806.03
621.49	46747.52
621.65	46885.61
621.80	47075.19
621.95	47147.75
622.10	46803.69
622.25	47021.36
622.41	46747.52
622.56	47133.71
622.71	46939.44
622.86	46740.50
623.01	47054.13
623.16	46476.02
623.32	46710.07
623.47	46529.85
623.62	46389.42
623.77	46834.12
623.92	46302.82
624.07	46513.47
624.23	46658.58
624.38	46621.13
624.53	46522.83
624.68	46148.34
624.83	46040.68
624.98	46539.21
625.13	45797.26
625.29	46459.63
625.44	46384.74
625.59	46576.66
625.74	46021.95
625.89	46080.47
626.04	45989.19
626.19	46396.44
626.34	46171.75
626.49	45904.93
626.65	45858.12
626.80	45855.78
626.95	46075.79
627.10	45914.29
627.25	46216.22
627.40	46171.75
627.55	45958.76
627.70	45874.50
627.85	45928.33
628.00	45865.14
628.15	46010.25
628.30	45500.01
628.45	45633.42
628.60	45595.98
628.76	45998.55
628.91	45612.36
629.06	45507.04
629.21	45689.60
629.36	45399.37
629.51	45226.17
629.66	46225.58
629.81	45717.68
629.96	46043.02
630.11	45588.95
630.26	45460.23
630.41	45406.39
630.56	45223.83
630.71	45603.00
630.86	45415.76
631.01	45397.03
631.16	45652.15
631.31	45336.18
631.46	45113.83
631.61	45586.61
631.76	45219.15
631.91	45530.44
632.06	45549.17
632.21	45565.55
632.36	45675.55
632.51	44889.13
632.66	45209.79
632.81	45223.83
632.96	45228.51
633.10	44978.07
633.25	45137.23
633.40	44931.26
633.55	45113.83
633.70	45382.99
633.85	44905.52
634.00	44912.54
634.15	45057.65
634.30	44851.69
634.45	44835.30
634.60	44582.52
634.75	44781.47
634.90	44842.32
635.05	44980.42
635.19	44720.62
635.34	44933.60
635.49	44652.74
635.64	44928.92
635.79	45277.66
635.94	44926.58
636.09	44659.76
636.24	44603.59
636.39	44694.87
636.53	44811.90
636.68	44509.97
636.83	44409.32
636.98	44278.25
637.13	44006.75
637.28	44208.04
637.43	44655.08
637.57	44531.03
637.72	43941.22
637.87	44172.93
638.02	44165.91
638.17	44329.75
638.32	43852.28
638.46	44212.72
638.61	43922.49
638.76	44612.95
638.91	44381.24
639.06	44128.46
639.20	43721.21
639.35	43882.70
639.50	43693.12
639.65	44158.89
639.80	43828.87
639.94	44116.76
640.09	44402.30
640.24	44268.89
640.39	43529.28
640.54	43285.87
640.68	44449.11
640.83	44053.56
640.98	43728.23
641.13	43529.28
641.27	44350.81
641.42	43512.90
641.57	43768.02
641.72	43847.60
641.86	43304.59
642.01	43496.52
642.16	43618.22
642.31	43456.73
642.45	43672.06
642.60	43192.25
642.75	43625.25
642.90	43772.70
643.04	43246.08
643.19	43236.72
643.34	42717.12
643.48	42895.00
643.63	42997.98
643.78	43552.69
643.93	43393.53
644.07	43395.87
644.22	43583.12
644.37	43150.12
644.51	43030.75
644.66	43079.90
644.81	43033.09
644.95	43423.96
645.10	43260.12
645.25	42962.87
645.39	42450.30
645.54	43079.90
645.69	42534.56
645.83	42607.11
645.98	43089.26
646.13	42562.64
646.27	42431.57
646.42	42639.88
646.57	42887.98
646.71	43313.95
646.86	43365.45
647.00	42820.10
647.15	43061.18
647.30	42988.62
647.44	42972.24
647.59	42759.25
647.74	42342.63
647.88	42653.92
648.03	43079.90
648.17	43505.88
648.32	42838.83
648.47	43225.01
648.61	42747.54
648.76	42499.45
648.90	42508.81
649.05	42574.34
649.20	42656.26
649.34	42845.85
649.49	42171.77
649.63	42438.59
649.78	42440.93
649.92	42160.07
650.07	42789.67
650.21	42632.86
650.36	42569.66
650.51	42281.78
650.65	43000.32
650.80	42337.95
650.94	42719.46
651.09	42543.92
651.23	41897.93
651.38	41708.35
651.52	41427.48
651.67	42171.77
651.81	42021.98
651.96	42190.50
652.10	41483.66
652.25	42024.32
652.39	42438.59
652.54	41986.87
652.68	42106.24
652.83	41806.65
652.97	42227.95
653.12	42021.98
653.26	41907.29
653.41	41947.08
653.55	41916.65
653.70	41722.39
653.84	41993.89
653.99	42143.69
654.13	41450.89
654.27	41539.83
654.42	41691.96
654.56	41251.94
654.71	41844.10
654.85	41413.44
655.00	41666.22
655.14	41617.07
655.29	41830.05
655.43	41670.90
655.57	41631.11
655.72	40900.86
655.86	41148.96
656.01	40765.11
656.15	41392.37
656.30	41347.90
656.44	41109.17
656.58	41371.31
656.73	41301.09
656.87	41041.29
657.01	40975.76
657.16	41200.45
657.30	40964.06
657.45	40746.39
657.59	41354.93
657.73	40605.95
657.88	40318.07
658.02	41275.35
658.16	40910.22
658.31	40964.06
658.45	41130.23
658.60	40573.19
658.74	40947.67
658.88	40952.35
659.03	40465.52
659.17	40627.02
659.31	40252.53
659.46	40282.96
659.60	40746.39
659.74	40205.72
659.89	40137.85
660.03	39709.53
660.17	39955.29
660.32	40297.00
660.46	40009.12
660.60	40060.61
660.74	40076.99
660.89	39950.60
661.03	39768.04
661.17	39711.87
661.32	39550.37
661.46	39833.58
661.60	39704.85
661.74	39714.21
661.89	39498.88
662.03	39807.83
662.17	39594.84
662.31	39634.63
662.46	39531.65
662.60	39491.86
662.74	38724.16
662.88	39089.29
663.03	39264.83
663.17	38988.64
663.31	38644.59
663.45	38742.89
663.60	39379.51
663.74	39077.58
663.88	38806.08
664.02	38747.57
664.17	39236.74
664.31	38712.46
664.45	38651.61
664.59	38637.56
664.73	38953.54
664.88	39100.99
665.02	38036.05
665.16	38440.96
665.30	38656.29
665.44	38583.73
665.59	38333.29
665.73	37993.92
665.87	38101.58
666.01	38068.81
666.15	37862.85
666.29	37509.43
666.44	38539.26
666.58	38185.84
666.72	38054.77
666.86	38225.63
667.00	37881.57
667.14	37619.43
667.28	37904.98
667.43	37366.65
667.57	37794.97
667.71	37425.17
667.85	37469.64
667.99	37439.21
668.13	37268.35
668.27	37038.98
668.41	37507.08
668.56	36706.62
668.70	36870.46
668.84	36573.21
668.98	36620.02
669.12	36928.97
669.26	37057.70
669.40	36608.32
669.54	36858.76
669.68	36788.54
669.82	36210.43
669.96	36224.47
670.10	35896.80
670.25	36378.95
670.39	36540.44
670.53	36369.58
670.67	36271.28
670.81	36739.39
670.95	36411.71
671.09	35924.88
671.23	35690.83
671.37	36294.69
671.51	35597.21
671.65	35786.79
671.79	35306.98
671.93	35772.75
672.07	35950.63
672.21	35744.66
672.35	35690.83
672.49	35175.91
672.63	35290.60
672.77	35070.59
672.91	35360.81
673.05	35063.57
673.19	35180.59
673.33	34785.04
673.47	34909.09
673.61	34424.60
673.75	34588.44
673.89	34412.90
674.03	34443.32
674.17	34352.04
674.31	34335.66
674.45	34141.39
674.59	33954.15
674.73	34256.08
674.87	34015.01
675.01	33790.31
675.15	33860.53
675.29	33495.41
675.43	33472.00
675.56	33495.41
675.70	33167.73
675.84	33591.37
675.98	32385.99
676.12	33336.25
676.26	33326.89
676.40	33046.02
676.54	32652.81
676.68	32697.28
676.82	32107.47
676.96	32678.56
677.10	33156.03
677.23	32587.28
677.37	32610.68
677.51	32121.51
677.65	32280.67
677.79	31948.31
677.93	31941.29
678.07	31978.74
678.21	31447.44
678.34	31676.81
678.48	31281.26
678.62	31463.82
678.76	31510.63
678.90	31314.03
679.04	31648.72
679.18	31529.36
679.31	30991.03
679.45	31264.88
679.59	30410.58
679.73	31262.54
679.87	30410.58
680.00	30625.91
680.14	30459.73
680.28	30471.43
680.42	30373.13
680.56	30195.25
680.70	30183.55
680.83	30033.75
680.97	29937.79
681.11	30195.25
681.25	29706.08
681.39	29207.55
681.52	29221.59
681.66	29450.96
681.80	29315.21
681.94	29057.75
682.07	29184.14
682.21	28912.64
682.35	28517.09
682.49	28746.46
682.62	28432.83
682.76	28922.00
682.90	28570.92
683.04	28563.90
683.17	28680.92
683.31	27927.27
683.45	27948.34
683.59	27866.42
683.72	27819.61
683.86	27828.97
684.00	27697.90
684.13	27800.88
684.27	27484.91
684.41	27494.27
684.55	27566.83
684.68	27173.62
684.82	26869.35
684.96	26855.31
685.09	27068.30
685.23	27117.45
685.37	27222.77
685.50	27075.32
685.64	26806.16
685.78	26731.26
685.91	26450.39
686.05	25970.58
686.19	25944.84
686.32	25893.35
686.46	25680.36
686.60	25706.10
686.73	25834.83
686.87	25596.10
687.01	25792.70
687.14	25848.88
687.28	25626.53
687.42	25305.87
687.55	25252.04
687.69	25127.99
687.82	24945.43
687.96	25034.37
688.10	25111.61
688.23	24812.02
688.37	25013.31
688.50	25001.60
688.64	24781.59
688.78	24891.60
688.91	24559.24
689.05	24215.18
689.18	23899.21
689.32	23592.60
689.46	23929.64
689.59	23824.31
689.73	24318.17
689.86	23999.85
690.00	23716.65
690.13	23594.94
690.27	23569.19
690.41	23683.88
690.54	23014.49
690.68	23115.13
690.81	22796.82
690.95	22806.18
691.08	22778.09
691.22	22560.42
691.35	22511.27
691.49	22750.01
691.62	22438.72
691.76	22319.35
691.89	21743.58
692.03	21678.04
692.16	22047.85
692.30	22202.32
692.43	21792.73
692.57	21586.76
692.70	21722.51
692.84	21694.43
692.97	21113.97
693.11	21263.77
693.24	21305.90
693.38	21167.80
693.51	20882.26
693.65	21233.34
693.78	20968.86
693.92	20957.16
694.05	20662.25
694.19	20463.30
694.32	20720.76
694.45	20966.52
694.59	20973.54
694.72	20720.76
694.86	20196.48
694.99	19896.89
695.13	20292.44
695.26	19864.13
695.39	19740.08
695.53	19822.00
695.66	20133.29
695.80	19690.93
695.93	19571.56
696.07	19524.75
696.20	19227.50
696.33	19007.49
696.47	18813.23
696.60	19019.19
696.73	19367.93
696.87	18785.14
697.00	19150.26
697.14	18834.29
697.27	18415.34
697.40	18965.36
697.54	18738.33
697.67	18200.01
697.80	18602.58
697.94	18286.61
698.07	17968.29
698.21	18459.81
698.34	18082.98
698.47	17923.82
698.61	17476.78
698.74	17806.80
698.87	17565.72
699.01	17429.97
699.14	17713.17
699.27	17504.87
699.40	17486.14
699.54	17219.32
699.67	17294.22
699.80	17172.51
699.94	17106.98
700.07	16947.82
700.20	16762.92
700.34	16744.19
700.47	16772.28
700.60	16992.29
700.73	16891.65
700.87	16652.91
701.00	16442.26
701.13	16266.72
701.26	16280.77
701.40	16308.85
701.53	15866.49
701.66	16308.85
701.79	16215.23
701.93	15751.81
702.06	15580.95
702.19	15662.86
702.32	15803.30
702.46	15623.08
702.59	15768.19
702.72	15569.24
702.85	15660.52
702.99	15346.89
703.12	15541.16
703.25	15337.53
703.38	15096.46
703.51	14991.13
703.65	14949.00
703.78	14813.25
703.91	14462.17
704.04	14726.65
704.17	14417.70
704.31	14303.01
704.44	14394.29
704.57	14286.63
704.70	14553.45
704.83	14286.63
704.96	14413.02
705.10	14104.07
705.23	14185.99
>>>>>End Processed Spectral Data<<<<<
