SpectraSuite Data File
++++++++++++++++++++++++++++++++++++
Date: Fri Oct 25 10:48:14 EDT 2013
User: price-jones
Dark Spectrum Present: No
Reference Spectrum Present: No
Number of Sampled Component Spectra: 1
Spectrometers: USB2+H05261
Integration Time (usec): 100000 (USB2+H05261)
Spectra Averaged: 1 (USB2+H05261)
Boxcar Smoothing: 0 (USB2+H05261)
Correct for Electrical Dark: No (USB2+H05261)
Strobe/Lamp Enabled: No (USB2+H05261)
Correct for Detector Non-linearity: No (USB2+H05261)
Correct for Stray Light: No (USB2+H05261)
Number of Pixels in Processed Spectrum: 2048
>>>>>Begin Processed Spectral Data<<<<<
365.73	56.17
365.92	56.17
366.12	56.17
366.32	88.94
366.52	46.81
366.72	53.83
366.91	0.00
367.11	23.41
367.31	37.45
367.51	95.96
367.70	28.09
367.90	0.00
368.10	7.02
368.30	105.32
368.49	2.34
368.69	86.60
368.89	60.85
369.09	65.54
369.28	98.30
369.48	0.00
369.68	95.96
369.87	107.66
370.07	93.62
370.27	156.82
370.47	205.97
370.66	360.44
370.86	414.27
371.06	540.66
371.25	496.19
371.45	388.53
371.65	442.36
371.84	421.30
372.04	472.79
372.24	514.92
372.44	486.83
372.63	578.11
372.83	566.41
373.03	557.05
373.22	493.85
373.42	535.98
373.62	428.32
373.81	505.56
374.01	610.88
374.21	624.92
374.40	578.11
374.60	561.73
374.79	629.60
374.99	578.11
375.19	566.41
375.38	554.71
375.58	603.86
375.78	496.19
375.97	573.43
376.17	657.69
376.37	653.01
376.56	608.54
376.76	573.43
376.95	585.13
377.15	636.63
377.35	617.90
377.54	608.54
377.74	538.32
377.93	596.84
378.13	655.35
378.33	622.58
378.52	645.99
378.72	627.26
378.91	636.63
379.11	587.47
379.31	610.88
379.50	657.69
379.70	662.37
379.89	716.20
380.09	662.37
380.28	683.44
380.48	737.27
380.68	723.23
380.87	606.20
381.07	699.82
381.26	723.23
381.46	617.90
381.65	657.69
381.85	643.65
382.04	690.46
382.24	723.23
382.43	695.14
382.63	746.63
382.83	706.84
383.02	723.23
383.22	711.52
383.41	758.33
383.61	732.59
383.80	730.25
384.00	727.91
384.19	737.27
384.39	725.57
384.58	716.20
384.78	765.36
384.97	760.67
385.17	727.91
385.36	725.57
385.56	814.51
385.75	730.25
385.95	814.51
386.14	744.29
386.34	812.17
386.53	835.57
386.72	812.17
386.92	870.68
387.11	908.13
387.31	826.21
387.50	833.23
387.70	844.93
387.89	884.72
388.09	837.91
388.28	938.55
388.48	791.10
388.67	828.55
388.86	873.02
389.06	880.04
389.25	1008.77
389.45	957.28
389.64	938.55
389.84	922.17
390.03	915.15
390.22	950.26
390.42	933.87
390.61	889.40
390.81	1001.75
391.00	1027.50
391.19	990.05
391.39	936.21
391.58	1074.31
391.78	976.00
391.97	1060.26
392.16	905.79
392.36	1001.75
392.55	924.51
392.75	1013.45
392.94	903.45
393.13	898.77
393.33	997.07
393.52	987.71
393.71	1041.54
393.91	1046.22
394.10	987.71
394.29	1008.77
394.49	1015.79
394.68	1130.48
394.88	1174.95
395.07	1151.54
395.26	1130.48
395.46	1118.78
395.65	1186.65
395.84	1188.99
396.04	1247.51
396.23	1027.50
396.42	1071.97
396.62	1104.73
396.81	1249.85
397.00	1167.93
397.19	1214.74
397.39	1266.23
397.58	1181.97
397.77	1313.04
397.97	1294.32
398.16	1329.42
398.35	1366.87
398.55	1348.15
398.74	1343.47
398.93	1364.53
399.12	1376.24
399.32	1448.79
399.51	1336.45
399.70	1376.24
399.90	1390.28
400.09	1469.86
400.28	1432.41
400.47	1409.00
400.67	1451.13
400.86	1425.39
401.05	1439.43
401.24	1554.12
401.44	1600.93
401.63	1500.28
401.82	1556.46
402.01	1523.69
402.21	1523.69
402.40	1621.99
402.59	1495.60
402.78	1551.78
402.97	1519.01
403.17	1591.56
403.36	1603.27
403.55	1661.78
403.74	1774.13
403.93	1696.89
404.13	1734.34
404.32	1746.04
404.51	1703.91
404.70	1701.57
404.89	1727.32
405.09	1696.89
405.28	1617.31
405.47	1785.83
405.66	1839.66
405.85	1640.72
406.05	1708.59
406.24	1865.41
406.43	1879.45
406.62	1886.47
406.81	1989.46
407.00	1895.83
407.20	1900.52
407.39	1891.15
407.58	1973.07
407.77	1959.03
407.96	2015.20
408.15	2085.42
408.34	2022.22
408.54	2069.03
408.73	2120.53
408.92	2094.78
409.11	2141.59
409.30	2026.90
409.49	2045.63
409.68	2001.16
409.87	2169.68
410.07	2073.71
410.26	2209.47
410.45	2155.63
410.64	2279.68
410.83	2237.55
411.02	2225.85
411.21	2345.22
411.40	2389.69
411.59	2427.14
411.78	2356.92
411.98	2312.45
412.17	2387.35
412.36	2347.56
412.55	2499.69
412.74	2431.82
412.93	2434.16
413.12	2441.18
413.31	2621.40
413.50	2588.63
413.69	2647.15
413.88	2623.74
414.07	2663.53
414.26	2593.31
414.45	2663.53
414.64	2693.96
414.83	2761.83
415.02	2677.57
415.22	2850.77
415.41	2841.41
415.60	2860.13
415.79	2965.46
415.98	2930.35
416.17	2967.80
416.36	3007.59
416.55	2923.33
416.74	3045.04
416.93	2993.55
417.12	3112.91
417.31	3098.87
417.50	3030.99
417.69	3187.81
417.88	3234.62
418.07	3157.38
418.26	3054.40
418.45	3091.85
418.64	3251.00
418.83	3243.98
419.02	3251.00
419.21	3225.26
419.39	3218.24
419.58	3166.74
419.77	3283.77
419.96	3272.07
420.15	3386.76
420.34	3382.07
420.53	3267.39
420.72	3595.06
420.91	3417.18
421.10	3382.07
421.29	3473.36
421.48	3520.17
421.67	3571.66
421.86	3531.87
422.05	3566.98
422.24	3471.01
422.43	3599.74
422.61	3569.32
422.80	3522.51
422.99	3616.13
423.18	3719.11
423.37	3644.21
423.56	3641.87
423.75	3672.30
423.94	3515.48
424.13	3316.54
424.32	3499.10
424.50	3515.48
424.69	3655.92
424.88	3714.43
425.07	3503.78
425.26	3669.96
425.45	3602.08
425.64	3459.31
425.83	3637.19
426.01	3756.56
426.20	3688.68
426.39	3749.54
426.58	3520.17
426.77	3688.68
426.96	3726.13
427.15	3751.88
427.33	3695.71
427.52	3833.80
427.71	3698.05
427.90	3845.50
428.09	3854.86
428.28	3822.09
428.46	3794.01
428.65	3777.62
428.84	3859.54
429.03	3948.48
429.22	3784.65
429.40	3810.39
429.59	3805.71
429.78	3763.58
429.97	3672.30
430.16	3805.71
430.34	3861.88
430.53	3997.64
430.72	3990.61
430.91	4051.47
431.10	3978.91
431.28	4007.00
431.47	4126.36
431.66	4243.39
431.85	4278.50
432.03	4290.20
432.22	4245.73
432.41	4290.20
432.60	4271.48
432.79	4280.84
432.97	4325.31
433.16	4273.82
433.35	4234.03
433.54	4374.46
433.72	4360.42
433.91	4353.40
434.10	4283.18
434.28	4475.10
434.47	4435.32
434.66	4564.04
434.85	4608.51
435.03	4496.17
435.22	4493.83
435.41	4737.24
435.59	4482.13
435.78	4582.77
435.97	4475.10
436.16	4615.54
436.34	4849.59
436.53	4751.29
436.72	4823.84
436.90	4641.28
437.09	4830.87
437.28	4645.96
437.46	4847.25
437.65	4770.01
437.84	4767.67
438.02	4772.35
438.21	4695.11
438.40	4809.80
438.58	4765.33
438.77	5020.45
438.96	4905.76
439.14	5153.86
439.33	5151.52
439.52	5125.77
439.70	5228.76
439.89	5172.58
440.08	5355.15
440.26	5275.57
440.45	5121.09
440.63	5320.04
440.82	5453.45
441.01	5397.28
441.19	5495.58
441.38	5523.66
441.57	5518.98
441.75	5673.46
441.94	5872.40
442.12	5771.76
442.31	5834.96
442.50	6026.88
442.68	5743.67
442.87	5856.02
443.05	5844.32
443.24	5926.24
443.43	5874.74
443.61	5980.07
443.80	5942.62
443.98	5849.00
444.17	5823.25
444.35	5987.09
444.54	6024.54
444.73	5959.00
444.91	6010.50
445.10	5949.64
445.28	5837.30
445.47	5989.43
445.65	5987.09
445.84	6040.92
446.02	6078.37
446.21	6022.20
446.39	6061.99
446.58	6279.66
446.77	6115.82
446.95	5968.37
447.14	6157.95
447.32	6190.72
447.51	5973.05
447.69	6174.33
447.88	6073.69
448.06	6143.91
448.25	6120.50
448.43	6218.80
448.62	6125.18
448.80	6146.25
448.99	6312.42
449.17	6251.57
449.36	6314.77
449.54	6476.26
449.73	6387.32
449.91	6363.92
450.10	6408.39
450.28	6537.12
450.46	6679.89
450.65	6455.20
450.83	6663.51
451.02	6565.20
451.20	6693.93
451.39	6574.56
451.57	6392.00
451.76	6612.01
451.94	6548.82
452.13	6623.72
452.31	6705.63
452.49	6576.91
452.68	6544.14
452.86	6705.63
453.05	6794.58
453.23	6843.73
453.42	6705.63
453.60	6649.46
453.78	6745.42
453.97	6766.49
454.15	6855.43
454.34	6729.04
454.52	6998.20
454.70	6890.54
454.89	6939.69
455.07	6864.79
455.26	6967.77
455.44	7159.70
455.62	6897.56
455.81	7124.59
455.99	7206.51
456.17	7037.99
456.36	7145.66
456.54	7236.94
456.73	7260.34
456.91	7365.67
457.09	7599.72
457.28	7578.65
457.46	7393.75
457.64	7405.46
457.83	7466.31
458.01	7227.57
458.19	7499.08
458.38	7496.74
458.56	7609.08
458.74	7421.84
458.93	7604.40
459.11	7669.94
459.29	7557.59
459.48	7597.38
459.66	7693.34
459.84	7845.48
460.03	7955.48
460.21	7763.56
460.39	7836.11
460.57	7817.39
460.76	7843.14
460.94	7875.90
461.12	7793.98
461.31	7929.74
461.49	8067.83
461.67	7880.58
461.85	8093.57
462.04	7903.99
462.22	8404.86
462.40	8212.94
462.59	8065.49
462.77	8135.70
462.95	8287.84
463.13	8212.94
463.32	8273.79
463.50	8248.05
463.68	8116.98
463.86	8327.63
464.05	8147.40
464.23	8215.28
464.41	8484.44
464.59	8381.46
464.78	8587.43
464.96	8454.02
465.14	8203.58
465.32	8322.94
465.50	8507.85
465.69	8627.21
465.87	8503.17
466.05	8482.10
466.23	8388.48
466.41	8451.67
466.60	8748.92
466.78	8472.74
466.96	8594.45
467.14	8418.91
467.32	8753.60
467.51	8830.84
467.69	8446.99
467.87	8835.52
468.05	8819.14
468.23	8727.86
468.41	8678.71
468.60	8891.70
468.78	8823.82
468.96	8748.92
469.14	8954.89
469.32	9081.28
469.50	8891.70
469.69	9022.77
469.87	9020.42
470.05	9193.62
470.23	9078.94
470.41	9191.28
470.59	8917.44
470.77	9114.05
470.95	9200.65
471.14	9476.83
471.32	9357.46
471.50	9544.70
471.68	9514.28
471.86	9469.81
472.04	9724.93
472.22	9771.74
472.40	9380.87
472.58	9530.66
472.77	9495.55
472.95	9713.22
473.13	9989.41
473.31	9774.08
473.49	9816.21
473.67	9837.27
473.85	9907.49
474.03	10068.98
474.21	10127.50
474.39	10150.90
474.57	10005.79
474.75	10317.08
474.93	10274.95
475.12	10169.63
475.30	10314.74
475.48	10354.53
475.66	10410.70
475.84	10506.66
476.02	10501.98
476.20	10693.91
476.38	10911.58
476.56	10916.26
476.74	10867.11
476.92	10963.07
477.10	10855.40
477.28	11028.60
477.46	11129.25
477.64	11281.38
477.82	11473.31
478.00	11613.74
478.18	11517.78
478.36	11662.89
478.54	11716.72
478.72	11770.55
478.90	11796.30
479.08	12006.95
479.26	12205.89
479.44	12383.77
479.62	12365.05
479.80	12140.36
479.98	12386.12
480.16	12535.91
480.34	12564.00
480.52	12851.88
480.70	12781.67
480.88	12594.42
481.06	12992.31
481.24	13062.53
481.41	12966.57
481.59	13612.56
481.77	13287.22
481.95	13289.56
482.13	13509.57
482.31	13427.65
482.49	13820.86
482.67	13668.73
482.85	13846.61
483.03	14281.95
483.21	14183.65
483.39	14134.50
483.57	14403.66
483.74	14469.19
483.92	14375.57
484.10	14340.46
484.28	14693.88
484.46	14785.16
484.64	15330.51
484.82	14848.36
485.00	15133.90
485.18	15363.28
485.35	15412.43
485.53	15222.84
485.71	15459.24
485.89	15377.32
486.07	15644.14
486.25	15630.10
486.43	15981.18
486.61	16142.67
486.78	16182.46
486.96	16301.83
487.14	16655.25
487.32	16404.81
487.50	16507.80
487.68	16673.98
487.85	17219.32
488.03	17334.01
488.21	17460.40
488.39	17626.57
488.57	17439.33
488.75	17348.05
488.92	17912.12
489.10	18195.32
489.28	17734.24
489.46	18078.30
489.64	18246.82
489.81	18778.12
489.99	18349.80
490.17	18672.79
490.35	18998.13
490.53	19138.56
490.70	19063.66
490.88	19080.05
491.06	19321.12
491.24	19318.78
491.41	19463.90
491.59	19335.17
491.77	19676.88
491.95	20077.12
492.13	20056.05
492.30	20187.12
492.48	20409.47
492.66	20397.77
492.84	20350.96
493.01	20587.35
493.19	20479.69
493.37	21013.33
493.54	20833.11
493.72	21137.38
493.90	21022.69
494.08	21458.03
494.25	21792.73
494.43	21504.84
494.61	21879.33
494.79	21998.70
494.96	21584.42
495.14	22267.86
495.32	22312.33
495.49	22192.96
495.67	22244.45
495.85	22579.15
496.02	22616.60
496.20	22785.12
496.38	22522.98
496.55	23154.92
496.73	23393.65
496.91	22939.59
497.09	23056.62
497.26	23396.00
497.44	23791.55
497.62	23353.87
497.79	23885.17
497.97	23295.35
498.14	23714.31
498.32	23840.70
498.50	23880.49
498.67	24592.01
498.85	24856.49
499.03	24622.44
499.20	24547.54
499.38	24615.41
499.56	24727.76
499.73	24809.68
499.91	24891.60
500.08	24999.26
500.26	24739.46
500.44	25074.16
500.61	25104.59
500.79	25223.95
500.97	25357.36
501.14	25570.35
501.32	25446.30
501.49	25603.12
501.67	25610.14
501.84	25855.90
502.02	25795.04
502.20	26059.52
502.37	26113.36
502.55	26422.31
502.72	26228.04
502.90	26312.30
503.07	26237.41
503.25	26532.31
503.43	26331.03
503.60	27033.19
503.78	26815.52
503.95	26544.02
504.13	26656.36
504.30	26810.84
504.48	26993.40
504.65	27229.79
504.83	27173.62
505.01	27384.27
505.18	27608.96
505.36	28046.64
505.53	27517.68
505.71	27864.08
505.88	27484.91
506.06	27728.33
506.23	27934.29
506.41	27878.12
506.58	27702.58
506.76	28346.23
506.93	28538.15
507.11	28582.62
507.28	28217.50
507.46	28130.90
507.63	28676.24
507.81	28568.58
507.98	28411.76
508.16	28929.02
508.33	28819.02
508.50	28865.83
508.68	28886.89
508.85	29237.97
509.03	28959.45
509.20	29284.78
509.38	29504.79
509.55	29900.34
509.73	29387.77
509.90	29399.47
510.08	29832.47
510.25	29696.72
510.42	29652.25
510.60	29989.28
510.77	30099.29
510.95	30115.67
511.12	30064.18
511.30	29886.30
511.47	30979.33
511.64	30258.45
511.82	30614.21
511.99	30518.25
512.17	30754.64
512.34	30668.04
512.51	30841.24
512.69	31115.08
512.86	31068.27
513.04	30569.74
513.21	30841.24
513.38	30941.88
513.56	31124.44
513.73	30885.71
513.90	31271.90
514.08	31094.02
514.25	31655.75
514.43	31531.70
514.60	31473.18
514.77	31842.99
514.95	31985.76
515.12	32306.41
515.29	31669.79
515.47	31985.76
515.64	32025.55
515.81	32053.64
515.99	31894.48
516.16	31871.07
516.33	31915.54
516.51	32341.52
516.68	31941.29
516.85	32016.19
517.03	32327.48
517.20	32285.35
517.37	32488.98
517.54	32772.18
517.72	32774.52
517.89	32699.62
518.06	32701.96
518.24	32818.99
518.41	32615.37
518.58	32673.88
518.75	33046.02
518.93	33455.62
519.10	33106.88
519.27	33483.70
519.45	33132.62
519.62	33216.88
519.79	33720.10
519.96	33996.28
520.14	33865.21
520.31	34061.82
520.48	33750.52
520.65	33380.72
520.83	34038.41
521.00	34003.30
521.17	34003.30
521.34	34096.92
521.52	34227.99
521.69	34658.65
521.86	34492.47
522.03	34700.78
522.20	34602.48
522.38	34904.41
522.55	34866.96
522.72	34976.97
522.89	35117.40
523.07	35098.67
523.24	34909.09
523.41	35108.04
523.58	35232.08
523.75	35384.22
523.92	35063.57
524.10	35459.12
524.27	35629.98
524.44	35676.79
524.61	35999.78
524.78	35686.15
524.96	35683.81
525.13	36030.21
525.30	35854.67
525.47	36360.22
525.64	35983.40
525.81	35669.76
525.98	36208.09
526.16	36163.62
526.33	35849.99
526.50	36130.85
526.67	35922.54
526.84	36177.66
527.01	35859.35
527.18	36041.91
527.36	36240.86
527.53	36315.75
527.70	36671.51
527.87	36638.75
528.04	36727.69
528.21	36804.92
528.38	36652.79
528.55	37041.32
528.72	37141.96
528.89	36687.90
529.07	37317.50
529.24	36807.26
529.41	37120.90
529.58	36725.35
529.75	36779.18
529.92	37179.41
530.09	37064.72
530.26	37109.19
530.43	37380.70
530.60	37645.18
530.77	37565.60
530.94	37266.01
531.11	38115.62
531.28	37738.80
531.46	37919.02
531.63	37890.93
531.80	37422.83
531.97	37886.25
532.14	38120.31
532.31	37694.33
532.48	38139.03
532.65	38197.54
532.82	38227.97
532.99	38087.54
533.16	37855.82
533.33	38181.16
533.50	38490.11
533.67	38588.41
533.84	38225.63
534.01	38080.52
534.18	39014.39
534.35	38527.56
534.52	38464.36
534.69	38930.13
534.86	38892.68
535.03	38644.59
535.20	39044.82
535.37	39124.40
535.54	39271.85
535.71	38876.30
535.88	39086.95
536.05	38817.78
536.22	39302.28
536.38	39236.74
536.55	39281.21
536.72	39150.14
536.89	39330.36
537.06	39098.65
537.23	39571.44
537.40	39318.66
537.57	39313.98
537.74	39290.57
537.91	39533.99
538.08	39496.54
538.25	39178.23
538.42	39175.89
538.59	39636.97
538.75	39407.60
538.92	39606.55
539.09	39583.14
539.26	40135.51
539.43	39660.38
539.60	40034.86
539.77	39456.75
539.94	39810.17
540.11	39601.86
540.28	39964.65
540.44	40041.88
540.61	39974.01
540.78	40016.14
540.95	40084.01
541.12	40128.48
541.29	40044.23
541.46	39908.47
541.62	40261.90
541.79	40191.68
541.96	39927.20
542.13	40023.16
542.30	40552.12
542.47	40392.97
542.63	40549.78
542.80	40973.42
542.97	40889.16
543.14	41284.71
543.31	40954.69
543.48	41127.89
543.64	41661.54
543.81	41413.44
543.98	40847.03
544.15	40914.90
544.32	41078.74
544.48	41497.70
544.65	41134.92
544.82	41193.43
544.99	40999.16
545.16	41361.95
545.32	41493.02
545.49	41397.06
545.66	41106.83
545.83	41579.62
546.00	41394.71
546.16	41481.31
546.33	40914.90
546.50	40858.73
546.67	41413.44
546.83	41186.41
547.00	41778.56
547.17	41457.91
547.34	41378.33
547.50	41811.33
547.67	41600.68
547.84	41879.21
548.00	42220.92
548.17	42394.12
548.34	41975.17
548.51	41703.67
548.67	42026.66
548.84	42129.64
549.01	42529.87
549.18	42080.49
549.34	41918.99
549.51	42085.17
549.68	42478.38
549.84	42684.35
550.01	42604.77
550.18	42319.23
550.34	42204.54
550.51	42930.11
550.68	42124.96
550.84	42550.94
551.01	42784.99
551.18	42576.69
551.34	42391.78
551.51	42646.90
551.68	43016.71
551.84	42747.54
552.01	42412.85
552.18	43037.77
552.34	42342.63
552.51	42920.74
552.68	42960.53
552.84	43037.77
553.01	42995.64
553.18	43175.86
553.34	42890.32
553.51	43056.50
553.67	42852.87
553.84	43342.04
554.01	42986.28
554.17	43360.76
554.34	43683.76
554.51	43086.92
554.67	43512.90
554.84	43522.26
555.00	43005.00
555.17	43070.54
555.33	43030.75
555.50	43082.24
555.67	43473.11
555.83	43154.80
556.00	43524.60
556.16	43917.81
556.33	43365.45
556.50	43213.31
556.66	43936.54
556.83	43665.03
556.99	43945.90
557.16	44039.52
557.32	43512.90
557.49	43791.42
557.65	43035.43
557.82	43611.20
557.98	43763.34
558.15	43952.92
558.32	43320.98
558.48	43246.08
558.65	43599.50
558.81	43992.71
558.98	44053.56
559.14	43981.01
559.31	43796.10
559.47	44055.90
559.64	44493.58
559.80	44037.18
559.97	43999.73
560.13	43833.55
560.30	43931.86
560.46	44154.21
560.63	43674.40
560.79	43800.79
560.96	44357.83
561.12	43990.37
561.29	43866.32
561.45	44083.99
561.61	44175.27
561.78	44025.48
561.94	43859.30
562.11	43990.37
562.27	44154.21
562.44	44093.35
562.60	43950.58
562.77	44753.38
562.93	44449.11
563.10	44678.49
563.26	43917.81
563.42	44406.98
563.59	44142.50
563.75	44271.23
563.92	44938.29
564.08	44381.24
564.24	44524.01
564.41	44346.13
564.57	44435.07
564.74	44245.49
564.90	44376.56
565.07	44453.79
565.23	44432.73
565.39	44449.11
565.56	44800.19
565.72	44238.47
565.88	44648.06
566.05	44699.55
566.21	44245.49
566.38	44772.11
566.54	44421.03
566.70	44973.39
566.87	44966.37
567.03	44421.03
567.19	45371.28
567.36	45036.59
567.52	44524.01
567.68	44645.72
567.85	44624.65
568.01	44612.95
568.17	44177.61
568.34	44692.53
568.50	44540.39
568.66	44519.33
568.83	44678.49
568.99	44362.51
569.15	44729.98
569.32	44769.77
569.48	44598.91
569.64	44940.63
569.81	45160.64
569.97	44685.51
570.13	45041.27
570.30	44320.38
570.46	44641.04
570.62	44591.89
570.78	44425.71
570.95	44502.95
571.11	45146.59
571.27	44683.17
571.43	45020.20
571.60	44809.56
571.76	44638.70
571.92	44701.89
572.09	44671.46
572.25	45200.43
572.41	44545.08
572.57	45008.50
572.74	45219.15
572.90	45174.68
573.06	45572.57
573.22	45113.83
573.38	45055.31
573.55	44561.46
573.71	45212.13
573.87	44921.90
574.03	44498.26
574.20	45071.70
574.36	44626.99
574.52	45263.62
574.68	44809.56
574.84	45305.75
575.01	44861.05
575.17	45195.74
575.33	44399.96
575.49	44884.45
575.65	45305.75
575.82	45624.06
575.98	44898.50
576.14	45233.19
576.30	44690.19
576.46	44938.29
576.62	44952.33
576.79	44673.81
576.95	44858.71
577.11	44615.29
577.27	45233.19
577.43	44828.28
577.59	44395.28
577.75	44715.93
577.92	44744.02
578.08	44505.29
578.24	44755.72
578.40	44875.09
578.56	44680.83
578.72	44540.39
578.88	44942.97
579.04	45184.04
579.21	44989.78
579.37	45106.80
579.53	45275.32
579.69	44540.39
579.85	44559.12
580.01	44847.00
580.17	45221.49
580.33	45455.54
580.49	45420.44
580.65	45214.47
580.82	45256.60
580.98	45029.57
581.14	44713.59
581.30	45284.68
581.46	45017.86
581.62	45567.89
581.78	44954.67
581.94	45729.39
582.10	45006.16
582.26	45326.81
582.42	45277.66
582.58	44865.73
582.74	44980.42
582.90	45184.04
583.06	45368.94
583.22	45633.42
583.38	45287.03
583.54	45294.05
583.70	45134.89
583.86	44973.39
584.02	44772.11
584.18	45198.09
584.34	44788.49
584.50	45631.08
584.66	44938.29
584.82	45165.32
584.98	45132.55
585.14	45249.58
585.30	45254.26
585.46	45242.56
585.62	44905.52
585.78	45041.27
585.94	44634.02
586.10	45226.17
586.26	44842.32
586.42	45565.55
586.58	45483.63
586.74	45387.67
586.90	45265.96
587.06	44776.79
587.22	45095.10
587.38	45116.17
587.54	45469.59
587.70	45272.98
587.86	45324.47
588.02	45549.17
588.18	45333.84
588.34	45125.53
588.49	44959.35
588.65	44753.38
588.81	44739.34
588.97	45043.61
589.13	45045.95
589.29	44863.39
589.45	45181.70
589.61	45364.26
589.77	45464.91
589.93	45240.21
590.08	45488.31
590.24	45261.28
590.40	45628.74
590.56	45350.22
590.72	45179.36
590.88	45141.91
591.04	45198.09
591.20	45523.42
591.35	45228.51
591.51	46099.19
591.67	45635.77
591.83	45642.79
591.99	45202.77
592.15	45457.88
592.31	45212.13
592.46	45530.44
592.62	45282.34
592.78	45778.54
592.94	45682.58
593.10	45312.77
593.26	45404.05
593.41	45352.56
593.57	45610.02
593.73	45483.63
593.89	45345.54
594.05	45186.38
594.20	45521.08
594.36	45900.25
594.52	45249.58
594.68	45764.49
594.84	45338.52
594.99	45682.58
595.15	45022.54
595.31	45537.46
595.47	45347.88
595.62	45595.98
595.78	45375.97
595.94	45979.82
596.10	45790.24
596.25	45549.17
596.41	46288.77
596.57	45453.20
596.73	45865.14
596.88	45495.33
597.04	45357.24
597.20	45879.18
597.36	45869.82
597.51	45996.21
597.67	45504.70
597.83	45624.06
597.99	45935.35
598.14	45397.03
598.30	45652.15
598.46	45401.71
598.61	45457.88
598.77	44931.26
598.93	45413.41
599.09	45588.95
599.24	45794.92
599.40	45897.91
599.56	45769.18
599.71	45642.79
599.87	45598.32
600.03	45406.39
600.18	45525.76
600.34	45535.12
600.50	45713.00
600.65	45500.01
600.81	45392.35
600.97	45734.07
601.12	46078.13
601.28	45572.57
601.44	45507.04
601.59	45560.87
601.75	45287.03
601.91	45949.40
602.06	45710.66
602.22	45455.54
602.37	45301.07
602.53	45670.87
602.69	45844.07
602.84	45813.65
603.00	45785.56
603.16	45415.76
603.31	45413.41
603.47	45441.50
603.62	45691.94
603.78	45579.59
603.94	45684.92
604.09	45551.51
604.25	45605.34
604.40	45563.21
604.56	45177.02
604.71	45673.21
604.87	45701.30
605.03	45134.89
605.18	45301.07
605.34	45603.00
605.49	45308.09
605.65	45652.15
605.80	45635.77
605.96	45649.81
606.12	45722.37
606.27	45626.40
606.43	45230.85
606.58	45237.87
606.74	45591.30
606.89	45310.43
607.05	45542.14
607.20	45708.32
607.36	45326.81
607.51	45305.75
607.67	45647.47
607.82	45535.12
607.98	45469.59
608.13	45158.30
608.29	45184.04
608.44	45064.67
608.60	44570.82
608.75	44701.89
608.91	44898.50
609.06	45083.40
609.22	45752.79
609.37	44519.33
609.53	44825.94
609.68	45254.26
609.84	45137.23
609.99	45392.35
610.15	44765.09
610.30	44994.46
610.46	44786.15
610.61	44889.13
610.76	44940.63
610.92	45202.77
611.07	45055.31
611.23	45064.67
611.38	44938.29
611.54	44849.35
611.69	44903.18
611.84	44800.19
612.00	44634.02
612.15	44531.03
612.31	45006.16
612.46	45106.80
612.62	45329.16
612.77	44893.82
612.92	45411.07
613.08	44678.49
613.23	44811.90
613.39	44884.45
613.54	44882.11
613.69	44776.79
613.85	44713.59
614.00	44634.02
614.15	44641.04
614.31	44786.15
614.46	44343.79
614.62	44781.47
614.77	44542.74
614.92	44704.23
615.08	44039.52
615.23	44395.28
615.38	44320.38
615.54	43985.69
615.69	44011.43
615.84	44458.48
616.00	44360.17
616.15	43966.96
616.30	44397.62
616.46	43922.49
616.61	43976.33
616.76	44210.38
616.92	44236.12
617.07	43793.76
617.22	43950.58
617.37	44025.48
617.53	44294.64
617.68	44467.84
617.83	44105.06
617.99	44039.52
618.14	44428.05
618.29	44135.48
618.45	43931.86
618.60	43784.40
618.75	44032.50
618.90	44011.43
619.06	43828.87
619.21	44105.06
619.36	44194.00
619.51	43983.35
619.67	43751.63
619.82	43817.17
619.97	43494.18
620.12	43508.22
620.28	43435.66
620.43	43620.56
620.58	43625.25
620.73	43346.72
620.89	43873.34
621.04	43784.40
621.19	43625.25
621.34	43402.89
621.49	43526.94
621.65	43447.36
621.80	43950.58
621.95	43367.79
622.10	43419.28
622.25	43295.23
622.41	43192.25
622.56	43349.06
622.71	43459.07
622.86	42976.92
623.01	43845.26
623.16	43512.90
623.32	43379.49
623.47	43868.66
623.62	43150.12
623.77	43278.85
623.92	43363.11
624.07	42995.64
624.23	42717.12
624.38	42815.42
624.53	42586.05
624.68	43349.06
624.83	43206.29
624.98	43262.46
625.13	42539.24
625.29	43461.41
625.44	42960.53
625.59	42782.65
625.74	42515.83
625.89	42815.42
626.04	42176.45
626.19	43115.01
626.34	42754.57
626.49	42349.65
626.65	42674.99
626.80	42677.33
626.95	42323.91
627.10	42766.27
627.25	42092.19
627.40	42075.81
627.55	41937.72
627.70	42078.15
627.85	42040.70
628.00	42031.34
628.15	42710.10
628.30	42700.73
628.45	42340.29
628.60	41895.59
628.76	42401.14
628.91	42649.24
629.06	42054.75
629.21	41628.77
629.36	42085.17
629.51	41539.83
629.66	42036.02
629.81	41968.15
629.96	41989.21
630.11	42024.32
630.26	42195.18
630.41	42113.26
630.56	41949.42
630.71	41933.04
630.86	41858.14
631.01	41848.78
631.16	41766.86
631.31	41502.38
631.46	41177.04
631.61	41701.32
631.76	41486.00
631.91	41584.30
632.06	41886.23
632.21	41851.12
632.36	41991.55
632.51	41450.89
632.66	41954.10
632.81	41242.58
632.96	41233.22
633.10	41476.63
633.25	41509.40
633.40	41656.85
633.55	41397.06
633.70	41567.91
633.85	41242.58
634.00	41474.29
634.15	40919.59
634.30	41221.52
634.45	41352.58
634.60	41031.93
634.75	41558.55
634.90	41631.11
635.05	40818.94
635.19	41125.55
635.34	41085.76
635.49	41446.21
635.64	41034.27
635.79	41406.42
635.94	41462.59
636.09	40811.92
636.24	40912.56
636.39	40800.22
636.53	40912.56
636.68	40666.81
636.83	40114.44
636.98	40769.79
637.13	40580.21
637.28	41006.19
637.43	40844.69
637.57	41141.94
637.72	40701.92
637.87	40760.43
638.02	40664.47
638.17	40730.00
638.32	40397.65
638.46	40374.24
638.61	40807.24
638.76	40720.64
638.91	40594.25
639.06	40699.58
639.20	40521.69
639.35	40650.42
639.50	40549.78
639.65	40479.57
639.80	40854.05
639.94	40582.55
640.09	40187.00
640.24	40170.61
640.39	40072.31
640.54	40212.74
640.68	40238.49
640.83	40421.05
640.98	39784.43
641.13	39964.65
641.27	40779.15
641.42	39910.82
641.57	40102.74
641.72	39873.37
641.86	39672.08
642.01	39948.26
642.16	39894.43
642.31	39587.82
642.45	39646.33
642.60	39590.16
642.75	39384.19
642.90	39763.36
643.04	39768.04
643.19	39700.17
643.34	39768.04
643.48	39772.72
643.63	39459.09
643.78	39842.94
643.93	39496.54
644.07	39892.09
644.22	39276.53
644.37	39035.45
644.51	39695.49
644.66	39021.41
644.81	39306.96
644.95	39812.51
645.10	39629.95
645.25	39545.69
645.39	39328.02
645.54	39086.95
645.69	38941.83
645.83	39009.71
645.98	39826.56
646.13	39234.40
646.27	39402.92
646.42	39222.70
646.57	39255.46
646.71	39108.01
646.86	38834.17
647.00	38927.79
647.15	38955.88
647.30	39407.60
647.44	39040.14
647.59	39012.05
647.74	39225.04
647.88	38700.76
648.03	38569.69
648.17	38586.07
648.32	38492.45
648.47	38799.06
648.61	38749.91
648.76	39164.18
648.90	38691.40
649.05	38607.14
649.20	38983.96
649.34	38993.32
649.49	38808.42
649.63	38396.49
649.78	38696.08
649.92	38293.50
650.07	38974.60
650.21	38630.54
650.36	38665.65
650.51	38724.16
650.65	38986.30
650.80	39159.50
650.94	38899.70
651.09	38307.55
651.23	38340.32
651.38	38682.03
651.52	38174.14
651.67	38209.25
651.81	38323.93
651.96	37844.12
652.10	38286.48
652.25	38349.68
652.39	38443.30
652.54	38033.71
652.68	38316.91
652.83	37951.79
652.97	38621.18
653.12	38047.75
653.26	37919.02
653.41	38064.13
653.55	37912.00
653.70	37724.75
653.84	37986.89
653.99	38071.15
654.13	37605.39
654.27	37731.78
654.42	37830.08
654.56	37956.47
654.71	37750.50
654.85	37310.48
655.00	37993.92
655.14	37532.83
655.29	37237.92
655.43	37572.62
655.57	37074.09
655.72	37085.79
655.86	37432.19
656.01	37453.25
656.15	37413.46
656.30	36996.85
656.44	36863.44
656.58	37528.15
656.73	37537.51
656.87	37193.45
657.01	36959.40
657.16	37284.73
657.30	37305.80
657.45	36872.80
657.59	37305.80
657.73	36732.37
657.88	37270.69
658.02	36870.46
658.16	37165.37
658.31	37242.60
658.45	36935.99
658.60	36655.13
658.74	36921.95
658.88	36943.02
659.03	36711.30
659.17	36648.11
659.31	36797.90
659.46	36781.52
659.60	36814.29
659.74	36662.15
659.89	36051.27
660.03	36439.80
660.17	36802.58
660.32	36608.32
660.46	36580.23
660.60	36385.97
660.74	36891.52
660.89	36552.15
661.03	35849.99
661.17	36137.87
661.32	35934.24
661.46	35812.54
661.60	36247.88
661.74	36018.50
661.89	36126.17
662.03	36594.28
662.17	35662.74
662.31	35882.75
662.46	35995.10
662.60	36187.02
662.74	35700.19
662.88	36371.92
663.03	35873.39
663.17	35494.22
663.31	35323.36
663.45	35402.94
663.60	35496.56
663.74	35491.88
663.88	35035.48
664.02	34944.20
664.17	35246.13
664.31	34569.71
664.45	35033.14
664.59	35253.15
664.73	35028.46
664.88	35637.00
665.02	34747.59
665.16	35157.19
665.30	35225.06
665.44	35145.48
665.59	34347.36
665.73	34616.52
665.87	34424.60
666.01	34686.74
666.15	34581.42
666.29	34464.39
666.44	34775.68
666.58	34366.09
666.72	34569.71
666.86	34356.72
667.00	34333.32
667.14	34197.57
667.28	33834.78
667.43	33710.74
667.57	34213.95
667.71	33935.43
667.85	34087.56
667.99	33516.47
668.13	33900.32
668.27	33893.30
668.41	33972.88
668.56	33825.42
668.70	33535.20
668.84	33656.90
668.98	33221.56
669.12	33343.27
669.26	33823.08
669.40	33432.21
669.54	33778.61
669.68	33149.01
669.82	33172.41
669.96	33153.69
670.10	33357.32
670.25	33291.78
670.39	32861.12
670.53	32669.20
670.67	32641.11
670.81	32816.65
670.95	32985.17
671.09	32858.78
671.23	32889.21
671.37	32844.74
671.51	32772.18
671.65	32479.61
671.79	32645.79
671.93	32453.87
672.07	32598.98
672.21	32320.46
672.35	32051.30
672.49	32116.83
672.63	32313.44
672.77	31882.78
672.91	32046.62
673.05	31936.61
673.19	31409.99
673.33	31868.73
673.47	31555.10
673.61	31716.60
673.75	31379.56
673.89	31267.22
674.03	31182.96
674.17	31496.59
674.31	31311.69
674.45	31213.38
674.59	30761.66
674.73	31140.83
674.87	31283.60
675.01	30962.95
675.15	31037.84
675.29	30932.52
675.43	30693.79
675.56	30689.10
675.70	30314.62
675.84	30665.70
675.98	29586.71
676.12	30092.27
676.26	30436.33
676.40	30316.96
676.54	30190.57
676.68	29722.46
676.82	29331.59
676.96	29605.44
677.10	29717.78
677.23	29951.84
677.37	29795.02
677.51	29572.67
677.65	29507.13
677.79	29404.15
677.93	29252.02
678.07	29020.30
678.21	28826.04
678.34	28922.00
678.48	28421.13
678.62	28889.23
678.76	28367.29
678.90	28353.25
679.04	28264.31
679.18	28411.76
679.31	28313.46
679.45	28299.42
679.59	27852.38
679.73	27967.06
679.87	28268.99
680.00	28013.87
680.14	27906.21
680.28	27889.82
680.42	27812.59
680.56	27899.19
680.70	27669.81
680.83	27398.31
680.97	27377.25
681.11	27082.34
681.25	27101.06
681.39	26974.67
681.52	27316.39
681.66	27037.87
681.80	26757.00
681.94	26995.74
682.07	26787.43
682.21	26239.75
682.35	26103.99
682.49	26352.09
682.62	26724.24
682.76	26022.08
682.90	26375.50
683.04	26244.43
683.17	26082.93
683.31	25752.91
683.45	26024.42
683.59	25818.45
683.72	25446.30
683.86	25458.01
684.00	25401.83
684.13	25678.02
684.27	25284.81
684.41	25092.88
684.55	25167.78
684.68	25202.89
684.82	25067.14
684.96	25029.69
685.09	24655.20
685.23	25025.01
685.37	24650.52
685.50	24629.46
685.64	24907.98
685.78	24577.97
685.91	24669.25
686.05	24554.56
686.19	23995.17
686.32	23939.00
686.46	23866.44
686.60	23662.82
686.73	23861.76
686.87	23161.94
687.01	23257.90
687.14	23101.09
687.28	23260.24
687.42	23278.97
687.55	23297.69
687.69	23190.03
687.82	23140.88
687.96	23213.43
688.10	22927.89
688.23	22986.40
688.37	22721.92
688.50	22750.01
688.64	22508.93
688.78	22522.98
688.91	22230.41
689.05	22476.16
689.18	22192.96
689.32	21963.59
689.46	21790.39
689.59	21956.57
689.73	22281.90
689.86	22026.78
690.00	22029.12
690.13	21596.12
690.27	21851.24
690.41	21656.98
690.54	21179.51
690.68	21076.52
690.81	21397.18
690.95	21123.33
691.08	21116.31
691.22	20908.01
691.35	21298.88
691.49	20999.29
691.62	20844.81
691.76	21221.64
691.89	20933.75
692.03	20638.84
692.16	20620.12
692.30	20521.82
692.43	20540.54
692.57	20311.17
692.70	20381.38
692.84	20278.40
692.97	19978.81
693.11	20093.50
693.24	19728.38
693.38	19754.12
693.51	19693.27
693.65	19880.51
693.78	19623.05
693.92	19700.29
694.05	19417.08
694.19	19255.59
694.32	18981.74
694.45	19440.49
694.59	19058.98
694.72	19087.07
694.86	18747.69
694.99	18682.16
695.13	18705.56
695.26	18539.38
695.39	18707.90
695.53	18539.38
695.66	18562.79
695.80	18359.16
695.93	17965.95
696.07	18478.53
696.20	18176.60
696.33	18162.56
696.47	18108.72
696.60	18160.22
696.73	17764.67
696.87	17951.91
697.00	18040.85
697.14	17827.86
697.27	17657.00
697.40	17898.08
697.54	17474.44
697.67	17411.25
697.80	17453.37
697.94	17411.25
698.07	17291.88
698.21	16954.84
698.34	16994.63
698.47	17057.82
698.61	16620.14
698.74	16503.12
698.87	16575.67
699.01	16283.11
699.14	16482.05
699.27	16421.20
699.40	16313.53
699.54	16266.72
699.67	16215.23
699.80	16109.91
699.94	16086.50
700.07	16145.02
700.20	16079.48
700.34	16095.86
700.47	15995.22
700.60	16053.73
700.73	15719.04
700.87	15932.03
701.00	15461.58
701.13	15616.05
701.26	15405.41
701.40	15405.41
701.53	15489.67
701.66	15412.43
701.79	15267.31
701.93	15201.78
702.06	15122.20
702.19	14794.53
702.32	15002.83
702.46	14686.86
702.59	14642.39
702.72	14958.36
702.85	14679.84
702.99	14862.40
703.12	14848.36
703.25	14607.28
703.38	14471.53
703.51	14544.09
703.65	14670.48
703.78	14483.24
703.91	14434.08
704.04	14347.48
704.17	14141.52
704.31	14232.80
704.44	14022.15
704.57	13944.91
704.70	13729.58
704.83	13909.80
704.96	13614.90
705.10	13855.97
705.23	13673.41
>>>>>End Processed Spectral Data<<<<<
