SpectraSuite Data File
++++++++++++++++++++++++++++++++++++
Date: Fri Oct 25 11:34:41 EDT 2013
User: price-jones
Dark Spectrum Present: No
Reference Spectrum Present: No
Number of Sampled Component Spectra: 1
Spectrometers: USB2+H05261
Integration Time (usec): 100000 (USB2+H05261)
Spectra Averaged: 1 (USB2+H05261)
Boxcar Smoothing: 0 (USB2+H05261)
Correct for Electrical Dark: No (USB2+H05261)
Strobe/Lamp Enabled: No (USB2+H05261)
Correct for Detector Non-linearity: No (USB2+H05261)
Correct for Stray Light: No (USB2+H05261)
Number of Pixels in Processed Spectrum: 2048
>>>>>Begin Processed Spectral Data<<<<<
365.73	271.50
365.92	271.50
366.12	271.50
366.32	208.31
366.52	201.29
366.72	236.39
366.91	173.20
367.11	128.73
367.31	121.71
367.51	147.45
367.70	163.84
367.90	191.92
368.10	203.63
368.30	229.37
368.49	227.03
368.69	210.65
368.89	210.65
369.09	166.18
369.28	201.29
369.48	241.08
369.68	205.97
369.87	217.67
370.07	271.50
370.27	248.10
370.47	383.85
370.66	465.77
370.86	475.13
371.06	528.96
371.25	540.66
371.45	557.05
371.65	587.47
371.84	512.58
372.04	521.94
372.24	594.50
372.44	524.28
372.63	514.92
372.83	653.01
373.03	592.16
373.22	603.86
373.42	620.24
373.62	606.20
373.81	631.94
374.01	671.73
374.21	716.20
374.40	573.43
374.60	566.41
374.79	615.56
374.99	634.29
375.19	631.94
375.38	669.39
375.58	596.84
375.78	685.78
375.97	674.07
376.17	730.25
376.37	681.10
376.56	620.24
376.76	648.33
376.95	674.07
377.15	716.20
377.35	669.39
377.54	676.41
377.74	704.50
377.93	688.12
378.13	655.35
378.33	765.36
378.52	704.50
378.72	739.61
378.91	746.63
379.11	655.35
379.31	643.65
379.50	655.35
379.70	758.33
379.89	744.29
380.09	662.37
380.28	734.93
380.48	746.63
380.68	660.03
380.87	650.67
381.07	744.29
381.26	676.41
381.46	763.01
381.65	770.04
381.85	772.38
382.04	725.57
382.24	732.59
382.43	777.06
382.63	763.01
382.83	713.86
383.02	795.78
383.22	880.04
383.41	779.40
383.61	849.61
383.80	791.10
384.00	781.74
384.19	823.87
384.39	730.25
384.58	753.65
384.78	748.97
384.97	779.40
385.17	866.00
385.36	821.53
385.56	858.98
385.75	765.36
385.95	702.16
386.14	737.27
386.34	840.25
386.53	763.01
386.72	842.59
386.92	854.30
387.11	912.81
387.31	861.32
387.50	903.45
387.70	753.65
387.89	887.06
388.09	896.43
388.28	891.74
388.48	821.53
388.67	952.60
388.86	945.58
389.06	833.23
389.25	943.24
389.45	931.53
389.64	908.13
389.84	887.06
390.03	884.72
390.22	980.68
390.42	929.19
390.61	940.90
390.81	940.90
391.00	933.87
391.19	994.73
391.39	978.34
391.58	1011.11
391.78	1022.81
391.97	961.96
392.16	1060.26
392.36	959.62
392.55	1046.22
392.75	992.39
392.94	919.83
393.13	1004.09
393.33	1050.90
393.52	997.07
393.71	1067.28
393.91	1055.58
394.10	1048.56
394.29	1069.62
394.49	1076.65
394.68	1053.24
394.88	999.41
395.07	1081.33
395.26	1086.01
395.46	1071.97
395.65	1179.63
395.84	1238.14
396.04	1163.25
396.23	1109.41
396.42	1118.78
396.62	1158.57
396.81	1191.33
397.00	1160.91
397.19	1139.84
397.39	1256.87
397.58	1224.10
397.77	1060.26
397.97	1219.42
398.16	1125.80
398.35	1240.48
398.55	1254.53
398.74	1249.85
398.93	1193.67
399.12	1287.29
399.32	1219.42
399.51	1282.61
399.70	1263.89
399.90	1315.38
400.09	1275.59
400.28	1392.62
400.47	1277.93
400.67	1387.94
400.86	1345.81
401.05	1404.32
401.24	1277.93
401.44	1380.92
401.63	1413.68
401.82	1383.26
402.01	1387.94
402.21	1397.30
402.40	1409.00
402.59	1455.81
402.78	1413.68
402.97	1411.34
403.17	1479.22
403.36	1511.99
403.55	1479.22
403.74	1533.05
403.93	1455.81
404.13	1621.99
404.32	1462.83
404.51	1572.84
404.70	1605.61
404.89	1575.18
405.09	1631.35
405.28	1535.39
405.47	1621.99
405.66	1652.42
405.85	1619.65
406.05	1610.29
406.24	1659.44
406.43	1664.12
406.62	1713.27
406.81	1792.85
407.00	1769.44
407.20	1600.93
407.39	1668.80
407.58	1722.63
407.77	1783.49
407.96	1809.23
408.15	1872.43
408.34	1732.00
408.54	1820.94
408.73	1708.59
408.92	1797.53
409.11	1877.11
409.30	1856.04
409.49	1933.28
409.68	1921.58
409.87	2001.16
410.07	1891.15
410.26	2005.84
410.45	1994.14
410.64	1923.92
410.83	2090.10
411.02	2057.33
411.21	2104.14
411.40	2090.10
411.59	2122.87
411.78	1949.67
411.98	2113.50
412.17	2038.61
412.36	2176.70
412.55	2267.98
412.74	2197.76
412.93	2277.34
413.12	2256.28
413.31	2284.36
413.50	2267.98
413.69	2333.51
413.88	2406.07
414.07	2338.20
414.26	2466.92
414.45	2464.58
414.64	2342.88
414.83	2431.82
415.02	2480.97
415.22	2495.01
415.41	2534.80
415.60	2560.55
415.79	2581.61
415.98	2654.17
416.17	2520.76
416.36	2579.27
416.55	2679.91
416.74	2761.83
416.93	2677.57
417.12	2663.53
417.31	2829.71
417.50	2733.75
417.69	2832.05
417.88	2679.91
418.07	2822.69
418.26	2883.54
418.45	2864.82
418.64	2904.60
418.83	2979.50
419.02	2834.39
419.21	2892.90
419.39	3016.95
419.58	2993.55
419.77	2981.84
419.96	2956.10
420.15	3030.99
420.34	2946.73
420.53	2951.42
420.72	2953.76
420.91	3133.98
421.10	3110.57
421.29	3143.34
421.48	3101.21
421.67	3178.45
421.86	3108.23
422.05	3033.33
422.24	3103.55
422.43	3201.85
422.61	3267.39
422.80	3274.41
422.99	3361.01
423.18	3171.43
423.37	3225.26
423.56	3379.73
423.75	3169.09
423.94	3110.57
424.13	3070.78
424.32	3180.79
424.50	3201.85
424.69	3314.20
424.88	3353.99
425.07	3281.43
425.26	3272.07
425.45	3297.81
425.64	3279.09
425.83	3225.26
426.01	3314.20
426.20	3332.92
426.39	3302.50
426.58	3246.32
426.77	3227.60
426.96	3400.80
427.15	3323.56
427.33	3407.82
427.52	3239.30
427.71	3559.95
427.90	3475.70
428.09	3442.93
428.28	3552.93
428.46	3487.40
428.65	3471.01
428.84	3590.38
429.03	3632.51
429.22	3494.42
429.40	3517.83
429.59	3665.28
429.78	3487.40
429.97	3501.44
430.16	3592.72
430.34	3618.47
430.53	3644.21
430.72	3693.37
430.91	3798.69
431.10	3648.90
431.28	3756.56
431.47	3815.07
431.66	3726.13
431.85	3730.81
432.03	3847.84
432.22	3882.95
432.41	3801.03
432.60	3927.42
432.79	3887.63
432.97	3861.88
433.16	3719.11
433.35	3786.99
433.54	3913.38
433.72	3999.98
433.91	4025.72
434.10	3948.48
434.28	3997.64
434.47	4023.38
434.66	4117.00
434.85	4058.49
435.03	4135.73
435.22	4079.55
435.41	4224.67
435.59	4128.70
435.78	4229.35
435.97	4166.15
436.16	4280.84
436.34	4119.34
436.53	4294.88
436.72	4437.66
436.90	4250.41
437.09	4290.20
437.28	4091.26
437.46	4271.48
437.65	4315.95
437.84	4219.99
438.02	4337.01
438.21	4461.06
438.40	4308.93
438.58	4512.55
438.77	4430.63
438.96	4458.72
439.14	4631.92
439.33	4582.77
439.52	4629.58
439.70	4587.45
439.89	4610.86
440.08	4606.17
440.26	4660.01
440.45	4711.50
440.63	4898.74
440.82	4961.94
441.01	4854.27
441.19	4959.60
441.38	4987.68
441.57	5048.54
441.75	5036.83
441.94	5142.16
442.12	5135.14
442.31	5221.74
442.50	5102.37
442.68	5214.71
442.87	5060.24
443.05	5191.31
443.24	5130.45
443.43	5228.76
443.61	5102.37
443.80	5231.10
443.98	5231.10
444.17	5090.67
444.35	5284.93
444.54	5439.40
444.73	5303.65
444.91	5238.12
445.10	5226.42
445.28	5336.42
445.47	5200.67
445.65	5352.81
445.84	5481.53
446.02	5481.53
446.21	5252.16
446.39	5331.74
446.58	5502.60
446.77	5418.34
446.95	5336.42
447.14	5350.46
447.32	5474.51
447.51	5437.06
447.69	5247.48
447.88	5406.64
448.06	5444.09
448.25	5399.62
448.43	5528.35
448.62	5462.81
448.80	5483.88
448.99	5427.70
449.17	5746.02
449.36	5624.31
449.54	5738.99
449.73	5593.88
449.91	5792.83
450.10	5710.91
450.28	5776.44
450.46	5760.06
450.65	5898.15
450.83	5797.51
451.02	5832.62
451.20	5916.87
451.39	5930.92
451.57	5811.55
451.76	5933.26
451.94	5898.15
452.13	5860.70
452.31	5916.87
452.49	5823.25
452.68	6026.88
452.86	5884.11
453.05	6073.69
453.23	6146.25
453.42	5930.92
453.60	5959.00
453.78	6038.58
453.97	6127.52
454.15	5987.09
454.34	6012.84
454.52	6125.18
454.70	6183.70
454.89	6221.14
455.07	6073.69
455.26	6469.24
455.44	6246.89
455.62	6422.43
455.81	6289.02
455.99	6340.51
456.17	6583.93
456.36	6387.32
456.54	6455.20
456.73	6380.30
456.91	6698.61
457.09	6616.69
457.28	6724.36
457.46	6560.52
457.64	6656.48
457.83	6733.72
458.01	6600.31
458.19	6810.96
458.38	6628.40
458.56	6743.08
458.74	6689.25
458.93	6848.41
459.11	6956.07
459.29	6904.58
459.48	6822.66
459.66	6825.00
459.84	7000.54
460.03	7133.95
460.21	6855.43
460.39	6981.82
460.57	6993.52
460.76	7262.68
460.94	7129.27
461.12	7169.06
461.31	7033.31
461.49	7089.48
461.67	7119.91
461.85	7148.00
462.04	7183.10
462.22	7499.08
462.40	7325.88
462.59	7459.29
462.77	7454.61
462.95	7349.28
463.13	7339.92
463.32	7522.48
463.50	7609.08
463.68	7480.35
463.86	7489.71
464.05	7447.58
464.23	7531.84
464.41	7550.57
464.59	7454.61
464.78	7445.24
464.96	7733.13
465.14	7578.65
465.32	7571.63
465.50	7721.43
465.69	7630.15
465.87	7815.05
466.05	7791.64
466.23	7700.36
466.41	7688.66
466.60	8009.31
466.78	7768.24
466.96	7595.04
467.14	7721.43
467.32	7782.28
467.51	8095.91
467.69	7749.51
467.87	7742.49
468.05	7878.24
468.23	7974.21
468.41	7798.66
468.60	7808.03
468.78	8070.17
468.96	7822.07
469.14	7901.65
469.32	8196.56
469.50	8067.83
469.69	8203.58
469.87	8231.66
470.05	8332.31
470.23	8351.03
470.41	8402.52
470.59	8336.99
470.77	8351.03
470.95	8542.96
471.14	8540.61
471.32	8358.05
471.50	8475.08
471.68	8624.87
471.86	8568.70
472.04	8674.03
472.22	8879.99
472.40	8526.57
472.58	8730.20
472.77	8720.84
472.95	8978.30
473.13	9060.21
473.31	8922.12
473.49	8896.38
473.67	8973.61
473.85	8931.48
474.03	9149.15
474.21	9146.81
474.39	9359.80
474.57	9193.62
474.75	9144.47
474.93	9341.08
475.12	9315.33
475.30	9605.56
475.48	9540.02
475.66	9455.76
475.84	9724.93
476.02	9666.41
476.20	9635.99
476.38	9678.12
476.56	9839.61
476.74	9762.37
476.92	9933.23
477.10	10052.60
477.28	10026.86
477.46	10108.77
477.64	10326.44
477.82	10319.42
478.00	10544.11
478.18	10354.53
478.36	10703.27
478.54	10649.44
478.72	10721.99
478.90	10832.00
479.08	11112.86
479.26	11157.33
479.44	11012.22
479.62	11080.10
479.80	11131.59
479.98	11382.03
480.16	11360.96
480.34	11396.07
480.52	11552.88
480.70	11829.07
480.88	11428.84
481.06	11716.72
481.24	11637.14
481.41	11871.20
481.59	12100.57
481.77	12119.29
481.95	12407.18
482.13	12325.26
482.31	12098.23
482.49	12734.85
482.67	12458.67
482.85	12833.16
483.03	12987.63
483.21	12833.16
483.39	13074.23
483.57	13132.75
483.74	13139.77
483.92	13275.52
484.10	12999.34
484.28	13603.19
484.46	13640.64
484.64	13928.53
484.82	13685.11
485.00	13865.33
485.18	13912.14
485.35	14157.90
485.53	14331.10
485.71	14455.15
485.89	14780.48
486.07	14476.21
486.25	14434.08
486.43	14452.81
486.61	14768.78
486.78	15101.14
486.96	14820.27
487.14	15201.78
487.32	15171.35
487.50	15463.92
487.68	15651.16
487.85	15700.31
488.03	15819.68
488.21	15932.03
488.39	15784.57
488.57	16573.33
488.75	16465.67
488.92	16407.16
489.10	16540.57
489.28	16779.30
489.46	17015.69
489.64	16711.42
489.81	17137.40
489.99	16929.09
490.17	17226.34
490.35	17046.12
490.53	17385.50
490.70	17448.69
490.88	17448.69
491.06	17429.97
491.24	17537.63
491.41	17930.84
491.59	18118.09
491.77	17977.65
491.95	17914.46
492.13	18398.95
492.30	18602.58
492.48	18656.41
492.66	18672.79
492.84	18698.54
493.01	18864.72
493.19	18892.80
493.37	19108.13
493.54	19255.59
493.72	19262.61
493.90	19293.04
494.08	19601.99
494.25	19800.93
494.43	19639.44
494.61	20119.24
494.79	20025.62
494.96	20088.82
495.14	20208.19
495.32	20449.26
495.49	20381.38
495.67	20566.29
495.85	20711.40
496.02	20868.22
496.20	21050.78
496.38	20641.18
496.55	21034.39
496.73	21490.80
496.91	21451.01
497.09	21666.34
497.26	21724.85
497.44	21738.90
497.62	21902.73
497.79	22099.34
497.97	22036.14
498.14	21979.97
498.32	22604.89
498.50	22363.82
498.67	22642.34
498.85	22576.81
499.03	22328.71
499.20	22642.34
499.38	22780.43
499.56	22831.93
499.73	22946.61
499.91	23253.22
500.08	23477.91
500.26	22984.06
500.44	23068.32
500.61	23005.13
500.79	23557.49
500.97	23370.25
501.14	23988.15
501.32	23903.89
501.49	24140.29
501.67	23810.27
501.84	24093.47
502.02	24217.52
502.20	24046.66
502.37	23969.43
502.55	24093.47
502.72	24294.76
502.90	24372.00
503.07	24126.24
503.25	24315.83
503.43	24584.99
503.60	25053.09
503.78	24540.52
503.95	24842.45
504.13	24987.56
504.30	25455.67
504.48	25411.20
504.65	25329.28
504.83	25458.01
505.01	25137.35
505.18	25685.04
505.36	26134.42
505.53	25607.80
505.71	25617.16
505.88	26052.50
506.06	25663.97
506.23	25982.29
506.41	25867.60
506.58	25804.41
506.76	26314.64
506.93	26221.02
507.11	26441.03
507.28	26630.62
507.46	26164.85
507.63	26785.09
507.81	26670.40
507.98	26476.14
508.16	26597.85
508.33	26939.57
508.50	26955.95
508.68	27098.72
508.85	27353.84
509.03	27398.31
509.20	27421.72
509.38	27400.65
509.55	27496.61
509.73	27538.74
509.90	27878.12
510.08	27798.54
510.25	27740.03
510.42	28154.30
510.60	27667.47
510.77	28261.97
510.95	28283.03
511.12	28231.54
511.30	28563.90
511.47	28510.07
511.64	28067.70
511.82	28538.15
511.99	28460.91
512.17	28861.15
512.34	28428.15
512.51	29092.86
512.69	28800.29
512.86	29167.76
513.04	29053.07
513.21	29125.63
513.38	29223.93
513.56	29010.94
513.73	28844.76
513.90	29287.12
514.08	29034.35
514.25	29769.27
514.43	29572.67
514.60	29661.61
514.77	29626.50
514.95	29607.78
515.12	29933.11
515.29	29511.81
515.47	30223.34
515.64	30110.99
515.81	30167.16
515.99	30452.71
516.16	30546.33
516.33	30380.15
516.51	30679.74
516.68	30272.49
516.85	30686.76
517.03	30820.17
517.20	30836.56
517.37	30771.02
517.54	30991.03
517.72	30984.01
517.89	30988.69
518.06	30735.92
518.24	31016.78
518.41	31234.45
518.58	31187.64
518.75	30899.75
518.93	31110.40
519.10	31215.72
519.27	31630.00
519.45	31496.59
519.62	31803.20
519.79	31400.63
519.96	31676.81
520.14	32229.18
520.31	31770.43
520.48	32198.75
520.65	31981.08
520.83	32292.37
521.00	32458.55
521.17	32325.14
521.34	32463.23
521.52	32493.66
521.69	32177.68
521.86	32582.60
522.03	32456.21
522.20	32912.61
522.38	33048.36
522.55	33113.90
522.72	32818.99
522.89	32734.73
523.07	33509.45
523.24	33448.60
523.41	33408.81
523.58	33551.58
523.75	33551.58
523.92	33074.11
524.10	33574.98
524.27	33614.77
524.44	33509.45
524.61	33734.14
524.78	33607.75
524.96	33603.07
525.13	33582.01
525.30	34064.16
525.47	34237.36
525.64	33851.17
525.81	34230.33
525.98	34108.63
526.16	34323.96
526.33	34143.74
526.50	34618.86
526.67	33991.60
526.84	34408.22
527.01	34326.30
527.18	34497.16
527.36	34740.57
527.53	34827.17
527.70	35386.56
527.87	34967.60
528.04	34792.06
528.21	34988.67
528.38	35077.61
528.55	35351.45
528.72	34974.63
528.89	35058.88
529.07	34998.03
529.24	34712.49
529.41	35292.94
529.58	35531.67
529.75	35398.26
529.92	35098.67
530.09	35634.66
530.26	35611.25
530.43	35716.58
530.60	35569.12
530.77	35510.61
530.94	36006.80
531.11	35278.89
531.28	35786.79
531.46	35924.88
531.63	36023.19
531.80	35608.91
531.97	35929.56
532.14	36072.34
532.31	36226.81
532.48	36161.28
532.65	36507.68
532.82	36453.84
532.99	36247.88
533.16	36669.17
533.33	36350.86
533.50	36664.49
533.67	36517.04
533.84	36418.74
534.01	36463.21
534.18	36336.82
534.35	36952.38
534.52	36872.80
534.69	36952.38
534.86	37053.02
535.03	36989.83
535.20	36737.05
535.37	37188.77
535.54	37378.36
535.71	37123.24
535.88	37076.43
536.05	37200.47
536.22	37486.02
536.38	37404.10
536.55	37427.51
536.72	37205.16
536.89	37053.02
537.06	37425.17
537.23	37783.27
537.40	37521.13
537.57	37926.04
537.74	37324.52
537.91	38092.22
538.08	37970.51
538.25	37610.07
538.42	37886.25
538.59	38064.13
538.75	37804.33
538.92	38185.84
539.09	38501.81
539.26	38204.56
539.43	38005.62
539.60	38576.71
539.77	37790.29
539.94	38155.41
540.11	38763.95
540.28	38658.63
540.44	38464.36
540.61	38747.57
540.78	38396.49
540.95	38536.92
541.12	38181.16
541.29	38635.22
541.46	38604.80
541.62	38560.33
541.79	38810.76
541.96	38328.61
542.13	38614.16
542.30	38581.39
542.47	38831.83
542.63	38998.01
542.80	38902.04
542.97	39421.64
543.14	39342.06
543.31	39562.08
543.48	39370.15
543.64	39730.59
543.81	39854.64
543.98	39257.81
544.15	39821.87
544.32	39634.63
544.48	40137.85
544.65	39784.43
544.82	40142.53
544.99	39313.98
545.16	39775.06
545.32	39824.22
545.49	40292.32
545.66	40446.80
545.83	39978.69
546.00	40266.58
546.16	40189.34
546.33	39955.29
546.50	39854.64
546.67	40179.98
546.83	39819.53
547.00	40416.37
547.17	40289.98
547.34	40168.27
547.50	40849.37
547.67	40701.92
547.84	40423.39
548.00	40945.33
548.17	40783.83
548.34	40854.05
548.51	40945.33
548.67	40634.04
548.84	41319.82
549.01	40755.75
549.18	40905.54
549.34	40781.49
549.51	40903.20
549.68	41242.58
549.84	41090.44
550.01	41261.30
550.18	41139.60
550.34	40938.31
550.51	41085.76
550.68	41553.87
550.84	40938.31
551.01	40835.33
551.18	41013.21
551.34	41354.93
551.51	41432.16
551.68	41078.74
551.84	41446.21
552.01	41249.60
552.18	41542.17
552.34	41354.93
552.51	41598.34
552.68	41464.93
552.84	41525.78
553.01	41724.73
553.18	41591.32
553.34	41872.18
553.51	41624.09
553.67	41818.35
553.84	42082.83
554.01	41848.78
554.17	41560.89
554.34	42103.90
554.51	41879.21
554.67	42092.19
554.84	42246.67
555.00	42127.30
555.17	41811.33
555.33	42363.70
555.50	42146.03
555.67	42347.31
555.83	42204.54
556.00	42033.68
556.16	42831.80
556.33	42417.53
556.50	42380.08
556.66	42597.75
556.83	42263.05
556.99	42649.24
557.16	42597.75
557.32	42635.20
557.49	42534.56
557.65	42335.61
557.82	42450.30
557.98	42590.73
558.15	42424.55
558.32	42553.28
558.48	42370.72
558.65	42443.27
558.81	42784.99
558.98	42784.99
559.14	42787.33
559.31	42513.49
559.47	42731.16
559.64	43007.34
559.80	42684.35
559.97	43456.73
560.13	42789.67
560.30	42768.61
560.46	43159.48
560.63	43248.42
560.79	43704.82
560.96	43145.44
561.12	43196.93
561.29	43531.62
561.45	43164.16
561.61	43002.66
561.78	43023.73
561.94	43131.39
562.11	42885.64
562.27	43337.36
562.44	43147.78
562.60	43131.39
562.77	43309.27
562.93	43304.59
563.10	43672.06
563.26	43105.65
563.42	43611.20
563.59	43157.14
563.75	42883.30
563.92	42759.25
564.08	43812.49
564.24	43714.19
564.41	43653.33
564.57	43487.15
564.74	43674.40
564.90	43129.05
565.07	43941.22
565.23	43501.20
565.39	43620.56
565.56	43625.25
565.72	43681.42
565.88	43885.04
566.05	43632.27
566.21	43543.33
566.38	43388.85
566.54	43552.69
566.70	43938.88
566.87	43618.22
567.03	43594.82
567.19	43929.51
567.36	43847.60
567.52	43868.66
567.68	43981.01
567.85	43641.63
568.01	44168.25
568.17	43477.79
568.34	43920.15
568.50	44095.69
568.66	44140.16
568.83	44191.65
568.99	43566.73
569.15	44086.33
569.32	43992.71
569.48	44076.97
569.64	44545.08
569.81	44428.05
569.97	44179.95
570.13	43681.42
570.30	43784.40
570.46	44542.74
570.62	44416.35
570.78	44060.58
570.95	44011.43
571.11	44587.21
571.27	44006.75
571.43	43995.05
571.60	44018.46
571.76	44130.80
571.92	44383.58
572.09	44156.55
572.25	44470.18
572.41	44105.06
572.57	44631.68
572.74	44589.55
572.90	43966.96
573.06	44273.57
573.22	44360.17
573.38	44886.79
573.55	44617.63
573.71	44678.49
573.87	44634.02
574.03	44252.51
574.20	44664.44
574.36	44397.62
574.52	44378.90
574.68	44414.01
574.84	44769.77
575.01	44458.48
575.17	44584.86
575.33	44533.37
575.49	44311.02
575.65	44542.74
575.82	44460.82
575.98	44294.64
576.14	44776.79
576.30	44535.71
576.46	44334.43
576.62	44479.54
576.79	44315.70
576.95	44048.88
577.11	44098.03
577.27	44498.26
577.43	44608.27
577.59	44184.63
577.75	44282.94
577.92	44299.32
578.08	44727.64
578.24	44772.11
578.40	44821.26
578.56	44713.59
578.72	44921.90
578.88	44418.69
579.04	44631.68
579.21	44547.42
579.37	44769.77
579.53	44339.11
579.69	44271.23
579.85	44989.78
580.01	44942.97
580.17	44493.58
580.33	44814.24
580.49	44760.40
580.65	44563.80
580.82	44608.27
580.98	44629.34
581.14	44217.40
581.30	44835.30
581.46	44402.30
581.62	44601.25
581.78	44671.46
581.94	44980.42
582.10	44460.82
582.26	45109.14
582.42	44697.21
582.58	44900.84
582.74	44737.00
582.90	45230.85
583.06	44636.36
583.22	44762.75
583.38	44816.58
583.54	45258.94
583.70	44971.05
583.86	44825.94
584.02	44657.42
584.18	45167.66
584.34	44996.80
584.50	44926.58
584.66	44741.68
584.82	44964.03
584.98	44839.98
585.14	44861.05
585.30	44247.83
585.46	44428.05
585.62	44573.16
585.78	44825.94
585.94	44516.99
586.10	44722.96
586.26	44781.47
586.42	44421.03
586.58	44748.70
586.74	44952.33
586.90	44844.66
587.06	44439.75
587.22	44870.41
587.38	44694.87
587.54	45022.54
587.70	44673.81
587.86	44933.60
588.02	44933.60
588.18	45209.79
588.34	45036.59
588.49	44839.98
588.65	44949.99
588.81	45052.97
588.97	45221.49
589.13	45034.25
589.29	44793.17
589.45	45326.81
589.61	44795.51
589.77	45392.35
589.93	44720.62
590.08	45462.57
590.24	45048.29
590.40	45989.19
590.56	45436.82
590.72	45059.99
590.88	45207.45
591.04	45116.17
591.20	45345.54
591.35	45429.80
591.51	45670.87
591.67	45003.82
591.83	45539.80
591.99	44961.69
592.15	45144.25
592.31	45296.39
592.46	44683.17
592.62	45453.20
592.78	45258.94
592.94	45874.50
593.10	45851.09
593.26	45546.82
593.41	45638.11
593.57	45184.04
593.73	45502.35
593.89	46195.15
594.05	45815.99
594.20	45886.20
594.36	45907.27
594.52	45450.86
594.68	45741.09
594.84	45949.40
594.99	45380.65
595.15	45813.65
595.31	45769.18
595.47	45525.76
595.62	45918.97
595.78	45404.05
595.94	45436.82
596.10	45495.33
596.25	45717.68
596.41	45649.81
596.57	45869.82
596.73	45460.23
596.88	45343.20
597.04	45635.77
597.20	45689.60
597.36	45551.51
597.51	45942.38
597.67	45359.58
597.83	45141.91
597.99	45832.37
598.14	45680.24
598.30	45509.38
598.46	45272.98
598.61	45977.48
598.77	45998.55
598.93	45801.94
599.09	45146.59
599.24	45904.93
599.40	45380.65
599.56	45794.92
599.71	46211.54
599.87	46546.23
600.03	46047.70
600.18	45893.22
600.34	45794.92
600.50	45764.49
600.65	45572.57
600.81	45837.05
600.97	45862.80
601.12	46146.00
601.28	45890.88
601.44	45911.95
601.59	45902.59
601.75	45635.77
601.91	45811.31
602.06	45600.66
602.22	45708.32
602.37	45942.38
602.53	45567.89
602.69	45696.62
602.84	45947.06
603.00	46066.42
603.16	45642.79
603.31	45904.93
603.47	46005.57
603.62	45593.64
603.78	45846.41
603.94	45603.00
604.09	45846.41
604.25	45640.45
604.40	45879.18
604.56	45914.29
604.71	46197.49
604.87	45720.02
605.03	45593.64
605.18	45780.88
605.34	45865.14
605.49	46031.32
605.65	45900.25
605.80	45815.99
605.96	45392.35
606.12	45790.24
606.27	45741.09
606.43	45551.51
606.58	45666.19
606.74	45752.79
606.89	45434.48
607.05	45495.33
607.20	46085.15
607.36	45853.44
607.51	45397.03
607.67	45172.34
607.82	45516.40
607.98	45680.24
608.13	45565.55
608.29	45132.55
608.44	45808.96
608.60	45495.33
608.75	45544.48
608.91	45446.18
609.06	45216.81
609.22	45925.99
609.37	44861.05
609.53	45537.46
609.68	45900.25
609.84	45209.79
609.99	45404.05
610.15	45717.68
610.30	45727.05
610.46	45263.62
610.61	45722.37
610.76	45291.71
610.92	45022.54
611.07	45656.83
611.23	45254.26
611.38	45134.89
611.54	45167.66
611.69	45619.38
611.84	45663.85
612.00	45052.97
612.15	45207.45
612.31	45516.40
612.46	45120.85
612.62	44903.18
612.77	45057.65
612.92	45872.16
613.08	45174.68
613.23	45228.51
613.39	45542.14
613.54	44898.50
613.69	45223.83
613.85	45071.70
614.00	45027.23
614.15	45453.20
614.31	44685.51
614.46	44505.29
614.62	45078.72
614.77	44921.90
614.92	44917.22
615.08	44933.60
615.23	44959.35
615.38	45170.00
615.54	45048.29
615.69	44931.26
615.84	44804.88
616.00	45165.32
616.15	44989.78
616.30	44755.72
616.46	45186.38
616.61	44535.71
616.76	44987.44
616.92	44369.54
617.07	45092.76
617.22	45153.62
617.37	44383.58
617.53	44549.76
617.68	44683.17
617.83	44507.63
617.99	44872.75
618.14	44748.70
618.29	44542.74
618.45	44601.25
618.60	44685.51
618.75	44367.20
618.90	44325.07
619.06	44694.87
619.21	44713.59
619.36	45022.54
619.51	44488.90
619.67	44360.17
619.82	44435.07
619.97	44184.63
620.12	44044.20
620.28	44294.64
620.43	44236.12
620.58	44444.43
620.73	44245.49
620.89	44299.32
621.04	44322.72
621.19	44837.64
621.34	43981.01
621.49	44264.21
621.65	44502.95
621.80	44542.74
621.95	44247.83
622.10	43962.28
622.25	44156.55
622.41	44296.98
622.56	44353.15
622.71	44006.75
622.86	43842.92
623.01	44886.79
623.16	43906.11
623.32	43887.39
623.47	44107.40
623.62	44119.10
623.77	43761.00
623.92	44144.84
624.07	44095.69
624.23	44278.25
624.38	44442.09
624.53	44009.09
624.68	43335.02
624.83	43426.30
624.98	43653.33
625.13	43309.27
625.29	43292.89
625.44	43285.87
625.59	43791.42
625.74	43456.73
625.89	43601.84
626.04	43447.36
626.19	43299.91
626.34	43585.46
626.49	43325.66
626.65	43140.75
626.80	43337.36
626.95	43082.24
627.10	42995.64
627.25	43648.65
627.40	43428.64
627.55	43194.59
627.70	43248.42
627.85	43227.35
628.00	43206.29
628.15	43250.76
628.30	42953.51
628.45	43178.20
628.60	42635.20
628.76	42733.50
628.91	43138.41
629.06	42581.37
629.21	42864.57
629.36	42511.15
629.51	42768.61
629.66	43285.87
629.81	43082.24
629.96	43016.71
630.11	43049.47
630.26	42864.57
630.41	42703.07
630.56	42990.96
630.71	43129.05
630.86	42499.45
631.01	42672.65
631.16	42344.97
631.31	42895.00
631.46	42586.05
631.61	42895.00
631.76	42749.88
631.91	42895.00
632.06	43210.97
632.21	42728.82
632.36	42862.23
632.51	42710.10
632.66	42490.09
632.81	42141.35
632.96	42787.33
633.10	42298.16
633.25	42459.66
633.40	42492.43
633.55	42705.41
633.70	42373.06
633.85	42174.11
634.00	42129.64
634.15	42281.78
634.30	42036.02
634.45	41841.76
634.60	42099.22
634.75	42426.89
634.90	42057.09
635.05	42316.89
635.19	41720.05
635.34	42066.45
635.49	41823.03
635.64	41940.06
635.79	42408.17
635.94	42361.36
636.09	42211.56
636.24	42085.17
636.39	41724.73
636.53	41619.41
636.68	41713.03
636.83	41392.37
636.98	42014.96
637.13	41340.88
637.28	41523.44
637.43	41581.96
637.57	41979.85
637.72	41483.66
637.87	41265.99
638.02	41797.29
638.17	41539.83
638.32	41619.41
638.46	41612.38
638.61	41460.25
638.76	40973.42
638.91	41483.66
639.06	40992.14
639.20	40935.97
639.35	41146.62
639.50	41076.40
639.65	41350.24
639.80	41251.94
639.94	41322.16
640.09	41645.15
640.24	41741.11
640.39	40786.18
640.54	40999.16
640.68	40928.95
640.83	41296.41
640.98	40921.93
641.13	40905.54
641.27	41247.26
641.42	40889.16
641.57	40917.25
641.72	41127.89
641.86	41181.73
642.01	40423.39
642.16	40858.73
642.31	40662.13
642.45	40713.62
642.60	40793.20
642.75	40828.30
642.90	40816.60
643.04	40774.47
643.19	40664.47
643.34	40706.60
643.48	40332.11
643.63	40395.31
643.78	40933.63
643.93	40863.41
644.07	40669.15
644.22	40678.51
644.37	40399.99
644.51	40910.22
644.66	40622.34
644.81	40294.66
644.95	40921.93
645.10	40610.64
645.25	40629.36
645.39	39964.65
645.54	40332.11
645.69	40046.57
645.83	40343.81
645.98	39990.39
646.13	39824.22
646.27	40093.38
646.42	39835.92
646.57	40280.62
646.71	40268.92
646.86	40388.28
647.00	40172.96
647.15	40374.24
647.30	39892.09
647.44	39992.73
647.59	40095.72
647.74	40081.67
647.88	40039.54
648.03	40355.52
648.17	40105.08
648.32	40189.34
648.47	40334.45
648.61	39903.79
648.76	39957.63
648.90	39831.24
649.05	39597.18
649.20	39559.73
649.34	39643.99
649.49	40060.61
649.63	40016.14
649.78	39796.13
649.92	39763.36
650.07	40385.94
650.21	39796.13
650.36	39931.88
650.51	39629.95
650.65	39754.00
650.80	39791.45
650.94	39758.68
651.09	39496.54
651.23	39283.55
651.38	39210.99
651.52	39019.07
651.67	39866.34
651.81	39297.59
651.96	39643.99
652.10	38785.02
652.25	39447.39
652.39	39225.04
652.54	39295.25
652.68	39213.34
652.83	39093.97
652.97	39065.88
653.12	39201.63
653.26	39166.52
653.41	39054.18
653.55	38770.97
653.70	39318.66
653.84	39213.34
653.99	39257.81
654.13	38918.43
654.27	39489.52
654.42	39131.42
654.56	39075.24
654.71	39203.97
654.85	39201.63
655.00	38721.82
655.14	38756.93
655.29	38850.55
655.43	39119.71
655.57	38925.45
655.72	38316.91
655.86	38934.81
656.01	38288.82
656.15	38368.40
656.30	38656.29
656.44	38836.51
656.58	38780.34
656.73	38698.42
656.87	38267.76
657.01	38518.20
657.16	38464.36
657.30	38429.26
657.45	38342.66
657.59	38253.72
657.73	38213.93
657.88	38174.14
658.02	38223.29
658.16	38679.69
658.31	38562.67
658.45	38314.57
658.60	38433.94
658.74	38768.63
658.88	38347.34
659.03	37790.29
659.17	37979.87
659.31	37610.07
659.46	37645.18
659.60	38103.92
659.74	37818.38
659.89	37750.50
660.03	37502.40
660.17	37813.70
660.32	37717.73
660.46	38092.22
660.60	37099.83
660.74	37385.38
660.89	37577.30
661.03	37361.97
661.17	36954.72
661.32	36950.04
661.46	37193.45
661.60	37111.53
661.74	37326.86
661.89	37361.97
662.03	37055.36
662.17	36673.85
662.31	36935.99
662.46	37111.53
662.60	36737.05
662.74	36641.09
662.88	36524.06
663.03	36437.46
663.17	36353.20
663.31	36240.86
663.45	36259.58
663.60	37060.04
663.74	36884.50
663.88	36397.67
664.02	36510.02
664.17	36701.94
664.31	36079.36
664.45	36198.73
664.59	36416.40
664.73	36676.19
664.88	36208.09
665.02	35868.71
665.16	36004.46
665.30	36168.30
665.44	36203.41
665.59	35332.73
665.73	35728.28
665.87	35292.94
666.01	35842.96
666.15	36121.49
666.29	35562.10
666.44	35828.92
666.58	35529.33
666.72	35332.73
666.86	35545.72
667.00	35597.21
667.14	35337.41
667.28	35079.95
667.43	35084.63
667.57	35344.43
667.71	35290.60
667.85	35440.39
667.99	35077.61
668.13	34906.75
668.27	34948.88
668.41	34878.66
668.56	34534.60
668.70	34462.05
668.84	34349.70
668.98	34450.35
669.12	34314.59
669.26	34349.70
669.40	34251.40
669.54	34288.85
669.68	34345.02
669.82	34522.90
669.96	33851.17
670.10	33865.21
670.25	33907.34
670.39	33998.62
670.53	34071.18
670.67	33984.58
670.81	33965.85
670.95	34007.98
671.09	33890.96
671.23	33315.19
671.37	33741.16
671.51	33408.81
671.65	33502.43
671.79	33263.69
671.93	33621.80
672.07	33303.48
672.21	33104.54
672.35	32811.97
672.49	33263.69
672.63	33013.26
672.77	32788.56
672.91	33565.62
673.05	32795.59
673.19	32484.30
673.33	32720.69
673.47	32795.59
673.61	32301.73
673.75	32004.49
673.89	32102.79
674.03	32086.40
674.17	32041.93
674.31	31842.99
674.45	31960.02
674.59	31791.50
674.73	32023.21
674.87	31578.51
675.01	31695.53
675.15	31477.86
675.29	31098.70
675.43	31374.88
675.56	31356.16
675.70	31295.30
675.84	31288.28
675.98	30078.22
676.12	31122.10
676.26	31290.62
676.40	30808.47
676.54	30822.51
676.68	30464.41
676.82	30237.38
676.96	30639.95
677.10	31175.94
677.23	30419.94
677.37	30618.89
677.51	29890.98
677.65	30263.13
677.79	29811.40
677.93	30054.82
678.07	29369.04
678.21	29596.07
678.34	29677.99
678.48	29584.37
678.62	29455.64
678.76	29427.56
678.90	29378.40
679.04	29305.85
679.18	29404.15
679.31	28926.68
679.45	28912.64
679.59	28889.23
679.73	28975.83
679.87	28952.43
680.00	28613.05
680.14	28706.67
680.28	28451.55
680.42	28290.06
680.56	28091.11
680.70	27831.31
680.83	27887.48
680.97	27716.62
681.11	28048.98
681.25	27658.11
681.39	27426.40
681.52	27517.68
681.66	27384.27
681.80	26946.59
681.94	26719.56
682.07	27016.80
682.21	26974.67
682.35	26792.11
682.49	26902.12
682.62	26721.90
682.76	26878.71
682.90	26876.37
683.04	26824.88
683.17	26469.12
683.31	26394.22
683.45	26221.02
683.59	26073.57
683.72	25781.00
683.86	25909.73
684.00	26045.48
684.13	25420.56
684.27	25895.69
684.41	25511.84
684.55	25560.99
684.68	25481.41
684.82	25385.45
684.96	25123.31
685.09	24950.11
685.23	25441.62
685.37	25263.74
685.50	25289.49
685.64	24870.53
685.78	24603.71
685.91	24486.68
686.05	24498.39
686.19	24154.33
686.32	24589.67
686.46	23634.73
686.60	23875.80
686.73	24264.33
686.87	24273.70
687.01	24114.54
687.14	23803.25
687.28	23960.06
687.42	23697.92
687.55	23625.37
687.69	23604.30
687.82	23204.07
687.96	23028.53
688.10	23520.04
688.23	23241.52
688.37	23344.50
688.50	23515.36
688.64	23166.62
688.78	22733.62
688.91	22892.78
689.05	22733.62
689.18	22553.40
689.32	22314.67
689.46	22024.44
689.59	22125.08
689.73	22665.75
689.86	22492.55
690.00	22211.68
690.13	22085.30
690.27	21881.67
690.41	22012.74
690.54	21561.02
690.68	21516.54
690.81	21703.79
690.95	21532.93
691.08	21181.85
691.22	21289.51
691.35	21298.88
691.49	21425.26
691.62	21074.18
691.76	20781.62
691.89	20538.20
692.03	20587.35
692.16	20594.37
692.30	20650.55
692.43	20472.67
692.57	20159.03
692.70	20255.00
692.84	20224.57
692.97	20093.50
693.11	20177.76
693.24	19992.86
693.38	19929.66
693.51	19782.21
693.65	19513.05
693.78	19351.55
693.92	19538.79
694.05	19307.08
694.19	19332.82
694.32	19164.31
694.45	19389.00
694.59	19293.04
694.72	19339.85
694.86	18937.27
694.99	18925.57
695.13	19002.81
695.26	18520.66
695.39	18473.85
695.53	18387.25
695.66	18569.81
695.80	18195.32
695.93	18272.56
696.07	17958.93
696.20	18045.53
696.33	17635.94
696.47	17584.44
696.60	18052.55
696.73	17619.55
696.87	18012.76
697.00	17682.75
697.14	17762.33
697.27	17064.85
697.40	17427.63
697.54	17441.67
697.67	17493.16
697.80	17266.13
697.94	17146.76
698.07	17294.22
698.21	16776.96
698.34	16840.15
698.47	16664.61
698.61	16388.43
698.74	16336.94
698.87	16685.68
699.01	16152.04
699.14	16453.97
699.27	16140.33
699.40	15967.13
699.54	15950.75
699.67	16276.09
699.80	16273.74
699.94	16128.63
700.07	15948.41
700.20	15819.68
700.34	15630.10
700.47	15655.84
700.60	15726.06
700.73	15424.13
700.87	15297.74
701.00	15311.78
701.13	15515.41
701.26	15068.37
701.40	15028.58
701.53	14710.27
701.66	14925.60
701.79	14801.55
701.93	14431.74
702.06	14429.40
702.19	14768.78
702.32	14665.80
702.46	14714.95
702.59	14728.99
702.72	14464.51
702.85	14398.98
702.99	14469.19
703.12	14139.18
703.25	14174.28
703.38	13968.32
703.51	14064.28
703.65	13886.40
703.78	13715.54
703.91	13624.26
704.04	13645.32
704.17	13474.46
704.31	13678.09
704.44	13563.40
704.57	13460.42
704.70	13294.24
704.83	13327.01
704.96	13214.66
705.10	13270.84
705.23	13153.81
>>>>>End Processed Spectral Data<<<<<
