SpectraSuite Data File
++++++++++++++++++++++++++++++++++++
Date: Fri Oct 25 10:47:31 EDT 2013
User: price-jones
Dark Spectrum Present: No
Reference Spectrum Present: No
Number of Sampled Component Spectra: 1
Spectrometers: USB2+H05261
Integration Time (usec): 100000 (USB2+H05261)
Spectra Averaged: 1 (USB2+H05261)
Boxcar Smoothing: 0 (USB2+H05261)
Correct for Electrical Dark: No (USB2+H05261)
Strobe/Lamp Enabled: No (USB2+H05261)
Correct for Detector Non-linearity: No (USB2+H05261)
Correct for Stray Light: No (USB2+H05261)
Number of Pixels in Processed Spectrum: 2048
>>>>>Begin Processed Spectral Data<<<<<
365.73	189.58
365.92	189.58
366.12	189.58
366.32	77.24
366.52	11.70
366.72	105.32
366.91	28.09
367.11	16.38
367.31	70.22
367.51	58.51
367.70	9.36
367.90	25.75
368.10	42.13
368.30	35.11
368.49	28.09
368.69	63.19
368.89	32.77
369.09	93.62
369.28	77.24
369.48	65.54
369.68	128.73
369.87	107.66
370.07	77.24
370.27	72.56
370.47	187.24
370.66	304.27
370.86	353.42
371.06	407.25
371.25	468.11
371.45	463.43
371.65	444.70
371.84	440.02
372.04	444.70
372.24	411.93
372.44	463.43
372.63	514.92
372.83	444.70
373.03	489.17
373.22	423.64
373.42	510.24
373.62	437.68
373.81	552.37
374.01	510.24
374.21	566.41
374.40	510.24
374.60	643.65
374.79	472.79
374.99	550.03
375.19	526.62
375.38	512.58
375.58	566.41
375.78	500.87
375.97	465.77
376.17	617.90
376.37	554.71
376.56	624.92
376.76	550.03
376.95	655.35
377.15	664.71
377.35	561.73
377.54	660.03
377.74	552.37
377.93	540.66
378.13	550.03
378.33	636.63
378.52	641.31
378.72	655.35
378.91	535.98
379.11	587.47
379.31	669.39
379.50	669.39
379.70	540.66
379.89	664.71
380.09	587.47
380.28	657.69
380.48	685.78
380.68	645.99
380.87	573.43
381.07	599.18
381.26	702.16
381.46	725.57
381.65	692.80
381.85	664.71
382.04	631.94
382.24	669.39
382.43	608.54
382.63	669.39
382.83	582.79
383.02	746.63
383.22	734.93
383.41	734.93
383.61	755.99
383.80	772.38
384.00	739.61
384.19	634.29
384.39	784.08
384.58	739.61
384.78	753.65
384.97	844.93
385.17	802.80
385.36	739.61
385.56	788.76
385.75	744.29
385.95	784.08
386.14	798.12
386.34	805.14
386.53	812.17
386.72	730.25
386.92	835.57
387.11	830.89
387.31	814.51
387.50	716.20
387.70	784.08
387.89	833.23
388.09	842.59
388.28	723.23
388.48	788.76
388.67	770.04
388.86	854.30
389.06	887.06
389.25	884.72
389.45	971.32
389.64	849.61
389.84	915.15
390.03	929.19
390.22	828.55
390.42	889.40
390.61	842.59
390.81	861.32
391.00	957.28
391.19	880.04
391.39	912.81
391.58	898.77
391.78	924.51
391.97	903.45
392.16	901.11
392.36	980.68
392.55	866.00
392.75	1006.43
392.94	924.51
393.13	940.90
393.33	954.94
393.52	877.70
393.71	964.30
393.91	1036.86
394.10	936.21
394.29	1034.52
394.49	1088.35
394.68	1015.79
394.88	1074.31
395.07	1095.37
395.26	1114.10
395.46	1076.65
395.65	1114.10
395.84	1158.57
396.04	1158.57
396.23	1015.79
396.42	1095.37
396.62	1132.82
396.81	1139.84
397.00	1142.18
397.19	1069.62
397.39	1151.54
397.58	1270.91
397.77	1205.38
397.97	1137.50
398.16	1217.08
398.35	1266.23
398.55	1294.32
398.74	1315.38
398.93	1291.98
399.12	1219.42
399.32	1266.23
399.51	1329.42
399.70	1301.34
399.90	1394.96
400.09	1261.55
400.28	1308.36
400.47	1345.81
400.67	1425.39
400.86	1401.98
401.05	1409.00
401.24	1514.33
401.44	1432.41
401.63	1418.36
401.82	1479.22
402.01	1469.86
402.21	1455.81
402.40	1425.39
402.59	1451.13
402.78	1383.26
402.97	1469.86
403.17	1535.39
403.36	1544.75
403.55	1425.39
403.74	1617.31
403.93	1565.82
404.13	1643.06
404.32	1598.59
404.51	1645.40
404.70	1692.21
404.89	1654.76
405.09	1650.08
405.28	1671.14
405.47	1678.16
405.66	1764.76
405.85	1694.55
406.05	1640.72
406.24	1706.25
406.43	1741.36
406.62	1844.34
406.81	1769.44
407.00	1703.91
407.20	1729.66
407.39	1842.00
407.58	1816.26
407.77	1919.24
407.96	1914.56
408.15	1832.64
408.34	1860.73
408.54	1937.96
408.73	1900.52
408.92	1968.39
409.11	1975.41
409.30	1991.80
409.49	1933.28
409.68	1923.92
409.87	2059.67
410.07	2005.84
410.26	2038.61
410.45	2024.56
410.64	2057.33
410.83	2146.27
411.02	2111.16
411.21	2181.38
411.40	2186.06
411.59	2172.02
411.78	2183.72
411.98	2160.31
412.17	2214.15
412.36	2251.60
412.55	2235.21
412.74	2377.98
412.93	2387.35
413.12	2335.85
413.31	2492.67
413.50	2356.92
413.69	2434.16
413.88	2558.21
414.07	2572.25
414.26	2558.21
414.45	2572.25
414.64	2593.31
414.83	2574.59
415.02	2623.74
415.22	2621.40
415.41	2670.55
415.60	2630.76
415.79	2644.81
415.98	2913.97
416.17	2789.92
416.36	2661.19
416.55	2883.54
416.74	2935.03
416.93	2761.83
417.12	2883.54
417.31	2993.55
417.50	2818.00
417.69	3066.10
417.88	2965.46
418.07	2972.48
418.26	2970.14
418.45	2979.50
418.64	3117.59
418.83	3049.72
419.02	3082.49
419.21	2998.23
419.39	3098.87
419.58	3007.59
419.77	3005.25
419.96	3166.74
420.15	3356.33
420.34	3204.19
420.53	3251.00
420.72	3318.88
420.91	3386.76
421.10	3293.13
421.29	3389.10
421.48	3307.18
421.67	3335.26
421.86	3344.63
422.05	3396.12
422.24	3325.90
422.43	3297.81
422.61	3361.01
422.80	3552.93
422.99	3410.16
423.18	3328.24
423.37	3283.77
423.56	3419.52
423.75	3543.57
423.94	3480.38
424.13	3258.03
424.32	3260.37
424.50	3421.86
424.69	3506.12
424.88	3541.23
425.07	3346.97
425.26	3396.12
425.45	3454.63
425.64	3412.50
425.83	3358.67
426.01	3478.04
426.20	3482.72
426.39	3555.27
426.58	3501.44
426.77	3445.27
426.96	3487.40
427.15	3524.85
427.33	3702.73
427.52	3571.66
427.71	3576.34
427.90	3632.51
428.09	3632.51
428.28	3623.15
428.46	3667.62
428.65	3653.58
428.84	3796.35
429.03	3899.33
429.22	3588.04
429.40	3700.39
429.59	3737.84
429.78	3599.74
429.97	3599.74
430.16	3651.24
430.34	3889.97
430.53	3896.99
430.72	3779.97
430.91	3768.26
431.10	3885.29
431.28	4049.13
431.47	4084.23
431.66	3978.91
431.85	3904.01
432.03	4140.41
432.22	4098.28
432.41	4037.42
432.60	4163.81
432.79	4107.64
432.97	4210.62
433.16	4196.58
433.35	4072.53
433.54	4227.01
433.72	4222.33
433.91	4070.19
434.10	4227.01
434.28	4414.25
434.47	4348.72
434.66	4400.21
434.85	4189.56
435.03	4339.35
435.22	4166.15
435.41	4355.74
435.59	4365.10
435.78	4374.46
435.97	4477.44
436.16	4557.02
436.34	4327.65
436.53	4451.70
436.72	4580.43
436.90	4360.42
437.09	4692.77
437.28	4306.59
437.46	4566.39
437.65	4493.83
437.84	4746.61
438.02	4507.87
438.21	4535.96
438.40	4400.21
438.58	4802.78
438.77	4936.19
438.96	4741.93
439.14	4723.20
439.33	4922.15
439.52	5022.79
439.70	4957.25
439.89	4933.85
440.08	4957.25
440.26	5207.69
440.45	5025.13
440.63	5088.32
440.82	5203.01
441.01	5083.64
441.19	5172.58
441.38	5352.81
441.57	5373.87
441.75	5416.00
441.94	5493.24
442.12	5322.38
442.31	5481.53
442.50	5535.37
442.68	5626.65
442.87	5383.23
443.05	5586.86
443.24	5589.20
443.43	5434.72
443.61	5509.62
443.80	5724.95
443.98	5458.13
444.17	5404.30
444.35	5687.50
444.54	5638.35
444.73	5607.92
444.91	5689.84
445.10	5724.95
445.28	5661.76
445.47	5664.10
445.65	5652.39
445.84	5762.40
446.02	5783.46
446.21	5736.65
446.39	5778.78
446.58	5888.79
446.77	5682.82
446.95	5708.57
447.14	5818.57
447.32	5818.57
447.51	5762.40
447.69	5856.02
447.88	5816.23
448.06	5930.92
448.25	6005.81
448.43	5865.38
448.62	5870.06
448.80	5839.64
448.99	5818.57
449.17	5949.64
449.36	5947.30
449.54	6200.08
449.73	6080.71
449.91	6106.46
450.10	6237.53
450.28	6195.40
450.46	6125.18
450.65	6314.77
450.83	6361.58
451.02	6080.71
451.20	6279.66
451.39	6342.85
451.57	6321.79
451.76	6253.91
451.94	6373.28
452.13	6317.11
452.31	6289.02
452.49	6190.72
452.68	6312.42
452.86	6403.71
453.05	6424.77
453.23	6415.41
453.42	6321.79
453.60	6387.32
453.78	6569.88
453.97	6370.94
454.15	6558.18
454.34	6410.73
454.52	6682.23
454.70	6773.51
454.89	6628.40
455.07	6619.04
455.26	6754.79
455.44	6600.31
455.62	6867.13
455.81	6623.72
455.99	6785.21
456.17	6803.94
456.36	6808.62
456.54	6738.40
456.73	6778.19
456.91	7073.10
457.09	6937.35
457.28	7225.23
457.46	7070.76
457.64	7178.42
457.83	7180.76
458.01	7040.33
458.19	6979.48
458.38	7164.38
458.56	7208.85
458.74	7159.70
458.93	7232.26
459.11	7332.90
459.29	7288.43
459.48	7119.91
459.66	7323.54
459.84	7297.79
460.03	7548.23
460.21	7389.07
460.39	7447.58
460.57	7368.01
460.76	7646.53
460.94	7562.27
461.12	7595.04
461.31	7590.36
461.49	7569.29
461.67	7489.71
461.85	7590.36
462.04	7733.13
462.22	8018.68
462.40	7868.88
462.59	7756.54
462.77	7847.82
462.95	7812.71
463.13	7880.58
463.32	7779.94
463.50	7936.76
463.68	7854.84
463.86	7796.32
464.05	7957.82
464.23	7726.11
464.41	8063.15
464.59	7758.88
464.78	8058.46
464.96	7854.84
465.14	8009.31
465.32	8021.02
465.50	8217.62
465.69	8173.15
465.87	8002.29
466.05	8475.08
466.23	8332.31
466.41	7976.55
466.60	8318.26
466.78	8072.51
466.96	8215.28
467.14	8126.34
467.32	8241.03
467.51	8528.91
467.69	7992.93
467.87	8264.43
468.05	8313.58
468.23	8311.24
468.41	8470.40
468.60	8325.29
468.78	8475.08
468.96	8390.82
469.14	8421.25
469.32	8795.73
469.50	8313.58
469.69	8498.49
469.87	8856.59
470.05	8816.80
470.23	8681.05
470.41	8830.84
470.59	8901.06
470.77	8702.11
470.95	9039.15
471.14	9100.00
471.32	8924.46
471.50	9210.01
471.68	9102.34
471.86	9011.06
472.04	9390.23
472.22	9198.31
472.40	8980.64
472.58	9231.07
472.77	9238.09
472.95	9371.50
473.13	9724.93
473.31	9406.61
473.49	9385.55
473.67	9226.39
473.85	9371.50
474.03	9731.95
474.21	9664.07
474.39	9675.77
474.57	9628.96
474.75	10066.64
474.93	9834.93
475.12	9778.76
475.30	10031.54
475.48	9888.76
475.66	10122.82
475.84	10012.81
476.02	9987.07
476.20	10010.47
476.38	10370.91
476.56	10665.82
476.74	10476.24
476.92	10619.01
477.10	10513.69
477.28	10619.01
477.46	10640.08
477.64	10677.52
477.82	10813.28
478.00	11257.98
478.18	11171.38
478.36	11171.38
478.54	11248.61
478.72	11365.64
478.90	11293.08
479.08	11534.16
479.26	11599.70
479.44	11735.45
479.62	11836.09
479.80	11976.52
479.98	11978.86
480.16	12156.74
480.34	11812.68
480.52	12388.46
480.70	12257.39
480.88	12044.40
481.06	12175.47
481.24	12512.50
481.41	12599.10
481.59	12767.62
481.77	13062.53
481.95	13081.25
482.13	12987.63
482.31	12727.83
482.49	13348.08
482.67	13268.50
482.85	13294.24
483.03	13479.15
483.21	13432.33
483.39	13453.40
483.57	13554.04
483.74	13888.74
483.92	14061.94
484.10	13671.07
484.28	14083.00
484.46	14342.80
484.64	14462.17
484.82	14221.10
485.00	14597.92
485.18	14862.40
485.35	14876.44
485.53	14637.71
485.71	14558.13
485.89	15000.49
486.07	15190.08
486.25	15056.67
486.43	15030.92
486.61	15463.92
486.78	15583.29
486.96	15688.61
487.14	15740.10
487.32	15885.22
487.50	16166.08
487.68	16458.65
487.85	16341.62
488.03	16610.78
488.21	16592.06
488.39	16823.77
488.57	16901.01
488.75	16840.15
488.92	17331.67
489.10	17418.27
489.28	17334.01
489.46	17465.08
489.64	17422.95
489.81	18012.76
489.99	18122.77
490.17	18237.45
490.35	18377.89
490.53	18228.09
490.70	18593.22
490.88	18707.90
491.06	18803.86
491.24	18836.63
491.41	18696.20
491.59	18892.80
491.77	18693.86
491.95	19021.53
492.13	19239.20
492.30	19557.52
492.48	19735.40
492.66	19288.35
492.84	19524.75
493.01	19908.60
493.19	19810.29
493.37	20388.41
493.54	20102.86
493.72	20126.27
493.90	20442.24
494.08	20393.09
494.25	20812.04
494.43	20821.41
494.61	20985.24
494.79	21167.80
494.96	21153.76
495.14	21053.12
495.32	21282.49
495.49	21518.89
495.67	21649.96
495.85	21771.66
496.02	21626.55
496.20	21862.94
496.38	22125.08
496.55	22120.40
496.73	22370.84
496.91	22190.62
497.09	22398.93
497.26	22546.38
497.44	22597.87
497.62	22829.59
497.79	22916.19
497.97	22654.05
498.14	22817.88
498.32	23571.54
498.50	23117.47
498.67	23220.45
498.85	23351.52
499.03	23431.10
499.20	23702.61
499.38	23864.10
499.56	23655.79
499.73	24039.64
499.91	24313.48
500.08	23948.36
500.26	23922.62
500.44	24168.37
500.61	24318.17
500.79	24187.10
500.97	24542.86
501.14	24844.79
501.32	24594.35
501.49	24940.75
501.67	25158.42
501.84	24971.18
502.02	24950.11
502.20	25235.66
502.37	25149.06
502.55	25305.87
502.72	25427.58
502.90	25701.42
503.07	25301.19
503.25	25497.80
503.43	25385.45
503.60	25881.64
503.78	25502.48
503.95	25729.51
504.13	26204.64
504.30	26108.68
504.48	26190.59
504.65	26185.91
504.83	26345.07
505.01	26242.09
505.18	26349.75
505.36	26712.53
505.53	26654.02
505.71	26885.73
505.88	26904.46
506.06	26923.18
506.23	26951.27
506.41	27040.21
506.58	26979.36
506.76	27300.01
506.93	27728.33
507.11	27133.83
507.28	27370.22
507.46	27405.33
507.63	27402.99
507.81	27505.98
507.98	27718.96
508.16	27775.14
508.33	28081.75
508.50	28191.75
508.68	28191.75
508.85	28254.95
509.03	28016.21
509.20	28524.11
509.38	28779.23
509.55	28641.14
509.73	28687.95
509.90	28699.65
510.08	28538.15
510.25	28500.70
510.42	29120.95
510.60	29041.37
510.77	28950.09
510.95	29460.32
511.12	28790.93
511.30	29032.00
511.47	29722.46
511.64	29275.42
511.82	29675.65
511.99	29589.05
512.17	29462.66
512.34	29628.84
512.51	29773.95
512.69	29930.77
512.86	29792.68
513.04	30497.18
513.21	30291.21
513.38	30054.82
513.56	30403.56
513.73	30190.57
513.90	30401.22
514.08	30646.97
514.25	30513.56
514.43	30471.43
514.60	30553.35
514.77	30778.04
514.95	31047.21
515.12	30852.94
515.29	30831.88
515.47	30850.60
515.64	31112.74
515.81	30892.73
515.99	31000.40
516.16	31253.17
516.33	31042.53
516.51	31751.71
516.68	31344.45
516.85	31070.61
517.03	31330.41
517.20	31484.89
517.37	31400.63
517.54	31952.99
517.72	31576.17
517.89	31498.93
518.06	31562.12
518.24	31601.91
518.41	31379.56
518.58	31594.89
518.75	31833.63
518.93	32393.01
519.10	32149.60
519.27	32634.09
519.45	32353.23
519.62	32898.57
519.79	32519.40
519.96	32900.91
520.14	32723.03
520.31	32711.33
520.48	33090.49
520.65	32493.66
520.83	33312.84
521.00	33338.59
521.17	33303.48
521.34	33156.03
521.52	33256.67
521.69	33277.74
521.86	33373.70
522.03	33591.37
522.20	33453.28
522.38	33530.51
522.55	33713.08
522.72	33839.47
522.89	33907.34
523.07	34323.96
523.24	33603.07
523.41	34157.78
523.58	33834.78
523.75	34548.65
523.92	33977.56
524.10	34010.32
524.27	34181.18
524.44	34260.76
524.61	34190.55
524.78	34628.23
524.96	34710.14
525.13	35393.58
525.30	34604.82
525.47	35117.40
525.64	34721.85
525.81	34771.00
525.98	34693.76
526.16	34579.07
526.33	34785.04
526.50	35133.78
526.67	34742.91
526.84	35306.98
527.01	34677.38
527.18	34871.64
527.36	35136.12
527.53	35796.15
527.70	35805.52
527.87	35608.91
528.04	35496.56
528.21	35915.52
528.38	35583.16
528.55	35793.81
528.72	36154.26
528.89	35828.92
529.07	36081.70
529.24	36058.29
529.41	35976.37
529.58	35950.63
529.75	36065.31
529.92	36430.44
530.09	36229.15
530.26	36205.75
530.43	36631.72
530.60	35964.67
530.77	36313.41
530.94	36369.58
531.11	36423.42
531.28	36713.64
531.46	36645.77
531.63	36676.19
531.80	36851.73
531.97	36823.65
532.14	36292.35
532.31	36715.98
532.48	36790.88
532.65	36961.74
532.82	37008.55
532.99	37046.00
533.16	36954.72
533.33	37088.13
533.50	37586.66
533.67	37167.71
533.84	36807.26
534.01	37137.28
534.18	37383.04
534.35	37661.56
534.52	37656.88
534.69	37565.60
534.86	37453.25
535.03	37493.04
535.20	37516.45
535.37	38040.73
535.54	37886.25
535.71	37942.42
535.88	37696.67
536.05	37855.82
536.22	37811.35
536.38	37794.97
536.55	37968.17
536.72	38251.38
536.89	38167.12
537.06	37972.85
537.23	38253.72
537.40	38148.39
537.57	38218.61
537.74	38024.34
537.91	38932.47
538.08	38476.07
538.25	38342.66
538.42	38705.44
538.59	38539.26
538.75	38389.47
538.92	38469.04
539.09	38677.35
539.26	38670.33
539.43	38700.76
539.60	38829.49
539.77	38623.52
539.94	38925.45
540.11	39213.34
540.28	38983.96
540.44	38939.49
540.61	38960.56
540.78	39093.97
540.95	38700.76
541.12	39115.03
541.29	39000.35
541.46	38721.82
541.62	39079.92
541.79	39641.65
541.96	39243.76
542.13	39407.60
542.30	39386.54
542.47	39693.15
542.63	39442.71
542.80	39491.86
542.97	40285.30
543.14	40147.21
543.31	39817.19
543.48	40254.87
543.64	40341.47
543.81	39927.20
543.98	39763.36
544.15	39934.22
544.32	40112.10
544.48	40662.13
544.65	40624.68
544.82	40725.32
544.99	39974.01
545.16	40404.67
545.32	39758.68
545.49	40500.63
545.66	40678.51
545.83	40526.38
546.00	40381.26
546.16	40727.66
546.33	40339.13
546.50	39887.41
546.67	40596.59
546.83	39992.73
547.00	40289.98
547.17	40472.54
547.34	40744.05
547.50	40357.86
547.67	41263.64
547.84	40842.35
548.00	41155.98
548.17	41450.89
548.34	41170.02
548.51	41446.21
548.67	41254.28
548.84	41214.49
549.01	41322.16
549.18	41191.09
549.34	41483.66
549.51	41420.46
549.68	41663.88
549.84	41308.11
550.01	41443.87
550.18	41375.99
550.34	41605.36
550.51	41710.69
550.68	41731.75
550.84	41181.73
551.01	41574.94
551.18	41827.71
551.34	41258.96
551.51	41844.10
551.68	41588.98
551.84	41670.90
552.01	41464.93
552.18	41710.69
552.34	41682.60
552.51	41766.86
552.68	41771.54
552.84	42050.06
553.01	42373.06
553.18	42286.46
553.34	41911.97
553.51	41635.79
553.67	41804.31
553.84	42635.20
554.01	42108.58
554.17	42492.43
554.34	42274.76
554.51	42146.03
554.67	42504.13
554.84	41713.03
555.00	41944.74
555.17	42424.55
555.33	42515.83
555.50	42253.69
555.67	42333.27
555.83	42291.14
556.00	42773.29
556.16	42780.31
556.33	42452.64
556.50	42429.23
556.66	42621.16
556.83	42302.84
556.99	43091.60
557.16	42738.18
557.32	43054.15
557.49	42700.73
557.65	43077.56
557.82	42916.06
557.98	42574.34
558.15	42822.44
558.32	42588.39
558.48	42909.04
558.65	43042.45
558.81	42525.19
558.98	42714.78
559.14	43302.25
559.31	42923.08
559.47	43054.15
559.64	43363.11
559.80	42958.19
559.97	43463.75
560.13	42518.17
560.30	42777.97
560.46	42775.63
560.63	42911.38
560.79	42831.80
560.96	43213.31
561.12	43398.21
561.29	42813.08
561.45	43419.28
561.61	43182.88
561.78	43105.65
561.94	42986.28
562.11	43112.67
562.27	43042.45
562.44	42883.30
562.60	43316.29
562.77	43313.95
562.93	43363.11
563.10	43632.27
563.26	43241.40
563.42	43594.82
563.59	43395.87
563.75	43164.16
563.92	43615.88
564.08	43356.08
564.24	43618.22
564.41	43529.28
564.57	43868.66
564.74	43482.47
564.90	43866.32
565.07	43679.08
565.23	43447.36
565.39	43517.58
565.56	43796.10
565.72	43044.79
565.88	43697.80
566.05	43468.43
566.21	43374.81
566.38	43540.99
566.54	44121.44
566.70	44341.45
566.87	43765.68
567.03	43716.53
567.19	44194.00
567.36	43536.30
567.52	43529.28
567.68	43854.62
567.85	43604.18
568.01	43796.10
568.17	43288.21
568.34	43849.94
568.50	43522.26
568.66	43842.92
568.83	43578.43
568.99	43232.04
569.15	43800.79
569.32	43276.51
569.48	43711.84
569.64	43976.33
569.81	44041.86
569.97	43524.60
570.13	43676.74
570.30	43421.62
570.46	43564.39
570.62	43412.26
570.78	43730.57
570.95	43393.53
571.11	43871.00
571.27	43288.21
571.43	43690.78
571.60	44346.13
571.76	43861.64
571.92	43730.57
572.09	43765.68
572.25	43643.97
572.41	43751.63
572.57	44032.50
572.74	44151.87
572.90	43889.73
573.06	44161.23
573.22	43910.79
573.38	43941.22
573.55	43412.26
573.71	43931.86
573.87	43695.46
574.03	43735.25
574.20	43938.88
574.36	44023.14
574.52	43831.21
574.68	44156.55
574.84	43828.87
575.01	43894.41
575.17	43882.70
575.33	43735.25
575.49	44135.48
575.65	44142.50
575.82	44144.84
575.98	44172.93
576.14	44444.43
576.30	44648.06
576.46	44154.21
576.62	43838.23
576.79	43999.73
576.95	43922.49
577.11	44320.38
577.27	43721.21
577.43	44081.65
577.59	44425.71
577.75	43723.55
577.92	44044.20
578.08	43632.27
578.24	43880.36
578.40	43992.71
578.56	44378.90
578.72	43782.06
578.88	44161.23
579.04	44179.95
579.21	43688.44
579.37	44252.51
579.53	44074.63
579.69	43824.19
579.85	44179.95
580.01	44154.21
580.17	44130.80
580.33	44608.27
580.49	44776.79
580.65	44083.99
580.82	44446.77
580.98	44484.22
581.14	44076.97
581.30	44524.01
581.46	44224.42
581.62	44046.54
581.78	44346.13
581.94	44472.52
582.10	44451.45
582.26	44069.95
582.42	44549.76
582.58	43899.09
582.74	44360.17
582.90	44154.21
583.06	44067.61
583.22	44737.00
583.38	44418.69
583.54	44538.05
583.70	44116.76
583.86	44411.67
584.02	43894.41
584.18	44327.41
584.34	44467.84
584.50	44327.41
584.66	44378.90
584.82	44102.71
584.98	44385.92
585.14	44758.06
585.30	43873.34
585.46	43988.03
585.62	43690.78
585.78	43922.49
585.94	43894.41
586.10	43761.00
586.26	44259.53
586.42	44243.15
586.58	44184.63
586.74	44891.48
586.90	44032.50
587.06	44320.38
587.22	44282.94
587.38	43475.45
587.54	44385.92
587.70	44615.29
587.86	44292.30
588.02	44406.98
588.18	44531.03
588.34	44060.58
588.49	43702.48
588.65	43948.24
588.81	43868.66
588.97	44233.78
589.13	44296.98
589.29	44133.14
589.45	44854.03
589.61	44430.39
589.77	44540.39
589.93	44680.83
590.08	44676.15
590.24	44844.66
590.40	44783.81
590.56	44694.87
590.72	44594.23
590.88	44053.56
591.04	44954.67
591.20	44596.57
591.35	44626.99
591.51	45020.20
591.67	44760.40
591.83	44760.40
591.99	44222.08
592.15	44194.00
592.31	44325.07
592.46	43892.07
592.62	44694.87
592.78	44495.92
592.94	44622.31
593.10	44863.39
593.26	45095.10
593.41	44959.35
593.57	44320.38
593.73	44381.24
593.89	44854.03
594.05	44484.22
594.20	44664.44
594.36	44875.09
594.52	44622.31
594.68	44432.73
594.84	44671.46
594.99	45085.74
595.15	44903.18
595.31	45059.99
595.47	45137.23
595.62	44694.87
595.78	44903.18
595.94	44924.24
596.10	45188.72
596.25	44762.75
596.41	45132.55
596.57	44954.67
596.73	44816.58
596.88	44673.81
597.04	44540.39
597.20	44641.04
597.36	44418.69
597.51	45064.67
597.67	44563.80
597.83	44912.54
597.99	45008.50
598.14	44729.98
598.30	44406.98
598.46	44938.29
598.61	45104.46
598.77	44371.88
598.93	44987.44
599.09	44912.54
599.24	45184.04
599.40	44839.98
599.56	44692.53
599.71	45141.91
599.87	44872.75
600.03	44755.72
600.18	44718.28
600.34	44877.43
600.50	44854.03
600.65	44453.79
600.81	44994.46
600.97	45132.55
601.12	45240.21
601.28	45270.64
601.44	44690.19
601.59	44891.48
601.75	44657.42
601.91	44383.58
602.06	44790.83
602.22	44856.37
602.37	44694.87
602.53	44851.69
602.69	44847.00
602.84	44905.52
603.00	45160.64
603.16	44729.98
603.31	44711.25
603.47	44720.62
603.62	44432.73
603.78	44722.96
603.94	45010.84
604.09	45027.23
604.25	45031.91
604.40	44755.72
604.56	44779.13
604.71	44999.14
604.87	44893.82
605.03	44858.71
605.18	44456.14
605.34	44781.47
605.49	44484.22
605.65	44278.25
605.80	44914.88
605.96	44605.93
606.12	45006.16
606.27	44662.10
606.43	44474.86
606.58	44809.56
606.74	44751.04
606.89	44610.61
607.05	44612.95
607.20	44708.91
607.36	44821.26
607.51	44947.65
607.67	44676.15
607.82	44697.21
607.98	44264.21
608.13	44140.16
608.29	44397.62
608.44	44261.87
608.60	43938.88
608.75	43821.85
608.91	44367.20
609.06	44357.83
609.22	44755.72
609.37	44201.02
609.53	44273.57
609.68	44502.95
609.84	44320.38
609.99	44301.66
610.15	44369.54
610.30	44308.68
610.46	44163.57
610.61	43992.71
610.76	44540.39
610.92	43777.38
611.07	43704.82
611.23	44093.35
611.38	44617.63
611.54	44051.22
611.69	44404.64
611.84	43950.58
612.00	43899.09
612.15	43828.87
612.31	44201.02
612.46	43821.85
612.62	44308.68
612.77	44186.97
612.92	44308.68
613.08	43826.53
613.23	44037.18
613.39	43805.47
613.54	44037.18
613.69	43814.83
613.85	43550.35
614.00	43992.71
614.15	44116.76
614.31	44186.97
614.46	44332.09
614.62	43723.55
614.77	43753.97
614.92	43676.74
615.08	43702.48
615.23	43573.75
615.38	43566.73
615.54	43545.67
615.69	43681.42
615.84	43725.89
616.00	43555.03
616.15	43700.14
616.30	43908.45
616.46	43543.33
616.61	43594.82
616.76	43594.82
616.92	43370.13
617.07	43320.98
617.22	43428.64
617.37	43531.62
617.53	43833.55
617.68	43583.12
617.83	43772.70
617.99	43264.80
618.14	43697.80
618.29	43217.99
618.45	43091.60
618.60	43208.63
618.75	43089.26
618.90	43138.41
619.06	43220.33
619.21	42595.41
619.36	43419.28
619.51	42955.85
619.67	43260.12
619.82	43098.62
619.97	43143.09
620.12	42738.18
620.28	42871.59
620.43	43007.34
620.58	43145.44
620.73	42979.26
620.89	43035.43
621.04	42686.69
621.19	43241.40
621.34	43164.16
621.49	42593.07
621.65	42658.60
621.80	42820.10
621.95	42574.34
622.10	42625.84
622.25	42609.45
622.41	42335.61
622.56	42777.97
622.71	42972.24
622.86	42745.20
623.01	42815.42
623.16	42866.91
623.32	42712.44
623.47	42705.41
623.62	42391.78
623.77	42380.08
623.92	42696.05
624.07	42080.49
624.23	42590.73
624.38	42534.56
624.53	42487.74
624.68	42087.51
624.83	42045.38
624.98	42176.45
625.13	42274.76
625.29	42167.09
625.44	42396.46
625.59	42471.36
625.74	41907.29
625.89	41633.45
626.04	41603.02
626.19	41947.08
626.34	42014.96
626.49	42651.58
626.65	41844.10
626.80	42073.47
626.95	41769.20
627.10	42099.22
627.25	41359.61
627.40	41507.06
627.55	41654.51
627.70	41663.88
627.85	41617.07
628.00	41471.95
628.15	42183.48
628.30	41411.10
628.45	41310.46
628.60	41689.62
628.76	41708.35
628.91	41769.20
629.06	41493.02
629.21	41659.20
629.36	41729.41
629.51	41429.82
629.66	41488.34
629.81	41352.58
629.96	41354.93
630.11	41792.61
630.26	41483.66
630.41	41254.28
630.56	41055.34
630.71	41258.96
630.86	41022.57
631.01	40975.76
631.16	41113.85
631.31	40868.09
631.46	40793.20
631.61	41397.06
631.76	41294.07
631.91	41380.67
632.06	41120.87
632.21	41493.02
632.36	41504.72
632.51	40994.48
632.66	40645.74
632.81	40662.13
632.96	40828.30
633.10	40442.12
633.25	40690.21
633.40	40680.85
633.55	40926.61
633.70	40760.43
633.85	40603.61
634.00	40802.56
634.15	41053.00
634.30	40730.00
634.45	40671.49
634.60	40725.32
634.75	40872.78
634.90	40271.26
635.05	40545.10
635.19	41027.25
635.34	40720.64
635.49	40627.02
635.64	40151.89
635.79	40275.94
635.94	40194.02
636.09	39882.73
636.24	40121.46
636.39	39864.00
636.53	40041.88
636.68	39660.38
636.83	39978.69
636.98	40044.23
637.13	40399.99
637.28	40402.33
637.43	40044.23
637.57	40641.06
637.72	39805.49
637.87	39723.57
638.02	40437.44
638.17	39885.07
638.32	39693.15
638.46	39634.63
638.61	39578.46
638.76	39704.85
638.91	39861.66
639.06	39665.06
639.20	39545.69
639.35	40072.31
639.50	39854.64
639.65	40116.78
639.80	39751.66
639.94	39739.96
640.09	39445.05
640.24	39569.10
640.39	39264.83
640.54	39384.19
640.68	39093.97
640.83	39496.54
640.98	39772.72
641.13	39723.57
641.27	39559.73
641.42	39178.23
641.57	39452.07
641.72	39360.79
641.86	39058.86
642.01	39100.99
642.16	39196.95
642.31	38920.77
642.45	39196.95
642.60	39194.61
642.75	39140.78
642.90	39264.83
643.04	39070.56
643.19	39393.56
643.34	38904.38
643.48	39154.82
643.63	39398.24
643.78	39047.16
643.93	38782.68
644.07	38623.52
644.22	38829.49
644.37	38148.39
644.51	38899.70
644.66	38932.47
644.81	39337.38
644.95	39391.22
645.10	39136.10
645.25	39016.73
645.39	38782.68
645.54	38616.50
645.69	38719.48
645.83	38272.44
645.98	38998.01
646.13	39140.78
646.27	38677.35
646.42	38675.01
646.57	38728.84
646.71	38911.41
646.86	38522.88
647.00	38972.26
647.15	38831.83
647.30	38824.81
647.44	38873.96
647.59	38398.83
647.74	38480.75
647.88	38305.21
648.03	38220.95
648.17	38642.24
648.32	37902.64
648.47	38368.40
648.61	38113.28
648.76	38815.44
648.90	38490.11
649.05	38469.04
649.20	38349.68
649.34	38403.51
649.49	38050.09
649.63	38326.27
649.78	38410.53
649.92	37989.24
650.07	38806.08
650.21	37710.71
650.36	37853.48
650.51	38160.09
650.65	38546.28
650.80	38583.73
650.94	38092.22
651.09	38059.45
651.23	37668.58
651.38	37804.33
651.52	37895.61
651.67	37947.11
651.81	37614.75
651.96	37523.47
652.10	37982.21
652.25	37439.21
652.39	37565.60
652.54	38132.01
652.68	37799.65
652.83	38022.00
652.97	37497.72
653.12	37368.99
653.26	37076.43
653.41	37816.04
653.55	37298.78
653.70	37268.35
653.84	37591.34
653.99	37591.34
654.13	37881.57
654.27	37535.17
654.42	37488.36
654.56	37663.90
654.71	37291.76
654.85	37221.54
655.00	37258.99
655.14	37097.49
655.29	37029.62
655.43	36816.63
655.57	36767.48
655.72	37174.73
655.86	36926.63
656.01	36730.03
656.15	36774.50
656.30	36786.20
656.44	36582.57
656.58	36910.25
656.73	36755.77
656.87	36641.09
657.01	36290.01
657.16	36734.71
657.30	36315.75
657.45	36507.68
657.59	37041.32
657.73	36180.00
657.88	36898.55
658.02	36275.96
658.16	36594.28
658.31	37017.91
658.45	36442.14
658.60	35749.34
658.74	36479.59
658.88	36517.04
659.03	36437.46
659.17	36107.44
659.31	35826.58
659.46	36247.88
659.60	36133.19
659.74	36009.14
659.89	35929.56
660.03	36240.86
660.17	36259.58
660.32	36114.47
660.46	36154.26
660.60	36151.91
660.74	36367.24
660.89	35941.27
661.03	35592.53
661.17	35566.78
661.32	35845.30
661.46	35541.03
661.60	35503.59
661.74	35363.15
661.89	35594.87
662.03	35344.43
662.17	35728.28
662.31	35346.77
662.46	35218.04
662.60	35878.07
662.74	35187.61
662.88	35213.36
663.03	35281.24
663.17	35119.74
663.31	35040.16
663.45	34895.05
663.60	34785.04
663.74	34700.78
663.88	34565.03
664.02	34689.08
664.17	34471.41
664.31	34572.05
664.45	34452.69
664.59	34747.59
664.73	34855.26
664.88	34440.98
665.02	34323.96
665.16	34520.56
665.30	34623.54
665.44	34520.56
665.59	33797.34
665.73	34237.36
665.87	34136.71
666.01	33984.58
666.15	34464.39
666.29	34162.46
666.44	34302.89
666.58	33937.77
666.72	33792.65
666.86	34281.83
667.00	34373.11
667.14	33635.84
667.28	33614.77
667.43	33432.21
667.57	34022.03
667.71	33343.27
667.85	33706.05
667.99	33617.11
668.13	33027.30
668.27	33429.87
668.41	33392.42
668.56	32879.85
668.70	33230.93
668.84	33106.88
668.98	33195.82
669.12	33034.32
669.26	33151.35
669.40	33186.46
669.54	33043.68
669.68	33027.30
669.82	32486.64
669.96	32891.55
670.10	32460.89
670.25	33013.26
670.39	32510.04
670.53	32142.58
670.67	32481.95
670.81	32699.62
670.95	32580.26
671.09	32545.15
671.23	32503.02
671.37	32395.35
671.51	31859.37
671.65	32133.21
671.79	32004.49
671.93	31548.08
672.07	32315.78
672.21	32037.25
672.35	31655.75
672.49	31651.06
672.63	32060.66
672.77	31578.51
672.91	31819.58
673.05	31349.14
673.19	31402.97
673.33	30682.08
673.47	31421.69
673.61	30913.80
673.75	30941.88
673.89	31051.89
674.03	30693.79
674.17	30862.30
674.31	30897.41
674.45	30644.63
674.59	30881.03
674.73	31033.16
674.87	30771.02
675.01	30639.95
675.15	30888.05
675.29	30827.20
675.43	30728.89
675.56	30644.63
675.70	30068.86
675.84	29984.60
675.98	29163.08
676.12	30206.95
676.26	29926.09
676.40	29457.98
676.54	29883.96
676.68	29752.89
676.82	29242.65
676.96	29509.47
677.10	29352.66
677.23	29352.66
677.37	29685.01
677.51	28947.75
677.65	28767.52
677.79	28418.78
677.93	28900.94
678.07	28666.88
678.21	28945.41
678.34	28568.58
678.48	28271.33
678.62	28425.81
678.76	28161.33
678.90	28430.49
679.04	28088.77
679.18	28362.61
679.31	27821.95
679.45	27775.14
679.59	27501.29
679.73	27735.35
679.87	27740.03
680.00	27672.15
680.14	27639.39
680.28	27433.42
680.42	27049.57
680.56	27225.11
680.70	27281.28
680.83	26993.40
680.97	26923.18
681.11	26876.37
681.25	26785.09
681.39	26628.27
681.52	26761.69
681.66	26946.59
681.80	26642.32
681.94	26656.36
682.07	26668.06
682.21	26160.17
682.35	26281.88
682.49	26057.18
682.62	26387.20
682.76	26071.23
682.90	25603.12
683.04	25617.16
683.17	25598.44
683.31	25790.36
683.45	25696.74
683.59	25743.55
683.72	25497.80
683.86	24900.96
684.00	25191.19
684.13	25226.29
684.27	25095.22
684.41	25027.35
684.55	24783.93
684.68	24568.60
684.82	24570.94
684.96	24734.78
685.09	24453.92
685.23	24325.19
685.37	24489.03
685.50	24479.66
685.64	24381.36
685.78	24238.59
685.91	24027.94
686.05	23871.12
686.19	23583.24
686.32	23623.03
686.46	23498.98
686.60	23309.40
686.73	23903.89
686.87	23227.48
687.01	23187.69
687.14	23065.98
687.28	22632.98
687.42	22883.42
687.55	22827.24
687.69	23211.09
687.82	23098.75
687.96	22604.89
688.10	22885.76
688.23	22319.35
688.37	22398.93
688.50	22169.55
688.64	22185.94
688.78	22157.85
688.91	22061.89
689.05	22321.69
689.18	22029.12
689.32	21553.99
689.46	21699.11
689.59	22134.45
689.73	21881.67
689.86	21696.77
690.00	21528.25
690.13	22033.80
690.27	21443.99
690.41	21357.39
690.54	21263.77
690.68	21102.27
690.81	20821.41
690.95	21149.08
691.08	20896.30
691.22	21135.04
691.35	20718.42
691.49	20491.39
691.62	20524.16
691.76	20339.26
691.89	20585.01
692.03	20512.46
692.16	20390.75
692.30	20201.16
692.43	20201.16
692.57	20109.88
692.70	19946.05
692.84	19683.91
692.97	19885.19
693.11	19501.34
693.24	19590.28
693.38	19702.63
693.51	19218.14
693.65	19489.64
693.78	19702.63
693.92	19370.27
694.05	19077.71
694.19	19009.83
694.32	19304.74
694.45	19033.24
694.59	18829.61
694.72	18911.53
694.86	18913.87
694.99	18466.83
695.13	18764.07
695.26	18391.93
695.39	18197.67
695.53	18164.90
695.66	18415.34
695.80	18300.65
695.93	18373.21
696.07	17572.74
696.20	18015.10
696.33	17797.43
696.47	17961.27
696.60	17755.30
696.73	17811.48
696.87	17914.46
697.00	17568.06
697.14	17612.53
697.27	17514.23
697.40	17476.78
697.54	17404.22
697.67	17193.58
697.80	17062.51
697.94	17071.87
698.07	16723.13
698.21	17006.33
698.34	16751.21
698.47	16648.23
698.61	16620.14
698.74	16444.60
698.87	16650.57
699.01	16512.48
699.14	16393.11
699.27	16074.80
699.40	16245.66
699.54	16044.37
699.67	15831.38
699.80	16112.25
699.94	15915.64
700.07	15712.02
700.20	15744.78
700.34	15721.38
700.47	15793.94
700.60	15749.46
700.73	15779.89
700.87	15536.48
701.00	15199.44
701.13	15356.25
701.26	15211.14
701.40	15169.01
701.53	15208.80
701.66	15337.53
701.79	15145.61
701.93	15096.46
702.06	14721.97
702.19	14944.32
702.32	14743.03
702.46	14471.53
702.59	14560.47
702.72	14600.26
702.85	14560.47
702.99	14640.05
703.12	14621.33
703.25	14141.52
703.38	14366.21
703.51	14249.18
703.65	14015.13
703.78	14127.47
703.91	14064.28
704.04	14375.57
704.17	14017.47
704.31	13811.50
704.44	13521.27
704.57	13720.22
704.70	13446.38
704.83	13673.41
704.96	13628.94
705.10	13460.42
705.23	13610.22
>>>>>End Processed Spectral Data<<<<<
