SpectraSuite Data File
++++++++++++++++++++++++++++++++++++
Date: Fri Oct 25 10:47:01 EDT 2013
User: price-jones
Dark Spectrum Present: No
Reference Spectrum Present: No
Number of Sampled Component Spectra: 1
Spectrometers: USB2+H05261
Integration Time (usec): 100000 (USB2+H05261)
Spectra Averaged: 1 (USB2+H05261)
Boxcar Smoothing: 0 (USB2+H05261)
Correct for Electrical Dark: No (USB2+H05261)
Strobe/Lamp Enabled: No (USB2+H05261)
Correct for Detector Non-linearity: No (USB2+H05261)
Correct for Stray Light: No (USB2+H05261)
Number of Pixels in Processed Spectrum: 2048
>>>>>Begin Processed Spectral Data<<<<<
365.73	119.37
365.92	119.37
366.12	119.37
366.32	93.62
366.52	102.98
366.72	25.75
366.91	11.70
367.11	117.03
367.31	0.00
367.51	0.00
367.70	0.00
367.90	93.62
368.10	21.06
368.30	46.81
368.49	28.09
368.69	51.49
368.89	42.13
369.09	16.38
369.28	88.94
369.48	72.56
369.68	128.73
369.87	46.81
370.07	110.01
370.27	117.03
370.47	248.10
370.66	369.80
370.86	397.89
371.06	404.91
371.25	547.69
371.45	418.96
371.65	484.49
371.84	514.92
372.04	503.22
372.24	538.32
372.44	447.04
372.63	477.47
372.83	538.32
373.03	486.83
373.22	535.98
373.42	564.07
373.62	540.66
373.81	528.96
374.01	564.07
374.21	561.73
374.40	601.52
374.60	575.77
374.79	547.69
374.99	528.96
375.19	566.41
375.38	550.03
375.58	582.79
375.78	627.26
375.97	610.88
376.17	648.33
376.37	564.07
376.56	594.50
376.76	589.82
376.95	596.84
377.15	596.84
377.35	568.75
377.54	716.20
377.74	568.75
377.93	636.63
378.13	667.05
378.33	667.05
378.52	594.50
378.72	615.56
378.91	718.54
379.11	592.16
379.31	564.07
379.50	620.24
379.70	669.39
379.89	688.12
380.09	636.63
380.28	702.16
380.48	552.37
380.68	641.31
380.87	643.65
381.07	711.52
381.26	720.88
381.46	718.54
381.65	746.63
381.85	734.93
382.04	603.86
382.24	653.01
382.43	706.84
382.63	699.82
382.83	758.33
383.02	744.29
383.22	849.61
383.41	741.95
383.61	713.86
383.80	791.10
384.00	772.38
384.19	784.08
384.39	645.99
384.58	730.25
384.78	697.48
384.97	741.95
385.17	685.78
385.36	842.59
385.56	737.27
385.75	765.36
385.95	791.10
386.14	816.85
386.34	784.08
386.53	816.85
386.72	826.21
386.92	830.89
387.11	795.78
387.31	814.51
387.50	767.70
387.70	903.45
387.89	814.51
388.09	840.25
388.28	842.59
388.48	882.38
388.67	863.66
388.86	957.28
389.06	851.96
389.25	959.62
389.45	882.38
389.64	898.77
389.84	903.45
390.03	938.55
390.22	1013.45
390.42	870.68
390.61	854.30
390.81	954.94
391.00	971.32
391.19	1004.09
391.39	976.00
391.58	994.73
391.78	990.05
391.97	983.02
392.16	912.81
392.36	1109.41
392.55	919.83
392.75	959.62
392.94	985.37
393.13	891.74
393.33	924.51
393.52	954.94
393.71	1121.12
393.91	1071.97
394.10	1043.88
394.29	1093.03
394.49	1172.61
394.68	1191.33
394.88	1163.25
395.07	1226.44
395.26	1198.35
395.46	1156.22
395.65	1235.80
395.84	1167.93
396.04	1219.42
396.23	1114.10
396.42	1200.69
396.62	1135.16
396.81	1163.25
397.00	1212.40
397.19	1235.80
397.39	1252.19
397.58	1261.55
397.77	1270.91
397.97	1210.06
398.16	1235.80
398.35	1406.66
398.55	1308.36
398.74	1373.89
398.93	1404.32
399.12	1425.39
399.32	1392.62
399.51	1380.92
399.70	1469.86
399.90	1432.41
400.09	1514.33
400.28	1425.39
400.47	1493.26
400.67	1509.65
400.86	1598.59
401.05	1547.09
401.24	1451.13
401.44	1521.35
401.63	1528.37
401.82	1577.52
402.01	1547.09
402.21	1664.12
402.40	1657.10
402.59	1638.38
402.78	1593.90
402.97	1563.48
403.17	1633.69
403.36	1603.27
403.55	1605.61
403.74	1722.63
403.93	1659.44
404.13	1675.82
404.32	1778.81
404.51	1675.82
404.70	1825.62
404.89	1685.19
405.09	1818.60
405.28	1713.27
405.47	1884.13
405.66	1827.96
405.85	1781.15
406.05	1741.36
406.24	1926.26
406.43	1818.60
406.62	1860.73
406.81	1956.69
407.00	1797.53
407.20	1940.30
407.39	1839.66
407.58	1933.28
407.77	2005.84
407.96	1966.05
408.15	2071.37
408.34	2045.63
408.54	2087.76
408.73	2033.93
408.92	2104.14
409.11	2122.87
409.30	2157.97
409.49	2120.53
409.68	2080.74
409.87	2038.61
410.07	2256.28
410.26	2230.53
410.45	2310.11
410.64	2317.13
410.83	2270.32
411.02	2420.11
411.21	2434.16
411.40	2345.22
411.59	2347.56
411.78	2375.64
411.98	2385.01
412.17	2413.09
412.36	2532.46
412.55	2499.69
412.74	2415.43
412.93	2558.21
413.12	2445.86
413.31	2541.82
413.50	2605.02
413.69	2663.53
413.88	2600.34
414.07	2775.88
414.26	2712.68
414.45	2775.88
414.64	2708.00
414.83	2738.43
415.02	2745.45
415.22	2937.37
415.41	2920.99
415.60	2906.95
415.79	2822.69
415.98	3023.97
416.17	2998.23
416.36	2942.05
416.55	3063.76
416.74	3028.65
416.93	2885.88
417.12	2953.76
417.31	3124.62
417.50	3098.87
417.69	3112.91
417.88	3199.51
418.07	3183.13
418.26	3246.32
418.45	3169.09
418.64	3300.16
418.83	3220.58
419.02	3222.92
419.21	3229.94
419.39	3325.90
419.58	3211.22
419.77	3220.58
419.96	3384.41
420.15	3449.95
420.34	3471.01
420.53	3480.38
420.72	3426.54
420.91	3515.48
421.10	3552.93
421.29	3660.60
421.48	3552.93
421.67	3489.74
421.86	3569.32
422.05	3655.92
422.24	3492.08
422.43	3447.61
422.61	3688.68
422.80	3574.00
422.99	3754.22
423.18	3538.89
423.37	3721.45
423.56	3702.73
423.75	3623.15
423.94	3641.87
424.13	3410.16
424.32	3557.61
424.50	3723.79
424.69	3756.56
424.88	3644.21
425.07	3676.98
425.26	3730.81
425.45	3644.21
425.64	3709.75
425.83	3632.51
426.01	3707.41
426.20	3756.56
426.39	3632.51
426.58	3538.89
426.77	3691.02
426.96	3667.62
427.15	3569.32
427.33	3686.34
427.52	3744.86
427.71	3768.26
427.90	3784.65
428.09	3854.86
428.28	3840.82
428.46	3857.20
428.65	3896.99
428.84	3955.51
429.03	3981.25
429.22	3859.54
429.40	3861.88
429.59	3833.80
429.78	3726.13
429.97	3686.34
430.16	3824.44
430.34	3948.48
430.53	3953.16
430.72	4004.66
430.91	3843.16
431.10	3969.55
431.28	4196.58
431.47	4400.21
431.66	4241.05
431.85	4149.77
432.03	4337.01
432.22	4379.14
432.41	4306.59
432.60	4358.08
432.79	4381.48
432.97	4463.40
433.16	4432.97
433.35	4285.52
433.54	4388.50
433.72	4315.95
433.91	4404.89
434.10	4482.13
434.28	4479.79
434.47	4550.00
434.66	4578.09
434.85	4629.58
435.03	4627.24
435.22	4550.00
435.41	4734.90
435.59	4713.84
435.78	4732.56
435.97	4734.90
436.16	4814.48
436.34	4699.80
436.53	4774.69
436.72	4748.95
436.90	4826.18
437.09	4943.21
437.28	4622.56
437.46	4730.22
437.65	4908.10
437.84	4830.87
438.02	4868.31
438.21	4828.53
438.40	4837.89
438.58	4940.87
438.77	5078.96
438.96	5057.90
439.14	5298.97
439.33	5228.76
439.52	5294.29
439.70	5357.49
439.89	5132.79
440.08	5338.76
440.26	5502.60
440.45	5334.08
440.63	5504.94
440.82	5509.62
441.01	5425.36
441.19	5521.32
441.38	5544.73
441.57	5600.90
441.75	5675.80
441.94	5818.57
442.12	5834.96
442.31	5937.94
442.50	5825.59
442.68	5907.51
442.87	6001.13
443.05	5940.28
443.24	6010.50
443.43	6076.03
443.61	5841.98
443.80	6029.22
443.98	5977.73
444.17	5909.85
444.35	5951.98
444.54	6179.01
444.73	6033.90
444.91	6122.84
445.10	5977.73
445.28	6101.78
445.47	5930.92
445.65	6029.22
445.84	6118.16
446.02	6258.59
446.21	6167.31
446.39	6069.01
446.58	6270.30
446.77	6176.67
446.95	6047.94
447.14	6216.46
447.32	6054.97
447.51	6141.57
447.69	6054.97
447.88	6216.46
448.06	6139.23
448.25	6176.67
448.43	6026.88
448.62	6169.65
448.80	6181.35
448.99	6455.20
449.17	6284.34
449.36	6354.55
449.54	6604.99
449.73	6567.54
449.91	6614.35
450.10	6574.56
450.28	6703.29
450.46	6670.53
450.65	6637.76
450.83	6637.76
451.02	6651.80
451.20	6691.59
451.39	6626.06
451.57	6619.04
451.76	6441.15
451.94	6738.40
452.13	6696.27
452.31	6691.59
452.49	6581.59
452.68	6794.58
452.86	6843.73
453.05	6780.53
453.23	6803.94
453.42	6902.24
453.60	6731.38
453.78	6867.13
453.97	6913.94
454.15	6895.22
454.34	6810.96
454.52	7021.61
454.70	7026.29
454.89	7002.88
455.07	6944.37
455.26	7162.04
455.44	7353.96
455.62	6927.99
455.81	7178.42
455.99	7222.89
456.17	7250.98
456.36	7468.65
456.54	7258.00
456.73	7328.22
456.91	7482.69
457.09	7578.65
457.28	7564.61
457.46	7478.01
457.64	7559.93
457.83	7613.76
458.01	7351.62
458.19	7698.02
458.38	7667.60
458.56	7613.76
458.74	7691.00
458.93	7482.69
459.11	7723.77
459.29	7637.17
459.48	7719.09
459.66	7606.74
459.84	7719.09
460.03	7836.11
460.21	7822.07
460.39	8049.10
460.57	8009.31
460.76	7943.78
460.94	7990.59
461.12	8138.04
461.31	7967.18
461.49	7941.44
461.67	7922.71
461.85	8081.87
462.04	7911.01
462.22	8512.53
462.40	8360.39
462.59	8072.51
462.77	8243.37
462.95	8184.85
463.13	8322.94
463.32	8430.61
463.50	8266.77
463.68	8374.44
463.86	8428.27
464.05	8435.29
464.23	8329.97
464.41	8362.73
464.59	8472.74
464.78	8517.21
464.96	8454.02
465.14	8559.34
465.32	8711.47
465.50	8629.56
465.69	8748.92
465.87	8638.92
466.05	8702.11
466.23	8662.32
466.41	8641.26
466.60	8767.65
466.78	8491.46
466.96	8648.28
467.14	8730.20
467.32	8652.96
467.51	8798.07
467.69	8627.21
467.87	8805.10
468.05	9015.74
468.23	8610.83
468.41	8709.13
468.60	8938.51
468.78	9078.94
468.96	9011.06
469.14	9029.79
469.32	8910.42
469.50	8877.65
469.69	9252.14
469.87	9128.09
470.05	9291.93
470.23	9277.88
470.41	9261.50
470.59	9614.92
470.77	9371.50
470.95	9415.98
471.14	9605.56
471.32	9362.14
471.50	9530.66
471.68	9563.43
471.86	9603.22
472.04	9680.46
472.22	9884.08
472.40	9600.88
472.58	9507.26
472.77	9785.78
472.95	9886.42
473.13	10148.56
473.31	9900.47
473.49	9731.95
473.67	9818.55
473.85	9933.23
474.03	10305.38
474.21	10377.94
474.39	10296.02
474.57	10310.06
474.75	10427.09
474.93	10399.00
475.12	10476.24
475.30	10555.82
475.48	10569.86
475.66	10604.97
475.84	10633.05
476.02	10794.55
476.20	10665.82
476.38	10909.24
476.56	11124.57
476.74	11105.84
476.92	11229.89
477.10	11208.83
477.28	11180.74
477.46	11009.88
477.64	11487.35
477.82	11482.67
478.00	11599.70
478.18	11796.30
478.36	11784.60
478.54	12091.21
478.72	11838.43
478.90	11920.35
479.08	12205.89
479.26	12091.21
479.44	12379.09
479.62	12549.95
479.80	12407.18
479.98	12386.12
480.16	12683.36
480.34	12592.08
480.52	12926.78
480.70	12847.20
480.88	12805.07
481.06	12870.61
481.24	13055.51
481.41	13329.35
481.59	13441.70
481.77	13551.70
481.95	13455.74
482.13	13589.15
482.31	13565.74
482.49	13970.66
482.67	13970.66
482.85	14099.39
483.03	14204.71
483.21	14375.57
483.39	14574.52
483.57	14384.93
483.74	14548.77
483.92	14871.76
484.10	14766.44
484.28	14927.94
484.46	15129.22
484.64	15424.13
484.82	15197.10
485.00	15330.51
485.18	15709.68
485.35	15646.48
485.53	15412.43
485.71	15494.35
485.89	15950.75
486.07	15744.78
486.25	15953.09
486.43	16084.16
486.61	15901.60
486.78	16273.74
486.96	16343.96
487.14	16964.20
487.32	16861.22
487.50	16908.03
487.68	17109.32
487.85	17291.88
488.03	17575.08
488.21	17441.67
488.39	17322.30
488.57	17774.03
488.75	17804.46
488.92	18148.51
489.10	18057.23
489.28	18333.42
489.46	18565.13
489.64	18693.86
489.81	18743.01
489.99	18855.36
490.17	19133.88
490.35	19410.06
490.53	19152.60
490.70	19321.12
490.88	19482.62
491.06	19779.87
491.24	19414.74
491.41	19583.26
491.59	19913.28
491.77	19620.71
491.95	19978.81
492.13	20147.33
492.30	20215.21
492.48	20463.30
492.66	20711.40
492.84	20648.21
493.01	20908.01
493.19	20966.52
493.37	20751.19
493.54	21083.55
493.72	21249.72
493.90	21252.06
494.08	21668.68
494.25	21869.97
494.43	22125.08
494.61	21923.80
494.79	22204.66
494.96	22040.82
495.14	22263.18
495.32	22525.32
495.49	22515.95
495.67	22696.17
495.85	22689.15
496.02	23087.04
496.20	22757.03
496.38	23091.73
496.55	23316.42
496.73	23847.72
496.91	23407.70
497.09	23419.40
497.26	23747.08
497.44	23491.96
497.62	23828.99
497.79	24240.93
497.97	23807.93
498.14	23747.08
498.32	24212.84
498.50	24364.98
498.67	24685.63
498.85	24519.45
499.03	24886.92
499.20	24643.50
499.38	24954.79
499.56	25043.73
499.73	24680.95
499.91	25572.69
500.08	25546.95
500.26	25039.05
500.44	25135.01
500.61	25530.56
500.79	25298.85
500.97	25322.26
501.14	25734.19
501.32	25722.49
501.49	25771.64
501.67	25834.83
501.84	26026.76
502.02	26071.23
502.20	26319.32
502.37	26597.85
502.55	26314.64
502.72	26368.48
502.90	26424.65
503.07	26319.32
503.25	26658.70
503.43	26476.14
503.60	26934.88
503.78	26991.06
503.95	26766.37
504.13	27035.53
504.30	27754.07
504.48	27028.51
504.65	27426.40
504.83	27620.66
505.01	27941.32
505.18	27498.95
505.36	28004.51
505.53	27676.83
505.71	28308.78
505.88	28357.93
506.06	27868.76
506.23	28156.64
506.41	28247.93
506.58	28458.57
506.76	28652.84
506.93	28510.07
507.11	28229.20
507.28	28400.06
507.46	28985.19
507.63	28610.71
507.81	28748.80
507.98	28889.23
508.16	28671.56
508.33	29109.24
508.50	29331.59
508.68	29256.70
508.85	29612.46
509.03	29792.68
509.20	29736.51
509.38	29921.41
509.55	29867.58
509.73	30146.10
509.90	29972.90
510.08	29661.61
510.25	30134.40
510.42	29956.52
510.60	30441.01
510.77	30473.78
510.95	30501.86
511.12	30110.99
511.30	30623.57
511.47	30733.57
511.64	30345.05
511.82	31061.25
511.99	30843.58
512.17	30934.86
512.34	31077.63
512.51	31037.84
512.69	31269.56
512.86	31133.81
513.04	31585.53
513.21	30981.67
513.38	31412.33
513.56	31491.91
513.73	31421.69
513.90	31791.50
514.08	31433.39
514.25	31639.36
514.43	31751.71
514.60	31449.78
514.77	31634.68
514.95	32320.46
515.12	32559.19
515.29	32039.59
515.47	32477.27
515.64	32535.79
515.81	32526.42
515.99	32467.91
516.16	32280.67
516.33	32584.94
516.51	32734.73
516.68	31864.05
516.85	32158.96
517.03	32346.20
517.20	32638.77
517.37	32921.98
517.54	32978.15
517.72	32999.21
517.89	33092.83
518.06	32800.27
518.24	33074.11
518.41	33256.67
518.58	33001.55
518.75	32961.76
518.93	33518.81
519.10	33617.11
519.27	33542.22
519.45	33729.46
519.62	33589.03
519.79	33738.82
519.96	33928.41
520.14	34412.90
520.31	34267.78
520.48	34188.21
520.65	33600.73
520.83	34546.31
521.00	34457.37
521.17	34312.25
521.34	34389.49
521.52	34677.38
521.69	34998.03
521.86	34972.28
522.03	34700.78
522.20	34948.88
522.38	35257.83
522.55	34913.77
522.72	34686.74
522.89	34663.33
523.07	35239.11
523.24	35033.14
523.41	35213.36
523.58	35583.16
523.75	35936.59
523.92	35491.88
524.10	35782.11
524.27	35838.28
524.44	35613.59
524.61	36065.31
524.78	36055.95
524.96	35810.20
525.13	36531.08
525.30	36631.72
525.47	36444.48
525.64	36191.70
525.81	36219.79
525.98	36549.81
526.16	36025.53
526.33	36196.38
526.50	36692.58
526.67	36385.97
526.84	36346.18
527.01	36261.92
527.18	36772.16
527.36	36456.18
527.53	36987.49
527.70	37148.98
527.87	36996.85
528.04	36598.96
528.21	37013.23
528.38	36872.80
528.55	37364.31
528.72	37361.97
528.89	37589.00
529.07	37432.19
529.24	37085.79
529.41	37387.72
529.58	37642.84
529.75	37247.29
529.92	37404.10
530.09	37556.24
530.26	37921.36
530.43	37785.61
530.60	37240.26
530.77	37647.52
530.94	38199.88
531.11	37764.54
531.28	37919.02
531.46	38452.66
531.63	38543.94
531.80	37895.61
531.97	38024.34
532.14	37862.85
532.31	37673.26
532.48	38253.72
532.65	38487.77
532.82	38373.08
532.99	38433.94
533.16	38258.40
533.33	38181.16
533.50	38490.11
533.67	39014.39
533.84	38618.84
534.01	38333.29
534.18	38553.30
534.35	39428.66
534.52	39147.80
534.69	39192.27
534.86	39264.83
535.03	39065.88
535.20	39012.05
535.37	39435.69
535.54	39737.62
535.71	39075.24
535.88	39243.76
536.05	39342.06
536.22	39445.05
536.38	39629.95
536.55	39178.23
536.72	39349.09
536.89	39040.14
537.06	39541.01
537.23	39679.10
537.40	39470.79
537.57	39667.40
537.74	39398.24
537.91	39775.06
538.08	39952.94
538.25	39754.00
538.42	39508.24
538.59	39995.07
538.75	39335.04
538.92	40112.10
539.09	39906.13
539.26	40034.86
539.43	40170.61
539.60	39702.51
539.77	40030.18
539.94	40411.69
540.11	39990.39
540.28	40034.86
540.44	39803.15
540.61	40154.23
540.78	40130.83
540.95	40208.06
541.12	40509.99
541.29	40114.44
541.46	40004.44
541.62	40645.74
541.79	40732.34
541.96	40336.79
542.13	40545.10
542.30	41130.23
542.47	40797.88
542.63	40624.68
542.80	40666.81
542.97	41305.77
543.14	41574.94
543.31	41591.32
543.48	41432.16
543.64	41752.82
543.81	41352.58
543.98	41614.72
544.15	41507.06
544.32	41755.16
544.48	41727.07
544.65	41420.46
544.82	41780.90
544.99	41202.79
545.16	41500.04
545.32	41668.56
545.49	42007.94
545.66	41818.35
545.83	41680.26
546.00	42012.62
546.16	41832.39
546.33	41827.71
546.50	41680.26
546.67	42155.39
546.83	41392.37
547.00	41792.61
547.17	42075.81
547.34	41830.05
547.50	41888.57
547.67	42251.35
547.84	42169.43
548.00	41958.78
548.17	42295.82
548.34	42480.72
548.51	42501.79
548.67	42536.90
548.84	42464.34
549.01	42471.36
549.18	42478.38
549.34	42770.95
549.51	42522.85
549.68	43040.11
549.84	42845.85
550.01	43133.73
550.18	42625.84
550.34	43002.66
550.51	42892.66
550.68	42564.98
550.84	42759.25
551.01	42967.55
551.18	42600.09
551.34	42663.28
551.51	42962.87
551.68	42899.68
551.84	43105.65
552.01	42902.02
552.18	43105.65
552.34	42527.53
552.51	43075.22
552.68	43051.81
552.84	43154.80
553.01	43653.33
553.18	43283.53
553.34	43145.44
553.51	42827.12
553.67	43363.11
553.84	43711.84
554.01	43629.93
554.17	43594.82
554.34	43295.23
554.51	43477.79
554.67	43388.85
554.84	43863.98
555.00	43290.55
555.17	43398.21
555.33	43583.12
555.50	43365.45
555.67	43777.38
555.83	43512.90
556.00	43791.42
556.16	44369.54
556.33	44140.16
556.50	43388.85
556.66	43873.34
556.83	43777.38
556.99	44105.06
557.16	44023.14
557.32	44079.31
557.49	44020.80
557.65	43761.00
557.82	43749.29
557.98	43910.79
558.15	43833.55
558.32	43920.15
558.48	43845.26
558.65	44058.24
558.81	43985.69
558.98	44388.26
559.14	44105.06
559.31	43992.71
559.47	43908.45
559.64	44425.71
559.80	44626.99
559.97	44488.90
560.13	43906.11
560.30	44076.97
560.46	44306.34
560.63	44128.46
560.79	44058.24
560.96	44655.08
561.12	44566.14
561.29	44591.89
561.45	44421.03
561.61	44547.42
561.78	44959.35
561.94	44098.03
562.11	44430.39
562.27	44194.00
562.44	43971.64
562.60	44472.52
562.77	44776.79
562.93	44753.38
563.10	44414.01
563.26	44360.17
563.42	44823.60
563.59	44528.69
563.75	44514.65
563.92	44348.47
564.08	44837.64
564.24	44598.91
564.41	44582.52
564.57	44732.32
564.74	44781.47
564.90	45006.16
565.07	45137.23
565.23	44406.98
565.39	44713.59
565.56	45048.29
565.72	44669.12
565.88	45057.65
566.05	45038.93
566.21	44610.61
566.38	44781.47
566.54	44563.80
566.70	45165.32
566.87	45237.87
567.03	44690.19
567.19	45375.97
567.36	44800.19
567.52	44872.75
567.68	45109.14
567.85	44715.93
568.01	44921.90
568.17	44685.51
568.34	44659.76
568.50	45106.80
568.66	44765.09
568.83	45336.18
568.99	44835.30
569.15	44589.55
569.32	44966.37
569.48	44811.90
569.64	45429.80
569.81	44774.45
569.97	45071.70
570.13	44931.26
570.30	45095.10
570.46	44650.40
570.62	44545.08
570.78	44538.05
570.95	45125.53
571.11	45425.12
571.27	45195.74
571.43	44854.03
571.60	45034.25
571.76	44701.89
571.92	45186.38
572.09	44947.65
572.25	44928.92
572.41	45235.53
572.57	45193.40
572.74	45488.31
572.90	45270.64
573.06	45385.33
573.22	45354.90
573.38	44823.60
573.55	44577.84
573.71	45280.00
573.87	44865.73
574.03	45045.95
574.20	45214.47
574.36	45268.30
574.52	45223.83
574.68	44949.99
574.84	45006.16
575.01	44942.97
575.17	45090.42
575.33	45338.52
575.49	44851.69
575.65	45427.46
575.82	45675.55
575.98	45223.83
576.14	45881.52
576.30	45762.15
576.46	45095.10
576.62	44755.72
576.79	44648.06
576.95	45001.48
577.11	45268.30
577.27	45146.59
577.43	44931.26
577.59	45380.65
577.75	45031.91
577.92	45067.02
578.08	44863.39
578.24	45109.14
578.40	44610.61
578.56	45572.57
578.72	45397.03
578.88	45626.40
579.04	45155.96
579.21	45329.16
579.37	45497.67
579.53	45350.22
579.69	44954.67
579.85	45722.37
580.01	45272.98
580.17	45256.60
580.33	45804.28
580.49	45385.33
580.65	45411.07
580.82	45539.80
580.98	45537.46
581.14	45144.25
581.30	45450.86
581.46	45074.04
581.62	45045.95
581.78	45106.80
581.94	45645.13
582.10	45193.40
582.26	45280.00
582.42	45368.94
582.58	45298.73
582.74	45207.45
582.90	45158.30
583.06	45483.63
583.22	45446.18
583.38	45619.38
583.54	45116.17
583.70	45411.07
583.86	45172.34
584.02	45214.47
584.18	45207.45
584.34	45792.58
584.50	45560.87
584.66	45631.08
584.82	45427.46
584.98	45715.34
585.14	45670.87
585.30	45130.21
585.46	45518.74
585.62	45104.46
585.78	45680.24
585.94	45034.25
586.10	45275.32
586.26	45102.12
586.42	45567.89
586.58	45460.23
586.74	45179.36
586.90	45544.48
587.06	45628.74
587.22	45696.62
587.38	45024.89
587.54	45354.90
587.70	45553.85
587.86	45521.08
588.02	44912.54
588.18	45710.66
588.34	45532.78
588.49	44982.76
588.65	45137.23
588.81	45137.23
588.97	45064.67
589.13	45148.93
589.29	45595.98
589.45	45387.67
589.61	45406.39
589.77	45312.77
589.93	45558.53
590.08	45577.25
590.24	45659.17
590.40	45340.86
590.56	45792.58
590.72	45478.95
590.88	45422.78
591.04	45478.95
591.20	46038.34
591.35	45467.25
591.51	45696.62
591.67	45687.26
591.83	45401.71
591.99	45535.12
592.15	45036.59
592.31	45617.04
592.46	45165.32
592.62	45652.15
592.78	45626.40
592.94	46101.53
593.10	45729.39
593.26	45762.15
593.41	45263.62
593.57	45532.78
593.73	45446.18
593.89	45420.44
594.05	45081.06
594.20	45544.48
594.36	45654.49
594.52	45654.49
594.68	45642.79
594.84	45354.90
594.99	45935.35
595.15	45614.70
595.31	45907.27
595.47	45516.40
595.62	46237.28
595.78	45757.47
595.94	45930.67
596.10	46377.72
596.25	45935.35
596.41	45289.37
596.57	45687.26
596.73	45865.14
596.88	45738.75
597.04	45649.81
597.20	45989.19
597.36	45883.86
597.51	45808.96
597.67	45928.33
597.83	46227.92
597.99	46052.38
598.14	45673.21
598.30	45556.19
598.46	45645.13
598.61	45818.33
598.77	45570.23
598.93	46078.13
599.09	45933.01
599.24	46099.19
599.40	45844.07
599.56	45867.48
599.71	46075.79
599.87	45928.33
600.03	45759.81
600.18	45975.14
600.34	45825.35
600.50	45605.34
600.65	45413.41
600.81	46225.58
600.97	45940.04
601.12	45956.42
601.28	45937.69
601.44	45787.90
601.59	45633.42
601.75	45727.05
601.91	45982.16
602.06	45539.80
602.22	45738.75
602.37	45563.21
602.53	45694.28
602.69	45640.45
602.84	46010.25
603.00	45558.53
603.16	45537.46
603.31	46080.47
603.47	45687.26
603.62	45614.70
603.78	45951.74
603.94	45642.79
604.09	46134.30
604.25	45893.22
604.40	45942.38
604.56	45705.98
604.71	45642.79
604.87	45392.35
605.03	45598.32
605.18	45710.66
605.34	45415.76
605.49	45263.62
605.65	45483.63
605.80	45731.73
605.96	45736.41
606.12	46021.95
606.27	45783.22
606.43	45364.26
606.58	46075.79
606.74	45418.10
606.89	45408.73
607.05	45715.34
607.20	45834.71
607.36	45579.59
607.51	45729.39
607.67	45579.59
607.82	45572.57
607.98	45387.67
608.13	45710.66
608.29	45525.76
608.44	45263.62
608.60	45200.43
608.75	45329.16
608.91	45588.95
609.06	45336.18
609.22	45722.37
609.37	44896.16
609.53	45619.38
609.68	45504.70
609.84	45179.36
609.99	45130.21
610.15	45413.41
610.30	45111.49
610.46	45092.76
610.61	45261.28
610.76	45181.70
610.92	44708.91
611.07	45186.38
611.23	45090.42
611.38	45198.09
611.54	45294.05
611.69	44849.35
611.84	44751.04
612.00	44910.20
612.15	44612.95
612.31	45390.01
612.46	45230.85
612.62	45577.25
612.77	44921.90
612.92	45242.56
613.08	45123.19
613.23	45258.94
613.39	44898.50
613.54	44760.40
613.69	44638.70
613.85	44711.25
614.00	45022.54
614.15	45228.51
614.31	44865.73
614.46	44795.51
614.62	44968.71
614.77	44900.84
614.92	44596.57
615.08	44594.23
615.23	44500.61
615.38	44535.71
615.54	44708.91
615.69	44428.05
615.84	44622.31
616.00	44442.09
616.15	44512.31
616.30	44765.09
616.46	43875.68
616.61	44041.86
616.76	44168.25
616.92	44147.18
617.07	44186.97
617.22	43662.69
617.37	44245.49
617.53	44360.17
617.68	44329.75
617.83	44706.57
617.99	44603.59
618.14	44416.35
618.29	43917.81
618.45	44198.68
618.60	43793.76
618.75	44013.77
618.90	44093.35
619.06	44598.91
619.21	43995.05
619.36	44306.34
619.51	43723.55
619.67	43976.33
619.82	44177.61
619.97	43945.90
620.12	43777.38
620.28	43702.48
620.43	43531.62
620.58	44205.70
620.73	43585.46
620.89	43669.72
621.04	43997.39
621.19	43908.45
621.34	43868.66
621.49	43728.23
621.65	43306.93
621.80	43784.40
621.95	43910.79
622.10	43725.89
622.25	43632.27
622.41	43248.42
622.56	43936.54
622.71	43473.11
622.86	43847.60
623.01	43826.53
623.16	43629.93
623.32	43494.18
623.47	43861.64
623.62	43402.89
623.77	43466.09
623.92	43536.30
624.07	43278.85
624.23	42845.85
624.38	43105.65
624.53	43058.84
624.68	43370.13
624.83	43030.75
624.98	42777.97
625.13	43278.85
625.29	43091.60
625.44	43243.74
625.59	42698.39
625.74	42487.74
625.89	42464.34
626.04	42696.05
626.19	42583.71
626.34	43009.68
626.49	43054.15
626.65	43000.32
626.80	42948.83
626.95	42389.44
627.10	42457.32
627.25	42841.17
627.40	42677.33
627.55	42176.45
627.70	42188.16
627.85	42031.34
628.00	42583.71
628.15	42763.93
628.30	42712.44
628.45	42745.20
628.60	42660.94
628.76	42609.45
628.91	42674.99
629.06	42667.97
629.21	42457.32
629.36	42281.78
629.51	42312.20
629.66	41989.21
629.81	41509.40
629.96	42450.30
630.11	42190.50
630.26	42124.96
630.41	42351.99
630.56	42185.82
630.71	42061.77
630.86	42192.84
631.01	42085.17
631.16	41979.85
631.31	41909.63
631.46	41556.21
631.61	42085.17
631.76	41574.94
631.91	41904.95
632.06	41881.55
632.21	41729.41
632.36	42059.43
632.51	41549.19
632.66	41741.11
632.81	41745.80
632.96	41790.27
633.10	41677.92
633.25	41511.74
633.40	41186.41
633.55	41729.41
633.70	41579.62
633.85	41731.75
634.00	41577.28
634.15	41832.39
634.30	41139.60
634.45	41581.96
634.60	41251.94
634.75	41523.44
634.90	41624.09
635.05	41132.57
635.19	41450.89
635.34	41755.16
635.49	41324.50
635.64	40924.27
635.79	40903.20
635.94	41015.55
636.09	40971.08
636.24	41010.87
636.39	41076.40
636.53	40926.61
636.68	40442.12
636.83	40751.07
636.98	41144.28
637.13	40732.34
637.28	40650.42
637.43	41160.66
637.57	41371.31
637.72	40655.11
637.87	40783.83
638.02	40832.99
638.17	40584.89
638.32	40488.93
638.46	40388.28
638.61	40488.93
638.76	40437.44
638.91	40409.35
639.06	40734.68
639.20	40818.94
639.35	40886.82
639.50	40825.96
639.65	40268.92
639.80	40931.29
639.94	40507.65
640.09	40610.64
640.24	40224.45
640.39	40348.50
640.54	39997.41
640.68	40088.70
640.83	40311.05
640.98	40140.19
641.13	40266.58
641.27	40793.20
641.42	40177.64
641.57	40224.45
641.72	40217.43
641.86	40086.36
642.01	40027.84
642.16	40002.10
642.31	39639.31
642.45	40128.48
642.60	39718.89
642.75	39775.06
642.90	39765.70
643.04	39828.90
643.19	40226.79
643.34	39716.55
643.48	39856.98
643.63	39948.26
643.78	39971.67
643.93	39557.39
644.07	39196.95
644.22	39711.87
644.37	39557.39
644.51	39557.39
644.66	39363.13
644.81	39835.92
644.95	39276.53
645.10	39529.31
645.25	39751.66
645.39	39777.40
645.54	39461.43
645.69	39171.21
645.83	38843.53
645.98	39323.34
646.13	39847.62
646.27	39297.59
646.42	39702.51
646.57	38969.92
646.71	39571.44
646.86	39337.38
647.00	39473.13
647.15	39477.82
647.30	39370.15
647.44	39267.17
647.59	39304.62
647.74	38918.43
647.88	38909.07
648.03	39016.73
648.17	39264.83
648.32	39110.35
648.47	38906.73
648.61	38651.61
648.76	38731.18
648.90	38635.22
649.05	38763.95
649.20	38934.81
649.34	38972.26
649.49	38590.75
649.63	38941.83
649.78	38759.27
649.92	38752.25
650.07	39044.82
650.21	38911.41
650.36	38763.95
650.51	38330.95
650.65	38878.64
650.80	38895.02
650.94	39154.82
651.09	38485.43
651.23	38307.55
651.38	38356.70
651.52	38216.27
651.67	38511.17
651.81	38508.83
651.96	38132.01
652.10	38387.13
652.25	38197.54
652.39	38265.42
652.54	38068.81
652.68	37986.89
652.83	38394.15
652.97	38618.84
653.12	38459.68
653.26	38234.99
653.41	38485.43
653.55	37944.76
653.70	38117.96
653.84	38057.11
653.99	38520.54
654.13	37656.88
654.27	38417.55
654.42	38206.90
654.56	38216.27
654.71	38050.09
654.85	38031.36
655.00	37834.76
655.14	37507.08
655.29	37357.29
655.43	37919.02
655.57	37565.60
655.72	37282.39
655.86	37464.96
656.01	37284.73
656.15	37029.62
656.30	37385.38
656.44	37687.31
656.58	37677.94
656.73	37247.29
656.87	37624.11
657.01	37258.99
657.16	37415.80
657.30	36961.74
657.45	37057.70
657.59	37088.13
657.73	37125.58
657.88	37022.59
658.02	37212.18
658.16	36938.33
658.31	37109.19
658.45	37240.26
658.60	36943.02
658.74	37177.07
658.88	37273.03
659.03	36933.65
659.17	36917.27
659.31	36828.33
659.46	36491.29
659.60	36758.11
659.74	36638.75
659.89	36378.95
660.03	36821.31
660.17	36360.22
660.32	36432.78
660.46	36568.53
660.60	36376.61
660.74	36465.55
660.89	36573.21
661.03	36180.00
661.17	36360.22
661.32	36294.69
661.46	36091.06
661.60	35751.68
661.74	36154.26
661.89	35896.80
662.03	36259.58
662.17	36027.87
662.31	35878.07
662.46	35721.26
662.60	36070.00
662.74	35793.81
662.88	35711.89
663.03	35896.80
663.17	35576.14
663.31	35641.68
663.45	35690.83
663.60	35587.85
663.74	35543.38
663.88	35419.33
664.02	35632.32
664.17	35262.51
664.31	35037.82
664.45	35068.25
664.59	35351.45
664.73	35129.10
664.88	35271.87
665.02	34361.40
665.16	34646.95
665.30	35000.37
665.44	34871.64
665.59	34330.98
665.73	34195.23
665.87	34265.44
666.01	34480.77
666.15	34553.33
666.29	34408.22
666.44	34771.00
666.58	34494.82
666.72	34398.85
666.86	34459.71
667.00	34731.21
667.14	34328.64
667.28	34314.59
667.43	33905.00
667.57	34284.17
667.71	34082.88
667.85	34160.12
667.99	34146.08
668.13	33956.49
668.27	33684.99
668.41	33848.83
668.56	33436.89
668.70	34026.71
668.84	33881.60
668.98	33326.89
669.12	33797.34
669.26	33387.74
669.40	33247.31
669.54	33146.67
669.68	33528.17
669.82	33200.50
669.96	33170.07
670.10	33127.94
670.25	33385.40
670.39	33476.68
670.53	32961.76
670.67	32666.86
670.81	33230.93
670.95	32840.06
671.09	33263.69
671.23	33036.66
671.37	33163.05
671.51	32486.64
671.65	32329.82
671.79	32301.73
671.93	32175.34
672.07	32830.69
672.21	32652.81
672.35	32177.68
672.49	32343.86
672.63	32245.56
672.77	32123.85
672.91	32039.59
673.05	31845.33
673.19	31683.83
673.33	31428.71
673.47	31580.85
673.61	31639.36
673.75	31297.64
673.89	31374.88
674.03	31253.17
674.17	31159.55
674.31	31620.64
674.45	31386.58
674.59	31414.67
674.73	31187.64
674.87	31159.55
675.01	31424.03
675.15	31328.07
675.29	31398.29
675.43	31269.56
675.56	31332.75
675.70	30464.41
675.84	30462.07
675.98	29551.60
676.12	29926.09
676.26	30267.81
676.40	30473.78
676.54	29942.47
676.68	30256.11
676.82	29469.69
676.96	30022.05
677.10	29766.93
677.23	29404.15
677.37	29914.39
677.51	29727.14
677.65	29474.37
677.79	29333.93
677.93	28900.94
678.07	29181.80
678.21	29188.82
678.34	28858.81
678.48	29076.48
678.62	28861.15
678.76	28861.15
678.90	28996.90
679.04	28608.37
679.18	28257.29
679.31	27920.25
679.45	28386.02
679.59	27997.49
679.73	27931.95
679.87	28219.84
680.00	27967.06
680.14	27428.74
680.28	27725.99
680.42	27353.84
680.56	27545.76
680.70	27578.53
680.83	27566.83
680.97	27578.53
681.11	27227.45
681.25	26969.99
681.39	27246.18
681.52	27330.44
681.66	26979.36
681.80	26810.84
681.94	26962.97
682.07	26719.56
682.21	26583.80
682.35	26581.46
682.49	26693.81
682.62	26637.64
682.76	26389.54
682.90	26096.97
683.04	26054.84
683.17	26197.62
683.31	26157.83
683.45	26094.63
683.59	25860.58
683.72	25666.31
683.86	25687.38
684.00	25500.14
684.13	25514.18
684.27	25776.32
684.41	25462.69
684.55	25308.21
684.68	25191.19
684.82	25160.76
684.96	25083.52
685.09	25092.88
685.23	24503.07
685.37	24561.58
685.50	24669.25
685.64	24514.77
685.78	24283.06
685.91	24465.62
686.05	24596.69
686.19	23920.28
686.32	23885.17
686.46	23749.42
686.60	23770.48
686.73	23662.82
686.87	23651.11
687.01	23555.15
687.14	23662.82
687.28	23225.14
687.42	23351.52
687.55	23122.15
687.69	23002.78
687.82	23232.16
687.96	23346.84
688.10	22799.16
688.23	23056.62
688.37	22733.62
688.50	22455.10
688.64	22410.63
688.78	22387.22
688.91	22522.98
689.05	22473.82
689.18	22373.18
689.32	21921.46
689.46	22146.15
689.59	22574.47
689.73	22263.18
689.86	21867.63
690.00	21610.17
690.13	21680.38
690.27	21916.78
690.41	21525.91
690.54	21706.13
690.68	21256.75
690.81	21390.16
690.95	21476.76
691.08	20933.75
691.22	20900.98
691.35	20833.11
691.49	21275.47
691.62	20886.94
691.76	20908.01
691.89	21027.37
692.03	20624.80
692.16	20428.20
692.30	20601.40
692.43	20233.93
692.57	20002.22
692.70	20121.59
692.84	20203.50
692.97	19868.81
693.11	19840.72
693.24	19843.06
693.38	19651.14
693.51	19711.99
693.65	19468.58
693.78	19917.96
693.92	19880.51
694.05	19662.84
694.19	19559.86
694.32	19234.52
694.45	19269.63
694.59	19344.53
694.72	19058.98
694.86	19220.48
694.99	18597.90
695.13	19058.98
695.26	18618.96
695.39	18743.01
695.53	18609.60
695.66	18274.90
695.80	18485.55
695.93	18663.43
696.07	18059.57
696.20	18108.72
696.33	18202.35
696.47	17895.74
696.60	18003.40
696.73	17844.24
696.87	17834.88
697.00	18111.07
697.14	17802.11
697.27	17792.75
697.40	17724.88
697.54	17675.73
697.67	17191.23
697.80	17415.93
697.94	17422.95
698.07	17401.88
698.21	17469.76
698.34	17163.15
698.47	17060.16
698.61	16456.31
698.74	16746.53
698.87	16947.82
699.01	16545.25
699.14	16479.71
699.27	16332.26
699.40	16428.22
699.54	16418.86
699.67	16173.10
699.80	16322.90
699.94	16262.04
700.07	16105.23
700.20	16121.61
700.34	15901.60
700.47	15777.55
700.60	15793.94
700.73	16035.01
700.87	15749.46
701.00	15829.04
701.13	15681.59
701.26	15489.67
701.40	15536.48
701.53	15463.92
701.66	15339.87
701.79	15370.30
701.93	15304.76
702.06	15075.39
702.19	15026.24
702.32	15037.94
702.46	14895.17
702.59	15016.88
702.72	14836.66
702.85	14686.86
702.99	14785.16
703.12	14930.28
703.25	14710.27
703.38	14565.15
703.51	14640.05
703.65	14537.07
703.78	14270.25
703.91	14373.23
704.04	14398.98
704.17	14281.95
704.31	14036.19
704.44	13724.90
704.57	13748.31
704.70	13724.90
704.83	13806.82
704.96	13626.60
705.10	13832.57
705.23	13912.14
>>>>>End Processed Spectral Data<<<<<
