SpectraSuite Data File
++++++++++++++++++++++++++++++++++++
Date: Fri Oct 25 10:47:21 EDT 2013
User: price-jones
Dark Spectrum Present: No
Reference Spectrum Present: No
Number of Sampled Component Spectra: 1
Spectrometers: USB2+H05261
Integration Time (usec): 100000 (USB2+H05261)
Spectra Averaged: 1 (USB2+H05261)
Boxcar Smoothing: 0 (USB2+H05261)
Correct for Electrical Dark: No (USB2+H05261)
Strobe/Lamp Enabled: No (USB2+H05261)
Correct for Detector Non-linearity: No (USB2+H05261)
Correct for Stray Light: No (USB2+H05261)
Number of Pixels in Processed Spectrum: 2048
>>>>>Begin Processed Spectral Data<<<<<
365.73	128.73
365.92	128.73
366.12	128.73
366.32	51.49
366.52	79.58
366.72	95.96
366.91	74.90
367.11	56.17
367.31	0.00
367.51	37.45
367.70	0.00
367.90	46.81
368.10	100.64
368.30	37.45
368.49	32.77
368.69	131.07
368.89	0.00
369.09	53.83
369.28	44.47
369.48	0.00
369.68	84.26
369.87	79.58
370.07	189.58
370.27	135.75
370.47	191.92
370.66	318.31
370.86	418.96
371.06	400.23
371.25	521.94
371.45	407.25
371.65	498.53
371.84	477.47
372.04	454.06
372.24	449.38
372.44	500.87
372.63	503.22
372.83	477.47
373.03	521.94
373.22	517.26
373.42	461.09
373.62	505.56
373.81	482.15
374.01	566.41
374.21	540.66
374.40	571.09
374.60	538.32
374.79	552.37
374.99	521.94
375.19	543.00
375.38	564.07
375.58	559.39
375.78	638.97
375.97	533.64
376.17	596.84
376.37	559.39
376.56	557.05
376.76	533.64
376.95	496.19
377.15	573.43
377.35	568.75
377.54	627.26
377.74	578.11
377.93	575.77
378.13	599.18
378.33	601.52
378.52	554.71
378.72	573.43
378.91	629.60
379.11	662.37
379.31	617.90
379.50	629.60
379.70	723.23
379.89	662.37
380.09	601.52
380.28	624.92
380.48	650.67
380.68	653.01
380.87	685.78
381.07	720.88
381.26	685.78
381.46	599.18
381.65	723.23
381.85	662.37
382.04	669.39
382.24	706.84
382.43	641.31
382.63	706.84
382.83	678.76
383.02	662.37
383.22	741.95
383.41	779.40
383.61	699.82
383.80	741.95
384.00	725.57
384.19	732.59
384.39	720.88
384.58	786.42
384.78	702.16
384.97	657.69
385.17	732.59
385.36	716.20
385.56	730.25
385.75	765.36
385.95	744.29
386.14	823.87
386.34	741.95
386.53	711.52
386.72	844.93
386.92	800.46
387.11	816.85
387.31	795.78
387.50	788.76
387.70	821.53
387.89	894.08
388.09	727.91
388.28	821.53
388.48	826.21
388.67	833.23
388.86	901.11
389.06	828.55
389.25	952.60
389.45	887.06
389.64	863.66
389.84	936.21
390.03	990.05
390.22	936.21
390.42	903.45
390.61	933.87
390.81	894.08
391.00	952.60
391.19	994.73
391.39	891.74
391.58	985.37
391.78	938.55
391.97	987.71
392.16	837.91
392.36	1036.86
392.55	973.66
392.75	959.62
392.94	973.66
393.13	973.66
393.33	997.07
393.52	1015.79
393.71	1029.84
393.91	917.49
394.10	1043.88
394.29	1001.75
394.49	994.73
394.68	1074.31
394.88	1090.69
395.07	1179.63
395.26	1130.48
395.46	1118.78
395.65	1086.01
395.84	1170.27
396.04	1123.46
396.23	1055.58
396.42	1025.15
396.62	1123.46
396.81	1100.05
397.00	1088.35
397.19	1111.75
397.39	1102.39
397.58	1210.06
397.77	1186.65
397.97	1212.40
398.16	1245.16
398.35	1310.70
398.55	1315.38
398.74	1252.19
398.93	1256.87
399.12	1287.29
399.32	1224.10
399.51	1352.83
399.70	1385.60
399.90	1359.85
400.09	1373.89
400.28	1369.21
400.47	1430.07
400.67	1446.45
400.86	1451.13
401.05	1427.73
401.24	1547.09
401.44	1439.43
401.63	1530.71
401.82	1439.43
402.01	1472.20
402.21	1469.86
402.40	1474.54
402.59	1490.92
402.78	1511.99
402.97	1444.11
403.17	1469.86
403.36	1544.75
403.55	1558.80
403.74	1570.50
403.93	1631.35
404.13	1626.67
404.32	1668.80
404.51	1542.41
404.70	1701.57
404.89	1701.57
405.09	1696.89
405.28	1750.72
405.47	1741.36
405.66	1722.63
405.85	1736.68
406.05	1664.12
406.24	1722.63
406.43	1732.00
406.62	1771.79
406.81	1879.45
407.00	1865.41
407.20	1799.87
407.39	1783.49
407.58	1849.02
407.77	1877.11
407.96	1968.39
408.15	1919.24
408.34	1959.03
408.54	1902.86
408.73	1989.46
408.92	2040.95
409.11	1926.26
409.30	2022.22
409.49	2022.22
409.68	1980.09
409.87	2015.20
410.07	2132.23
410.26	2054.99
410.45	2069.03
410.64	2052.65
410.83	2029.24
411.02	2190.74
411.21	2190.74
411.40	2218.83
411.59	2331.17
411.78	2300.75
411.98	2246.91
412.17	2347.56
412.36	2410.75
412.55	2410.75
412.74	2455.22
412.93	2345.22
413.12	2340.54
413.31	2443.52
413.50	2356.92
413.69	2434.16
413.88	2574.59
414.07	2590.97
414.26	2509.05
414.45	2656.51
414.64	2548.84
414.83	2607.36
415.02	2717.36
415.22	2665.87
415.41	2738.43
415.60	2686.94
415.79	2794.60
415.98	2871.84
416.17	2839.07
416.36	2806.30
416.55	2780.56
416.74	2796.94
416.93	2916.31
417.12	2946.73
417.31	2928.01
417.50	2965.46
417.69	3082.49
417.88	3000.57
418.07	2925.67
418.26	3007.59
418.45	3000.57
418.64	3145.68
418.83	3082.49
419.02	3112.91
419.21	3169.09
419.39	3234.62
419.58	3157.38
419.77	3234.62
419.96	3045.04
420.15	3180.79
420.34	3269.73
420.53	3290.79
420.72	3435.91
420.91	3328.24
421.10	3274.41
421.29	3379.73
421.48	3276.75
421.67	3468.67
421.86	3344.63
422.05	3445.27
422.24	3452.29
422.43	3325.90
422.61	3435.91
422.80	3449.95
422.99	3480.38
423.18	3482.72
423.37	3487.40
423.56	3431.23
423.75	3566.98
423.94	3375.05
424.13	3251.00
424.32	3351.65
424.50	3506.12
424.69	3431.23
424.88	3552.93
425.07	3370.37
425.26	3506.12
425.45	3541.23
425.64	3398.46
425.83	3492.08
426.01	3485.06
426.20	3550.59
426.39	3597.40
426.58	3487.40
426.77	3557.61
426.96	3473.36
427.15	3562.30
427.33	3541.23
427.52	3660.60
427.71	3648.90
427.90	3686.34
428.09	3735.50
428.28	3758.90
428.46	3676.98
428.65	3630.17
428.84	3761.24
429.03	3852.52
429.22	3784.65
429.40	3646.55
429.59	3662.94
429.78	3613.79
429.97	3534.21
430.16	3758.90
430.34	3756.56
430.53	3826.78
430.72	3871.25
430.91	3974.23
431.10	3887.63
431.28	4044.45
431.47	4042.11
431.66	4063.17
431.85	3992.95
432.03	4018.70
432.22	4177.86
432.41	4170.83
432.60	4248.07
432.79	4091.26
432.97	4311.27
433.16	4280.84
433.35	4070.19
433.54	4107.64
433.72	4198.92
433.91	4112.32
434.10	4250.41
434.28	4182.54
434.47	4351.06
434.66	4379.14
434.85	4400.21
435.03	4402.55
435.22	4505.53
435.41	4660.01
435.59	4629.58
435.78	4447.02
435.97	4606.17
436.16	4444.68
436.34	4491.49
436.53	4575.75
436.72	4681.07
436.90	4397.87
437.09	4596.81
437.28	4599.15
437.46	4669.37
437.65	4585.11
437.84	4650.64
438.02	4837.89
438.21	4573.41
438.40	4615.54
438.58	4880.02
438.77	4877.68
438.96	4973.64
439.14	4985.34
439.33	4999.38
439.52	4898.74
439.70	5053.22
439.89	4978.32
440.08	5034.49
440.26	5102.37
440.45	5069.60
440.63	5167.90
440.82	5303.65
441.01	5294.29
441.19	5132.79
441.38	5390.25
441.57	5467.49
441.75	5430.04
441.94	5596.22
442.12	5383.23
442.31	5682.82
442.50	5671.12
442.68	5458.13
442.87	5591.54
443.05	5570.48
443.24	5760.06
443.43	5687.50
443.61	5703.89
443.80	5907.51
443.98	5750.70
444.17	5537.71
444.35	5729.63
444.54	5717.93
444.73	5753.04
444.91	5724.95
445.10	5701.54
445.28	5832.62
445.47	5659.42
445.65	5610.26
445.84	5809.21
446.02	5692.18
446.21	5867.72
446.39	5809.21
446.58	5989.43
446.77	5746.02
446.95	5760.06
447.14	5809.21
447.32	5914.53
447.51	5879.43
447.69	5900.49
447.88	6087.73
448.06	6040.92
448.25	5844.32
448.43	5968.37
448.62	5877.09
448.80	5982.41
448.99	5984.75
449.17	6003.47
449.36	5881.77
449.54	6314.77
449.73	6134.54
449.91	6221.14
450.10	6267.95
450.28	6232.85
450.46	6326.47
450.65	6127.52
450.83	6363.92
451.02	6296.04
451.20	6335.83
451.39	6195.40
451.57	6333.49
451.76	6331.15
451.94	6359.24
452.13	6595.63
452.31	6359.24
452.49	6267.95
452.68	6525.41
452.86	6396.68
453.05	6551.16
453.23	6560.52
453.42	6445.84
453.60	6406.05
453.78	6527.75
453.97	6722.02
454.15	6499.67
454.34	6497.33
454.52	6731.38
454.70	6682.23
454.89	6691.59
455.07	6698.61
455.26	6867.13
455.44	6857.77
455.62	6820.32
455.81	6930.33
455.99	6853.09
456.17	6801.60
456.36	6738.40
456.54	6958.41
456.73	6935.01
456.91	7098.84
457.09	7180.76
457.28	7187.79
457.46	7197.15
457.64	7265.02
457.83	7122.25
458.01	7157.36
458.19	7328.22
458.38	7157.36
458.56	7304.81
458.74	7342.26
458.93	7300.13
459.11	7445.24
459.29	7318.86
459.48	7403.11
459.66	7267.36
459.84	7396.09
460.03	7616.10
460.21	7400.77
460.39	7620.78
460.57	7541.21
460.76	7672.28
460.94	7625.47
461.12	7726.11
461.31	7934.42
461.49	7637.17
461.67	7606.74
461.85	7688.66
462.04	7754.19
462.22	8510.19
462.40	7871.22
462.59	7887.61
462.77	7922.71
462.95	8030.38
463.13	7784.62
463.32	7934.42
463.50	8051.44
463.68	8004.63
463.86	7819.73
464.05	7967.18
464.23	7925.05
464.41	7955.48
464.59	7864.20
464.78	8238.69
464.96	8142.72
465.14	8114.64
465.32	8219.96
465.50	8140.38
465.69	8414.23
465.87	8126.34
466.05	8208.26
466.23	8201.24
466.41	8315.92
466.60	8147.40
466.78	8255.07
466.96	8346.35
467.14	8505.51
467.32	8241.03
467.51	8381.46
467.69	8154.43
467.87	8315.92
468.05	8636.58
468.23	8301.88
468.41	8351.03
468.60	8264.43
468.78	8718.50
468.96	8465.72
469.14	8798.07
469.32	8809.78
469.50	8636.58
469.69	8709.13
469.87	8695.09
470.05	8896.38
470.23	8739.56
470.41	8961.91
470.59	8828.50
470.77	8987.66
470.95	9128.09
471.14	9195.96
471.32	8933.82
471.50	9343.42
471.68	9418.32
471.86	9238.09
472.04	9174.90
472.22	9355.12
472.40	9085.96
472.58	9273.20
472.77	9437.04
472.95	9710.88
473.13	9671.09
473.31	9518.96
473.49	9626.62
473.67	9352.78
473.85	9624.28
474.03	9898.13
474.21	9731.95
474.39	9832.59
474.57	9827.91
474.75	10022.17
474.93	9886.42
475.12	9958.98
475.30	9937.91
475.48	10115.80
475.66	10249.21
475.84	10076.01
476.02	10171.97
476.20	10113.45
476.38	10319.42
476.56	10595.61
476.74	10534.75
476.92	10647.10
477.10	10544.11
477.28	10733.70
477.46	10693.91
477.64	10977.11
477.82	11346.92
478.00	11194.78
478.18	11164.36
478.36	11454.58
478.54	11382.03
478.72	11358.62
478.90	11768.21
479.08	11690.98
479.26	11819.71
479.44	11616.08
479.62	11798.64
479.80	11974.18
479.98	12107.59
480.16	12416.54
480.34	12189.51
480.52	12285.47
480.70	12362.71
480.88	12341.64
481.06	12194.19
481.24	12692.73
481.41	12624.85
481.59	13008.70
481.77	13057.85
481.95	12931.46
482.13	13055.51
482.31	12917.42
482.49	13186.58
482.67	13399.57
482.85	13277.86
483.03	13476.80
483.21	13633.62
483.39	13745.97
483.57	13736.60
483.74	14164.92
483.92	14171.94
484.10	14061.94
484.28	14345.14
484.46	14541.75
484.64	14789.85
484.82	14420.04
485.00	14738.35
485.18	14658.78
485.35	14827.29
485.53	14651.75
485.71	14822.61
485.89	15159.65
486.07	15087.09
486.25	15227.53
486.43	15431.15
486.61	15424.13
486.78	15712.02
486.96	15925.00
487.14	16067.78
487.32	16102.89
487.50	16346.30
487.68	16610.78
487.85	16622.48
488.03	16908.03
488.21	16919.73
488.39	16877.60
488.57	17046.12
488.75	17116.34
488.92	17465.08
489.10	17469.76
489.28	17530.61
489.46	17790.41
489.64	17781.05
489.81	17972.97
489.99	18134.47
490.17	18146.17
490.35	18476.19
490.53	18459.81
490.70	18658.75
490.88	18890.46
491.06	19044.94
491.24	18888.12
491.41	18874.08
491.59	18941.96
491.77	19073.03
491.95	19421.77
492.13	19197.07
492.30	19796.25
492.48	19543.47
492.66	19819.66
492.84	19726.04
493.01	20269.04
493.19	19969.45
493.37	20285.42
493.54	20194.14
493.72	20577.99
493.90	20449.26
494.08	20947.79
494.25	20980.56
494.43	21062.48
494.61	21142.06
494.79	21153.76
494.96	21109.29
495.14	21252.06
495.32	21682.72
495.49	21678.04
495.67	21654.64
495.85	21811.45
496.02	22015.08
496.20	22277.22
496.38	22473.82
496.55	22225.73
496.73	23035.55
496.91	22537.02
497.09	22616.60
497.26	22984.06
497.44	23075.34
497.62	23194.71
497.79	23332.80
497.97	22904.48
498.14	23484.94
498.32	23407.70
498.50	23459.19
498.67	23562.17
498.85	23618.35
499.03	23871.12
499.20	24077.09
499.38	23793.89
499.56	24301.78
499.73	24056.03
499.91	24133.26
500.08	24341.57
500.26	24634.14
500.44	24400.08
500.61	24545.20
500.79	24088.79
500.97	24671.59
501.14	25170.12
501.32	24837.76
501.49	25322.26
501.67	24854.15
501.84	25186.50
502.02	25060.12
502.20	25425.24
502.37	25415.88
502.55	25408.86
502.72	25453.33
502.90	25586.74
503.07	25696.74
503.25	25862.92
503.43	26150.81
503.60	25743.55
503.78	25762.28
503.95	25804.41
504.13	26281.88
504.30	26499.55
504.48	26274.85
504.65	26534.65
504.83	26522.95
505.01	27040.21
505.18	26649.34
505.36	27063.61
505.53	27000.42
505.71	27173.62
505.88	27311.71
506.06	26871.69
506.23	27232.13
506.41	27089.36
506.58	27136.17
506.76	27688.54
506.93	27824.29
507.11	27505.98
507.28	27700.24
507.46	28128.56
507.63	27758.75
507.81	28070.04
507.98	27597.26
508.16	27772.80
508.33	28107.49
508.50	28395.38
508.68	28451.55
508.85	28556.88
509.03	28439.85
509.20	28797.95
509.38	28664.54
509.55	28849.44
509.73	28772.21
509.90	28692.63
510.08	28617.73
510.25	29170.10
510.42	29006.26
510.60	28943.06
510.77	29139.67
510.95	29710.76
511.12	29528.20
511.30	29336.27
511.47	29820.77
511.64	29682.67
511.82	30019.71
511.99	29759.91
512.17	30373.13
512.34	29656.93
512.51	29876.94
512.69	30146.10
512.86	30501.86
513.04	30448.03
513.21	30403.56
513.38	30525.27
513.56	30267.81
513.73	29975.24
513.90	30604.84
514.08	30628.25
514.25	30733.57
514.43	30803.79
514.60	31009.76
514.77	30782.73
514.95	31033.16
515.12	31007.42
515.29	30813.15
515.47	31508.29
515.64	31285.94
515.81	31072.95
515.99	31704.90
516.16	31494.25
516.33	31501.27
516.51	31512.97
516.68	31222.75
516.85	31592.55
517.03	31379.56
517.20	31943.63
517.37	31779.79
517.54	31999.80
517.72	32203.43
517.89	32243.22
518.06	32037.25
518.24	32072.36
518.41	31936.61
518.58	32266.63
518.75	32313.44
518.93	32121.51
519.10	32418.76
519.27	32713.67
519.45	32753.46
519.62	33230.93
519.79	32903.25
519.96	33184.12
520.14	33207.52
520.31	32952.40
520.48	33160.71
520.65	33233.27
520.83	33724.78
521.00	33787.97
521.17	33291.78
521.34	33415.83
521.52	33420.51
521.69	33816.06
521.86	33532.86
522.03	33734.14
522.20	33886.28
522.38	33956.49
522.55	34174.16
522.72	33757.55
522.89	34291.19
523.07	34153.10
523.24	34361.40
523.41	33975.22
523.58	34246.72
523.75	34831.85
523.92	34548.65
524.10	34682.06
524.27	34955.90
524.44	34668.02
524.61	35225.06
524.78	34782.70
524.96	35316.34
525.13	34925.47
525.30	35545.72
525.47	35377.20
525.64	35232.08
525.81	35028.46
525.98	35262.51
526.16	35241.45
526.33	35168.89
526.50	35445.07
526.67	35164.21
526.84	35608.91
527.01	35115.06
527.18	35505.93
527.36	36030.21
527.53	35424.01
527.70	35452.09
527.87	36140.21
528.04	35814.88
528.21	35840.62
528.38	35910.84
528.55	35810.20
528.72	36350.86
528.89	36355.54
529.07	36425.76
529.24	36240.86
529.41	36615.34
529.58	36280.64
529.75	36594.28
529.92	36472.57
530.09	36367.24
530.26	36577.89
530.43	36783.86
530.60	36786.20
530.77	36825.99
530.94	37064.72
531.11	36737.05
531.28	36907.91
531.46	36730.03
531.63	36928.97
531.80	36793.22
531.97	36870.46
532.14	37097.49
532.31	36931.31
532.48	37127.92
532.65	37336.23
532.82	37289.42
532.99	37783.27
533.16	37170.05
533.33	37560.92
533.50	37434.53
533.67	37818.38
533.84	36914.93
534.01	37755.18
534.18	37322.18
534.35	37944.76
534.52	38181.16
534.69	37823.06
534.86	37949.45
535.03	37490.70
535.20	38511.17
535.37	38211.59
535.54	38700.76
535.71	38115.62
535.88	38394.15
536.05	37970.51
536.22	38747.57
536.38	38469.04
536.55	38565.01
536.72	37947.11
536.89	38003.28
537.06	38382.45
537.23	38403.51
537.40	38319.25
537.57	38483.09
537.74	38401.17
537.91	38808.42
538.08	38433.94
538.25	38813.10
538.42	38660.97
538.59	39180.57
538.75	38841.19
538.92	38609.48
539.09	39255.46
539.26	38794.38
539.43	39000.35
539.60	38691.40
539.77	38925.45
539.94	39089.29
540.11	39136.10
540.28	39192.27
540.44	38981.62
540.61	39512.92
540.78	39166.52
540.95	39138.44
541.12	39047.16
541.29	39370.15
541.46	39234.40
541.62	39470.79
541.79	39859.32
541.96	39592.50
542.13	39821.87
542.30	39711.87
542.47	39683.78
542.63	39625.27
542.80	39737.62
542.97	40243.17
543.14	40287.64
543.31	40009.12
543.48	40622.34
543.64	40666.81
543.81	40224.45
543.98	40435.10
544.15	40212.74
544.32	40397.65
544.48	40851.71
544.65	40762.77
544.82	40615.32
544.99	40421.05
545.16	40498.29
545.32	40336.79
545.49	41088.10
545.66	40910.22
545.83	40676.17
546.00	41099.81
546.16	40821.28
546.33	40341.47
546.50	40268.92
546.67	40996.82
546.83	40364.88
547.00	40886.82
547.17	40919.59
547.34	41029.59
547.50	41317.48
547.67	41745.80
547.84	40954.69
548.00	41235.56
548.17	41478.97
548.34	41287.05
548.51	41301.09
548.67	41488.34
548.84	41689.62
549.01	41340.88
549.18	41193.43
549.34	41996.23
549.51	41628.77
549.68	41694.30
549.84	41783.24
550.01	41808.99
550.18	41172.36
550.34	41514.08
550.51	41497.70
550.68	41591.32
550.84	41228.54
551.01	41956.44
551.18	41736.43
551.34	42092.19
551.51	41553.87
551.68	41790.27
551.84	42143.69
552.01	42127.30
552.18	42309.86
552.34	41509.40
552.51	42349.65
552.68	42094.53
552.84	42241.99
553.01	42251.35
553.18	42422.21
553.34	42176.45
553.51	41741.11
553.67	41975.17
553.84	42494.77
554.01	42726.48
554.17	42581.37
554.34	42843.51
554.51	42815.42
554.67	42607.11
554.84	42408.17
555.00	42426.89
555.17	42263.05
555.33	42452.64
555.50	42052.41
555.67	42801.38
555.83	42658.60
556.00	43002.66
556.16	43070.54
556.33	42768.61
556.50	42682.01
556.66	43115.01
556.83	42693.71
556.99	42794.36
557.16	43217.99
557.32	43299.91
557.49	42997.98
557.65	42948.83
557.82	42511.15
557.98	42710.10
558.15	42890.32
558.32	43178.20
558.48	43140.75
558.65	43147.78
558.81	42972.24
558.98	43014.37
559.14	43028.41
559.31	42822.44
559.47	43093.94
559.64	43742.27
559.80	43772.70
559.97	43887.39
560.13	43297.57
560.30	43292.89
560.46	43290.55
560.63	43367.79
560.79	43213.31
560.96	43349.06
561.12	43257.78
561.29	42937.13
561.45	43440.34
561.61	43426.30
561.78	43398.21
561.94	43288.21
562.11	43398.21
562.27	43262.46
562.44	43662.69
562.60	43732.91
562.77	43634.61
562.93	43681.42
563.10	43798.44
563.26	43463.75
563.42	43508.22
563.59	43742.27
563.75	43583.12
563.92	43620.56
564.08	43964.62
564.24	44009.09
564.41	43721.21
564.57	43908.45
564.74	43693.12
564.90	43915.47
565.07	43297.57
565.23	43700.14
565.39	43173.52
565.56	44030.16
565.72	43817.17
565.88	43487.15
566.05	43679.08
566.21	44353.15
566.38	44065.27
566.54	43831.21
566.70	44018.46
566.87	44259.53
567.03	43569.07
567.19	44268.89
567.36	43917.81
567.52	43903.77
567.68	44048.88
567.85	43903.77
568.01	43620.56
568.17	43826.53
568.34	43936.54
568.50	43959.94
568.66	43861.64
568.83	44194.00
568.99	44245.49
569.15	44093.35
569.32	43707.16
569.48	43658.01
569.64	44296.98
569.81	44189.31
569.97	43957.60
570.13	43929.51
570.30	44280.60
570.46	43475.45
570.62	43889.73
570.78	43992.71
570.95	43632.27
571.11	44102.71
571.27	44240.81
571.43	44072.29
571.60	44076.97
571.76	44397.62
571.92	44135.48
572.09	44259.53
572.25	44079.31
572.41	44172.93
572.57	44315.70
572.74	44634.02
572.90	44460.82
573.06	44568.48
573.22	44350.81
573.38	44491.24
573.55	44112.08
573.71	44147.18
573.87	44051.22
574.03	43920.15
574.20	44170.59
574.36	43941.22
574.52	44832.96
574.68	44313.36
574.84	44336.77
575.01	44236.12
575.17	44147.18
575.33	44474.86
575.49	44177.61
575.65	44472.52
575.82	44889.13
575.98	44470.18
576.14	44832.96
576.30	44266.55
576.46	44165.91
576.62	44060.58
576.79	44189.31
576.95	43660.35
577.11	44198.68
577.27	44559.12
577.43	44311.02
577.59	44524.01
577.75	44229.10
577.92	44105.06
578.08	44208.04
578.24	43988.03
578.40	44715.93
578.56	44184.63
578.72	44083.99
578.88	44760.40
579.04	44411.67
579.21	44339.11
579.37	44268.89
579.53	44376.56
579.69	44512.31
579.85	44641.04
580.01	44804.88
580.17	44624.65
580.33	44987.44
580.49	44495.92
580.65	44095.69
580.82	44652.74
580.98	44416.35
581.14	43878.02
581.30	44374.22
581.46	44636.36
581.62	44542.74
581.78	44535.71
581.94	45013.18
582.10	44210.38
582.26	44589.55
582.42	44556.78
582.58	44816.58
582.74	44240.81
582.90	44470.18
583.06	44519.33
583.22	44453.79
583.38	45064.67
583.54	44788.49
583.70	44458.48
583.86	43934.20
584.02	44130.80
584.18	44449.11
584.34	44437.41
584.50	44905.52
584.66	44526.35
584.82	44311.02
584.98	44531.03
585.14	44526.35
585.30	44130.80
585.46	44524.01
585.62	44676.15
585.78	44348.47
585.94	44428.05
586.10	44528.69
586.26	44451.45
586.42	44343.79
586.58	44397.62
586.74	44758.06
586.90	44357.83
587.06	44189.31
587.22	44264.21
587.38	44299.32
587.54	44807.22
587.70	44919.56
587.86	44685.51
588.02	44568.48
588.18	44875.09
588.34	44491.24
588.49	44116.76
588.65	44512.31
588.81	44388.26
588.97	44753.38
589.13	44432.73
589.29	44502.95
589.45	44533.37
589.61	44601.25
589.77	44622.31
589.93	44729.98
590.08	45048.29
590.24	44596.57
590.40	44605.93
590.56	45038.93
590.72	44636.36
590.88	44444.43
591.04	44680.83
591.20	44966.37
591.35	44935.95
591.51	45380.65
591.67	44854.03
591.83	44725.30
591.99	44954.67
592.15	44636.36
592.31	44945.31
592.46	44741.68
592.62	44715.93
592.78	44767.43
592.94	45134.89
593.10	45191.06
593.26	44872.75
593.41	44774.45
593.57	44900.84
593.73	45148.93
593.89	44980.42
594.05	44671.46
594.20	44999.14
594.36	44832.96
594.52	44807.22
594.68	45062.33
594.84	44570.82
594.99	45488.31
595.15	44781.47
595.31	45247.24
595.47	44914.88
595.62	44957.01
595.78	44708.91
595.94	44994.46
596.10	44741.68
596.25	45067.02
596.41	45137.23
596.57	44643.38
596.73	45095.10
596.88	44650.40
597.04	44797.85
597.20	44619.97
597.36	44882.11
597.51	45202.77
597.67	44844.66
597.83	45034.25
597.99	45453.20
598.14	45471.93
598.30	45233.19
598.46	44821.26
598.61	44802.53
598.77	44868.07
598.93	45027.23
599.09	44729.98
599.24	45844.07
599.40	44896.16
599.56	45195.74
599.71	45268.30
599.87	45062.33
600.03	45113.83
600.18	45116.17
600.34	45113.83
600.50	45146.59
600.65	45263.62
600.81	45045.95
600.97	45429.80
601.12	45698.96
601.28	45289.37
601.44	45333.84
601.59	45277.66
601.75	44973.39
601.91	44910.20
602.06	44650.40
602.22	45003.82
602.37	45282.34
602.53	45240.21
602.69	45155.96
602.84	45312.77
603.00	44797.85
603.16	44856.37
603.31	44800.19
603.47	45024.89
603.62	44769.77
603.78	45343.20
603.94	44814.24
604.09	45834.71
604.25	44914.88
604.40	44971.05
604.56	45036.59
604.71	44795.51
604.87	44671.46
605.03	44896.16
605.18	44713.59
605.34	44725.30
605.49	44495.92
605.65	45015.52
605.80	44542.74
605.96	45069.36
606.12	44996.80
606.27	45078.72
606.43	44619.97
606.58	45315.11
606.74	44954.67
606.89	44486.56
607.05	45064.67
607.20	44762.75
607.36	44580.18
607.51	45263.62
607.67	44814.24
607.82	44919.56
607.98	44610.61
608.13	44608.27
608.29	44608.27
608.44	44657.42
608.60	44095.69
608.75	44708.91
608.91	44582.52
609.06	44538.05
609.22	45195.74
609.37	44524.01
609.53	44704.23
609.68	44900.84
609.84	44545.08
609.99	44634.02
610.15	44018.46
610.30	44755.72
610.46	44102.71
610.61	44652.74
610.76	44404.64
610.92	44526.35
611.07	44275.91
611.23	44165.91
611.38	44577.84
611.54	44095.69
611.69	44378.90
611.84	44025.48
612.00	44168.25
612.15	44201.02
612.31	44467.84
612.46	43910.79
612.62	44694.87
612.77	44608.27
612.92	44191.65
613.08	44236.12
613.23	44292.30
613.39	44348.47
613.54	43962.28
613.69	43842.92
613.85	44119.10
614.00	43901.43
614.15	44371.88
614.31	44091.01
614.46	44601.25
614.62	44273.57
614.77	44144.84
614.92	43913.13
615.08	43962.28
615.23	43943.56
615.38	43889.73
615.54	43503.54
615.69	43852.28
615.84	43604.18
616.00	43543.33
616.15	44081.65
616.30	44306.34
616.46	43318.64
616.61	43550.35
616.76	43583.12
616.92	43126.71
617.07	43349.06
617.22	43412.26
617.37	43281.19
617.53	43667.37
617.68	43723.55
617.83	43700.14
617.99	43796.10
618.14	43737.59
618.29	43484.81
618.45	43112.67
618.60	43089.26
618.75	43643.97
618.90	43395.87
619.06	43863.98
619.21	43077.56
619.36	43463.75
619.51	43690.78
619.67	43138.41
619.82	43831.21
619.97	43793.76
620.12	43201.61
620.28	42983.94
620.43	42965.21
620.58	43597.16
620.73	43072.88
620.89	43166.50
621.04	43400.55
621.19	42932.45
621.34	42995.64
621.49	42618.81
621.65	42972.24
621.80	42801.38
621.95	42869.25
622.10	42955.85
622.25	42927.77
622.41	42527.53
622.56	42834.14
622.71	42604.77
622.86	42513.49
623.01	42520.51
623.16	43063.52
623.32	43187.56
623.47	42939.47
623.62	42923.08
623.77	42719.46
623.92	42918.40
624.07	42305.18
624.23	42218.58
624.38	42305.18
624.53	42550.94
624.68	42618.81
624.83	42464.34
624.98	42911.38
625.13	42480.72
625.29	42536.90
625.44	42555.62
625.59	42539.24
625.74	41626.43
625.89	41605.36
626.04	41972.83
626.19	42398.80
626.34	42164.75
626.49	42029.00
626.65	42316.89
626.80	42401.14
626.95	42408.17
627.10	42195.18
627.25	41471.95
627.40	41687.28
627.55	41343.22
627.70	41811.33
627.85	41574.94
628.00	41626.43
628.15	42094.53
628.30	41769.20
628.45	42274.76
628.60	42110.92
628.76	41701.32
628.91	41675.58
629.06	42064.11
629.21	41368.97
629.36	41460.25
629.51	41600.68
629.66	41642.81
629.81	41621.75
629.96	41610.04
630.11	41804.31
630.26	41811.33
630.41	41354.93
630.56	41226.20
630.71	41572.60
630.86	41462.59
631.01	41399.40
631.16	41764.52
631.31	41118.53
631.46	40875.12
631.61	41347.90
631.76	41177.04
631.91	41120.87
632.06	41312.80
632.21	41158.32
632.36	41495.36
632.51	40938.31
632.66	41064.70
632.81	40678.51
632.96	40924.27
633.10	40685.53
633.25	40737.02
633.40	40631.70
633.55	41230.88
633.70	40947.67
633.85	40727.66
634.00	41036.61
634.15	40491.27
634.30	40535.74
634.45	41193.43
634.60	40807.24
634.75	40629.36
634.90	40610.64
635.05	40610.64
635.19	40870.43
635.34	41361.95
635.49	40809.58
635.64	40538.08
635.79	40605.95
635.94	40158.91
636.09	40229.13
636.24	40179.98
636.39	40004.44
636.53	40350.84
636.68	40112.10
636.83	40243.17
636.98	40687.87
637.13	39974.01
637.28	40442.12
637.43	40240.83
637.57	40774.47
637.72	40011.46
637.87	40161.25
638.02	40219.77
638.17	40273.60
638.32	39913.16
638.46	39714.21
638.61	39662.72
638.76	39608.89
638.91	39800.81
639.06	39988.05
639.20	40301.68
639.35	39782.09
639.50	39978.69
639.65	40266.58
639.80	40383.60
639.94	39758.68
640.09	39672.08
640.24	39737.62
640.39	39234.40
640.54	39732.93
640.68	40032.52
640.83	39711.87
640.98	39812.51
641.13	39236.74
641.27	39674.42
641.42	39187.59
641.57	39974.01
641.72	39402.92
641.86	39566.76
642.01	39339.72
642.16	39192.27
642.31	39180.57
642.45	39068.22
642.60	39421.64
642.75	39203.97
642.90	39365.47
643.04	39388.88
643.19	39428.66
643.34	39419.30
643.48	39108.01
643.63	39449.73
643.78	39604.20
643.93	38899.70
644.07	38710.12
644.22	39164.18
644.37	38951.20
644.51	38560.33
644.66	38941.83
644.81	39239.08
644.95	39014.39
645.10	39414.62
645.25	39227.38
645.39	38988.64
645.54	39353.77
645.69	38487.77
645.83	38883.32
645.98	38518.20
646.13	39100.99
646.27	39166.52
646.42	39072.90
646.57	38450.32
646.71	39103.33
646.86	38817.78
647.00	39037.80
647.15	38902.04
647.30	38354.36
647.44	38864.60
647.59	38759.27
647.74	37916.68
647.88	38359.04
648.03	38398.83
648.17	38799.06
648.32	37904.98
648.47	38557.99
648.61	38256.06
648.76	38431.60
648.90	38326.27
649.05	38176.48
649.20	38192.86
649.34	38534.58
649.49	38380.10
649.63	38295.85
649.78	38326.27
649.92	38005.62
650.07	38089.88
650.21	37853.48
650.36	37982.21
650.51	38178.82
650.65	38976.94
650.80	38677.35
650.94	38539.26
651.09	38340.32
651.23	38096.90
651.38	37961.15
651.52	38061.79
651.67	38146.05
651.81	37759.86
651.96	37790.29
652.10	37460.27
652.25	37762.20
652.39	37542.19
652.54	37502.40
652.68	37766.88
652.83	37853.48
652.97	37986.89
653.12	37684.97
653.26	37570.28
653.41	37495.38
653.55	37785.61
653.70	37581.98
653.84	37706.03
653.99	37598.37
654.13	37720.07
654.27	37394.74
654.42	37773.91
654.56	37511.77
654.71	37771.57
654.85	37511.77
655.00	37134.94
655.14	37132.60
655.29	37116.22
655.43	36814.29
655.57	37385.38
655.72	36924.29
655.86	37450.91
656.01	37010.89
656.15	36980.46
656.30	37345.59
656.44	37055.36
656.58	36821.31
656.73	36968.76
656.87	36835.35
657.01	36760.45
657.16	37104.51
657.30	36591.94
657.45	36549.81
657.59	36952.38
657.73	36746.41
657.88	36676.19
658.02	37151.32
658.16	36119.15
658.31	36973.44
658.45	36549.81
658.60	36704.28
658.74	36039.57
658.88	36575.55
659.03	36219.79
659.17	36364.90
659.31	36374.27
659.46	36156.60
659.60	36336.82
659.74	36460.87
659.89	36062.97
660.03	36329.80
660.17	36198.73
660.32	36339.16
660.46	36334.48
660.60	35847.64
660.74	35854.67
660.89	36231.49
661.03	35566.78
661.17	35690.83
661.32	35721.26
661.46	35489.54
661.60	35225.06
661.74	35866.37
661.89	35749.34
662.03	35824.24
662.17	35611.25
662.31	35257.83
662.46	35468.48
662.60	35606.57
662.74	35470.82
662.88	35622.95
663.03	34892.71
663.17	35651.04
663.31	35199.32
663.45	35402.94
663.60	34780.36
663.74	34644.61
663.88	34731.21
664.02	34799.08
664.17	34937.18
664.31	34309.91
664.45	34859.94
664.59	34646.95
664.73	35075.27
664.88	34513.54
665.02	34370.77
665.16	34637.59
665.30	34330.98
665.44	34459.71
665.59	34319.28
665.73	34459.71
665.87	34237.36
666.01	34192.89
666.15	34216.29
666.29	33928.41
666.44	34499.50
666.58	34120.33
666.72	34398.85
666.86	34323.96
667.00	34134.37
667.14	34183.52
667.28	33937.77
667.43	33617.11
667.57	33844.15
667.71	33163.05
667.85	33748.18
667.99	33371.36
668.13	33256.67
668.27	33207.52
668.41	33649.88
668.56	33354.97
668.70	33443.91
668.84	32816.65
668.98	33076.45
669.12	33617.11
669.26	33076.45
669.40	32739.41
669.54	32694.94
669.68	32755.80
669.82	33053.05
669.96	32556.85
670.10	32591.96
670.25	33057.73
670.39	33223.90
670.53	32510.04
670.67	32285.35
670.81	32664.52
670.95	32716.01
671.09	32329.82
671.23	32624.73
671.37	32711.33
671.51	32463.23
671.65	32210.45
671.79	31962.36
671.93	31742.35
672.07	32280.67
672.21	32126.19
672.35	32039.59
672.49	31878.10
672.63	31728.30
672.77	31756.39
672.91	31339.77
673.05	31732.98
673.19	31342.11
673.33	31166.57
673.47	31119.76
673.61	31145.51
673.75	31145.51
673.89	30724.21
674.03	30719.53
674.17	30824.86
674.31	30890.39
674.45	31101.04
674.59	30871.67
674.73	31035.50
674.87	30712.51
675.01	30850.60
675.15	30937.20
675.29	30726.55
675.43	30604.84
675.56	30625.91
675.70	30096.95
675.84	30546.33
675.98	29184.14
676.12	29851.19
676.26	29762.25
676.40	29769.27
676.54	29469.69
676.68	29607.78
676.82	29174.78
676.96	29551.60
677.10	29350.32
677.23	29593.73
677.37	29502.45
677.51	28905.62
677.65	28917.32
677.79	28596.67
677.93	28882.21
678.07	28863.49
678.21	28297.08
678.34	28563.90
678.48	28645.82
678.62	28680.92
678.76	28439.85
678.90	28198.77
679.04	28313.46
679.18	28231.54
679.31	27931.95
679.45	27995.15
679.59	27737.69
679.73	27665.13
679.87	28004.51
680.00	27910.89
680.14	27613.64
680.28	27316.39
680.42	26707.85
680.56	27339.80
680.70	27566.83
680.83	27208.73
680.97	27068.30
681.11	26749.98
681.25	26574.44
681.39	26759.34
681.52	26941.91
681.66	26836.58
681.80	26607.21
681.94	26527.63
682.07	26544.02
682.21	26824.88
682.35	26267.83
682.49	26368.48
682.62	26129.74
682.76	26038.46
682.90	26202.30
683.04	25888.67
683.17	25891.01
683.31	25689.72
683.45	25680.36
683.59	25722.49
683.72	25228.63
683.86	25120.97
684.00	24847.13
684.13	25369.07
684.27	25181.82
684.41	25090.54
684.55	24793.29
684.68	24758.19
684.82	25294.17
684.96	24812.02
685.09	24790.95
685.23	24271.36
685.37	24783.93
685.50	24458.60
685.64	24474.98
685.78	24290.08
685.91	24170.71
686.05	24133.26
686.19	23381.95
686.32	23920.28
686.46	23541.11
686.60	23403.02
686.73	23428.76
686.87	23267.27
687.01	23065.98
687.14	23126.83
687.28	23044.91
687.42	23028.53
687.55	22869.37
687.69	22888.10
687.82	22951.29
687.96	22799.16
688.10	22939.59
688.23	22647.02
688.37	22609.58
688.50	22228.07
688.64	22541.70
688.78	22043.17
688.91	22045.51
689.05	21979.97
689.18	22026.78
689.32	21692.08
689.46	21722.51
689.59	22218.71
689.73	21839.54
689.86	21762.30
690.00	21624.21
690.13	21867.63
690.27	21221.64
690.41	21156.10
690.54	21240.36
690.68	21156.10
690.81	21294.19
690.95	21200.57
691.08	20886.94
691.22	20734.81
691.35	20842.47
691.49	20734.81
691.62	20716.08
691.76	20732.47
691.89	20615.44
692.03	20486.71
692.16	20128.61
692.30	20098.18
692.43	20119.24
692.57	20063.07
692.70	20025.62
692.84	19868.81
692.97	20217.55
693.11	19632.41
693.24	19550.49
693.38	19477.94
693.51	19520.07
693.65	19655.82
693.78	19049.62
693.92	19707.31
694.05	19084.73
694.19	19063.66
694.32	19297.72
694.45	19044.94
694.59	19037.92
694.72	18813.23
694.86	18878.76
694.99	18649.39
695.13	18560.45
695.26	18520.66
695.39	18047.87
695.53	18441.08
695.66	18403.63
695.80	18497.25
695.93	18127.45
696.07	18043.19
696.20	17685.09
696.33	18068.94
696.47	17717.86
696.60	17895.74
696.73	17776.37
696.87	17865.31
697.00	17781.05
697.14	17528.27
697.27	17708.49
697.40	17415.93
697.54	17259.11
697.67	17027.40
697.80	17252.09
697.94	17160.81
698.07	16957.18
698.21	17006.33
698.34	17076.55
698.47	16945.48
698.61	16666.95
698.74	16578.01
698.87	16458.65
699.01	16421.20
699.14	16217.57
699.27	16290.13
699.40	16243.32
699.54	16231.62
699.67	16116.93
699.80	16145.02
699.94	16091.18
700.07	16194.17
700.20	15943.73
700.34	15744.78
700.47	15824.36
700.60	16079.48
700.73	15779.89
700.87	15679.25
701.00	15470.94
701.13	15552.86
701.26	15414.77
701.40	15442.85
701.53	14967.73
701.66	15337.53
701.79	15290.72
701.93	14949.00
702.06	15161.99
702.19	14597.92
702.32	15080.07
702.46	14719.63
702.59	14773.46
702.72	14541.75
702.85	14429.40
702.99	14436.42
703.12	14752.40
703.25	14651.75
703.38	14469.19
703.51	14319.40
703.65	13970.66
703.78	14167.26
703.91	14040.87
704.04	13956.61
704.17	14057.26
704.31	13898.10
704.44	13537.66
704.57	13631.28
704.70	13359.78
704.83	13554.04
704.96	13614.90
705.10	13509.57
705.23	13879.38
>>>>>End Processed Spectral Data<<<<<
