SpectraSuite Data File
++++++++++++++++++++++++++++++++++++
Date: Fri Oct 25 10:47:12 EDT 2013
User: price-jones
Dark Spectrum Present: No
Reference Spectrum Present: No
Number of Sampled Component Spectra: 1
Spectrometers: USB2+H05261
Integration Time (usec): 100000 (USB2+H05261)
Spectra Averaged: 1 (USB2+H05261)
Boxcar Smoothing: 0 (USB2+H05261)
Correct for Electrical Dark: No (USB2+H05261)
Strobe/Lamp Enabled: No (USB2+H05261)
Correct for Detector Non-linearity: No (USB2+H05261)
Correct for Stray Light: No (USB2+H05261)
Number of Pixels in Processed Spectrum: 2048
>>>>>Begin Processed Spectral Data<<<<<
365.73	166.18
365.92	166.18
366.12	166.18
366.32	133.41
366.52	100.64
366.72	51.49
366.91	0.00
367.11	11.70
367.31	18.72
367.51	56.17
367.70	23.41
367.90	51.49
368.10	11.70
368.30	0.00
368.49	28.09
368.69	70.22
368.89	32.77
369.09	56.17
369.28	51.49
369.48	23.41
369.68	107.66
369.87	74.90
370.07	95.96
370.27	128.73
370.47	222.35
370.66	386.19
370.86	388.53
371.06	397.89
371.25	498.53
371.45	402.57
371.65	444.70
371.84	437.68
372.04	454.06
372.24	475.13
372.44	517.26
372.63	437.68
372.83	521.94
373.03	507.90
373.22	486.83
373.42	500.87
373.62	514.92
373.81	552.37
374.01	543.00
374.21	585.13
374.40	573.43
374.60	561.73
374.79	521.94
374.99	561.73
375.19	512.58
375.38	594.50
375.58	507.90
375.78	599.18
375.97	594.50
376.17	599.18
376.37	615.56
376.56	547.69
376.76	564.07
376.95	596.84
377.15	634.29
377.35	573.43
377.54	606.20
377.74	566.41
377.93	641.31
378.13	662.37
378.33	629.60
378.52	587.47
378.72	657.69
378.91	660.03
379.11	615.56
379.31	596.84
379.50	592.16
379.70	620.24
379.89	638.97
380.09	655.35
380.28	526.62
380.48	650.67
380.68	662.37
380.87	662.37
381.07	653.01
381.26	645.99
381.46	631.94
381.65	594.50
381.85	641.31
382.04	634.29
382.24	734.93
382.43	678.76
382.63	669.39
382.83	711.52
383.02	643.65
383.22	760.67
383.41	645.99
383.61	765.36
383.80	777.06
384.00	709.18
384.19	711.52
384.39	779.40
384.58	739.61
384.78	713.86
384.97	734.93
385.17	744.29
385.36	770.04
385.56	685.78
385.75	734.93
385.95	753.65
386.14	765.36
386.34	681.10
386.53	716.20
386.72	807.48
386.92	847.27
387.11	748.97
387.31	744.29
387.50	854.30
387.70	858.98
387.89	793.44
388.09	807.48
388.28	795.78
388.48	866.00
388.67	840.25
388.86	819.19
389.06	971.32
389.25	858.98
389.45	887.06
389.64	847.27
389.84	954.94
390.03	912.81
390.22	861.32
390.42	926.85
390.61	844.93
390.81	947.92
391.00	966.64
391.19	968.98
391.39	894.08
391.58	1001.75
391.78	990.05
391.97	976.00
392.16	891.74
392.36	877.70
392.55	933.87
392.75	903.45
392.94	917.49
393.13	901.11
393.33	1008.77
393.52	924.51
393.71	1004.09
393.91	1081.33
394.10	1076.65
394.29	1022.81
394.49	1015.79
394.68	990.05
394.88	1015.79
395.07	1142.18
395.26	1081.33
395.46	1053.24
395.65	1086.01
395.84	1071.97
396.04	1146.86
396.23	1055.58
396.42	990.05
396.62	1109.41
396.81	1135.16
397.00	1100.05
397.19	1104.73
397.39	1287.29
397.58	1221.76
397.77	1235.80
397.97	1247.51
398.16	1200.69
398.35	1172.61
398.55	1235.80
398.74	1327.08
398.93	1369.21
399.12	1256.87
399.32	1376.24
399.51	1327.08
399.70	1355.17
399.90	1327.08
400.09	1320.06
400.28	1420.71
400.47	1394.96
400.67	1439.43
400.86	1303.68
401.05	1416.02
401.24	1401.98
401.44	1418.36
401.63	1455.81
401.82	1432.41
402.01	1437.09
402.21	1472.20
402.40	1486.24
402.59	1533.05
402.78	1614.97
402.97	1526.03
403.17	1570.50
403.36	1565.82
403.55	1549.43
403.74	1603.27
403.93	1591.56
404.13	1610.29
404.32	1654.76
404.51	1577.52
404.70	1650.08
404.89	1610.29
405.09	1732.00
405.28	1671.14
405.47	1703.91
405.66	1631.35
405.85	1682.85
406.05	1643.06
406.24	1724.97
406.43	1813.92
406.62	1879.45
406.81	1732.00
407.00	1781.15
407.20	1799.87
407.39	1832.64
407.58	1837.32
407.77	1930.94
407.96	1788.17
408.15	1830.30
408.34	1865.41
408.54	1940.30
408.73	1930.94
408.92	1919.24
409.11	2064.35
409.30	1949.67
409.49	1973.07
409.68	2022.22
409.87	2066.69
410.07	2050.31
410.26	1982.43
410.45	1982.43
410.64	2050.31
410.83	2045.63
411.02	2129.89
411.21	2289.04
411.40	2190.74
411.59	2174.36
411.78	2237.55
411.98	2162.66
412.17	2216.49
412.36	2326.49
412.55	2331.17
412.74	2347.56
412.93	2417.77
413.12	2385.01
413.31	2401.39
413.50	2394.37
413.69	2392.03
413.88	2485.65
414.07	2450.54
414.26	2504.37
414.45	2537.14
414.64	2626.08
414.83	2731.41
415.02	2766.51
415.22	2640.12
415.41	2579.27
415.60	2715.02
415.79	2637.78
415.98	2787.58
416.17	2773.53
416.36	2651.83
416.55	2733.75
416.74	2953.76
416.93	2792.26
417.12	2682.25
417.31	2878.86
417.50	2860.13
417.69	3019.29
417.88	2986.52
418.07	2951.42
418.26	2946.73
418.45	2986.52
418.64	3096.53
418.83	3150.36
419.02	3110.57
419.21	3178.45
419.39	3052.06
419.58	3148.02
419.77	3171.43
419.96	3272.07
420.15	3133.98
420.34	3087.17
420.53	3307.18
420.72	3379.73
420.91	3260.37
421.10	3173.77
421.29	3307.18
421.48	3159.72
421.67	3260.37
421.86	3361.01
422.05	3337.60
422.24	3389.10
422.43	3456.97
422.61	3396.12
422.80	3456.97
422.99	3384.41
423.18	3370.37
423.37	3410.16
423.56	3463.99
423.75	3419.52
423.94	3260.37
424.13	3248.66
424.32	3370.37
424.50	3466.33
424.69	3527.19
424.88	3590.38
425.07	3506.12
425.26	3421.86
425.45	3351.65
425.64	3485.06
425.83	3468.67
426.01	3602.08
426.20	3372.71
426.39	3421.86
426.58	3489.74
426.77	3524.85
426.96	3590.38
427.15	3538.89
427.33	3576.34
427.52	3599.74
427.71	3672.30
427.90	3508.46
428.09	3686.34
428.28	3660.60
428.46	3676.98
428.65	3798.69
428.84	3784.65
429.03	3805.71
429.22	3679.32
429.40	3798.69
429.59	3681.66
429.78	3597.40
429.97	3515.48
430.16	3581.02
430.34	3758.90
430.53	3829.12
430.72	3906.35
430.91	3775.28
431.10	3974.23
431.28	4002.32
431.47	3997.64
431.66	4051.47
431.85	4060.83
432.03	3932.10
432.22	4014.02
432.41	4198.92
432.60	4131.05
432.79	4128.70
432.97	4011.68
433.16	4196.58
433.35	4107.64
433.54	4159.13
433.72	4086.58
433.91	4163.81
434.10	4238.71
434.28	4217.65
434.47	4234.03
434.66	4173.18
434.85	4306.59
435.03	4365.10
435.22	4402.55
435.41	4449.36
435.59	4449.36
435.78	4266.80
435.97	4311.27
436.16	4456.38
436.34	4528.94
436.53	4587.45
436.72	4510.21
436.90	4592.13
437.09	4580.43
437.28	4552.34
437.46	4531.28
437.65	4678.73
437.84	4627.24
438.02	4463.40
438.21	4582.77
438.40	4669.37
438.58	4650.64
438.77	4760.65
438.96	4919.81
439.14	4704.48
439.33	4788.74
439.52	4917.47
439.70	5064.92
439.89	5046.20
440.08	5067.26
440.26	5100.03
440.45	5076.62
440.63	5179.61
440.82	5324.72
441.01	5179.61
441.19	5338.76
441.38	5329.40
441.57	5416.00
441.75	5441.75
441.94	5633.67
442.12	5460.47
442.31	5757.72
442.50	5579.84
442.68	5434.72
442.87	5509.62
443.05	5551.75
443.24	5760.06
443.43	5652.39
443.61	5659.42
443.80	5795.17
443.98	5434.72
444.17	5521.32
444.35	5788.14
444.54	5788.14
444.73	5706.23
444.91	5671.12
445.10	5811.55
445.28	5640.69
445.47	5750.70
445.65	5713.25
445.84	5692.18
446.02	5785.80
446.21	5661.76
446.39	5790.49
446.58	5809.21
446.77	5825.59
446.95	5762.40
447.14	5870.06
447.32	5753.04
447.51	5701.54
447.69	5792.83
447.88	5858.36
448.06	5832.62
448.25	6076.03
448.43	5926.24
448.62	6066.67
448.80	5839.64
448.99	6097.10
449.17	5982.41
449.36	5860.70
449.54	6097.10
449.73	6136.88
449.91	6249.23
450.10	6239.87
450.28	6284.34
450.46	6148.59
450.65	6267.95
450.83	6230.51
451.02	6223.48
451.20	6429.45
451.39	6256.25
451.57	6195.40
451.76	6080.71
451.94	6286.68
452.13	6300.72
452.31	6384.98
452.49	6251.57
452.68	6452.86
452.86	6214.12
453.05	6436.47
453.23	6593.29
453.42	6253.91
453.60	6478.60
453.78	6499.67
453.97	6455.20
454.15	6537.12
454.34	6506.69
454.52	6602.65
454.70	6553.50
454.89	6703.29
455.07	6483.28
455.26	6670.53
455.44	6862.45
455.62	6794.58
455.81	6771.17
455.99	6761.81
456.17	6813.30
456.36	7037.99
456.54	6916.28
456.73	6843.73
456.91	7080.12
457.09	6977.14
457.28	7119.91
457.46	7019.27
457.64	7023.95
457.83	7187.79
458.01	6876.49
458.19	7365.67
458.38	7124.59
458.56	7342.26
458.74	7131.61
458.93	7234.60
459.11	7293.11
459.29	7267.36
459.48	7452.27
459.66	7391.41
459.84	7522.48
460.03	7557.59
460.21	7545.89
460.39	7475.67
460.57	7623.12
460.76	7438.22
460.94	7679.30
461.12	7604.40
461.31	7613.76
461.49	7611.42
461.67	7478.01
461.85	7716.75
462.04	7655.89
462.22	8145.06
462.40	7925.05
462.59	7775.26
462.77	7655.89
462.95	7894.63
463.13	8053.78
463.32	7899.31
463.50	7854.84
463.68	8009.31
463.86	7985.91
464.05	7969.52
464.23	7754.19
464.41	7866.54
464.59	7976.55
464.78	8149.75
464.96	8046.76
465.14	8006.97
465.32	8154.43
465.50	8114.64
465.69	8208.26
465.87	8021.02
466.05	8077.19
466.23	7906.33
466.41	8234.00
466.60	8402.52
466.78	8243.37
466.96	8285.50
467.14	8238.69
467.32	8231.66
467.51	8603.81
467.69	8203.58
467.87	8304.22
468.05	8390.82
468.23	8348.69
468.41	8304.22
468.60	8454.02
468.78	8332.31
468.96	8226.98
469.14	8540.61
469.32	8774.67
469.50	8329.97
469.69	8858.93
469.87	8786.37
470.05	8739.56
470.23	8704.45
470.41	8732.54
470.59	8985.32
470.77	8685.73
470.95	8842.54
471.14	9275.54
471.32	8905.74
471.50	9188.94
471.68	9004.04
471.86	9212.35
472.04	9092.98
472.22	9490.87
472.40	9100.00
472.58	9125.75
472.77	9289.59
472.95	9476.83
473.13	9657.05
473.31	9291.93
473.49	9312.99
473.67	9600.88
473.85	9645.35
474.03	9734.29
474.21	9750.67
474.39	9661.73
474.57	9724.93
474.75	9774.08
474.93	9944.94
475.12	10024.51
475.30	10010.47
475.48	10134.52
475.66	9956.64
475.84	10104.09
476.02	10274.95
476.20	10450.49
476.38	10574.54
476.56	10764.12
476.74	10509.01
476.92	10443.47
477.10	10434.11
477.28	10752.42
477.46	10843.70
477.64	10874.13
477.82	10860.09
478.00	11250.96
478.18	11002.86
478.36	11328.19
478.54	11262.66
478.72	11337.56
478.90	11487.35
479.08	11805.66
479.26	11660.55
479.44	11651.19
479.62	11826.73
479.80	11896.94
479.98	11845.45
480.16	11985.88
480.34	12114.61
480.52	12257.39
480.70	12315.90
480.88	12032.69
481.06	12252.70
481.24	12341.64
481.41	12524.21
481.59	13062.53
481.77	12636.55
481.95	13050.83
482.13	12875.29
482.31	12816.77
482.49	13076.57
482.67	13343.39
482.85	13301.26
483.03	13666.39
483.21	13816.18
483.39	13830.23
483.57	13818.52
483.74	13912.14
483.92	13907.46
484.10	13923.85
484.28	14171.94
484.46	14593.24
484.64	14544.09
484.82	14403.66
485.00	14368.55
485.18	14595.58
485.35	14630.69
485.53	14707.93
485.71	14808.57
485.89	15227.53
486.07	15314.13
486.25	15164.33
486.43	15295.40
486.61	15314.13
486.78	15660.52
486.96	15822.02
487.14	16128.63
487.32	15969.48
487.50	16154.38
487.68	16189.49
487.85	16741.85
488.03	16407.16
488.21	16842.50
488.39	16720.79
488.57	16989.95
488.75	17130.38
488.92	17235.70
489.10	17263.79
489.28	17135.06
489.46	17839.56
489.64	17596.15
489.81	18202.35
489.99	17855.95
490.17	18052.55
490.35	18272.56
490.53	18579.17
490.70	18789.82
490.88	18597.90
491.06	18759.39
491.24	18916.21
491.41	18712.58
491.59	18794.50
491.77	19124.52
491.95	19061.32
492.13	19147.92
492.30	19461.55
492.48	19396.02
492.66	19894.55
492.84	19583.26
493.01	19812.63
493.19	19906.26
493.37	20112.22
493.54	20074.77
493.72	20678.63
493.90	20547.56
494.08	20844.81
494.25	20783.96
494.43	21010.99
494.61	21090.57
494.79	21092.91
494.96	21193.55
495.14	20924.39
495.32	21530.59
495.49	21628.89
495.67	21497.82
495.85	21774.00
496.02	21678.04
496.20	21926.14
496.38	22197.64
496.55	22120.40
496.73	22345.09
496.91	22291.26
497.09	22335.73
497.26	22918.53
497.44	22647.02
497.62	22588.51
497.79	22939.59
497.97	22682.13
498.14	23150.24
498.32	23246.20
498.50	23126.83
498.67	23620.69
498.85	23866.44
499.03	23587.92
499.20	23976.45
499.38	23864.10
499.56	24079.43
499.73	24168.37
499.91	23953.04
500.08	24245.61
500.26	24119.22
500.44	24407.11
500.61	24432.85
500.79	24276.04
500.97	24524.13
501.14	24994.58
501.32	24812.02
501.49	25102.25
501.67	24797.98
501.84	24769.89
502.02	25020.33
502.20	25280.13
502.37	25408.86
502.55	25465.03
502.72	25399.49
502.90	25717.81
503.07	25284.81
503.25	25649.93
503.43	25577.37
503.60	25872.28
503.78	25860.58
503.95	25619.50
504.13	26001.01
504.30	26368.48
504.48	26085.27
504.65	26340.39
504.83	26534.65
505.01	26546.36
505.18	26529.97
505.36	26630.62
505.53	26403.58
505.71	26850.63
505.88	26984.04
506.06	26625.93
506.23	27133.83
506.41	26984.04
506.58	27250.86
506.76	27297.67
506.93	27402.99
507.11	27573.85
507.28	27555.13
507.46	27646.41
507.63	27524.70
507.81	27674.49
507.98	27910.89
508.16	28074.73
508.33	27861.74
508.50	28315.80
508.68	28121.54
508.85	28627.09
509.03	28547.51
509.20	28566.24
509.38	28943.06
509.55	28680.92
509.73	28760.50
509.90	28526.45
510.08	28568.58
510.25	28697.31
510.42	28903.28
510.60	29041.37
510.77	29298.83
510.95	29329.25
511.12	29207.55
511.30	29352.66
511.47	29530.54
511.64	29682.67
511.82	29727.14
511.99	29369.04
512.17	30061.84
512.34	29523.52
512.51	30132.06
512.69	30377.81
512.86	30403.56
513.04	30541.65
513.21	30129.72
513.38	30270.15
513.56	30221.00
513.73	29951.84
513.90	30780.39
514.08	30331.00
514.25	30539.31
514.43	30532.29
514.60	30843.58
514.77	30838.90
514.95	31199.34
515.12	30988.69
515.29	31072.95
515.47	31697.88
515.64	30913.80
515.81	31431.05
515.99	31505.95
516.16	31473.18
516.33	31267.22
516.51	31697.88
516.68	31475.52
516.85	31379.56
517.03	31175.94
517.20	31491.91
517.37	31480.21
517.54	31864.05
517.72	32102.79
517.89	31723.62
518.06	31885.12
518.24	31871.07
518.41	31981.08
518.58	31824.26
518.75	32271.31
518.93	32575.58
519.10	32453.87
519.27	32615.37
519.45	32383.65
519.62	32725.37
519.79	32744.09
519.96	32680.90
520.14	33053.05
520.31	32718.35
520.48	32987.51
520.65	32800.27
520.83	33371.36
521.00	33376.04
521.17	33497.75
521.34	33523.49
521.52	33701.37
521.69	33544.56
521.86	33553.92
522.03	33467.32
522.20	33668.61
522.38	33982.24
522.55	33734.14
522.72	33902.66
522.89	34026.71
523.07	33993.94
523.24	33558.60
523.41	34082.88
523.58	33862.87
523.75	34501.84
523.92	34352.04
524.10	34855.26
524.27	34459.71
524.44	34668.02
524.61	34536.94
524.78	34864.62
524.96	35138.46
525.13	34866.96
525.30	34967.60
525.47	35264.85
525.64	34948.88
525.81	35070.59
525.98	35622.95
526.16	35065.91
526.33	35232.08
526.50	35473.16
526.67	34965.26
526.84	35204.00
527.01	35072.93
527.18	35409.96
527.36	35234.42
527.53	35388.90
527.70	35482.52
527.87	35782.11
528.04	35901.48
528.21	35711.89
528.38	35718.92
528.55	35739.98
528.72	36168.30
528.89	36266.60
529.07	35761.05
529.24	35817.22
529.41	36360.22
529.58	36116.81
529.75	36364.90
529.92	36055.95
530.09	36470.23
530.26	36240.86
530.43	36350.86
530.60	36624.70
530.77	36652.79
530.94	36423.42
531.11	36725.35
531.28	36800.24
531.46	37123.24
531.63	37062.38
531.80	36823.65
531.97	36533.42
532.14	36917.27
532.31	36774.50
532.48	37029.62
532.65	37415.80
532.82	37027.28
532.99	37177.07
533.16	36650.45
533.33	37352.61
533.50	37228.56
533.67	37085.79
533.84	37715.39
534.01	37240.26
534.18	37631.13
534.35	37759.86
534.52	37418.14
534.69	37780.93
534.86	38038.39
535.03	37720.07
535.20	37832.42
535.37	38359.04
535.54	38342.66
535.71	38251.38
535.88	37942.42
536.05	37846.46
536.22	38000.94
536.38	37729.44
536.55	37914.34
536.72	38391.81
536.89	38024.34
537.06	38192.86
537.23	38691.40
537.40	38476.07
537.57	38251.38
537.74	38483.09
537.91	38902.04
538.08	38525.22
538.25	38251.38
538.42	38763.95
538.59	38672.67
538.75	38330.95
538.92	38733.53
539.09	38904.38
539.26	39014.39
539.43	38904.38
539.60	39108.01
539.77	38759.27
539.94	38696.08
540.11	38815.44
540.28	38775.66
540.44	39342.06
540.61	39290.57
540.78	38703.10
540.95	39040.14
541.12	39056.52
541.29	38911.41
541.46	39566.76
541.62	39292.91
541.79	39676.76
541.96	38906.73
542.13	39391.22
542.30	39515.26
542.47	39585.48
542.63	39498.88
542.80	39952.94
542.97	40081.67
543.14	40353.18
543.31	40388.28
543.48	39864.00
543.64	40472.54
543.81	40430.41
543.98	40236.15
544.15	40407.01
544.32	40730.00
544.48	40666.81
544.65	40573.19
544.82	40610.64
544.99	40215.08
545.16	40343.81
545.32	40254.87
545.49	40865.75
545.66	41043.63
545.83	40509.99
546.00	41158.32
546.16	41167.68
546.33	40641.06
546.50	40390.62
546.67	41177.04
546.83	40563.82
547.00	40917.25
547.17	40851.71
547.34	40704.26
547.50	40472.54
547.67	41462.59
547.84	41338.54
548.00	41111.51
548.17	41024.91
548.34	41148.96
548.51	41359.61
548.67	41397.06
548.84	41380.67
549.01	41684.94
549.18	41373.65
549.34	41785.58
549.51	41626.43
549.68	41399.40
549.84	41614.72
550.01	41755.16
550.18	41247.26
550.34	41921.34
550.51	41448.55
550.68	41280.03
550.84	41399.40
551.01	41687.28
551.18	41984.53
551.34	41422.80
551.51	42050.06
551.68	41888.57
551.84	41684.94
552.01	41918.99
552.18	41638.13
552.34	42202.20
552.51	42232.63
552.68	42405.83
552.84	42323.91
553.01	42251.35
553.18	42010.28
553.34	42220.92
553.51	42073.47
553.67	42113.26
553.84	42340.29
554.01	42462.00
554.17	42698.39
554.34	42721.80
554.51	42944.15
554.67	42539.24
554.84	42560.30
555.00	42719.46
555.17	42490.09
555.33	42665.63
555.50	42148.37
555.67	42419.87
555.83	42801.38
556.00	42607.11
556.16	42756.91
556.33	42960.53
556.50	42712.44
556.66	42883.30
556.83	42553.28
556.99	42962.87
557.16	43150.12
557.32	42782.65
557.49	42887.98
557.65	42546.26
557.82	42658.60
557.98	42639.88
558.15	42939.47
558.32	42747.54
558.48	43091.60
558.65	43175.86
558.81	43098.62
558.98	42555.62
559.14	42731.16
559.31	43246.08
559.47	43096.28
559.64	43449.70
559.80	43356.08
559.97	43110.33
560.13	42988.62
560.30	43166.50
560.46	43119.69
560.63	42960.53
560.79	43428.64
560.96	43428.64
561.12	43171.18
561.29	43583.12
561.45	43203.95
561.61	43391.19
561.78	42808.40
561.94	43255.44
562.11	43447.36
562.27	43260.12
562.44	43332.68
562.60	43372.47
562.77	44065.27
562.93	43332.68
563.10	43650.99
563.26	43063.52
563.42	43878.02
563.59	43407.58
563.75	43281.19
563.92	43695.46
564.08	43833.55
564.24	43863.98
564.41	43761.00
564.57	43377.15
564.74	43489.49
564.90	43821.85
565.07	43814.83
565.23	43894.41
565.39	43665.03
565.56	43650.99
565.72	43903.77
565.88	43421.62
566.05	43641.63
566.21	43360.76
566.38	43643.97
566.54	43847.60
566.70	43863.98
566.87	43973.98
567.03	43878.02
567.19	44409.32
567.36	43786.74
567.52	43566.73
567.68	43929.51
567.85	44020.80
568.01	43491.83
568.17	43999.73
568.34	44177.61
568.50	44062.93
568.66	43662.69
568.83	43983.35
568.99	43730.57
569.15	44137.82
569.32	44217.40
569.48	43959.94
569.64	44444.43
569.81	44245.49
569.97	43943.56
570.13	44130.80
570.30	43899.09
570.46	44114.42
570.62	44013.77
570.78	43964.62
570.95	43831.21
571.11	44069.95
571.27	43957.60
571.43	44289.96
571.60	44343.79
571.76	43971.64
571.92	44140.16
572.09	44055.90
572.25	44158.89
572.41	43742.27
572.57	43838.23
572.74	44645.72
572.90	44292.30
573.06	44327.41
573.22	43971.64
573.38	44428.05
573.55	44041.86
573.71	44636.36
573.87	43903.77
574.03	44053.56
574.20	43744.61
574.36	44161.23
574.52	44446.77
574.68	44561.46
574.84	44238.47
575.01	43894.41
575.17	44376.56
575.33	43934.20
575.49	44556.78
575.65	44748.70
575.82	44694.87
575.98	44479.54
576.14	44456.14
576.30	44545.08
576.46	44320.38
576.62	43995.05
576.79	44151.87
576.95	44051.22
577.11	44552.10
577.27	44376.56
577.43	44395.28
577.59	44409.32
577.75	44285.28
577.92	44116.76
578.08	44399.96
578.24	44215.06
578.40	44119.10
578.56	44605.93
578.72	44128.46
578.88	44512.31
579.04	44552.10
579.21	44240.81
579.37	44238.47
579.53	44203.36
579.69	43817.17
579.85	44692.53
580.01	44594.23
580.17	44296.98
580.33	44392.94
580.49	44472.52
580.65	44477.20
580.82	44542.74
580.98	44170.59
581.14	44446.77
581.30	44505.29
581.46	44636.36
581.62	44603.59
581.78	43906.11
581.94	44746.36
582.10	44348.47
582.26	44917.22
582.42	44266.55
582.58	44626.99
582.74	43901.43
582.90	44390.60
583.06	44495.92
583.22	44832.96
583.38	44676.15
583.54	44423.37
583.70	44348.47
583.86	44776.79
584.02	43962.28
584.18	44184.63
584.34	44285.28
584.50	44755.72
584.66	44722.96
584.82	44257.19
584.98	44758.06
585.14	44500.61
585.30	44287.62
585.46	43973.98
585.62	44626.99
585.78	44374.22
585.94	44376.56
586.10	44561.46
586.26	44116.76
586.42	44521.67
586.58	44481.88
586.74	44374.22
586.90	44154.21
587.06	44589.55
587.22	44624.65
587.38	44016.11
587.54	44926.58
587.70	44924.24
587.86	44315.70
588.02	44765.09
588.18	44643.38
588.34	44687.85
588.49	44430.39
588.65	44479.54
588.81	44334.43
588.97	44123.78
589.13	44538.05
589.29	44809.56
589.45	44732.32
589.61	44697.21
589.77	44582.52
589.93	44474.86
590.08	44975.73
590.24	45310.43
590.40	44664.44
590.56	45102.12
590.72	44690.19
590.88	44390.60
591.04	44701.89
591.20	45043.61
591.35	44807.22
591.51	45099.78
591.67	44596.57
591.83	44779.13
591.99	44772.11
592.15	44624.65
592.31	44439.75
592.46	44758.06
592.62	44605.93
592.78	45074.04
592.94	44699.55
593.10	45214.47
593.26	45240.21
593.41	44893.82
593.57	44575.50
593.73	44172.93
593.89	44779.13
594.05	44659.76
594.20	44786.15
594.36	45153.62
594.52	45373.63
594.68	44980.42
594.84	45055.31
594.99	45495.33
595.15	45181.70
595.31	44844.66
595.47	45102.12
595.62	45015.52
595.78	45144.25
595.94	45244.90
596.10	44708.91
596.25	45254.26
596.41	45170.00
596.57	44896.16
596.73	44975.73
596.88	44900.84
597.04	44921.90
597.20	44453.79
597.36	44999.14
597.51	44776.79
597.67	45139.57
597.83	45153.62
597.99	45207.45
598.14	44994.46
598.30	44844.66
598.46	44954.67
598.61	44741.68
598.77	44734.66
598.93	45048.29
599.09	45057.65
599.24	45736.41
599.40	45188.72
599.56	45050.63
599.71	44603.59
599.87	45483.63
600.03	44957.01
600.18	45034.25
600.34	44905.52
600.50	45254.26
600.65	44690.19
600.81	44896.16
600.97	45492.99
601.12	45605.34
601.28	45043.61
601.44	44868.07
601.59	44989.78
601.75	44706.57
601.91	45261.28
602.06	44823.60
602.22	45144.25
602.37	45139.57
602.53	45071.70
602.69	45371.28
602.84	44781.47
603.00	44781.47
603.16	45055.31
603.31	45191.06
603.47	44804.88
603.62	45057.65
603.78	44804.88
603.94	44687.85
604.09	45102.12
604.25	45418.10
604.40	44725.30
604.56	45287.03
604.71	44865.73
604.87	44669.12
605.03	44999.14
605.18	44875.09
605.34	45228.51
605.49	44477.20
605.65	44769.77
605.80	44467.84
605.96	44954.67
606.12	44921.90
606.27	45043.61
606.43	44975.73
606.58	45261.28
606.74	44938.29
606.89	44980.42
607.05	44697.21
607.20	45233.19
607.36	44638.70
607.51	45078.72
607.67	45125.53
607.82	44849.35
607.98	44669.12
608.13	44641.04
608.29	44676.15
608.44	44362.51
608.60	43959.94
608.75	44369.54
608.91	44409.32
609.06	44313.36
609.22	44847.00
609.37	45013.18
609.53	44631.68
609.68	44528.69
609.84	44580.18
609.99	44713.59
610.15	44584.86
610.30	44430.39
610.46	44100.37
610.61	44472.52
610.76	44570.82
610.92	44364.85
611.07	44507.63
611.23	44133.14
611.38	44439.75
611.54	44161.23
611.69	44126.12
611.84	44872.75
612.00	44580.18
612.15	44215.06
612.31	44406.98
612.46	44304.00
612.62	44533.37
612.77	44350.81
612.92	43903.77
613.08	44058.24
613.23	44460.82
613.39	44072.29
613.54	43718.87
613.69	43871.00
613.85	43981.01
614.00	44020.80
614.15	44446.77
614.31	44149.53
614.46	44179.95
614.62	43945.90
614.77	44266.55
614.92	43805.47
615.08	43744.61
615.23	43707.16
615.38	44144.84
615.54	43711.84
615.69	43775.04
615.84	43889.73
616.00	43203.95
616.15	44081.65
616.30	43241.40
616.46	43510.56
616.61	43367.79
616.76	43936.54
616.92	43627.59
617.07	43393.53
617.22	43400.55
617.37	43604.18
617.53	43765.68
617.68	43838.23
617.83	43943.56
617.99	43632.27
618.14	43477.79
618.29	43985.69
618.45	43295.23
618.60	43007.34
618.75	43489.49
618.90	43824.19
619.06	43545.67
619.21	43559.71
619.36	43515.24
619.51	43187.56
619.67	43405.23
619.82	43349.06
619.97	43592.48
620.12	42883.30
620.28	43133.73
620.43	43035.43
620.58	43775.04
620.73	42997.98
620.89	43157.14
621.04	43100.97
621.19	43353.74
621.34	43136.07
621.49	42962.87
621.65	43077.56
621.80	43033.09
621.95	42674.99
622.10	43075.22
622.25	42745.20
622.41	42890.32
622.56	43100.97
622.71	42777.97
622.86	43070.54
623.01	42539.24
623.16	43077.56
623.32	42916.06
623.47	42794.36
623.62	42820.10
623.77	42644.56
623.92	42340.29
624.07	42536.90
624.23	42494.77
624.38	42934.79
624.53	42522.85
624.68	42508.81
624.83	42944.15
624.98	42429.23
625.13	42359.02
625.29	42391.78
625.44	42497.11
625.59	41867.50
625.74	41610.04
625.89	42068.79
626.04	41799.63
626.19	42464.34
626.34	41902.61
626.49	42499.45
626.65	42080.49
626.80	42342.63
626.95	42487.74
627.10	42080.49
627.25	41872.18
627.40	41729.41
627.55	41603.02
627.70	41254.28
627.85	41827.71
628.00	41841.76
628.15	42085.17
628.30	42099.22
628.45	42148.37
628.60	42066.45
628.76	42223.26
628.91	41930.70
629.06	41495.36
629.21	41743.45
629.36	41612.38
629.51	41565.57
629.66	41158.32
629.81	40933.63
629.96	41336.20
630.11	41872.18
630.26	41769.20
630.41	41715.37
630.56	41691.96
630.71	41338.54
630.86	41612.38
631.01	41432.16
631.16	41354.93
631.31	41493.02
631.46	41111.51
631.61	41170.02
631.76	41153.64
631.91	41504.72
632.06	40809.58
632.21	41415.78
632.36	41525.78
632.51	41022.57
632.66	40917.25
632.81	40720.64
632.96	40793.20
633.10	40751.07
633.25	40830.65
633.40	40706.60
633.55	40933.63
633.70	40926.61
633.85	40980.44
634.00	40884.48
634.15	40877.46
634.30	40825.96
634.45	40416.37
634.60	40399.99
634.75	40800.22
634.90	40699.58
635.05	40715.96
635.19	40467.86
635.34	40994.48
635.49	40753.41
635.64	40467.86
635.79	40451.48
635.94	40306.37
636.09	40493.61
636.24	40610.64
636.39	40076.99
636.53	40362.54
636.68	40133.17
636.83	40177.64
636.98	40236.15
637.13	40018.48
637.28	40053.59
637.43	40201.04
637.57	40549.78
637.72	40713.62
637.87	40222.11
638.02	40165.93
638.17	40245.51
638.32	39697.83
638.46	39941.24
638.61	39737.62
638.76	39641.65
638.91	39793.79
639.06	40076.99
639.20	40030.18
639.35	40215.08
639.50	39746.98
639.65	40065.29
639.80	40058.27
639.94	39789.11
640.09	39969.33
640.24	39480.16
640.39	39461.43
640.54	39957.63
640.68	40011.46
640.83	39208.65
640.98	39538.67
641.13	39686.12
641.27	39974.01
641.42	39337.38
641.57	39906.13
641.72	39796.13
641.86	39515.26
642.01	39730.59
642.16	39421.64
642.31	39309.30
642.45	39438.03
642.60	39218.02
642.75	38972.26
642.90	39089.29
643.04	39208.65
643.19	39171.21
643.34	39323.34
643.48	39281.21
643.63	39117.37
643.78	39321.00
643.93	39103.33
644.07	39122.05
644.22	38948.85
644.37	38754.59
644.51	39026.09
644.66	39000.35
644.81	39140.78
644.95	39192.27
645.10	38838.85
645.25	39047.16
645.39	39168.87
645.54	39061.20
645.69	38792.04
645.83	38700.76
645.98	38691.40
646.13	38873.96
646.27	39426.32
646.42	38946.51
646.57	38721.82
646.71	38497.13
646.86	38660.97
647.00	38831.83
647.15	38848.21
647.30	38848.21
647.44	39337.38
647.59	38906.73
647.74	38183.50
647.88	38623.52
648.03	38375.42
648.17	38459.68
648.32	38602.46
648.47	38174.14
648.61	38298.19
648.76	38499.47
648.90	38637.56
649.05	38209.25
649.20	38359.04
649.34	38649.27
649.49	38136.69
649.63	38272.44
649.78	38258.40
649.92	38249.03
650.07	38359.04
650.21	38122.65
650.36	37977.53
650.51	38256.06
650.65	38347.34
650.80	38693.74
650.94	38553.30
651.09	38150.73
651.23	38426.92
651.38	38003.28
651.52	38052.43
651.67	37989.24
651.81	38230.31
651.96	37684.97
652.10	37385.38
652.25	37621.77
652.39	37624.11
652.54	37626.45
652.68	37729.44
652.83	37600.71
652.97	38075.84
653.12	38155.41
653.26	37626.45
653.41	37450.91
653.55	37436.87
653.70	37881.57
653.84	37633.47
653.99	37998.60
654.13	37867.53
654.27	37270.69
654.42	37502.40
654.56	37057.70
654.71	38057.11
654.85	37350.27
655.00	37338.57
655.14	37078.77
655.29	36825.99
655.43	36748.75
655.57	37006.21
655.72	36519.38
655.86	37303.46
656.01	36753.43
656.15	37111.53
656.30	37296.44
656.44	36879.82
656.58	36884.50
656.73	36776.84
656.87	36781.52
657.01	36472.57
657.16	36577.89
657.30	36332.14
657.45	36233.83
657.59	36697.26
657.73	36479.59
657.88	37038.98
658.02	36947.70
658.16	36444.48
658.31	36486.61
658.45	36823.65
658.60	36126.17
658.74	36919.61
658.88	36645.77
659.03	36486.61
659.17	36133.19
659.31	36435.12
659.46	36357.88
659.60	35964.67
659.74	36147.23
659.89	36149.57
660.03	35880.41
660.17	36154.26
660.32	36203.41
660.46	36297.03
660.60	36320.43
660.74	36065.31
660.89	36133.19
661.03	36032.55
661.17	35842.96
661.32	35328.05
661.46	35613.59
661.60	35234.42
661.74	35484.86
661.89	35800.83
662.03	35978.72
662.17	35424.01
662.31	35178.25
662.46	35601.89
662.60	36048.93
662.74	35562.10
662.88	35491.88
663.03	35262.51
663.17	35122.08
663.31	35070.59
663.45	35005.05
663.60	35321.02
663.74	34705.46
663.88	34972.28
664.02	34574.39
664.17	35002.71
664.31	34426.94
664.45	34504.18
664.59	34864.62
664.73	34670.36
664.88	34677.38
665.02	34424.60
665.16	34625.89
665.30	34333.32
665.44	34417.58
665.59	34057.14
665.73	34176.50
665.87	33933.09
666.01	34448.00
666.15	33820.74
666.29	33989.26
666.44	34209.27
666.58	34174.16
666.72	33839.47
666.86	34176.50
667.00	34160.12
667.14	34043.09
667.28	34235.02
667.43	33778.61
667.57	33560.94
667.71	33443.91
667.85	33759.89
667.99	33553.92
668.13	33647.54
668.27	33102.20
668.41	33338.59
668.56	33034.32
668.70	33399.44
668.84	33364.34
668.98	33029.64
669.12	33369.02
669.26	32938.36
669.40	32849.42
669.54	33312.84
669.68	33146.67
669.82	32854.10
669.96	32664.52
670.10	32980.49
670.25	32912.61
670.39	32769.84
670.53	32917.29
670.67	32563.87
670.81	32421.10
670.95	32636.43
671.09	32421.10
671.23	32348.54
671.37	32168.32
671.51	32161.30
671.65	32095.77
671.79	32034.91
671.93	32025.55
672.07	32308.76
672.21	32371.95
672.35	31658.09
672.49	31985.76
672.63	32161.30
672.77	31592.55
672.91	31545.74
673.05	31402.97
673.19	31440.42
673.33	31222.75
673.47	31288.28
673.61	31056.57
673.75	31049.55
673.89	31246.15
674.03	30621.23
674.17	30595.48
674.31	30920.82
674.45	30958.27
674.59	30384.83
674.73	30965.29
674.87	30927.84
675.01	30979.33
675.15	30916.14
675.29	30782.73
675.43	31014.44
675.56	30616.55
675.70	30670.38
675.84	30022.05
675.98	29268.40
676.12	30176.53
676.26	29832.47
676.40	29895.66
676.54	29993.97
676.68	29743.53
676.82	29151.37
676.96	29170.10
677.10	29371.38
677.23	29160.73
677.37	29043.71
677.51	29247.33
677.65	29228.61
677.79	28858.81
677.93	29015.62
678.07	28943.06
678.21	28439.85
678.34	28893.91
678.48	28774.55
678.62	28285.37
678.76	28240.90
678.90	28376.66
679.04	28439.85
679.18	28292.40
679.31	27791.52
679.45	27943.66
679.59	27941.32
679.73	27646.41
679.87	27552.79
680.00	27438.10
680.14	27531.72
680.28	27379.59
680.42	27391.29
680.56	27491.93
680.70	27339.80
680.83	27241.50
680.97	27384.27
681.11	27285.97
681.25	26721.90
681.39	26747.64
681.52	26843.60
681.66	26841.26
681.80	26370.82
681.94	26590.83
682.07	26120.38
682.21	26487.84
682.35	26185.91
682.49	26249.11
682.62	26579.12
682.76	26279.54
682.90	25914.41
683.04	25792.70
683.17	26031.44
683.31	25949.52
683.45	25788.02
683.59	25682.70
683.72	25458.01
683.86	25156.08
684.00	24989.90
684.13	25083.52
684.27	25362.04
684.41	25153.74
684.55	24989.90
684.68	24779.25
684.82	24828.40
684.96	24697.33
685.09	24650.52
685.23	24559.24
685.37	24400.08
685.50	24507.75
685.64	24407.11
685.78	24318.17
685.91	24156.67
686.05	24100.50
686.19	23599.62
686.32	23960.06
686.46	23524.72
686.60	23594.94
686.73	23498.98
686.87	23550.47
687.01	23632.39
687.14	23468.55
687.28	22988.74
687.42	23168.96
687.55	23002.78
687.69	22909.16
687.82	23239.18
687.96	22789.80
688.10	22864.69
688.23	22787.46
688.37	22419.99
688.50	22052.53
688.64	22300.62
688.78	22387.22
688.91	21989.33
689.05	22134.45
689.18	21954.22
689.32	21720.17
689.46	22003.38
689.59	22143.81
689.73	22155.51
689.86	21668.68
690.00	21647.61
690.13	21816.13
690.27	21427.60
690.41	21448.67
690.54	21214.62
690.68	20659.91
690.81	21055.46
690.95	20830.77
691.08	20896.30
691.22	21317.60
691.35	20994.61
691.49	20924.39
691.62	21181.85
691.76	20741.83
691.89	20884.60
692.03	20233.93
692.16	20367.34
692.30	20243.29
692.43	20252.66
692.57	20144.99
692.70	19922.64
692.84	20149.67
692.97	20065.41
693.11	19836.04
693.24	19845.40
693.38	19683.91
693.51	19398.36
693.65	19707.31
693.78	19695.61
693.92	19646.46
694.05	19339.85
694.19	19386.66
694.32	18991.11
694.45	19215.80
694.59	19110.47
694.72	18754.71
694.86	18869.40
694.99	18998.13
695.13	18752.37
695.26	18544.06
695.39	18668.11
695.53	18387.25
695.66	18431.72
695.80	18356.82
695.93	18391.93
696.07	18146.17
696.20	17944.89
696.33	18230.43
696.47	18202.35
696.60	17989.36
696.73	17867.65
696.87	17584.44
697.00	17507.21
697.14	17720.20
697.27	17923.82
697.40	17507.21
697.54	17593.81
697.67	17228.68
697.80	17364.43
697.94	17362.09
698.07	17324.65
698.21	17062.51
698.34	17006.33
698.47	16933.78
698.61	16650.57
698.74	16823.77
698.87	16458.65
699.01	16212.89
699.14	16320.56
699.27	16070.12
699.40	16285.45
699.54	16294.81
699.67	15962.45
699.80	15999.90
699.94	15754.15
700.07	16067.78
700.20	15775.21
700.34	15765.85
700.47	15730.74
700.60	15960.11
700.73	16013.95
700.87	15751.81
701.00	15428.81
701.13	15506.05
701.26	15243.91
701.40	15157.31
701.53	15073.05
701.66	15250.93
701.79	15206.46
701.93	14923.26
702.06	14927.94
702.19	15103.48
702.32	14970.07
702.46	14583.88
702.59	14850.70
702.72	14693.88
702.85	14406.00
702.99	14441.11
703.12	14462.17
703.25	14317.06
703.38	14682.18
703.51	14281.95
703.65	14204.71
703.78	14244.50
703.91	13980.02
704.04	14249.18
704.17	14036.19
704.31	13813.84
704.44	13774.05
704.57	13682.77
704.70	13469.78
704.83	13411.27
704.96	13603.19
705.10	13694.47
705.23	13610.22
>>>>>End Processed Spectral Data<<<<<
