SpectraSuite Data File
++++++++++++++++++++++++++++++++++++
Date: Fri Oct 25 11:33:14 EDT 2013
User: price-jones
Dark Spectrum Present: No
Reference Spectrum Present: No
Number of Sampled Component Spectra: 1
Spectrometers: USB2+H05261
Integration Time (usec): 100000 (USB2+H05261)
Spectra Averaged: 1 (USB2+H05261)
Boxcar Smoothing: 0 (USB2+H05261)
Correct for Electrical Dark: No (USB2+H05261)
Strobe/Lamp Enabled: No (USB2+H05261)
Correct for Detector Non-linearity: No (USB2+H05261)
Correct for Stray Light: No (USB2+H05261)
Number of Pixels in Processed Spectrum: 2048
>>>>>Begin Processed Spectral Data<<<<<
365.73	285.55
365.92	285.55
366.12	285.55
366.32	210.65
366.52	187.24
366.72	184.90
366.91	140.43
367.11	187.24
367.31	180.22
367.51	205.97
367.70	154.48
367.90	170.86
368.10	173.20
368.30	156.82
368.49	93.62
368.69	163.84
368.89	177.88
369.09	227.03
369.28	191.92
369.48	175.54
369.68	152.13
369.87	196.60
370.07	212.99
370.27	280.86
370.47	339.38
370.66	402.57
370.86	425.98
371.06	531.30
371.25	496.19
371.45	461.09
371.65	561.73
371.84	545.34
372.04	550.03
372.24	578.11
372.44	477.47
372.63	627.26
372.83	596.84
373.03	566.41
373.22	634.29
373.42	585.13
373.62	603.86
373.81	648.33
374.01	671.73
374.21	624.92
374.40	610.88
374.60	578.11
374.79	671.73
374.99	741.95
375.19	695.14
375.38	683.44
375.58	650.67
375.78	681.10
375.97	660.03
376.17	699.82
376.37	699.82
376.56	697.48
376.76	653.01
376.95	699.82
377.15	709.18
377.35	617.90
377.54	748.97
377.74	741.95
377.93	622.58
378.13	685.78
378.33	770.04
378.52	737.27
378.72	674.07
378.91	706.84
379.11	727.91
379.31	702.16
379.50	746.63
379.70	746.63
379.89	737.27
380.09	734.93
380.28	781.74
380.48	674.07
380.68	711.52
380.87	758.33
381.07	814.51
381.26	823.87
381.46	753.65
381.65	737.27
381.85	784.08
382.04	734.93
382.24	730.25
382.43	823.87
382.63	793.44
382.83	779.40
383.02	725.57
383.22	809.83
383.41	760.67
383.61	755.99
383.80	851.96
384.00	814.51
384.19	875.36
384.39	875.36
384.58	821.53
384.78	842.59
384.97	720.88
385.17	777.06
385.36	823.87
385.56	851.96
385.75	800.46
385.95	844.93
386.14	938.55
386.34	901.11
386.53	875.36
386.72	858.98
386.92	933.87
387.11	777.06
387.31	926.85
387.50	833.23
387.70	884.72
387.89	854.30
388.09	943.24
388.28	915.15
388.48	990.05
388.67	847.27
388.86	896.43
389.06	917.49
389.25	866.00
389.45	976.00
389.64	999.41
389.84	966.64
390.03	919.83
390.22	1064.94
390.42	947.92
390.61	931.53
390.81	1006.43
391.00	987.71
391.19	1100.05
391.39	1011.11
391.58	1032.18
391.78	1036.86
391.97	1013.45
392.16	1034.52
392.36	1067.28
392.55	1008.77
392.75	1055.58
392.94	1078.99
393.13	1083.67
393.33	1008.77
393.52	1090.69
393.71	1034.52
393.91	1146.86
394.10	1125.80
394.29	1160.91
394.49	1053.24
394.68	1158.57
394.88	1128.14
395.07	1158.57
395.26	1151.54
395.46	1179.63
395.65	1123.46
395.84	1235.80
396.04	1280.27
396.23	1217.08
396.42	1170.27
396.62	1210.06
396.81	1291.98
397.00	1210.06
397.19	1135.16
397.39	1266.23
397.58	1235.80
397.77	1270.91
397.97	1263.89
398.16	1273.25
398.35	1352.83
398.55	1357.51
398.74	1277.93
398.93	1380.92
399.12	1371.55
399.32	1294.32
399.51	1317.72
399.70	1394.96
399.90	1334.11
400.09	1352.83
400.28	1404.32
400.47	1495.60
400.67	1331.76
400.86	1509.65
401.05	1458.15
401.24	1366.87
401.44	1530.71
401.63	1479.22
401.82	1469.86
402.01	1448.79
402.21	1537.73
402.40	1542.41
402.59	1490.92
402.78	1462.83
402.97	1469.86
403.17	1575.18
403.36	1544.75
403.55	1603.27
403.74	1645.40
403.93	1607.95
404.13	1542.41
404.32	1589.22
404.51	1638.38
404.70	1626.67
404.89	1659.44
405.09	1636.03
405.28	1708.59
405.47	1687.53
405.66	1689.87
405.85	1696.89
406.05	1701.57
406.24	1778.81
406.43	1659.44
406.62	1743.70
406.81	1753.06
407.00	1790.51
407.20	1729.66
407.39	1729.66
407.58	1774.13
407.77	1832.64
407.96	1858.39
408.15	1970.73
408.34	1830.30
408.54	1994.14
408.73	1956.69
408.92	1856.04
409.11	1963.71
409.30	2064.35
409.49	1998.82
409.68	1973.07
409.87	2043.29
410.07	2064.35
410.26	1963.71
410.45	2062.01
410.64	2211.81
410.83	2232.87
411.02	2076.06
411.21	2169.68
411.40	2143.93
411.59	2174.36
411.78	2139.25
411.98	2190.74
412.17	2230.53
412.36	2223.51
412.55	2338.20
412.74	2319.47
412.93	2324.15
413.12	2361.60
413.31	2464.58
413.50	2396.71
413.69	2448.20
413.88	2490.33
414.07	2480.97
414.26	2642.46
414.45	2637.78
414.64	2490.33
414.83	2647.15
415.02	2759.49
415.22	2623.74
415.41	2754.81
415.60	2726.72
415.79	2663.53
415.98	2689.28
416.17	2757.15
416.36	2700.98
416.55	2717.36
416.74	2836.73
416.93	2782.90
417.12	2864.82
417.31	2731.41
417.50	2885.88
417.69	2939.71
417.88	2986.52
418.07	2892.90
418.26	2906.95
418.45	2869.50
418.64	3173.77
418.83	3070.78
419.02	3094.19
419.21	3159.72
419.39	3035.67
419.58	3066.10
419.77	3166.74
419.96	3166.74
420.15	3166.74
420.34	3204.19
420.53	3068.44
420.72	3309.52
420.91	3279.09
421.10	3185.47
421.29	3337.60
421.48	3365.69
421.67	3358.67
421.86	3368.03
422.05	3274.41
422.24	3218.24
422.43	3368.03
422.61	3323.56
422.80	3463.99
422.99	3375.05
423.18	3410.16
423.37	3501.44
423.56	3328.24
423.75	3438.25
423.94	3353.99
424.13	3379.73
424.32	3318.88
424.50	3506.12
424.69	3485.06
424.88	3543.57
425.07	3499.10
425.26	3407.82
425.45	3368.03
425.64	3389.10
425.83	3421.86
426.01	3508.46
426.20	3529.53
426.39	3634.85
426.58	3562.30
426.77	3559.95
426.96	3620.81
427.15	3634.85
427.33	3517.83
427.52	3630.17
427.71	3634.85
427.90	3515.48
428.09	3667.62
428.28	3691.02
428.46	3620.81
428.65	3770.60
428.84	3723.79
429.03	3836.14
429.22	3676.98
429.40	3705.07
429.59	3805.71
429.78	3747.20
429.97	3672.30
430.16	3819.75
430.34	3805.71
430.53	3875.93
430.72	3861.88
430.91	3873.59
431.10	3957.85
431.28	3871.25
431.47	3911.04
431.66	3976.57
431.85	3988.27
432.03	3904.01
432.22	4131.05
432.41	4283.18
432.60	4149.77
432.79	4079.55
432.97	4002.32
433.16	4180.20
433.35	4065.51
433.54	4236.37
433.72	4159.13
433.91	4093.60
434.10	4257.43
434.28	4367.44
434.47	4222.33
434.66	4264.46
434.85	4489.15
435.03	4332.33
435.22	4280.84
435.41	4414.25
435.59	4306.59
435.78	4332.33
435.97	4339.35
436.16	4510.21
436.34	4500.85
436.53	4517.23
436.72	4669.37
436.90	4503.19
437.09	4629.58
437.28	4461.06
437.46	4585.11
437.65	4627.24
437.84	4561.70
438.02	4533.62
438.21	4727.88
438.40	4751.29
438.58	4727.88
438.77	4882.36
438.96	4748.95
439.14	4819.16
439.33	4978.32
439.52	4943.21
439.70	4978.32
439.89	5160.88
440.08	4957.25
440.26	5135.14
440.45	4973.64
440.63	5130.45
440.82	5125.77
441.01	5130.45
441.19	5221.74
441.38	5460.47
441.57	5296.63
441.75	5303.65
441.94	5451.11
442.12	5451.11
442.31	5397.28
442.50	5453.45
442.68	5416.00
442.87	5544.73
443.05	5654.73
443.24	5600.90
443.43	5631.33
443.61	5685.16
443.80	5607.92
443.98	5514.30
444.17	5441.75
444.35	5575.16
444.54	5746.02
444.73	5668.78
444.91	5619.63
445.10	5757.72
445.28	5715.59
445.47	5734.31
445.65	5771.76
445.84	5703.89
446.02	5806.87
446.21	5795.17
446.39	5764.74
446.58	5823.25
446.77	5762.40
446.95	5610.26
447.14	5645.37
447.32	5888.79
447.51	5776.44
447.69	5832.62
447.88	5722.61
448.06	5626.65
448.25	5870.06
448.43	5935.60
448.62	5832.62
448.80	5837.30
448.99	5893.47
449.17	5851.34
449.36	5912.19
449.54	5968.37
449.73	5949.64
449.91	6092.41
450.10	6071.35
450.28	6251.57
450.46	6169.65
450.65	6186.04
450.83	6200.08
451.02	6249.23
451.20	6406.05
451.39	6319.45
451.57	6148.59
451.76	6197.74
451.94	6216.46
452.13	6380.30
452.31	6150.93
452.49	6150.93
452.68	6408.39
452.86	6349.87
453.05	6504.35
453.23	6602.65
453.42	6300.72
453.60	6427.11
453.78	6502.01
453.97	6448.18
454.15	6476.26
454.34	6389.66
454.52	6576.91
454.70	6649.46
454.89	6490.31
455.07	6679.89
455.26	6827.34
455.44	6628.40
455.62	6628.40
455.81	6686.91
455.99	6888.20
456.17	6780.53
456.36	6867.13
456.54	6785.21
456.73	6960.75
456.91	7012.24
457.09	7089.48
457.28	7180.76
457.46	6916.28
457.64	7096.50
457.83	7056.72
458.01	7037.99
458.19	7148.00
458.38	7112.89
458.56	7337.58
458.74	7129.27
458.93	7030.97
459.11	7243.96
459.29	7431.20
459.48	7389.07
459.66	7344.60
459.84	7595.04
460.03	7267.36
460.21	7524.82
460.39	7506.10
460.57	7382.05
460.76	7508.44
460.94	7466.31
461.12	7623.12
461.31	7545.89
461.49	7583.34
461.67	7550.57
461.85	7672.28
462.04	7779.94
462.22	8152.09
462.40	7941.44
462.59	7831.43
462.77	7719.09
462.95	7903.99
463.13	7705.04
463.32	7962.50
463.50	7901.65
463.68	8030.38
463.86	8088.89
464.05	7786.96
464.23	8046.76
464.41	7927.39
464.59	7950.80
464.78	8051.44
464.96	8177.83
465.14	8116.98
465.32	8241.03
465.50	8210.60
465.69	8236.35
465.87	8248.05
466.05	8166.13
466.23	8053.78
466.41	8285.50
466.60	8402.52
466.78	8276.13
466.96	8322.94
467.14	8163.79
467.32	8449.33
467.51	8645.94
467.69	8273.79
467.87	8430.61
468.05	8603.81
468.23	8500.83
468.41	8351.03
468.60	8416.57
468.78	8624.87
468.96	8573.38
469.14	8624.87
469.32	8816.80
469.50	8414.23
469.69	8620.19
469.87	8802.75
470.05	8847.22
470.23	8767.65
470.41	8903.40
470.59	9111.71
470.77	9046.17
470.95	8931.48
471.14	9273.20
471.32	8861.27
471.50	9090.64
471.68	8999.36
471.86	9341.08
472.04	9163.20
472.22	9521.30
472.40	9233.41
472.58	9336.40
472.77	9315.33
472.95	9348.10
473.13	9790.46
473.31	9535.34
473.49	9500.23
473.67	9444.06
473.85	9682.80
474.03	9930.89
474.21	9701.52
474.39	10083.03
474.57	9975.36
474.75	10029.20
474.93	10260.91
475.12	9888.76
475.30	10223.46
475.48	10197.71
475.66	10209.42
475.84	10202.40
476.02	10331.12
476.20	10223.46
476.38	10548.79
476.56	10658.80
476.74	10534.75
476.92	10651.78
477.10	10574.54
477.28	10747.74
477.46	10934.98
477.64	11073.07
477.82	10904.56
478.00	11257.98
478.18	11269.68
478.36	11447.56
478.54	11693.32
478.72	11587.99
478.90	11683.95
479.08	11592.67
479.26	11768.21
479.44	11808.00
479.62	11758.85
479.80	11808.00
479.98	12126.32
480.16	12142.70
480.34	12161.42
480.52	12404.84
480.70	12556.97
480.88	12526.55
481.06	12402.50
481.24	12463.35
481.41	12725.49
481.59	12603.78
481.77	12959.55
481.95	12992.31
482.13	13322.33
482.31	13212.32
482.49	13158.49
482.67	13540.00
482.85	13708.52
483.03	13811.50
483.21	13778.73
483.39	13919.17
483.57	13722.56
483.74	14085.34
483.92	14377.91
484.10	14106.41
484.28	14569.83
484.46	14682.18
484.64	14909.21
484.82	14516.00
485.00	14733.67
485.18	15073.05
485.35	15377.32
485.53	15192.42
485.71	15555.20
485.89	15407.75
486.07	15342.21
486.25	15543.50
486.43	15611.37
486.61	15852.45
486.78	16032.67
486.96	15936.71
487.14	16205.87
487.32	16346.30
487.50	16573.33
487.68	16819.09
487.85	16678.66
488.03	17348.05
488.21	17348.05
488.39	17343.37
488.57	17174.85
488.75	17256.77
488.92	17631.26
489.10	17666.36
489.28	17940.21
489.46	17996.38
489.64	18169.58
489.81	18459.81
489.99	18405.97
490.17	18356.82
490.35	18719.60
490.53	18707.90
490.70	18740.67
490.88	18946.64
491.06	19232.18
491.24	19176.01
491.41	19225.16
491.59	19370.27
491.77	19452.19
491.95	19807.95
492.13	19674.54
492.30	19948.39
492.48	19936.68
492.66	20166.06
492.84	20198.82
493.01	20451.60
493.19	20601.40
493.37	20388.41
493.54	20830.77
493.72	20861.19
493.90	20849.49
494.08	20795.66
494.25	21238.02
494.43	21263.77
494.61	21488.46
494.79	21645.27
494.96	21612.51
495.14	21401.86
495.32	21986.99
495.49	21839.54
495.67	22075.93
495.85	21851.24
496.02	22384.88
496.20	22789.80
496.38	22824.90
496.55	22586.17
496.73	23159.60
496.91	22906.82
497.09	23070.66
497.26	23087.04
497.44	23051.94
497.62	23531.75
497.79	23510.68
497.97	23578.56
498.14	23480.25
498.32	23889.85
498.50	24144.97
498.67	24137.94
498.85	24067.73
499.03	24243.27
499.20	24187.10
499.38	24542.86
499.56	24460.94
499.73	24835.42
499.91	25015.65
500.08	24666.91
500.26	24877.55
500.44	24725.42
500.61	24915.00
500.79	25247.36
500.97	25589.08
501.14	25862.92
501.32	25465.03
501.49	25652.27
501.67	25696.74
501.84	25881.64
502.02	25724.83
502.20	25678.02
502.37	25783.34
502.55	26026.76
502.72	26178.89
502.90	26129.74
503.07	26108.68
503.25	26544.02
503.43	26382.52
503.60	26352.09
503.78	26600.19
503.95	26813.18
504.13	26726.58
504.30	26939.57
504.48	26644.66
504.65	26569.76
504.83	27239.15
505.01	27433.42
505.18	27250.86
505.36	27421.72
505.53	27716.62
505.71	27817.27
505.88	28074.73
506.06	27749.39
506.23	28077.07
506.41	27978.76
506.58	28161.33
506.76	28224.52
506.93	28648.16
507.11	28285.37
507.28	28379.00
507.46	28589.64
507.63	28416.44
507.81	29057.75
507.98	28744.12
508.16	28879.87
508.33	28905.62
508.50	29235.63
508.68	29102.22
508.85	29298.83
509.03	29090.52
509.20	29366.70
509.38	29689.70
509.55	29748.21
509.73	29392.45
509.90	29919.07
510.08	29333.93
510.25	29673.31
510.42	29944.81
510.60	30611.87
510.77	30305.26
510.95	30361.43
511.12	30164.82
511.30	30532.29
511.47	30663.36
511.64	30225.68
511.82	30600.16
511.99	30913.80
512.17	30803.79
512.34	31007.42
512.51	30859.96
512.69	31372.54
512.86	31164.23
513.04	31267.22
513.21	31180.62
513.38	31850.01
513.56	31569.15
513.73	31606.59
513.90	31732.98
514.08	31543.40
514.25	31737.66
514.43	32046.62
514.60	32231.52
514.77	31826.60
514.95	32215.13
515.12	31859.37
515.29	32065.34
515.47	32395.35
515.64	32566.21
515.81	32084.06
515.99	32243.22
516.16	32376.63
516.33	32797.93
516.51	33259.01
516.68	32383.65
516.85	33139.65
517.03	32992.19
517.20	32828.35
517.37	33071.77
517.54	33151.35
517.72	33354.97
517.89	33244.97
518.06	33338.59
518.24	33062.41
518.41	33345.61
518.58	33354.97
518.75	33537.54
518.93	33586.69
519.10	33488.38
519.27	33394.76
519.45	33853.51
519.62	34199.91
519.79	34352.04
519.96	33769.25
520.14	34272.46
520.31	34143.74
520.48	34223.31
520.65	34150.76
520.83	35112.72
521.00	35021.44
521.17	34838.87
521.34	34740.57
521.52	34873.98
521.69	34866.96
521.86	35122.08
522.03	35201.66
522.20	35173.57
522.38	35374.86
522.55	35405.28
522.72	35407.62
522.89	35173.57
523.07	36009.14
523.24	35735.30
523.41	35852.33
523.58	35009.73
523.75	36079.36
523.92	35541.03
524.10	35697.85
524.27	35938.93
524.44	35871.05
524.61	36055.95
524.78	36355.54
524.96	36294.69
525.13	36212.77
525.30	36533.42
525.47	36364.90
525.64	36573.21
525.81	36994.51
525.98	36460.87
526.16	37022.59
526.33	36591.94
526.50	36893.86
526.67	36636.41
526.84	36659.81
527.01	36725.35
527.18	36725.35
527.36	37116.22
527.53	37195.79
527.70	37647.52
527.87	37483.68
528.04	37301.12
528.21	37741.14
528.38	37516.45
528.55	37921.36
528.72	37998.60
528.89	37598.37
529.07	37532.83
529.24	37544.53
529.41	37811.35
529.58	37972.85
529.75	38052.43
529.92	38155.41
530.09	38003.28
530.26	37970.51
530.43	38450.32
530.60	37874.55
530.77	38040.73
530.94	38174.14
531.11	38122.65
531.28	38031.36
531.46	38234.99
531.63	38295.85
531.80	38478.41
531.97	38719.48
532.14	38682.03
532.31	38969.92
532.48	38525.22
532.65	39126.74
532.82	38888.00
532.99	39047.16
533.16	38911.41
533.33	39124.40
533.50	39342.06
533.67	39283.55
533.84	39040.14
534.01	39250.78
534.18	39639.31
534.35	39487.18
534.52	39599.52
534.69	40222.11
534.86	39749.32
535.03	39627.61
535.20	39683.78
535.37	39599.52
535.54	39948.26
535.71	39601.86
535.88	40364.88
536.05	39739.96
536.22	40453.82
536.38	40407.01
536.55	39882.73
536.72	40402.33
536.89	40161.25
537.06	40306.37
537.23	40282.96
537.40	40528.72
537.57	39992.73
537.74	39856.98
537.91	40648.08
538.08	40882.14
538.25	40266.58
538.42	40685.53
538.59	40966.40
538.75	41022.57
538.92	40587.23
539.09	40858.73
539.26	40844.69
539.43	41050.66
539.60	40980.44
539.77	41097.47
539.94	41462.59
540.11	41408.76
540.28	41060.02
540.44	41071.72
540.61	40961.72
540.78	41329.18
540.95	41301.09
541.12	41099.81
541.29	41638.13
541.46	41844.10
541.62	41514.08
541.79	41621.75
541.96	41172.36
542.13	41404.08
542.30	41731.75
542.47	41947.08
542.63	41883.89
542.80	42174.11
542.97	42239.65
543.14	42160.07
543.31	42253.69
543.48	42171.77
543.64	42356.67
543.81	42787.33
543.98	42564.98
544.15	42220.92
544.32	42976.92
544.48	42586.05
544.65	42569.66
544.82	42738.18
544.99	42394.12
545.16	42969.90
545.32	42986.28
545.49	43206.29
545.66	43166.50
545.83	43438.00
546.00	43248.42
546.16	43056.50
546.33	42862.23
546.50	42667.97
546.67	43096.28
546.83	42625.84
547.00	42916.06
547.17	43206.29
547.34	43171.18
547.50	43573.75
547.67	43746.95
547.84	43533.96
548.00	43185.22
548.17	44222.08
548.34	43737.59
548.51	43997.39
548.67	43639.29
548.84	43978.67
549.01	43728.23
549.18	43662.69
549.34	43650.99
549.51	43906.11
549.68	43803.13
549.84	43770.36
550.01	44439.75
550.18	43679.08
550.34	44203.36
550.51	43992.71
550.68	44116.76
550.84	44069.95
551.01	44470.18
551.18	44191.65
551.34	44074.63
551.51	44011.43
551.68	44437.41
551.84	43889.73
552.01	44444.43
552.18	44172.93
552.34	44156.55
552.51	44191.65
552.68	44360.17
552.84	44652.74
553.01	44800.19
553.18	44495.92
553.34	44449.11
553.51	44580.18
553.67	44261.87
553.84	44758.06
554.01	44580.18
554.17	44776.79
554.34	44816.58
554.51	45240.21
554.67	45296.39
554.84	44605.93
555.00	44811.90
555.17	44545.08
555.33	45116.17
555.50	45368.94
555.67	45205.11
555.83	44664.44
556.00	45448.52
556.16	45191.06
556.33	45148.93
556.50	45333.84
556.66	45006.16
556.83	45130.21
556.99	45595.98
557.16	45287.03
557.32	45497.67
557.49	45308.09
557.65	45343.20
557.82	45399.37
557.98	45366.60
558.15	45165.32
558.32	45855.78
558.48	45193.40
558.65	45703.64
558.81	45895.56
558.98	45839.39
559.14	46010.25
559.31	45537.46
559.47	45677.90
559.64	45895.56
559.80	45698.96
559.97	46136.64
560.13	45567.89
560.30	45982.16
560.46	46068.76
560.63	46426.87
560.79	46225.58
560.96	46560.28
561.12	46073.45
561.29	46068.76
561.45	46000.89
561.61	46103.87
561.78	45989.19
561.94	45895.56
562.11	46178.77
562.27	46351.97
562.44	46064.08
562.60	46225.58
562.77	46469.00
562.93	45921.31
563.10	45984.51
563.26	46625.81
563.42	46813.05
563.59	46354.31
563.75	46234.94
563.92	46096.85
564.08	46628.15
564.24	46206.86
564.41	46342.61
564.57	46651.56
564.74	46087.49
564.90	46681.98
565.07	46375.37
565.23	46808.37
565.39	46471.34
565.56	46731.14
565.72	46457.29
565.88	46600.07
566.05	46766.24
566.21	46703.05
566.38	46588.36
566.54	46871.57
566.70	46560.28
566.87	46864.55
567.03	46909.02
567.19	46880.93
567.36	46639.86
567.52	46586.02
567.68	46658.58
567.85	47196.90
568.01	47538.62
568.17	47068.17
568.34	47014.34
568.50	46955.83
568.66	46529.85
568.83	46590.70
568.99	46663.26
569.15	46869.23
569.32	46810.71
569.48	47002.64
569.64	46962.85
569.81	47281.16
569.97	47290.52
570.13	47192.22
570.30	46927.74
570.46	46829.44
570.62	47166.48
570.78	46660.92
570.95	47047.11
571.11	47213.29
571.27	47004.98
571.43	46815.40
571.60	47234.35
571.76	46834.12
571.92	46890.29
572.09	46944.12
572.25	46698.37
572.41	47110.30
572.57	47007.32
572.74	47503.51
572.90	47082.22
573.06	47426.28
573.22	47168.82
573.38	47517.56
573.55	47313.93
573.71	47594.79
573.87	47243.71
574.03	47208.61
574.20	47199.24
574.36	47456.70
574.52	47739.91
574.68	47480.11
574.84	47643.94
575.01	46990.94
575.17	47178.18
575.33	47271.80
575.49	47182.86
575.65	47868.64
575.82	47423.93
575.98	47203.92
576.14	47428.62
576.30	47267.12
576.46	47461.38
576.62	47433.30
576.79	47313.93
576.95	47267.12
577.11	47215.63
577.27	47533.94
577.43	47669.69
577.59	47421.59
577.75	47164.14
577.92	47583.09
578.08	47660.33
578.24	47861.61
578.40	47819.49
578.56	47786.72
578.72	47868.64
578.88	47613.52
579.04	47477.77
579.21	47367.76
579.37	47819.49
579.53	47910.77
579.69	47672.03
579.85	47349.04
580.01	47749.27
580.17	47611.18
580.33	48037.16
580.49	47819.49
580.65	47657.99
580.82	47585.43
580.98	47353.72
581.14	47370.10
581.30	47470.75
581.46	47178.18
581.62	47547.98
581.78	47643.94
581.94	47746.93
582.10	47653.31
582.26	47978.64
582.42	47381.80
582.58	47711.82
582.74	47805.44
582.90	47646.29
583.06	47973.96
583.22	47686.07
583.38	47756.29
583.54	47735.23
583.70	47831.19
583.86	48011.41
584.02	47952.90
584.18	47948.21
584.34	47803.10
584.50	48100.35
584.66	47587.77
584.82	47887.36
584.98	48062.90
585.14	48210.35
585.30	47583.09
585.46	47566.71
585.62	47704.80
585.78	47842.89
585.94	47503.51
586.10	47889.70
586.26	47545.64
586.42	47330.31
586.58	47756.29
586.74	47578.41
586.90	47667.35
587.06	47524.58
587.22	47927.15
587.38	47648.63
587.54	48313.34
587.70	48224.40
587.86	47870.98
588.02	47763.31
588.18	47746.93
588.34	47913.11
588.49	48123.75
588.65	47992.68
588.81	47952.90
588.97	48062.90
589.13	47763.31
589.29	48072.26
589.45	47999.71
589.61	48282.91
589.77	48044.18
589.93	48062.90
590.08	48109.71
590.24	48325.04
590.40	48657.40
590.56	48545.05
590.72	48142.48
590.88	48156.52
591.04	47999.71
591.20	48643.35
591.35	48392.92
591.51	48437.39
591.67	48245.46
591.83	48357.81
591.99	48090.99
592.15	48442.07
592.31	48133.12
592.46	48240.78
592.62	48086.31
592.78	48449.09
592.94	48636.33
593.10	48657.40
593.26	48486.54
593.41	48641.01
593.57	48472.49
593.73	48371.85
593.89	48540.37
594.05	48409.30
594.20	48720.59
594.36	48617.61
594.52	48582.50
594.68	48271.21
594.84	48243.12
594.99	48781.45
595.15	48388.24
595.31	48533.35
595.47	48374.19
595.62	48947.62
595.78	48215.04
595.94	48811.87
596.10	48472.49
596.25	48699.53
596.41	48638.67
596.57	48505.26
596.73	48594.20
596.88	48500.58
597.04	48526.33
597.20	48641.01
597.36	48673.78
597.51	48439.73
597.67	48404.62
597.83	48362.49
597.99	48648.03
598.14	48521.65
598.30	48547.39
598.46	48624.63
598.61	48872.73
598.77	48486.54
598.93	48596.54
599.09	48708.89
599.24	49167.63
599.40	48790.81
599.56	48531.01
599.71	48680.80
599.87	49291.68
600.03	48818.89
600.18	49003.80
600.34	49001.46
600.50	48463.13
600.65	48603.56
600.81	49104.44
600.97	48839.96
601.12	48926.56
601.28	48872.73
601.44	48659.74
601.59	49202.74
601.75	48357.81
601.91	48846.98
602.06	48935.92
602.22	48570.80
602.37	48872.73
602.53	48774.42
602.69	48767.40
602.84	48877.41
603.00	48652.72
603.16	48446.75
603.31	48615.27
603.47	48769.74
603.62	48973.37
603.78	48933.58
603.94	48861.02
604.09	49064.65
604.25	48552.07
604.40	48605.91
604.56	48615.27
604.71	49221.47
604.87	48851.66
605.03	48491.22
605.18	49144.23
605.34	48636.33
605.49	48336.74
605.65	48416.32
605.80	48786.13
605.96	48376.53
606.12	48807.19
606.27	48774.42
606.43	48486.54
606.58	48376.53
606.74	48669.10
606.89	48956.99
607.05	48582.50
607.20	48774.42
607.36	48886.77
607.51	48638.67
607.67	48472.49
607.82	48495.90
607.98	48516.96
608.13	48825.92
608.29	48142.48
608.44	48385.89
608.60	48582.50
608.75	48772.08
608.91	48285.25
609.06	48694.85
609.22	48624.63
609.37	48399.94
609.53	48554.41
609.68	48580.16
609.84	48650.38
609.99	48135.46
610.15	48718.25
610.30	48516.96
610.46	48179.93
610.61	48502.92
610.76	48432.71
610.92	47936.51
611.07	48533.35
611.23	48264.19
611.38	48280.57
611.54	48673.78
611.69	48336.74
611.84	48313.34
612.00	48098.01
612.15	48023.11
612.31	48339.08
612.46	48114.39
612.62	48170.57
612.77	47672.03
612.92	48491.22
613.08	48212.70
613.23	48465.47
613.39	47620.54
613.54	48179.93
613.69	48442.07
613.85	47767.99
614.00	48477.18
614.15	48547.39
614.31	47852.25
614.46	47885.02
614.62	47826.51
614.77	48109.71
614.92	47714.16
615.08	47885.02
615.23	47945.87
615.38	48175.25
615.54	48116.73
615.69	48093.33
615.84	47934.17
616.00	48210.35
616.15	48231.42
616.30	48381.21
616.46	47592.45
616.61	47934.17
616.76	47552.66
616.92	48112.05
617.07	47629.90
617.22	47440.32
617.37	47526.92
617.53	47732.89
617.68	47973.96
617.83	47695.44
617.99	47714.16
618.14	47767.99
618.29	47447.34
618.45	47079.88
618.60	47489.47
618.75	47428.62
618.90	47430.96
619.06	47430.96
619.21	47388.83
619.36	47594.79
619.51	47398.19
619.67	47271.80
619.82	47367.76
619.97	47494.15
620.12	47711.82
620.28	47224.99
620.43	47885.02
620.58	47414.57
620.73	47224.99
620.89	47688.42
621.04	47456.70
621.19	46995.62
621.34	47477.77
621.49	47138.39
621.65	47384.15
621.80	47332.65
621.95	47463.72
622.10	47367.76
622.25	47119.66
622.41	47161.79
622.56	47131.37
622.71	47388.83
622.86	47208.61
623.01	47243.71
623.16	47100.94
623.32	47152.43
623.47	47234.35
623.62	46941.78
623.77	47035.41
623.92	47122.01
624.07	46859.87
624.23	47260.10
624.38	47449.68
624.53	47016.68
624.68	46766.24
624.83	46763.90
624.98	46820.08
625.13	46471.34
625.29	46684.33
625.44	46515.81
625.59	46873.91
625.74	47016.68
625.89	46543.89
626.04	46490.06
626.19	46705.39
626.34	46876.25
626.49	45888.54
626.65	46279.41
626.80	46855.18
626.95	46155.36
627.10	45881.52
627.25	46726.46
627.40	46270.05
627.55	46550.91
627.70	46234.94
627.85	46384.74
628.00	46607.09
628.15	46309.84
628.30	45928.33
628.45	45771.52
628.60	45778.54
628.76	45787.90
628.91	46230.26
629.06	45680.24
629.21	45832.37
629.36	46085.15
629.51	46307.50
629.66	46361.33
629.81	46330.90
629.96	45947.06
630.11	45785.56
630.26	46010.25
630.41	45696.62
630.56	45736.41
630.71	45500.01
630.86	45659.17
631.01	45633.42
631.16	45492.99
631.31	45876.84
631.46	45801.94
631.61	46071.10
631.76	45748.11
631.91	45769.18
632.06	46052.38
632.21	45930.67
632.36	45663.85
632.51	45741.09
632.66	45727.05
632.81	45989.19
632.96	45649.81
633.10	45375.97
633.25	45233.19
633.40	45586.61
633.55	45741.09
633.70	45322.13
633.85	45083.40
634.00	45069.36
634.15	45333.84
634.30	44968.71
634.45	44889.13
634.60	45181.70
634.75	45394.69
634.90	45368.94
635.05	45642.79
635.19	44886.79
635.34	45464.91
635.49	44856.37
635.64	44744.02
635.79	45394.69
635.94	45305.75
636.09	45111.49
636.24	45132.55
636.39	45174.68
636.53	45361.92
636.68	44896.16
636.83	44505.29
636.98	44786.15
637.13	44582.52
637.28	44671.46
637.43	44306.34
637.57	44818.92
637.72	44711.25
637.87	44259.53
638.02	44549.76
638.17	44182.29
638.32	44528.69
638.46	44350.81
638.61	44062.93
638.76	44334.43
638.91	44542.74
639.06	44680.83
639.20	44219.74
639.35	44334.43
639.50	44135.48
639.65	44313.36
639.80	44641.04
639.94	44446.77
640.09	44528.69
640.24	44622.31
640.39	44076.97
640.54	43931.86
640.68	44287.62
640.83	44769.77
640.98	44037.18
641.13	43859.30
641.27	44371.88
641.42	44196.34
641.57	43716.53
641.72	44217.40
641.86	43416.94
642.01	43934.20
642.16	43803.13
642.31	43508.22
642.45	44076.97
642.60	43288.21
642.75	43634.61
642.90	44161.23
643.04	43386.51
643.19	43449.70
643.34	43784.40
643.48	43515.24
643.63	43969.30
643.78	43470.77
643.93	44381.24
644.07	43817.17
644.22	43920.15
644.37	43681.42
644.51	43718.87
644.66	43386.51
644.81	43496.52
644.95	43208.63
645.10	43370.13
645.25	43669.72
645.39	43192.25
645.54	43264.80
645.69	42700.73
645.83	43065.86
645.98	42801.38
646.13	43103.31
646.27	43557.37
646.42	43075.22
646.57	43105.65
646.71	43419.28
646.86	43814.83
647.00	43367.79
647.15	43470.77
647.30	43122.03
647.44	43419.28
647.59	42972.24
647.74	43194.59
647.88	43606.52
648.03	43505.88
648.17	43463.75
648.32	43470.77
648.47	43742.27
648.61	42960.53
648.76	42768.61
648.90	42813.08
649.05	42686.69
649.20	43072.88
649.34	43077.56
649.49	42887.98
649.63	43150.12
649.78	43091.60
649.92	42609.45
650.07	43480.13
650.21	43105.65
650.36	42815.42
650.51	42323.91
650.65	42726.48
650.80	42651.58
650.94	42543.92
651.09	43049.47
651.23	42251.35
651.38	42546.26
651.52	41832.39
651.67	42305.18
651.81	42309.86
651.96	42532.22
652.10	41991.55
652.25	41991.55
652.39	42202.20
652.54	42628.18
652.68	42211.56
652.83	42251.35
652.97	42817.76
653.12	42546.26
653.26	42106.24
653.41	42068.79
653.55	42291.14
653.70	42202.20
653.84	42113.26
653.99	42234.97
654.13	41989.21
654.27	42080.49
654.42	42581.37
654.56	41773.88
654.71	41888.57
654.85	42263.05
655.00	42153.05
655.14	41823.03
655.29	42043.04
655.43	42209.22
655.57	41773.88
655.72	41640.47
655.86	41944.74
656.01	41284.71
656.15	41965.81
656.30	41581.96
656.44	41544.51
656.58	41724.73
656.73	41612.38
656.87	41123.21
657.01	41305.77
657.16	41469.61
657.30	41565.57
657.45	41734.09
657.59	41326.84
657.73	41212.15
657.88	41326.84
658.02	41289.39
658.16	41518.76
658.31	41308.11
658.45	41446.21
658.60	41008.53
658.74	41240.24
658.88	41397.06
659.03	40957.03
659.17	40776.81
659.31	40509.99
659.46	40685.53
659.60	41167.68
659.74	40617.66
659.89	40566.16
660.03	40327.43
660.17	41055.34
660.32	40751.07
660.46	40809.58
660.60	39826.56
660.74	40411.69
660.89	40318.07
661.03	40229.13
661.17	40179.98
661.32	40140.19
661.46	40147.21
661.60	40048.91
661.74	40184.66
661.89	40013.80
662.03	39966.99
662.17	40055.93
662.31	39871.03
662.46	40399.99
662.60	39688.46
662.74	39704.85
662.88	39693.15
663.03	39269.51
663.17	39353.77
663.31	39629.95
663.45	39826.56
663.60	39409.94
663.74	39208.65
663.88	39452.07
664.02	39625.27
664.17	39377.17
664.31	38925.45
664.45	39072.90
664.59	38768.63
664.73	38983.96
664.88	39105.67
665.02	38747.57
665.16	38670.33
665.30	38422.23
665.44	38773.31
665.59	38773.31
665.73	38499.47
665.87	38312.23
666.01	38401.17
666.15	38267.76
666.29	38803.74
666.44	38314.57
666.58	38565.01
666.72	37954.13
666.86	37883.91
667.00	37951.79
667.14	38087.54
667.28	37993.92
667.43	37944.76
667.57	37736.46
667.71	38052.43
667.85	37701.35
667.99	37408.78
668.13	37460.27
668.27	37699.01
668.41	37312.82
668.56	37041.32
668.70	36814.29
668.84	36816.63
668.98	37074.09
669.12	37581.98
669.26	37350.27
669.40	37457.93
669.54	36868.12
669.68	36992.17
669.82	36959.40
669.96	36133.19
670.10	36886.84
670.25	36748.75
670.39	36786.20
670.53	36664.49
670.67	36187.02
670.81	36830.67
670.95	36566.19
671.09	36570.87
671.23	36067.66
671.37	36385.97
671.51	36030.21
671.65	35817.22
671.79	35967.01
671.93	36397.67
672.07	36355.54
672.21	35962.33
672.35	35531.67
672.49	36091.06
672.63	35515.29
672.77	35606.57
672.91	35365.49
673.05	35262.51
673.19	35594.87
673.33	35147.82
673.47	35353.79
673.61	34747.59
673.75	34848.24
673.89	34724.19
674.03	34471.41
674.17	34588.44
674.31	34490.13
674.45	34492.47
674.59	34483.11
674.73	34602.48
674.87	34026.71
675.01	34155.44
675.15	33663.93
675.29	33937.77
675.43	33806.70
675.56	34361.40
675.70	34066.50
675.84	33724.78
675.98	32800.27
676.12	33752.87
676.26	33893.30
676.40	33280.08
676.54	32584.94
676.68	33144.33
676.82	32767.50
676.96	32603.66
677.10	32931.34
677.23	33024.96
677.37	32872.82
677.51	33156.03
677.65	33118.58
677.79	32559.19
677.93	32428.12
678.07	32414.08
678.21	31983.42
678.34	32236.20
678.48	31789.16
678.62	31971.72
678.76	31854.69
678.90	31587.87
679.04	31426.37
679.18	32098.11
679.31	31552.76
679.45	31122.10
679.59	31278.92
679.73	31456.80
679.87	30738.26
680.00	30848.26
680.14	30850.60
680.28	30745.28
680.42	30789.75
680.56	30614.21
680.70	30345.05
680.83	30398.88
680.97	30267.81
681.11	30150.78
681.25	29769.27
681.39	30099.29
681.52	29832.47
681.66	29142.01
681.80	29263.72
681.94	28903.28
682.07	29092.86
682.21	28973.49
682.35	29284.78
682.49	29015.62
682.62	28985.19
682.76	28814.34
682.90	29050.73
683.04	28811.99
683.17	28587.30
683.31	28596.67
683.45	28479.64
683.59	28231.54
683.72	28006.85
683.86	28039.62
684.00	27920.25
684.13	28065.36
684.27	27835.99
684.41	27936.63
684.55	27594.92
684.68	27442.78
684.82	27407.67
684.96	27328.10
685.09	27328.10
685.23	27587.89
685.37	27641.73
685.50	27587.89
685.64	27318.73
685.78	26890.41
685.91	26742.96
686.05	26216.34
686.19	25982.29
686.32	26150.81
686.46	26211.66
686.60	25907.39
686.73	26171.87
686.87	25591.42
687.01	26031.44
687.14	25813.77
687.28	25930.80
687.42	25579.71
687.55	25518.86
687.69	25736.53
687.82	25305.87
687.96	25233.32
688.10	25174.80
688.23	25731.85
688.37	25434.60
688.50	25401.83
688.64	24961.81
688.78	24652.86
688.91	24643.50
689.05	24741.80
689.18	24290.08
689.32	24044.32
689.46	24308.80
689.59	23967.09
689.73	24203.48
689.86	24545.20
690.00	24065.39
690.13	24112.20
690.27	23660.48
690.41	23786.86
690.54	23168.96
690.68	23428.76
690.81	23119.81
690.95	23199.39
691.08	22801.50
691.22	22820.22
691.35	23033.21
691.49	23190.03
691.62	22916.19
691.76	22595.53
691.89	22419.99
692.03	22230.41
692.16	22038.48
692.30	22167.21
692.43	22132.11
692.57	21832.52
692.70	21876.99
692.84	21724.85
692.97	21483.78
693.11	21518.89
693.24	21341.00
693.38	21411.22
693.51	21120.99
693.65	21078.86
693.78	21130.36
693.92	20891.62
694.05	20945.45
694.19	20938.43
694.32	20615.44
694.45	21329.30
694.59	20755.87
694.72	20744.17
694.86	20568.63
694.99	20229.25
695.13	20042.01
695.26	20053.71
695.39	20081.80
695.53	19939.02
695.66	20123.93
695.80	19960.09
695.93	19735.40
696.07	19836.04
696.20	19250.91
696.33	19295.38
696.47	19222.82
696.60	19435.81
696.73	19421.77
696.87	19108.13
697.00	19112.81
697.14	18831.95
697.27	18593.22
697.40	18904.51
697.54	18670.45
697.67	18855.36
697.80	18780.46
697.94	18525.34
698.07	18497.25
698.21	18429.38
698.34	18352.14
698.47	18120.43
698.61	17525.93
698.74	17575.08
698.87	17891.06
699.01	17600.83
699.14	17633.60
699.27	17839.56
699.40	17476.78
699.54	17408.90
699.67	17708.49
699.80	17535.29
699.94	17392.52
700.07	17352.73
700.20	16964.20
700.34	16837.81
700.47	17039.10
700.60	17067.19
700.73	16989.95
700.87	16547.59
701.00	16510.14
701.13	16493.76
701.26	16346.30
701.40	16339.28
701.53	16046.71
701.66	16219.91
701.79	15964.79
701.93	16060.76
702.06	15389.02
702.19	15908.62
702.32	15917.98
702.46	15985.86
702.59	15829.04
702.72	15981.18
702.85	15569.24
702.99	15630.10
703.12	15477.96
703.25	15403.07
703.38	15131.56
703.51	15140.93
703.65	15098.80
703.78	14693.88
703.91	14801.55
704.04	14857.72
704.17	14377.91
704.31	14366.21
704.44	14693.88
704.57	14689.20
704.70	14590.90
704.83	14221.10
704.96	14317.06
705.10	14094.71
705.23	14115.77
>>>>>End Processed Spectral Data<<<<<
