SpectraSuite Data File
++++++++++++++++++++++++++++++++++++
Date: Fri Oct 25 10:47:38 EDT 2013
User: price-jones
Dark Spectrum Present: No
Reference Spectrum Present: No
Number of Sampled Component Spectra: 1
Spectrometers: USB2+H05261
Integration Time (usec): 100000 (USB2+H05261)
Spectra Averaged: 1 (USB2+H05261)
Boxcar Smoothing: 0 (USB2+H05261)
Correct for Electrical Dark: No (USB2+H05261)
Strobe/Lamp Enabled: No (USB2+H05261)
Correct for Detector Non-linearity: No (USB2+H05261)
Correct for Stray Light: No (USB2+H05261)
Number of Pixels in Processed Spectrum: 2048
>>>>>Begin Processed Spectral Data<<<<<
365.73	145.11
365.92	145.11
366.12	145.11
366.32	117.03
366.52	37.45
366.72	39.79
366.91	58.51
367.11	65.54
367.31	74.90
367.51	9.36
367.70	91.28
367.90	79.58
368.10	23.41
368.30	35.11
368.49	14.04
368.69	124.05
368.89	53.83
369.09	51.49
369.28	56.17
369.48	105.32
369.68	86.60
369.87	117.03
370.07	142.77
370.27	145.11
370.47	168.52
370.66	362.78
370.86	376.83
371.06	381.51
371.25	491.51
371.45	369.80
371.65	416.62
371.84	454.06
372.04	489.17
372.24	468.11
372.44	479.81
372.63	545.34
372.83	500.87
373.03	498.53
373.22	479.81
373.42	533.64
373.62	526.62
373.81	454.06
374.01	589.82
374.21	603.86
374.40	543.00
374.60	580.45
374.79	585.13
374.99	592.16
375.19	589.82
375.38	519.60
375.58	634.29
375.78	554.71
375.97	561.73
376.17	603.86
376.37	622.58
376.56	685.78
376.76	531.30
376.95	613.22
377.15	578.11
377.35	622.58
377.54	690.46
377.74	613.22
377.93	638.97
378.13	688.12
378.33	655.35
378.52	697.48
378.72	699.82
378.91	606.20
379.11	667.05
379.31	671.73
379.50	592.16
379.70	624.92
379.89	662.37
380.09	592.16
380.28	636.63
380.48	681.10
380.68	631.94
380.87	674.07
381.07	674.07
381.26	697.48
381.46	720.88
381.65	692.80
381.85	676.41
382.04	704.50
382.24	713.86
382.43	699.82
382.63	678.76
382.83	767.70
383.02	741.95
383.22	732.59
383.41	718.54
383.61	748.97
383.80	748.97
384.00	716.20
384.19	681.10
384.39	777.06
384.58	798.12
384.78	779.40
384.97	807.48
385.17	788.76
385.36	763.01
385.56	741.95
385.75	844.93
385.95	744.29
386.14	798.12
386.34	767.70
386.53	816.85
386.72	786.42
386.92	861.32
387.11	833.23
387.31	851.96
387.50	791.10
387.70	720.88
387.89	802.80
388.09	905.79
388.28	821.53
388.48	901.11
388.67	903.45
388.86	908.13
389.06	992.39
389.25	917.49
389.45	922.17
389.64	884.72
389.84	924.51
390.03	889.40
390.22	997.07
390.42	877.70
390.61	849.61
390.81	952.60
391.00	938.55
391.19	1083.67
391.39	985.37
391.58	1076.65
391.78	1041.54
391.97	1015.79
392.16	1018.13
392.36	987.71
392.55	954.94
392.75	1008.77
392.94	929.19
393.13	992.39
393.33	945.58
393.52	908.13
393.71	1076.65
393.91	1013.45
394.10	1022.81
394.29	1008.77
394.49	1139.84
394.68	1078.99
394.88	1050.90
395.07	1163.25
395.26	1090.69
395.46	1128.14
395.65	1177.29
395.84	1135.16
396.04	1123.46
396.23	1114.10
396.42	1088.35
396.62	1083.67
396.81	1097.71
397.00	1233.46
397.19	1181.97
397.39	1210.06
397.58	1343.47
397.77	1198.35
397.97	1254.53
398.16	1221.76
398.35	1373.89
398.55	1231.12
398.74	1284.95
398.93	1338.79
399.12	1383.26
399.32	1303.68
399.51	1371.55
399.70	1387.94
399.90	1411.34
400.09	1465.18
400.28	1460.49
400.47	1451.13
400.67	1523.69
400.86	1432.41
401.05	1404.32
401.24	1437.09
401.44	1519.01
401.63	1526.03
401.82	1516.67
402.01	1526.03
402.21	1540.07
402.40	1509.65
402.59	1533.05
402.78	1561.14
402.97	1682.85
403.17	1591.56
403.36	1586.88
403.55	1568.16
403.74	1720.29
403.93	1633.69
404.13	1626.67
404.32	1624.33
404.51	1586.88
404.70	1764.76
404.89	1722.63
405.09	1797.53
405.28	1834.98
405.47	1764.76
405.66	1816.26
405.85	1692.21
406.05	1877.11
406.24	1769.44
406.43	1760.08
406.62	1846.68
406.81	1853.70
407.00	1811.57
407.20	1832.64
407.39	1902.86
407.58	1959.03
407.77	1994.14
407.96	1998.82
408.15	1961.37
408.34	2057.33
408.54	2003.50
408.73	2073.71
408.92	2029.24
409.11	2139.25
409.30	2047.97
409.49	1961.37
409.68	2120.53
409.87	2045.63
410.07	2155.63
410.26	2162.66
410.45	2094.78
410.64	2099.46
410.83	2202.44
411.02	2239.89
411.21	2228.19
411.40	2319.47
411.59	2342.88
411.78	2382.67
411.98	2258.62
412.17	2375.64
412.36	2427.14
412.55	2431.82
412.74	2616.72
412.93	2464.58
413.12	2399.05
413.31	2665.87
413.50	2537.14
413.69	2630.76
413.88	2600.34
414.07	2579.27
414.26	2677.57
414.45	2614.38
414.64	2682.25
414.83	2703.32
415.02	2651.83
415.22	2766.51
415.41	2820.35
415.60	2949.08
415.79	2843.75
415.98	2972.48
416.17	2995.89
416.36	2949.08
416.55	2958.44
416.74	2895.24
416.93	2925.67
417.12	3023.97
417.31	3035.67
417.50	3023.97
417.69	3126.96
417.88	3115.25
418.07	3225.26
418.26	3145.68
418.45	3164.40
418.64	3169.09
418.83	3187.81
419.02	3199.51
419.21	3243.98
419.39	3211.22
419.58	3272.07
419.77	3185.47
419.96	3314.20
420.15	3307.18
420.34	3414.84
420.53	3344.63
420.72	3339.94
420.91	3534.21
421.10	3426.54
421.29	3651.24
421.48	3442.93
421.67	3531.87
421.86	3440.59
422.05	3564.64
422.24	3520.17
422.43	3651.24
422.61	3574.00
422.80	3630.17
422.99	3562.30
423.18	3508.46
423.37	3583.36
423.56	3522.51
423.75	3545.91
423.94	3389.10
424.13	3501.44
424.32	3407.82
424.50	3698.05
424.69	3662.94
424.88	3721.45
425.07	3501.44
425.26	3536.55
425.45	3508.46
425.64	3588.04
425.83	3524.85
426.01	3681.66
426.20	3599.74
426.39	3571.66
426.58	3566.98
426.77	3658.26
426.96	3585.70
427.15	3456.97
427.33	3559.95
427.52	3686.34
427.71	3747.20
427.90	3765.92
428.09	3789.33
428.28	3801.03
428.46	3843.16
428.65	3737.84
428.84	3920.40
429.03	3962.53
429.22	3719.11
429.40	3854.86
429.59	3819.75
429.78	3709.75
429.97	3691.02
430.16	3754.22
430.34	3824.44
430.53	3859.54
430.72	3819.75
430.91	4018.70
431.10	4119.34
431.28	4032.74
431.47	4142.75
431.66	4208.28
431.85	4098.28
432.03	4257.43
432.22	4234.03
432.41	4205.94
432.60	4362.76
432.79	4224.67
432.97	4297.22
433.16	4278.50
433.35	4297.22
433.54	4236.37
433.72	4442.34
433.91	4379.14
434.10	4313.61
434.28	4510.21
434.47	4362.76
434.66	4498.51
434.85	4463.40
435.03	4575.75
435.22	4528.94
435.41	4819.16
435.59	4667.03
435.78	4578.09
435.97	4620.22
436.16	4676.39
436.34	4615.54
436.53	4826.18
436.72	4678.73
436.90	4620.22
437.09	4772.35
437.28	4608.51
437.46	4737.24
437.65	4781.71
437.84	4669.37
438.02	4805.12
438.21	4919.81
438.40	4678.73
438.58	4980.66
438.77	4933.85
438.96	5090.67
439.14	5245.14
439.33	5137.48
439.52	5095.35
439.70	5090.67
439.89	5135.14
440.08	5329.40
440.26	5313.02
440.45	5245.14
440.63	5305.99
440.82	5516.64
441.01	5404.30
441.19	5551.75
441.38	5518.98
441.57	5530.69
441.75	5671.12
441.94	5675.80
442.12	5708.57
442.31	5844.32
442.50	5713.25
442.68	5671.12
442.87	5748.36
443.05	5633.67
443.24	5954.32
443.43	5755.38
443.61	5799.85
443.80	6059.65
443.98	5870.06
444.17	5638.35
444.35	5879.43
444.54	5977.73
444.73	5802.19
444.91	5902.83
445.10	5802.19
445.28	5907.51
445.47	5738.99
445.65	5827.93
445.84	5973.05
446.02	5996.45
446.21	5837.30
446.39	6061.99
446.58	5970.71
446.77	5989.43
446.95	6221.14
447.14	6057.31
447.32	6092.41
447.51	6141.57
447.69	6150.93
447.88	6186.04
448.06	6197.74
448.25	6155.61
448.43	6052.63
448.62	6171.99
448.80	6169.65
448.99	6193.06
449.17	6286.68
449.36	6305.40
449.54	6113.48
449.73	6492.65
449.91	6459.88
450.10	6427.11
450.28	6595.63
450.46	6417.75
450.65	6595.63
450.83	6567.54
451.02	6431.79
451.20	6473.92
451.39	6534.78
451.57	6424.77
451.76	6438.81
451.94	6558.18
452.13	6590.95
452.31	6530.09
452.49	6548.82
452.68	6766.49
452.86	6686.91
453.05	6670.53
453.23	6677.55
453.42	6630.74
453.60	6743.08
453.78	6757.13
453.97	6614.35
454.15	6843.73
454.34	6679.89
454.52	6733.72
454.70	6691.59
454.89	6988.84
455.07	7070.76
455.26	7066.08
455.44	6988.84
455.62	7089.48
455.81	7005.22
455.99	6965.43
456.17	7250.98
456.36	6960.75
456.54	7232.26
456.73	7049.69
456.91	7265.02
457.09	7403.11
457.28	7515.46
457.46	7143.32
457.64	7410.14
457.83	7492.05
458.01	7246.30
458.19	7714.41
458.38	7543.55
458.56	7639.51
458.74	7641.85
458.93	7529.50
459.11	7569.29
459.29	7499.08
459.48	7669.94
459.66	7648.87
459.84	7599.72
460.03	7679.30
460.21	7595.04
460.39	7822.07
460.57	7709.72
460.76	7679.30
460.94	7995.27
461.12	7714.41
461.31	7880.58
461.49	7857.18
461.67	7880.58
461.85	7911.01
462.04	7941.44
462.22	8407.20
462.40	8217.62
462.59	7922.71
462.77	7887.61
462.95	8390.82
463.13	8168.47
463.32	8131.02
463.50	8226.98
463.68	8231.66
463.86	8372.10
464.05	8018.68
464.23	8032.72
464.41	8290.18
464.59	8360.39
464.78	8400.18
464.96	8360.39
465.14	8484.44
465.32	8386.14
465.50	8463.38
465.69	8514.87
465.87	8475.08
466.05	8613.17
466.23	8360.39
466.41	8585.08
466.60	8849.57
466.78	8292.52
466.96	8479.76
467.14	8390.82
467.32	8695.09
467.51	8755.94
467.69	8339.33
467.87	8437.63
468.05	8758.28
468.23	8580.40
468.41	8542.96
468.60	8833.18
468.78	8840.20
468.96	8847.22
469.14	8847.22
469.32	8931.48
469.50	8730.20
469.69	9114.05
469.87	8968.93
470.05	8858.93
470.23	9146.81
470.41	9130.43
470.59	8959.57
470.77	9078.94
470.95	9046.17
471.14	9252.14
471.32	9076.60
471.50	9535.34
471.68	9289.59
471.86	9586.83
472.04	9467.47
472.22	9790.46
472.40	9408.95
472.58	9418.32
472.77	9432.36
472.95	9710.88
473.13	10125.16
473.31	9659.39
473.49	9572.79
473.67	9748.33
473.85	9731.95
474.03	9966.00
474.21	10193.03
474.39	10499.64
474.57	10246.87
474.75	10394.32
474.93	10260.91
475.12	10122.82
475.30	10366.23
475.48	10401.34
475.66	10415.38
475.84	10284.31
476.02	10682.20
476.20	10480.92
476.38	10672.84
476.56	10841.36
476.74	10752.42
476.92	11012.22
477.10	11044.99
477.28	11052.01
477.46	11122.23
477.64	11297.77
477.82	11438.20
478.00	11686.29
478.18	11566.93
478.36	11461.60
478.54	11510.75
478.72	11674.59
478.90	11789.28
479.08	11850.13
479.26	12072.48
479.44	12198.87
479.62	12219.94
479.80	12411.86
479.98	12517.18
480.16	12477.40
480.34	12468.03
480.52	12512.50
480.70	12610.81
480.88	12507.82
481.06	12751.24
481.24	12688.04
481.41	12954.87
481.59	13146.79
481.77	13303.60
481.95	13444.04
482.13	13579.79
482.31	13493.19
482.49	13729.58
482.67	13579.79
482.85	13654.69
483.03	14017.47
483.21	14008.11
483.39	14190.67
483.57	14300.67
483.74	14417.70
483.92	14527.71
484.10	14551.11
484.28	14548.77
484.46	14853.04
484.64	15173.69
484.82	14810.91
485.00	14998.15
485.18	15309.44
485.35	15417.11
485.53	15098.80
485.71	15255.61
485.89	15831.38
486.07	15587.97
486.25	15583.29
486.43	15658.18
486.61	15695.63
486.78	16248.00
486.96	16074.80
487.14	16269.06
487.32	16243.32
487.50	16559.29
487.68	16561.63
487.85	16856.54
488.03	17263.79
488.21	17418.27
488.39	17319.96
488.57	17319.96
488.75	17547.00
488.92	17830.20
489.10	17886.37
489.28	17860.63
489.46	18082.98
489.64	18078.30
489.81	18417.68
489.99	18508.96
490.17	18853.02
490.35	18874.08
490.53	18963.02
490.70	18883.44
490.88	18993.45
491.06	19358.57
491.24	19576.24
491.41	19400.70
491.59	19515.39
491.77	19346.87
491.95	19697.95
492.13	19913.28
492.30	20025.62
492.48	20252.66
492.66	20573.31
492.84	20210.53
493.01	20315.85
493.19	20393.09
493.37	20379.04
493.54	20716.08
493.72	20819.07
493.90	21509.52
494.08	21291.85
494.25	21869.97
494.43	21453.35
494.61	21493.14
494.79	21364.41
494.96	21902.73
495.14	21792.73
495.32	22061.89
495.49	22223.39
495.67	22181.26
495.85	22537.02
496.02	22520.63
496.20	22574.47
496.38	22497.23
496.55	22892.78
496.73	23274.29
496.91	23260.24
497.09	22913.84
497.26	23290.67
497.44	23171.30
497.62	23559.83
497.79	23597.28
497.97	23756.44
498.14	23821.97
498.32	24018.58
498.50	24130.92
498.67	24119.22
498.85	23983.47
499.03	24624.78
499.20	24346.25
499.38	24297.10
499.56	24554.56
499.73	24627.12
499.91	24907.98
500.08	24884.58
500.26	24814.36
500.44	24954.79
500.61	24779.25
500.79	25120.97
500.97	25142.03
501.14	25247.36
501.32	25659.29
501.49	25312.89
501.67	25348.00
501.84	26017.40
502.02	25991.65
502.20	26111.02
502.37	26211.66
502.55	26139.10
502.72	26242.09
502.90	26045.48
503.07	26143.78
503.25	26338.05
503.43	26127.40
503.60	26677.43
503.78	26544.02
503.95	26129.74
504.13	26867.01
504.30	26904.46
504.48	26855.31
504.65	26895.10
504.83	27323.41
505.01	27538.74
505.18	27061.27
505.36	27098.72
505.53	27587.89
505.71	27924.93
505.88	27978.76
506.06	27442.78
506.23	27866.42
506.41	27936.63
506.58	27908.55
506.76	27718.96
506.93	28306.44
507.11	28116.86
507.28	28432.83
507.46	28367.29
507.63	28294.74
507.81	27974.08
507.98	28325.16
508.16	28662.20
508.33	28624.75
508.50	28968.81
508.68	28919.66
508.85	29134.99
509.03	29165.42
509.20	29287.12
509.38	29399.47
509.55	29362.02
509.73	29645.23
509.90	29729.48
510.08	29479.05
510.25	29600.76
510.42	29692.04
510.60	29846.51
510.77	29776.30
510.95	30223.34
511.12	30071.20
511.30	30136.74
511.47	30639.95
511.64	30433.99
511.82	30572.08
511.99	29956.52
512.17	30478.46
512.34	30572.08
512.51	30555.69
512.69	30560.37
512.86	30602.50
513.04	31091.68
513.21	30815.49
513.38	31044.87
513.56	31201.68
513.73	31185.30
513.90	31484.89
514.08	30993.37
514.25	31269.56
514.43	31278.92
514.60	30684.42
514.77	31569.15
514.95	31791.50
515.12	31337.43
515.29	31407.65
515.47	31793.84
515.64	31934.27
515.81	32004.49
515.99	31850.01
516.16	32385.99
516.33	31615.96
516.51	32135.56
516.68	31770.43
516.85	31672.13
517.03	31997.46
517.20	32245.56
517.37	32385.99
517.54	32470.25
517.72	32758.14
517.89	32320.46
518.06	32299.39
518.24	32638.77
518.41	32608.34
518.58	32926.66
518.75	32524.08
518.93	32842.40
519.10	33111.56
519.27	33078.79
519.45	33244.97
519.62	33572.64
519.79	33074.11
519.96	33696.69
520.14	33708.40
520.31	33406.47
520.48	33425.19
520.65	33577.33
520.83	33846.49
521.00	33944.79
521.17	33851.17
521.34	34047.77
521.52	34396.51
521.69	34391.83
521.86	34478.43
522.03	34288.85
522.20	34408.22
522.38	34478.43
522.55	34576.73
522.72	34326.30
522.89	34380.13
523.07	34721.85
523.24	34387.15
523.41	34916.11
523.58	34717.17
523.75	34923.13
523.92	35440.39
524.10	35306.98
524.27	35531.67
524.44	35269.53
524.61	35573.80
524.78	35847.64
524.96	35679.13
525.13	35707.21
525.30	35917.86
525.47	35838.28
525.64	35828.92
525.81	35435.71
525.98	35585.50
526.16	35732.96
526.33	35431.03
526.50	36032.55
526.67	35611.25
526.84	35880.41
527.01	35728.28
527.18	35873.39
527.36	36325.11
527.53	36397.67
527.70	36421.08
527.87	36734.71
528.04	36385.97
528.21	36369.58
528.38	36556.83
528.55	36748.75
528.72	37273.03
528.89	36865.78
529.07	36545.12
529.24	36545.12
529.41	36875.14
529.58	36973.44
529.75	37333.89
529.92	37376.01
530.09	36980.46
530.26	37090.47
530.43	37539.85
530.60	36973.44
530.77	37097.49
530.94	37165.37
531.11	37280.05
531.28	37806.67
531.46	37769.22
531.63	37926.04
531.80	37258.99
531.97	37317.50
532.14	37230.90
532.31	37296.44
532.48	37757.52
532.65	37783.27
532.82	37940.08
532.99	38139.03
533.16	37565.60
533.33	38246.69
533.50	38082.86
533.67	38169.46
533.84	38075.84
534.01	38368.40
534.18	38012.64
534.35	38396.49
534.52	38134.35
534.69	38188.18
534.86	38541.60
535.03	38675.01
535.20	38574.37
535.37	38941.83
535.54	38689.06
535.71	38735.87
535.88	39056.52
536.05	38490.11
536.22	38808.42
536.38	38700.76
536.55	38476.07
536.72	38672.67
536.89	38822.47
537.06	39012.05
537.23	39054.18
537.40	38738.21
537.57	39215.68
537.74	39077.58
537.91	39545.69
538.08	39541.01
538.25	39283.55
538.42	39360.79
538.59	39819.53
538.75	39365.47
538.92	39019.07
539.09	39629.95
539.26	39466.11
539.43	39615.91
539.60	39847.62
539.77	39122.05
539.94	39999.76
540.11	40074.65
540.28	39578.46
540.44	39459.09
540.61	39934.22
540.78	39924.86
540.95	39849.96
541.12	39625.27
541.29	39847.62
541.46	39840.60
541.62	39915.50
541.79	40423.39
541.96	39952.94
542.13	40158.91
542.30	40524.04
542.47	39859.32
542.63	40299.34
542.80	40470.20
542.97	40854.05
543.14	40715.96
543.31	40978.10
543.48	40898.52
543.64	41006.19
543.81	41268.33
543.98	40992.14
544.15	40884.48
544.32	40856.39
544.48	41338.54
544.65	41165.34
544.82	41228.54
544.99	40746.39
545.16	41312.80
545.32	40765.11
545.49	41099.81
545.66	41310.46
545.83	41500.04
546.00	41155.98
546.16	41139.60
546.33	41588.98
546.50	40737.02
546.67	41537.49
546.83	40971.08
547.00	41666.22
547.17	41420.46
547.34	41127.89
547.50	41418.12
547.67	41897.93
547.84	41904.95
548.00	42099.22
548.17	42045.38
548.34	41663.88
548.51	42249.01
548.67	41963.46
548.84	41722.39
549.01	41816.01
549.18	41844.10
549.34	41923.68
549.51	42555.62
549.68	42366.04
549.84	42356.67
550.01	42043.04
550.18	41687.28
550.34	42075.81
550.51	42192.84
550.68	41890.91
550.84	42014.96
551.01	42579.03
551.18	42394.12
551.34	42305.18
551.51	42485.40
551.68	42635.20
551.84	42270.08
552.01	42525.19
552.18	42801.38
552.34	42469.02
552.51	42621.16
552.68	42946.49
552.84	42845.85
553.01	42810.74
553.18	42845.85
553.34	42696.05
553.51	42499.45
553.67	42377.74
553.84	42916.06
554.01	42806.06
554.17	43203.95
554.34	42878.61
554.51	43098.62
554.67	43248.42
554.84	43306.93
555.00	42911.38
555.17	43063.52
555.33	43201.61
555.50	43131.39
555.67	42761.59
555.83	43267.14
556.00	43447.36
556.16	43662.69
556.33	43470.77
556.50	42869.25
556.66	43519.92
556.83	43285.87
556.99	43477.79
557.16	43271.82
557.32	43526.94
557.49	43545.67
557.65	43552.69
557.82	43098.62
557.98	43208.63
558.15	43421.62
558.32	43391.19
558.48	43517.58
558.65	43658.01
558.81	43344.38
558.98	43468.43
559.14	43772.70
559.31	43793.76
559.47	43964.62
559.64	43896.75
559.80	43690.78
559.97	44116.76
560.13	43634.61
560.30	43934.20
560.46	43814.83
560.63	43922.49
560.79	43983.35
560.96	44430.39
561.12	43737.59
561.29	43423.96
561.45	43704.82
561.61	43789.08
561.78	44037.18
561.94	43325.66
562.11	43681.42
562.27	43866.32
562.44	43927.17
562.60	44388.26
562.77	44252.51
562.93	43901.43
563.10	44112.08
563.26	43840.57
563.42	44186.97
563.59	43957.60
563.75	44072.29
563.92	44353.15
564.08	44198.68
564.24	44348.47
564.41	44371.88
564.57	44261.87
564.74	44343.79
564.90	44285.28
565.07	44013.77
565.23	44023.14
565.39	44016.11
565.56	44715.93
565.72	44222.08
565.88	44055.90
566.05	43845.26
566.21	44018.46
566.38	44168.25
566.54	44545.08
566.70	44847.00
566.87	44474.86
567.03	44533.37
567.19	44519.33
567.36	44942.97
567.52	44378.90
567.68	44685.51
567.85	44690.19
568.01	44460.82
568.17	44259.53
568.34	44746.36
568.50	44832.96
568.66	44554.44
568.83	44514.65
568.99	44430.39
569.15	44533.37
569.32	43971.64
569.48	44399.96
569.64	44596.57
569.81	44643.38
569.97	44591.89
570.13	44198.68
570.30	44589.55
570.46	44435.07
570.62	44004.41
570.78	43835.89
570.95	44720.62
571.11	44678.49
571.27	44212.72
571.43	44442.09
571.60	44751.04
571.76	44664.44
571.92	44573.16
572.09	44231.44
572.25	44580.18
572.41	44577.84
572.57	44900.84
572.74	45359.58
572.90	44886.79
573.06	44837.64
573.22	44865.73
573.38	44465.50
573.55	44378.90
573.71	44802.53
573.87	44533.37
574.03	44533.37
574.20	44720.62
574.36	44690.19
574.52	44814.24
574.68	45008.50
574.84	44971.05
575.01	44940.63
575.17	44786.15
575.33	44795.51
575.49	44168.25
575.65	44910.20
575.82	45141.91
575.98	44854.03
576.14	45017.86
576.30	44556.78
576.46	44748.70
576.62	44839.98
576.79	45062.33
576.95	44388.26
577.11	44762.75
577.27	44856.37
577.43	45174.68
577.59	44699.55
577.75	44556.78
577.92	44589.55
578.08	44046.54
578.24	44392.94
578.40	44715.93
578.56	44996.80
578.72	45146.59
578.88	45064.67
579.04	44828.28
579.21	44634.02
579.37	44748.70
579.53	44800.19
579.69	44617.63
579.85	44711.25
580.01	45059.99
580.17	44725.30
580.33	45045.95
580.49	45031.91
580.65	45184.04
580.82	44891.48
580.98	44626.99
581.14	44739.34
581.30	44844.66
581.46	45125.53
581.62	44655.08
581.78	44933.60
581.94	45303.41
582.10	44964.03
582.26	45083.40
582.42	44790.83
582.58	44917.22
582.74	44425.71
582.90	45010.84
583.06	44973.39
583.22	45340.86
583.38	45305.75
583.54	45092.76
583.70	45263.62
583.86	45298.73
584.02	44886.79
584.18	44830.62
584.34	44676.15
584.50	45130.21
584.66	44823.60
584.82	44875.09
584.98	45237.87
585.14	44690.19
585.30	45001.48
585.46	44844.66
585.62	44959.35
585.78	45242.56
585.94	44622.31
586.10	44947.65
586.26	44802.53
586.42	45052.97
586.58	45160.64
586.74	44818.92
586.90	44737.00
587.06	44776.79
587.22	44854.03
587.38	44914.88
587.54	45338.52
587.70	45663.85
587.86	45375.97
588.02	45301.07
588.18	45502.35
588.34	45275.32
588.49	44788.49
588.65	44559.12
588.81	44421.03
588.97	44718.28
589.13	44725.30
589.29	44945.31
589.45	45191.06
589.61	45083.40
589.77	45331.50
589.93	45287.03
590.08	45453.20
590.24	45048.29
590.40	45212.13
590.56	45336.18
590.72	45270.64
590.88	44987.44
591.04	45240.21
591.20	45413.41
591.35	45392.35
591.51	45525.76
591.67	45378.31
591.83	44851.69
591.99	45177.02
592.15	45233.19
592.31	45205.11
592.46	45322.13
592.62	45427.46
592.78	45415.76
592.94	45340.86
593.10	45088.08
593.26	45837.05
593.41	45312.77
593.57	45177.02
593.73	45184.04
593.89	45172.34
594.05	45282.34
594.20	45202.77
594.36	45495.33
594.52	45329.16
594.68	45455.54
594.84	45368.94
594.99	45626.40
595.15	45258.94
595.31	45565.55
595.47	45745.77
595.62	45294.05
595.78	45914.29
595.94	45280.00
596.10	45359.58
596.25	45420.44
596.41	45631.08
596.57	45193.40
596.73	45282.34
596.88	45399.37
597.04	45563.21
597.20	45450.86
597.36	45301.07
597.51	45811.31
597.67	45668.53
597.83	45502.35
597.99	46103.87
598.14	45308.09
598.30	45200.43
598.46	45450.86
598.61	45432.14
598.77	44989.78
598.93	45542.14
599.09	45455.54
599.24	45930.67
599.40	45497.67
599.56	45237.87
599.71	45457.88
599.87	45687.26
600.03	45593.64
600.18	45694.28
600.34	45315.11
600.50	45549.17
600.65	45294.05
600.81	45207.45
600.97	45876.84
601.12	46089.83
601.28	45815.99
601.44	45308.09
601.59	45436.82
601.75	45340.86
601.91	45436.82
602.06	45401.71
602.22	45474.27
602.37	45500.01
602.53	45146.59
602.69	45846.41
602.84	45675.55
603.00	45298.73
603.16	45125.53
603.31	45546.82
603.47	45134.89
603.62	45125.53
603.78	45352.56
603.94	46003.23
604.09	45979.82
604.25	45694.28
604.40	45146.59
604.56	45120.85
604.71	45427.46
604.87	45010.84
605.03	45815.99
605.18	45315.11
605.34	45474.27
605.49	45240.21
605.65	45270.64
605.80	45303.41
605.96	45315.11
606.12	45556.19
606.27	45677.90
606.43	45677.90
606.58	45549.17
606.74	45010.84
606.89	45507.04
607.05	45282.34
607.20	45287.03
607.36	45354.90
607.51	45495.33
607.67	45663.85
607.82	45542.14
607.98	44978.07
608.13	45031.91
608.29	45401.71
608.44	44729.98
608.60	44701.89
608.75	45031.91
608.91	45055.31
609.06	45165.32
609.22	44982.76
609.37	44687.85
609.53	44587.21
609.68	44891.48
609.84	45078.72
609.99	44832.96
610.15	44947.65
610.30	45158.30
610.46	44687.85
610.61	44769.77
610.76	44851.69
610.92	44664.44
611.07	44762.75
611.23	45148.93
611.38	44907.86
611.54	44582.52
611.69	44837.64
611.84	44172.93
612.00	44964.03
612.15	44725.30
612.31	44858.71
612.46	44594.23
612.62	45205.11
612.77	44748.70
612.92	44917.22
613.08	44573.16
613.23	44968.71
613.39	44542.74
613.54	44011.43
613.69	44172.93
613.85	44479.54
614.00	44765.09
614.15	44589.55
614.31	44767.43
614.46	44966.37
614.62	44540.39
614.77	44147.18
614.92	44280.60
615.08	44446.77
615.23	43882.70
615.38	44453.79
615.54	44208.04
615.69	44226.76
615.84	43871.00
616.00	44481.88
616.15	44247.83
616.30	44414.01
616.46	43739.93
616.61	44046.54
616.76	44098.03
616.92	43632.27
617.07	43988.03
617.22	43828.87
617.37	43578.43
617.53	43955.26
617.68	43840.57
617.83	44156.55
617.99	44116.76
618.14	44112.08
618.29	44119.10
618.45	43639.29
618.60	43688.44
618.75	44039.52
618.90	43871.00
619.06	43625.25
619.21	43814.83
619.36	44058.24
619.51	43386.51
619.67	43695.46
619.82	43447.36
619.97	43761.00
620.12	43653.33
620.28	43122.03
620.43	43433.32
620.58	43206.29
620.73	43454.39
620.89	43063.52
621.04	43398.21
621.19	43398.21
621.34	43316.29
621.49	43079.90
621.65	42967.55
621.80	43435.66
621.95	43704.82
622.10	43154.80
622.25	43082.24
622.41	43175.86
622.56	42684.35
622.71	43498.86
622.86	43150.12
623.01	43129.05
623.16	43295.23
623.32	43351.40
623.47	43239.06
623.62	43533.96
623.77	43119.69
623.92	43456.73
624.07	42836.48
624.23	42731.16
624.38	42752.23
624.53	42660.94
624.68	42871.59
624.83	42689.03
624.98	43047.13
625.13	42607.11
625.29	42749.88
625.44	42990.96
625.59	42658.60
625.74	42438.59
625.89	42131.98
626.04	42150.71
626.19	42724.14
626.34	42450.30
626.49	42288.80
626.65	42527.53
626.80	43012.02
626.95	42593.07
627.10	42239.65
627.25	42043.04
627.40	41708.35
627.55	42249.01
627.70	41827.71
627.85	41975.17
628.00	42579.03
628.15	42127.30
628.30	42164.75
628.45	42340.29
628.60	42380.08
628.76	42464.34
628.91	42192.84
629.06	42148.37
629.21	41986.87
629.36	42171.77
629.51	41757.50
629.66	41656.85
629.81	41867.50
629.96	41832.39
630.11	41872.18
630.26	41668.56
630.41	41918.99
630.56	41865.16
630.71	41972.83
630.86	41380.67
631.01	41277.69
631.16	41715.37
631.31	41392.37
631.46	41153.64
631.61	41759.84
631.76	41776.22
631.91	41745.80
632.06	41434.50
632.21	41186.41
632.36	41626.43
632.51	41020.23
632.66	41387.69
632.81	40634.04
632.96	41125.55
633.10	41038.95
633.25	40914.90
633.40	41450.89
633.55	41268.33
633.70	41186.41
633.85	40858.73
634.00	40964.06
634.15	41265.99
634.30	41125.55
634.45	41036.61
634.60	41071.72
634.75	41619.41
634.90	40577.87
635.05	41364.29
635.19	40804.90
635.34	41312.80
635.49	41010.87
635.64	40898.52
635.79	40893.84
635.94	41062.36
636.09	40781.49
636.24	40783.83
636.39	40294.66
636.53	40596.59
636.68	40620.00
636.83	40191.68
636.98	40680.85
637.13	40610.64
637.28	40734.68
637.43	40664.47
637.57	41029.59
637.72	40861.07
637.87	40872.78
638.02	40224.45
638.17	40662.13
638.32	40311.05
638.46	40348.50
638.61	40203.38
638.76	40486.59
638.91	40055.93
639.06	40308.71
639.20	40383.60
639.35	40601.27
639.50	40292.32
639.65	41041.29
639.80	40360.20
639.94	40453.82
640.09	39922.52
640.24	39697.83
640.39	40172.96
640.54	40322.75
640.68	40030.18
640.83	40023.16
640.98	39992.73
641.13	39969.33
641.27	40051.25
641.42	39667.40
641.57	39927.20
641.72	39849.96
641.86	39838.26
642.01	39435.69
642.16	39332.70
642.31	39351.43
642.45	39887.41
642.60	39461.43
642.75	39271.85
642.90	39480.16
643.04	39175.89
643.19	40004.44
643.34	39742.30
643.48	39672.08
643.63	39489.52
643.78	39161.84
643.93	39386.54
644.07	39222.70
644.22	39342.06
644.37	39384.19
644.51	39112.69
644.66	39140.78
644.81	39313.98
644.95	39143.12
645.10	39583.14
645.25	39220.36
645.39	39709.53
645.54	39510.58
645.69	39349.09
645.83	39185.25
645.98	38714.80
646.13	39257.81
646.27	39309.30
646.42	38909.07
646.57	39117.37
646.71	38974.60
646.86	39239.08
647.00	39075.24
647.15	39023.75
647.30	39019.07
647.44	39208.65
647.59	38838.85
647.74	39054.18
647.88	38869.28
648.03	38632.88
648.17	38848.21
648.32	38494.79
648.47	38557.99
648.61	38443.30
648.76	39058.86
648.90	38447.98
649.05	38951.20
649.20	38562.67
649.34	38485.43
649.49	38176.48
649.63	38459.68
649.78	38745.23
649.92	38522.88
650.07	38888.00
650.21	37769.22
650.36	38588.41
650.51	38401.17
650.65	39150.14
650.80	38834.17
650.94	38604.80
651.09	38190.52
651.23	38466.70
651.38	38017.32
651.52	38029.02
651.67	38340.32
651.81	38394.15
651.96	37691.99
652.10	38099.24
652.25	37869.87
652.39	37703.69
652.54	38103.92
652.68	37993.92
652.83	38183.50
652.97	38295.85
653.12	37895.61
653.26	37837.10
653.41	37867.53
653.55	38050.09
653.70	37832.42
653.84	37907.32
653.99	37904.98
654.13	37687.31
654.27	37706.03
654.42	37546.87
654.56	37783.27
654.71	37701.35
654.85	37373.67
655.00	37879.23
655.14	37488.36
655.29	37209.84
655.43	37301.12
655.57	37254.31
655.72	37242.60
655.86	37340.91
656.01	37034.30
656.15	37380.70
656.30	37053.02
656.44	37221.54
656.58	36921.95
656.73	37046.00
656.87	37287.07
657.01	36996.85
657.16	37055.36
657.30	36959.40
657.45	36910.25
657.59	37095.15
657.73	36933.65
657.88	37156.00
658.02	37106.85
658.16	36727.69
658.31	37144.30
658.45	36987.49
658.60	36521.72
658.74	37174.73
658.88	36641.09
659.03	36584.91
659.17	36503.00
659.31	36451.50
659.46	36018.50
659.60	36481.93
659.74	36533.42
659.89	36163.62
660.03	36198.73
660.17	36149.57
660.32	36594.28
660.46	36613.00
660.60	36563.85
660.74	36282.98
660.89	36339.16
661.03	36294.69
661.17	35910.84
661.32	35885.09
661.46	36081.70
661.60	35913.18
661.74	35835.94
661.89	35908.50
662.03	35775.09
662.17	35674.45
662.31	35651.04
662.46	35629.98
662.60	35725.94
662.74	35557.42
662.88	35597.21
663.03	35737.64
663.17	35541.03
663.31	35358.47
663.45	35267.19
663.60	35241.45
663.74	34731.21
663.88	35068.25
664.02	34717.17
664.17	35332.73
664.31	35131.44
664.45	35299.96
664.59	35115.06
664.73	34976.97
664.88	34899.73
665.02	34529.92
665.16	34504.18
665.30	35075.27
665.44	34838.87
665.59	34419.92
665.73	34532.26
665.87	34583.76
666.01	34572.05
666.15	34410.56
666.29	34433.96
666.44	34614.18
666.58	34281.83
666.72	34452.69
666.86	34508.86
667.00	34508.86
667.14	34223.31
667.28	33670.95
667.43	33270.72
667.57	34153.10
667.71	34007.98
667.85	33790.31
667.99	33846.49
668.13	33357.32
668.27	33638.18
668.41	33867.55
668.56	33404.13
668.70	33792.65
668.84	33673.29
668.98	33113.90
669.12	33322.21
669.26	33476.68
669.40	33149.01
669.54	33085.81
669.68	33385.40
669.82	32992.19
669.96	33207.52
670.10	32840.06
670.25	33177.09
670.39	33184.12
670.53	32811.97
670.67	32617.71
670.81	32725.37
670.95	32884.53
671.09	32591.96
671.23	33158.37
671.37	32355.57
671.51	32453.87
671.65	32669.20
671.79	32189.39
671.93	32098.11
672.07	32472.59
672.21	32268.97
672.35	31969.38
672.49	32388.33
672.63	32140.24
672.77	31859.37
672.91	31566.81
673.05	31824.26
673.19	31730.64
673.33	31606.59
673.47	31393.61
673.61	31454.46
673.75	31234.45
673.89	31395.95
674.03	30911.46
674.17	30866.98
674.31	30892.73
674.45	31072.95
674.59	30834.22
674.73	31192.32
674.87	30754.64
675.01	30710.17
675.15	30885.71
675.29	31016.78
675.43	31211.04
675.56	30930.18
675.70	30661.02
675.84	30796.77
675.98	29394.79
676.12	30010.35
676.26	30071.20
676.40	29780.98
676.54	30040.78
676.68	29834.81
676.82	29687.36
676.96	29589.05
677.10	29537.56
677.23	29795.02
677.37	29472.03
677.51	29687.36
677.65	28870.51
677.79	29085.84
677.93	28940.72
678.07	28957.11
678.21	28802.63
678.34	28830.72
678.48	28528.79
678.62	28512.41
678.76	28577.94
678.90	28645.82
679.04	28723.05
679.18	28512.41
679.31	28313.46
679.45	27978.76
679.59	27978.76
679.73	27812.59
679.87	27681.52
680.00	27953.02
680.14	27744.71
680.28	27779.82
680.42	27445.12
680.56	27906.21
680.70	27662.79
680.83	27197.02
680.97	27435.76
681.11	27058.93
681.25	27068.30
681.39	26682.11
681.52	27016.80
681.66	26789.77
681.80	26838.92
681.94	26841.26
682.07	26778.07
682.21	26256.13
682.35	26003.35
682.49	26263.15
682.62	26286.56
682.76	26008.03
682.90	26050.16
683.04	26188.25
683.17	26206.98
683.31	25837.17
683.45	26230.38
683.59	25783.34
683.72	25411.20
683.86	25614.82
684.00	25266.08
684.13	25397.15
684.27	25743.55
684.41	25415.88
684.55	25043.73
684.68	24980.54
684.82	24870.53
684.96	24760.53
685.09	24599.03
685.23	24704.35
685.37	24308.80
685.50	24669.25
685.64	24945.43
685.78	24357.96
685.91	24456.26
686.05	24133.26
686.19	23637.07
686.32	23936.66
686.46	23969.43
686.60	23342.16
686.73	23941.34
686.87	23545.79
687.01	23527.06
687.14	23386.63
687.28	23096.41
687.42	23044.91
687.55	23014.49
687.69	23040.23
687.82	23171.30
687.96	22735.96
688.10	22616.60
688.23	22593.19
688.37	22487.87
688.50	22597.87
688.64	22726.60
688.78	22485.53
688.91	21984.65
689.05	21823.16
689.18	22192.96
689.32	21589.10
689.46	22033.80
689.59	22265.52
689.73	21893.37
689.86	21802.09
690.00	21668.68
690.13	21788.05
690.27	21591.44
690.41	21837.20
690.54	21268.45
690.68	21495.48
690.81	20964.18
690.95	21055.46
691.08	21207.59
691.22	21146.74
691.35	21057.80
691.49	21027.37
691.62	20601.40
691.76	20695.02
691.89	20872.90
692.03	20318.19
692.16	20329.89
692.30	20411.81
692.43	20243.29
692.57	20159.03
692.70	20093.50
692.84	20051.37
692.97	20039.67
693.11	19913.28
693.24	19922.64
693.38	19501.34
693.51	19428.79
693.65	19740.08
693.78	19536.45
693.92	19541.13
694.05	19304.74
694.19	19410.06
694.32	19171.33
694.45	19201.76
694.59	19112.81
694.72	19220.48
694.86	19124.52
694.99	18810.89
695.13	18698.54
695.26	18939.62
695.39	18607.26
695.53	18546.40
695.66	18267.88
695.80	18305.33
695.93	18380.23
696.07	18377.89
696.20	18232.77
696.33	17930.84
696.47	18054.89
696.60	17982.34
696.73	18012.76
696.87	17778.71
697.00	17802.11
697.14	17628.92
697.27	17556.36
697.40	17633.60
697.54	17462.74
697.67	17254.43
697.80	17081.23
697.94	17142.08
698.07	17018.04
698.21	17034.42
698.34	17099.95
698.47	16769.94
698.61	16821.43
698.74	16854.20
698.87	16702.06
699.01	16355.66
699.14	16446.94
699.27	16627.17
699.40	16259.70
699.54	16482.05
699.67	16067.78
699.80	16259.70
699.94	16025.65
700.07	16058.42
700.20	15803.30
700.34	15660.52
700.47	15761.17
700.60	15651.16
700.73	15543.50
700.87	15688.61
701.00	15440.51
701.13	15489.67
701.26	15475.62
701.40	15466.26
701.53	15066.03
701.66	15405.41
701.79	15257.95
701.93	14953.68
702.06	14759.42
702.19	14956.02
702.32	14839.00
702.46	14846.02
702.59	14586.22
702.72	14410.68
702.85	14806.23
702.99	14754.74
703.12	14689.20
703.25	14569.83
703.38	14583.88
703.51	14431.74
703.65	14178.97
703.78	14235.14
703.91	14389.61
704.04	13949.59
704.17	14113.43
704.31	13816.18
704.44	13944.91
704.57	13497.87
704.70	13722.56
704.83	13635.96
704.96	13696.82
705.10	13820.86
705.23	13811.50
>>>>>End Processed Spectral Data<<<<<
