SpectraSuite Data File
++++++++++++++++++++++++++++++++++++
Date: Fri Oct 25 10:47:39 EDT 2013
User: price-jones
Dark Spectrum Present: No
Reference Spectrum Present: No
Number of Sampled Component Spectra: 1
Spectrometers: USB2+H05261
Integration Time (usec): 100000 (USB2+H05261)
Spectra Averaged: 1 (USB2+H05261)
Boxcar Smoothing: 0 (USB2+H05261)
Correct for Electrical Dark: No (USB2+H05261)
Strobe/Lamp Enabled: No (USB2+H05261)
Correct for Detector Non-linearity: No (USB2+H05261)
Correct for Stray Light: No (USB2+H05261)
Number of Pixels in Processed Spectrum: 2048
>>>>>Begin Processed Spectral Data<<<<<
365.73	124.05
365.92	124.05
366.12	124.05
366.32	60.85
366.52	0.00
366.72	63.19
366.91	0.00
367.11	95.96
367.31	7.02
367.51	46.81
367.70	74.90
367.90	49.15
368.10	51.49
368.30	0.00
368.49	0.00
368.69	72.56
368.89	159.16
369.09	37.45
369.28	58.51
369.48	4.68
369.68	145.11
369.87	42.13
370.07	154.48
370.27	154.48
370.47	198.95
370.66	381.51
370.86	372.15
371.06	500.87
371.25	407.25
371.45	449.38
371.65	526.62
371.84	437.68
372.04	451.72
372.24	418.96
372.44	477.47
372.63	491.51
372.83	491.51
373.03	461.09
373.22	444.70
373.42	496.19
373.62	519.60
373.81	526.62
374.01	603.86
374.21	613.22
374.40	528.96
374.60	566.41
374.79	496.19
374.99	470.45
375.19	519.60
375.38	585.13
375.58	594.50
375.78	575.77
375.97	491.51
376.17	624.92
376.37	617.90
376.56	648.33
376.76	559.39
376.95	472.79
377.15	622.58
377.35	617.90
377.54	664.71
377.74	589.82
377.93	594.50
378.13	622.58
378.33	667.05
378.52	594.50
378.72	667.05
378.91	620.24
379.11	695.14
379.31	664.71
379.50	624.92
379.70	660.03
379.89	667.05
380.09	636.63
380.28	653.01
380.48	667.05
380.68	711.52
380.87	645.99
381.07	683.44
381.26	671.73
381.46	734.93
381.65	629.60
381.85	650.67
382.04	704.50
382.24	711.52
382.43	629.60
382.63	681.10
382.83	723.23
383.02	662.37
383.22	695.14
383.41	772.38
383.61	725.57
383.80	774.72
384.00	681.10
384.19	725.57
384.39	683.44
384.58	758.33
384.78	849.61
384.97	861.32
385.17	823.87
385.36	669.39
385.56	678.76
385.75	709.18
385.95	748.97
386.14	802.80
386.34	791.10
386.53	798.12
386.72	819.19
386.92	812.17
387.11	791.10
387.31	912.81
387.50	798.12
387.70	725.57
387.89	851.96
388.09	767.70
388.28	877.70
388.48	854.30
388.67	812.17
388.86	875.36
389.06	898.77
389.25	898.77
389.45	978.34
389.64	940.90
389.84	877.70
390.03	973.66
390.22	957.28
390.42	929.19
390.61	929.19
390.81	992.39
391.00	931.53
391.19	933.87
391.39	952.60
391.58	1036.86
391.78	985.37
391.97	933.87
392.16	905.79
392.36	994.73
392.55	1034.52
392.75	1053.24
392.94	973.66
393.13	994.73
393.33	947.92
393.52	976.00
393.71	1062.60
393.91	1043.88
394.10	1137.50
394.29	994.73
394.49	1036.86
394.68	1125.80
394.88	1074.31
395.07	1188.99
395.26	1111.75
395.46	1142.18
395.65	1114.10
395.84	1111.75
396.04	1139.84
396.23	1151.54
396.42	1153.88
396.62	1191.33
396.81	1184.31
397.00	1235.80
397.19	1167.93
397.39	1181.97
397.58	1196.01
397.77	1226.44
397.97	1406.66
398.16	1291.98
398.35	1401.98
398.55	1287.29
398.74	1334.11
398.93	1345.81
399.12	1343.47
399.32	1413.68
399.51	1291.98
399.70	1406.66
399.90	1455.81
400.09	1427.73
400.28	1399.64
400.47	1310.70
400.67	1425.39
400.86	1441.77
401.05	1493.26
401.24	1451.13
401.44	1526.03
401.63	1451.13
401.82	1598.59
402.01	1526.03
402.21	1605.61
402.40	1572.84
402.59	1530.71
402.78	1572.84
402.97	1493.26
403.17	1575.18
403.36	1593.90
403.55	1668.80
403.74	1694.55
403.93	1706.25
404.13	1727.32
404.32	1577.52
404.51	1666.46
404.70	1757.74
404.89	1607.95
405.09	1778.81
405.28	1769.44
405.47	1804.55
405.66	1788.17
405.85	1802.21
406.05	1870.09
406.24	1823.28
406.43	1842.00
406.62	1888.81
406.81	1942.64
407.00	1860.73
407.20	1818.60
407.39	1928.60
407.58	1970.73
407.77	1956.69
407.96	1959.03
408.15	2036.27
408.34	2092.44
408.54	2015.20
408.73	2059.67
408.92	2094.78
409.11	2113.50
409.30	2174.36
409.49	2146.27
409.68	2071.37
409.87	2038.61
410.07	2118.18
410.26	2099.46
410.45	2162.66
410.64	2167.34
410.83	2230.53
411.02	2246.91
411.21	2361.60
411.40	2286.70
411.59	2396.71
411.78	2363.94
411.98	2289.04
412.17	2396.71
412.36	2471.61
412.55	2387.35
412.74	2406.07
412.93	2436.50
413.12	2413.09
413.31	2612.04
413.50	2408.41
413.69	2574.59
413.88	2565.23
414.07	2658.85
414.26	2628.42
414.45	2736.09
414.64	2691.62
414.83	2644.81
415.02	2586.29
415.22	2846.09
415.41	2808.64
415.60	2881.20
415.79	2782.90
415.98	2998.23
416.17	2946.73
416.36	2965.46
416.55	2853.11
416.74	2979.50
416.93	2963.12
417.12	2991.20
417.31	2937.37
417.50	3023.97
417.69	3068.44
417.88	3112.91
418.07	2935.03
418.26	3108.23
418.45	3164.40
418.64	3274.41
418.83	3192.49
419.02	3199.51
419.21	3225.26
419.39	3335.26
419.58	3185.47
419.77	3262.71
419.96	3335.26
420.15	3276.75
420.34	3253.34
420.53	3346.97
420.72	3368.03
420.91	3421.86
421.10	3372.71
421.29	3449.95
421.48	3485.06
421.67	3501.44
421.86	3438.25
422.05	3496.76
422.24	3480.38
422.43	3597.40
422.61	3524.85
422.80	3471.01
422.99	3506.12
423.18	3676.98
423.37	3604.42
423.56	3520.17
423.75	3618.47
423.94	3524.85
424.13	3274.41
424.32	3375.05
424.50	3611.45
424.69	3686.34
424.88	3639.53
425.07	3559.95
425.26	3625.49
425.45	3541.23
425.64	3508.46
425.83	3599.74
426.01	3667.62
426.20	3669.96
426.39	3611.45
426.58	3559.95
426.77	3559.95
426.96	3658.26
427.15	3503.78
427.33	3646.55
427.52	3651.24
427.71	3627.83
427.90	3754.22
428.09	3798.69
428.28	3871.25
428.46	3754.22
428.65	3775.28
428.84	3871.25
429.03	3941.46
429.22	3761.24
429.40	3843.16
429.59	3843.16
429.78	3705.07
429.97	3829.12
430.16	3805.71
430.34	3999.98
430.53	3878.27
430.72	3812.73
430.91	3939.12
431.10	4095.94
431.28	4182.54
431.47	4168.49
431.66	4091.26
431.85	4011.68
432.03	4273.82
432.22	4128.70
432.41	4276.16
432.60	4402.55
432.79	4198.92
432.97	4486.81
433.16	4395.53
433.35	4231.69
433.54	4327.65
433.72	4311.27
433.91	4196.58
434.10	4432.97
434.28	4395.53
434.47	4404.89
434.66	4486.81
434.85	4379.14
435.03	4585.11
435.22	4484.47
435.41	4702.14
435.59	4613.20
435.78	4510.21
435.97	4655.33
436.16	4645.96
436.34	4741.93
436.53	4645.96
436.72	4760.65
436.90	4601.49
437.09	4737.24
437.28	4540.64
437.46	4648.30
437.65	4699.80
437.84	4650.64
438.02	4821.50
438.21	4713.84
438.40	4631.92
438.58	4952.57
438.77	5004.07
438.96	4854.27
439.14	5135.14
439.33	5111.73
439.52	5233.44
439.70	5142.16
439.89	5111.73
440.08	5210.03
440.26	5160.88
440.45	5210.03
440.63	5348.12
440.82	5408.98
441.01	5444.09
441.19	5533.03
441.38	5476.85
441.57	5397.28
441.75	5624.31
441.94	5776.44
442.12	5790.49
442.31	5893.47
442.50	5790.49
442.68	5757.72
442.87	5673.46
443.05	5804.53
443.24	5909.85
443.43	5771.76
443.61	5891.13
443.80	6113.48
443.98	5802.19
444.17	5605.58
444.35	5944.96
444.54	6033.90
444.73	5987.09
444.91	5851.34
445.10	5928.58
445.28	5891.13
445.47	5867.72
445.65	5968.37
445.84	5937.94
446.02	5930.92
446.21	5905.17
446.39	5811.55
446.58	6076.03
446.77	6069.01
446.95	5860.70
447.14	6101.78
447.32	6183.70
447.51	6033.90
447.69	5926.24
447.88	5905.17
448.06	5998.79
448.25	6003.47
448.43	6024.54
448.62	6141.57
448.80	6183.70
448.99	6188.38
449.17	6249.23
449.36	6291.36
449.54	6272.64
449.73	6450.52
449.91	6534.78
450.10	6403.71
450.28	6534.78
450.46	6569.88
450.65	6312.42
450.83	6443.49
451.02	6649.46
451.20	6630.74
451.39	6663.51
451.57	6572.22
451.76	6490.31
451.94	6700.95
452.13	6672.87
452.31	6466.90
452.49	6392.00
452.68	6633.08
452.86	6541.80
453.05	6771.17
453.23	6719.68
453.42	6626.06
453.60	6693.93
453.78	6719.68
453.97	6520.73
454.15	6705.63
454.34	6679.89
454.52	6761.81
454.70	6665.85
454.89	6761.81
455.07	6848.41
455.26	6967.77
455.44	6958.41
455.62	7178.42
455.81	6998.20
455.99	7133.95
456.17	7201.83
456.36	7063.74
456.54	7105.87
456.73	7449.93
456.91	7274.38
457.09	7386.73
457.28	7412.48
457.46	7321.20
457.64	7529.50
457.83	7407.80
458.01	7213.53
458.19	7597.38
458.38	7456.95
458.56	7571.63
458.74	7452.27
458.93	7473.33
459.11	7508.44
459.29	7478.01
459.48	7501.42
459.66	7534.18
459.84	7620.78
460.03	7758.88
460.21	7833.77
460.39	7562.27
460.57	7833.77
460.76	7566.95
460.94	7889.95
461.12	7714.41
461.31	7843.14
461.49	7723.77
461.67	7882.92
461.85	8081.87
462.04	8011.65
462.22	8547.64
462.40	8145.06
462.59	8163.79
462.77	7864.20
462.95	8414.23
463.13	8196.56
463.32	8250.39
463.50	8259.75
463.68	8252.73
463.86	8243.37
464.05	8013.99
464.23	8049.10
464.41	8344.01
464.59	8229.32
464.78	8374.44
464.96	8376.78
465.14	8283.16
465.32	8234.00
465.50	8517.21
465.69	8587.43
465.87	8519.55
466.05	8454.02
466.23	8376.78
466.41	8552.32
466.60	8636.58
466.78	8322.94
466.96	8341.67
467.14	8585.08
467.32	8542.96
467.51	8767.65
467.69	8458.70
467.87	8512.53
468.05	8865.95
468.23	8671.68
468.41	8772.33
468.60	8608.49
468.78	8755.94
468.96	8695.09
469.14	8887.01
469.32	9025.11
469.50	8816.80
469.69	9078.94
469.87	9095.32
470.05	9202.99
470.23	9083.62
470.41	8975.95
470.59	9060.21
470.77	9111.71
470.95	9085.96
471.14	9418.32
471.32	9341.08
471.50	9415.98
471.68	9458.10
471.86	9556.41
472.04	9441.72
472.22	9631.30
472.40	9221.71
472.58	9296.61
472.77	9516.62
472.95	9614.92
473.13	9914.51
473.31	9710.88
473.49	9643.01
473.67	9788.12
473.85	9832.59
474.03	10054.94
474.21	10015.15
474.39	10127.50
474.57	10057.28
474.75	10108.77
474.93	10307.72
475.12	10211.76
475.30	10169.63
475.48	10267.93
475.66	10492.62
475.84	10469.22
476.02	10548.79
476.20	10640.08
476.38	10576.88
476.56	10995.84
476.74	10850.72
476.92	10895.19
477.10	11012.22
477.28	11054.35
477.46	11164.36
477.64	11124.57
477.82	11377.34
478.00	11555.22
478.18	11426.50
478.36	11485.01
478.54	11833.75
478.72	12020.99
478.90	11901.62
479.08	11943.75
479.26	11910.99
479.44	11988.22
479.62	12166.10
479.80	12290.15
479.98	12318.24
480.16	12116.95
480.34	12437.61
480.52	12674.00
480.70	12929.12
480.88	12423.56
481.06	12613.15
481.24	12884.65
481.41	12849.54
481.59	13121.04
481.77	13209.98
481.95	13303.60
482.13	13446.38
482.31	13207.64
482.49	13818.52
482.67	13757.67
482.85	13851.29
483.03	13713.20
483.21	13961.30
483.39	14083.00
483.57	13956.61
483.74	14085.34
483.92	14487.92
484.10	14387.27
484.28	14867.08
484.46	15087.09
484.64	15197.10
484.82	15019.22
485.00	15028.58
485.18	15431.15
485.35	15239.23
485.53	15328.17
485.71	15328.17
485.89	15496.69
486.07	15316.47
486.25	15674.57
486.43	15484.98
486.61	15709.68
486.78	15995.22
486.96	16374.39
487.14	16407.16
487.32	16287.79
487.50	16720.79
487.68	16573.33
487.85	17144.42
488.03	17118.68
488.21	17322.30
488.39	17149.11
488.57	17696.79
488.75	17413.59
488.92	17830.20
489.10	18097.02
489.28	18045.53
489.46	18216.39
489.64	18134.47
489.81	18553.43
489.99	18466.83
490.17	18979.40
490.35	18843.65
490.53	18707.90
490.70	18925.57
490.88	18970.04
491.06	19566.88
491.24	19597.31
491.41	19428.79
491.59	19227.50
491.77	19309.42
491.95	19969.45
492.13	20159.03
492.30	20095.84
492.48	20013.92
492.66	20407.13
492.84	20325.21
493.01	20489.05
493.19	20318.19
493.37	20608.42
493.54	21036.74
493.72	21369.09
493.90	21174.83
494.08	21434.63
494.25	21453.35
494.43	21589.10
494.61	21598.46
494.79	21642.93
494.96	21825.50
495.14	21958.91
495.32	22167.21
495.49	22352.12
495.67	22317.01
495.85	22188.28
496.02	22565.10
496.20	22387.22
496.38	22911.50
496.55	22874.06
496.73	23194.71
496.91	23262.58
497.09	23360.89
497.26	23131.51
497.44	23232.16
497.62	23697.92
497.79	23700.26
497.97	23255.56
498.14	23845.38
498.32	23452.17
498.50	23901.55
498.67	24032.62
498.85	24332.21
499.03	24517.11
499.20	24446.90
499.38	24407.11
499.56	24587.33
499.73	24584.99
499.91	24542.86
500.08	25069.48
500.26	24545.20
500.44	24694.99
500.61	25188.85
500.79	25104.59
500.97	25238.00
501.14	25591.42
501.32	25439.28
501.49	25596.10
501.67	25275.45
501.84	25605.46
502.02	25656.95
502.20	25762.28
502.37	25956.54
502.55	25970.58
502.72	25933.14
502.90	26125.06
503.07	26567.42
503.25	26380.18
503.43	26267.83
503.60	26242.09
503.78	26375.50
503.95	26223.36
504.13	26703.17
504.30	27199.37
504.48	26927.86
504.65	27023.83
504.83	27054.25
505.01	27175.96
505.18	27213.41
505.36	27297.67
505.53	27178.30
505.71	27395.97
505.88	27714.28
506.06	27438.10
506.23	27704.92
506.41	27803.22
506.58	27927.27
506.76	27688.54
506.93	27964.72
507.11	27927.27
507.28	28268.99
507.46	28238.56
507.63	28374.31
507.81	28739.44
507.98	28353.25
508.16	28149.62
508.33	28608.37
508.50	28617.73
508.68	28849.44
508.85	29294.14
509.03	28978.17
509.20	29020.30
509.38	29364.36
509.55	29158.39
509.73	29109.24
509.90	29359.68
510.08	29371.38
510.25	29551.60
510.42	29867.58
510.60	29790.34
510.77	29900.34
510.95	30087.59
511.12	29958.86
511.30	30110.99
511.47	30331.00
511.64	30333.34
511.82	30436.33
511.99	30146.10
512.17	30515.90
512.34	30270.15
512.51	30874.01
512.69	31012.10
512.86	30508.88
513.04	31009.76
513.21	30960.61
513.38	30684.42
513.56	30984.01
513.73	31215.72
513.90	31145.51
514.08	30958.27
514.25	31424.03
514.43	31562.12
514.60	31335.09
514.77	31669.79
514.95	31761.07
515.12	31185.30
515.29	31807.88
515.47	32243.22
515.64	32575.58
515.81	31545.74
515.99	32065.34
516.16	31920.23
516.33	31997.46
516.51	32486.64
516.68	31599.57
516.85	32095.77
517.03	31772.77
517.20	31985.76
517.37	32165.98
517.54	32512.38
517.72	32367.27
517.89	32376.63
518.06	32336.84
518.24	32341.52
518.41	32706.65
518.58	32699.62
518.75	33050.70
518.93	32648.13
519.10	32945.38
519.27	33464.98
519.45	33041.34
519.62	33219.22
519.79	33558.60
519.96	33125.60
520.14	33818.40
520.31	33720.10
520.48	33628.82
520.65	33727.12
520.83	33883.94
521.00	33979.90
521.17	34024.37
521.34	34316.93
521.52	34005.64
521.69	34366.09
521.86	34565.03
522.03	34682.06
522.20	34073.52
522.38	34541.63
522.55	34717.17
522.72	34574.39
522.89	34520.56
523.07	34494.82
523.24	34684.40
523.41	34892.71
523.58	34616.52
523.75	35353.79
523.92	35328.05
524.10	34976.97
524.27	35445.07
524.44	35613.59
524.61	35424.01
524.78	35634.66
524.96	35529.33
525.13	35629.98
525.30	35992.76
525.47	35985.74
525.64	36165.96
525.81	35695.51
525.98	35548.06
526.16	35686.15
526.33	35398.26
526.50	36184.68
526.67	35941.27
526.84	35716.58
527.01	35814.88
527.18	36297.03
527.36	36474.91
527.53	36172.98
527.70	36788.54
527.87	36355.54
528.04	36671.51
528.21	36360.22
528.38	36531.08
528.55	37095.15
528.72	36491.29
528.89	37099.83
529.07	36886.84
529.24	36840.03
529.41	36669.17
529.58	36804.92
529.75	37331.54
529.92	36964.08
530.09	37158.34
530.26	37249.63
530.43	37003.87
530.60	37156.00
530.77	37156.00
530.94	37610.07
531.11	37446.23
531.28	37137.28
531.46	37422.83
531.63	37755.18
531.80	37565.60
531.97	37708.37
532.14	37675.60
532.31	37277.71
532.48	37837.10
532.65	38300.53
532.82	37694.33
532.99	38122.65
533.16	37771.57
533.33	38066.47
533.50	37979.87
533.67	37890.93
533.84	37970.51
534.01	38230.31
534.18	38459.68
534.35	38340.32
534.52	38211.59
534.69	38199.88
534.86	38260.74
535.03	38373.08
535.20	38614.16
535.37	39150.14
535.54	38934.81
535.71	38611.82
535.88	39009.71
536.05	38883.32
536.22	38913.75
536.38	38948.85
536.55	38752.25
536.72	39147.80
536.89	38651.61
537.06	38801.40
537.23	39428.66
537.40	38813.10
537.57	39325.68
537.74	39299.94
537.91	39959.97
538.08	39342.06
538.25	38850.55
538.42	39667.40
538.59	39489.52
538.75	39007.37
538.92	39435.69
539.09	39515.26
539.26	39629.95
539.43	39288.23
539.60	40034.86
539.77	39512.92
539.94	39833.58
540.11	39541.01
540.28	39505.90
540.44	39550.37
540.61	39756.34
540.78	39871.03
540.95	39377.17
541.12	39583.14
541.29	40034.86
541.46	39721.23
541.62	40084.01
541.79	39835.92
541.96	40203.38
542.13	40109.76
542.30	40067.63
542.47	40517.01
542.63	40130.83
542.80	40495.95
542.97	40669.15
543.14	41006.19
543.31	41380.67
543.48	40870.43
543.64	40994.48
543.81	40830.65
543.98	40926.61
544.15	40652.76
544.32	41148.96
544.48	41078.74
544.65	41347.90
544.82	41251.94
544.99	41209.81
545.16	41106.83
545.32	41298.75
545.49	41521.10
545.66	41359.61
545.83	41521.10
546.00	41935.38
546.16	41537.49
546.33	41375.99
546.50	41074.06
546.67	41191.09
546.83	41109.17
547.00	41638.13
547.17	41422.80
547.34	41516.42
547.50	41708.35
547.67	41909.63
547.84	41546.85
548.00	41923.68
548.17	41787.92
548.34	41537.49
548.51	42099.22
548.67	42206.88
548.84	42244.33
549.01	42061.77
549.18	41851.12
549.34	41574.94
549.51	42213.90
549.68	42548.60
549.84	42382.42
550.01	42274.76
550.18	42309.86
550.34	42513.49
550.51	42267.73
550.68	42005.59
550.84	42267.73
551.01	42597.75
551.18	42330.93
551.34	41918.99
551.51	42663.28
551.68	42447.96
551.84	42644.56
552.01	42717.12
552.18	42087.51
552.34	42241.99
552.51	42696.05
552.68	42766.27
552.84	42583.71
553.01	42951.17
553.18	42733.50
553.34	42721.80
553.51	42941.81
553.67	42810.74
553.84	42656.26
554.01	43236.72
554.17	43367.79
554.34	43246.08
554.51	43239.06
554.67	42820.10
554.84	43140.75
555.00	43049.47
555.17	42827.12
555.33	42993.30
555.50	42548.60
555.67	43257.78
555.83	43220.33
556.00	43250.76
556.16	43199.27
556.33	43374.81
556.50	43768.02
556.66	43435.66
556.83	43210.97
556.99	43763.34
557.16	43430.98
557.32	43702.48
557.49	43428.64
557.65	43103.31
557.82	43761.00
557.98	43311.61
558.15	43475.45
558.32	43344.38
558.48	43449.70
558.65	43442.68
558.81	43475.45
558.98	43306.93
559.14	43880.36
559.31	43985.69
559.47	43725.89
559.64	43903.77
559.80	43711.84
559.97	43992.71
560.13	43564.39
560.30	43278.85
560.46	43402.89
560.63	43882.70
560.79	44135.48
560.96	43999.73
561.12	43988.03
561.29	44208.04
561.45	43634.61
561.61	43845.26
561.78	43838.23
561.94	43988.03
562.11	43761.00
562.27	44098.03
562.44	44318.04
562.60	44149.53
562.77	44172.93
562.93	44208.04
563.10	44591.89
563.26	43854.62
563.42	44158.89
563.59	44123.78
563.75	43945.90
563.92	44589.55
564.08	43878.02
564.24	44746.36
564.41	44091.01
564.57	44245.49
564.74	44107.40
564.90	44175.27
565.07	44112.08
565.23	44868.07
565.39	44409.32
565.56	44194.00
565.72	44123.78
565.88	44622.31
566.05	44257.19
566.21	44346.13
566.38	44051.22
566.54	44266.55
566.70	44360.17
566.87	44432.73
567.03	44435.07
567.19	44364.85
567.36	44807.22
567.52	44392.94
567.68	45010.84
567.85	44900.84
568.01	44851.69
568.17	44474.86
568.34	44769.77
568.50	44760.40
568.66	44137.82
568.83	44680.83
568.99	44514.65
569.15	44395.28
569.32	44516.99
569.48	44556.78
569.64	44617.63
569.81	44278.25
569.97	44779.13
570.13	44493.58
570.30	44385.92
570.46	44397.62
570.62	44114.42
570.78	44474.86
570.95	44062.93
571.11	45057.65
571.27	44423.37
571.43	45092.76
571.60	44577.84
571.76	44540.39
571.92	45277.66
572.09	44502.95
572.25	44854.03
572.41	44854.03
572.57	44425.71
572.74	45390.01
572.90	44835.30
573.06	44718.28
573.22	44671.46
573.38	44545.08
573.55	44547.42
573.71	45038.93
573.87	44208.04
574.03	44254.85
574.20	44540.39
574.36	44369.54
574.52	45134.89
574.68	45008.50
574.84	45069.36
575.01	44954.67
575.17	44556.78
575.33	44432.73
575.49	44933.60
575.65	45242.56
575.82	45024.89
575.98	45050.63
576.14	44973.39
576.30	45020.20
576.46	44397.62
576.62	44531.03
576.79	44739.34
576.95	44341.45
577.11	44636.36
577.27	44582.52
577.43	45247.24
577.59	44751.04
577.75	44722.96
577.92	44404.64
578.08	44659.76
578.24	44491.24
578.40	44788.49
578.56	44879.77
578.72	45116.17
578.88	44957.01
579.04	44865.73
579.21	45109.14
579.37	44648.06
579.53	45167.66
579.69	44563.80
579.85	44849.35
580.01	44816.58
580.17	44741.68
580.33	44713.59
580.49	45453.20
580.65	45043.61
580.82	45181.70
580.98	44727.64
581.14	45102.12
581.30	44987.44
581.46	44891.48
581.62	45062.33
581.78	44959.35
581.94	44968.71
582.10	44737.00
582.26	45315.11
582.42	44872.75
582.58	45038.93
582.74	44882.11
582.90	45258.94
583.06	44877.43
583.22	44849.35
583.38	45373.63
583.54	45041.27
583.70	44816.58
583.86	44825.94
584.02	44343.79
584.18	44772.11
584.34	45551.51
584.50	45382.99
584.66	44928.92
584.82	45111.49
584.98	45581.93
585.14	44968.71
585.30	44863.39
585.46	45207.45
585.62	45064.67
585.78	45055.31
585.94	44451.45
586.10	45024.89
586.26	44889.13
586.42	44980.42
586.58	45137.23
586.74	44975.73
586.90	44772.11
587.06	44725.30
587.22	45272.98
587.38	44718.28
587.54	45319.79
587.70	45331.50
587.86	45162.98
588.02	45081.06
588.18	45684.92
588.34	44772.11
588.49	44811.90
588.65	44582.52
588.81	45031.91
588.97	45008.50
589.13	44865.73
589.29	45242.56
589.45	45125.53
589.61	45401.71
589.77	45017.86
589.93	45762.15
590.08	45425.12
590.24	45326.81
590.40	45347.88
590.56	45591.30
590.72	45207.45
590.88	44823.60
591.04	45212.13
591.20	45516.40
591.35	45392.35
591.51	45778.54
591.67	45139.57
591.83	45500.01
591.99	45258.94
592.15	45109.14
592.31	45378.31
592.46	45338.52
592.62	45436.82
592.78	45514.06
592.94	45015.52
593.10	45083.40
593.26	45031.91
593.41	45233.19
593.57	45268.30
593.73	45397.03
593.89	45546.82
594.05	45282.34
594.20	45455.54
594.36	45382.99
594.52	45258.94
594.68	45282.34
594.84	45364.26
594.99	45970.46
595.15	45350.22
595.31	45696.62
595.47	45298.73
595.62	44814.24
595.78	45586.61
595.94	45956.42
596.10	45652.15
596.25	45488.31
596.41	45382.99
596.57	45226.17
596.73	45705.98
596.88	45202.77
597.04	45619.38
597.20	45696.62
597.36	45455.54
597.51	45921.31
597.67	45586.61
597.83	45450.86
597.99	45815.99
598.14	45638.11
598.30	45340.86
598.46	45462.57
598.61	45408.73
598.77	45261.28
598.93	45305.75
599.09	45500.01
599.24	45717.68
599.40	45198.09
599.56	45638.11
599.71	45284.68
599.87	45787.90
600.03	45301.07
600.18	45724.71
600.34	45373.63
600.50	45605.34
600.65	44877.43
600.81	45420.44
600.97	45532.78
601.12	45886.20
601.28	45230.85
601.44	45361.92
601.59	45893.22
601.75	45441.50
601.91	45549.17
602.06	45565.55
602.22	45682.58
602.37	45329.16
602.53	45029.57
602.69	46068.76
602.84	45406.39
603.00	45448.52
603.16	44753.38
603.31	44964.03
603.47	45467.25
603.62	45251.92
603.78	45411.07
603.94	45549.17
604.09	45813.65
604.25	45343.20
604.40	45373.63
604.56	45588.95
604.71	45387.67
604.87	45102.12
605.03	45361.92
605.18	45195.74
605.34	45467.25
605.49	44919.56
605.65	45170.00
605.80	45031.91
605.96	45584.27
606.12	45359.58
606.27	45675.55
606.43	45020.20
606.58	45055.31
606.74	44811.90
606.89	45214.47
607.05	45265.96
607.20	45050.63
607.36	45254.26
607.51	45546.82
607.67	45329.16
607.82	45198.09
607.98	45223.83
608.13	45038.93
608.29	45216.81
608.44	44842.32
608.60	44634.02
608.75	44893.82
608.91	44669.12
609.06	44821.26
609.22	45170.00
609.37	45326.81
609.53	44898.50
609.68	45165.32
609.84	44928.92
609.99	44940.63
610.15	44493.58
610.30	44664.44
610.46	44521.67
610.61	44865.73
610.76	44406.98
610.92	44706.57
611.07	44580.18
611.23	44481.88
611.38	44882.11
611.54	44549.76
611.69	44456.14
611.84	44512.31
612.00	44587.21
612.15	44767.43
612.31	44921.90
612.46	44617.63
612.62	45179.36
612.77	44839.98
612.92	44708.91
613.08	44664.44
613.23	44626.99
613.39	44748.70
613.54	43913.13
613.69	44502.95
613.85	44538.05
614.00	45036.59
614.15	44987.44
614.31	44671.46
614.46	44559.12
614.62	44694.87
614.77	44142.50
614.92	44671.46
615.08	44678.49
615.23	44065.27
615.38	44669.12
615.54	43915.47
615.69	44060.58
615.84	43976.33
616.00	44208.04
616.15	44039.52
616.30	44343.79
616.46	44208.04
616.61	44009.09
616.76	44296.98
616.92	43835.89
617.07	43901.43
617.22	44006.75
617.37	44238.47
617.53	44081.65
617.68	43866.32
617.83	43913.13
617.99	44240.81
618.14	44065.27
618.29	43746.95
618.45	43683.76
618.60	43983.35
618.75	43753.97
618.90	43863.98
619.06	43826.53
619.21	43580.78
619.36	44069.95
619.51	43805.47
619.67	43358.42
619.82	44182.29
619.97	44088.67
620.12	43428.64
620.28	43086.92
620.43	43391.19
620.58	43894.41
620.73	43344.38
620.89	43576.09
621.04	43480.13
621.19	43477.79
621.34	43227.35
621.49	43227.35
621.65	43199.27
621.80	43669.72
621.95	43091.60
622.10	43653.33
622.25	43283.53
622.41	43000.32
622.56	43660.35
622.71	43019.05
622.86	42899.68
623.01	43665.03
623.16	43264.80
623.32	43325.66
623.47	43278.85
623.62	43299.91
623.77	43051.81
623.92	43501.20
624.07	42738.18
624.23	42511.15
624.38	42780.31
624.53	42749.88
624.68	43075.22
624.83	42958.19
624.98	42773.29
625.13	42834.14
625.29	42700.73
625.44	42501.79
625.59	42735.84
625.74	42178.79
625.89	42611.79
626.04	41902.61
626.19	42204.54
626.34	42674.99
626.49	42459.66
626.65	42731.16
626.80	42600.09
626.95	42181.13
627.10	42277.10
627.25	42103.90
627.40	42043.04
627.55	41867.50
627.70	41947.08
627.85	42131.98
628.00	42108.58
628.15	42309.86
628.30	42363.70
628.45	42436.25
628.60	42335.61
628.76	42426.89
628.91	42272.42
629.06	42387.10
629.21	42279.44
629.36	42073.47
629.51	42057.09
629.66	41677.92
629.81	41738.77
629.96	42136.66
630.11	41542.17
630.26	42033.68
630.41	41907.29
630.56	42143.69
630.71	42120.28
630.86	41961.12
631.01	41645.15
631.16	41876.86
631.31	41467.27
631.46	41429.82
631.61	41558.55
631.76	41757.50
631.91	42003.25
632.06	41577.28
632.21	41427.48
632.36	41570.25
632.51	41041.29
632.66	41273.01
632.81	41291.73
632.96	41469.61
633.10	41308.11
633.25	41160.66
633.40	41956.44
633.55	41677.92
633.70	41177.04
633.85	41338.54
634.00	41127.89
634.15	41071.72
634.30	40938.31
634.45	41034.27
634.60	41301.09
634.75	41134.92
634.90	40987.46
635.05	41434.50
635.19	41219.17
635.34	41455.57
635.49	41095.13
635.64	40849.37
635.79	41104.49
635.94	41305.77
636.09	40837.67
636.24	40339.13
636.39	40367.22
636.53	40371.90
636.68	40573.19
636.83	40453.82
636.98	40708.94
637.13	40526.38
637.28	40952.35
637.43	40165.93
637.57	40769.79
637.72	40629.36
637.87	40832.99
638.02	40037.20
638.17	40512.33
638.32	40399.99
638.46	40172.96
638.61	40184.66
638.76	40107.42
638.91	40203.38
639.06	39931.88
639.20	40315.73
639.35	40751.07
639.50	40486.59
639.65	40147.21
639.80	40556.80
639.94	40273.60
640.09	39906.13
640.24	40067.63
640.39	40198.70
640.54	39992.73
640.68	40170.61
640.83	40086.36
640.98	39917.84
641.13	39819.53
641.27	40128.48
641.42	39693.15
641.57	39966.99
641.72	39934.22
641.86	39714.21
642.01	39693.15
642.16	39655.70
642.31	39618.25
642.45	39627.61
642.60	39508.24
642.75	39297.59
642.90	39143.12
643.04	39548.03
643.19	39077.58
643.34	39639.31
643.48	39651.02
643.63	39634.63
643.78	39290.57
643.93	39400.58
644.07	39379.51
644.22	39440.37
644.37	39257.81
644.51	39370.15
644.66	39428.66
644.81	39859.32
644.95	39735.27
645.10	38972.26
645.25	39248.44
645.39	39536.33
645.54	39349.09
645.69	39470.79
645.83	38904.38
645.98	39037.80
646.13	39494.20
646.27	38972.26
646.42	39100.99
646.57	39222.70
646.71	38712.46
646.86	39112.69
647.00	39178.23
647.15	39119.71
647.30	39342.06
647.44	38651.61
647.59	38639.90
647.74	39339.72
647.88	38841.19
648.03	38990.98
648.17	38476.07
648.32	38628.20
648.47	38232.65
648.61	38876.30
648.76	39243.76
648.90	38691.40
649.05	38817.78
649.20	38827.15
649.34	38754.59
649.49	38148.39
649.63	38686.71
649.78	38518.20
649.92	38405.85
650.07	38780.34
650.21	38389.47
650.36	38665.65
650.51	38576.71
650.65	38738.21
650.80	38850.55
650.94	38990.98
651.09	38309.89
651.23	38555.64
651.38	38389.47
651.52	38230.31
651.67	38597.77
651.81	38747.57
651.96	37883.91
652.10	37855.82
652.25	37755.18
652.39	38162.43
652.54	38127.33
652.68	37904.98
652.83	38057.11
652.97	38450.32
653.12	38253.72
653.26	37743.48
653.41	38223.29
653.55	37537.51
653.70	37413.46
653.84	37670.92
653.99	37813.70
654.13	37825.40
654.27	37984.55
654.42	37799.65
654.56	37542.19
654.71	37867.53
654.85	37591.34
655.00	37544.53
655.14	37677.94
655.29	37083.45
655.43	36968.76
655.57	37254.31
655.72	37141.96
655.86	37305.80
656.01	37017.91
656.15	36704.28
656.30	37380.70
656.44	37493.04
656.58	37092.81
656.73	37106.85
656.87	37170.05
657.01	37024.93
657.16	37151.32
657.30	36952.38
657.45	36772.16
657.59	36889.18
657.73	37092.81
657.88	36961.74
658.02	36699.60
658.16	37118.56
658.31	36858.76
658.45	36765.14
658.60	36807.26
658.74	37137.28
658.88	36524.06
659.03	36678.54
659.17	36744.07
659.31	36622.36
659.46	36500.65
659.60	36575.55
659.74	36280.64
659.89	36180.00
660.03	36247.88
660.17	36252.56
660.32	36566.19
660.46	36914.93
660.60	36177.66
660.74	36580.23
660.89	36137.87
661.03	35922.54
661.17	36084.04
661.32	35969.35
661.46	35777.43
661.60	35508.27
661.74	35885.09
661.89	35700.19
662.03	36039.57
662.17	35550.40
662.31	35295.28
662.46	36002.12
662.60	35728.28
662.74	35625.29
662.88	35711.89
663.03	35606.57
663.17	35409.96
663.31	35260.17
663.45	35395.92
663.60	35201.66
663.74	35367.84
663.88	35578.48
664.02	34941.86
664.17	35077.61
664.31	34834.19
664.45	34845.90
664.59	35051.86
664.73	34981.65
664.88	35014.41
665.02	34419.92
665.16	35115.06
665.30	34885.68
665.44	34134.37
665.59	34405.88
665.73	34068.84
665.87	34333.32
666.01	34401.19
666.15	34670.36
666.29	34188.21
666.44	34534.60
666.58	34242.04
666.72	34293.53
666.86	34363.75
667.00	34501.84
667.14	34600.14
667.28	34033.73
667.43	33998.62
667.57	33975.22
667.71	33701.37
667.85	33792.65
667.99	33525.83
668.13	33460.30
668.27	33345.61
668.41	33806.70
668.56	33474.34
668.70	33610.09
668.84	33764.57
668.98	33378.38
669.12	32751.12
669.26	33158.37
669.40	33109.22
669.54	33165.39
669.68	33420.51
669.82	33757.55
669.96	33071.77
670.10	32877.51
670.25	33036.66
670.39	33294.12
670.53	33219.22
670.67	32348.54
670.81	32907.93
670.95	33017.94
671.09	32996.87
671.23	32884.53
671.37	32797.93
671.51	32643.45
671.65	32383.65
671.79	32158.96
671.93	32360.25
672.07	32402.38
672.21	32210.45
672.35	32346.20
672.49	32189.39
672.63	31997.46
672.77	31615.96
672.91	31901.50
673.05	32006.83
673.19	31679.15
673.33	31337.43
673.47	31512.97
673.61	31435.74
673.75	30976.99
673.89	31098.70
674.03	30972.31
674.17	31269.56
674.31	30939.54
674.45	30904.43
674.59	31171.25
674.73	31337.43
674.87	30981.67
675.01	31000.40
675.15	30766.34
675.29	31110.40
675.43	30532.29
675.56	30799.11
675.70	30487.82
675.84	30445.69
675.98	29544.58
676.12	30260.79
676.26	30026.73
676.40	29996.31
676.54	29504.79
676.68	29984.60
676.82	29546.92
676.96	29525.86
677.10	29769.27
677.23	29731.83
677.37	29303.51
677.51	29685.01
677.65	29455.64
677.79	28765.18
677.93	29380.74
678.07	28849.44
678.21	28982.85
678.34	28835.40
678.48	28964.13
678.62	28781.57
678.76	28617.73
678.90	28388.36
679.04	28507.72
679.18	28292.40
679.31	28149.62
679.45	28018.55
679.59	27765.78
679.73	27953.02
679.87	28009.19
680.00	28034.94
680.14	28081.75
680.28	27527.04
680.42	27290.65
680.56	27845.35
680.70	27857.06
680.83	27426.40
680.97	27274.26
681.11	27129.15
681.25	27077.66
681.39	26817.86
681.52	26988.72
681.66	27297.67
681.80	26991.06
681.94	26911.48
682.07	26328.69
682.21	26473.80
682.35	26536.99
682.49	26434.01
682.62	26316.98
682.76	26064.21
682.90	26246.77
683.04	26132.08
683.17	26359.11
683.31	25888.67
683.45	26111.02
683.59	26001.01
683.72	25270.76
683.86	25296.51
684.00	25326.94
684.13	25256.72
684.27	25827.81
684.41	25006.28
684.55	25256.72
684.68	25256.72
684.82	25008.62
684.96	24739.46
685.09	24570.94
685.23	24774.57
685.37	24732.44
685.50	24556.90
685.64	24423.49
685.78	24407.11
685.91	24613.07
686.05	23978.79
686.19	23761.12
686.32	24065.39
686.46	23679.20
686.60	23403.02
686.73	23679.20
686.87	23339.82
687.01	23435.78
687.14	23372.59
687.28	23206.41
687.42	23236.84
687.55	23028.53
687.69	22923.21
687.82	23063.64
687.96	22855.33
688.10	22960.66
688.23	22834.27
688.37	22623.62
688.50	22270.20
688.64	22544.04
688.78	22630.64
688.91	22148.49
689.05	22036.14
689.18	22031.46
689.32	21638.25
689.46	21867.63
689.59	22253.81
689.73	21928.48
689.86	21841.88
690.00	21825.50
690.13	21823.16
690.27	21671.02
690.41	21570.38
690.54	21446.33
690.68	21202.91
690.81	20954.82
690.95	20847.15
691.08	21055.46
691.22	21003.97
691.35	20900.98
691.49	20563.95
691.62	20685.65
691.76	20828.43
691.89	21081.21
692.03	20746.51
692.16	20517.14
692.30	20556.93
692.43	20549.90
692.57	20222.23
692.70	20163.72
692.84	20198.82
692.97	19894.55
693.11	19669.86
693.24	19470.92
693.38	19733.06
693.51	19506.02
693.65	19782.21
693.78	19639.44
693.92	19440.49
694.05	19288.35
694.19	19363.25
694.32	19164.31
694.45	19417.08
694.59	19250.91
694.72	18911.53
694.86	19101.11
694.99	18635.35
695.13	18815.57
695.26	18532.36
695.39	18417.68
695.53	18527.68
695.66	18551.09
695.80	18354.48
695.93	18033.83
696.07	18045.53
696.20	18090.00
696.33	18085.32
696.47	17968.29
696.60	18101.70
696.73	17961.27
696.87	17781.05
697.00	17888.71
697.14	17689.77
697.27	17614.87
697.40	17451.03
697.54	17458.06
697.67	17188.89
697.80	17582.10
697.94	17280.18
698.07	17432.31
698.21	17177.19
698.34	17156.13
698.47	16968.88
698.61	16482.05
698.74	16561.63
698.87	16666.95
699.01	16496.10
699.14	16315.87
699.27	16299.49
699.40	16582.70
699.54	16072.46
699.67	16271.40
699.80	16177.78
699.94	15985.86
700.07	15969.48
700.20	15927.35
700.34	15925.00
700.47	15812.66
700.60	15840.75
700.73	16020.97
700.87	15358.60
701.00	15496.69
701.13	15295.40
701.26	15545.84
701.40	15276.68
701.53	15300.08
701.66	15309.44
701.79	15131.56
701.93	15000.49
702.06	15066.03
702.19	14841.34
702.32	15344.55
702.46	14850.70
702.59	15000.49
702.72	14539.41
702.85	14752.40
702.99	14988.79
703.12	14824.95
703.25	14710.27
703.38	14635.37
703.51	14188.33
703.65	14359.19
703.78	14464.51
703.91	14242.16
704.04	14319.40
704.17	13811.50
704.31	13870.01
704.44	13872.36
704.57	13621.92
704.70	13591.49
704.83	13575.11
704.96	13757.67
705.10	13764.69
705.23	13909.80
>>>>>End Processed Spectral Data<<<<<
